sep=,
DeviceTag:,D_Wrist
FirmwareVersion:,2.2.1
AppVersion:,2023.6.0
SyncStatus:,Synced
OutputRate:,30Hz
FilterProfile:,General
Measurement Mode:,Sensor fusion Mode - Complete(Quaternion)
StartTime: ,2026-09-15_13:45:15_646 AEST
© Movella Technologies B. V. 2005-2026

PacketCounter,SampleTimeFine,Quat_W,Quat_X,Quat_Y,Quat_Z,FreeAcc_X,FreeAcc_Y,FreeAcc_Z
1,3384636674,-0.597831,0.655416,-0.132758,0.442047,-0.358128,-1.166443,1.797741
2,3384670008,-0.634358,0.632692,-0.171529,0.409719,-0.168213,-1.653508,0.054634
3,3384703342,-0.667243,0.606092,-0.206895,0.380308,0.497894,-2.213641,0.174830
4,3384736676,-0.695379,0.576995,-0.237208,0.356732,-0.224990,-3.832534,-1.443545
5,3384770010,-0.714181,0.552941,-0.266855,0.336143,0.006623,-3.279114,-2.313766
6,3384803344,-0.725910,0.534769,-0.295858,0.315510,0.493920,-2.463532,-2.706390
7,3384836678,-0.733024,0.521028,-0.321583,0.296296,0.314347,-2.332643,-2.967633
8,3384870012,-0.737416,0.511019,-0.341181,0.280490,0.669587,-1.578577,-2.887958
9,3384903346,-0.741891,0.503619,-0.352842,0.267338,1.097334,-1.336808,-2.604393
10,3384936680,-0.747609,0.497527,-0.356994,0.257108,0.855664,-1.089940,-2.260647
11,3384970014,-0.753044,0.493525,-0.356489,0.249550,0.705709,-0.733948,-1.925481
12,3385003348,-0.757018,0.492105,-0.354300,0.243370,0.512085,-0.045766,-1.570710
13,3385036682,-0.760639,0.490048,-0.351587,0.240144,-0.146011,0.033399,-0.587854
14,3385070016,-0.764497,0.486509,-0.348563,0.239497,-0.653524,0.379284,-0.554705
15,3385103350,-0.765985,0.486210,-0.347434,0.236978,-0.486562,0.420816,-0.259206
16,3385136684,-0.766415,0.487758,-0.347220,0.232681,-0.688721,-0.281531,0.103637
17,3385170018,-0.768871,0.487013,-0.346001,0.227907,-0.933296,-0.809506,-0.887491
18,3385203352,-0.770640,0.488578,-0.344353,0.220972,-0.641755,-1.080498,-2.145135
19,3385236686,-0.772435,0.492895,-0.339932,0.211771,-0.658130,-1.168575,-2.214294
20,3385270020,-0.775377,0.497845,-0.332267,0.201350,-0.131668,-2.455786,-2.500055
21,3385303354,-0.777849,0.505487,-0.321683,0.189618,-0.510861,-3.078328,-2.252222
22,3385336688,-0.780940,0.514741,-0.307362,0.175230,-0.216855,-2.043751,-2.470625
23,3385370022,-0.783052,0.528846,-0.287650,0.156242,-0.601176,-3.141076,-2.333427
24,3385403356,-0.785591,0.544188,-0.260340,0.137589,-0.514528,-1.594866,-2.329912
25,3385436690,-0.784003,0.564372,-0.228955,0.120018,0.788131,-1.067927,-1.379418
26,3385470024,-0.778538,0.586243,-0.198817,0.103302,0.761422,2.210279,1.119520
27,3385503358,-0.771958,0.604201,-0.175648,0.090399,1.619301,4.008224,3.127551
28,3385536692,-0.765680,0.615484,-0.167327,0.083170,1.061808,5.353428,4.816838
29,3385570026,-0.763005,0.617144,-0.174020,0.081705,0.872914,5.888579,4.261961
30,3385603360,-0.765098,0.608078,-0.193014,0.087250,0.942154,4.666451,2.440183
31,3385636694,-0.765650,0.595925,-0.221037,0.098985,0.455385,2.513902,0.612085
32,3385670028,-0.761411,0.586750,-0.251684,0.112403,-0.003761,1.267883,0.561092
33,3385703362,-0.758938,0.574736,-0.278146,0.127783,-0.704620,-1.627871,-0.673040
34,3385736696,-0.755481,0.565440,-0.299287,0.141264,-0.807096,-2.556815,-1.180541
35,3385770030,-0.753388,0.560430,-0.310017,0.149054,-0.508709,-3.534613,-1.372559
36,3385803364,-0.753543,0.559115,-0.311214,0.150702,-0.733421,-4.709255,-1.631030
37,3385836698,-0.755663,0.561491,-0.303261,0.147430,-0.227146,-4.870196,-1.805435
38,3385870032,-0.760366,0.566959,-0.284902,0.138686,-0.184513,-4.980306,-2.814455
39,3385903366,-0.763023,0.580402,-0.256310,0.123433,0.639601,-4.976841,-2.544689
40,3385936700,-0.764855,0.596661,-0.218258,0.106573,0.706599,-2.671412,-2.092202
41,3385970034,-0.761295,0.617024,-0.177116,0.091339,0.687655,0.416200,-1.675417
42,3386003368,-0.751747,0.640130,-0.137299,0.079125,1.098765,4.351799,0.504135
43,3386036702,-0.740173,0.658547,-0.113193,0.075153,0.961108,6.985864,4.144196
44,3386070036,-0.732935,0.666609,-0.110093,0.079495,0.989727,8.320992,5.731054
45,3386103370,-0.733823,0.661055,-0.127557,0.090776,0.367651,5.598443,3.364320
46,3386136704,-0.733082,0.653183,-0.157687,0.105259,-0.243377,2.814221,1.998506
47,3386170038,-0.736157,0.639122,-0.186550,0.121640,-0.180784,0.353946,-0.051887
48,3386203372,-0.738535,0.625183,-0.211242,0.138171,-1.076741,-2.563721,-2.403832
49,3386236706,-0.732178,0.623256,-0.230263,0.149829,-0.349002,-4.173369,-0.076104
50,3386270040,-0.731515,0.619318,-0.238453,0.156434,-0.392517,-4.397753,-0.630503
51,3386303374,-0.731807,0.618685,-0.238706,0.157188,-0.381614,-4.916264,-1.962885
52,3386336708,-0.731062,0.624053,-0.228923,0.153957,0.300497,-3.751640,-1.600408
53,3386370042,-0.732835,0.631667,-0.205995,0.146686,-0.006846,-3.047387,-2.430698
54,3386403376,-0.733225,0.642393,-0.175241,0.137857,0.288958,-2.932091,-1.338362
55,3386436710,-0.729592,0.657618,-0.139285,0.125838,0.714479,-1.445759,-0.053652
56,3386470044,-0.725790,0.670526,-0.104039,0.113144,0.265550,1.407622,0.372258
57,3386503378,-0.718500,0.683430,-0.076894,0.103780,0.528274,4.298008,1.681986
58,3386536712,-0.709501,0.694267,-0.067321,0.100353,0.005109,6.455774,4.497907
59,3386570046,-0.709915,0.692604,-0.074918,0.103488,-0.246828,6.821645,4.121712
60,3386603380,-0.714593,0.683441,-0.097917,0.112603,0.198983,4.691316,2.331496
61,3386636714,-0.719542,0.670829,-0.127551,0.126411,0.377317,2.889639,0.282123
62,3386670048,-0.723212,0.657952,-0.153218,0.143489,0.233888,-0.566991,-2.918534
63,3386703382,-0.719132,0.653331,-0.173201,0.161279,0.525808,-2.509538,-2.453027
64,3386736716,-0.720856,0.643672,-0.182324,0.181143,-0.606778,-5.011273,-2.575863
65,3386770050,-0.718087,0.642867,-0.182998,0.193869,-0.299382,-5.940403,-2.011444
66,3386803384,-0.715155,0.647600,-0.173569,0.197593,-0.573538,-6.133088,-1.478508
67,3386836718,-0.712775,0.656079,-0.155033,0.193594,-0.030471,-4.899168,-1.011045
68,3386870052,-0.708451,0.668492,-0.129813,0.185379,0.168859,-3.913760,-0.726441
69,3386903386,-0.702804,0.682443,-0.098982,0.174760,0.583732,-1.227290,0.146853
70,3386936720,-0.695538,0.696312,-0.066659,0.164120,0.726364,0.821120,0.826700
71,3386970054,-0.685499,0.709434,-0.042278,0.158144,0.702336,4.271475,2.804727
72,3387003388,-0.676317,0.719087,-0.033057,0.156263,0.158805,7.622666,4.592605
73,3387036722,-0.673888,0.719494,-0.043494,0.162215,-0.071442,7.547798,4.089166
74,3387070056,-0.673822,0.714462,-0.071182,0.174479,0.079599,5.034343,2.941811
75,3387103390,-0.676098,0.704531,-0.103523,0.189239,0.370785,1.954811,1.626854
76,3387136724,-0.681730,0.689044,-0.131929,0.207508,0.177552,-0.861680,-1.132506
77,3387170058,-0.681670,0.678066,-0.155899,0.226385,0.061831,-2.631789,-1.441508
78,3387203392,-0.680493,0.670106,-0.169840,0.242989,-0.027494,-3.714389,-1.320957
79,3387236726,-0.678544,0.665872,-0.176825,0.254810,-0.043484,-5.030692,-1.325602
80,3387270060,-0.676354,0.665934,-0.175617,0.261223,0.097965,-4.183767,-0.651692
81,3387303394,-0.677007,0.668009,-0.165278,0.260981,-0.188676,-3.679091,-1.341187
82,3387336728,-0.676841,0.673564,-0.148771,0.257034,-0.264884,-3.065206,-0.971092
83,3387370062,-0.677766,0.679905,-0.124664,0.250645,-0.121949,-2.142562,-0.154174
84,3387403396,-0.678429,0.687407,-0.095940,0.240837,-0.043380,-1.147027,0.028361
85,3387436730,-0.675520,0.697021,-0.066534,0.231106,0.228374,0.612030,0.802319
86,3387470064,-0.669501,0.706728,-0.040464,0.225094,0.248750,1.498257,1.048916
87,3387503398,-0.657412,0.719473,-0.020902,0.223009,-0.026229,3.564420,1.981535
88,3387536732,-0.644787,0.729931,-0.010665,0.226580,-0.228033,4.897855,3.662570
89,3387570066,-0.638306,0.733455,-0.010078,0.233472,-0.544749,5.075629,3.627296
90,3387603400,-0.637281,0.731463,-0.019077,0.241811,-0.629954,5.354470,3.682123
91,3387636734,-0.643083,0.723035,-0.035219,0.249853,-0.119715,4.390744,2.266875
92,3387670068,-0.652087,0.709660,-0.059759,0.259992,-0.034687,2.533254,0.782743
93,3387703402,-0.661195,0.693301,-0.088310,0.272686,0.110659,0.920331,-0.355492
94,3387736736,-0.666873,0.678578,-0.116223,0.285144,-0.386035,-1.657385,-1.678622
95,3387770070,-0.667366,0.668783,-0.141968,0.295294,-0.658601,-3.513606,-1.158815
96,3387803404,-0.667221,0.662530,-0.160750,0.300052,-0.516422,-4.237618,-0.742034
97,3387836738,-0.668994,0.658735,-0.171768,0.298349,-0.882657,-4.585080,-0.919924
98,3387870072,-0.670890,0.659753,-0.174526,0.290130,-0.243597,-3.515347,-0.994305
99,3387903406,-0.671817,0.665505,-0.168900,0.277919,-0.184259,-3.173112,-0.901983
100,3387936740,-0.672186,0.674265,-0.155378,0.263424,0.449360,-1.779727,0.454658
101,3387970074,-0.676953,0.681106,-0.132932,0.245275,-0.390129,-1.711453,1.157397
102,3388003408,-0.682666,0.687492,-0.104893,0.224325,-0.535213,-1.910973,0.243967
103,3388036742,-0.682357,0.698801,-0.074225,0.201389,0.362991,0.476049,0.750862
104,3388070076,-0.682722,0.706864,-0.044930,0.179492,0.637478,1.326883,1.806973
105,3388103410,-0.683126,0.711360,-0.027585,0.162930,1.202611,3.795944,2.630401
106,3388136744,-0.682618,0.714147,-0.025249,0.152945,0.745681,4.042358,2.232137
107,3388170078,-0.681483,0.715840,-0.036568,0.147708,-0.011598,3.807867,2.218402
108,3388203412,-0.683050,0.713372,-0.055045,0.146678,0.257779,3.443803,2.002733
109,3388236746,-0.688227,0.705996,-0.076978,0.148288,-0.144802,1.689611,1.073294
110,3388270080,-0.695413,0.694889,-0.100225,0.153253,0.154283,0.518378,1.658025
111,3388303414,-0.702020,0.682562,-0.124356,0.160669,0.236561,-1.965078,1.291047
112,3388336748,-0.703869,0.674128,-0.148999,0.167093,0.348297,-1.477865,0.956662
113,3388370082,-0.704792,0.667802,-0.166288,0.172218,0.275396,-2.561997,0.475665
114,3388403416,-0.705062,0.663904,-0.176020,0.176457,0.270746,-2.597332,0.358048
115,3388436750,-0.706835,0.661912,-0.174838,0.178016,0.396705,-1.082961,-0.790942
116,3388470084,-0.710770,0.660636,-0.164396,0.177036,-0.282850,-2.494741,-1.200503
117,3388503418,-0.712611,0.662368,-0.150156,0.175814,-0.022195,-1.633661,-0.993568
118,3388536752,-0.713522,0.666250,-0.131937,0.172026,-0.381089,-2.557183,-0.455730
119,3388570086,-0.714384,0.671113,-0.110430,0.164528,-0.368636,-2.638490,-0.367094
120,3388603420,-0.713073,0.678799,-0.086269,0.152700,-0.303631,-1.324854,-0.205120
121,3388636754,-0.711036,0.686895,-0.060602,0.137593,0.070812,0.164990,0.076267
122,3388670088,-0.706943,0.695190,-0.040160,0.123819,0.200394,1.264101,0.879708
123,3388703422,-0.701899,0.702582,-0.028591,0.113585,0.041717,3.145016,1.326854
124,3388736756,-0.698381,0.707264,-0.026729,0.106439,-0.050723,4.581872,2.406689
125,3388770090,-0.701093,0.704716,-0.035134,0.103013,0.015171,4.136014,2.984299
126,3388803424,-0.708066,0.696609,-0.053579,0.102516,0.181047,3.538710,1.648511
127,3388836758,-0.715341,0.686416,-0.078845,0.104426,0.087135,2.431793,0.976944
128,3388870092,-0.725230,0.671637,-0.104925,0.109257,-0.077985,-0.200926,0.197540
129,3388903426,-0.734320,0.656181,-0.129764,0.115604,0.025446,-1.187066,-1.002155
130,3388936760,-0.741102,0.643527,-0.149321,0.119776,0.227729,-1.297729,-1.436067
131,3388970094,-0.747213,0.632726,-0.162166,0.122616,-0.118763,-2.962028,-2.122687
132,3389003428,-0.749304,0.627872,-0.170242,0.123851,-0.109834,-3.166083,-2.229419
133,3389036762,-0.749696,0.628156,-0.169058,0.121643,-0.188938,-2.967457,-1.870848
134,3389070096,-0.750477,0.631059,-0.158600,0.115745,0.046590,-3.352582,-1.226442
135,3389103430,-0.749997,0.637289,-0.141261,0.106837,-0.095179,-2.448855,-1.511454
136,3389136764,-0.747934,0.646077,-0.118620,0.095448,1.139798,-0.816871,-0.052148
137,3389170098,-0.746408,0.653355,-0.096124,0.082241,0.550403,0.149230,0.014394
138,3389203432,-0.742503,0.661321,-0.079485,0.070909,0.409433,0.973536,0.665059
139,3389236766,-0.736716,0.669824,-0.068301,0.062632,0.145372,2.505649,1.230592
140,3389270100,-0.734759,0.673118,-0.062663,0.055817,0.270858,3.906456,2.527045
141,3389303434,-0.738190,0.669309,-0.066511,0.051751,0.182464,3.767199,2.614050
142,3389336768,-0.743989,0.661193,-0.081753,0.051214,0.096063,2.787355,2.013525
143,3389370102,-0.750173,0.650652,-0.104648,0.054247,0.343770,1.441773,1.043797
144,3389403436,-0.756300,0.638373,-0.130700,0.058395,0.485506,-0.199345,0.287207
145,3389436770,-0.761367,0.626317,-0.155452,0.062317,0.332754,-0.872644,-1.215563
146,3389470104,-0.764253,0.617179,-0.174860,0.066584,0.033593,-1.913391,-2.178303
147,3389503438,-0.764088,0.613104,-0.187565,0.071375,0.020193,-3.214770,-2.327634
148,3389536772,-0.764000,0.611734,-0.190842,0.075273,0.037186,-3.121067,-1.911898
149,3389570106,-0.764918,0.613495,-0.181535,0.074642,-0.528943,-3.412135,-1.937115
150,3389603440,-0.764607,0.619781,-0.162625,0.069303,-0.673168,-2.476565,-2.005298
151,3389636774,-0.762534,0.629335,-0.136538,0.061962,-0.600428,-2.653148,-0.901431
152,3389670108,-0.759318,0.639666,-0.107109,0.052852,-0.356886,0.079468,0.551769
153,3389703442,-0.757857,0.646012,-0.081472,0.041058,-0.440657,2.456735,1.567407
154,3389736776,-0.758839,0.647113,-0.066994,0.030366,-0.319747,4.194990,3.318225
155,3389770110,-0.763026,0.642214,-0.069336,0.023394,-0.307020,4.091540,2.955004
156,3389803444,-0.766860,0.635478,-0.087747,0.019883,-0.006910,3.500754,1.980174
157,3389836778,-0.770248,0.626975,-0.115051,0.019630,0.480831,2.337967,0.857420
158,3389870112,-0.776489,0.612944,-0.144395,0.022730,0.114310,0.028371,-0.354581
159,3389903446,-0.783465,0.596276,-0.173004,0.026623,-0.004692,-0.960657,-0.987503
160,3389936780,-0.789171,0.580416,-0.198774,0.028590,-0.072572,-1.720837,-2.036621
161,3389970114,-0.791983,0.568648,-0.220322,0.029372,0.065369,-1.925019,-2.852467
162,3390003448,-0.791888,0.561841,-0.237305,0.030590,0.516160,-2.295274,-2.631049
163,3390036782,-0.791569,0.557340,-0.248549,0.031883,0.389782,-3.023725,-2.603830
164,3390070116,-0.790883,0.557183,-0.251102,0.031644,0.405846,-2.825526,-2.688017
165,3390103450,-0.790507,0.561099,-0.243713,0.029535,0.304143,-3.432743,-2.103198
166,3390136784,-0.790959,0.567931,-0.226208,0.025883,0.242995,-3.499672,-2.225358
167,3390170118,-0.789607,0.579717,-0.200200,0.019237,0.377850,-2.404539,-1.800042