sep=,
DeviceTag:,D_Wrist
FirmwareVersion:,2.2.1
AppVersion:,2023.6.0
SyncStatus:,Synced
OutputRate:,30Hz
FilterProfile:,General
Measurement Mode:,Sensor fusion Mode - Complete(Quaternion)
StartTime: ,2026-09-07_17:12:44_378 AEST
© Movella Technologies B. V. 2005-2026

PacketCounter,SampleTimeFine,Quat_W,Quat_X,Quat_Y,Quat_Z,FreeAcc_X,FreeAcc_Y,FreeAcc_Z
1,3761979918,-0.778237,0.186930,0.594341,0.078544,-1.428209,0.201372,0.812881
2,3762013252,-0.786550,0.142719,0.600573,0.016972,-1.028153,0.653923,0.267985
3,3762046586,-0.789983,0.104438,0.603177,-0.034673,-0.537459,0.190313,0.263086
4,3762079920,-0.790525,0.070961,0.603703,-0.074716,-0.236878,-0.406347,0.116501
5,3762113254,-0.790104,0.039827,0.602786,-0.103942,0.293547,-0.629489,-0.385822
6,3762146588,-0.789849,0.011887,0.600830,-0.122501,0.978437,-0.826491,-0.501005
7,3762179922,-0.790870,-0.012321,0.597519,-0.131714,1.553118,-1.039079,-0.444465
8,3762213256,-0.793281,-0.032076,0.593158,-0.133584,1.869999,-1.208799,-0.436147
9,3762246590,-0.796107,-0.046701,0.588919,-0.131197,2.011591,-1.588586,-0.354282
10,3762279924,-0.797761,-0.057243,0.586225,-0.129021,1.966285,-2.204381,-0.427331
11,3762313258,-0.796683,-0.067883,0.585698,-0.132859,1.814222,-2.798068,-0.586124
12,3762346592,-0.791431,-0.083757,0.587373,-0.147040,2.032795,-3.149363,-0.166444
13,3762379926,-0.781442,-0.109267,0.588753,-0.175457,2.296658,-4.259320,0.588955
14,3762413260,-0.766430,-0.144975,0.585102,-0.221876,3.107069,-3.911067,1.549756
15,3762446594,-0.747030,-0.180727,0.573850,-0.282817,3.565511,-2.324301,1.121867
16,3762479928,-0.724732,-0.207041,0.556439,-0.349684,3.699772,-0.972891,1.118079
17,3762513262,-0.701468,-0.219126,0.535759,-0.415806,3.571491,0.818911,1.624714
18,3762546596,-0.678771,-0.213104,0.516434,-0.476611,3.666544,1.010558,2.417151
19,3762579930,-0.657062,-0.187192,0.503021,-0.529342,3.382889,2.128667,2.554347
20,3762613264,-0.634967,-0.140150,0.500526,-0.571537,2.979828,2.578094,3.387029
21,3762646598,-0.609274,-0.068379,0.513341,-0.600497,3.007400,2.594423,2.885713
22,3762679932,-0.572458,0.021802,0.539301,-0.617232,3.030545,2.449467,2.561353
23,3762713266,-0.519262,0.112750,0.564268,-0.631871,3.255596,1.672935,4.132023
24,3762746600,-0.452556,0.192074,0.578571,-0.650816,1.868310,1.972576,5.121992
25,3762779934,-0.375684,0.261475,0.583336,-0.670982,-0.184143,3.124640,3.785385
26,3762813268,-0.292334,0.320164,0.578430,-0.690984,-0.993613,3.746165,3.550113
27,3762846602,-0.209177,0.364928,0.559660,-0.714044,-2.103539,4.477874,1.479271
28,3762879936,-0.123213,0.402457,0.538181,-0.730214,-1.613522,4.110610,-0.901690
29,3762913270,-0.035002,0.431331,0.517543,-0.738162,-2.222399,2.665475,-1.006418
30,3762946604,0.048682,0.448997,0.486816,-0.747694,-2.638422,1.605104,-1.611830
31,3762979938,0.125865,0.459984,0.443029,-0.759147,-1.220077,0.626272,-2.538563
32,3763013272,0.201593,0.464707,0.400260,-0.763678,-0.915494,0.105650,-2.600482
33,3763046606,0.270512,0.464485,0.356998,-0.763960,-0.032895,-0.397047,-2.678369
34,3763079940,0.337741,0.458622,0.324966,-0.754983,0.175877,0.241368,-4.100127
35,3763113274,0.392856,0.451317,0.296863,-0.744214,-1.476871,0.871350,-4.006259
36,3763146608,0.433440,0.445969,0.267433,-0.736020,-0.386366,-0.539964,-5.168720
37,3763179942,0.471504,0.435881,0.250997,-0.724360,-1.397345,-1.136289,-4.693850
38,3763213276,0.504010,0.423253,0.243960,-0.712264,-1.683125,-1.731345,-4.483014
39,3763246610,0.530565,0.410502,0.246113,-0.699587,-1.424991,-2.027565,-3.242110
40,3763279944,0.549410,0.400873,0.254690,-0.687450,-2.463750,-2.710181,-2.224745
41,3763313278,0.559529,0.396656,0.267143,-0.676928,1.317947,-1.415139,-0.401957
42,3763346612,0.572638,0.387338,0.287293,-0.662966,-0.513576,-0.534789,1.491696
43,3763379946,0.581946,0.384627,0.295979,-0.652535,-1.341576,-0.772525,1.614730
44,3763413280,0.586699,0.389490,0.295088,-0.645762,1.283749,-1.392979,0.398843
45,3763446614,0.594921,0.390736,0.300760,-0.634779,0.680575,-1.835327,-0.123626
46,3763479948,0.606931,0.386158,0.313817,-0.619710,0.454109,-0.446653,-1.141910
47,3763513282,0.620527,0.375591,0.333287,-0.602331,-0.945643,-1.021681,-1.792188
48,3763546616,0.625659,0.369310,0.354213,-0.588811,-0.807830,-2.036665,-2.037914
49,3763579950,0.620068,0.368600,0.382222,-0.577548,0.097335,-2.110297,-2.835904
50,3763613284,0.608789,0.362614,0.430894,-0.558769,0.671262,-0.832765,-3.491127
51,3763646618,0.588890,0.353754,0.492403,-0.534427,-0.714672,0.606694,-2.721393
52,3763679952,0.553600,0.349320,0.552781,-0.515695,-0.472053,-0.610801,-2.995950
53,3763713286,0.498569,0.347447,0.615182,-0.502261,-1.215068,0.208034,-3.927190
54,3763746620,0.421685,0.346506,0.675998,-0.495123,-3.940686,0.000256,-1.969432
55,3763779954,0.320251,0.348718,0.719511,-0.508079,-3.385367,0.124460,-1.153570
56,3763813288,0.204687,0.342387,0.749175,-0.528788,-1.002878,1.384702,-0.990664
57,3763846622,0.089032,0.320369,0.764611,-0.552098,-0.836956,0.134241,0.648056
58,3763879956,-0.017716,0.284418,0.770775,-0.569827,-0.716860,-0.341464,0.042202
59,3763913290,-0.115776,0.240115,0.762195,-0.589919,-2.665138,-1.395353,3.069331
60,3763946624,-0.207659,0.183927,0.733094,-0.620988,1.277498,1.679824,1.655885
61,3763979958,-0.282724,0.116689,0.701895,-0.643272,2.471151,2.255654,4.724969
62,3764013292,-0.340078,0.040820,0.666132,-0.662536,1.654196,2.452824,1.613854
63,3764046626,-0.380378,-0.031133,0.637791,-0.669007,0.324419,1.216176,2.437456
64,3764079960,-0.408322,-0.102769,0.604413,-0.676315,0.621868,0.647242,2.008735
65,3764113294,-0.425850,-0.175664,0.567355,-0.682574,0.504066,1.152124,0.470380
66,3764146628,-0.435361,-0.248537,0.532259,-0.682199,0.280367,1.281592,0.514133
67,3764179962,-0.436364,-0.321877,0.496246,-0.678031,1.027712,0.553009,2.918031
68,3764213296,-0.427467,-0.392964,0.455320,-0.674937,0.868605,0.185686,3.275896
69,3764246630,-0.409492,-0.454117,0.411469,-0.675865,1.615040,0.238427,3.685255
70,3764279964,-0.386014,-0.498652,0.371521,-0.681408,0.232732,0.606124,2.081715
71,3764313298,-0.367686,-0.520175,0.351918,-0.685845,-1.826805,-0.641532,1.011464
72,3764346632,-0.367260,-0.515767,0.364859,-0.682633,-2.757392,-2.359243,0.574608
73,3764379966,-0.380246,-0.495949,0.396963,-0.672215,-0.070635,-1.157476,0.019061
74,3764413300,-0.393987,-0.473528,0.427522,-0.661647,0.925389,-0.362100,0.108766
75,3764446634,-0.407718,-0.451473,0.452889,-0.651794,2.703161,-0.187064,0.421873
76,3764479968,-0.415656,-0.438874,0.463377,-0.648002,2.337554,-0.147814,0.261167
77,3764513302,-0.416312,-0.436738,0.460091,-0.651356,1.441102,0.137369,-0.075914
78,3764546636,-0.412568,-0.440725,0.449894,-0.658141,0.769131,0.371720,-0.206373
79,3764579970,-0.407862,-0.446067,0.439479,-0.664482,0.228931,0.445582,-0.150592
80,3764613304,-0.404133,-0.449332,0.433562,-0.668435,-0.010177,0.457243,0.081116
81,3764646638,-0.400649,-0.450250,0.431968,-0.670943,0.004913,0.383390,0.224587
82,3764679972,-0.396140,-0.450051,0.432236,-0.673576,-0.056415,0.403339,0.239171
83,3764713306,-0.391217,-0.449323,0.433095,-0.676382,-0.095523,0.341827,0.199204
84,3764746640,-0.386985,-0.448447,0.433970,-0.678832,-0.221294,0.282876,0.105498
85,3764779974,-0.384311,-0.447589,0.434939,-0.680296,-0.241282,0.198597,-0.052750
86,3764813308,-0.383163,-0.447356,0.435722,-0.680596,-0.194607,0.104277,-0.092126
87,3764846642,-0.382816,-0.448461,0.435454,-0.680235,-0.059514,0.075799,-0.004594
88,3764879976,-0.382549,-0.451188,0.433430,-0.679875,-0.009524,0.119255,0.076752
89,3764913310,-0.381957,-0.454948,0.430083,-0.679827,0.023767,0.111787,0.185481
90,3764946644,-0.380812,-0.458811,0.426120,-0.680369,-0.046760,0.176825,0.237646
91,3764979978,-0.380063,-0.461601,0.422972,-0.680865,0.003456,0.228504,0.220367
92,3765013312,-0.380519,-0.462638,0.421661,-0.680719,0.090851,0.214291,0.144322
93,3765046646,-0.381686,-0.462205,0.421882,-0.680223,0.305629,0.283863,0.088504
94,3765079980,-0.382421,-0.461382,0.422245,-0.680143,0.347455,0.372047,0.130682
95,3765113314,-0.382502,-0.460375,0.422563,-0.680583,0.207257,0.359588,0.185067
96,3765146648,-0.382094,-0.458907,0.423365,-0.681305,0.077092,0.360149,0.174402
97,3765179982,-0.381406,-0.456876,0.424874,-0.682116,-0.015906,0.318245,0.135992
98,3765213316,-0.380526,-0.454557,0.426657,-0.683042,-0.118796,0.284231,0.085490
99,3765246650,-0.379397,-0.452200,0.428533,-0.684060,-0.189906,0.168107,0.100192
100,3765279984,-0.376911,-0.450654,0.429399,-0.685909,-0.163894,-0.072199,0.050966
101,3765313318,-0.373406,-0.450140,0.428679,-0.688608,-0.258079,-0.049585,0.199928
102,3765346652,-0.371019,-0.449751,0.427211,-0.691061,-0.311355,-0.029151,0.156224
103,3765379986,-0.371021,-0.448704,0.426141,-0.692400,-0.349033,0.066525,-0.032515
104,3765413320,-0.373552,-0.446898,0.425980,-0.692306,-0.249708,0.172390,-0.068735
105,3765446654,-0.377505,-0.444898,0.426141,-0.691350,-0.092295,0.266771,-0.051970
106,3765479988,-0.382179,-0.443164,0.426283,-0.689806,-0.011074,0.367559,-0.042439
107,3765513322,-0.386986,-0.441833,0.426490,-0.687850,0.058869,0.428686,-0.062813
108,3765546656,-0.390691,-0.441267,0.426388,-0.686179,0.226052,0.342353,0.015584
109,3765579990,-0.392820,-0.441730,0.425472,-0.685234,0.234145,0.407625,0.169783
110,3765613324,-0.394143,-0.442722,0.424046,-0.684718,0.195559,0.343831,0.163074
111,3765646658,-0.395230,-0.443559,0.422910,-0.684252,0.210905,0.361914,0.114432
112,3765679992,-0.396327,-0.444002,0.422281,-0.683719,0.281881,0.298906,0.133184
113,3765713326,-0.397039,-0.444269,0.421655,-0.683518,0.277803,0.348020,0.116309
114,3765746660,-0.397551,-0.444050,0.421375,-0.683536,0.211544,0.396492,0.054932
115,3765779994,-0.398259,-0.442962,0.422082,-0.683393,0.206179,0.403192,0.068604
116,3765813328,-0.398890,-0.441212,0.423551,-0.683249,0.169344,0.472475,0.110098
117,3765846662,-0.399212,-0.439020,0.425510,-0.683255,0.134125,0.471181,0.114887
118,3765879996,-0.399277,-0.436467,0.428006,-0.683294,-0.015894,0.519389,0.150208
119,3765913330,-0.399668,-0.433004,0.431488,-0.683079,-0.275223,0.220944,0.057238
120,3765946664,-0.401953,-0.427459,0.437086,-0.681670,-0.415732,0.367714,0.062228
121,3765979998,-0.406180,-0.420635,0.444046,-0.678906,-0.151194,0.160800,0.016269
122,3766013332,-0.410250,-0.415077,0.449720,-0.676139,-0.045496,0.089524,0.045075
123,3766046666,-0.413145,-0.412191,0.452814,-0.674073,-0.012036,0.085814,0.094836
124,3766080000,-0.414777,-0.411931,0.453578,-0.672715,-0.073719,0.137682,0.110228
125,3766113334,-0.415483,-0.413333,0.452892,-0.671880,-0.172197,0.067052,0.151873
126,3766146668,-0.416280,-0.414916,0.451998,-0.671013,-0.246871,0.120431,0.140914
127,3766180002,-0.418013,-0.415786,0.451723,-0.669581,-0.161873,0.183959,0.219770
128,3766213336,-0.420397,-0.416373,0.451636,-0.667780,0.027896,0.081448,0.186787
129,3766246670,-0.422562,-0.417411,0.451144,-0.666096,0.359907,0.237999,0.159348
130,3766280004,-0.423660,-0.419734,0.448753,-0.665553,0.138343,0.160789,0.084719
131,3766313338,-0.424979,-0.421726,0.447038,-0.664607,0.086039,0.172191,0.036077
132,3766346672,-0.426441,-0.423105,0.446290,-0.663296,0.280888,0.212158,0.168344
133,3766380006,-0.427685,-0.424325,0.445565,-0.662202,0.334627,0.268642,0.108631
134,3766413340,-0.428598,-0.425196,0.445070,-0.661385,0.363949,0.266044,0.116714
135,3766446674,-0.428906,-0.425727,0.444912,-0.660950,0.429851,0.306629,0.081894
136,3766480008,-0.428391,-0.426208,0.444796,-0.661052,0.435840,0.262149,0.089520
137,3766513342,-0.427038,-0.426688,0.444587,-0.661757,0.342734,0.316375,0.096996
138,3766546676,-0.425412,-0.426693,0.444838,-0.662633,0.275027,0.296534,0.065130
139,3766580010,-0.423734,-0.426272,0.445543,-0.663504,0.193988,0.304509,0.132624
140,3766613344,-0.422004,-0.425711,0.446411,-0.664384,0.178639,0.235213,0.077210
141,3766646678,-0.420153,-0.425189,0.447272,-0.665311,0.088802,0.258010,0.056008
142,3766680012,-0.418196,-0.424788,0.448044,-0.666280,0.045107,0.212027,0.060125
143,3766713346,-0.416204,-0.424664,0.448628,-0.667213,-0.008157,0.214054,0.093827
144,3766746680,-0.414264,-0.424852,0.448944,-0.668088,-0.049791,0.209493,0.093853
145,3766780014,-0.412491,-0.425255,0.449032,-0.668868,-0.088631,0.163772,0.075339
146,3766813348,-0.410905,-0.425890,0.448909,-0.669523,-0.104914,0.188000,0.092937
147,3766846682,-0.409602,-0.426741,0.448487,-0.670061,-0.137775,0.162029,0.080942
148,3766880016,-0.408662,-0.427665,0.447950,-0.670406,-0.133453,0.182310,0.070256
149,3766913350,-0.408208,-0.428447,0.447523,-0.670468,-0.112484,0.183124,0.087285
150,3766946684,-0.408276,-0.429077,0.447218,-0.670228,-0.035070,0.170247,0.085831
151,3766980018,-0.408526,-0.429890,0.446747,-0.669868,0.030031,0.190232,0.077362
152,3767013352,-0.408785,-0.431010,0.446045,-0.669458,0.061359,0.196626,0.091576
153,3767046686,-0.408957,-0.432289,0.445223,-0.669076,0.095922,0.192114,0.126915
154,3767080020,-0.408941,-0.433516,0.444429,-0.668819,0.108042,0.185606,0.123898
155,3767113354,-0.408921,-0.434384,0.443894,-0.668624,0.117997,0.189567,0.166508
156,3767146688,-0.408885,-0.434821,0.443671,-0.668509,0.128557,0.170138,0.108894
157,3767180022,-0.408960,-0.434869,0.443728,-0.668395,0.091240,0.231398,0.185377
158,3767213356,-0.409086,-0.434744,0.443865,-0.668308,0.182938,0.146796,0.086884
159,3767246690,-0.408914,-0.434822,0.443822,-0.668391,0.147908,0.183767,0.060875
160,3767280024,-0.408647,-0.434963,0.443712,-0.668536,0.146803,0.163952,0.084645
161,3767313358,-0.408309,-0.435149,0.443569,-0.668716,0.105164,0.142259,0.121537
162,3767346692,-0.407925,-0.435341,0.443342,-0.668976,0.081321,0.190758,0.128148
163,3767380026,-0.407655,-0.435392,0.443200,-0.669201,0.085870,0.133330,0.064017
164,3767413360,-0.407422,-0.435375,0.443154,-0.669384,0.093304,0.172526,0.086216
165,3767446694,-0.407174,-0.435423,0.443012,-0.669598,0.088628,0.146899,0.073269
166,3767480028,-0.406976,-0.435579,0.442765,-0.669780,0.083729,0.158926,0.043674
167,3767513362,-0.406865,-0.435813,0.442491,-0.669877,0.114851,0.180379,0.083380
168,3767546696,-0.406744,-0.436148,0.442089,-0.669998,0.102946,0.178500,0.090843
169,3767580030,-0.406591,-0.436442,0.441700,-0.670155,0.127236,0.220584,0.090777
170,3767613364,-0.406430,-0.436554,0.441518,-0.670300,0.116112,0.209225,0.083914
171,3767646698,-0.406162,-0.436563,0.441467,-0.670491,0.114501,0.209646,0.104914
172,3767680032,-0.405911,-0.436469,0.441499,-0.670682,0.066625,0.228561,0.111038
173,3767713366,-0.406201,-0.435836,0.442090,-0.670529,0.020880,0.297719,0.070711
174,3767746700,-0.406606,-0.435021,0.442988,-0.670220,0.097264,0.270290,0.039885
175,3767780034,-0.406445,-0.434701,0.443530,-0.670167,0.068880,0.284583,0.015615
176,3767813368,-0.406194,-0.434718,0.443963,-0.670021,0.043958,0.245327,0.098005
177,3767846702,-0.405860,-0.435133,0.444123,-0.669848,0.049486,0.226962,0.061584
178,3767880036,-0.405520,-0.435707,0.444157,-0.669659,0.026369,0.193871,0.085595
179,3767913370,-0.405154,-0.436189,0.444236,-0.669514,-0.000660,0.160162,0.122331
180,3767946704,-0.404801,-0.436500,0.444390,-0.669422,-0.004955,0.187502,0.176576
181,3767980038,-0.404650,-0.436545,0.444646,-0.669314,-0.050971,0.171621,0.163734
182,3768013372,-0.404808,-0.436328,0.445060,-0.669085,-0.035031,0.161856,0.103414
183,3768046706,-0.405193,-0.436066,0.445514,-0.668721,-0.035630,0.188664,0.119815
184,3768080040,-0.405735,-0.435955,0.445841,-0.668246,0.017857,0.159118,0.071944
185,3768113374,-0.406280,-0.436034,0.446058,-0.667719,0.013910,0.201186,0.061997
186,3768146708,-0.406804,-0.436286,0.446153,-0.667171,0.049806,0.224238,0.106179
187,3768180042,-0.407311,-0.436644,0.446229,-0.666576,0.049706,0.205764,0.105020
188,3768213376,-0.407770,-0.437009,0.446357,-0.665971,0.067982,0.204399,0.129090
189,3768246710,-0.408032,-0.437328,0.446560,-0.665464,0.067957,0.159081,0.127187
190,3768280044,-0.408196,-0.437500,0.446861,-0.665049,0.041234,0.155547,0.124204
191,3768313378,-0.408456,-0.437541,0.447188,-0.664642,0.024244,0.129785,0.118677
192,3768346712,-0.408870,-0.437552,0.447466,-0.664193,0.032855,0.165245,0.108482
193,3768380046,-0.409269,-0.437626,0.447628,-0.663790,0.034181,0.144398,0.087976
194,3768413380,-0.409699,-0.437741,0.447738,-0.663375,-0.001039,0.213949,0.163852
195,3768446714,-0.410302,-0.437761,0.447915,-0.662868,0.043497,0.153423,0.132131
196,3768480048,-0.410742,-0.437886,0.448019,-0.662443,0.041320,0.190135,0.052402
197,3768513382,-0.411184,-0.438001,0.448144,-0.662009,0.046806,0.161266,0.083332
198,3768546716,-0.411695,-0.438073,0.448000,-0.661740,0.135833,0.189728,0.154016
199,3768580050,-0.411667,-0.438871,0.446541,-0.662215,0.169940,0.147485,0.159354
200,3768613384,-0.411195,-0.440106,0.444652,-0.662959,-0.034546,0.164993,0.078531
201,3768646718,-0.411375,-0.440361,0.444153,-0.663013,-0.079074,0.203149,0.097345
202,3768680052,-0.412139,-0.439788,0.444787,-0.662494,0.034293,0.232181,0.150503
203,3768713386,-0.412979,-0.439092,0.445636,-0.661861,0.031878,0.244438,0.123488
204,3768746720,-0.413490,-0.438792,0.446409,-0.661220,0.017769,0.247676,0.141370
205,3768780054,-0.413631,-0.438991,0.447075,-0.660549,0.046841,0.184631,0.117023
206,3768813388,-0.413406,-0.439801,0.447347,-0.659967,0.036318,0.169951,0.066487
207,3768846722,-0.413089,-0.441035,0.447281,-0.659386,0.027171,0.149434,0.042039
208,3768880056,-0.412696,-0.442620,0.447037,-0.658736,0.056131,0.100632,0.042816
209,3768913390,-0.412186,-0.444546,0.446487,-0.658131,0.100239,0.074458,0.035072
210,3768946724,-0.411635,-0.446677,0.445547,-0.657669,0.117922,0.099010,0.030463
211,3768980058,-0.411237,-0.448557,0.444647,-0.657249,0.117046,0.073945,0.050039
212,3769013392,-0.410995,-0.450049,0.444008,-0.656811,0.146873,0.122844,0.146297
213,3769046726,-0.410939,-0.451111,0.443693,-0.656331,0.204321,0.089936,0.192999
214,3769080060,-0.410605,-0.451991,0.443435,-0.656108,0.221839,0.077320,0.116092
215,3769113394,-0.410004,-0.452541,0.443373,-0.656147,0.195487,0.038114,0.074370
216,3769146728,-0.409254,-0.452834,0.443415,-0.656385,0.200081,0.006487,0.087044
217,3769180062,-0.408428,-0.453044,0.443363,-0.656789,0.149260,0.047229,0.126950
218,3769213396,-0.407735,-0.453083,0.443321,-0.657221,0.119210,0.043933,0.119782
219,3769246730,-0.407065,-0.452982,0.443287,-0.657729,0.095520,0.088705,0.115561
220,3769280064,-0.406559,-0.452651,0.443315,-0.658251,0.081474,0.062444,0.108009
221,3769313398,-0.406124,-0.452198,0.443349,-0.658807,0.054908,0.102776,0.090206
222,3769346732,-0.405797,-0.451652,0.443452,-0.659314,0.049187,0.119158,0.079105
223,3769380066,-0.405531,-0.451191,0.443512,-0.659752,0.056339,0.132100,0.080706
224,3769413400,-0.405261,-0.450919,0.443405,-0.660177,0.043260,0.132269,0.091864
225,3769446734,-0.405055,-0.450596,0.443384,-0.660537,0.008798,0.138562,0.083461
226,3769480068,-0.404870,-0.450141,0.443496,-0.660886,-0.001637,0.134426,0.085438
227,3769513402,-0.404793,-0.449580,0.443695,-0.661181,-0.022472,0.132394,0.071321
228,3769546736,-0.404956,-0.448926,0.444007,-0.661316,-0.017111,0.194257,0.118141
229,3769580070,-0.405046,-0.448478,0.444218,-0.661423,0.044135,0.141364,0.069562
230,3769613404,-0.405002,-0.448327,0.444261,-0.661524,-0.030631,0.210495,0.130772
231,3769646738,-0.405186,-0.448157,0.444355,-0.661463,0.021512,0.122612,0.077353
232,3769680072,-0.405327,-0.448081,0.444371,-0.661417,0.023569,0.157503,0.058998
233,3769713406,-0.405498,-0.447981,0.444450,-0.661328,0.045208,0.125852,0.063304
234,3769746740,-0.405548,-0.447946,0.444549,-0.661253,0.044475,0.164285,0.093410
235,3769780074,-0.405505,-0.447976,0.444633,-0.661203,0.024815,0.195270,0.137358
236,3769813408,-0.405465,-0.447949,0.444819,-0.661121,0.031334,0.160267,0.109403
237,3769846742,-0.405386,-0.447883,0.445100,-0.661025,0.018533,0.145427,0.088843
238,3769880076,-0.405423,-0.447774,0.445428,-0.660855,0.005908,0.144423,0.093424
239,3769913410,-0.405600,-0.447639,0.445787,-0.660596,0.015299,0.123937,0.080558
240,3769946744,-0.405776,-0.447574,0.446102,-0.660319,0.038164,0.135804,0.108071
241,3769980078,-0.405858,-0.447745,0.446224,-0.660070,0.052785,0.137481,0.117136
242,3770013412,-0.405817,-0.448155,0.446155,-0.659864,0.016732,0.117652,0.120964
243,3770046746,-0.405771,-0.448557,0.446114,-0.659646,-0.008640,0.122968,0.113594
244,3770080080,-0.405851,-0.448837,0.446226,-0.659331,0.034150,0.110342,0.115024
245,3770113414,-0.405900,-0.449221,0.446204,-0.659055,0.009067,0.098330,0.115371
246,3770146748,-0.406007,-0.449692,0.446138,-0.658712,-0.033392,0.129450,0.132740
247,3770180082,-0.406233,-0.450211,0.446089,-0.658251,0.011138,0.109153,0.108749
248,3770213416,-0.406451,-0.450869,0.445984,-0.657737,-0.007125,0.152806,0.193486
249,3770246750,-0.406798,-0.451552,0.445911,-0.657103,0.045997,0.070088,0.129732
250,3770280084,-0.406958,-0.452431,0.445787,-0.656484,0.028854,0.128282,0.113252
251,3770313418,-0.406926,-0.453494,0.445583,-0.655908,0.083288,0.095350,0.151026
252,3770346752,-0.406543,-0.454869,0.445149,-0.655488,0.048661,0.100874,0.152438
253,3770380086,-0.406103,-0.456184,0.444845,-0.655053,0.043449,0.092844,0.106642
254,3770413420,-0.405649,-0.457327,0.444766,-0.654591,0.072045,0.081697,0.049109
255,3770446754,-0.405073,-0.458548,0.444786,-0.654080,0.048363,0.127414,0.181822
256,3770480088,-0.404541,-0.459781,0.444810,-0.653527,0.023577,0.085249,0.139353
257,3770513422,-0.404337,-0.460721,0.445195,-0.652728,0.020864,0.082067,0.077888
258,3770546756,-0.404276,-0.461581,0.445694,-0.651817,0.139801,0.032734,0.090837
259,3770580090,-0.404029,-0.462874,0.445697,-0.651051,0.122163,0.009230,0.089434
260,3770613424,-0.403783,-0.464277,0.445450,-0.650373,0.103347,-0.022337,0.047114
261,3770646758,-0.403639,-0.465363,0.445311,-0.649782,0.143340,-0.035344,0.084437
262,3770680092,-0.403568,-0.466102,0.445208,-0.649367,0.150660,-0.047023,0.139680
263,3770713426,-0.403435,-0.466510,0.445114,-0.649220,0.120927,-0.034784,0.108021
264,3770746760,-0.403386,-0.466366,0.445285,-0.649237,0.077231,-0.013361,0.097778
265,3770780094,-0.403376,-0.465663,0.445650,-0.649497,0.126839,-0.028807,0.043904
266,3770813428,-0.403331,-0.464546,0.446107,-0.650011,0.034466,0.042623,0.050390
267,3770846762,-0.403773,-0.462774,0.447059,-0.650347,-0.001690,0.078370,0.078856
268,3770880096,-0.404441,-0.460698,0.448362,-0.650509,-0.001428,0.171060,0.076104
269,3770913430,-0.404994,-0.458670,0.449829,-0.650585,0.035394,0.145953,0.059488
270,3770946764,-0.405052,-0.457174,0.450928,-0.650841,-0.005529,0.164104,0.040450
271,3770980098,-0.404980,-0.456004,0.451824,-0.651085,-0.121817,0.190662,0.015886
272,3771013432,-0.405271,-0.454798,0.452929,-0.650980,-0.082291,0.156910,0.031527
273,3771046766,-0.405676,-0.453859,0.454010,-0.650630,-0.078788,0.192540,0.075998
274,3771080100,-0.406124,-0.453332,0.454846,-0.650133,-0.064699,0.137940,0.115954
275,3771113434,-0.406502,-0.453201,0.455459,-0.649559,-0.059176,0.093306,0.109886
276,3771146768,-0.406873,-0.453251,0.455983,-0.648924,-0.041426,0.054143,0.100862
277,3771180102,-0.407396,-0.453310,0.456428,-0.648241,-0.011496,-0.001782,0.111179
278,3771213436,-0.408237,-0.453197,0.456875,-0.647476,-0.016262,0.014538,0.119237
279,3771246770,-0.409301,-0.452968,0.457371,-0.646614,0.049450,0.020206,0.160530
280,3771280104,-0.410271,-0.452884,0.457687,-0.645835,0.102840,0.030619,0.153728
281,3771313438,-0.410976,-0.452972,0.457819,-0.645230,0.091655,0.040007,0.094770
282,3771346772,-0.411613,-0.452928,0.458057,-0.644686,0.086004,0.088701,0.081715
283,3771380106,-0.412269,-0.452747,0.458417,-0.644138,0.124646,0.090407,0.054655
284,3771413440,-0.412768,-0.452633,0.458837,-0.643598,0.091976,0.142035,0.080120
285,3771446774,-0.413223,-0.452551,0.459397,-0.642965,0.118279,0.123743,0.107211
286,3771480108,-0.413408,-0.452690,0.459961,-0.642346,0.150979,0.111799,0.080517
287,3771513442,-0.413204,-0.453039,0.460492,-0.641849,0.110100,0.061372,0.076557
288,3771546776,-0.412813,-0.453403,0.461125,-0.641389,0.093545,0.007666,0.061720
289,3771580110,-0.412327,-0.453727,0.461847,-0.640953,0.051194,-0.005017,0.072351
290,3771613444,-0.411711,-0.454063,0.462640,-0.640539,0.042521,-0.048594,0.120082
291,3771646778,-0.410657,-0.454603,0.463390,-0.640290,-0.000527,-0.117979,0.139216
292,3771680112,-0.409214,-0.455147,0.464208,-0.640236,-0.091417,-0.274004,0.145682
293,3771713446,-0.407774,-0.455404,0.465129,-0.640303,-0.136029,-0.418278,0.117868
294,3771746780,-0.406533,-0.455336,0.465938,-0.640552,-0.178161,-0.514888,0.068254
295,3771780114,-0.405654,-0.455076,0.466461,-0.640913,-0.168648,-0.523540,0.119033
296,3771813448,-0.405163,-0.454860,0.466478,-0.641365,-0.166608,-0.450924,0.128063
297,3771846782,-0.404857,-0.454788,0.465991,-0.641963,-0.115902,-0.369268,0.123251
298,3771880116,-0.404550,-0.454770,0.465262,-0.642698,-0.075340,-0.302043,0.097234
299,3771913450,-0.404100,-0.454745,0.464422,-0.643605,0.001313,-0.205362,0.021128
300,3771946784,-0.403249,-0.454904,0.463340,-0.644805,0.085808,-0.144461,-0.028678
301,3771980118,-0.401917,-0.455556,0.461716,-0.646339,0.157360,-0.069929,-0.053878
302,3772013452,-0.400172,-0.456813,0.459444,-0.648152,0.168042,0.022755,-0.064922
303,3772046786,-0.398531,-0.458427,0.456749,-0.649926,0.177370,0.171831,0.123439
304,3772080120,-0.397268,-0.460261,0.453844,-0.651436,0.241739,0.201486,0.186872
305,3772113454,-0.396149,-0.462552,0.450822,-0.652592,0.349255,0.277887,0.197230
306,3772146788,-0.394474,-0.465673,0.447337,-0.653785,0.475220,0.272901,0.213525
307,3772180122,-0.391628,-0.469641,0.443069,-0.655560,0.534408,0.289828,0.178128
308,3772213456,-0.387630,-0.473890,0.438322,-0.658065,0.512029,0.292863,0.158634
309,3772246790,-0.383408,-0.477287,0.433968,-0.660963,0.377533,0.342714,0.211432
310,3772280124,-0.379848,-0.478960,0.430840,-0.663849,0.310296,0.405765,0.283209
311,3772313458,-0.376838,-0.479047,0.428919,-0.666739,0.320824,0.494313,0.251247
312,3772346792,-0.373815,-0.478181,0.427835,-0.669752,0.269246,0.523763,0.199873
313,3772380126,-0.370492,-0.476854,0.427295,-0.672882,0.152107,0.562972,0.155549
314,3772413460,-0.366885,-0.475335,0.427224,-0.675971,0.045402,0.550426,0.106915
315,3772446794,-0.363057,-0.473892,0.427453,-0.678900,-0.085326,0.537997,0.150328
316,3772480128,-0.359100,-0.472771,0.427750,-0.681593,-0.242669,0.489148,0.119249
317,3772513462,-0.355252,-0.472065,0.428070,-0.683895,-0.354469,0.404144,0.098166
318,3772546796,-0.351835,-0.471859,0.428346,-0.685628,-0.417733,0.301117,0.030737
319,3772580130,-0.348995,-0.472575,0.428202,-0.686675,-0.368687,0.224968,0.012272
320,3772613464,-0.346828,-0.474490,0.427243,-0.687051,-0.343595,0.133447,0.008185
321,3772646798,-0.345539,-0.477302,0.425511,-0.686827,-0.277855,0.064130,0.028939
322,3772680132,-0.345109,-0.480471,0.423399,-0.686139,-0.225663,0.060531,0.087357
323,3772713466,-0.345442,-0.483563,0.421365,-0.685050,-0.065653,0.059306,0.203125
324,3772746800,-0.345662,-0.486749,0.419157,-0.684036,0.063731,0.069427,0.150248
325,3772780134,-0.345553,-0.489777,0.416973,-0.683265,0.141564,0.064980,0.154514
326,3772813468,-0.344922,-0.492611,0.414861,-0.682831,0.245412,0.082754,0.152434
327,3772846802,-0.343875,-0.495238,0.412820,-0.682696,0.246808,0.093557,0.131562
328,3772880136,-0.342728,-0.497435,0.411235,-0.682632,0.264729,0.084147,0.124551
329,3772913470,-0.341417,-0.499200,0.410043,-0.682718,0.334061,0.065503,0.092201
330,3772946804,-0.339868,-0.500603,0.409032,-0.683070,0.323477,0.014082,0.112198
331,3772980138,-0.338136,-0.501546,0.408281,-0.683687,0.295224,-0.026409,0.056596
332,3773013472,-0.336236,-0.502015,0.407863,-0.684529,0.254629,-0.034493,0.059690
333,3773046806,-0.333996,-0.502316,0.407368,-0.685698,0.224581,-0.058157,0.123981
334,3773080140,-0.331390,-0.502643,0.406593,-0.687181,0.106731,-0.073874,0.116130
335,3773113474,-0.328784,-0.502819,0.405806,-0.688767,0.022047,-0.080928,0.105547
336,3773146808,-0.326374,-0.502820,0.405069,-0.690345,-0.004128,-0.068902,0.113104
337,3773180142,-0.324078,-0.502808,0.404195,-0.691946,-0.076701,-0.028535,0.098083
338,3773213476,-0.322009,-0.502754,0.403367,-0.693433,-0.118491,-0.000636,0.085529
339,3773246810,-0.319954,-0.502888,0.402483,-0.694799,-0.092907,0.040246,0.070659
340,3773280144,-0.317848,-0.503337,0.401243,-0.696156,-0.107327,0.044230,-0.001073
341,3773313478,-0.316136,-0.503702,0.400170,-0.697289,-0.203696,0.121717,0.043318
342,3773346812,-0.314907,-0.504005,0.399389,-0.698073,-0.087417,0.079597,0.158980
343,3773380146,-0.313690,-0.504336,0.398485,-0.698898,-0.204803,0.144958,0.020799
344,3773413480,-0.312727,-0.504166,0.398535,-0.699424,-0.247808,0.149143,-0.045701
345,3773446814,-0.311427,-0.504496,0.398762,-0.699637,-0.081835,0.163558,0.060640
346,3773480148,-0.309299,-0.506342,0.397831,-0.699777,-0.102559,0.178131,0.141033
347,3773513482,-0.306836,-0.509432,0.395982,-0.699668,-0.086654,0.038310,0.119138
348,3773546816,-0.304223,-0.513218,0.393503,-0.699440,-0.054159,-0.066101,0.205705
349,3773580150,-0.302290,-0.516700,0.390980,-0.699129,-0.020217,-0.193526,0.214492
350,3773613484,-0.301575,-0.519242,0.388836,-0.698750,0.059747,-0.235414,0.296325
351,3773646818,-0.301887,-0.520599,0.387199,-0.698515,0.123439,-0.170216,0.283048
352,3773680152,-0.302334,-0.521374,0.385779,-0.698528,0.258040,-0.105244,0.231751
353,3773713486,-0.302002,-0.522282,0.384043,-0.698951,0.276897,0.118707,0.149048
354,3773746820,-0.300592,-0.523951,0.381468,-0.699719,0.275550,0.101867,0.141459
355,3773780154,-0.298379,-0.526388,0.378312,-0.700551,0.197909,0.161201,-0.049548
356,3773813488,-0.296212,-0.528905,0.375424,-0.701128,0.141579,0.151659,-0.101953
357,3773846822,-0.294336,-0.531122,0.373025,-0.701522,0.216288,0.215880,-0.098826
358,3773880156,-0.292167,-0.533274,0.370743,-0.702006,0.146770,0.249235,0.002895
359,3773913490,-0.289763,-0.535031,0.369232,-0.702461,0.069138,0.439233,-0.013606
360,3773946824,-0.286060,-0.537430,0.367802,-0.702898,0.161745,0.519566,-0.000787
361,3773980158,-0.280823,-0.541309,0.365628,-0.703167,0.121550,0.417283,-0.056831
362,3774013492,-0.275022,-0.546195,0.362960,-0.703064,0.088233,0.303358,-0.016765
363,3774046826,-0.269198,-0.551228,0.360084,-0.702869,0.076304,0.117912,0.052038
364,3774080160,-0.264227,-0.555144,0.358129,-0.702672,-0.119626,0.007900,0.013241
365,3774113494,-0.261126,-0.557287,0.358525,-0.701932,0.043320,-0.008633,0.053328
366,3774146828,-0.257742,-0.559422,0.358543,-0.701476,0.323916,-0.267180,0.268133
367,3774180162,-0.253922,-0.561489,0.357360,-0.701821,0.205953,-0.517390,0.295870
368,3774213496,-0.250646,-0.562743,0.355990,-0.702690,0.075153,-0.648444,0.381560
369,3774246830,-0.247961,-0.563262,0.354840,-0.703808,0.006643,-0.423472,0.449477
370,3774280164,-0.245761,-0.563320,0.353603,-0.705154,0.247560,-0.063610,0.324283
371,3774313498,-0.243167,-0.563481,0.350949,-0.707248,0.044213,-0.018757,0.204553
372,3774346832,-0.241488,-0.562848,0.348842,-0.709366,-0.056402,-0.025177,0.177584
373,3774380166,-0.240525,-0.561416,0.347620,-0.711425,-0.002380,0.123767,0.256529
374,3774413500,-0.239251,-0.559735,0.346514,-0.713714,-0.113820,0.144660,0.239408
375,3774446834,-0.237830,-0.557640,0.346116,-0.716019,-0.246291,0.131823,0.208665
376,3774480168,-0.236573,-0.554793,0.346670,-0.718375,-0.414243,0.088108,0.160869
377,3774513502,-0.236115,-0.550680,0.348991,-0.720564,-0.667141,0.070557,0.176996
378,3774546836,-0.236494,-0.545259,0.353726,-0.722251,-0.838332,0.081884,0.188302
379,3774580170,-0.237368,-0.539173,0.360408,-0.723229,-0.903421,0.126874,0.104803
380,3774613504,-0.238316,-0.533789,0.367466,-0.723359,-0.809135,0.068992,0.075077
381,3774646838,-0.238982,-0.530521,0.372798,-0.722815,-0.688381,0.034210,-0.100075
382,3774680172,-0.239571,-0.529974,0.375433,-0.721657,-0.644218,-0.040264,-0.236539
383,3774713506,-0.240756,-0.531671,0.375817,-0.719812,-0.655611,-0.165877,-0.189254
384,3774746840,-0.243525,-0.534559,0.375050,-0.717136,-0.614895,-0.222057,-0.081082
385,3774780174,-0.247895,-0.538037,0.373684,-0.713743,-0.410470,-0.238132,0.048486
386,3774813508,-0.253001,-0.541971,0.371455,-0.710130,-0.255903,-0.170438,0.165257
387,3774846842,-0.258251,-0.546049,0.368549,-0.706621,-0.129535,-0.166811,0.202284
388,3774880176,-0.263585,-0.549790,0.365686,-0.703230,0.016166,-0.100611,0.218102
389,3774913510,-0.268876,-0.552988,0.363105,-0.700050,0.199706,-0.028916,0.270446
390,3774946844,-0.273952,-0.555577,0.360782,-0.697228,0.327155,0.007056,0.204226
391,3774980178,-0.278982,-0.557190,0.359270,-0.694722,0.406663,0.033913,0.114096
392,3775013512,-0.283668,-0.557845,0.358642,-0.692620,0.692882,0.088377,0.064876
393,3775046846,-0.286990,-0.558314,0.357653,-0.691384,0.735862,0.214188,0.051029
394,3775080180,-0.289137,-0.558603,0.356882,-0.690653,0.524817,0.296464,0.190555
395,3775113514,-0.290459,-0.558613,0.356932,-0.690064,0.786720,0.301342,0.188054
396,3775146848,-0.289444,-0.559307,0.356065,-0.690377,0.798218,0.250896,0.073645
397,3775180182,-0.286616,-0.560006,0.354551,-0.691768,0.524063,0.135281,0.006112
398,3775213516,-0.284097,-0.559296,0.354354,-0.693481,0.342322,0.142788,0.097898
399,3775246850,-0.282122,-0.557318,0.355356,-0.695364,0.362748,0.170672,0.077289
400,3775280184,-0.279680,-0.554930,0.356734,-0.697552,0.266135,0.192863,0.055311
401,3775313518,-0.276492,-0.552464,0.358222,-0.700012,0.132733,0.167835,0.113431
402,3775346852,-0.272900,-0.549893,0.359954,-0.702554,-0.002699,0.140766,0.103329
403,3775380186,-0.269248,-0.547259,0.361801,-0.705067,-0.114247,0.081958,0.086921
404,3775413520,-0.265875,-0.544670,0.363644,-0.707399,-0.203419,0.053933,0.049006
405,3775446854,-0.263022,-0.542258,0.365351,-0.709436,-0.313777,0.041161,0.054543
406,3775480188,-0.260939,-0.540190,0.366804,-0.711031,-0.382683,0.030888,0.090540
407,3775513522,-0.259609,-0.538633,0.367826,-0.712171,-0.425077,0.038283,0.077755
408,3775546856,-0.258907,-0.537670,0.368471,-0.712820,-0.452361,0.044564,0.031754
409,3775580190,-0.258694,-0.537407,0.368745,-0.712954,-0.427621,0.047211,0.115617
410,3775613524,-0.259040,-0.537724,0.368725,-0.712600,-0.464997,0.050145,0.169719
411,3775646858,-0.259949,-0.538489,0.368648,-0.711730,-0.355184,0.044186,0.173901
412,3775680192,-0.261036,-0.539890,0.368127,-0.710540,-0.261450,-0.004679,0.161956
413,3775713526,-0.262604,-0.541487,0.367499,-0.709070,-0.278693,-0.035417,0.175154
414,3775746860,-0.264780,-0.542818,0.367256,-0.707368,-0.125171,-0.078617,0.107501
415,3775780194,-0.267192,-0.543844,0.367256,-0.705670,-0.078016,-0.063695,0.025670
416,3775813528,-0.269853,-0.544546,0.367581,-0.703945,0.021705,-0.054855,0.000144
417,3775846862,-0.272576,-0.545137,0.367947,-0.702245,0.099696,-0.044311,0.098488
418,3775880196,-0.275183,-0.545737,0.368079,-0.700692,0.140922,-0.010829,0.056630
419,3775913530,-0.277507,-0.546171,0.368284,-0.699328,0.175893,-0.010801,0.061491
420,3775946864,-0.279493,-0.546260,0.368691,-0.698252,0.188003,0.001630,0.086711
421,3775980198,-0.281308,-0.545798,0.369447,-0.697485,0.180001,0.029950,0.084462
422,3776013532,-0.283074,-0.544812,0.370636,-0.696910,0.160233,0.090072,0.139605
423,3776046866,-0.284678,-0.543522,0.372215,-0.696422,0.149010,0.087189,0.115959
424,3776080200,-0.285861,-0.542294,0.373888,-0.695998,0.143184,0.129347,0.137536
425,3776113534,-0.286524,-0.541402,0.375295,-0.695663,0.148338,0.081379,0.126693
426,3776146868,-0.286616,-0.540925,0.376393,-0.695402,0.143161,0.003851,0.088403
427,3776180202,-0.286352,-0.540609,0.377308,-0.695262,0.084775,-0.040191,0.086802
428,3776213536,-0.286149,-0.540140,0.378238,-0.695205,0.041097,-0.103193,0.065331
429,3776246870,-0.286075,-0.539628,0.379059,-0.695185,0.030246,-0.066902,0.132699
430,3776280204,-0.286117,-0.539042,0.379794,-0.695221,-0.018683,-0.044480,0.150444
431,3776313538,-0.286064,-0.538440,0.380549,-0.695297,-0.043189,-0.008992,0.194222
432,3776346872,-0.285873,-0.537984,0.381060,-0.695449,-0.031879,-0.019864,0.152328
433,3776380206,-0.285715,-0.537663,0.381366,-0.695594,-0.086638,0.020894,0.045375
434,3776413540,-0.285866,-0.537245,0.381842,-0.695593,-0.084636,0.028222,-0.058738
435,3776446874,-0.286301,-0.536955,0.382292,-0.695392,-0.029861,0.046677,0.041254
436,3776480208,-0.286829,-0.537058,0.382337,-0.695070,-0.013854,0.084107,0.077248
437,3776513542,-0.287329,-0.537270,0.382367,-0.694682,-0.042625,0.114771,0.044148
438,3776546876,-0.287821,-0.537260,0.382820,-0.694237,-0.041528,0.067939,0.114929
439,3776580210,-0.288392,-0.536945,0.383578,-0.693825,-0.027330,0.073916,0.132714
440,3776613544,-0.289193,-0.536339,0.384625,-0.693380,-0.009330,0.043740,0.153822
441,3776646878,-0.290026,-0.535676,0.385720,-0.692937,0.035566,0.032523,0.179304
442,3776680212,-0.290689,-0.535125,0.386606,-0.692591,0.068093,-0.031234,0.142947
443,3776713546,-0.291226,-0.534615,0.387273,-0.692387,0.077196,-0.054577,0.140047
444,3776746880,-0.291823,-0.534010,0.387782,-0.692317,0.050543,-0.059253,0.137958
445,3776780214,-0.292554,-0.533245,0.388284,-0.692317,0.043511,-0.009596,0.138276
446,3776813548,-0.293375,-0.532414,0.388707,-0.692372,0.027458,0.027141,0.178795
447,3776846882,-0.294172,-0.531579,0.389080,-0.692466,0.042604,0.052794,0.148658
448,3776880216,-0.294825,-0.530789,0.389439,-0.692592,0.041203,0.078672,0.123870
449,3776913550,-0.295285,-0.530087,0.389763,-0.692751,0.045065,0.060465,0.111242
450,3776946884,-0.295542,-0.529491,0.389999,-0.692964,0.022458,0.083079,0.103242
451,3776980218,-0.295751,-0.528976,0.390209,-0.693151,0.028435,0.076856,0.092415
452,3777013552,-0.295771,-0.528601,0.390374,-0.693335,0.004614,0.060020,0.111939
453,3777046886,-0.295661,-0.528298,0.390493,-0.693546,0.017046,0.055468,0.104925
454,3777080220,-0.295472,-0.527986,0.390574,-0.693818,-0.068872,0.058700,0.111701
455,3777113554,-0.295592,-0.527481,0.390908,-0.693964,-0.085944,0.086227,0.172760
456,3777146888,-0.295689,-0.527106,0.391210,-0.694037,-0.027754,0.101679,0.107120
457,3777180222,-0.295480,-0.527114,0.391196,-0.694127,-0.081796,0.059779,0.090342
458,3777213556,-0.295081,-0.527322,0.391142,-0.694170,-0.102349,0.040690,0.065133
459,3777246890,-0.294734,-0.527623,0.391068,-0.694130,-0.087469,0.033725,0.102349
460,3777280224,-0.294741,-0.527939,0.391041,-0.693902,-0.101083,0.062460,0.119223
461,3777313558,-0.294942,-0.528253,0.391073,-0.693560,-0.080083,0.036726,0.052139
462,3777346892,-0.295219,-0.528606,0.391179,-0.693113,-0.045173,0.052492,0.084470
463,3777380226,-0.295614,-0.529081,0.391152,-0.692598,-0.023075,0.031401,0.118096
464,3777413560,-0.296284,-0.529505,0.391206,-0.691956,0.012655,0.019479,0.072871
465,3777446894,-0.297170,-0.529895,0.391374,-0.691182,0.065066,0.011915,0.074389
466,3777480228,-0.298089,-0.530439,0.391388,-0.690361,0.058811,-0.012786,0.026280
467,3777513562,-0.299057,-0.531233,0.391003,-0.689550,0.080009,0.017477,0.088389
468,3777546896,-0.300139,-0.531973,0.390458,-0.688818,0.067976,0.017397,0.099977
469,3777580230,-0.301516,-0.532394,0.390246,-0.688011,0.045438,0.048392,0.069122
470,3777613564,-0.303088,-0.532642,0.390237,-0.687131,0.103718,0.074444,0.103544
471,3777646898,-0.304638,-0.532960,0.390032,-0.686316,0.111036,0.084780,0.082585
472,3777680232,-0.306142,-0.533309,0.389837,-0.685486,0.138590,0.130167,0.117150
473,3777713566,-0.307457,-0.533675,0.389706,-0.684686,0.192891,0.109909,0.063049
474,3777746900,-0.308806,-0.533890,0.389789,-0.683864,0.165712,0.125649,0.036721
475,3777780234,-0.310654,-0.533645,0.390404,-0.682867,0.213536,0.145073,0.141413
476,3777813568,-0.312432,-0.533509,0.390895,-0.681880,0.253244,0.170759,0.123187
477,3777846902,-0.313872,-0.533716,0.391147,-0.680912,0.223943,0.189830,0.086500
478,3777880236,-0.314839,-0.534312,0.391292,-0.679914,0.267761,0.159045,0.123237
479,3777913570,-0.315292,-0.535271,0.391121,-0.679048,0.244559,0.117785,0.079717
480,3777946904,-0.315669,-0.536171,0.390962,-0.678253,0.189547,0.078591,0.071881
481,3777980238,-0.316308,-0.536618,0.391020,-0.677568,0.147356,-0.096389,0.112906
482,3778013572,-0.317549,-0.536140,0.391663,-0.676995,0.234065,-0.090502,0.207688
483,3778046906,-0.319093,-0.535289,0.392150,-0.676661,0.228989,-0.101863,0.351991
484,3778080240,-0.320475,-0.534244,0.392384,-0.676697,0.096572,-0.045536,0.260961
485,3778113574,-0.321658,-0.532834,0.393102,-0.676830,-0.004286,-0.114429,0.173492
486,3778146908,-0.322220,-0.531574,0.393596,-0.677267,0.138806,-0.059237,0.057703
487,3778180242,-0.322067,-0.530719,0.393830,-0.677874,-0.025008,-0.104958,-0.054347
488,3778213576,-0.321710,-0.530120,0.394319,-0.678228,0.081088,-0.045894,0.098490
489,3778246910,-0.320853,-0.530039,0.394301,-0.678707,-0.053542,-0.142453,0.067215
490,3778280244,-0.319746,-0.530033,0.394411,-0.679170,0.100570,-0.111384,-0.040688
491,3778313578,-0.317900,-0.530618,0.393703,-0.679990,-0.079775,-0.287753,-0.073009
492,3778346912,-0.316044,-0.531279,0.392838,-0.680839,-0.112849,-0.282028,0.067788
493,3778380246,-0.314586,-0.531691,0.392103,-0.681616,-0.142089,-0.252443,0.175291
494,3778413580,-0.313485,-0.531688,0.391753,-0.682327,-0.128266,-0.177386,0.227428
495,3778446914,-0.312654,-0.531373,0.391751,-0.682954,-0.141595,-0.050053,0.304156
496,3778480248,-0.311694,-0.531114,0.391644,-0.683656,-0.088357,-0.045761,0.141831
497,3778513582,-0.310537,-0.531195,0.391275,-0.684330,-0.129546,-0.055834,0.064025
498,3778546916,-0.309379,-0.531602,0.390678,-0.684879,-0.095108,-0.034467,0.065766
499,3778580250,-0.308170,-0.532444,0.389495,-0.685444,-0.093979,-0.020119,0.114821
500,3778613584,-0.307180,-0.533432,0.388257,-0.685823,-0.171064,0.018850,0.124124
501,3778646918,-0.306318,-0.534518,0.387212,-0.685954,-0.057220,0.036785,0.121207
502,3778680252,-0.305049,-0.536095,0.385701,-0.686140,-0.107883,0.051687,0.068329
503,3778713586,-0.303906,-0.537874,0.384108,-0.686148,-0.118160,0.051394,0.047218
504,3778746920,-0.303160,-0.539658,0.382596,-0.685922,-0.114418,0.086499,0.105810
505,3778780254,-0.302914,-0.541293,0.381278,-0.685476,-0.131443,0.134393,0.120871
506,3778813588,-0.303098,-0.542797,0.380398,-0.684694,-0.030602,0.128704,0.081273
507,3778846922,-0.303177,-0.544533,0.379393,-0.683838,0.079275,0.164820,0.076875
508,3778880256,-0.303050,-0.546447,0.378148,-0.683056,0.109894,0.140180,0.056729
509,3778913590,-0.302962,-0.548282,0.377029,-0.682243,0.149511,0.127615,0.100812
510,3778946924,-0.302931,-0.549921,0.376085,-0.681458,0.229879,0.121069,0.160270
511,3778980258,-0.302993,-0.551171,0.375507,-0.680739,0.193855,0.079427,0.210329
512,3779013592,-0.303267,-0.551555,0.375651,-0.680226,0.133118,0.057808,0.165137
513,3779046926,-0.303796,-0.551068,0.376684,-0.679813,0.150384,0.044001,0.153149
514,3779080260,-0.304241,-0.550154,0.378063,-0.679589,0.120216,0.028256,0.119450
515,3779113594,-0.304760,-0.548932,0.379725,-0.679418,0.004392,0.012036,0.199320
516,3779146928,-0.305372,-0.547674,0.381450,-0.679192,0.028517,-0.033716,0.147519
517,3779180262,-0.305667,-0.546768,0.382719,-0.679075,-0.040950,-0.063421,0.103299
518,3779213596,-0.305884,-0.546040,0.383752,-0.678981,-0.112386,-0.126249,0.060987
519,3779246930,-0.306188,-0.545401,0.384573,-0.678893,-0.101140,-0.137770,0.022099
520,3779280264,-0.306583,-0.545037,0.384987,-0.678772,-0.096945,-0.107653,0.064785
521,3779313598,-0.307226,-0.544989,0.384947,-0.678543,-0.101874,-0.097209,0.167377
522,3779346932,-0.308076,-0.545081,0.384683,-0.678233,-0.084235,-0.055583,0.169357
523,3779380266,-0.308801,-0.545183,0.384482,-0.677935,-0.028505,-0.055651,0.167326
524,3779413600,-0.309434,-0.545268,0.384402,-0.677623,-0.005950,-0.002872,0.132938
525,3779446934,-0.309813,-0.545741,0.384000,-0.677298,0.061546,0.048946,0.091712
526,3779480268,-0.309512,-0.546845,0.383024,-0.677097,0.046744,0.060059,0.070897
527,3779513602,-0.308879,-0.548196,0.381981,-0.676883,0.027219,0.011208,0.108709
528,3779546936,-0.308513,-0.549206,0.381251,-0.676643,0.009204,-0.019596,0.146574
529,3779580270,-0.308604,-0.549554,0.381157,-0.676371,0.027410,-0.039120,0.115063
530,3779613604,-0.308981,-0.549519,0.381525,-0.676020,0.100035,-0.065593,0.146358
531,3779646938,-0.308996,-0.549581,0.381654,-0.675890,0.102403,-0.048127,0.103302
532,3779680272,-0.308689,-0.549799,0.381529,-0.675924,0.113315,-0.097654,0.089186
533,3779713606,-0.308578,-0.549864,0.381631,-0.675864,0.031603,-0.107969,0.072281
534,3779746940,-0.308477,-0.549927,0.381615,-0.675867,0.088590,-0.084095,0.074039
535,3779780274,-0.308482,-0.549952,0.381522,-0.675898,0.066668,-0.093235,0.126521
536,3779813608,-0.308526,-0.549915,0.381371,-0.675993,0.087594,-0.066880,0.106757
537,3779846942,-0.308555,-0.549773,0.381240,-0.676170,0.051145,-0.040923,0.094391
538,3779880276,-0.308478,-0.549547,0.381069,-0.676484,0.051545,-0.058601,0.076251
539,3779913610,-0.308408,-0.549224,0.380954,-0.676843,0.014124,-0.038917,0.068569
540,3779946944,-0.308440,-0.548794,0.380924,-0.677195,0.010779,0.001983,0.097317
541,3779980278,-0.308550,-0.548234,0.380923,-0.677599,-0.044383,-0.007186,0.009894
542,3780013612,-0.308940,-0.547401,0.381269,-0.677899,-0.067615,0.039037,0.076135
543,3780046946,-0.309473,-0.546469,0.381786,-0.678117,-0.041168,0.023521,0.082047
544,3780080280,-0.310011,-0.545604,0.382385,-0.678230,-0.090342,0.002973,0.059310
545,3780113614,-0.310853,-0.544594,0.383229,-0.678181,-0.089362,-0.002917,0.057335
546,3780146948,-0.311749,-0.543692,0.383995,-0.678059,-0.036672,0.028557,0.127071
547,3780180282,-0.312457,-0.543288,0.384412,-0.677822,-0.006299,0.040272,0.256907
548,3780213616,-0.312547,-0.543608,0.384203,-0.677641,0.118926,0.001944,0.151347
549,3780246950,-0.311666,-0.544558,0.383326,-0.677781,0.024518,-0.058841,0.124896
550,3780280284,-0.311415,-0.544789,0.382945,-0.677927,-0.085319,-0.113015,0.054212
551,3780313618,-0.312222,-0.544202,0.383204,-0.677880,0.068815,-0.055474,0.042107
552,3780346952,-0.313280,-0.543452,0.383452,-0.677854,0.062815,0.035621,0.057587
553,3780380286,-0.314154,-0.542837,0.383765,-0.677764,0.066210,0.071196,0.138422
554,3780413620,-0.314463,-0.542626,0.383811,-0.677764,0.070103,0.114566,0.119668
555,3780446954,-0.314532,-0.542765,0.383726,-0.677669,0.085003,0.047082,0.112597
556,3780480288,-0.314169,-0.543335,0.383383,-0.677575,0.104425,0.031120,0.023829
557,3780513622,-0.313837,-0.543791,0.383125,-0.677509,0.058305,-0.008480,0.052492
558,3780546956,-0.313852,-0.543840,0.383199,-0.677421,0.103990,0.001752,0.113567
559,3780580290,-0.313958,-0.543728,0.383350,-0.677376,0.100447,0.004105,0.153254
560,3780613624,-0.314060,-0.543533,0.383620,-0.677332,0.119328,0.014199,0.143849
561,3780646958,-0.313888,-0.543378,0.383843,-0.677410,0.109243,-0.024222,0.095274
562,3780680292,-0.313725,-0.543151,0.384079,-0.677534,0.075429,-0.053146,0.050494
563,3780713626,-0.313738,-0.542853,0.384309,-0.677636,0.065483,-0.048481,0.070183
564,3780746960,-0.313948,-0.542490,0.384499,-0.677722,0.031191,-0.030526,0.075540
565,3780780294,-0.314170,-0.542122,0.384655,-0.677825,0.071487,0.023037,0.124565
566,3780813628,-0.314184,-0.541878,0.384748,-0.677960,0.054617,0.019916,0.091986
567,3780846962,-0.314150,-0.541617,0.384897,-0.678100,0.047741,0.005219,0.094733
568,3780880296,-0.314244,-0.541137,0.385279,-0.678223,0.026252,-0.012472,0.099225
569,3780913630,-0.314510,-0.540482,0.385834,-0.678307,0.058488,-0.028936,0.115026
570,3780946964,-0.314787,-0.539813,0.386297,-0.678447,0.037364,-0.017997,0.145391
571,3780980298,-0.315303,-0.538901,0.386937,-0.678568,-0.019394,-0.050462,0.176923
572,3781013632,-0.316059,-0.537642,0.387859,-0.678688,-0.004898,-0.060811,0.182498
573,3781046966,-0.316979,-0.536179,0.388841,-0.678855,-0.075488,-0.054429,0.184561
574,3781080300,-0.317942,-0.534721,0.389755,-0.679030,-0.072511,-0.077750,0.118305
575,3781113634,-0.318967,-0.533474,0.390381,-0.679171,-0.120653,-0.046154,0.196117
576,3781146968,-0.320149,-0.532525,0.390545,-0.679265,-0.041871,-0.074563,0.117420
577,3781180302,-0.321200,-0.531890,0.390318,-0.679397,-0.045799,-0.005094,0.061347
578,3781213636,-0.322302,-0.531206,0.390158,-0.679503,-0.001563,-0.024695,0.067664
579,3781246970,-0.323455,-0.530464,0.390109,-0.679562,0.005810,0.042793,0.107306
580,3781280304,-0.324655,-0.529623,0.390158,-0.679618,0.041139,0.094112,0.108404
581,3781313638,-0.325669,-0.528788,0.390410,-0.679638,0.090681,0.077925,0.054525
582,3781346972,-0.326340,-0.528116,0.390645,-0.679704,0.069264,0.109542,0.066820
583,3781380306,-0.326933,-0.527480,0.390906,-0.679762,0.063740,0.083891,0.045868
584,3781413640,-0.327436,-0.526870,0.391325,-0.679752,0.089175,0.096421,0.034226
585,3781446974,-0.327724,-0.526413,0.391761,-0.679717,0.073460,0.095868,0.040331
586,3781480308,-0.327779,-0.526179,0.392076,-0.679690,0.062542,0.058193,0.075674
587,3781513642,-0.327673,-0.526035,0.392325,-0.679708,0.048016,0.067717,0.068597
588,3781546976,-0.327433,-0.525875,0.392742,-0.679707,0.039785,0.020055,0.110476
589,3781580310,-0.327175,-0.525601,0.393258,-0.679745,0.016207,-0.000471,0.108615
590,3781613644,-0.327016,-0.525280,0.393814,-0.679748,-0.003364,-0.012269,0.103655
591,3781646978,-0.326917,-0.525011,0.394265,-0.679742,-0.001707,-0.037583,0.115693
592,3781680312,-0.326864,-0.524853,0.394572,-0.679711,-0.058955,-0.038108,0.096828
593,3781713646,-0.326984,-0.524717,0.394870,-0.679585,0.001125,-0.063698,0.085154
594,3781746980,-0.327040,-0.524790,0.394831,-0.679525,-0.005332,-0.042935,0.099975
595,3781780314,-0.327105,-0.524942,0.394662,-0.679474,-0.008487,-0.029534,0.096279
596,3781813648,-0.327450,-0.524891,0.394727,-0.679310,-0.001418,0.033428,0.204729
597,3781846982,-0.327832,-0.524778,0.394798,-0.679172,0.080260,0.018565,0.106900
598,3781880316,-0.328027,-0.524642,0.394924,-0.679109,0.049262,0.020346,0.084191
599,3781913650,-0.328254,-0.524371,0.395177,-0.679062,0.077326,-0.009838,0.091335
600,3781946984,-0.328484,-0.524115,0.395347,-0.679049,0.047340,0.028296,0.136298
601,3781980318,-0.328722,-0.523859,0.395509,-0.679036,0.069655,0.021306,0.148819
602,3782013652,-0.328727,-0.523737,0.395592,-0.679080,0.091721,-0.013659,0.130714
603,3782046986,-0.328575,-0.523703,0.395603,-0.679174,0.048216,-0.021257,0.089166
604,3782080320,-0.328335,-0.523801,0.395366,-0.679353,0.033275,-0.059173,0.080417
605,3782113654,-0.328270,-0.523788,0.395202,-0.679489,-0.014867,-0.020440,0.071231
606,3782146988,-0.328401,-0.523648,0.395119,-0.679582,0.009043,0.022469,0.097195
607,3782180322,-0.328580,-0.523518,0.395056,-0.679633,-0.056517,0.048394,0.148048
608,3782213656,-0.328868,-0.523310,0.395222,-0.679557,-0.045144,0.057885,0.126330
609,3782246990,-0.329113,-0.523102,0.395442,-0.679471,-0.040347,-0.001365,0.099844
610,3782280324,-0.329536,-0.522778,0.395766,-0.679326,-0.082140,-0.028956,0.087166
611,3782313658,-0.330327,-0.522273,0.396249,-0.679049,-0.084591,-0.011461,0.108125
612,3782346992,-0.331386,-0.521600,0.396897,-0.678671,-0.090322,0.009002,0.091103
613,3782380326,-0.332608,-0.520773,0.397740,-0.678215,-0.107276,0.012406,0.100330
614,3782413660,-0.333990,-0.519793,0.398813,-0.677657,-0.097311,0.027419,0.134913
615,3782446994,-0.335561,-0.518708,0.399987,-0.677020,-0.104774,0.003695,0.126772
616,3782480328,-0.337337,-0.517469,0.401406,-0.676246,-0.075494,-0.030549,0.089161
617,3782513662,-0.339144,-0.516146,0.402908,-0.675459,-0.080103,-0.041054,0.059957
618,3782546996,-0.341233,-0.514658,0.404629,-0.674513,-0.016185,-0.024585,0.130828
619,3782580330,-0.343205,-0.513304,0.406181,-0.673611,0.017627,-0.048483,0.079682
620,3782613664,-0.345153,-0.511941,0.407697,-0.672736,-0.015561,-0.061382,0.073709
621,3782646998,-0.347332,-0.510331,0.409539,-0.671719,0.041820,-0.124145,0.093492
622,3782680332,-0.349358,-0.508836,0.411058,-0.670874,0.037629,-0.041939,0.118636
623,3782713666,-0.351327,-0.507343,0.412532,-0.670071,-0.009200,-0.008386,0.108231
624,3782747000,-0.353411,-0.505724,0.414089,-0.669238,-0.019378,-0.036500,0.067373
625,3782780334,-0.355687,-0.503966,0.415791,-0.668302,-0.023425,0.021938,0.074394
626,3782813668,-0.358126,-0.502258,0.417449,-0.667251,-0.018654,0.041879,0.124185
627,3782847002,-0.360812,-0.500349,0.419302,-0.666076,-0.006799,-0.051317,0.105165
628,3782880336,-0.363968,-0.497834,0.421559,-0.664818,0.171071,-0.152681,0.182103
629,3782913670,-0.367336,-0.494818,0.423601,-0.663918,0.285393,-0.089050,0.211093
630,3782947004,-0.370428,-0.491552,0.425298,-0.663541,0.205648,0.030271,0.179420
631,3782980338,-0.372873,-0.488118,0.426612,-0.663863,0.010082,0.093186,0.114511
632,3783013672,-0.375491,-0.483793,0.428821,-0.664129,-0.319799,0.129315,0.034672
633,3783047006,-0.378368,-0.478954,0.432190,-0.663820,-0.104600,0.228942,-0.004398
634,3783080340,-0.380407,-0.475687,0.434647,-0.663400,-0.368096,0.360233,-0.185214
635,3783113674,-0.382891,-0.473557,0.437303,-0.661748,-0.635724,0.348345,-0.201674
636,3783147008,-0.388627,-0.469384,0.443887,-0.656976,-0.393770,-0.071303,0.086975
637,3783180342,-0.396378,-0.463372,0.452829,-0.650479,0.091565,-0.429845,0.099112
638,3783213676,-0.403737,-0.457786,0.461179,-0.644008,0.779022,-0.292383,0.196542
639,3783247010,-0.407975,-0.455321,0.465532,-0.639941,0.726000,-0.058480,0.203133
640,3783280344,-0.409718,-0.454871,0.467201,-0.637928,0.436729,0.072420,0.028846
641,3783313678,-0.411086,-0.454102,0.468798,-0.636422,0.222234,-0.039040,0.142186
642,3783347012,-0.412513,-0.452909,0.470434,-0.635140,0.087230,-0.157049,0.149303
643,3783380346,-0.414060,-0.451435,0.472122,-0.633929,-0.129613,-0.224026,0.162401
644,3783413680,-0.416402,-0.449142,0.474454,-0.632281,-0.060127,-0.297428,0.173652
645,3783447014,-0.419312,-0.446303,0.477202,-0.630297,0.110883,-0.185794,0.103564
646,3783480348,-0.422211,-0.443476,0.480027,-0.628208,0.201931,-0.042157,0.055492
647,3783513682,-0.424606,-0.441239,0.482576,-0.626214,0.270898,-0.028362,0.022716
648,3783547016,-0.426210,-0.439629,0.484631,-0.624668,0.334669,-0.185551,0.091371
649,3783580350,-0.427335,-0.438246,0.486323,-0.623555,0.320817,-0.242309,0.139235
650,3783613684,-0.427839,-0.437305,0.487264,-0.623135,0.280994,-0.227614,0.163431
651,3783647018,-0.427891,-0.436766,0.487521,-0.623276,0.153849,-0.115612,0.136429
652,3783680352,-0.427883,-0.436254,0.487514,-0.623646,0.083164,-0.076537,0.126331
653,3783713686,-0.428012,-0.435521,0.487778,-0.623863,0.021354,-0.006060,0.073060
654,3783747020,-0.428472,-0.434470,0.488383,-0.623807,0.042718,-0.076431,0.187150
655,3783780354,-0.428953,-0.433551,0.488721,-0.623851,0.016261,-0.120709,0.097313
656,3783813688,-0.429341,-0.432880,0.489045,-0.623796,0.107047,-0.111488,0.086209
657,3783847022,-0.429560,-0.432609,0.489071,-0.623812,0.085751,-0.088981,0.145402
658,3783880356,-0.429539,-0.432555,0.488858,-0.624032,0.094113,-0.083373,0.131227
659,3783913690,-0.429067,-0.432877,0.488187,-0.624658,0.066793,0.013798,0.130518
660,3783947024,-0.428178,-0.434002,0.486646,-0.625688,-0.065788,-0.123595,0.132027
661,3783980358,-0.427098,-0.435896,0.484186,-0.627018,-0.346218,-0.273448,0.075068
662,3784013692,-0.426747,-0.437118,0.482771,-0.627497,-0.235666,-0.141238,0.094754
663,3784047026,-0.426823,-0.438090,0.481657,-0.627623,-0.133232,-0.212130,0.114202
664,3784080360,-0.426732,-0.439756,0.479684,-0.628031,0.042192,-0.164346,0.129932
665,3784113694,-0.426595,-0.441947,0.477371,-0.628348,0.003284,-0.048068,0.118024
666,3784147028,-0.426730,-0.444064,0.475496,-0.628186,0.104566,-0.037999,0.134650
667,3784180362,-0.426694,-0.446261,0.473772,-0.627955,0.219988,-0.021414,0.158365
668,3784213696,-0.426114,-0.448800,0.471821,-0.628008,0.209579,-0.051891,0.116681
669,3784247030,-0.425166,-0.451336,0.470062,-0.628154,0.209803,-0.002230,0.151211
670,3784280364,-0.423973,-0.453777,0.468679,-0.628235,0.256644,-0.073980,0.088434
671,3784313698,-0.422135,-0.456506,0.467206,-0.628592,0.302368,-0.135460,0.059728
672,3784347032,-0.420265,-0.459019,0.465716,-0.629121,0.217940,-0.220864,-0.073718
673,3784380366,-0.418792,-0.460626,0.464883,-0.629544,0.234143,-0.174699,-0.179325
674,3784413700,-0.417674,-0.461500,0.464751,-0.629744,0.385950,-0.219060,-0.119165
675,3784447034,-0.415868,-0.462888,0.464320,-0.630239,0.543056,-0.239930,-0.136230
676,3784480368,-0.412577,-0.465870,0.462561,-0.631497,0.633174,-0.192177,0.046625
677,3784513702,-0.407807,-0.470491,0.459366,-0.633498,0.712361,-0.257898,0.133530
678,3784547036,-0.401561,-0.476557,0.454625,-0.636367,0.728902,-0.354117,0.060426
679,3784580370,-0.394574,-0.482929,0.448787,-0.640068,0.639063,-0.359296,0.038872
680,3784613704,-0.387887,-0.488414,0.442997,-0.644014,0.577393,-0.357376,0.195704
681,3784647038,-0.381246,-0.492853,0.437497,-0.648343,0.632318,-0.332708,0.306040
682,3784680372,-0.373966,-0.496571,0.431880,-0.653492,0.578531,-0.232282,0.334020
683,3784713706,-0.365892,-0.499378,0.426375,-0.659511,0.356813,0.006642,0.272499
684,3784747040,-0.357456,-0.500995,0.421704,-0.665883,0.152748,0.202519,0.221828
685,3784780374,-0.348897,-0.501858,0.417604,-0.672326,-0.061127,0.300401,0.204931
686,3784813708,-0.341288,-0.501571,0.415007,-0.678029,-0.369481,0.295578,0.173699
687,3784847042,-0.334894,-0.499833,0.414540,-0.682770,-0.399866,0.375393,0.140045
688,3784880376,-0.328427,-0.497512,0.414602,-0.687553,-0.545407,0.329304,0.089476
689,3784913710,-0.322097,-0.494871,0.415110,-0.692131,-0.880695,0.272435,0.038152
690,3784947044,-0.316849,-0.491921,0.416514,-0.695802,-1.045393,0.220837,0.103770
691,3784980378,-0.312693,-0.489348,0.417965,-0.698622,-1.164926,0.070470,0.078547
692,3785013712,-0.309770,-0.487805,0.418948,-0.700411,-1.182945,-0.191411,0.003143
693,3785047046,-0.308410,-0.487569,0.419200,-0.701025,-0.996249,-0.407812,0.071675
694,3785080380,-0.308319,-0.488844,0.417971,-0.700911,-0.766023,-0.409245,0.074030
695,3785113714,-0.310047,-0.491390,0.415389,-0.699903,-0.491599,-0.329975,0.092978
696,3785147048,-0.313449,-0.494927,0.411840,-0.697990,-0.186443,-0.138434,0.099521
697,3785180382,-0.317058,-0.499451,0.407494,-0.695685,0.167456,-0.004943,-0.044817
698,3785213716,-0.318945,-0.504858,0.402534,-0.693804,0.348701,0.199578,-0.179853
699,3785247050,-0.318920,-0.510670,0.397656,-0.692374,0.335738,0.360936,0.091036
700,3785280384,-0.316925,-0.516503,0.392657,-0.691815,0.431588,0.386287,-0.120631
701,3785313718,-0.313961,-0.521544,0.388498,-0.691733,0.403586,0.407144,-0.234660
702,3785347052,-0.310957,-0.525304,0.385833,-0.691737,0.489906,0.302343,-0.007460
703,3785380386,-0.307789,-0.528574,0.383111,-0.692176,0.408324,0.357778,0.030242
704,3785413720,-0.304692,-0.530662,0.381414,-0.692885,0.107048,0.362242,0.258782
705,3785447054,-0.301667,-0.530806,0.382248,-0.693638,0.177227,-0.179675,0.829728
706,3785480388,-0.296952,-0.530031,0.383418,-0.695616,-0.077237,-0.608746,0.770758
707,3785513722,-0.292113,-0.527813,0.385760,-0.698053,-0.118498,-0.654519,0.467570
708,3785547056,-0.288283,-0.524701,0.387724,-0.700897,-0.337903,-0.582824,0.133993
709,3785580390,-0.287627,-0.520791,0.389745,-0.702959,-0.377681,-0.416772,-0.110315
710,3785613724,-0.289123,-0.517899,0.389798,-0.704451,-0.244841,-0.220366,-0.180547
711,3785647058,-0.291509,-0.516387,0.388478,-0.705306,-0.235763,-0.075434,-0.089612
712,3785680392,-0.293966,-0.515899,0.386584,-0.705684,0.177198,0.090344,-0.249304
713,3785713726,-0.295523,-0.516710,0.383441,-0.706155,0.310965,0.238315,-0.081756
714,3785747060,-0.297355,-0.517647,0.380122,-0.706494,0.166141,0.381791,0.133895
715,3785780394,-0.299763,-0.517816,0.377563,-0.706725,0.198447,0.444735,0.283390
716,3785813728,-0.302474,-0.516765,0.376335,-0.706994,0.203858,0.438051,0.321942
717,3785847062,-0.305077,-0.514260,0.377227,-0.707226,0.215025,0.406214,0.308809
718,3785880396,-0.306695,-0.510747,0.379413,-0.707903,0.266384,0.438194,0.304258
719,3785913730,-0.307222,-0.506769,0.381996,-0.709144,0.211416,0.374339,0.088057
720,3785947064,-0.307212,-0.502685,0.384835,-0.710517,0.101360,0.300765,-0.020989
721,3785980398,-0.307387,-0.498556,0.388034,-0.711611,0.010225,0.288330,-0.018186
722,3786013732,-0.307839,-0.494666,0.391173,-0.712412,0.001435,0.277479,-0.056670
723,3786047066,-0.308730,-0.491251,0.394205,-0.712717,-0.008446,0.270012,0.029422
724,3786080400,-0.309733,-0.488576,0.396622,-0.712780,-0.013504,0.212459,0.179338
725,3786113734,-0.310735,-0.486485,0.398491,-0.712732,-0.123266,0.161882,0.165887
726,3786147068,-0.311930,-0.484633,0.400453,-0.712372,0.019057,0.245459,0.122087
727,3786180402,-0.311899,-0.484088,0.401124,-0.712378,0.122247,0.139106,0.127875
728,3786213736,-0.309849,-0.484956,0.400196,-0.713204,0.054080,0.379804,-0.039734
729,3786247070,-0.306444,-0.487204,0.398072,-0.714330,0.153193,0.561717,-0.126667
730,3786280404,-0.301622,-0.491516,0.394474,-0.715424,0.172450,0.492077,0.000410
731,3786313738,-0.295252,-0.497959,0.389490,-0.716356,0.129328,0.444494,-0.080729
732,3786347072,-0.287892,-0.505400,0.384406,-0.716887,0.059111,0.495743,-0.080459
733,3786380406,-0.280889,-0.512509,0.381039,-0.716415,0.037856,0.340138,0.103176
734,3786413740,-0.274918,-0.518913,0.379921,-0.714713,-0.018144,0.299880,0.094052
735,3786447074,-0.269828,-0.524126,0.381142,-0.712195,0.381206,-0.033443,0.374281
736,3786480408,-0.265456,-0.528075,0.384146,-0.709300,0.240059,-0.201314,0.215544
737,3786513742,-0.262201,-0.530632,0.388498,-0.706226,0.488318,-0.434516,0.524800
738,3786547076,-0.260167,-0.531738,0.393590,-0.703320,-0.098694,-0.412406,0.625017
739,3786580410,-0.256702,-0.533258,0.391949,-0.704359,0.365863,-0.824935,0.024270
740,3786613744,-0.254627,-0.534678,0.387282,-0.706614,0.021913,-1.088503,0.677968
741,3786647078,-0.257080,-0.533108,0.388888,-0.706030,-1.302285,-0.512688,-0.424810
742,3786680412,-0.263807,-0.527596,0.399851,-0.701550,-0.002805,0.619376,-0.202814
743,3786713746,-0.270588,-0.521122,0.412814,-0.696279,-0.876306,0.241975,-0.069095
744,3786747080,-0.278766,-0.512823,0.429445,-0.689118,0.029766,1.044558,0.148143
745,3786780414,-0.283055,-0.507188,0.441456,-0.683931,0.133351,0.691424,0.065760
746,3786813748,-0.287356,-0.500582,0.456814,-0.676882,-0.765293,0.143337,0.368816
747,3786847082,-0.292806,-0.491011,0.476778,-0.667728,0.603010,0.220217,0.245393
748,3786880416,-0.294585,-0.482986,0.492047,-0.661694,-0.004849,-0.759909,0.277283
749,3786913750,-0.295524,-0.476708,0.503632,-0.657096,0.196003,-0.480609,0.127946
750,3786947084,-0.294666,-0.474516,0.508458,-0.655349,0.121373,-0.392049,-0.073007
751,3786980418,-0.292787,-0.476117,0.507436,-0.655822,-0.291567,-0.099017,-0.308450
752,3787013752,-0.292983,-0.477491,0.506946,-0.655114,-0.147973,-0.256077,-0.202449
753,3787047086,-0.294602,-0.477910,0.507360,-0.653760,0.322131,-0.194591,0.162714
754,3787080420,-0.295793,-0.478603,0.506281,-0.653552,0.221779,-0.173522,0.220139
755,3787113754,-0.296333,-0.479491,0.504297,-0.654190,0.097289,-0.103293,0.194071
756,3787147088,-0.297016,-0.480024,0.502459,-0.654904,-0.134289,-0.165709,0.172395
757,3787180422,-0.298044,-0.479993,0.501446,-0.655235,-0.246657,-0.180494,0.014634
758,3787213756,-0.300008,-0.479096,0.501888,-0.654657,-0.132407,-0.140912,0.131828
759,3787247090,-0.302501,-0.478137,0.502527,-0.653720,0.102534,-0.062598,0.146257
760,3787280424,-0.304889,-0.477645,0.502456,-0.653024,0.181384,-0.098993,0.112792
761,3787313758,-0.305950,-0.478339,0.500582,-0.653460,0.252259,-0.180951,0.183334
762,3787347092,-0.305780,-0.480183,0.497380,-0.654630,0.208792,-0.275264,0.175090
763,3787380426,-0.304567,-0.483252,0.492680,-0.656489,0.201807,-0.219596,0.192561
764,3787413760,-0.302664,-0.486858,0.487165,-0.658816,0.031606,-0.215771,0.117268
765,3787447094,-0.300452,-0.490319,0.481453,-0.661456,0.140156,-0.114168,0.178417
766,3787480428,-0.298073,-0.493319,0.475461,-0.664628,0.175995,-0.112153,0.117941
767,3787513762,-0.295065,-0.496050,0.468847,-0.668624,0.197037,-0.115178,0.135167
768,3787547096,-0.291960,-0.498481,0.462228,-0.672775,-0.081561,-0.251315,0.078197
769,3787580430,-0.290147,-0.499958,0.457294,-0.675829,-0.205147,-0.239990,0.115794
770,3787613764,-0.289788,-0.500480,0.453850,-0.677914,-0.177810,-0.230825,0.052011
771,3787647098,-0.290217,-0.500588,0.450986,-0.679561,-0.101401,-0.199737,0.099285
772,3787680432,-0.291431,-0.500423,0.448432,-0.680852,-0.107494,-0.149392,0.071047
773,3787713766,-0.293529,-0.499860,0.446459,-0.681660,-0.106455,-0.116686,0.058945
774,3787747100,-0.296429,-0.498979,0.445381,-0.681756,-0.024920,-0.106602,0.087158
775,3787780434,-0.299332,-0.498178,0.444967,-0.681343,-0.012986,-0.010053,0.101446
776,3787813768,-0.301835,-0.497468,0.445090,-0.680677,-0.006544,-0.011064,0.070274
777,3787847102,-0.304085,-0.496595,0.446081,-0.679663,0.070805,-0.029264,0.069456
778,3787880436,-0.305927,-0.495972,0.447173,-0.678573,0.212556,-0.045144,0.165990
779,3787913770,-0.306976,-0.495938,0.447370,-0.677994,0.247734,-0.104131,0.125464
780,3787947104,-0.307409,-0.496398,0.446695,-0.677907,0.198816,-0.087133,0.108679
781,3787980438,-0.307275,-0.497308,0.445213,-0.678275,0.139135,-0.087419,0.100472
782,3788013772,-0.306609,-0.498585,0.443125,-0.679006,0.067253,-0.061808,0.145378
783,3788047106,-0.305724,-0.500002,0.440848,-0.679845,-0.039251,-0.030658,0.092984
784,3788080440,-0.304844,-0.501224,0.438666,-0.680751,-0.059921,-0.081812,0.025753
785,3788113774,-0.304243,-0.502205,0.436982,-0.681379,-0.134634,0.043529,0.055915
786,3788147108,-0.304161,-0.502932,0.435733,-0.681680,-0.157908,-0.089525,0.048247
787,3788180442,-0.304578,-0.503260,0.435342,-0.681502,-0.097275,-0.049275,0.069077
788,3788213776,-0.305230,-0.503360,0.435013,-0.681345,0.062499,-0.041889,0.094250
789,3788247110,-0.305783,-0.503358,0.434216,-0.681608,0.049363,-0.077720,0.128565
790,3788280444,-0.306389,-0.503187,0.433370,-0.682000,0.029872,0.004030,0.105064
791,3788313778,-0.306750,-0.503072,0.431861,-0.682879,-0.036483,-0.033185,0.023534
792,3788347112,-0.307074,-0.502837,0.430328,-0.683874,-0.166861,0.025831,0.059478
793,3788380446,-0.307913,-0.502215,0.429569,-0.684431,-0.129039,0.001428,0.044234
794,3788413780,-0.308810,-0.501659,0.428890,-0.684860,-0.081375,0.035478,0.108290
795,3788447114,-0.309892,-0.501006,0.428388,-0.685164,-0.187304,0.060665,0.113912
796,3788480448,-0.311566,-0.499964,0.428606,-0.685029,-0.222869,0.057247,0.151557
797,3788513782,-0.314035,-0.498499,0.429771,-0.684239,-0.227585,0.013024,0.116862
798,3788547116,-0.317129,-0.496657,0.431711,-0.682929,-0.138176,0.038019,0.021223
799,3788580450,-0.320642,-0.494529,0.434227,-0.681235,-0.072294,-0.021339,0.071520
800,3788613784,-0.324544,-0.492163,0.437328,-0.679114,0.001249,-0.023880,0.078300
801,3788647118,-0.328560,-0.489572,0.440737,-0.676848,0.243781,-0.099259,0.186779
802,3788680452,-0.332211,-0.487211,0.443797,-0.674767,0.263186,-0.085079,0.175109
803,3788713786,-0.335165,-0.485306,0.445984,-0.673236,0.270443,-0.178678,0.164292
804,3788747120,-0.337642,-0.483720,0.447718,-0.671987,0.234672,-0.153540,0.134232
805,3788780454,-0.339574,-0.482476,0.448880,-0.671132,0.302021,-0.126695,0.120523
806,3788813788,-0.340875,-0.481670,0.449377,-0.670719,0.216730,-0.119521,0.083290
807,3788847122,-0.341866,-0.481069,0.449686,-0.670438,0.150168,-0.127233,0.116968
808,3788880456,-0.342791,-0.480615,0.449929,-0.670129,0.150086,-0.121775,0.138529
809,3788913790,-0.343565,-0.480277,0.450002,-0.669926,0.150522,-0.103133,0.121263
810,3788947124,-0.344142,-0.480082,0.450006,-0.669767,0.131741,-0.110314,0.095630
811,3788980458,-0.344499,-0.480133,0.449914,-0.669609,0.165943,-0.093026,0.085175
812,3789013792,-0.344518,-0.480516,0.449549,-0.669569,0.206149,-0.137118,0.088130
813,3789047126,-0.344124,-0.481255,0.448765,-0.669767,0.223819,-0.089414,0.089705
814,3789080460,-0.343249,-0.482295,0.447530,-0.670293,0.203395,-0.145081,0.064065
815,3789113794,-0.342000,-0.483533,0.446042,-0.671031,0.122927,-0.087999,0.097894
816,3789147128,-0.340727,-0.484838,0.444467,-0.671782,0.083229,-0.057178,0.160113
817,3789180462,-0.339413,-0.486165,0.442826,-0.672572,0.100613,-0.036461,0.090105
818,3789213796,-0.337990,-0.487560,0.441057,-0.673441,0.022902,-0.051298,0.086226
819,3789247130,-0.336516,-0.488953,0.439375,-0.674268,0.039335,0.003267,0.100144
820,3789280464,-0.335079,-0.490348,0.437712,-0.675051,-0.003492,-0.007029,0.102640
821,3789313798,-0.333802,-0.491577,0.436222,-0.675754,-0.036200,-0.003798,0.104048
822,3789347132,-0.332706,-0.492666,0.434923,-0.676339,-0.020083,-0.000694,0.072297
823,3789380466,-0.331707,-0.493676,0.433730,-0.676859,-0.077149,-0.004629,0.107964
824,3789413800,-0.330913,-0.494517,0.432862,-0.677190,-0.049475,0.035839,0.104165
825,3789447134,-0.330244,-0.495301,0.432068,-0.677449,-0.072898,0.020580,0.085105
826,3789480468,-0.329750,-0.496012,0.431435,-0.677574,-0.041565,-0.012084,0.100583
827,3789513802,-0.329468,-0.496561,0.431037,-0.677561,-0.049690,-0.013813,0.130708
828,3789547136,-0.329283,-0.496957,0.430807,-0.677508,0.009649,0.011529,0.144857
829,3789580470,-0.329176,-0.497269,0.430597,-0.677464,-0.036762,-0.049759,0.110281
830,3789613804,-0.329209,-0.497383,0.430576,-0.677378,-0.021343,-0.038038,0.098991
831,3789647138,-0.329315,-0.497373,0.430652,-0.677286,0.036604,-0.012435,0.102693
832,3789680472,-0.329426,-0.497339,0.430636,-0.677266,0.006550,-0.026754,0.101975
833,3789713806,-0.329523,-0.497283,0.430634,-0.677262,0.011186,-0.036811,0.130041
834,3789747140,-0.329627,-0.497256,0.430604,-0.677250,-0.003664,-0.060152,0.106613
835,3789780474,-0.329741,-0.497285,0.430565,-0.677198,0.017718,-0.003914,0.120840
836,3789813808,-0.329685,-0.497452,0.430354,-0.677236,0.027531,-0.018022,0.068721
837,3789847142,-0.329536,-0.497742,0.430074,-0.677275,-0.061733,0.015809,0.186006
838,3789880476,-0.329588,-0.497968,0.429948,-0.677163,0.018565,-0.009757,0.119093
839,3789913810,-0.329560,-0.498290,0.429744,-0.677070,0.035550,0.003614,0.143538
840,3789947144,-0.329425,-0.498723,0.429431,-0.677014,0.062101,-0.032071,0.159633
841,3789980478,-0.329240,-0.499244,0.429073,-0.676948,0.060952,-0.014093,0.178820
842,3790013812,-0.329011,-0.499835,0.428556,-0.676950,0.042929,-0.022533,0.198179
843,3790047146,-0.329090,-0.500271,0.428322,-0.676738,0.028546,0.011434,0.158722
844,3790080480,-0.329426,-0.500447,0.428534,-0.676310,0.061478,0.017076,0.158862
845,3790113814,-0.330053,-0.500356,0.429237,-0.675626,0.060294,0.050850,0.086213
846,3790147148,-0.330783,-0.500403,0.430158,-0.674647,0.103954,0.045472,0.000832
847,3790180482,-0.331022,-0.501356,0.430698,-0.673477,0.266944,0.047702,0.011065
848,3790213816,-0.330126,-0.503971,0.429779,-0.672551,0.449978,-0.061113,0.007507
849,3790247150,-0.327689,-0.508250,0.426712,-0.672476,0.441717,-0.146303,0.001617
850,3790280484,-0.324123,-0.513279,0.422146,-0.673266,0.328735,-0.131865,0.059958
851,3790313818,-0.319851,-0.518171,0.416756,-0.674917,0.233664,-0.093235,0.047802
852,3790347152,-0.315262,-0.522397,0.410794,-0.677469,0.035124,-0.063825,-0.026222
853,3790380486,-0.311262,-0.525517,0.405411,-0.680143,-0.368937,0.065153,0.101460
854,3790413820,-0.308988,-0.527047,0.402218,-0.681890,-0.420949,0.088052,0.217748
855,3790447154,-0.308227,-0.527255,0.400994,-0.682793,-0.356720,-0.029001,0.232217
856,3790480488,-0.308515,-0.526386,0.401132,-0.683253,-0.200270,-0.066918,0.185316
857,3790513822,-0.309091,-0.524953,0.401849,-0.683674,0.019345,0.020628,0.089934
858,3790547156,-0.309454,-0.523755,0.402224,-0.684207,0.043199,0.103985,0.142536
859,3790580490,-0.309629,-0.523116,0.402006,-0.684745,0.006755,0.071963,0.063041
860,3790613824,-0.309763,-0.522930,0.401484,-0.685133,-0.073497,0.016195,0.083513
861,3790647158,-0.309963,-0.522988,0.401066,-0.685243,-0.091390,0.017949,0.060906
862,3790680492,-0.310206,-0.523123,0.400991,-0.685074,-0.108676,0.054017,0.059996
863,3790713826,-0.310685,-0.523328,0.401327,-0.684503,-0.034312,0.071937,0.134096
864,3790747160,-0.311371,-0.523691,0.401719,-0.683684,0.094542,-0.060977,0.153459
865,3790780494,-0.311915,-0.524243,0.401817,-0.682954,0.191353,-0.031721,0.206002
866,3790813828,-0.311855,-0.525099,0.401009,-0.682799,0.185843,-0.063233,0.206354
867,3790847162,-0.311368,-0.526114,0.399605,-0.683063,0.084718,-0.073293,0.113929
868,3790880496,-0.310851,-0.527043,0.398062,-0.683483,0.010622,-0.070023,0.106191
869,3790913830,-0.310633,-0.527667,0.396673,-0.683908,-0.001840,-0.030547,0.108119
870,3790947164,-0.310731,-0.527987,0.395424,-0.684340,0.009079,-0.019609,0.104670
871,3790980498,-0.311180,-0.527842,0.394570,-0.684741,-0.026102,-0.001081,0.087060
872,3791013832,-0.311700,-0.527327,0.394037,-0.685208,-0.045048,0.020119,0.057963
873,3791047166,-0.312459,-0.526453,0.394050,-0.685526,-0.019133,0.020428,0.036718
874,3791080500,-0.313348,-0.525378,0.394424,-0.685730,0.068112,0.014436,0.021540
875,3791113834,-0.314162,-0.524232,0.394865,-0.685980,0.090846,0.017842,-0.026016
876,3791147168,-0.314851,-0.523103,0.395364,-0.686239,0.025569,0.034715,-0.009265
877,3791180502,-0.315550,-0.521900,0.396133,-0.686391,0.009008,0.055193,-0.072978
878,3791213836,-0.316439,-0.520541,0.397421,-0.686269,-0.076912,0.149475,0.021162
879,3791247170,-0.317532,-0.519045,0.399397,-0.685750,0.028525,0.152562,-0.092090
880,3791280504,-0.318258,-0.517801,0.401616,-0.685058,0.147777,0.084274,-0.124718
881,3791313838,-0.318567,-0.516672,0.403997,-0.684365,0.030254,0.129272,-0.065058
882,3791347172,-0.319116,-0.515371,0.407212,-0.683184,-0.016501,0.196963,0.480609
883,3791380506,-0.319721,-0.514619,0.410001,-0.681799,0.061258,-0.002341,0.663731
884,3791413840,-0.320119,-0.514656,0.411309,-0.680796,-0.050484,-0.013241,0.518345
885,3791447174,-0.321086,-0.514868,0.411722,-0.679930,0.095877,-0.085104,0.315408
886,3791480508,-0.322103,-0.515800,0.410792,-0.679305,0.279402,-0.109414,0.158262
887,3791513842,-0.323013,-0.517313,0.408627,-0.679028,0.238809,0.001345,0.107600
888,3791547176,-0.323936,-0.518864,0.405947,-0.679013,0.224481,0.039346,0.126195
889,3791580510,-0.324821,-0.520131,0.403444,-0.679112,0.170243,0.089613,0.105798
890,3791613844,-0.325475,-0.521058,0.401428,-0.679283,0.329873,-0.033108,0.084221
891,3791647178,-0.325280,-0.522185,0.398966,-0.679961,0.338149,-0.199609,-0.038229
892,3791680512,-0.324716,-0.523040,0.396537,-0.680994,0.329751,-0.204330,-0.052912
893,3791713846,-0.323969,-0.523389,0.394556,-0.682231,0.380203,-0.093604,-0.056832
894,3791747180,-0.322935,-0.523248,0.392648,-0.683928,0.307263,-0.007372,-0.099133
895,3791780514,-0.322041,-0.522121,0.391659,-0.685775,0.129698,0.017824,-0.170601
896,3791813848,-0.321604,-0.519887,0.392121,-0.687412,0.085400,0.137568,-0.198874
897,3791847182,-0.321735,-0.516557,0.394034,-0.688765,-0.019816,0.031243,-0.333867
898,3791880516,-0.322939,-0.511768,0.397681,-0.689681,-0.070924,-0.089628,-0.274454
899,3791913850,-0.325671,-0.505542,0.402955,-0.689926,-0.245687,-0.192316,-0.161963
900,3791947184,-0.329866,-0.498207,0.409913,-0.689170,-0.131555,-0.161026,0.039245
901,3791980518,-0.334122,-0.491380,0.417365,-0.687546,0.077534,0.023855,0.397818
902,3792013852,-0.336374,-0.487164,0.422446,-0.686344,0.288005,-0.034276,0.698499
903,3792047186,-0.335806,-0.485751,0.424881,-0.686121,0.480276,0.091385,0.642105
904,3792080520,-0.331519,-0.487901,0.422909,-0.687896,0.510500,-0.079806,0.475166
905,3792113854,-0.324763,-0.492679,0.416895,-0.691375,0.097448,-0.375261,0.181994
906,3792147188,-0.318025,-0.498287,0.409362,-0.694981,-0.274966,-0.465020,0.016211
907,3792180522,-0.312723,-0.503352,0.402764,-0.697586,-0.373118,-0.209796,-0.097903
908,3792213856,-0.308467,-0.507877,0.397426,-0.699261,-0.243722,-0.159248,0.139005
909,3792247190,-0.304339,-0.512105,0.392785,-0.700608,-0.237829,-0.008787,0.220597
910,3792280524,-0.300364,-0.515847,0.388785,-0.701808,-0.006406,0.016657,0.292152
911,3792313858,-0.295948,-0.519603,0.384235,-0.703417,0.085817,-0.004301,0.277252
912,3792347192,-0.290931,-0.523520,0.378651,-0.705630,0.134267,0.047450,0.112234
913,3792380526,-0.285317,-0.527665,0.371859,-0.708442,0.067777,0.217031,0.021383
914,3792413860,-0.279154,-0.531973,0.364047,-0.711726,-0.154426,0.284981,-0.052622
915,3792447194,-0.272913,-0.536301,0.355690,-0.715115,-0.364622,0.212574,0.057043
916,3792480528,-0.267298,-0.540155,0.347631,-0.718291,-0.724393,-0.022958,0.160806
917,3792513862,-0.263655,-0.542406,0.342322,-0.720488,-0.863630,-0.277377,0.229114
918,3792547196,-0.262491,-0.542767,0.340647,-0.721435,-0.897078,-0.319543,0.114546
919,3792580530,-0.263892,-0.541354,0.342821,-0.720955,-0.505264,-0.046990,0.100616
920,3792613864,-0.266572,-0.539175,0.346824,-0.719686,-0.278633,0.185779,0.272180
921,3792647198,-0.269874,-0.536500,0.351284,-0.718290,-0.022830,0.126244,0.165953
922,3792680532,-0.273012,-0.533993,0.355153,-0.717069,0.139651,-0.050568,0.091019
923,3792713866,-0.275777,-0.531765,0.358227,-0.716137,0.203628,-0.236216,0.088115
924,3792747200,-0.278049,-0.529696,0.360653,-0.715574,0.225059,-0.238285,0.084084
925,3792780534,-0.279304,-0.528095,0.361976,-0.715600,0.289679,-0.156312,0.053123
926,3792813868,-0.279407,-0.527241,0.361861,-0.716247,0.173030,-0.057279,0.061770
927,3792847202,-0.278796,-0.527085,0.360690,-0.717191,0.032498,0.010385,0.001963
928,3792880536,-0.277836,-0.527521,0.358873,-0.718154,-0.074594,0.042965,-0.005286
929,3792913870,-0.276965,-0.528250,0.357136,-0.718819,-0.182701,0.061222,0.049765
930,3792947204,-0.276722,-0.528830,0.356434,-0.718835,-0.149174,0.077552,0.203569
931,3792980538,-0.276861,-0.529091,0.356351,-0.718631,-0.094207,0.087099,0.363623
932,3793013872,-0.276842,-0.529223,0.356220,-0.718606,0.057184,-0.069238,0.111028
933,3793047206,-0.276482,-0.529408,0.356027,-0.718704,0.112270,-0.066939,0.036775
934,3793080540,-0.275958,-0.529587,0.355570,-0.718999,0.079434,-0.000047,0.010178
935,3793113874,-0.275379,-0.529834,0.354760,-0.719439,0.022085,0.097609,0.044966
936,3793147208,-0.274953,-0.530066,0.353997,-0.719807,-0.123631,0.093928,0.054011
937,3793180542,-0.274799,-0.530168,0.353721,-0.719927,-0.118363,0.017149,0.048265
938,3793213876,-0.274754,-0.530162,0.353936,-0.719842,-0.077200,0.016074,0.127766
939,3793247210,-0.274833,-0.530061,0.354362,-0.719677,-0.020928,0.020068,0.107932
940,3793280544,-0.274781,-0.530028,0.354647,-0.719580,0.043262,0.015911,0.099111
941,3793313878,-0.274599,-0.530056,0.354773,-0.719567,0.059874,0.025184,0.081109
942,3793347212,-0.274270,-0.530156,0.354730,-0.719641,0.081834,-0.000082,0.084706
943,3793380546,-0.273866,-0.530253,0.354560,-0.719806,0.052420,0.021009,0.172838
944,3793413880,-0.273544,-0.530223,0.354392,-0.720034,0.008686,0.014045,0.173206
945,3793447214,-0.273180,-0.530156,0.354251,-0.720291,-0.014647,0.005618,0.089252
946,3793480548,-0.272822,-0.530155,0.354059,-0.720522,-0.067138,0.036222,0.004214
947,3793513882,-0.272621,-0.530209,0.353989,-0.720592,-0.058033,0.029580,0.001729
948,3793547216,-0.272635,-0.530264,0.354141,-0.720472,-0.071062,0.014100,0.028289
949,3793580550,-0.272935,-0.530110,0.354693,-0.720200,-0.056692,0.012670,0.124841
950,3793613884,-0.273413,-0.529648,0.355555,-0.719934,-0.020350,0.056740,0.144281
951,3793647218,-0.273935,-0.528956,0.356577,-0.719738,-0.038465,0.078866,0.113749
952,3793680552,-0.274497,-0.528201,0.357772,-0.719485,-0.066204,0.036766,0.141207
953,3793713886,-0.275156,-0.527406,0.359175,-0.719118,-0.012404,0.017538,0.196095
954,3793747220,-0.275708,-0.526646,0.360484,-0.718808,0.079813,-0.011668,0.143658
955,3793780554,-0.275914,-0.526069,0.361295,-0.718745,0.127136,-0.007421,0.131218
956,3793813888,-0.275752,-0.525723,0.361543,-0.718936,0.073545,-0.021707,0.064694
957,3793847222,-0.275579,-0.525512,0.361522,-0.719166,-0.043450,0.016087,0.143285
958,3793880556,-0.275600,-0.525346,0.361500,-0.719291,-0.022454,-0.008524,0.137609
959,3793913890,-0.275559,-0.525197,0.361388,-0.719471,0.014029,0.005283,0.153333
960,3793947224,-0.275290,-0.525122,0.361065,-0.719791,0.001796,-0.014626,0.126060
961,3793980558,-0.275064,-0.524961,0.360884,-0.720086,-0.055300,0.003813,0.160152
962,3794013892,-0.275009,-0.524557,0.361037,-0.720325,-0.075515,0.021124,0.150414
963,3794047226,-0.275060,-0.524073,0.361575,-0.720387,-0.059684,-0.006952,0.033706
964,3794080560,-0.275130,-0.523672,0.362248,-0.720314,0.023875,0.022953,0.048821
965,3794113894,-0.275024,-0.523677,0.362506,-0.720222,0.025710,0.012361,0.032312
966,3794147228,-0.274854,-0.523955,0.362658,-0.720008,0.109466,0.011134,0.047706
967,3794180562,-0.274184,-0.524626,0.362174,-0.720018,0.099934,-0.021584,0.103180
968,3794213896,-0.273175,-0.525499,0.361272,-0.720218,0.054870,-0.047919,0.111731
969,3794247230,-0.272081,-0.526314,0.360189,-0.720579,0.042959,0.000725,0.119945
970,3794280564,-0.270947,-0.526994,0.359144,-0.721031,-0.051513,0.027411,0.106952
971,3794313898,-0.269932,-0.527507,0.358389,-0.721412,-0.090053,0.027397,0.084130
972,3794347232,-0.269100,-0.527937,0.357824,-0.721689,-0.125996,-0.020419,0.060021
973,3794380566,-0.268658,-0.528266,0.357638,-0.721705,-0.076996,-0.023332,0.090485
974,3794413900,-0.268207,-0.528673,0.357267,-0.721758,0.048176,-0.033412,0.103239
975,3794447234,-0.267658,-0.529038,0.356721,-0.721965,-0.037053,0.004851,0.177803
976,3794480568,-0.267194,-0.529405,0.356091,-0.722178,-0.045475,-0.010853,0.207438
977,3794513902,-0.266643,-0.529910,0.355159,-0.722471,-0.062175,-0.061850,0.147180
978,3794547236,-0.266214,-0.530598,0.353985,-0.722700,-0.080736,-0.033466,0.111884
979,3794580570,-0.265994,-0.531447,0.352658,-0.722806,-0.010804,-0.007106,0.137174
980,3794613904,-0.265805,-0.532126,0.351235,-0.723069,-0.028961,0.041707,0.125441
981,3794647238,-0.265492,-0.532526,0.349898,-0.723537,-0.157191,0.023429,0.094210
982,3794680572,-0.265635,-0.532284,0.349491,-0.723859,-0.233591,-0.033865,0.078278
983,3794713906,-0.266583,-0.531274,0.350228,-0.723897,-0.287053,0.004958,0.065038
984,3794747240,-0.268334,-0.529671,0.352138,-0.723498,-0.235266,-0.016141,0.074635
985,3794780574,-0.270393,-0.528139,0.354369,-0.722762,-0.120754,0.030301,0.152360
986,3794813908,-0.272224,-0.527253,0.356192,-0.721825,0.022347,0.111530,0.108295
987,3794847242,-0.273525,-0.527115,0.357085,-0.720992,0.123582,0.107377,0.073722
988,3794880576,-0.274209,-0.527725,0.356836,-0.720409,0.002256,0.026845,0.098600
989,3794913910,-0.274952,-0.528435,0.356392,-0.719825,-0.081648,-0.010990,0.052677
990,3794947244,-0.275951,-0.528823,0.356396,-0.719155,0.029891,-0.023087,0.108838
991,3794980578,-0.276942,-0.528924,0.356687,-0.718556,0.106874,0.055899,0.079124
992,3795013912,-0.277904,-0.528523,0.357072,-0.718288,0.093286,-0.002350,0.116362
993,3795047246,-0.279133,-0.527555,0.358016,-0.718053,-0.162944,-0.061881,0.051587
994,3795080580,-0.280976,-0.525890,0.360182,-0.717472,-0.154663,0.040686,0.225219
995,3795113914,-0.282777,-0.524202,0.362391,-0.716887,-0.020172,0.028675,0.149544
996,3795147248,-0.284163,-0.522860,0.364124,-0.716441,-0.078403,-0.012361,0.063195
997,3795180582,-0.285627,-0.521826,0.365871,-0.715722,-0.020474,-0.067942,0.067456
998,3795213916,-0.286781,-0.521372,0.366855,-0.715088,0.009565,-0.033786,0.160555
999,3795247250,-0.287514,-0.521348,0.366988,-0.714742,-0.109283,-0.033757,0.191874
1000,3795280584,-0.288532,-0.521142,0.367423,-0.714259,-0.229876,-0.105141,0.132813
1001,3795313918,-0.289980,-0.520632,0.368517,-0.713481,-0.231545,-0.024940,0.283908
1002,3795347252,-0.291506,-0.520016,0.369527,-0.712785,-0.278197,-0.028898,0.153849
1003,3795380586,-0.293465,-0.518999,0.371049,-0.711932,-0.409821,-0.037492,0.036554
1004,3795413920,-0.296134,-0.517663,0.373401,-0.710568,-0.358097,0.074387,0.055369
1005,3795447254,-0.299222,-0.516575,0.375886,-0.708753,-0.271172,0.053849,0.050819
1006,3795480588,-0.302660,-0.515542,0.378614,-0.706591,-0.269462,0.013833,0.004188
1007,3795513922,-0.306549,-0.514118,0.382172,-0.704031,-0.194768,-0.022552,0.002758
1008,3795547256,-0.310587,-0.512441,0.386284,-0.701234,-0.060313,-0.026828,0.019618
1009,3795580590,-0.314910,-0.510446,0.390903,-0.698195,-0.189338,-0.126274,0.061440
1010,3795613924,-0.320815,-0.506879,0.398222,-0.693957,0.015151,-0.294853,0.135122
1011,3795647258,-0.326016,-0.503643,0.404717,-0.690121,0.713769,-0.172832,0.342191
1012,3795680592,-0.327689,-0.503300,0.405897,-0.688885,0.460360,-0.193219,0.225060
1013,3795713926,-0.327933,-0.504379,0.404725,-0.688668,0.321819,-0.211967,0.162138
1014,3795747260,-0.327213,-0.506552,0.401265,-0.689440,0.173612,-0.219411,-0.024399
1015,3795780594,-0.326322,-0.509053,0.397320,-0.690306,-0.040346,-0.139683,0.005366
1016,3795813928,-0.325901,-0.511399,0.394013,-0.690665,-0.138161,-0.099672,0.156983
1017,3795847262,-0.325715,-0.513605,0.391145,-0.690746,-0.159850,-0.115132,0.120084
1018,3795880596,-0.326310,-0.514998,0.389414,-0.690406,-0.298382,-0.140346,0.153707
1019,3795913930,-0.328614,-0.514851,0.389765,-0.689224,-0.281184,-0.179055,0.089666
1020,3795947264,-0.332463,-0.513340,0.391951,-0.687263,-0.115938,-0.176749,0.042843
1021,3795980598,-0.337082,-0.511145,0.394826,-0.685000,0.009815,-0.093447,0.036603
1022,3796013932,-0.341975,-0.508817,0.397621,-0.682687,0.022021,-0.041006,0.097769
1023,3796047266,-0.346963,-0.506483,0.400135,-0.680433,0.157262,0.034775,0.088867
1024,3796080600,-0.351414,-0.504580,0.401786,-0.678587,0.198677,0.072714,0.067210
1025,3796113934,-0.355781,-0.502436,0.404017,-0.676575,0.175424,0.137597,-0.006113
1026,3796147268,-0.359698,-0.500133,0.406597,-0.674661,0.443426,0.286988,0.014319
1027,3796180602,-0.362642,-0.498001,0.408709,-0.673385,0.451319,0.249122,0.072732
1028,3796213936,-0.364670,-0.496371,0.409998,-0.672709,0.089751,0.042096,0.048064
1029,3796247270,-0.367025,-0.494200,0.412087,-0.671750,0.119497,-0.045575,0.140100
1030,3796280604,-0.369462,-0.491905,0.414163,-0.670821,0.147559,-0.165377,0.086473
1031,3796313938,-0.372008,-0.489542,0.415939,-0.670044,0.138783,-0.146961,0.023179
1032,3796347272,-0.374727,-0.487167,0.417352,-0.669381,0.174231,-0.066105,0.083484
1033,3796380606,-0.377618,-0.484607,0.418756,-0.668737,0.047051,-0.028546,0.074413
1034,3796413940,-0.381483,-0.480631,0.421952,-0.667403,0.448956,0.163158,0.120964
1035,3796447274,-0.384648,-0.476731,0.425033,-0.666427,0.418488,0.208017,0.044309
1036,3796480608,-0.386660,-0.473400,0.427510,-0.666054,0.345090,0.191998,0.037601
1037,3796513942,-0.387892,-0.470424,0.429822,-0.665958,0.318312,0.132586,0.053953
1038,3796547276,-0.388734,-0.467643,0.431987,-0.666024,0.293384,0.038962,0.129122
1039,3796580610,-0.389380,-0.464955,0.433778,-0.666365,0.282022,-0.031240,0.178910
1040,3796613944,-0.389642,-0.462517,0.434963,-0.667136,0.232700,-0.001334,0.213392
1041,3796647278,-0.389424,-0.460591,0.435304,-0.668372,0.175417,0.077431,0.234890
1042,3796680612,-0.388820,-0.459223,0.434964,-0.669884,0.142453,0.193062,0.194614
1043,3796713946,-0.387864,-0.458408,0.434273,-0.671444,0.039812,0.291628,0.125604
1044,3796747280,-0.386607,-0.458038,0.433487,-0.672927,-0.003205,0.298386,0.036851
1045,3796780614,-0.385113,-0.458141,0.432727,-0.674201,-0.070410,0.319439,0.084827
1046,3796813948,-0.383618,-0.458658,0.432084,-0.675114,-0.119219,0.277526,0.088626
1047,3796847282,-0.381869,-0.459853,0.431294,-0.675798,-0.119222,0.217829,0.085179
1048,3796880616,-0.380123,-0.461486,0.430423,-0.676224,-0.150419,0.132115,0.068555
1049,3796913950,-0.378670,-0.463392,0.429524,-0.676308,-0.146755,0.067170,0.096682
1050,3796947284,-0.377633,-0.465436,0.428504,-0.676130,-0.115385,0.015113,0.122391
1051,3796980618,-0.377137,-0.467287,0.427599,-0.675703,-0.092543,0.002127,0.139051
1052,3797013952,-0.377175,-0.468656,0.427063,-0.675072,-0.019320,-0.013126,0.114789
1053,3797047286,-0.377605,-0.469586,0.426753,-0.674381,0.072035,-0.006078,0.101706
1054,3797080620,-0.378170,-0.470294,0.426470,-0.673750,0.121977,0.002435,0.079860
1055,3797113954,-0.378787,-0.470780,0.426359,-0.673134,0.121935,0.055133,0.091430
1056,3797147288,-0.379357,-0.471102,0.426458,-0.672525,0.191584,0.074745,0.117238
1057,3797180622,-0.379626,-0.471464,0.426571,-0.672048,0.184857,0.066522,0.096157
1058,3797213956,-0.379600,-0.471817,0.426762,-0.671693,0.136206,0.049833,0.113686
1059,3797247290,-0.379424,-0.472105,0.427121,-0.671363,0.108127,0.016364,0.076941
1060,3797280624,-0.379108,-0.472344,0.427537,-0.671108,0.084719,0.024904,0.093107
1061,3797313958,-0.378801,-0.472537,0.427998,-0.670851,0.047172,-0.048859,0.049959
1062,3797347292,-0.378594,-0.472787,0.428461,-0.670496,0.025839,-0.010216,0.129841
1063,3797380626,-0.378531,-0.473205,0.428724,-0.670068,0.042978,-0.080195,0.133101
1064,3797413960,-0.378358,-0.473888,0.428704,-0.669696,0.034150,-0.049500,0.074636
1065,3797447294,-0.378236,-0.474613,0.428615,-0.669309,0.074957,-0.049916,0.122107
1066,3797480628,-0.378055,-0.475535,0.428329,-0.668940,0.099749,-0.030500,0.118145
1067,3797513962,-0.377671,-0.476702,0.427849,-0.668633,0.115697,-0.005054,0.104719
1068,3797547296,-0.377092,-0.477964,0.427298,-0.668412,0.141534,-0.051292,0.070065
1069,3797580630,-0.376454,-0.479030,0.426905,-0.668258,0.130181,-0.047195,0.091115
1070,3797613964,-0.375963,-0.479785,0.426765,-0.668083,0.142567,-0.066622,0.133649
1071,3797647298,-0.375367,-0.480466,0.426601,-0.668034,0.120930,-0.080711,0.123502
1072,3797680632,-0.374691,-0.481068,0.426459,-0.668070,0.088651,-0.070121,0.113050
1073,3797713966,-0.374023,-0.481614,0.426289,-0.668160,0.113903,-0.079371,0.110861
1074,3797747300,-0.373270,-0.482223,0.425980,-0.668339,0.121880,-0.072418,0.082305
1075,3797780634,-0.372370,-0.482813,0.425525,-0.668704,0.082257,-0.050749,0.096938
1076,3797813968,-0.371612,-0.483036,0.425408,-0.669039,0.056081,-0.053266,0.087038
1077,3797847302,-0.370866,-0.483083,0.425423,-0.669411,0.084329,-0.007020,0.092400
1078,3797880636,-0.370086,-0.483129,0.425330,-0.669868,0.022687,-0.047267,0.060241
1079,3797913970,-0.369421,-0.483082,0.425393,-0.670228,0.005730,-0.009460,0.124141
1080,3797947304,-0.368954,-0.482935,0.425536,-0.670501,0.032173,-0.081154,0.117505
1081,3797980638,-0.368381,-0.482893,0.425498,-0.670870,0.004489,-0.034941,0.071034
1082,3798013972,-0.368000,-0.482684,0.425556,-0.671193,-0.005427,-0.056742,0.106209
1083,3798047306,-0.367807,-0.482330,0.425702,-0.671460,0.016748,-0.024691,0.093409
1084,3798080640,-0.367704,-0.481935,0.425915,-0.671665,-0.016604,0.010584,0.105566
1085,3798113974,-0.367572,-0.481632,0.426117,-0.671827,-0.002160,0.008159,0.107191
1086,3798147308,-0.367360,-0.481490,0.426321,-0.671915,-0.007705,0.042184,0.116876
1087,3798180642,-0.367223,-0.481441,0.426498,-0.671912,-0.027065,-0.005551,0.135055
1088,3798213976,-0.367105,-0.481552,0.426575,-0.671848,-0.042653,0.002952,0.113281
1089,3798247310,-0.367027,-0.481727,0.426654,-0.671716,-0.048720,-0.035634,0.092024
1090,3798280644,-0.367101,-0.481934,0.426729,-0.671479,-0.038367,-0.025807,0.103556
1091,3798313978,-0.367398,-0.482096,0.426835,-0.671133,-0.038750,-0.026557,0.120825
1092,3798347312,-0.367846,-0.482212,0.427047,-0.670670,0.030288,-0.008222,0.149992
1093,3798380646,-0.368213,-0.482430,0.427175,-0.670229,0.031461,-0.032792,0.099615
1094,3798413980,-0.368578,-0.482610,0.427339,-0.669794,0.046891,-0.034495,0.069767
1095,3798447314,-0.369426,-0.482136,0.428059,-0.669208,-0.075802,-0.146676,-0.279241
1096,3798480648,-0.371927,-0.479988,0.431017,-0.667466,-0.304792,0.176120,0.050542
1097,3798513982,-0.375815,-0.476222,0.436807,-0.664214,-0.243954,0.305258,-0.204897
1098,3798547316,-0.379066,-0.473260,0.443436,-0.660078,0.093363,0.601814,-0.526877
1099,3798580650,-0.380152,-0.473389,0.448428,-0.655976,0.067403,0.697241,-0.411615
1100,3798613984,-0.380254,-0.477260,0.453030,-0.649922,-0.080895,0.871668,0.061897
1101,3798647318,-0.376597,-0.486927,0.455272,-0.643280,1.155812,-0.062232,-0.253142
1102,3798680652,-0.363855,-0.503867,0.448319,-0.642451,0.572418,0.063129,0.379082
1103,3798713986,-0.351950,-0.518200,0.439979,-0.643447,-0.711218,-0.332465,0.454782
1104,3798747320,-0.348696,-0.523253,0.440094,-0.641047,-0.897529,-0.306771,0.268248
1105,3798780654,-0.354039,-0.520464,0.449827,-0.633589,-0.398978,-0.570826,0.332224
1106,3798813988,-0.359013,-0.517478,0.460900,-0.625222,0.736862,-0.689262,0.364094
1107,3798847322,-0.358186,-0.520330,0.463986,-0.621033,0.791145,-0.612334,0.410603
1108,3798880656,-0.354833,-0.526178,0.461806,-0.619654,0.354327,-0.384784,0.258607
1109,3798913990,-0.353711,-0.530272,0.460694,-0.617630,0.467309,-0.419905,0.094614
1110,3798947324,-0.354302,-0.532444,0.461151,-0.615076,0.760730,-0.419049,0.016207
1111,3798980658,-0.353730,-0.534265,0.461015,-0.613927,0.814674,-0.232061,0.238109
1112,3799013992,-0.350948,-0.536364,0.459018,-0.615188,0.462857,-0.089533,0.453639
1113,3799047326,-0.346944,-0.538536,0.455973,-0.617820,0.125631,-0.198796,0.402215
1114,3799080660,-0.343524,-0.540072,0.453553,-0.620168,-0.057954,-0.199637,0.182275
1115,3799113994,-0.342195,-0.540120,0.453319,-0.621031,-0.065910,-0.172011,-0.145917
1116,3799147328,-0.342140,-0.538952,0.455359,-0.620584,0.011326,0.239512,-0.055487
1117,3799180662,-0.341858,-0.538303,0.457064,-0.620049,0.219559,0.120558,0.290701
1118,3799213996,-0.340599,-0.539575,0.455747,-0.620606,0.277054,0.068184,0.301235
1119,3799247330,-0.339032,-0.541645,0.452751,-0.621852,0.160806,-0.222955,-0.333189
1120,3799280664,-0.338845,-0.542235,0.451534,-0.622325,-0.062519,-0.129829,-0.193741
1121,3799313998,-0.340463,-0.540869,0.452437,-0.621974,0.007116,0.244847,0.414941
1122,3799347332,-0.342890,-0.538343,0.455136,-0.620862,0.055054,0.360460,0.368788
1123,3799380666,-0.343491,-0.537034,0.457874,-0.619649,0.069920,0.325188,0.308919
1124,3799414000,-0.340655,-0.538641,0.457810,-0.619867,0.280614,0.094478,0.215038
1125,3799447334,-0.334186,-0.543948,0.452035,-0.622984,-0.343921,-0.033004,0.065064
1126,3799480668,-0.329152,-0.548032,0.445616,-0.626699,-0.369260,-0.726961,0.254184
1127,3799514002,-0.326577,-0.549199,0.441238,-0.630113,-0.525181,-0.692551,0.091403
1128,3799547336,-0.328066,-0.545586,0.444171,-0.630417,-0.916453,0.246917,-0.016578
1129,3799580670,-0.334188,-0.537208,0.455336,-0.626419,0.372178,0.493584,0.186061
1130,3799614004,-0.337565,-0.529916,0.464334,-0.624209,0.415139,-0.353382,0.492503
1131,3799647338,-0.336071,-0.525638,0.468661,-0.625398,0.703126,0.223943,0.600883
1132,3799680672,-0.333648,-0.523789,0.469346,-0.627729,0.536728,-0.084961,0.255734
1133,3799714006,-0.329423,-0.523560,0.467690,-0.631376,0.076727,-0.502044,0.378379
1134,3799747340,-0.326447,-0.522340,0.466597,-0.634733,-0.103704,0.298935,-0.072428
1135,3799780674,-0.324705,-0.520276,0.466828,-0.637148,0.139048,0.510827,-0.016593
1136,3799814008,-0.322261,-0.519875,0.465378,-0.639770,0.169468,0.484375,-0.077618
1137,3799847342,-0.320234,-0.520468,0.461984,-0.642759,0.199377,0.030237,-0.031381
1138,3799880676,-0.320224,-0.520610,0.458937,-0.644829,-0.036892,0.120820,-0.286452
1139,3799914010,-0.320448,-0.520894,0.455830,-0.646689,-0.071044,0.205830,-0.249520
1140,3799947344,-0.320450,-0.521370,0.452574,-0.648589,0.003376,0.078857,0.043458
1141,3799980678,-0.320914,-0.521316,0.449428,-0.650587,-0.316634,0.039392,-0.122624
1142,3800014012,-0.323150,-0.519352,0.448582,-0.651634,-0.162948,0.101293,-0.052095
1143,3800047346,-0.326151,-0.516261,0.449164,-0.652194,-0.203376,-0.073784,0.068123
1144,3800080680,-0.329235,-0.512890,0.450131,-0.652637,0.051545,-0.105313,0.059432
1145,3800114014,-0.332492,-0.509261,0.451439,-0.652925,-0.002473,-0.158259,-0.012820
1146,3800147348,-0.335221,-0.505110,0.452974,-0.653690,0.148852,-0.141500,0.040204
1147,3800180682,-0.336832,-0.501119,0.453495,-0.655569,0.117255,-0.194411,0.040909
1148,3800214016,-0.338247,-0.497066,0.453981,-0.657587,-0.140669,-0.199182,-0.061511
1149,3800247350,-0.340638,-0.492170,0.455956,-0.658668,-0.192275,-0.134187,0.118244
1150,3800280684,-0.343785,-0.486928,0.458935,-0.658860,0.085778,-0.205905,0.152655
1151,3800314018,-0.346271,-0.482429,0.461521,-0.659061,0.247497,-0.292248,0.196027
1152,3800347352,-0.347506,-0.479224,0.462851,-0.659817,0.240419,-0.220592,0.085229
1153,3800380686,-0.347322,-0.477630,0.462974,-0.660982,0.550654,-0.099824,0.188208
1154,3800414020,-0.344994,-0.479010,0.460043,-0.663245,0.585549,-0.131052,0.271194
1155,3800447354,-0.340093,-0.483600,0.453126,-0.667196,0.442825,-0.330207,0.309880
1156,3800480688,-0.332938,-0.490470,0.443041,-0.672541,-0.050542,-0.401030,0.204581
1157,3800514022,-0.326207,-0.496813,0.434012,-0.677056,-0.563189,-0.414792,0.066181
1158,3800547356,-0.320689,-0.501926,0.426808,-0.680492,-0.469222,-0.209925,0.164981
1159,3800580690,-0.315966,-0.506384,0.420234,-0.683483,-0.429336,-0.014377,0.122840
1160,3800614024,-0.311462,-0.510594,0.413643,-0.686433,-0.334715,0.108208,0.184820
1161,3800647358,-0.306928,-0.514906,0.406439,-0.689550,-0.308232,0.120575,0.227562
1162,3800680692,-0.302988,-0.518581,0.399979,-0.692311,-0.386393,0.060859,0.106071
1163,3800714026,-0.300118,-0.520960,0.395563,-0.694309,-0.205527,0.052027,0.050732
1164,3800747360,-0.297635,-0.522482,0.392641,-0.695891,-0.059308,-0.001434,0.027785
1165,3800780694,-0.294857,-0.523789,0.390007,-0.697571,0.020118,-0.083565,0.059789
1166,3800814028,-0.291522,-0.525288,0.386319,-0.699893,-0.278172,-0.277959,0.131455
1167,3800847362,-0.289475,-0.525607,0.383906,-0.701828,-0.540536,-0.368285,0.153389
1168,3800880696,-0.289700,-0.523888,0.384744,-0.702561,-0.257720,-0.165318,0.046366
1169,3800914030,-0.290605,-0.521095,0.387378,-0.702817,0.102379,0.148016,-0.000587
1170,3800947364,-0.290817,-0.518242,0.389998,-0.703390,0.190471,0.247825,0.028548
1171,3800980698,-0.290244,-0.515645,0.391976,-0.704435,0.132274,0.164299,0.048289
1172,3801014032,-0.289135,-0.513792,0.392999,-0.705674,0.043099,-0.117543,0.069657
1173,3801047366,-0.287904,-0.512710,0.393718,-0.706563,0.041196,-0.170289,0.073560
1174,3801080700,-0.286037,-0.512802,0.393305,-0.707484,0.111385,-0.212780,0.110416
1175,3801114034,-0.283657,-0.513697,0.391889,-0.708577,0.006020,-0.163709,0.108375
1176,3801147368,-0.281192,-0.514752,0.390478,-0.709573,0.033939,-0.034711,0.115606
1177,3801180702,-0.278556,-0.515730,0.389405,-0.710492,0.120151,0.032875,0.154358
1178,3801214036,-0.275368,-0.516680,0.388184,-0.711711,0.094834,-0.030629,0.048790
1179,3801247370,-0.271870,-0.517638,0.386296,-0.713385,-0.010217,-0.238872,0.088920
1180,3801280704,-0.268929,-0.518569,0.384150,-0.714981,-0.106201,-0.381032,0.054148
1181,3801314038,-0.267292,-0.519227,0.382627,-0.715933,0.083755,-0.327188,0.075875
1182,3801347372,-0.266188,-0.519958,0.381101,-0.716628,0.333671,-0.082026,0.042336
1183,3801380706,-0.264061,-0.521645,0.378039,-0.717809,0.458691,0.176205,0.203988
1184,3801414040,-0.259819,-0.524837,0.372199,-0.720079,0.157371,0.078920,0.251317
1185,3801447374,-0.254527,-0.528464,0.365227,-0.722880,-0.081069,-0.118030,0.209454
1186,3801480708,-0.249217,-0.531522,0.359023,-0.725591,-0.282038,-0.295443,0.224836
1187,3801514042,-0.245053,-0.533192,0.354797,-0.727860,-0.273940,-0.345013,0.181067
1188,3801547376,-0.242424,-0.533360,0.352774,-0.729598,-0.220120,-0.224130,0.043653
1189,3801580710,-0.240803,-0.532748,0.351868,-0.731018,-0.216022,-0.065892,0.076978
1190,3801614044,-0.239706,-0.531948,0.351400,-0.732186,-0.311062,0.007918,0.073796
1191,3801647378,-0.238942,-0.531081,0.351718,-0.732911,-0.369957,0.006002,0.008249
1192,3801680712,-0.238326,-0.530285,0.352535,-0.733296,-0.340403,-0.072075,0.073751
1193,3801714046,-0.237904,-0.529809,0.353009,-0.733548,-0.436409,-0.191650,-0.025273
1194,3801747380,-0.238247,-0.529716,0.353646,-0.733197,-0.351238,-0.152797,0.038552
1195,3801780714,-0.239001,-0.530192,0.353956,-0.732458,-0.308236,-0.142749,0.166636
1196,3801814048,-0.240087,-0.530861,0.354278,-0.731462,-0.237529,-0.042647,0.330604
1197,3801847382,-0.241215,-0.531347,0.354776,-0.730496,-0.248462,-0.100842,0.327756
1198,3801880716,-0.242642,-0.531217,0.356172,-0.729438,-0.190006,-0.103690,0.255747
1199,3801914050,-0.244574,-0.530320,0.358676,-0.728218,-0.145499,-0.086531,0.138039
1200,3801947384,-0.246863,-0.528839,0.361878,-0.726937,-0.020759,-0.051047,0.031351
1201,3801980718,-0.248951,-0.527471,0.364537,-0.725890,-0.156217,-0.064569,0.104761
1202,3802014052,-0.251323,-0.526276,0.366987,-0.724704,-0.068585,-0.082423,0.068083
1203,3802047386,-0.253601,-0.525656,0.368507,-0.723588,-0.103404,-0.126528,0.036966
1204,3802080720,-0.255869,-0.525483,0.369303,-0.722509,-0.188463,-0.179544,0.009097
1205,3802114054,-0.258632,-0.525227,0.370358,-0.721170,-0.089015,-0.036168,0.004632
1206,3802147388,-0.261531,-0.525168,0.371045,-0.719813,-0.194472,0.056505,0.050344
1207,3802180722,-0.264863,-0.525145,0.372033,-0.718100,-0.152421,0.070524,0.132421
1208,3802214056,-0.268371,-0.525096,0.373353,-0.716145,-0.092168,0.050634,0.164734
1209,3802247390,-0.272002,-0.524751,0.375240,-0.714039,-0.049004,-0.042305,0.221615
1210,3802280724,-0.275976,-0.523785,0.378116,-0.711702,0.110512,-0.105330,0.248119
1211,3802314058,-0.279737,-0.522734,0.380628,-0.709664,0.252788,-0.169064,0.228018
1212,3802347392,-0.283226,-0.521719,0.382513,-0.708012,0.207029,-0.189631,0.134342
1213,3802380726,-0.286773,-0.520672,0.384062,-0.706515,0.269486,-0.163467,0.165395
1214,3802414060,-0.289981,-0.519798,0.384790,-0.705453,0.213157,-0.116777,0.108904
1215,3802447394,-0.292848,-0.518993,0.385032,-0.704728,0.102399,-0.031962,0.063650
1216,3802480728,-0.295785,-0.517829,0.385631,-0.704030,0.086203,0.063048,0.057540
1217,3802514062,-0.298749,-0.516351,0.386609,-0.703327,0.000116,0.159746,0.043838
1218,3802547396,-0.301824,-0.514533,0.388195,-0.702473,-0.020481,0.159537,-0.036520
1219,3802580730,-0.304883,-0.512572,0.390179,-0.701485,0.045353,0.202554,0.010449
1220,3802614064,-0.307826,-0.510759,0.391908,-0.700558,-0.073276,0.134551,0.059101
1221,3802647398,-0.310569,-0.509177,0.393280,-0.699730,-0.068352,0.072830,0.044010
1222,3802680732,-0.313331,-0.507675,0.394460,-0.698925,-0.093900,0.026458,0.086180
1223,3802714066,-0.316443,-0.505936,0.395771,-0.698042,-0.131687,0.011866,0.121529
1224,3802747400,-0.320715,-0.503116,0.398436,-0.696613,-0.251359,-0.013111,0.113969
1225,3802780734,-0.325843,-0.499262,0.402402,-0.694724,0.102929,0.127944,0.161810
1226,3802814068,-0.330321,-0.495948,0.405468,-0.693198,0.181058,0.156670,0.141856
1227,3802847402,-0.334215,-0.493291,0.407944,-0.691774,0.156645,0.204536,0.094068
1228,3802880736,-0.337653,-0.491106,0.410180,-0.690336,0.229525,0.187732,0.061615
1229,3802914070,-0.340404,-0.489546,0.411927,-0.689051,0.323358,0.156886,0.009293
1230,3802947404,-0.342528,-0.488570,0.413128,-0.687971,0.333864,0.116676,-0.029410
1231,3802980738,-0.344242,-0.487952,0.414020,-0.687017,0.332925,0.084258,-0.033201
1232,3803014072,-0.345580,-0.487512,0.414702,-0.686246,0.371442,0.061003,0.036472
1233,3803047406,-0.346482,-0.487269,0.415075,-0.685738,0.355536,0.019375,0.078549
1234,3803080740,-0.346638,-0.487421,0.414883,-0.685668,0.311389,0.048551,0.210368
1235,3803114074,-0.345757,-0.488098,0.413800,-0.686285,0.159081,0.132727,0.391104
1236,3803147408,-0.344275,-0.488693,0.412523,-0.687374,-0.134549,0.240927,0.395618
1237,3803180742,-0.342892,-0.488356,0.412406,-0.688375,-0.229930,0.175845,0.140887
1238,3803214076,-0.342157,-0.486673,0.414112,-0.688907,-0.322450,0.135170,-0.014876
1239,3803247410,-0.342661,-0.483836,0.417421,-0.688659,-0.182433,-0.042861,-0.172536
1240,3803280744,-0.344225,-0.480877,0.420911,-0.687827,-0.117111,-0.028720,-0.226638
1241,3803314078,-0.346376,-0.478996,0.423583,-0.686417,0.073224,-0.060619,-0.148130
1242,3803347412,-0.347929,-0.479316,0.424056,-0.685116,0.206734,0.015991,-0.085591
1243,3803380746,-0.348472,-0.481468,0.422616,-0.684219,0.239446,0.034204,-0.111626
1244,3803414080,-0.348224,-0.484636,0.420472,-0.683430,0.360554,0.071856,0.044734
1245,3803447414,-0.347459,-0.488127,0.417923,-0.682898,0.394215,0.135421,0.207856
1246,3803480748,-0.346535,-0.491157,0.415852,-0.682459,0.352336,0.127498,0.344037
1247,3803514082,-0.345029,-0.493687,0.414304,-0.682338,0.585602,0.028524,0.353229
1248,3803547416,-0.342510,-0.495472,0.413123,-0.683030,0.306626,0.073603,0.011385
1249,3803580750,-0.339650,-0.496121,0.413499,-0.683758,0.361804,0.087312,0.100557
1250,3803614084,-0.335632,-0.497177,0.413471,-0.684991,0.376015,0.061909,0.114677
1251,3803647418,-0.330803,-0.499071,0.412594,-0.686491,0.241566,0.048444,0.150568
1252,3803680752,-0.325657,-0.501822,0.410658,-0.688104,0.168022,-0.080203,0.263923
1253,3803714086,-0.320425,-0.505040,0.407901,-0.689844,0.178305,-0.108564,0.318220
1254,3803747420,-0.315082,-0.508501,0.404189,-0.691943,-0.004791,-0.191734,0.235960
1255,3803780754,-0.310358,-0.511383,0.400732,-0.693963,0.003576,-0.191748,0.178534
1256,3803814088,-0.306098,-0.513944,0.397095,-0.696051,-0.066508,-0.112893,0.216351
1257,3803847422,-0.302807,-0.515962,0.394009,-0.697748,-0.007302,-0.089065,0.125957
1258,3803880756,-0.299870,-0.517818,0.390975,-0.699347,0.014001,0.008197,0.028059
1259,3803914090,-0.297041,-0.519536,0.388214,-0.700817,-0.043423,0.105890,-0.028571
1260,3803947424,-0.294289,-0.521212,0.385758,-0.702088,-0.017780,0.113170,-0.132757
1261,3803980758,-0.291824,-0.522770,0.384202,-0.702812,-0.087605,0.278683,-0.175505
1262,3804014092,-0.289072,-0.524928,0.383011,-0.702991,0.182536,0.179680,0.123927
1263,3804047426,-0.284895,-0.528434,0.380408,-0.703483,0.227801,0.130278,0.243159
1264,3804080760,-0.279932,-0.532318,0.377015,-0.704372,0.145955,-0.034262,0.244076
1265,3804114094,-0.275228,-0.535510,0.374110,-0.705355,0.193311,-0.175171,0.292323
1266,3804147428,-0.270519,-0.538200,0.370843,-0.706853,0.225670,-0.273135,0.204216
1267,3804180762,-0.266197,-0.540101,0.367539,-0.708766,0.258223,-0.262947,0.111050
1268,3804214096,-0.262751,-0.541002,0.364717,-0.710820,0.188944,-0.196252,0.109834
1269,3804247430,-0.259776,-0.541154,0.362392,-0.712984,0.205012,-0.016465,0.146211
1270,3804280764,-0.256413,-0.541276,0.360024,-0.715304,0.129046,0.130005,0.172906
1271,3804314098,-0.252278,-0.541790,0.357329,-0.717733,0.080118,0.223250,0.198532
1272,3804347432,-0.247243,-0.542827,0.354076,-0.720309,-0.018933,0.236473,0.158386
1273,3804380766,-0.241859,-0.544094,0.350802,-0.722779,-0.067514,0.183069,0.054116
1274,3804414100,-0.236335,-0.545467,0.347492,-0.725166,-0.075410,0.160509,-0.045637
1275,3804447434,-0.231088,-0.546637,0.344329,-0.727482,-0.304098,0.119458,-0.038198
1276,3804480768,-0.226661,-0.547312,0.342418,-0.729266,-0.381216,0.091704,-0.021546
1277,3804514102,-0.222249,-0.548254,0.340964,-0.730597,-0.302933,0.068998,0.135346
1278,3804547436,-0.217131,-0.550076,0.338433,-0.731942,-0.318728,-0.056451,0.144776
1279,3804580770,-0.212369,-0.552146,0.335529,-0.733117,-0.366126,-0.165871,0.104723
1280,3804614104,-0.208661,-0.553899,0.332875,-0.734068,-0.288768,-0.192409,0.167008
1281,3804647438,-0.205948,-0.555082,0.330491,-0.735017,-0.251530,-0.216579,0.113047
1282,3804680772,-0.204182,-0.555402,0.328932,-0.735967,-0.290732,-0.142040,0.095309
1283,3804714106,-0.203357,-0.554907,0.328525,-0.736750,-0.292898,-0.037889,0.268587
1284,3804747440,-0.202773,-0.554398,0.328158,-0.737457,-0.059170,0.005978,0.484314
1285,3804780774,-0.201321,-0.554427,0.325705,-0.738919,-0.057759,-0.003484,0.326924
1286,3804814108,-0.200292,-0.553719,0.323344,-0.740764,-0.300592,-0.137446,0.328537
1287,3804847442,-0.200176,-0.551552,0.322636,-0.742719,-0.245898,-0.108057,0.167903
1288,3804880776,-0.200878,-0.547950,0.323449,-0.744839,-0.516059,-0.117545,-0.044738
1289,3804914110,-0.203658,-0.542659,0.327366,-0.746245,-0.671543,-0.056328,-0.115638
1290,3804947444,-0.207795,-0.537000,0.332582,-0.746891,-0.547695,0.001003,0.086071
1291,3804980778,-0.212177,-0.531513,0.337282,-0.747476,-0.911312,-0.000621,-0.192774
1292,3805014112,-0.218118,-0.525258,0.344392,-0.746946,-1.119103,-0.054299,-0.166276
1293,3805047446,-0.225227,-0.519065,0.353189,-0.745055,-0.870863,0.110462,-0.089680
1294,3805080780,-0.232332,-0.514677,0.360362,-0.742479,-0.780866,0.067233,-0.053489
1295,3805114114,-0.239758,-0.512732,0.365333,-0.739026,-0.639701,0.029677,0.018068
1296,3805147448,-0.247579,-0.513155,0.367846,-0.734895,-0.385984,-0.072386,0.093907
1297,3805180782,-0.255532,-0.515316,0.367822,-0.730660,-0.173128,-0.170815,0.025795
1298,3805214116,-0.264236,-0.517480,0.367182,-0.726344,-0.056402,-0.256846,0.226995
1299,3805247450,-0.273974,-0.517827,0.367775,-0.722177,0.061049,-0.190331,0.469934
1300,3805280784,-0.284923,-0.515100,0.370777,-0.718345,-0.003236,-0.109573,0.431525
1301,3805314118,-0.297271,-0.508660,0.377681,-0.714323,-0.033979,0.074674,0.353910
1302,3805347452,-0.309794,-0.499832,0.387131,-0.710163,0.251268,0.202488,0.204446
1303,3805380786,-0.320867,-0.490887,0.396141,-0.706507,0.307697,0.287112,-0.075732
1304,3805414120,-0.330342,-0.483062,0.403859,-0.703156,0.246919,0.331811,-0.150900
1305,3805447454,-0.338566,-0.476852,0.410335,-0.699725,0.203070,0.327520,-0.130012
1306,3805480788,-0.345513,-0.472537,0.415454,-0.696227,0.147120,0.251128,-0.084656
1307,3805514122,-0.351397,-0.469837,0.419416,-0.692726,0.073960,0.170004,0.017966
1308,3805547456,-0.356558,-0.468063,0.422683,-0.689295,0.077064,0.033390,0.084102
1309,3805580790,-0.361439,-0.466678,0.425545,-0.685922,0.039383,-0.055750,0.130416
1310,3805614124,-0.366688,-0.464909,0.428603,-0.682425,0.014889,-0.143533,0.119931
1311,3805647458,-0.372800,-0.462180,0.432260,-0.678650,0.090244,-0.158267,0.111320
1312,3805680792,-0.379857,-0.458282,0.436402,-0.674718,0.088944,-0.051787,0.280536
1313,3805714126,-0.387607,-0.453179,0.441033,-0.670734,0.160692,0.002954,0.157747
1314,3805747460,-0.395451,-0.447222,0.446020,-0.666845,0.164542,0.141417,0.055932
1315,3805780794,-0.403050,-0.440897,0.451207,-0.663007,0.165409,0.218582,0.021617
1316,3805814128,-0.410251,-0.434829,0.456301,-0.659100,0.131046,0.274172,0.062952
1317,3805847462,-0.417038,-0.429496,0.461034,-0.655031,0.125169,0.302051,0.126576
1318,3805880796,-0.423427,-0.425017,0.465220,-0.650881,0.120713,0.164999,0.024793
1319,3805914130,-0.429795,-0.420738,0.469127,-0.646669,0.029532,0.092571,0.040318
1320,3805947464,-0.436734,-0.415504,0.473538,-0.642174,-0.059368,0.035149,0.106604
1321,3805980798,-0.444577,-0.408757,0.478858,-0.637157,-0.090011,0.034872,0.087115
1322,3806014132,-0.453168,-0.400943,0.484739,-0.631599,0.004962,0.042799,0.091207
1323,3806047466,-0.462019,-0.393296,0.490350,-0.625634,0.055252,0.024234,0.162044
1324,3806080800,-0.470803,-0.386478,0.495404,-0.619322,0.197010,0.008517,0.085374
1325,3806114134,-0.478992,-0.381110,0.499497,-0.613050,0.180668,0.011893,0.037808
1326,3806147468,-0.486568,-0.376906,0.503066,-0.606731,0.480261,-0.067891,0.004760
1327,3806180802,-0.493007,-0.374426,0.505336,-0.601157,0.660260,-0.114822,0.074116
1328,3806214136,-0.498035,-0.373997,0.505746,-0.596919,0.456474,-0.204624,0.147792
1329,3806247470,-0.502209,-0.373680,0.506406,-0.593049,0.558960,-0.272656,0.127709
1330,3806280804,-0.505215,-0.373259,0.507316,-0.589975,0.622653,-0.124158,0.193724
1331,3806314138,-0.506953,-0.372663,0.508145,-0.588146,0.563748,-0.128746,0.086559
1332,3806347472,-0.507904,-0.371363,0.509480,-0.586991,0.439003,-0.109580,0.065334
1333,3806380806,-0.508273,-0.369581,0.511227,-0.586277,0.370239,-0.156133,0.131280
1334,3806414140,-0.508051,-0.368006,0.512683,-0.586189,0.204512,-0.201206,0.259667
1335,3806447474,-0.507649,-0.366476,0.513862,-0.586463,0.023751,-0.200864,0.210372
1336,3806480808,-0.507548,-0.364590,0.515076,-0.586661,-0.109108,-0.219314,0.128823
1337,3806514142,-0.508077,-0.362381,0.516349,-0.586454,-0.167942,-0.262254,0.124658
1338,3806547476,-0.509464,-0.360513,0.517474,-0.585408,-0.236771,-0.380893,-0.028656
1339,3806580810,-0.511484,-0.358093,0.519235,-0.583569,-0.165570,0.017634,-0.043560
1340,3806614144,-0.512782,-0.357808,0.519472,-0.582393,0.376477,0.008765,-0.173685
1341,3806647478,-0.513583,-0.358956,0.518940,-0.581455,0.222593,-0.129096,0.018454
1342,3806680812,-0.514080,-0.360877,0.518539,-0.580183,0.443298,-0.179718,0.012479
1343,3806714146,-0.513212,-0.364278,0.517422,-0.579822,0.605649,-0.173039,0.063607
1344,3806747480,-0.511065,-0.368483,0.515685,-0.580608,0.559667,-0.196034,0.107679
1345,3806780814,-0.508390,-0.372093,0.514114,-0.582047,0.504186,-0.307853,0.161813
1346,3806814148,-0.505392,-0.374677,0.512932,-0.584039,0.513323,-0.464943,0.169908
1347,3806847482,-0.501899,-0.376751,0.511507,-0.586959,0.463464,-0.476096,0.192554
1348,3806880816,-0.498352,-0.377834,0.509973,-0.590610,0.250382,-0.294317,0.032241
1349,3806914150,-0.495141,-0.377274,0.509280,-0.594254,0.177265,-0.125725,-0.011706
1350,3806947484,-0.491951,-0.375712,0.509462,-0.597728,0.130334,0.058340,0.070594
1351,3806980818,-0.488118,-0.374811,0.509612,-0.601297,0.105809,0.099138,0.077714
1352,3807014152,-0.483539,-0.375539,0.509366,-0.604741,0.101704,0.172924,-0.003307
1353,3807047486,-0.478154,-0.378640,0.508354,-0.607932,0.085036,0.161882,0.011518
1354,3807080820,-0.471763,-0.384715,0.506079,-0.611002,0.125149,0.053411,0.113027
1355,3807114154,-0.464500,-0.393604,0.502137,-0.614150,0.140458,-0.052275,0.070381
1356,3807147488,-0.456896,-0.404149,0.496969,-0.617201,0.157123,-0.192445,0.230145
1357,3807180822,-0.449255,-0.415235,0.490802,-0.620377,0.215841,-0.372977,0.286438
1358,3807214156,-0.441651,-0.425831,0.483870,-0.624089,0.259776,-0.427165,0.256507
1359,3807247490,-0.434724,-0.434524,0.477181,-0.628098,0.208192,-0.308541,0.282395
1360,3807280824,-0.428739,-0.440642,0.471629,-0.632130,0.330349,-0.272135,0.342380
1361,3807314158,-0.422961,-0.444975,0.466794,-0.636561,0.361511,-0.101120,0.245961
1362,3807347492,-0.416971,-0.448220,0.462383,-0.641437,0.342547,0.020175,0.125593
1363,3807380826,-0.410540,-0.450954,0.458270,-0.646599,0.277414,0.134133,0.089688
1364,3807414160,-0.403643,-0.453564,0.454333,-0.651873,0.183292,0.186776,-0.014304
1365,3807447494,-0.396343,-0.456320,0.450522,-0.657054,0.013696,0.292398,0.060303
1366,3807480828,-0.388923,-0.459218,0.446954,-0.661887,-0.064315,0.199382,-0.022665
1367,3807514162,-0.381306,-0.462526,0.443430,-0.666371,-0.170700,0.181960,-0.009562
1368,3807547496,-0.373624,-0.466284,0.439820,-0.670483,-0.247286,0.068833,0.001432
1369,3807580830,-0.366102,-0.470514,0.435873,-0.674245,-0.258176,-0.012715,0.033277
1370,3807614164,-0.359100,-0.475083,0.431479,-0.677624,-0.320180,-0.073564,0.078758
1371,3807647498,-0.353177,-0.479315,0.427350,-0.680367,-0.286593,-0.110036,0.040928
1372,3807680832,-0.348409,-0.483065,0.423701,-0.682453,-0.174900,-0.144923,0.055786
1373,3807714166,-0.344339,-0.486659,0.420046,-0.684222,-0.018822,-0.115539,0.058124
1374,3807747500,-0.340510,-0.490240,0.416109,-0.685985,0.053439,-0.052517,0.054508
1375,3807780834,-0.336794,-0.493589,0.412193,-0.687780,0.102794,-0.008896,0.119843
1376,3807814168,-0.332980,-0.496640,0.408435,-0.689681,0.116350,0.064677,0.165524
1377,3807847502,-0.328972,-0.499161,0.405182,-0.691699,0.074637,0.099542,0.159168
1378,3807880836,-0.324785,-0.500924,0.402775,-0.693806,0.033542,0.090970,0.165217
1379,3807914170,-0.320524,-0.501979,0.401188,-0.695942,-0.030224,0.042700,0.125232
1380,3807947504,-0.316350,-0.502507,0.400163,-0.698057,-0.104706,0.027426,0.155940
1381,3807980838,-0.312417,-0.502784,0.399404,-0.700061,-0.120927,-0.047654,0.083701
1382,3808014172,-0.308808,-0.503192,0.398514,-0.701874,-0.207587,-0.043736,0.147166
1383,3808047506,-0.305711,-0.503862,0.397349,-0.703408,-0.176161,-0.128124,0.062618
1384,3808080840,-0.302998,-0.504889,0.395697,-0.704776,-0.164439,-0.126737,0.050228
1385,3808114174,-0.300917,-0.505885,0.393906,-0.705955,-0.158470,-0.128030,0.066633
1386,3808147508,-0.299545,-0.506650,0.392327,-0.706868,-0.092200,-0.089878,0.119165
1387,3808180842,-0.298668,-0.507073,0.390959,-0.707694,-0.054888,-0.013721,0.117603
1388,3808214176,-0.298200,-0.506960,0.390152,-0.708418,0.002182,-0.005491,0.070158
1389,3808247510,-0.297760,-0.506420,0.389845,-0.709157,0.045910,0.082806,0.137469
1390,3808280844,-0.297136,-0.505675,0.389673,-0.710045,0.030027,0.104470,0.145354
1391,3808314178,-0.296383,-0.504732,0.389774,-0.710974,0.002361,0.097697,0.107800
1392,3808347512,-0.295375,-0.503702,0.390050,-0.711972,-0.056782,0.085658,0.111686
1393,3808380846,-0.294131,-0.502800,0.390205,-0.713039,-0.131110,0.065762,0.156844
1394,3808414180,-0.292824,-0.502161,0.390168,-0.714047,-0.206491,0.033644,0.134111
1395,3808447514,-0.291696,-0.501800,0.389945,-0.714883,-0.207505,-0.028681,0.095207
1396,3808480848,-0.290880,-0.501706,0.389461,-0.715545,-0.206711,-0.069003,0.060736
1397,3808514182,-0.290519,-0.501676,0.388886,-0.716025,-0.203083,-0.093297,0.065855
1398,3808547516,-0.290749,-0.501472,0.388493,-0.716289,-0.157306,-0.092408,0.070344
1399,3808580850,-0.291409,-0.501074,0.388297,-0.716405,-0.116885,-0.016432,0.080202
1400,3808614184,-0.292471,-0.500514,0.388343,-0.716339,-0.071909,0.044204,0.171878
1401,3808647518,-0.293589,-0.500027,0.388431,-0.716175,-0.021282,0.116176,0.140816
1402,3808680852,-0.294546,-0.499673,0.388571,-0.715952,-0.008794,0.106659,0.063569
1403,3808714186,-0.295136,-0.499503,0.388801,-0.715703,0.039547,0.133531,0.027734
1404,3808747520,-0.295183,-0.499668,0.388887,-0.715522,0.062752,0.124553,0.045118
1405,3808780854,-0.294703,-0.500295,0.388668,-0.715400,0.060939,0.136526,0.073464
1406,3808814188,-0.293833,-0.501257,0.388257,-0.715308,0.026146,0.097946,0.062516
1407,3808847522,-0.292899,-0.502218,0.387894,-0.715213,0.012189,0.032774,0.077050
1408,3808880856,-0.292032,-0.502979,0.387710,-0.715133,0.004607,-0.016064,0.108015
1409,3808914190,-0.291357,-0.503444,0.387724,-0.715074,-0.037701,-0.048518,0.159554
1410,3808947524,-0.290977,-0.503648,0.387852,-0.715016,-0.056922,-0.090285,0.181437
1411,3808980858,-0.290906,-0.503672,0.387987,-0.714954,-0.062637,-0.059909,0.126845
1412,3809014192,-0.291090,-0.503644,0.388058,-0.714861,-0.025284,-0.032935,0.153090
1413,3809047526,-0.291371,-0.503739,0.387852,-0.714790,-0.017303,0.018918,0.129004
1414,3809080860,-0.291721,-0.503829,0.387700,-0.714667,-0.001229,0.032851,0.076692
1415,3809114194,-0.292049,-0.503956,0.387638,-0.714477,0.022109,0.087987,0.116009
1416,3809147528,-0.292147,-0.504265,0.387447,-0.714323,0.031118,0.122966,0.084023
1417,3809180862,-0.292118,-0.504647,0.387319,-0.714134,-0.053486,0.145378,0.186623
1418,3809214196,-0.292026,-0.505070,0.387247,-0.713912,0.019925,0.098648,0.124729
1419,3809247530,-0.291741,-0.505532,0.387122,-0.713769,-0.076426,0.077786,0.070836
1420,3809280864,-0.291705,-0.505767,0.387364,-0.713486,-0.079599,0.048921,0.091491
1421,3809314198,-0.291926,-0.505865,0.387778,-0.713101,-0.075450,0.046467,0.106042
1422,3809347532,-0.292322,-0.505936,0.388160,-0.712681,-0.078365,0.050087,0.124189
1423,3809380866,-0.292996,-0.505909,0.388655,-0.712153,-0.010693,-0.007136,0.103127
1424,3809414200,-0.293671,-0.506048,0.388917,-0.711633,0.052463,0.025136,0.142482
1425,3809447534,-0.294093,-0.506542,0.388583,-0.711290,0.097739,0.005371,0.047551
1426,3809480868,-0.294385,-0.507206,0.388000,-0.711013,0.120460,0.032067,0.040903
1427,3809514202,-0.294645,-0.507776,0.387460,-0.710794,0.137971,0.074568,0.038709
1428,3809547536,-0.294751,-0.508322,0.387009,-0.710606,0.169296,0.105458,0.083295
1429,3809580870,-0.294461,-0.508895,0.386574,-0.710552,0.157740,0.108069,0.139778
1430,3809614204,-0.293756,-0.509400,0.386287,-0.710638,0.100276,0.061923,0.163435
1431,3809647538,-0.292682,-0.509802,0.386167,-0.710858,0.097302,0.011473,0.118320
1432,3809680872,-0.291385,-0.510151,0.386084,-0.711185,0.024049,-0.051822,0.115417
1433,3809714206,-0.290221,-0.510390,0.386082,-0.711491,-0.007634,-0.095652,0.096319
1434,3809747540,-0.289155,-0.510672,0.385982,-0.711777,-0.024922,-0.094849,0.057910
1435,3809780874,-0.288185,-0.511167,0.385626,-0.712008,-0.059821,-0.069905,0.178190
1436,3809814208,-0.287051,-0.512088,0.384775,-0.712265,-0.020857,-0.046358,0.102242
1437,3809847542,-0.285817,-0.513251,0.383630,-0.712542,-0.060646,-0.066161,0.101946
1438,3809880876,-0.284683,-0.514394,0.382577,-0.712738,-0.012690,-0.069316,0.071726
1439,3809914210,-0.283600,-0.515498,0.381509,-0.712944,0.018162,-0.031174,0.106587
1440,3809947544,-0.282520,-0.516545,0.380441,-0.713185,0.027137,-0.004864,0.138692
1441,3809980878,-0.281342,-0.517522,0.379403,-0.713495,0.027345,-0.007296,0.121530
1442,3810014212,-0.280055,-0.518375,0.378452,-0.713887,-0.002547,-0.012584,0.134219
1443,3810047546,-0.278781,-0.519049,0.377709,-0.714290,-0.026932,-0.032674,0.107591
1444,3810080880,-0.277679,-0.519516,0.377198,-0.714650,-0.037427,-0.044197,0.071202
1445,3810114214,-0.276786,-0.519854,0.376756,-0.714983,-0.040860,-0.041116,0.102099
1446,3810147548,-0.276000,-0.520191,0.376216,-0.715326,-0.061098,-0.036750,0.093970
1447,3810180882,-0.275379,-0.520460,0.375766,-0.715606,-0.053905,-0.049630,0.085680
1448,3810214216,-0.274862,-0.520655,0.375390,-0.715861,-0.039416,-0.035682,0.047037
1449,3810247550,-0.274499,-0.520749,0.375111,-0.716078,-0.030776,-0.010016,0.067918
1450,3810280884,-0.274289,-0.520760,0.374985,-0.716217,-0.008092,0.029168,0.116536
1451,3810314218,-0.274014,-0.520749,0.374946,-0.716350,0.020851,0.012859,0.107511
1452,3810347552,-0.273618,-0.520733,0.374970,-0.716501,-0.000980,0.043125,0.146890
1453,3810380886,-0.273199,-0.520761,0.374977,-0.716636,0.060177,-0.008046,0.119756
1454,3810414220,-0.272540,-0.520958,0.374708,-0.716885,0.046374,-0.005486,0.090487
1455,3810447554,-0.271987,-0.521028,0.374638,-0.717081,0.025150,-0.011469,0.099018
