PacketCounter,SampleTimeFine,Forearm_Acc_X,Forearm_Acc_Y,Forearm_Acc_Z,Forearm_Gyr_X,Forearm_Gyr_Y,Forearm_Gyr_Z,Upper_Arm_Acc_X,Upper_Arm_Acc_Y,Upper_Arm_Acc_Z,Upper_Arm_Gyr_X,Upper_Arm_Gyr_Y,Upper_Arm_Gyr_Z,Activity
0,1413365736,0.0,0.0,0.0,0.0,0.0,0.0,0.0,0.0,0.0,0.0,0.0,0.0,0
1,1413399070,9.13141918182373,-3.84379649162292,1.31915736198425,-0.78446590900421,2.14230418205261,3.32940173149109,10.03268051147461,0.69690680503845,-0.03694499284029,3.17572903633118,2.22624707221985,1.99390125274658,0
2,1413432404,9.15522003173828,-3.88897347450256,1.32954919338226,-0.46880209445953,2.51653432846069,3.16432452201843,10.0522575378418,0.71224665641785,-0.0336550027132,3.55799841880798,2.55211091041565,1.15245950222015,0
3,1413465738,9.13145542144775,-3.85829639434814,1.29982340335846,1.01586067676544,2.4515745639801,2.78166460990906,9.96845245361328,0.72680711746216,-0.0150289889425,3.58952140808105,2.47901821136475,0.4074245095253,0
4,1413499072,9.0350170135498,-3.77563142776489,1.25046265125275,0.12845090031624,2.49057579040527,2.55231523513794,9.93152809143066,0.68987095355988,-0.03688597679138,3.3040292263031,2.43238425254822,-0.06937201321125,0
5,1413532406,9.0280590057373,-3.83157348632812,1.25307929515839,0.15697704255581,2.23227190971375,1.90179109573364,9.97727584838867,0.66901230812073,-0.04323027655482,3.5746214389801,1.95240211486816,-0.49346718192101,0
6,1413565740,9.05190277099609,-3.84351396560669,1.23795914649963,1.40148532390594,1.49505484104156,0.60141497850418,9.98451709747314,0.70517981052399,-0.0336269326508,2.83749389648438,1.77100002765656,-0.79569071531296,0
7,1413599074,9.04694747924805,-3.78832125663757,1.19353103637695,0.82582712173462,0.98548382520676,-0.54244500398636,9.96045017242432,0.71028566360474,-0.03408025577664,1.70182001590729,1.18574321269989,-1.01269423961639,0
8,1413632408,9.03855323791504,-3.8324282169342,1.19460260868073,-0.48205026984215,0.41130477190018,-1.40250039100647,9.98016262054443,0.70304661989212,-0.03645296767354,1.23123466968536,0.58038383722305,-1.33722984790802,0
9,1413665742,9.05515193939209,-3.87565326690674,1.20709991455078,0.25154554843903,-0.52545094490051,-2.16496467590332,9.95533084869385,0.71834743022919,-0.04292467609048,1.43049824237823,0.01189389824867,-1.93950271606445,0
10,1413699076,9.02903747558594,-3.83832597732544,1.19894564151764,1.00370109081268,-1.42140913009644,-2.70327997207642,9.93157291412354,0.71697640419006,-0.04701779037714,1.45626771450043,-0.59427237510681,-2.15442514419556,0
11,1413732410,9.00936794281006,-3.83940720558167,1.18844163417816,0.71532118320465,-2.02509379386902,-2.84276700019836,9.92936515808105,0.72405391931534,-0.06423873454332,1.18314039707184,-1.08522939682007,-2.27755188941956,0
12,1413765744,9.01753425598145,-3.87777709960938,1.21362006664276,0.6546191573143,-2.45926785469055,-3.0466890335083,9.93836498260498,0.74227023124695,-0.06660962104797,-0.41214680671692,-1.38199746608734,-2.18846464157104,0
13,1413799078,9.01900672912598,-3.86070394515991,1.22919833660126,0.83999103307724,-2.87419986724854,-3.21139121055603,9.89845561981201,0.72834068536758,-0.06408007442951,-0.70946222543716,-1.43146502971649,-2.21962547302246,0
14,1413832412,9.00266075134277,-3.8451886177063,1.23784863948822,0.05712914466858,-2.91634941101074,-2.89212608337402,10.00342464447021,0.732337474823,-0.03527873009443,-0.48124349117279,-1.71389305591583,-2.06626009941101,0
15,1413865746,9.10634899139404,-3.9324426651001,1.28865230083466,0.53486043214798,-3.15528011322021,-2.73303532600403,10.02636814117432,0.7948459982872,-0.03149659186602,-0.64695763587952,-1.68648743629456,-2.15402173995972,0
16,1413899080,9.11439800262451,-3.86326694488525,1.31105101108551,0.99848240613937,-3.29209065437317,-2.70694899559021,9.99239063262939,0.79471397399902,-0.02261812984943,-1.70279002189636,-1.57155692577362,-1.96378338336945,0
17,1413932414,9.07438659667969,-3.84331727027893,1.34683167934418,0.33613789081573,-3.10482954978943,-2.13424897193909,9.98348903656006,0.75005346536636,-0.01184262149036,-1.32648193836212,-1.27699828147888,-2.39376974105835,0
18,1413965748,9.07654094696045,-3.89764451980591,1.42015910148621,2.14762187004089,-3.12293148040771,-1.88573515415192,10.07354831695557,0.79890263080597,0.01996270567179,-0.51540440320969,-0.77753758430481,-2.11722302436829,0
19,1413999082,9.18771934509277,-3.8683762550354,1.45734524726868,3.97831583023071,-2.97227144241333,-2.13985848426819,10.16713809967041,0.81163901090622,-0.02475442178547,-1.38369405269623,0.53716552257538,-1.61614203453064,0
20,1414032416,9.25687026977539,-3.83082485198975,1.48839867115021,2.98805785179138,-1.9373642206192,-2.43099141120911,9.9977331161499,0.76293241977692,-0.10571054369211,-0.94715774059296,1.6155948638916,-1.19132351875305,0
21,1414065750,9.10200214385986,-3.80813527107239,1.49178612232208,1.44699263572693,0.39776203036308,-2.29637718200684,9.83924961090088,0.65857589244843,-0.08118287473917,-1.24490535259247,1.96698844432831,-1.25971591472626,0
22,1414099084,8.93533229827881,-3.81590700149536,1.47198450565338,0.6424018740654,2.90913271903992,-2.25760626792908,9.9094409942627,0.65826457738876,-0.04742456972599,-2.29950857162476,3.29285526275635,-0.60864102840424,0
23,1414132418,9.01505565643311,-3.83383941650391,1.45157814025879,-0.85346043109894,4.67199897766113,-2.6877977848053,10.05167388916016,0.71237528324127,-0.08914528787136,-1.61978626251221,5.66647672653198,-0.8366904258728,0
24,1414165752,9.16520881652832,-3.87118577957153,1.34786307811737,-3.19995713233948,6.13697052001953,-2.35647249221802,9.96987438201904,0.87265002727509,-0.06778430193663,-0.48659035563469,5.85695838928223,-1.31734502315521,0
25,1414199086,9.12351512908936,-3.82752728462219,1.23062825202942,-4.47704553604126,7.20976686477661,-0.54238140583038,9.88219833374023,0.97307485342026,-0.0484221726656,-0.42987087368965,4.96614694595337,-1.10676991939545,0
26,1414232420,9.02710247039795,-3.81922268867493,1.2382230758667,-3.71786618232727,7.0690770149231,1.81670737266541,9.91558074951172,0.84573835134506,0.03729402273893,1.18664610385895,4.17219734191895,-0.65845775604248,0
27,1414265754,9.02257347106934,-3.83109617233276,1.22179627418518,-0.70972192287445,5.28803014755249,3.08832693099976,9.91681957244873,0.78213030099869,0.02511479333043,4.95932197570801,3.70917820930481,-1.07768678665161,0
28,1414299088,9.0007963180542,-3.79680347442627,1.18131816387177,2.11783456802368,3.28855919837952,3.24416613578796,9.84570693969727,0.91756230592728,-0.04009234905243,5.09040832519531,2.98846244812012,-0.53271877765656,0
29,1414332422,8.98315238952637,-3.68029737472534,1.15272104740143,2.48273825645447,2.01458954811096,2.69491386413574,9.81433296203613,0.91888910531998,-0.02044786885381,1.59341108798981,1.7869918346405,0.25568524003029,0
30,1414365756,8.95305156707764,-3.63637566566467,1.16937875747681,-0.13946114480495,1.28693890571594,2.19994854927063,9.7768030166626,0.87781065702438,-0.01588147133589,0.44795006513596,1.06226420402527,0.53484117984772,0
31,1414399090,8.93696022033691,-3.65678191184998,1.21428108215332,-1.07652103900909,0.46002653241158,1.49312770366669,9.78601360321045,0.90938705205917,0.03027382493019,-1.42916309833527,0.02735756337643,0.79547601938248,0
32,1414432424,8.93119430541992,-3.67019248008728,1.25414991378784,-0.97052925825119,-0.74694317579269,0.88688141107559,9.85333824157715,0.88181120157242,0.10780025273561,-5.33338594436646,-1.04557490348816,0.27045741677284,0
33,1414465758,8.96645832061768,-3.67411780357361,1.3242906332016,-0.46099662780762,-2.24158525466919,-0.10684979707003,9.88220119476318,0.7507364153862,0.13089348375797,-4.24560737609863,-1.62600994110107,-0.03105540573597,0
34,1414499092,9.00402545928955,-3.70895624160767,1.34468877315521,-0.80219620466232,-3.3958215713501,-1.14551532268524,9.98539352416992,0.77835357189178,0.18016482889652,-0.6702139377594,-2.29868865013123,0.0913444980979,0
35,1414532426,9.096022605896,-3.8075749874115,1.4464967250824,0.55879563093185,-4.65144681930542,-2.35649061203003,10.03941631317139,0.9156391620636,0.1057435721159,-0.49709764122963,-2.08466243743896,-0.26917666196823,0
36,1414565760,9.1236686706543,-3.74837017059326,1.51870465278625,1.67070138454437,-5.24334526062012,-3.28356266021729,10.03788661956787,0.98096936941147,0.04989905655384,-2.30568099021912,-0.86004257202148,-2.88624429702759,0
37,1414599094,9.21405506134033,-3.70116138458252,1.63910460472107,3.97638368606567,-5.21276426315308,-2.33788394927979,9.87761974334717,0.95696514844894,0.16780681908131,-2.08604097366333,-1.0595406293869,-7.62269258499146,0
38,1414632428,9.18054580688477,-3.58116626739502,1.65620040893555,7.88644981384277,-3.80916285514832,-1.10919749736786,9.94826698303223,1.19069600105286,0.10382521897554,-0.94986641407013,-1.11632335186005,-5.06662845611572,0
39,1414665762,9.245285987854,-3.35848784446716,1.6813337802887,0.6155788898468,-0.32654914259911,-1.23575520515442,10.03113555908203,0.97279006242752,0.13461203873158,-5.38797473907471,0.03045032173395,-4.46274757385254,0
40,1414699096,9.18880367279053,-3.57616519927979,1.7550253868103,-6.42749309539795,2.63615417480469,-2.9991409778595,9.94282054901123,0.80716186761856,0.16123560070992,-5.28827619552612,1.59001481533051,-4.04427289962769,0
41,1414732430,9.04658317565918,-3.71347332000732,1.70456409454346,-6.23130750656128,3.81833577156067,-5.41683578491211,9.88500690460205,0.93910771608353,0.17036348581314,-3.83549070358276,2.58940958976746,-3.18723917007446,0
42,1414765764,9.00118732452393,-3.72243022918701,1.6162748336792,-3.29514789581299,4.3115348815918,-7.33230304718018,9.91616725921631,0.94690871238708,0.14542239904404,-2.67597055435181,3.44156312942505,-1.85816967487335,0
43,1414799098,9.04537487030029,-3.68173265457153,1.50632202625275,-5.80399465560913,4.88662004470825,-7.57946348190308,9.96848487854004,0.92074143886566,0.10939904302359,-0.44724902510643,4.22666263580322,-1.22788572311401,0
44,1414832432,9.10921859741211,-3.81255269050598,1.42689895629883,-7.78911876678467,5.25258255004883,-6.6883020401001,9.95839023590088,1.06074357032776,0.05709227919579,-0.41761517524719,3.9530553817749,-1.6895614862442,0
45,1414865766,9.11383247375488,-3.85461282730103,1.36075437068939,-5.47229290008545,4.835045337677,-4.66490888595581,9.90287685394287,1.09866583347321,0.06722946465015,-2.05782699584961,2.99410915374756,-2.0889208316803,0
46,1414899100,9.035080909729,-3.81874346733093,1.30834543704987,-3.34356641769409,4.08024835586548,-1.86322844028473,9.87774658203125,0.97808086872101,0.08406445384026,-2.4461669921875,2.42596817016602,-1.68977904319763,0
47,1414932434,8.96886348724365,-3.8165545463562,1.27400207519531,-2.36604404449463,3.00023031234741,0.05211224779487,9.84075927734375,0.80626046657562,0.05685943365097,0.11476089060307,2.38691473007202,-0.48678213357925,0
48,1414965768,8.93583297729492,-3.81423878669739,1.2205867767334,-2.1167938709259,1.95178723335266,0.8978436589241,9.878830909729,0.84684729576111,0.06399050354958,1.63336992263794,1.6794216632843,0.71632641553879,0
49,1414999102,8.98185348510742,-3.83697986602783,1.17468392848969,-2.43759942054749,1.04550087451935,1.00263166427612,9.94966411590576,1.05642127990723,0.1163671463728,-2.40458464622498,-0.25211864709854,2.89647340774536,0
50,1415032436,9.08169746398926,-3.75803709030151,1.17944025993347,-5.25097036361694,-0.06581826508045,1.77140378952026,9.96356582641602,0.99265837669373,0.16596128046513,-6.58051633834839,-1.96336221694946,2.90687394142151,0
51,1415065770,9.02544021606445,-3.85519528388977,1.29293322563171,-5.4915714263916,-2.0404372215271,3.08395385742188,9.88982772827148,0.70281273126602,0.26393267512321,-2.29299640655518,-2.9789559841156,0.8892570734024,0
52,1415099104,8.99653148651123,-3.82863616943359,1.36077678203583,0.07618180662394,-4.68480825424194,3.80718517303467,9.83897876739502,0.83007127046585,0.22530147433281,6.45252561569214,-3.84002494812012,0.45317542552948,0
53,1415132438,8.92501926422119,-3.70489382743835,1.42539167404175,2.90296816825867,-6.21239757537842,3.71438550949097,9.78528022766113,1.01655054092407,0.12793156504631,8.90834140777588,-3.56460046768188,1.54718494415283,0
54,1415165772,8.951096534729,-3.6081976890564,1.44555878639221,1.69671142101288,-6.25461339950562,3.13036417961121,9.94249629974365,1.02248215675354,0.09046149253845,2.6545684337616,-3.61116170883179,3.27453684806824,0
55,1415199106,9.12831020355225,-3.70627117156982,1.52023351192474,-1.09315693378448,-5.62052392959595,2.42902326583862,9.98875999450684,0.99259757995605,0.0562256090343,-0.18237526714802,-3.24895262718201,3.33255577087402,0
56,1415232440,9.15647888183594,-3.67958211898804,1.54392755031586,-1.20976495742798,-4.52344703674316,1.69990587234497,9.90176391601562,1.05928683280945,0.08861465007067,0.33064395189285,-2.50137519836426,3.40475749969482,0
57,1415265774,9.10851097106934,-3.61992263793945,1.55516004562378,-3.022536277771,-3.04020929336548,2.45168972015381,9.87910079956055,1.02462303638458,0.11106764525175,0.61952328681946,-1.83280658721924,2.75233793258667,0
58,1415299108,9.07039928436279,-3.67655968666077,1.58692049980164,-2.67773818969727,-1.88662552833557,3.32133102416992,9.96064567565918,0.93472445011139,0.1004845649004,0.26878929138184,-1.11442136764526,1.89399206638336,0
59,1415332442,9.10582828521729,-3.74608325958252,1.59627628326416,-0.24422350525856,-1.66758561134338,2.64648675918579,9.94722843170166,0.91856801509857,0.09330619126558,-1.5045348405838,-0.12076389789581,1.82392859458923,0
60,1415365776,9.0742359161377,-3.64721083641052,1.5172381401062,-0.21679869294167,-0.85321021080017,1.16889643669128,9.93789100646973,0.86004537343979,0.13369834423065,-2.47678709030151,0.16447520256042,2.14027118682861,0
61,1415399110,9.08447647094727,-3.74398159980774,1.4930431842804,-2.53196287155151,-0.1748066842556,0.3499111533165,10.05350971221924,0.8254554271698,0.14914062619209,-1.68724310398102,0.65622615814209,1.81725633144379,0
62,1415432444,9.15221977233887,-3.8852219581604,1.5026730298996,0.04768124595284,-0.57974988222122,-0.46019622683525,10.0803689956665,0.85307502746582,0.15858921408653,0.22891670465469,1.06772613525391,1.01840889453888,0
63,1415465778,9.14965438842773,-3.82677817344666,1.46065902709961,1.77707636356354,-1.28752493858337,-0.74536162614822,9.99971580505371,0.85205221176147,0.11864689737558,2.70373129844666,1.56743013858795,0.85494875907898,0
64,1415499112,9.10916709899902,-3.7974910736084,1.41243600845337,1.15745377540588,-1.10074412822723,-0.21848271787167,9.95101261138916,0.85221886634827,0.06238003075123,5.00031471252441,1.56000936031342,0.73342955112457,0
65,1415532446,9.06280040740967,-3.8506600856781,1.41792154312134,1.53083574771881,-0.65422517061234,0.51287829875946,9.96207427978516,0.87116146087646,0.02355435676873,5.47878551483154,1.53045201301575,0.67102414369583,0
66,1415565780,9.08396434783936,-3.83841252326965,1.39137208461761,2.52149057388306,-0.46825781464577,1.19201195240021,9.97434711456299,0.79993444681168,-0.0173246525228,6.91735172271729,1.72596108913422,0.94518935680389,0
67,1415599114,9.10048580169678,-3.82602524757385,1.34901583194733,2.52670907974243,-0.11338742822409,1.55711448192596,9.98072242736816,0.83395290374756,-0.04680328443646,9.42249202728271,2.03335976600647,1.52558720111847,0
68,1415632448,9.12406349182129,-3.80657911300659,1.27597689628601,2.26243710517883,0.45888033509254,1.76511538028717,9.95818614959717,0.94242024421692,-0.07345895469189,8.49367904663086,1.82708370685577,1.54100894927979,0
69,1415665782,9.09354782104492,-3.78118252754211,1.24723625183105,1.24664390087128,0.8308088183403,2.18953061103821,9.95298862457275,0.94057196378708,-0.09692849218845,4.96302366256714,1.89508152008057,1.57510828971863,0
70,1415699116,9.08050441741943,-3.78770041465759,1.25569379329681,0.75309348106384,0.80758446455002,2.40817332267761,9.91847229003906,0.84204298257828,-0.07041001319885,3.35461759567261,1.77461469173431,1.69615006446838,0
71,1415732450,9.02073287963867,-3.78746771812439,1.23222708702087,1.0324319601059,0.56083166599274,2.20541048049927,9.92929935455322,0.82637798786163,-0.03815589472651,2.94859862327576,1.38121628761292,2.07774090766907,0
72,1415765784,9.05481433868408,-3.79925942420959,1.23506414890289,0.64747959375381,0.17853656411171,1.89883291721344,9.93959617614746,0.83725303411484,-0.01422097161412,1.06470084190369,1.0330114364624,2.15767788887024,0
73,1415799118,9.02274036407471,-3.77720522880554,1.25855040550232,0.32744878530502,-0.32636985182762,1.36072909832001,9.89626407623291,0.76968252658844,0.00304287765175,0.07040610164404,0.67900222539902,1.58046674728394,0
74,1415832452,9.01615142822266,-3.76886367797852,1.24064230918884,-0.429179251194,-0.57948088645935,1.08562314510345,9.9640941619873,0.79110157489777,0.07224539667368,-1.04587531089783,-0.11266385018826,0.93535971641541,0
75,1415865786,9.05094242095947,-3.83200192451477,1.30054414272308,-1.2035665512085,-1.11791753768921,0.73656040430069,10.04479598999023,0.76657617092133,0.06772590428591,-2.5276153087616,-0.59384977817535,0.17786422371864,0
76,1415899120,9.10805511474609,-3.83008480072021,1.33812081813812,-0.35648393630981,-2.2061882019043,-0.29156216979027,9.99165821075439,0.73179870843887,0.10426480323076,-1.39866471290588,-0.72122794389725,-0.4538634121418,0
77,1415932454,9.04844093322754,-3.80138039588928,1.35473561286926,-0.59532886743546,-2.64883351325989,-0.77755045890808,9.88225746154785,0.77840352058411,0.07519709318876,0.83823949098587,-1.0130398273468,-0.99463713169098,0
78,1415965788,8.97433757781982,-3.81526756286621,1.4204283952713,0.73369818925858,-2.82343506813049,-1.00324940681458,9.95139217376709,0.79351669549942,0.05427472293377,1.66467499732971,-0.82549721002579,-0.84087765216827,0
79,1415999122,9.08316230773926,-3.80408835411072,1.43017780780792,1.11123597621918,-2.71476078033447,-1.23931539058685,9.99470996856689,0.8295823931694,0.02993145771325,1.07666492462158,-0.41463115811348,-1.21384978294373,0
80,1416032456,9.0820779800415,-3.81189775466919,1.42288219928741,0.96470552682877,-2.22337460517883,-1.56077396869659,9.93229866027832,0.84021127223969,-0.00298195937648,0.45960387587547,-0.17248232662678,-0.86967277526855,0
81,1416065790,9.06393337249756,-3.79321312904358,1.40284943580627,-0.23351101577282,-1.21425986289978,-1.34005010128021,9.96760368347168,0.82850933074951,0.00477141840383,0.24868969619274,0.281384319067,-0.69103699922562,0
82,1416099124,9.09426021575928,-3.83297634124756,1.4089195728302,-0.61687541007996,-0.26334336400032,-1.00399219989777,9.97586345672607,0.85121375322342,0.00335129024461,0.55720746517181,0.72390133142471,-0.80061459541321,0
83,1416132458,9.08394718170166,-3.80566740036011,1.3863011598587,-0.96219861507416,0.36376118659973,-0.7787349820137,9.91938781738281,0.83993583917618,0.00613926444203,-0.55999606847763,0.73123615980148,-0.67716139554977,0
84,1416165792,9.02158355712891,-3.80859398841858,1.33389270305634,-1.98230791091919,0.9300771355629,-0.45659762620926,9.90938949584961,0.75256794691086,0.02211397513747,0.09173827618361,0.80974549055099,-0.57334667444229,0
85,1416199126,9.00354099273682,-3.85132074356079,1.32495927810669,-1.48291122913361,0.98153299093246,-0.52492588758469,9.93501758575439,0.75347751379013,0.03476341813803,0.9979795217514,0.76994335651398,-0.58020126819611,0
86,1416232460,8.99478626251221,-3.85497856140137,1.29935050010681,-0.63317155838013,0.4632089138031,-0.83732402324677,9.90761089324951,0.76396286487579,0.02455486729741,1.04831826686859,0.46804970502853,-0.42049011588097,0
87,1416265794,8.98778438568115,-3.83265328407288,1.25506567955017,-0.30124375224113,-0.11575019359589,-1.2226220369339,9.93313407897949,0.7705625295639,0.00867779832333,1.43234848976135,0.16098542511463,-0.15535382926464,0
88,1416299128,9.01528358459473,-3.8678286075592,1.24689567089081,-0.59187108278275,-0.59203112125397,-1.22618889808655,9.95752239227295,0.80990207195282,-0.01443239301443,0.98423516750336,-0.05123179778457,-0.11121673882008,0
89,1416332462,9.049635887146,-3.87797355651855,1.23627114295959,-0.52089822292328,-0.98220854997635,-0.93106651306152,9.94780254364014,0.82115775346756,-0.01881532929838,-0.40757811069489,-0.56245815753937,-0.08948758244514,0
90,1416365796,9.02501964569092,-3.87576675415039,1.25349283218384,-1.04572176933289,-1.26658010482788,-0.2503257393837,9.90922927856445,0.81301760673523,9.851460345e-05,-1.05427324771881,-0.83369666337967,0.33626273274422,0
91,1416399130,9.00026512145996,-3.85395383834839,1.26065766811371,-1.269935131073,-1.60674870014191,0.26863557100296,9.9607982635498,0.774622797966,0.01101354975253,-0.75214576721191,-0.9262353181839,0.7501512169838,0
92,1416432464,9.06101226806641,-3.86320114135742,1.28664863109589,-1.79347789287567,-1.64572489261627,0.56093412637711,9.95229911804199,0.8277205824852,0.01569908484817,-0.80780857801437,-1.10748994350433,0.82374286651611,0
93,1416465798,9.04106616973877,-3.8448920249939,1.32676410675049,-1.61955499649048,-1.77613842487335,0.7225182056427,9.91220378875732,0.80256599187851,-0.00656337244436,-1.18500983715057,-1.01845049858093,0.73776423931122,0
94,1416499132,9.02341175079346,-3.80885338783264,1.3411271572113,-1.85604989528656,-1.60737633705139,0.94465732574463,9.98156261444092,0.76369911432266,0.04139820858836,-0.99885678291321,-1.10947155952454,0.94300836324692,0
95,1416532466,9.09629821777344,-3.86822724342346,1.36951327323914,-1.6757687330246,-1.54121887683868,0.7629479765892,10.02124977111816,0.78847414255142,0.0265852343291,-0.58952105045319,-0.78255122900009,0.70439088344574,0
96,1416565800,9.10008430480957,-3.83703684806824,1.40806913375854,-0.89333260059357,-1.52983379364014,0.11747585237026,9.93889617919922,0.82400834560394,0.01796298474073,-0.16771514713764,-0.21039870381355,0.70886987447739,0
97,1416599134,9.0433235168457,-3.78248023986816,1.41025805473328,-1.59748959541321,-0.96658480167389,0.36321687698364,9.91638374328613,0.81905031204224,0.01179471239448,0.56866598129272,0.19041122496128,0.30073791742325,0
98,1416632468,9.02903366088867,-3.83481955528259,1.43286859989166,-0.5593044757843,-0.42879492044449,0.73094469308853,9.98498916625977,0.78112560510635,0.00311645912006,0.77813613414764,0.59881526231766,0.20406597852707,0
99,1416665802,9.08672618865967,-3.80232119560242,1.40859615802765,0.20851618051529,-0.03553761541843,0.31341937184334,9.99293231964111,0.81476777791977,-0.02103062346578,-0.02575997263193,1.17468810081482,0.55308067798615,0
100,1416699136,9.093017578125,-3.79435062408447,1.35260677337646,-1.1890184879303,0.82056367397308,-0.07763849943876,9.93456077575684,0.81527674198151,-0.01504996418953,-0.57742547988892,1.26853621006012,0.54545122385025,0
101,1416732470,9.04777336120605,-3.82877635955811,1.33091616630554,-1.87089896202087,1.31161689758301,0.05616545304656,9.99676418304443,0.75309735536575,-0.0069965547882,-0.65998166799545,1.34677016735077,0.364830493927,0
102,1416765804,9.07028961181641,-3.89469027519226,1.32575130462646,-0.61039543151855,1.16050171852112,-0.07312425225973,9.97745132446289,0.75431138277054,-0.00833387300372,0.74654936790466,1.52482986450195,0.1889416873455,0
103,1416799138,9.07215785980225,-3.82816934585571,1.25694835186005,-0.6448125243187,1.12352335453033,-0.26559728384018,9.90754318237305,0.81864845752716,-0.03749061003327,0.66703152656555,1.28977882862091,0.26028907299042,0
104,1416832472,8.99803161621094,-3.83554553985596,1.24255192279816,-2.1060938835144,1.21193206310272,0.13397042453289,9.90484237670898,0.78202706575394,-0.03060063719749,-0.15644238889217,1.13119125366211,0.35681694746017,0
105,1416865806,8.98653221130371,-3.88064074516296,1.25498914718628,-1.20014691352844,0.82778644561768,0.22252632677555,9.94467830657959,0.75945353507996,-0.01312031131238,-0.56305676698685,0.8365780711174,0.46382999420166,0
106,1416899140,9.01396560668945,-3.85491418838501,1.23620736598969,-0.71866035461426,0.34717053174973,0.13215833902359,9.9445104598999,0.77914291620255,-0.01574904099107,-1.28627300262451,0.73882395029068,0.49916598200798,0
107,1416932474,9.02899837493896,-3.84587168693542,1.22976303100586,-1.42379069328308,0.0161904245615,0.09077459573746,9.95182228088379,0.75511991977692,0.01443753857166,-1.70922815799713,0.33535346388817,0.49925550818443,0
108,1416965808,9.02256870269775,-3.8978099822998,1.25702476501465,-1.40324950218201,-0.52740395069122,0.10539946705103,9.9629955291748,0.74585652351379,0.01729441061616,-1.42310893535614,0.04251067712903,0.18002527952194,0
109,1416999142,9.01929950714111,-3.89322471618652,1.2873649597168,-0.17314825952053,-1.14142990112305,0.0707390755415,9.94590377807617,0.75264173746109,0.03553333878517,-1.35658943653107,-0.1734876036644,0.12815633416176,0
110,1417032476,9.00987243652344,-3.85545945167542,1.29179453849792,-0.36249017715454,-1.46108937263489,-0.04810705780983,9.94716167449951,0.75084543228149,0.0285573117435,-1.27410054206848,-0.23959720134735,0.45499032735825,0
111,1417065810,9.02385139465332,-3.87677311897278,1.33368897438049,-1.03552770614624,-1.44962739944458,0.07084792852402,9.95260143280029,0.74469989538193,0.022565882653,-0.59056806564331,-0.26729732751846,0.42249426245689,0
112,1417099144,9.02919864654541,-3.88522267341614,1.34906876087189,-0.81456059217453,-1.18862760066986,0.1475131213665,9.9727087020874,0.76635479927063,0.0631777793169,-0.74756425619125,-0.3033632338047,0.33299392461777,0
113,1417132478,9.01878643035889,-3.9030237197876,1.39048731327057,-0.17201490700245,-1.25777566432953,0.24086502194405,9.97056198120117,0.74706375598907,0.04047883674502,-0.83874535560608,0.26292392611504,0.34537759423256,0
114,1417165812,9.03951358795166,-3.86774134635925,1.39212369918823,-0.11040994524956,-0.9878945350647,0.22342278063297,9.95439720153809,0.70082199573517,0.05941103771329,0.89746564626694,0.29558652639389,0.26935914158821,0
115,1417199146,9.0617790222168,-3.88254404067993,1.37025964260101,-0.4796362221241,-0.48653247952461,0.28230640292168,10.03702068328857,0.76365172863007,0.07120107859373,0.53225111961365,0.37391984462738,0.20455585420132,0
116,1417232480,9.08374691009521,-3.92257189750671,1.43003952503204,0.11013779044151,-0.3773198723793,-0.12849250435829,9.96507453918457,0.80792063474655,0.05451425909996,-0.63588643074036,0.69940584897995,0.08799881488085,0
117,1417265814,9.03459453582764,-3.80442762374878,1.36338269710541,-1.17859399318695,-0.03396243974566,-0.13193102180958,9.92478370666504,0.7639821767807,0.06960186362267,-0.93967223167419,0.79872232675552,0.36080929636955,0
118,1417299148,9.00538730621338,-3.91753053665161,1.40914225578308,-2.541996717453,0.5709103345871,0.37722709774971,9.93593502044678,0.71331483125687,0.02958328835666,0.12341798096895,0.99152201414108,0.21668663620949,0
119,1417332482,9.0173225402832,-3.89710068702698,1.40918815135956,-0.84163975715637,0.92055571079254,0.12094637751579,9.96403408050537,0.80337578058243,0.03375223278999,-1.17025065422058,1.10453796386719,0.99362874031067,0
120,1417365816,9.02694320678711,-3.82184433937073,1.37727081775665,-3.1661913394928,1.9046151638031,0.04648385569453,9.9718132019043,0.83137637376785,-0.09278755635023,-3.90963530540466,2.09165525436401,2.21753525733948,0
121,1417399150,9.07846736907959,-3.90302610397339,1.36983275413513,-5.9701509475708,3.54526424407959,0.35855558514595,9.98246288299561,0.63539528846741,-0.00646128552034,-1.07375168800354,2.20678400993347,2.28270649909973,0
122,1417432484,9.07869911193848,-3.95606923103333,1.29370403289795,-4.56831502914429,3.96221923828125,1.1005494594574,9.9777364730835,0.76161843538284,0.10538616031408,-0.44946444034576,1.23175001144409,0.66485768556595,0
123,1417465818,8.96658134460449,-3.9611828327179,1.27766823768616,-1.1791832447052,2.38756823539734,1.69193363189697,9.95730972290039,0.65395313501358,0.11417261511087,0.56153279542923,0.99115383625031,-0.63345324993134,0
124,1417499152,8.97255706787109,-3.87337923049927,1.19415354728699,0.9364932179451,-0.04246585816145,1.26020562648773,9.916259765625,0.55788671970367,0.02576212398708,9.47125625610352,1.26774704456329,-0.0494133643806,0
125,1417532486,8.95741176605225,-3.89918160438538,1.19292569160461,2.52686285972595,-1.24509739875793,0.1283932775259,9.79357051849365,0.87029999494553,-0.21276952326298,13.44182872772217,1.47503924369812,0.56688088178635,0
126,1417565820,8.97831916809082,-3.70303630828857,1.14369738101959,2.08311605453491,-0.69386726617813,0.07594486325979,9.8013744354248,1.14011681079865,-0.18999390304089,1.72630906105042,0.02011877857149,0.97513318061829,0
127,1417599154,8.97508716583252,-3.71456527709961,1.15473425388336,-2.22207474708557,0.21031549572945,1.09707844257355,9.93543720245361,0.8626594543457,-0.04540602117777,-10.74618339538574,-1.18453168869019,0.31120443344116,0
128,1417632488,9.02908229827881,-3.82076048851013,1.18416714668274,-3.66907739639282,-0.40647357702255,0.81120872497559,10.00642681121826,0.53122597932816,0.1113753169775,-10.09659957885742,-1.85251832008362,0.04980396851897,0
129,1417665822,9.05758953094482,-3.87573862075806,1.17091131210327,-3.55152797698975,-1.64671754837036,-0.81064206361771,10.01021194458008,0.51139974594116,0.09101103246212,-1.13863182067871,-2.1908655166626,-0.04217771440744,0
130,1417699156,9.03160095214844,-3.90044713020325,1.21382164955139,-3.16438603401184,-2.93163704872131,-2.65955305099487,9.92720031738281,0.72634243965149,0.01740309037268,2.18271780014038,-3.06950974464417,-0.18539114296436,0
131,1417732490,8.97157382965088,-3.88347864151001,1.23229312896729,-3.25607943534851,-3.61498427391052,-3.23989248275757,9.94039630889893,0.86883133649826,-0.05097665265203,-3.29840755462646,-3.46535134315491,-0.36278158426285,0
132,1417765824,9.02466201782227,-3.93579149246216,1.30044746398926,-3.48849034309387,-3.90950560569763,-2.87199211120605,10.00582313537598,0.7346419095993,-0.02347492799163,-7.00116777420044,-3.61418557167053,-0.32961013913155,0
133,1417799158,9.08528423309326,-3.92794418334961,1.29842567443848,-3.81264400482178,-3.66350126266479,-2.3182384967804,9.94717979431152,0.6901028752327,-0.02480118721724,-2.56337094306946,-2.99247336387634,0.13016057014465,0
134,1417832492,9.01878833770752,-3.90151691436768,1.38050174713135,-4.1931529045105,-2.7815272808075,-1.38807427883148,9.86725234985352,0.81723237037659,-0.07420641183853,1.12315547466278,-2.51935505867004,0.1606108546257,0
135,1417865826,9.00730323791504,-3.83320116996765,1.36352944374084,-4.21938562393188,-1.4797739982605,0.13495655357838,9.98511600494385,0.88202518224716,-0.08241740614176,-1.97658979892731,-1.76036095619202,0.18614350259304,0
136,1417899160,9.12332439422607,-3.8582227230072,1.4084221124649,-5.33285999298096,-0.01196113508195,0.84962797164917,10.0605297088623,0.75518637895584,-0.05235426872969,-5.53653287887573,-1.00282728672028,0.56631940603256,0
137,1417932494,9.13915920257568,-3.87524461746216,1.43524098396301,-6.14856815338135,1.0001859664917,0.22249440848827,9.99271392822266,0.72634267807007,-0.05107979103923,-4.53337860107422,0.3024508357048,1.3335223197937,0
138,1417965828,9.08798313140869,-3.87487530708313,1.40146934986115,-5.90118789672852,2.07045793533325,-0.03170213475823,9.92528438568115,0.75705111026764,0.00526996329427,-3.36414551734924,0.65823692083359,0.70055550336838,0
139,1417999162,9.01835441589355,-3.86090159416199,1.33951508998871,-4.44321012496948,2.70485925674438,0.25127032399178,9.96933555603027,0.6922173500061,0.04299824684858,-4.97433376312256,0.61782020330429,-0.53819340467453,0
140,1418032496,9.01009273529053,-3.90972638130188,1.3552383184433,-2.20944786071777,1.93777084350586,-0.28733611106873,10.05246639251709,0.56406408548355,0.06391597539186,-3.40195631980896,0.66054856777191,-1.36566317081451,0
141,1418065830,9.07786178588867,-3.94052076339722,1.25548827648163,-0.18095371127129,0.49681910872459,-1.66282117366791,10.02975749969482,0.58472436666489,-0.04897771403193,2.24704718589783,1.45403945446014,-1.41733002662659,0
142,1418099164,9.09086322784424,-3.92889976501465,1.21696805953979,0.25886437296867,0.26735502481461,-2.99370884895325,9.96537399291992,0.76799249649048,-0.16812799870968,3.61149668693542,1.46260392665863,-0.92180758714676,0
143,1418132498,9.07276725769043,-3.88528347015381,1.18895447254181,-1.53097367286682,1.05082190036774,-2.89526653289795,9.92066860198975,0.91129595041275,-0.20668441057205,-2.68112802505493,1.29084169864655,-1.10948145389557,0
144,1418165832,8.98246669769287,-3.89916491508484,1.2089227437973,-2.96366548538208,1.89351201057434,-1.76112306118011,9.8618221282959,0.75094938278198,-0.12501315772533,-7.12017345428467,0.82419180870056,-0.92772156000137,0
145,1418199166,8.94900608062744,-3.89795589447021,1.14929854869843,-3.98842334747314,2.23526239395142,-0.67515724897385,9.96296215057373,0.58788925409317,-0.06011566519737,-5.64202642440796,0.68270367383957,-0.84461760520935,0
146,1418232500,9.00971794128418,-3.98953485488892,1.15728771686554,-3.78937482833862,1.92155170440674,-0.70208275318146,10.02665042877197,0.59120017290115,-0.04825410619378,-0.92312002182007,0.62234699726105,-0.5172164440155,0
147,1418265834,9.05581855773926,-3.98287296295166,1.1649717092514,-2.56756448745728,0.82204920053482,-1.53197884559631,9.96331596374512,0.70269590616226,-0.07577277719975,1.75183510780334,0.54369682073593,-0.39174628257751,0
148,1418299168,8.9953784942627,-3.91516590118408,1.1399233341217,-2.32811713218689,0.35762047767639,-1.38892543315887,9.87189388275146,0.81333768367767,-0.10432933270931,1.31031036376953,-0.4531142115593,-0.53191810846329,0
149,1418332502,8.99152565002441,-3.86975073814392,1.13956522941589,-3.19601726531982,0.14361363649368,-0.16355632245541,10.06129360198975,0.7805432677269,-0.11741708219051,-2.82546496391296,-0.55195361375809,-0.54700398445129,0
150,1418365836,9.12858867645264,-3.98634028434753,1.22970426082611,-1.63874530792236,-0.72626733779907,-0.12094317376614,9.98456287384033,0.67954218387604,-0.07557085156441,-2.12810826301575,-0.80594849586487,-0.79501831531525,0
151,1418399170,9.07416915893555,-3.77980995178223,1.16092765331268,-2.1042115688324,-0.89812868833542,-0.48697435855865,9.90049648284912,0.77532637119293,-0.09919504076242,-0.49495586752892,-0.69264739751816,-0.67952734231949,0
152,1418432504,9.01284790039062,-3.83144378662109,1.23580360412598,-3.39699411392212,-0.55431658029556,-0.36978349089622,9.90671348571777,0.79383307695389,-0.08510433882475,-2.34439468383789,-0.86720764636993,-1.05238115787506,0
153,1418465838,9.04352760314941,-3.79039645195007,1.25066256523132,-2.75271844863892,-0.58774745464325,-0.6024107336998,9.96890735626221,0.78665089607239,-0.0559473708272,-4.75426244735718,-0.8557077050209,-1.2500216960907,0
154,1418499172,9.06825256347656,-3.79006624221802,1.28514039516449,-3.51401138305664,-0.31373000144958,-1.03444576263428,9.93581295013428,0.72201919555664,-0.05892334878445,-3.43287086486816,-0.5110182762146,-1.91073322296143,0
155,1418532506,9.04665660858154,-3.79013872146606,1.30522131919861,-2.65277171134949,-0.27963307499886,-1.55671429634094,10.00131988525391,0.7471199631691,0.0094931377098,-2.20308971405029,-0.7336118221283,-2.54457092285156,0
156,1418565840,9.12118148803711,-3.87770700454712,1.32852637767792,-0.29647985100746,-0.93334597349167,-2.4190366268158,10.10441112518311,0.74448752403259,0.01761373504996,-2.1071891784668,-0.28327009081841,-3.17623782157898,0
157,1418599174,9.16471862792969,-3.86071991920471,1.35609436035156,1.41332519054413,-1.71254885196686,-3.95055532455444,10.02473926544189,0.79021662473679,-0.008310938254,-1.22689318656921,0.10895643383265,-2.77477097511292,0
158,1418632508,9.1224308013916,-3.78360319137573,1.33523619174957,0.26128479838371,-1.47738575935364,-4.59009790420532,9.92994022369385,0.87031412124634,-0.06638973206282,0.99999988079071,0.51294237375259,-2.88732600212097,0
159,1418665842,9.06665897369385,-3.84080052375793,1.37536871433258,0.15205939114094,-0.51229238510132,-3.53842663764954,9.95642852783203,0.9012159705162,-0.05934942886233,0.66669547557831,1.08255612850189,-3.53972697257996,0
160,1418699176,9.09765148162842,-3.84150004386902,1.3892148733139,2.68687844276428,-0.1953608840704,-2.65850234031677,10.0527515411377,0.75082385540009,-0.0153475785628,0.40420371294022,1.38362085819244,-3.65098237991333,0
161,1418732510,9.15515899658203,-3.83847188949585,1.3778395652771,3.56781482696533,0.02121052145958,-2.68263626098633,9.93311500549316,0.76923143863678,-0.00737543590367,4.87467241287231,1.936842918396,-3.20466279983521,0
162,1418765844,9.03432559967041,-3.7488374710083,1.30119979381561,3.11758160591125,0.81049805879593,-3.06865191459656,9.89823150634766,0.88336741924286,-0.04686128348112,6.26933670043945,1.95380532741547,-2.64821410179138,0
163,1418799178,9.04015254974365,-3.81706738471985,1.32093572616577,2.96752333641052,1.04420757293701,-2.69073009490967,9.93777656555176,0.94658213853836,-0.05977340787649,5.04990196228027,2.40519714355469,-2.5709080696106,0
164,1418832512,9.07617378234863,-3.78820538520813,1.29476976394653,4.31468820571899,0.8102548122406,-2.54216408729553,9.95550441741943,0.95630359649658,-0.09944508224726,2.55847549438477,2.45479512214661,-1.72696220874786,0
165,1418865846,9.10932540893555,-3.74706149101257,1.25039398670197,2.40077114105225,1.21765661239624,-2.14722800254822,9.93071842193604,0.89090901613235,-0.10174547880888,0.86186414957047,2.56605005264282,-1.39580893516541,0
166,1418899180,9.07834911346436,-3.79710292816162,1.24629604816437,0.97181951999664,1.69734406471252,-1.49206793308258,9.9142951965332,0.91729313135147,-0.06758411228657,2.21258211135864,2.39416337013245,-0.77437448501587,0
167,1418932514,9.06245231628418,-3.78457140922546,1.23815393447876,1.35772621631622,1.70842814445496,-0.63809567689896,9.87038230895996,0.96234291791916,-0.06809230148792,2.44853949546814,2.41961622238159,-0.36235579848289,0
168,1418965848,9.01152038574219,-3.73532485961914,1.21872818470001,0.73116898536682,1.60113632678986,0.31640967726707,9.84960174560547,0.90662753582001,-0.06933469325304,1.81956160068512,2.4688241481781,0.08037585765123,0
169,1418999182,8.99667644500732,-3.74835109710693,1.21437871456146,0.45508962869644,1.39880228042603,0.82625603675842,9.81999111175537,0.87249320745468,-0.07757730036974,1.93662440776825,2.04404401779175,0.81959044933319,0
170,1419032516,8.97042179107666,-3.71492338180542,1.20138585567474,0.13654451072216,1.23996520042419,0.97826111316681,9.82180404663086,0.86709517240524,-0.05460615828633,2.94970965385437,1.55549478530884,1.19550824165344,0
171,1419065850,8.96805858612061,-3.74074101448059,1.1818767786026,0.30076029896736,0.67505788803101,1.09497165679932,9.88677597045898,0.86686557531357,-0.06568574905396,3.6918637752533,1.08501517772675,1.50770807266235,0
172,1419099184,9.02831840515137,-3.75124430656433,1.15744256973267,0.21171778440475,-0.28152838349342,1.38759684562683,9.9228982925415,0.89414155483246,-0.06388487666845,3.32039928436279,0.1569546610117,1.6903041601181,0
173,1419132518,9.07312488555908,-3.75223755836487,1.13832700252533,0.39084658026695,-1.24536633491516,1.36003124713898,9.9149751663208,0.92570227384567,-0.08728498220444,2.90043711662292,-0.61850839853287,1.75653529167175,0
174,1419165852,9.06377792358398,-3.70807337760925,1.14333605766296,-0.8349741101265,-2.07715821266174,1.81431722640991,9.87508678436279,0.92348885536194,-0.13017894327641,3.39924454689026,-1.27500033378601,1.84931087493896,0
175,1419199186,9.07966041564941,-3.6991868019104,1.17172408103943,-1.12811779975891,-2.38050866127014,2.43836426734924,9.96585655212402,0.98565775156021,-0.10601617395878,2.06569314002991,-2.03725981712341,1.83015239238739,0
176,1419232520,9.17214298248291,-3.71351957321167,1.21620380878448,-1.29507446289062,-2.80569863319397,2.62097024917603,10.02414894104004,1.01283049583435,-0.10946784168482,-1.61446785926819,-2.4333508014679,1.53763294219971,0
177,1419265854,9.2032585144043,-3.68830561637878,1.27452194690704,-1.30838656425476,-3.16240048408508,2.21635365486145,9.94561958312988,0.95727902650833,-0.0879839360714,-2.73796606063843,-2.3128719329834,1.31279528141022,0
178,1419299188,9.13574600219727,-3.60108709335327,1.279914021492,-3.04426836967468,-2.82428741455078,1.94841289520264,9.89768028259277,0.95891571044922,-0.0712258592248,-2.47235608100891,-2.16448473930359,0.94788461923599,0
179,1419332522,9.08764362335205,-3.66005778312683,1.37411570549011,-2.95090413093567,-2.38260316848755,1.73292696475983,9.90576362609863,0.89286190271378,-0.06111527606845,-2.87960386276245,-1.79923474788666,0.51794964075089,0
180,1419365856,9.1127233505249,-3.63301277160645,1.4034059047699,-1.491082072258,-2.139723777771,0.73853272199631,9.9670352935791,0.86440658569336,-0.07354500889778,-2.29938673973083,-1.38445603847504,0.2300116866827,0
181,1419399190,9.16025733947754,-3.63752961158752,1.36353969573975,-2.16978025436401,-1.42815148830414,-0.60803270339966,9.92395114898682,0.89801245927811,-0.09684817492962,-1.3131822347641,-0.87572383880615,-0.09914675354958,0
182,1419432524,9.12097358703613,-3.64736247062683,1.3415265083313,-3.0862991809845,-0.53800129890442,-1.60481524467468,9.98028945922852,0.90871894359589,-0.09647195786238,-2.01350712776184,-0.59840548038483,-0.34558248519897,0
183,1419465858,9.17397594451904,-3.73388648033142,1.35907077789307,-2.62699294090271,-0.04306136444211,-2.24747681617737,10.01483058929443,0.90612572431564,-0.09648579359055,-2.22423887252808,-0.07123532891273,-1.01720201969147,0
184,1419499192,9.16911315917969,-3.72394371032715,1.30547142028809,-2.29302191734314,0.16445595026016,-2.73443126678467,9.96632480621338,0.88750487565994,-0.09971592575312,-2.63908815383911,0.19608125090599,-1.37042689323425,0
185,1419532526,9.10205173492432,-3.75101947784424,1.2821398973465,-3.12147831916809,0.706363260746,-2.80913114547729,9.9456901550293,0.84504246711731,-0.09951452165842,-2.41628313064575,0.45411005616188,-1.43753218650818,0
186,1419565860,9.07420253753662,-3.78334140777588,1.26329612731934,-2.84231901168823,0.97952920198441,-2.8373692035675,9.95285129547119,0.8420068025589,-0.10264857858419,-2.14459633827209,0.52502518892288,-1.38350212574005,0
187,1419599194,9.06555366516113,-3.80243611335754,1.2491409778595,-2.48854327201843,0.91590714454651,-2.815425157547,9.94876098632812,0.85797965526581,-0.10830032080412,-2.7568998336792,0.61009776592255,-1.23504436016083,0
188,1419632528,9.07437610626221,-3.81678366661072,1.22428739070892,-2.60259652137756,0.84696412086487,-2.66164016723633,9.96643924713135,0.84003627300262,-0.08465385437012,-3.19311022758484,0.53179979324341,-0.93532484769821,0
189,1419665862,9.08202362060547,-3.83133864402771,1.20913481712341,-2.79391670227051,0.67768323421478,-2.29984760284424,9.96982860565186,0.81338286399841,-0.06499029695988,-2.57238602638245,0.25230750441551,-0.87958496809006,0
190,1419699196,9.07151889801025,-3.86106157302856,1.23187911510468,-2.0829017162323,0.19380171597004,-1.72487449645996,9.9287281036377,0.84253466129303,-0.05550497770309,-1.19982051849365,0.16163213551044,-0.81150633096695,0
191,1419732530,9.03862190246582,-3.83414483070374,1.22207987308502,-1.49925231933594,-0.24767482280731,-0.98978364467621,9.93368625640869,0.81441307067871,-0.05293777212501,0.01492900308222,0.01385326962918,-0.70472061634064,0
192,1419765864,9.04883289337158,-3.83311820030212,1.23484933376312,-0.81790959835052,-0.77055811882019,-0.44441878795624,9.93503379821777,0.83861815929413,-0.06262274831533,0.33316361904144,-0.18562804162502,-0.36057558655739,0
193,1419799198,9.03301620483398,-3.81926274299622,1.26787662506104,-0.25713232159615,-1.11807119846344,-0.1459091603756,9.92848682403564,0.7863997220993,-0.06530560553074,1.54462850093842,-0.27084791660309,-0.11470007151365,0
194,1419832532,9.06835174560547,-3.79420971870422,1.25177884101868,-0.10105489939451,-1.27847707271576,0.08743214607239,9.99413204193115,0.82315641641617,-0.03501769900322,3.2870671749115,-0.53563845157623,0.06607757508755,0
195,1419865866,9.1214714050293,-3.8146984577179,1.27471804618835,0.15276373922825,-1.51453649997711,0.20687697827816,9.98646354675293,0.9101853966713,-0.06471720337868,3.99431085586548,-0.44156301021576,-0.14181113243103,0
196,1419899200,9.10535621643066,-3.76257157325745,1.29424810409546,1.20693778991699,-1.93077516555786,0.18892249464989,9.91130352020264,0.94161641597748,-0.09076078981161,3.90970969200134,-0.11103750020266,-0.01885095611215,0
197,1419932534,9.07516384124756,-3.70330786705017,1.28569316864014,0.30179125070572,-1.55629813671112,0.87929356098175,9.88533401489258,0.93503403663635,-0.11860602349043,3.91579484939575,0.10635355114937,-0.07414877414703,0
198,1419965868,9.07065296173096,-3.731276512146,1.32664585113525,1.00293266773224,-1.19775259494781,1.1461523771286,9.91492748260498,0.94693470001221,-0.10800538212061,2.36493968963623,0.30889883637428,0.27427685260773,0
199,1419999202,9.08624362945557,-3.68295884132385,1.30962669849396,1.12892127037048,-0.82193070650101,0.87253820896149,9.94258975982666,0.93641060590744,-0.08471959084272,0.37747031450272,0.70858484506607,0.49120345711708,0
200,1420032536,9.10313320159912,-3.68823647499084,1.29871678352356,-0.13369189202785,-0.46198904514313,0.53956037759781,9.93252944946289,0.88072097301483,-0.05225701630116,-0.12762168049812,0.79344630241394,0.3055115044117,0
201,1420065870,9.07528591156006,-3.74277186393738,1.29662621021271,-0.01037314441055,-0.40078756213188,0.32297936081886,9.98782920837402,0.81938427686691,-0.02650532312691,0.7770157456398,0.77554935216904,0.00916614476591,0
202,1420099204,9.12434482574463,-3.78920197486877,1.30069649219513,2.04559397697449,-1.02899670600891,-0.27784660458565,9.97272968292236,0.84836715459824,-0.0311079043895,2.61375689506531,0.76341211795807,-0.37278646230698,0
203,1420132538,9.10995006561279,-3.72337245941162,1.26581132411957,1.84035933017731,-1.32162201404572,-0.79238659143448,9.92565155029297,0.87826609611511,-0.05468955636024,2.82192730903625,0.61160886287689,-0.46556207537651,0
204,1420165872,9.04605674743652,-3.76396894454956,1.27959382534027,1.21147131919861,-1.41580629348755,-0.76360434293747,9.92865180969238,0.82876366376877,-0.06708597391844,3.87578153610229,0.56961059570312,-0.52148753404617,0
205,1420199206,9.0723123550415,-3.80944609642029,1.28484213352203,2.73732280731201,-1.69370412826538,-0.6247963309288,9.93906021118164,0.89643162488937,-0.09792311489582,5.50692224502563,0.58910840749741,-0.17575444281101,0
206,1420232540,9.09160232543945,-3.76270771026611,1.24047577381134,3.03496122360229,-1.58584249019623,-0.3288094997406,9.93900871276855,0.93812441825867,-0.14603796601295,5.43554544448853,0.75878614187241,0.11882696300745,0
207,1420265874,9.10751533508301,-3.75946879386902,1.22531712055206,1.57805955410004,-1.04719460010529,0.43771150708199,9.9486665725708,0.94183486700058,-0.1566403657198,4.54767417907715,0.69590044021606,0.203035145998,0
208,1420299208,9.1147928237915,-3.78487324714661,1.21569073200226,1.66978478431702,-0.94658142328262,0.98387670516968,9.93146705627441,0.94202822446823,-0.15520612895489,3.58435344696045,0.66746377944946,0.5522386431694,0
209,1420332542,9.0968074798584,-3.72770214080811,1.19779801368713,1.74789714813232,-0.92094951868057,1.32353961467743,9.90970230102539,0.93221652507782,-0.15635922551155,3.26166605949402,0.64923405647278,0.79392659664154,0
210,1420365876,9.07565593719482,-3.70805191993713,1.18624591827393,0.7977300286293,-0.7911764383316,1.69777965545654,9.94459533691406,0.90969330072403,-0.13312524557114,2.89472484588623,0.51924949884415,0.85601800680161,0
211,1420399210,9.11779117584229,-3.73394393920898,1.21490824222565,0.95869946479797,-1.0516254901886,1.44418823719025,9.91823387145996,0.91149806976318,-0.16302825510502,2.34417700767517,0.52632826566696,0.83322608470917,0
212,1420432544,9.09057235717773,-3.6661639213562,1.21949303150177,1.0446492433548,-1.07021391391754,1.06139349937439,9.87300968170166,0.90238153934479,-0.15139417350292,2.38073897361755,0.41755741834641,0.69269549846649,0
213,1420465878,9.08432769775391,-3.63871431350708,1.19427347183228,-0.68181002140045,-0.50407713651657,0.92821383476257,9.99260807037354,0.93306791782379,-0.17091076076031,1.49171555042267,0.21156089007854,0.92111593484879,0
214,1420499212,9.18101406097412,-3.74003481864929,1.23458850383759,-0.70689767599106,-0.50466626882553,0.6056666970253,9.98024845123291,0.9813334941864,-0.15687130391598,0.6480525135994,0.32599204778671,0.49988949298859,0
215,1420532546,9.15495300292969,-3.64958643913269,1.20180642604828,-0.79803401231766,-0.42999237775803,0.29842957854271,9.90058708190918,1.0001517534256,-0.15017588436604,-0.87289357185364,0.45831045508385,0.30985277891159,0
216,1420565880,9.09652805328369,-3.66301417350769,1.228719830513,-2.11130595207214,-0.11821540445089,0.62638735771179,9.89966773986816,0.89625757932663,-0.15294052660465,-1.12499940395355,0.47149458527565,0.10555953532457,0
217,1420599214,9.08224010467529,-3.68800663948059,1.25075721740723,-1.45659422874451,-0.03144599124789,0.29960134625435,9.95760154724121,0.88149094581604,-0.13261970877647,-0.92816895246506,0.5275896191597,0.26880529522896,0
218,1420632548,9.12783622741699,-3.71720719337463,1.24179625511169,-1.21030902862549,-0.02298099733889,-0.4534600675106,9.94321441650391,0.9530114531517,-0.14788302779198,-1.53378117084503,0.62298405170441,0.20549707114697,0
219,1420665882,9.11983871459961,-3.68552613258362,1.21845781803131,-2.08558440208435,0.1864380389452,-0.76578766107559,9.9307804107666,0.92321884632111,-0.13535587489605,-2.27687644958496,0.44619891047478,0.00128703820519,0
220,1420699216,9.11350440979004,-3.76501393318176,1.21624970436096,-2.12395882606506,0.08090732246637,-0.52393341064453,9.9673547744751,0.84695589542389,-0.13293853402138,-2.02905082702637,0.5321678519249,-0.39457643032074,0
221,1420732550,9.11517429351807,-3.77456665039062,1.21896111965179,-0.61563330888748,-0.15982326865196,-0.89422905445099,9.9673957824707,0.88659000396729,-0.14215141534805,-1.37047791481018,0.40003517270088,-0.22217094898224,0
222,1420765884,9.11151885986328,-3.73278641700745,1.19477343559265,-1.88455057144165,0.02822839841247,-1.04010617733002,9.94716358184814,0.90923893451691,-0.14935399591923,-2.36624240875244,0.43833261728287,-0.03440426290035,0
223,1420799218,9.08822345733643,-3.79566025733948,1.230095744133,-2.60178327560425,0.2228529304266,-0.78476685285568,9.92467594146729,0.87470972537994,-0.13700659573078,-2.05989480018616,0.48002037405968,-0.09743711352348,0
224,1420832552,9.08367824554443,-3.79752850532532,1.23118448257446,-1.61420845985413,0.2610350549221,-0.37636584043503,9.92979526519775,0.87720096111298,-0.12516690790653,-1.95426845550537,0.49056008458138,0.01586706936359,0
225,1420865886,9.07077884674072,-3.77231979370117,1.23319101333618,-1.28553342819214,0.2246457785368,-0.14894424378872,9.94840526580811,0.83961081504822,-0.10664287209511,-2.27019476890564,0.59920918941498,0.12176919728518,0
226,1420899220,9.09174823760986,-3.78049993515015,1.22626769542694,-2.0745005607605,0.3797242641449,-0.19913232326508,9.95759296417236,0.83946859836578,-0.08985038101673,-1.75080740451813,0.62885266542435,0.27372610569,0
227,1420932554,9.08026695251465,-3.81973099708557,1.24318015575409,-1.49388647079468,0.16546125710011,-0.31866043806076,9.94382667541504,0.86254864931107,-0.09371037781239,-1.00335192680359,0.51894211769104,0.32143619656563,0
228,1420965888,9.0715970993042,-3.79730796813965,1.2285612821579,-0.79907131195068,-0.15506568551064,-0.12274243682623,9.94064903259277,0.85693883895874,-0.10598600655794,0.03764746710658,0.60800385475159,0.36282628774643,0
229,1420999222,9.0946741104126,-3.77669286727905,1.23427855968475,-0.70898514986038,-0.11858680099249,0.25235232710838,9.95095539093018,0.85439670085907,-0.11156079918146,0.98899912834167,0.56717079877853,0.44193115830421,0
230,1421032556,9.09134197235107,-3.79799962043762,1.24301254749298,-1.07160973548889,0.04289807006717,0.61581575870514,9.9506721496582,0.89366376399994,-0.12473797798157,0.70045298337936,0.64235055446625,0.72448402643204,0
231,1421065890,9.0799388885498,-3.78601670265198,1.25950801372528,-0.64890414476395,0.0858505666256,0.68155068159103,9.90567398071289,0.86207288503647,-0.13603974878788,0.92988520860672,0.86247897148132,0.82671082019806,0
232,1421099224,9.08467864990234,-3.74625134468079,1.21415901184082,-1.21527147293091,0.45699778199196,1.0458208322525,9.95901298522949,0.88766890764236,-0.11894288659096,0.97953528165817,0.77645856142044,0.91472882032394,0
233,1421132558,9.13774013519287,-3.79623198509216,1.23590242862701,-1.17992579936981,0.49268269538879,1.02081644535065,9.99956607818604,0.90387320518494,-0.12699288129807,-0.15509770810604,0.85564661026001,0.75548177957535,0
234,1421165892,9.13877105712891,-3.75576066970825,1.23652839660645,-0.8737645149231,0.36202591657639,0.72928649187088,9.92579650878906,0.91764783859253,-0.10196084529161,-0.61597907543182,1.08324110507965,0.53081357479095,0
235,1421199226,9.04703998565674,-3.71279811859131,1.24247527122498,-1.53868281841278,0.36490732431412,0.86167842149734,9.89092826843262,0.86684858798981,-0.07923418283463,-1.20298361778259,1.13714599609375,0.11964970827103,0
236,1421232560,9.0332145690918,-3.76629781723022,1.27047455310822,-0.36926472187042,0.11914068460464,0.62330102920532,9.94802379608154,0.8063383102417,-0.05208428576589,-1.15652871131897,1.06153440475464,0.09355359524488,0
237,1421265894,9.0822639465332,-3.74619102478027,1.26713263988495,0.64030790328979,-0.25877791643143,-0.27100798487663,9.97368431091309,0.83413821458817,-0.05434099584818,-1.21299803256989,1.19203734397888,0.07342839986086,0
238,1421299228,9.09557437896729,-3.75778746604919,1.26209950447083,-0.09363362938166,-0.25590929389,-1.04518389701843,9.94679355621338,0.83129996061325,-0.03984093293548,-1.33943200111389,1.08029878139496,-0.17035326361656,0
239,1421332562,9.0559663772583,-3.81328010559082,1.27360820770264,-0.37085270881653,-0.30858820676804,-0.99110269546509,9.99301910400391,0.77371597290039,-0.0311176404357,-0.91220271587372,0.74517911672592,-0.67345398664474,0
240,1421365896,9.08875370025635,-3.88727784156799,1.28655576705933,1.95126187801361,-0.9468759894371,-1.04871213436127,9.98776817321777,0.77263385057449,-0.00903242081404,1.53597450256348,0.783626973629,-0.76057553291321,0
241,1421399230,9.08311080932617,-3.81805324554443,1.26520454883575,1.92476570606232,-1.14302432537079,-1.04569613933563,9.94338417053223,0.85958063602448,-0.04472707211971,2.82122302055359,0.66812974214554,-0.36955922842026,0
242,1421432564,9.04511642456055,-3.83198261260986,1.2880072593689,0.78440487384796,-0.95420742034912,-0.48540544509888,9.94555282592773,0.8557453751564,-0.05771255865693,2.70450925827026,0.78153955936432,-0.30720192193985,0
243,1421465898,9.08454608917236,-3.85450291633606,1.30034112930298,1.49663639068604,-0.94670939445496,0.05772141739726,9.97714996337891,0.84922951459885,-0.05253233760595,2.77880859375,0.70193207263947,-0.09378089755774,0
244,1421499232,9.10218048095703,-3.81371188163757,1.28808951377869,1.76689553260803,-0.84741544723511,0.4835838675499,9.95623874664307,0.85013228654861,-0.05288842692971,3.02010583877563,0.84497904777527,0.05999455600977,0
245,1421532566,9.06996250152588,-3.79935622215271,1.28329920768738,1.00845193862915,-0.64767473936081,0.66515219211578,9.94904518127441,0.831702709198,-0.03530504181981,3.42106342315674,0.87538456916809,0.17291136085987,0
246,1421565900,9.07435989379883,-3.81618905067444,1.30325663089752,1.25694644451141,-0.65318793058395,0.73275697231293,9.95253849029541,0.86660933494568,-0.02447371929884,3.94379258155823,1.0162992477417,-0.14880020916462,0
247,1421599234,9.07108974456787,-3.77186918258667,1.30292952060699,2.36416459083557,-0.89671987295151,0.57730710506439,9.95220947265625,0.89303189516068,-0.0259621925652,3.03990769386292,1.04525423049927,-0.34416109323502,0
248,1421632568,9.07870960235596,-3.7314395904541,1.30359315872192,1.93674600124359,-0.86298155784607,0.33737367391586,9.93533611297607,0.87395179271698,-0.00988262705505,1.54810202121735,1.05846405029297,-0.5054377913475,0
249,1421665902,9.06771373748779,-3.7377462387085,1.32128417491913,1.50029277801514,-0.91126781702042,-0.06441593915224,9.93359470367432,0.85106378793716,0.01514018326998,1.02690923213959,1.04689347743988,-0.70398110151291,0
250,1421699236,9.07146644592285,-3.75983572006226,1.34408867359161,1.85725057125092,-0.99805647134781,-0.54058808088303,9.93457317352295,0.83355677127838,0.02085765078664,1.70742583274841,1.00533699989319,-0.89979022741318,0
251,1421732570,9.05502605438232,-3.74734568595886,1.32142341136932,1.83773386478424,-1.13685190677643,-1.02319550514221,9.9623498916626,0.83379673957825,0.03824088722467,1.92959702014923,0.68658691644669,-0.99024796485901,0
252,1421765904,9.07878112792969,-3.79103899002075,1.35621976852417,2.18506765365601,-1.34901463985443,-1.4147047996521,9.92614841461182,0.80577874183655,0.00558792799711,3.382887840271,0.87069118022919,-1.24779665470123,0
253,1421799238,9.04245662689209,-3.75885605812073,1.32452404499054,2.67921376228333,-1.44414043426514,-1.50041151046753,9.94287014007568,0.84796422719955,-0.00482335686684,4.82739019393921,0.54965192079544,-1.15373075008392,0
254,1421832572,9.09607696533203,-3.82722210884094,1.30631625652313,2.17078852653503,-1.43118000030518,-1.26842415332794,10.01736736297607,0.89493155479431,-0.03455203026533,4.45983505249023,0.53311890363693,-1.11052858829498,0
255,1421865906,9.13467216491699,-3.82720136642456,1.32230818271637,2.82413077354431,-1.54774391651154,-1.30150330066681,9.9211311340332,0.95140165090561,-0.02769545093179,4.06569623947144,0.65316873788834,-1.08555912971497,0
256,1421899240,9.04372787475586,-3.73321032524109,1.27148067951202,1.38265371322632,-1.33771312236786,-0.51936161518097,9.85634803771973,0.93853664398193,-0.03363117948174,3.07267880439758,0.61366105079651,-1.14365196228027,0
257,1421932574,8.99710464477539,-3.78894186019897,1.33143222332001,1.56163549423218,-1.18736016750336,0.30294385552406,9.93506050109863,0.85901200771332,-0.01277338061482,2.79869365692139,0.59698086977005,-0.69132202863693,0
258,1421965908,9.08256053924561,-3.76845741271973,1.33804333209991,2.74748373031616,-1.38330340385437,0.02836286090314,9.95519351959229,0.91034752130508,-0.02107801474631,2.06047773361206,0.77863889932632,-0.4414701461792,0
259,1421999242,9.09847927093506,-3.71888375282288,1.30925333499908,1.19112813472748,-1.09399521350861,-0.36884850263596,9.91586112976074,0.94969910383224,-0.01665508188307,0.21207317709923,0.96366512775421,-0.36193627119064,0
260,1422032576,9.05338478088379,-3.7472243309021,1.34503698348999,0.19600437581539,-0.79372471570969,-0.14827190339565,9.94111442565918,0.85302710533142,0.00849322602153,-0.30872589349747,0.7090876698494,-0.37271282076836,0
261,1422065910,9.09236145019531,-3.80442833900452,1.36251866817474,1.37419497966766,-0.8662343621254,-0.14769564568996,9.99843311309814,0.82595241069794,-0.00639802310616,2.46476769447327,0.83660686016083,-0.33878237009048,0
262,1422099244,9.1251745223999,-3.75745511054993,1.32624745368958,1.6331969499588,-0.68116331100464,-0.41733333468437,9.93639945983887,0.94754892587662,-0.02972569130361,4.02453136444092,1.00306403636932,-0.08919306099415,0
263,1422132578,9.09152317047119,-3.71452736854553,1.30904960632324,-0.44716569781303,0.097113750875,0.00867950264364,9.91573905944824,0.99898540973663,-0.08571629971266,3.07710409164429,1.19770133495331,0.20826330780983,0
264,1422165912,9.0806360244751,-3.76082539558411,1.32807958126068,-0.58188855648041,0.56063318252563,0.73826366662979,9.91806697845459,0.9519881606102,-0.07833099365234,1.94981837272644,1.18382549285889,0.36304727196693,0
265,1422199246,9.09007263183594,-3.72082734107971,1.29860472679138,-0.31112384796143,1.00620448589325,1.05494546890259,9.92056846618652,0.93303871154785,-0.06309927999973,1.16733705997467,1.12854671478271,0.61486482620239,0
266,1422232580,9.09431457519531,-3.68526983261108,1.26457893848419,-1.32346606254578,1.17467224597931,1.00390589237213,9.92372035980225,0.87496316432953,-0.06251965463161,1.6403523683548,1.05209910869598,0.72272628545761,0
267,1422265914,9.08724021911621,-3.73153281211853,1.22582268714905,-1.37957036495209,0.82095420360565,0.61836421489716,9.90611362457275,0.89354574680328,-0.07469114661217,3.40134167671204,0.75618308782578,0.4288527071476,0
268,1422299248,9.06960678100586,-3.71685242652893,1.19983899593353,-0.24588830769062,0.18722562491894,0.26481929421425,9.89764022827148,0.97360706329346,-0.10231758654118,2.97682952880859,0.48740327358246,0.19815903902054,0
269,1422332582,9.06082916259766,-3.67673277854919,1.18317568302155,-0.11533397436142,-0.37288245558739,-0.0112823927775,9.89651393890381,0.96796488761902,-0.12360624223948,0.23513095080853,0.12529091536999,0.32362285256386,0
270,1422365916,9.08726215362549,-3.69155430793762,1.16609406471252,-1.23602414131165,-0.56378030776978,-0.20531779527664,9.92788124084473,0.92596662044525,-0.11863662302494,-2.15082335472107,-0.33099612593651,0.45686656236649,0
271,1422399250,9.10394096374512,-3.72716021537781,1.19129276275635,-1.83475279808044,-0.86719477176666,-0.47994351387024,9.94778251647949,0.95157849788666,-0.10238641500473,-3.65685439109802,-0.54346960783005,0.45839059352875,0
272,1422432584,9.08847808837891,-3.74283504486084,1.2069343328476,-2.13244938850403,-1.05829763412476,-0.62998276948929,9.93687057495117,0.94191187620163,-0.08434820175171,-4.47766447067261,-0.55064761638641,0.37686541676521,0
273,1422465918,9.08256149291992,-3.74670362472534,1.24006366729736,-2.31948637962341,-1.26021540164948,-0.3399829864502,9.9514331817627,0.88732373714447,-0.05209288746119,-5.13671493530273,-0.92024856805801,0.43318769335747,0
274,1422499252,9.0938835144043,-3.78668665885925,1.28059113025665,-2.7047336101532,-1.3217179775238,-0.19870334863663,9.96852684020996,0.84901982545853,-0.0240423027426,-5.6447114944458,-0.98234033584595,0.5212379693985,0
275,1422532586,9.06689453125,-3.81525349617004,1.33878266811371,-1.87919080257416,-1.48506271839142,-0.47557017207146,9.91523838043213,0.78112602233887,-0.0024339815136,-3.11120700836182,-0.6622868180275,0.58342218399048,0
276,1422565920,9.04604625701904,-3.76264071464539,1.31343197822571,-2.06278300285339,-1.17762088775635,-0.33390000462532,9.98095893859863,0.84932839870453,0.00502116885036,-0.7654932141304,-0.768310546875,0.76337057352066,0
277,1422599254,9.1276683807373,-3.85678243637085,1.36691308021545,-1.6681489944458,-1.01072216033936,-0.04669195786119,10.03357124328613,0.88569021224976,0.00094571651425,-1.03204131126404,-0.42585271596909,0.56867873668671,0
278,1422632588,9.13666343688965,-3.8343141078949,1.37288177013397,0.15472953021526,-1.21017456054688,-0.18590980768204,9.96444892883301,0.87929177284241,-0.01117935962975,-0.14691765606403,0.02317949384451,0.58342534303665,0
279,1422665922,9.08819007873535,-3.76504302024841,1.34881484508514,-0.99157643318176,-0.75257790088654,0.42558380961418,9.9159631729126,0.8662411570549,-0.03269826248288,1.1476731300354,0.50325113534927,0.61075395345688,0
280,1422699256,9.04329109191895,-3.81916785240173,1.39213144779205,-0.16659779846668,-0.14314937591553,0.88664436340332,9.95337104797363,0.83868592977524,-0.0192928314209,1.71977782249451,0.6934831738472,0.8177495598793,0
281,1422732590,9.08068752288818,-3.78320789337158,1.37075674533844,1.10909712314606,0.08891127258539,0.67663949728012,9.98119449615479,0.88151186704636,-0.03653296455741,1.73008334636688,1.23760879039764,1.17129755020142,0
282,1422765924,9.11436939239502,-3.73659610748291,1.33447265625,-0.08400965481997,0.61451590061188,0.62053489685059,9.92320156097412,0.87002271413803,-0.03068265505135,1.95530259609222,1.39854645729065,0.96358519792557,0
283,1422799258,9.065260887146,-3.78121185302734,1.32524013519287,-0.57552379369736,1.10255324840546,0.90210825204849,9.95983505249023,0.85646313428879,-0.03998792544007,1.47903120517731,1.56389248371124,0.8253116607666,0
284,1422832592,9.10145568847656,-3.80296683311462,1.30059397220612,0.83064240217209,0.98771214485168,0.78813171386719,9.97742176055908,0.87220388650894,-0.0412879884243,1.46925985813141,1.64108264446259,0.62543016672134,0
285,1422865926,9.09426879882812,-3.72704076766968,1.25531649589539,0.11882051825523,0.93904805183411,0.49879133701324,9.91867542266846,0.887098133564,-0.01963029429317,-0.10284780710936,1.45867228507996,0.56807374954224,0
286,1422899260,9.0390796661377,-3.7568690776825,1.27097547054291,-1.27730524539948,0.91764211654663,0.48308429121971,9.90296459197998,0.84684497117996,-0.00781645998359,-1.15171670913696,1.29940259456635,0.31221240758896,0
287,1422932594,9.03065204620361,-3.78633427619934,1.28208839893341,-0.26443830132484,0.46576371788979,0.29722574353218,9.91367053985596,0.81154227256775,0.02246592566371,-1.13406944274902,0.91197848320007,0.15844017267227,0
288,1422965928,9.042724609375,-3.76134395599365,1.28172159194946,0.03671260178089,-0.12968991696835,-0.07792024314404,9.94414043426514,0.786465883255,0.0131766917184,-1.23414790630341,0.71234357357025,0.04775168001652,0
289,1422999262,9.06607055664062,-3.77981543540955,1.2813640832901,-0.54693996906281,-0.47224691510201,-0.63461226224899,9.93794631958008,0.78971576690674,0.01897741481662,-0.38217025995255,0.25748443603516,-0.03974770754576,0
290,1423032596,9.05810451507568,-3.81380581855774,1.27434408664703,-0.52078938484192,-0.83784902095795,-0.89388316869736,9.92885684967041,0.80729502439499,-0.00178110203706,0.70086592435837,-0.03792920708656,-0.21069328486919,0
291,1423065930,9.05038928985596,-3.82399678230286,1.28444111347198,0.17450892925262,-1.20630049705505,-0.59705126285553,9.94642543792725,0.81238746643066,-0.02765561640263,1.74260818958282,-0.21569095551968,-0.33491805195808,0
292,1423099264,9.04802513122559,-3.80938625335693,1.27221262454987,0.15393552184105,-1.3626275062561,-0.34193593263626,9.94788551330566,0.85495352745056,-0.05236138403416,1.42919516563416,-0.28484207391739,-0.18290349841118,0
293,1423132598,9.06513595581055,-3.79488754272461,1.29849445819855,-0.50330233573914,-1.13913130760193,-0.13616351783276,9.94351959228516,0.8759633898735,-0.06403914093971,0.22158825397491,-0.26908385753632,0.14586432278156,0
294,1423165932,9.06473636627197,-3.79487156867981,1.30312263965607,-1.17080140113831,-0.82376843690872,0.107935115695,9.94592475891113,0.88310092687607,-0.04817065224051,-0.73985797166824,-0.10048181563616,0.21571014821529,0
295,1423199266,9.06265640258789,-3.77910923957825,1.32637476921082,-1.42097985744476,-0.50191932916641,0.40826967358589,9.93484973907471,0.85135442018509,-0.01628742739558,-1.20216405391693,-0.0904384329915,0.19013267755508,0
296,1423232600,9.06404209136963,-3.78456807136536,1.33770179748535,-1.54078316688538,-0.48118570446968,0.41254690289497,9.94821929931641,0.8196564912796,0.00069512333721,-1.52197706699371,-0.01262706145644,0.17687171697617,0
297,1423265934,9.06231689453125,-3.7654812335968,1.36276125907898,-1.13012206554413,-0.50287973880768,0.02498198673129,9.92166137695312,0.77997797727585,0.00602590944618,-0.36712920665741,0.06098383292556,-0.06450878083706,0
298,1423299268,9.05140399932861,-3.76012325286865,1.33365321159363,-1.49804198741913,-0.42045170068741,-0.30398431420326,9.97948360443115,0.82777220010757,0.01847647503018,-0.3614784181118,-0.02671404369175,-0.20418444275856,0
299,1423332602,9.10302734375,-3.81952404975891,1.35041689872742,-1.03962588310242,-0.45656555891037,-0.78490120172501,9.99322319030762,0.87718915939331,-0.01115770917386,-1.79909384250641,0.15371464192867,-0.43499329686165,0
300,1423365936,9.10285377502441,-3.76795172691345,1.36620354652405,-1.08919274806976,-0.39288595318794,-1.16209304332733,9.9139575958252,0.88784301280975,-0.00208785617724,-2.65973210334778,0.49559298157692,-0.32635706663132,0
301,1423399270,9.01733779907227,-3.7609691619873,1.3606481552124,-2.91860556602478,0.2652291059494,-0.59571301937103,9.86375999450684,0.81028413772583,-0.01275938749313,-2.03073811531067,0.70713466405869,-0.35642313957214,0
302,1423432604,8.98272132873535,-3.850665807724,1.39034116268158,-2.15148639678955,0.74193274974823,-0.16675148904324,9.92975330352783,0.79769998788834,0.03721181675792,-1.58725428581238,0.85498398542404,0.27109122276306,0
303,1423465938,9.04737281799316,-3.82345867156982,1.34334301948547,-1.55718839168549,0.99831593036652,-0.45598936080933,9.98841094970703,0.85354602336884,0.02997235395014,-1.99708330631256,0.81220442056656,0.87120974063873,0
304,1423499272,9.07910537719727,-3.8466374874115,1.31051802635193,-3.35454750061035,1.07859909534454,-0.09976149350405,9.93351078033447,0.84278225898743,0.03368558362126,-2.61741948127747,0.86296546459198,0.54967737197876,0
305,1423532606,8.99700832366943,-3.91207242012024,1.3402042388916,-2.19702577590942,0.63916832208633,0.55863553285599,9.94771099090576,0.72995412349701,0.04822529107332,-1.86303246021271,0.69842630624771,0.45253798365593,0
306,1423565940,9.03096294403076,-3.89407014846802,1.32543134689331,-0.53955072164536,0.16930313408375,0.81681132316589,9.97962760925293,0.75218522548676,0.04448433220387,0.17780336737633,0.47834280133247,0.69658857584,0
307,1423599274,9.04048347473145,-3.86135673522949,1.32183456420898,-0.86964720487595,0.02833084389567,0.5544605255127,9.9458065032959,0.82438856363297,0.02966533228755,-0.10267172008753,0.3705133497715,1.133176445961,0
308,1423632608,9.01621627807617,-3.8412811756134,1.32971489429474,-2.18477654457092,0.1091453358531,0.87810271978378,9.93972873687744,0.81885242462158,0.0343334749341,-0.19880896806717,0.44692879915237,1.09669101238251,0
309,1423665942,9.0273494720459,-3.87361168861389,1.35903990268707,-1.3526645898819,0.0565176345408,1.38406896591187,9.93796348571777,0.7768497467041,0.01916319131851,0.61868119239807,0.28090089559555,0.99809491634369,0
310,1423699276,9.0608491897583,-3.84539151191711,1.36988663673401,-0.30253082513809,-0.08251771330833,1.57337856292725,9.95351219177246,0.81048637628555,0.00294355396181,0.73705023527145,-0.41820099949837,0.83079922199249,0
311,1423732610,9.08288860321045,-3.86731910705566,1.34630584716797,0.21263341605663,0.29370400309563,2.08066987991333,9.95098972320557,0.92753231525421,-0.02466671168804,0.30388188362122,-0.90125000476837,-0.10898523777723,0
312,1423765944,9.07705116271973,-3.88600301742554,1.37658262252808,1.5929342508316,0.6876403093338,3.32434034347534,9.96736717224121,0.92287534475327,-0.05631382390857,-0.69043189287186,-1.28178441524506,-0.73269933462143,0
313,1423799278,9.07119369506836,-3.87618970870972,1.37574207782745,1.74513185024261,1.02939736843109,5.44515085220337,9.96989154815674,0.94781845808029,-0.04637238755822,-2.13413023948669,-0.85247075557709,-1.66493117809296,0
314,1423832612,9.12166118621826,-3.90956425666809,1.42197501659393,0.1475068628788,2.2611198425293,6.35652303695679,9.92385578155518,0.87859100103378,-0.23014885187149,-7.86057281494141,-2.4512619972229,0.09586201608181,0
315,1423865946,9.21815967559814,-3.89203143119812,1.39041912555695,-4.09342241287231,6.00840139389038,8.56211376190186,9.93592739105225,1.20237064361572,-0.22315433621407,-11.81509113311768,-3.89264273643494,-1.87100231647491,0
316,1423899280,9.11912536621094,-4.08565425872803,1.53015685081482,-8.17878532409668,9.90859603881836,14.14998531341553,9.85906314849854,1.05506658554077,-0.31891000270844,-18.66994285583496,-6.03784942626953,-3.40661692619324,0
317,1423932614,9.31440448760986,-4.31603860855103,1.6882107257843,-5.30651092529297,14.03016376495361,21.73917388916016,9.85100650787354,1.19268047809601,-0.53163576126099,-19.68086433410645,-10.03303337097168,-6.55059576034546,0
318,1423965948,9.4204683303833,-4.30054473876953,1.53372979164124,-12.28621196746826,24.14167213439941,34.80522155761719,9.82493209838867,1.66468048095703,-0.73786944150925,-27.89524078369141,-13.19439888000488,-14.59609603881836,0
319,1423999282,9.37267303466797,-5.04776525497437,1.9430525302887,-21.81040000915527,36.17119979858398,52.70441818237305,10.34571838378906,1.61621654033661,-0.51771032810211,-42.04579162597656,-16.69038200378418,-19.61332511901855,0
320,1424032616,9.42098903656006,-6.24859476089478,2.69606876373291,-30.66765213012695,45.06418228149414,71.90473937988281,10.1221342086792,1.23298108577728,-0.53764802217484,-46.22084426879883,-17.53846549987793,-22.94953727722168,0
321,1424065950,9.45095157623291,-7.31430959701538,3.15642261505127,-14.65555381774902,57.9947624206543,93.76226806640624,10.39691352844238,1.77450883388519,-0.17838424444199,-41.9569206237793,-17.03267097473145,-25.63106155395508,0
322,1424099284,9.01736450195312,-9.064866065979,4.35260820388794,5.04798221588135,73.51500701904297,121.92935180664062,10.5419454574585,1.41397249698639,0.1926533728838,-43.95219039916992,-12.21418952941895,-19.19758796691895,0
323,1424132618,7.83426475524902,-9.43920421600342,5.74284791946411,18.15721321105957,89.97361755371094,148.46942138671875,10.52655410766602,0.554358959198,0.91108399629593,-53.60524749755859,5.15672779083252,-7.7739462852478,0
324,1424165952,6.25089454650879,-10.27646160125732,6.72819328308105,46.29781723022461,103.47299194335938,165.43228149414062,10.38881587982178,0.37158989906311,1.36913776397705,-39.05954742431641,23.49377250671387,3.1816234588623,1
325,1424199286,4.56421422958374,-10.42205810546875,7.34761476516724,97.60725402832033,111.5810317993164,175.9376983642578,10.79149627685547,-0.55798971652985,1.83593702316284,-26.8060359954834,48.46478271484375,23.42874526977539,1
326,1424232620,3.57364749908447,-9.68250942230225,7.99040079116821,123.3940658569336,123.05870056152344,181.6001892089844,11.14390659332275,-0.46190842986107,2.35173511505127,-2.00800251960754,72.26123809814453,35.82587051391602,1
327,1424265954,2.16466569900513,-8.30426406860352,7.28679800033569,110.5315399169922,131.03472900390625,189.8684844970703,11.20086765289307,-0.28259986639023,2.57073664665222,5.32813882827759,102.39232635498048,38.05779647827148,1
328,1424299288,0.83267295360565,-8.51946830749512,8.03601455688477,110.60934448242188,128.8018341064453,186.9279327392578,11.34532833099365,-0.59844446182251,3.03573226928711,-18.74010848999023,117.89771270751952,56.32427978515625,1
329,1424332622,-0.55416309833527,-7.25595378875732,7.78393173217773,131.2293701171875,120.84186553955078,168.03746032714844,10.96095848083496,-1.1940690279007,3.72697567939758,-36.8482780456543,135.88267517089844,73.0577621459961,1
330,1424365956,-1.46748244762421,-5.89416217803955,7.44874382019043,122.76412963867188,107.69984436035156,144.69659423828125,10.6492280960083,-1.43360769748688,3.5664656162262,-37.12712860107422,144.08624267578125,84.07981872558594,1
331,1424399290,-1.59293687343597,-6.5274019241333,7.51875352859497,105.78215026855467,94.74766540527344,124.28382110595705,10.48633575439453,-1.67820107936859,3.78498935699463,-11.62363624572754,146.84408569335938,82.60144805908203,1
332,1424432624,-2.26278066635132,-5.45298528671265,6.85700607299805,101.57103729248048,84.08802032470703,97.22535705566406,9.97064685821533,-1.82185423374176,4.4006290435791,-8.54557228088379,142.67506408691406,93.31826019287108,1
333,1424465958,-2.80441427230835,-4.87141084671021,6.68397617340088,71.46585083007812,69.07115936279297,68.47986602783203,9.10224628448486,-2.84100222587585,4.31555604934692,-16.57965850830078,128.350830078125,122.9217529296875,1
334,1424499292,-1.88263809680939,-5.88214206695557,6.68411922454834,58.94785308837891,51.64012908935547,48.46295547485352,9.18895149230957,-1.65094566345215,3.77697515487671,61.11510467529297,123.46692657470705,98.68656158447266,1
335,1424532626,-2.38487100601196,-5.31848001480103,6.42251300811768,76.1851806640625,40.61515426635742,25.08516311645508,8.61773109436035,-1.53740918636322,4.42282629013062,85.39261627197266,118.60678100585938,74.76144409179688,1
336,1424565960,-3.08532166481018,-3.43941187858582,5.78279876708984,72.58613586425781,22.03820419311523,-7.75234746932983,7.62098503112793,-1.01278400421143,5.83833980560303,15.81820964813232,115.26502990722656,74.27891540527344,1
337,1424599294,-2.57491731643677,-2.02988791465759,5.43724203109741,3.54163670539856,6.02851295471191,-25.12120056152344,6.44764423370361,-1.77854549884796,5.50314474105835,-34.14775848388672,104.38780975341795,81.72418212890625,1
338,1424632628,-1.42324006557465,-2.95430850982666,5.76936149597168,-72.96321105957031,-6.33679294586182,-38.54918670654297,5.89038419723511,-3.04604458808899,6.49518775939941,-25.2945613861084,90.89926147460938,79.7149658203125,1
339,1424665962,-0.5753847360611,-3.87897276878357,5.27783393859863,-118.08196258544922,-8.99964046478271,-46.84989929199219,5.00800371170044,-2.61100602149963,5.84597158432007,8.850341796875,62.8734016418457,67.0916976928711,1
340,1424699296,0.27907082438469,-5.74831485748291,5.12414932250977,-103.69269561767578,-10.89152526855469,-54.02164459228516,4.85492706298828,-2.67408061027527,5.96425628662109,38.20299530029297,45.26076889038086,51.31314849853516,1
341,1424732630,-0.4160421192646,-5.29077768325806,5.02091884613037,-62.63719940185547,-8.93661975860596,-63.87510299682617,4.51580142974854,-2.32029438018799,6.39518976211548,42.37594604492188,31.17282295227051,50.04781341552734,1
342,1424765964,0.16905470192432,-6.4950795173645,6.59985876083374,-48.58230590820312,-5.01733446121216,-57.83472442626953,4.34624671936035,-1.73218655586243,6.54212045669556,41.15904235839844,19.39582252502441,41.28787994384766,1
343,1424799298,-0.04073021933436,-5.49840354919434,6.51317501068115,-25.05158615112305,3.82488465309143,-58.13884353637695,4.73935413360596,-1.1493536233902,7.27896738052368,1.21264672279358,8.87216663360596,32.92670822143555,1
344,1424832632,-0.91265153884888,-5.31404542922974,5.60666036605835,-43.79275131225586,0.17309406399727,-45.98778915405273,4.28151941299438,-1.55880188941956,7.45078897476196,-27.99368667602539,-0.87635499238968,17.04998588562012,1
345,1424865966,-0.03688992932439,-6.51809597015381,8.2988977432251,-16.01608085632324,0.84050440788269,-41.69083786010742,4.51587295532227,-2.47672510147095,8.22083759307861,-36.98122406005859,-3.33939671516418,7.49203205108643,1
346,1424899300,-1.65871107578278,-7.54516124725342,8.57476139068604,27.85703086853027,-6.31063318252563,-26.44573974609375,4.37521266937256,-2.29752945899963,8.72600841522217,-33.14677047729492,4.08199262619019,-1.93242871761322,1
347,1424932634,-1.67653548717499,-6.76905059814453,7.74816799163818,12.74995708465576,-11.45329189300537,4.71093940734863,4.52065181732178,-3.72025299072266,8.30982494354248,-14.68986701965332,7.71562004089355,-8.49783897399902,1
348,1424965968,-0.66795080900192,-6.34423589706421,6.81599426269531,19.25513076782227,-13.42074203491211,7.02758264541626,4.37950134277344,-3.88463687896729,7.43471384048462,33.29813385009766,1.90820562839508,-11.967942237854,1
349,1424999302,-0.03495944663882,-5.43627786636353,6.79592418670654,15.17307281494141,-2.76868057250977,12.24156761169434,3.71495747566223,-1.73762929439545,6.54995727539062,49.48686218261719,-12.3643045425415,-21.37998008728027,1
350,1425032636,0.33414298295975,-5.33211994171143,6.19070291519165,-4.78357648849487,11.8866662979126,32.28627395629883,3.9399733543396,-0.22981384396553,6.12906885147095,15.46561622619629,-26.6702938079834,-37.23333740234375,1
351,1425065970,-0.21932131052017,-6.33507251739502,6.5075831413269,-23.21138572692871,20.85460662841797,58.74318695068359,4.64050340652466,-1.39563930034637,6.50426340103149,-36.69199752807617,-34.86287689208984,-47.21284484863281,1
352,1425099304,-0.61638069152832,-7.27396011352539,6.41185855865479,-19.49140548706055,21.67924118041992,76.67501068115234,5.386634349823,-2.47355961799622,6.65985107421875,-53.50911712646484,-43.98292922973633,-54.20943450927734,1
353,1425132638,-0.66771900653839,-7.06256437301636,5.46566677093506,-6.57499694824219,23.40243911743164,87.14045715332031,5.95335292816162,-2.72251486778259,6.47018814086914,-47.89208984375,-55.138916015625,-56.56114196777344,1
354,1425165972,-2.00179481506348,-6.12533044815063,4.58344459533691,-6.8967137336731,18.00497055053711,85.14739227294922,6.52688598632812,-2.74603843688965,5.77253770828247,-28.74884033203125,-61.01782989501953,-56.67304611206055,1
355,1425199306,-1.75625610351562,-7.23438835144043,5.20246887207031,-3.12474536895752,10.59493923187256,78.17780303955078,6.59127950668335,-3.22581553459167,5.69991540908813,-13.038987159729,-76.05728149414062,-59.17486953735352,1
356,1425232640,-2.45567202568054,-5.02052164077759,5.3010778427124,-8.47106838226318,14.71334075927734,69.92572784423828,6.78228187561035,-3.30010414123535,6.27769565582275,-16.37636375427246,-89.7376937866211,-64.12946319580078,1
357,1425265974,-3.08369302749634,-5.44557285308838,5.35434150695801,-35.93533706665039,1.80949509143829,59.83851623535156,7.54874324798584,-2.60531234741211,5.97380113601685,-3.97367429733276,-95.70508575439452,-82.8234634399414,1
358,1425299308,-2.98614621162415,-5.44814586639404,5.20753479003906,-27.71175193786621,-9.40793800354004,37.57826614379883,8.20140361785889,-1.87631070613861,5.24541521072388,0.93082404136658,-110.85282135009766,-88.22801971435547,1
359,1425332642,-3.7727324962616,-5.04905652999878,5.24136018753052,-33.19292068481445,-25.877685546875,14.27689647674561,9.05795478820801,-2.24903392791748,4.58173513412476,2.33415937423706,-116.3119888305664,-97.68301391601562,1
360,1425365976,-3.43891954421997,-5.36238765716553,5.50962448120117,-23.49407386779785,-37.78684997558594,-22.00297355651855,8.98970031738281,-1.98172736167908,5.1970329284668,10.81543350219727,-121.4322509765625,-89.48554992675781,1
361,1425399310,-4.41450977325439,-4.95367002487183,5.81423664093018,-21.08312606811523,-57.04439163208008,-50.40346527099609,9.95652961730957,-1.59830546379089,4.6076807975769,13.51616668701172,-116.06568145751952,-95.87050628662108,1
362,1425432644,-2.89331650733948,-5.577721118927,6.31795024871826,-38.17966842651367,-71.08828735351562,-79.08057403564453,10.30417919158936,-1.16307473182678,3.53756356239319,20.20337867736816,-125.77507781982422,-91.15579223632812,1
363,1425465978,-2.25377130508423,-5.78325843811035,6.19648694992065,-59.23452377319336,-78.61747741699219,-111.41152954101562,10.24065208435059,-0.05300471186638,3.36141180992126,-0.93245190382004,-128.22491455078125,-93.864990234375,1
364,1425499312,-2.71173572540283,-7.03879022598267,6.20344924926758,-75.59707641601562,-84.1671142578125,-133.01858520507812,10.8307580947876,-0.02282255515456,3.07869672775269,-24.03408813476562,-125.32119750976562,-85.98902893066406,1
365,1425532646,-2.43421053886414,-8.47787475585938,6.90889501571655,-81.9084701538086,-100.15155792236328,-139.3109893798828,10.73453426361084,-0.73579102754593,2.30130124092102,-3.6491072177887,-107.12433624267578,-84.5499496459961,1
366,1425565980,-0.35466575622559,-7.85592842102051,7.21142196655273,-91.52178192138672,-96.19476318359376,-148.1251678466797,10.37135982513428,-0.23212239146233,2.1367039680481,7.36033487319946,-100.13138580322266,-72.09153747558594,1
367,1425599314,-0.36947023868561,-9.55803203582764,7.35699558258057,-104.25668334960938,-84.29898071289062,-141.66107177734375,10.99130058288574,0.66118878126144,1.77909588813782,22.4439754486084,-84.51962280273438,-62.43661117553711,1
368,1425632648,0.18818774819374,-9.7682466506958,7.42937803268433,-67.93275451660156,-87.03529357910156,-146.7406463623047,10.7563591003418,1.07505714893341,1.1077789068222,16.79541015625,-66.04539489746094,-49.307861328125,1
369,1425665982,1.90506279468536,-10.09993648529053,7.49882459640503,-38.27251815795898,-77.6425552368164,-145.10482788085938,10.82328701019287,2.01778435707092,0.99006772041321,-1.32977962493896,-53.34281539916992,-35.67903900146484,1
370,1425699316,2.03638553619385,-9.18414974212646,6.81473064422607,-19.24378204345703,-71.43421936035156,-139.8371124267578,10.68970108032227,1.31588876247406,0.70851296186447,-14.57529640197754,-33.55830383300781,-20.17039489746094,1
371,1425732650,2.63204598426819,-9.07841968536377,6.6429967880249,-20.17385292053223,-72.8458251953125,-129.9439239501953,10.08158588409424,1.09255230426788,0.89333766698837,-3.16576528549194,-19.46938896179199,-10.86862277984619,1
372,1425765984,4.57983255386353,-8.93612384796143,5.82054090499878,-12.70774173736572,-67.96871185302734,-117.09674835205078,9.83023452758789,1.85034573078156,0.04480614513159,7.93948602676392,-6.02446746826172,-9.27752590179443,1
373,1425799318,4.66109037399292,-8.39790916442871,5.1690731048584,-24.32336807250977,-62.30422973632812,-100.8554458618164,9.73784828186035,1.48986661434174,0.14621306955814,21.82629013061523,-0.89103347063065,-1.5020158290863,1
374,1425832652,5.89079904556274,-8.24646091461182,4.63810110092163,-23.31706809997559,-58.18283843994141,-89.14617156982422,9.69773960113525,1.89612257480621,-0.6900047659874,25.35610389709473,2.27494406700134,-0.5977418422699,1
375,1425865986,7.1858959197998,-8.73391532897949,4.14560174942017,-30.03641700744629,-45.8220100402832,-73.223388671875,9.34946250915527,3.1271960735321,-1.41719317436218,19.8221321105957,-6.41763401031494,0.83220970630646,1
376,1425899320,8.29140663146973,-8.36658382415771,3.6085946559906,-31.68408966064453,-17.01905632019043,-52.31367874145508,9.35150051116943,4.28867816925049,-1.82284104824066,1.94952368736267,-18.34328460693359,-3.6454610824585,1
377,1425932654,8.4961633682251,-9.47373008728027,3.55454421043396,-23.02968215942383,9.06481838226318,-17.87459754943848,10.04244709014893,4.65592384338379,-1.59239625930786,-35.32394409179688,-22.63809204101562,-11.24639415740967,1
378,1425965988,8.37326240539551,-9.39708518981934,4.22875118255615,-6.88538885116577,30.59857940673828,16.4046802520752,10.1185474395752,3.52174592018127,-1.08352148532867,-55.16535186767578,-22.3831672668457,-13.59838390350342,1
379,1425999322,7.22147369384766,-9.04128932952881,4.8026556968689,2.3263201713562,45.71853637695312,45.440673828125,9.83995342254639,2.35301995277405,-0.58880496025085,-59.67817687988281,-17.52392768859863,-11.46604919433594,1
380,1426032656,6.55231952667236,-9.40843677520752,5.29516172409058,19.27327728271484,57.81624221801758,68.46852111816406,9.81028079986572,2.09932494163513,-0.29663929343224,-44.43855285644531,-14.07277679443359,-12.75533866882324,1
381,1426065990,5.79971599578857,-9.51316356658936,5.59458541870117,33.39494705200195,69.39562225341797,94.60499572753906,10.08889579772949,2.0260636806488,0.19353157281876,-23.11481475830078,-6.07641267776489,-12.64165592193604,1
382,1426099324,4.79610681533813,-9.65865802764893,6.24482202529907,35.51866149902344,79.50980377197266,120.4517822265625,10.20605850219727,1.73724710941315,0.23885411024094,-5.32595443725586,6.31848239898682,-2.04892182350159,1
383,1426132658,3.53476166725159,-9.51165962219238,6.73228311538696,50.67787933349609,87.78863525390625,138.48768615722656,10.43236446380615,1.77846240997314,0.6570115685463,7.2048807144165,24.82028579711914,12.12929725646973,1
384,1426165992,1.84020662307739,-9.41788101196289,7.34095239639282,71.82821655273438,90.77967834472656,154.54342651367188,10.3289852142334,1.02294147014618,0.81267082691193,12.31961822509766,47.12614440917969,30.44224548339844,1
385,1426199326,0.75923264026642,-8.05498218536377,7.42871379852295,84.05626678466797,94.4777374267578,162.6168670654297,10.6345739364624,0.60866868495941,1.2681987285614,17.795166015625,67.97667694091797,50.04195785522461,1
386,1426232660,-0.12783154845238,-8.46641826629639,7.68091440200806,109.37680053710938,94.79485321044922,166.9141082763672,11.13683986663818,1.1617819070816,1.50785517692566,24.29545021057129,90.5075912475586,61.05936431884766,1
387,1426265994,-0.79260563850403,-7.58387231826782,7.82928276062012,118.6999053955078,96.58338165283205,167.8853302001953,11.30381107330322,0.85461044311523,1.83519244194031,12.69692802429199,110.92416381835938,77.33901977539062,1
388,1426299328,-1.87463665008545,-6.42686605453491,8.07785320281982,113.3319091796875,94.84174346923828,161.20262145996094,11.14375305175781,0.44849082827568,2.24262809753418,-7.02184152603149,125.37091064453124,88.44351196289062,1
389,1426332662,-2.30354261398315,-6.87406492233276,8.65293121337891,128.4282989501953,89.9002685546875,150.3932647705078,11.08098697662354,0.02031935565174,2.58849501609802,-16.53864669799805,136.9450225830078,96.5117416381836,1
390,1426365996,-2.71399879455566,-4.96188116073608,8.13560485839844,129.3490753173828,85.20609283447266,126.6169662475586,11.12103843688965,-0.1503734588623,3.1698477268219,-20.94100761413574,140.774658203125,100.3100814819336,1
391,1426399330,-4.05511283874512,-4.9810209274292,7.67005777359009,100.57529449462892,78.29159545898438,112.36412811279295,10.95624923706055,-0.43117606639862,3.53755450248718,-13.77909374237061,149.5698699951172,100.86327362060548,1
392,1426432664,-4.75036382675171,-3.09396910667419,6.78054189682007,84.81748962402344,57.67385864257812,81.8560562133789,10.24442100524902,-1.13655424118042,3.9223415851593,-7.47979593276978,149.09840393066406,105.14218902587892,1
393,1426465998,-4.36539316177368,-3.69517207145691,7.35459184646606,49.70635223388672,36.44625091552734,58.86540603637695,9.37241840362549,-2.01425361633301,4.24639177322388,8.23617649078369,141.70980834960938,104.52523803710938,1
394,1426499332,-3.65323376655579,-3.90682148933411,7.34550905227661,32.20803833007812,27.92910194396973,29.21293067932129,9.09167385101318,-1.58298599720001,4.26119565963745,27.31530570983887,134.37429809570312,100.09678649902344,1
395,1426532666,-3.97280073165894,-2.61798000335693,6.59003305435181,2.54272389411926,21.62543296813965,0.36315840482712,8.40058612823486,-1.80215668678284,5.27563333511353,30.74741172790527,124.1791763305664,91.90403747558594,1
396,1426566000,-3.87810182571411,-2.8106632232666,5.66516876220703,-37.58007049560547,9.27308177947998,-24.2331371307373,7.22079133987427,-1.3666045665741,5.53579521179199,8.64585590362549,113.17246246337892,90.53726959228516,1
397,1426599334,-3.25190162658691,-3.7583749294281,5.14355421066284,-76.13785552978516,-6.75647354125977,-39.51862335205078,6.32270336151123,-1.70140290260315,5.20555830001831,6.23689603805542,105.14704132080078,78.88655090332031,1
398,1426632668,-2.53838706016541,-5.25741529464722,6.12275171279907,-68.82526397705078,-16.70244598388672,-56.20458221435547,5.70710229873657,-3.30570602416992,6.10113668441772,4.29464912414551,86.65113067626953,76.36064147949219,1
399,1426666002,-1.79493153095245,-4.73975086212158,5.62257814407349,-44.23995590209961,-14.34067344665527,-79.93600463867188,5.3910083770752,-3.15751791000366,6.50129890441895,29.30908012390137,69.17585754394531,77.8787612915039,1
400,1426699336,-1.53520131111145,-5.73159027099609,5.4867844581604,-34.14057922363281,-17.30160331726074,-90.31381988525392,5.2734899520874,-2.60365509986877,6.83406162261963,55.47716903686523,62.58115005493164,62.75323867797852,1
401,1426732670,-1.43681728839874,-5.22930097579956,5.80347299575806,-5.54492998123169,-19.17098617553711,-109.17156982421876,4.25986671447754,-2.30728554725647,6.74964761734009,23.91085815429688,53.2944221496582,57.63532257080078,1
402,1426766004,-0.01565071009099,-4.85502195358276,6.02045679092407,-28.03686904907227,-13.37387561798096,-101.63888549804688,3.09049606323242,-0.95736408233643,6.38749027252197,5.05000400543213,39.81313705444336,39.08164596557617,1
403,1426799338,0.04776408150792,-6.42869567871094,6.34194231033325,-26.50722312927246,1.25125133991241,-95.52174377441406,3.82275390625,-1.97451138496399,6.90974998474121,-34.48003005981445,19.66375160217285,45.72817230224609,1
404,1426832672,-0.00046995840967,-5.80257654190063,5.71028852462769,-23.18472480773926,6.97873830795288,-86.64900970458984,4.12430667877197,-2.51032257080078,7.62187623977661,-49.51374435424805,1.71312439441681,38.93464660644531,1
405,1426866006,-0.34649267792702,-6.46166896820068,6.61497354507446,-37.48622512817383,9.49240875244141,-69.92605590820312,3.95129919052124,-3.44639229774475,8.04947471618652,-41.48554992675781,-3.22675824165344,27.11420440673828,1
406,1426899340,-0.66789191961288,-6.04697322845459,6.61432313919067,-50.73722076416016,12.50776767730713,-56.32380294799805,3.57472348213196,-3.46954226493835,7.97487163543701,-14.33402252197266,-1.99433755874634,23.1240062713623,1
407,1426932674,-0.67348659038544,-8.30734539031982,7.8698148727417,-58.03271484375,26.22696304321289,-29.81476974487305,3.99138021469116,-2.46884274482727,8.35200786590576,-2.06944513320923,-4.49693489074707,13.80760383605957,1
408,1426966008,-1.3714724779129,-7.3922758102417,5.96102952957153,-61.58987808227539,22.41183853149414,-3.00719356536865,4.41738080978394,-3.48372626304626,8.236159324646,-16.96194076538086,-9.63371086120605,4.28705835342407,1
409,1426999342,-0.94170552492142,-8.20212459564209,5.54155349731445,-28.46368026733398,5.84705877304077,1.01335942745209,3.89996385574341,-3.99336838722229,7.79040384292603,18.0833740234375,-12.57710361480713,-6.94829368591309,1
410,1427032676,-1.69661164283752,-6.95201253890991,6.33509302139282,-21.46450996398926,5.04970169067383,10.35734462738037,3.70500946044922,-4.59486865997314,8.20158767700195,23.88863754272461,-6.25444173812866,0.34165072441101,1
411,1427066010,-2.43956685066223,-7.89980411529541,7.43398666381836,-11.87597179412842,5.97033643722534,4.02454710006714,3.9782247543335,-3.66105699539185,8.8700065612793,3.57840943336487,1.01560151576996,3.5784478187561,1
412,1427099344,-2.67289185523987,-8.23756790161133,7.03100967407227,-3.57289218902588,1.3926203250885,1.07851898670197,3.74727249145508,-3.79306554794312,8.65149688720703,-20.99751472473145,3.12776565551758,-2.70897960662842,1
413,1427132678,-1.990398645401,-7.62302112579346,6.4185619354248,-2.23134708404541,-4.52238798141479,10.15515232086182,3.37769460678101,-3.90486526489258,7.73855638504028,-12.84631538391113,-1.29789876937866,-7.53413581848145,1
414,1427166012,-1.36073243618011,-7.37537002563477,5.30294513702393,-0.76701927185059,-6.25512313842773,21.54814720153809,3.48345446586609,-2.86788415908813,6.68861722946167,9.42561912536621,-10.92399597167969,-19.07145500183105,1
415,1427199346,-0.42502793669701,-6.77631187438965,4.50896549224854,4.86603927612305,-4.36239624023438,38.92629241943359,3.51226925849915,-2.36426496505737,6.1706690788269,4.05571269989014,-23.95435333251953,-29.33426666259766,1
416,1427232680,-0.19918084144592,-6.89363145828247,5.24840402603149,16.91836547851562,-1.25224363803864,59.57834625244141,3.91643762588501,-2.33027124404907,6.5348539352417,-8.55941009521484,-32.94991302490234,-40.31464767456055,1
417,1427266014,0.18147031962872,-6.61472702026367,5.67382669448853,19.7161750793457,5.10707807540894,77.44727325439453,4.58231973648071,-2.03468441963196,6.72723865509033,-19.48967933654785,-41.84450531005859,-55.15642166137695,1
418,1427299348,0.15315900743008,-7.09525728225708,5.49205017089844,13.54796504974365,9.94353008270264,96.76908111572266,5.34790754318237,-2.1912477016449,6.61599731445312,-42.21554183959961,-55.31060791015625,-72.28970336914062,1
419,1427332682,-0.74406552314758,-7.60832166671753,5.69470262527466,22.57908630371094,6.57155752182007,105.42247772216795,6.11251449584961,-2.86335968971252,6.67409515380859,-50.32559204101562,-58.30239486694336,-85.26480102539062,1
420,1427366016,-1.26827549934387,-6.91405057907104,5.73895597457886,45.62669372558594,-1.25390779972076,100.12683868408205,6.30506372451782,-3.47775888442993,6.28476619720459,-31.9878978729248,-64.95207214355469,-96.53952026367188,1
421,1427399350,-1.65932965278625,-6.20536375045776,5.34498643875122,47.10210800170898,-0.45775559544563,89.73345184326172,7.47725582122803,-3.21004629135132,5.94346570968628,-2.3117036819458,-77.44502258300781,-99.6087646484375,1
422,1427432684,-3.35354208946228,-6.14951276779175,5.19321966171265,40.65834045410156,-4.60086154937744,74.81080627441406,7.64899206161499,-2.98402953147888,5.86099624633789,14.32417774200439,-85.47748565673828,-100.12361145019533,1
423,1427466018,-3.13336420059204,-5.87573099136353,5.92981433868408,25.09518623352051,-11.57602119445801,64.97863006591797,7.65814590454102,-2.61794781684875,5.07596015930176,32.61132049560547,-101.06111907958984,-108.19342803955078,1
424,1427499352,-3.19516229629517,-5.81119346618652,5.5415186882019,0.26975640654564,-4.43657350540161,50.76385116577148,9.17858028411865,-2.35582327842712,4.42166471481323,48.02814102172852,-128.13795471191406,-96.87397003173828,1
425,1427532686,-4.90980434417725,-5.49286890029907,5.35869836807251,-16.94758224487305,-3.01846170425415,30.84871673583984,9.50224876403809,-1.26084494590759,5.18019866943359,37.12231063842773,-137.45375061035156,-106.43418121337892,1
426,1427566020,-6.41849279403687,-4.49895715713501,5.39647150039673,-43.71064376831055,-21.83977127075195,14.57839870452881,9.82251167297363,-1.05340671539307,4.45859813690186,22.24077224731445,-140.8399658203125,-109.22978973388672,1
427,1427599354,-4.43126678466797,-5.56373834609985,6.90240478515625,-57.30021286010742,-42.17793273925781,-14.2181568145752,9.46914291381836,0.15988336503506,3.39137387275696,27.74316596984863,-148.73703002929688,-113.95465850830078,1
428,1427632688,-5.79218721389771,-4.02432680130005,6.94505500793457,-53.90869140625,-44.70185089111328,-39.44540786743164,10.91678237915039,0.64889127016068,3.61092567443848,1.85236287117004,-140.2074432373047,-106.200927734375,1
429,1427666022,-6.55659914016724,-5.52985525131226,5.82497358322144,-81.3650131225586,-62.59921646118164,-58.23060607910156,11.53785133361816,0.03796671330929,2.06522989273071,14.92792129516602,-137.76123046875,-94.72523498535156,1
430,1427699356,-4.54708909988403,-5.74621868133545,7.01858282089233,-70.16650390625,-76.06019592285156,-88.6496810913086,10.19950103759766,-0.61492049694061,1.81542611122131,39.43030166625977,-134.00762939453125,-92.48518371582033,1
431,1427732690,-3.17881441116333,-5.34083843231201,6.52033853530884,-75.47063446044922,-72.18114471435547,-118.7592315673828,10.59494209289551,2.49762868881226,1.0826336145401,15.76803970336914,-129.6322021484375,-83.49591827392578,1
432,1427766024,-3.97143602371216,-7.06598567962646,6.73611497879028,-78.7395248413086,-79.09285736083984,-134.23716735839844,11.07626342773438,2.55543684959412,0.46102252602577,-24.21316337585449,-113.7836685180664,-69.61077880859375,1
433,1427799358,-1.78292500972748,-5.45530700683594,7.1823296546936,-91.57662200927734,-88.46604919433594,-154.74703979492188,10.9902811050415,0.68132472038269,0.28024032711983,-44.65095520019531,-104.91350555419922,-49.47428894042969,1
434,1427832692,-0.67884516716003,-8.46900177001953,7.37378168106079,-99.85093688964844,-72.46451568603516,-162.93238830566406,10.13741111755371,2.65622210502625,0.76898288726807,-28.24561500549316,-83.1182632446289,-51.23699951171875,1
435,1427866026,-0.89547860622406,-10.05903720855713,6.34602117538452,-67.22314453125,-76.54431915283203,-146.74253845214844,10.91111850738525,2.56340050697327,0.0786819010973,-16.83928871154785,-55.85193252563477,-52.1966438293457,1
436,1427899360,0.94009649753571,-8.82270050048828,6.65779495239258,-97.83788299560548,-83.60672760009766,-128.5433349609375,9.73136615753174,2.84356284141541,-0.44552525877953,14.34937858581543,-41.68759155273438,-38.50111389160156,1
437,1427932694,2.05664443969727,-8.76400184631348,7.28261184692383,-171.0844268798828,-40.78880310058594,-118.13437652587892,9.70567512512207,3.92971134185791,-0.46456491947174,19.87561416625977,-23.48928642272949,-29.14114189147949,1
438,1427966028,2.87165069580078,-14.08185005187988,8.47957324981689,-86.7464599609375,-28.71626281738281,-80.50091552734375,9.66923046112061,4.14093446731567,-0.64971619844437,1.68761265277863,-5.20028686523438,-23.97189331054688,1
439,1427999362,2.16341185569763,-12.3991584777832,7.06351470947266,42.42822647094727,-27.66623497009277,-56.3406867980957,9.36819458007812,3.9686279296875,-0.91399788856506,-0.3545980155468,9.31723976135254,-22.76962661743164,1
440,1428032696,2.61753034591675,-12.83588790893555,6.40314960479736,112.53714752197266,-26.04088973999023,-21.12539100646973,9.39880180358887,3.97540235519409,-1.45740413665771,10.46844577789307,19.20161056518555,-16.22237014770508,1
441,1428066030,2.27859592437744,-9.3880500793457,5.17337417602539,85.10052490234375,-9.27256965637207,13.0782527923584,9.63572216033936,3.76607275009155,-1.51024329662323,10.99764251708984,21.10976219177246,-5.69275760650635,1
442,1428099364,1.89261329174042,-10.41428089141846,6.02423667907715,21.08331298828125,19.51030158996582,40.49382781982422,9.52682209014893,3.4600248336792,-1.304159283638,0.57293683290482,18.6702823638916,6.17466259002686,1
443,1428132698,1.17457962036133,-10.49527263641357,6.54204750061035,40.55476760864258,37.95777130126953,56.92597579956055,10.01805686950684,2.20755434036255,-0.65464490652084,-5.63685607910156,24.12098503112793,26.22402954101562,1
444,1428166032,0.04029755294323,-9.90848350524902,7.88992404937744,56.09461975097656,57.59558486938477,79.11410522460938,9.99349021911621,1.80608296394348,0.60121768712997,6.93817520141602,46.94575881958008,43.93475723266602,1
445,1428199366,-1.67458021640778,-8.74317455291748,8.66614723205566,65.60803985595703,75.26844024658203,105.47747039794922,10.80579662322998,1.80049431324005,1.29997861385345,4.25151300430298,79.26708221435547,67.75379180908203,1
446,1428232700,-2.51727509498596,-8.45252513885498,9.24789714813232,65.04350280761719,79.80088806152344,137.11001586914062,11.27761745452881,1.75330150127411,1.43692982196808,-0.68134981393814,113.9689712524414,88.04904174804688,1
447,1428266034,-2.54108619689941,-8.93426132202148,9.91725540161133,95.39052581787108,84.3851547241211,150.84732055664062,11.73677825927734,1.41011381149292,1.46294093132019,-13.22536468505859,138.87844848632812,110.23667907714844,1
448,1428299368,-2.89344072341919,-7.98988103866577,9.3000545501709,119.19378662109376,97.8215789794922,150.46505737304688,11.84395313262939,1.26351046562195,1.97027254104614,-21.65458488464355,165.69613647460938,121.7460479736328,1
449,1428332702,-3.36590623855591,-8.14710330963135,9.06508350372314,141.46661376953125,95.05083465576172,139.16212463378906,11.9774055480957,1.22071969509125,2.56290864944458,-45.83487319946289,177.24813842773438,124.49228668212892,1
450,1428366036,-4.01963567733765,-5.97847414016724,7.95714426040649,134.6442108154297,91.71009063720705,117.02577209472656,11.37834739685059,-0.13700121641159,3.22207999229431,-73.46774291992188,175.6165771484375,144.2913360595703,1
451,1428399370,-4.1177544593811,-5.98104047775269,7.19156551361084,80.55618286132812,73.79668426513672,94.92876434326172,10.87679481506348,-0.97948324680328,3.31775140762329,-28.67480850219727,174.7278594970703,141.32945251464844,1
452,1428432704,-3.35860466957092,-7.10621309280396,7.51287412643433,83.3831787109375,54.224365234375,62.73287200927734,10.2500171661377,-1.01603758335114,3.82987308502197,16.10027694702148,172.27963256835938,127.32101440429688,1
453,1428466038,-3.37430953979492,-5.5187463760376,7.13385534286499,73.67638397216797,42.20365142822266,28.12816047668457,9.7510871887207,-1.17856991291046,4.55783843994141,14.35560607910156,158.41226196289062,131.5107421875,1
454,1428499372,-3.51177310943604,-3.375164270401,5.03318691253662,18.71508026123047,30.95386123657227,-6.16647338867188,8.68889236450195,-1.65732407569885,5.30314636230469,10.46322441101074,139.12521362304688,132.5524444580078,1
455,1428532706,-2.23426508903503,-5.0534234046936,5.62754344940186,-31.18398284912109,7.46026563644409,-26.71345901489258,7.11393594741821,-1.46602547168732,4.95231962203979,20.06705665588379,128.13739013671875,105.79015350341795,1
456,1428566040,-1.29547500610352,-5.68617296218872,5.58261632919312,-21.79036521911621,7.10560369491577,-51.65621948242188,6.43746566772461,-2.14517259597778,5.85128307342529,19.14414596557617,99.63543701171876,98.21347045898438,1
457,1428599374,-1.70736527442932,-3.49429965019226,3.85666394233704,-48.11621475219727,-8.59359836578369,-65.14506530761719,5.71834230422974,-2.04717993736267,6.07833290100098,26.21302604675293,93.76345825195312,82.26483154296875,1
458,1428632708,-0.77394270896912,-5.92676734924316,5.42077827453613,-45.53945541381836,-14.81067276000977,-82.27743530273438,4.96263980865479,-3.58533525466919,6.40390491485596,43.2467155456543,76.49805450439453,75.30146026611328,1
459,1428666042,-0.19728535413742,-6.25332880020142,5.60293245315552,-11.60623168945312,-17.81222724914551,-96.22496032714844,4.48203706741333,-2.01993060112,6.41111898422241,68.70227813720703,59.91817092895508,64.49800872802734,1
460,1428699376,-0.31814244389534,-6.21609973907471,5.27650690078735,4.2920560836792,-17.15170478820801,-93.85716247558594,4.13452625274658,-1.15480053424835,6.97200870513916,55.53690338134766,49.28488159179688,46.62265777587891,1
461,1428732710,-0.67760461568832,-6.00541639328003,6.25333404541016,8.59141540527344,-22.50474548339844,-87.85690307617188,3.87419176101685,-1.95064270496368,7.46962976455688,22.14258003234863,38.46843338012695,39.46467208862305,1
462,1428766044,0.05801226943731,-5.39368057250977,6.35047006607056,7.56599283218384,-16.3587703704834,-83.77349853515625,3.74166202545166,-1.81458330154419,7.71777296066284,22.28031539916992,29.35968399047852,35.74810028076172,1
463,1428799378,-0.47706016898155,-6.38613605499268,6.42090272903442,-0.71186202764511,-16.31136512756348,-73.10134887695312,3.08167910575867,-1.33977246284485,7.57674169540405,12.49551677703857,16.51259613037109,25.36546897888184,1
464,1428832712,-0.35051339864731,-6.22469329833984,6.89940881729126,11.13935279846191,-16.28483009338379,-55.77577972412109,3.47370910644531,-2.42907476425171,8.17017555236816,5.58374929428101,10.15707492828369,21.24035835266113,1
465,1428866046,-0.47118496894836,-5.06749582290649,6.87499713897705,-0.05184487253428,-11.05347156524658,-45.01163482666016,3.01817417144775,-1.9518495798111,8.20192909240723,13.88741111755371,7.16112661361694,16.72834014892578,1
466,1428899380,-0.52850258350372,-6.17741680145264,7.39240980148315,-14.41617965698242,-4.83471202850342,-32.45551681518555,3.37059879302979,-1.95957159996033,8.75448036193848,0.62240946292877,1.67256486415863,13.97450542449951,1
467,1428932714,-1.01637399196625,-6.64921569824219,8.057541847229,3.11582970619202,-9.87457656860352,-27.82653617858887,3.5898072719574,-2.67856049537659,9.18315410614014,-3.72351217269897,5.2865195274353,7.32125234603882,1
468,1428966048,-0.85386550426483,-6.53608655929565,8.01480388641357,26.97452354431152,-17.23377990722656,-32.19404983520508,3.06468510627747,-2.74657940864563,9.19881629943848,14.87893867492676,8.57464790344238,2.01627206802368,1
469,1428999382,-0.39327204227448,-5.83129835128784,8.26389217376709,33.60258483886719,-18.70052337646484,-29.28798866271973,2.66152477264404,-2.00372958183289,8.49687671661377,20.20417022705078,7.90000772476196,-0.19625541567802,1
470,1429032716,0.23496328294277,-5.86560106277466,8.27954483032227,-6.50727796554565,6.94474697113037,3.98880624771118,3.07538366317749,-0.72672778367996,8.14973163604736,-1.37943339347839,1.54981231689453,-5.75900220870972,1
471,1429066050,0.26299118995667,-6.2516188621521,7.61088752746582,-25.61836433410645,16.0572566986084,32.85576629638672,2.80591177940369,-0.37983846664429,7.33365535736084,-24.13219833374023,-17.00222015380859,-23.9117603302002,1
472,1429099384,0.88138490915298,-5.48165416717529,6.83665704727173,2.22409892082214,22.28285598754883,60.03435897827148,3.33940076828003,-0.40487676858902,7.06420183181763,-49.09712219238281,-30.47210311889648,-40.53092956542969,1
473,1429132718,0.90739595890045,-5.77640628814697,6.50712251663208,-16.74661064147949,28.50592803955078,91.79620361328124,4.01128149032593,-1.68423664569855,7.19848346710205,-66.93036651611328,-36.46520233154297,-53.4568977355957,1
474,1429166052,0.81426221132278,-6.50857925415039,6.16041231155396,-20.10336494445801,29.67450904846191,115.01384735107422,3.93230962753296,-2.73273420333862,7.23756122589111,-54.89517593383789,-43.37582015991211,-64.03123474121094,1
475,1429199386,0.31340119242668,-6.01824045181274,5.37681674957275,-7.72796297073364,28.6018009185791,123.62563323974608,4.64598941802979,-3.21628355979919,7.01830959320068,-33.22927093505859,-56.22282028198242,-64.0690689086914,1
476,1429232720,-0.50266700983047,-6.36008882522583,5.40230703353882,13.57205390930176,19.50375938415527,114.51830291748048,5.26899147033691,-2.8420569896698,6.84865617752075,-16.80180740356445,-65.42723846435547,-74.17076873779297,1
477,1429266054,-1.61527013778687,-5.55528688430786,5.58878183364868,35.21395111083984,10.51028537750244,104.50759887695312,5.69957876205444,-2.22989439964294,6.93708992004395,-21.83411979675293,-71.23860168457031,-90.35623168945312,1
478,1429299388,-2.64452838897705,-5.15084552764893,6.14713382720947,37.94587707519531,-0.46987780928612,93.37383270263672,6.31834316253662,-2.53851342201233,6.77128219604492,-28.96950340270996,-82.2770767211914,-99.24832916259766,1
479,1429332722,-2.85026168823242,-4.74263048171997,6.00419998168945,13.74162673950195,-1.54648685455322,79.6944351196289,7.53581619262695,-3.00678730010986,6.93318223953247,-41.83060836791992,-97.32267761230467,-95.83210754394533,1
480,1429366056,-4.72683906555176,-4.70158100128174,5.76266717910767,-12.90772533416748,-12.61567687988281,63.44762420654297,7.83908367156982,-3.8229968547821,6.06490182876587,-19.43678283691406,-97.0786590576172,-97.09601593017578,1
481,1429399390,-3.2907497882843,-5.68248796463013,6.02831697463989,-26.85715293884277,-18.39517593383789,45.92139053344727,7.04956483840942,-3.5990743637085,5.42061948776245,27.44059181213379,-118.64609527587892,-90.01061248779297,1
482,1429432724,-3.93805384635925,-4.65188026428223,6.26405620574951,-28.71928215026855,-11.7864408493042,28.93852424621582,7.99175834655762,-1.98057079315186,5.13434934616089,53.82441329956055,-127.09835052490234,-90.7697982788086,1
483,1429466058,-4.50074529647827,-4.62670803070068,6.70667934417725,-47.55398941040039,-16.18682861328125,13.69764995574951,8.80932521820068,-0.68824744224548,4.79182243347168,42.44556045532227,-131.82171630859375,-90.40707397460938,1
484,1429499392,-4.57289552688599,-4.91938352584839,7.53364276885986,-53.91157913208008,-17.08444786071777,-7.82892322540283,9.32456398010254,0.06275720149279,4.42462110519409,25.55226135253906,-142.75054931640625,-82.42863464355469,1
485,1429532726,-5.07617664337158,-4.84204387664795,7.50810670852661,-59.27295684814453,-22.89915466308594,-25.53818893432617,10.43583679199219,0.64488017559052,4.21081924438477,-1.55080878734589,-136.1361846923828,-88.8158187866211,1
486,1429566060,-4.73548030853271,-5.41607522964478,8.22016620635986,-69.22927856445312,-32.32811737060547,-37.78601837158203,10.92598152160645,-0.40320187807083,3.6920599937439,5.061363697052,-128.48086547851562,-85.3679428100586,1
487,1429599394,-4.51106834411621,-5.50641632080078,7.95102977752686,-66.0070571899414,-38.09117126464844,-62.73875045776367,10.57027721405029,0.08063065260649,2.89043998718262,26.05236434936523,-126.95279693603516,-77.57920837402344,1
488,1429632728,-3.96860671043396,-6.99708366394043,8.00348949432373,-58.36885070800781,-39.93037414550781,-76.56707763671875,10.20104598999023,1.01859843730927,2.26022911071777,32.51380920410156,-123.55747985839844,-72.04660034179688,1
489,1429666062,-3.62887287139893,-7.04564094543457,7.71167707443237,-47.22421646118164,-41.74054718017578,-84.31184387207031,11.10132312774658,1.79174661636353,1.4151816368103,21.94043350219727,-119.07134246826172,-70.20349884033203,1
490,1429699396,-3.23605060577393,-6.69293355941772,7.54969644546509,-59.45316314697266,-43.41476440429688,-89.67745208740234,11.01233768463135,1.97314655780792,0.81099808216095,5.278480052948,-112.44406127929688,-69.25541687011719,1
491,1429732730,-2.62873482704163,-7.66043138504028,8.51533031463623,-56.79987716674805,-42.9337272644043,-95.86316680908205,11.03890991210938,2.42512130737305,0.7251410484314,-19.4090690612793,-100.39256286621094,-61.23677825927734,1
492,1429766064,-2.97950744628906,-7.8665509223938,8.05667114257812,-37.59797668457031,-43.56205749511719,-99.02284240722656,11.13674926757812,2.36118698120117,0.77751535177231,-37.19194793701172,-84.42903137207031,-52.27933883666992,1
493,1429799398,-2.49025893211365,-8.62774562835693,8.02665901184082,-46.53681564331055,-46.94583511352539,-83.6299057006836,10.39043140411377,1.93718564510345,0.46340066194534,-19.56422424316406,-67.7347412109375,-49.52856826782227,1
494,1429832732,-1.46432399749756,-8.15604400634766,8.50109481811523,-53.82156372070312,-41.59069442749023,-62.65752029418945,10.07028102874756,1.96400129795074,0.29400110244751,4.08475351333618,-49.78001403808594,-43.96549224853516,1
495,1429866066,-2.05726861953735,-8.86541652679443,8.88632774353027,-48.98865509033203,-26.63928031921387,-44.56220245361328,10.38732719421387,2.31483626365662,0.33209517598152,16.23880004882812,-30.23605346679688,-30.37320709228516,1
496,1429899400,-2.3835461139679,-9.08801078796387,9.74587154388428,-16.46929359436035,-13.6670446395874,-26.89950370788574,10.42510223388672,2.77279353141785,0.28947606682777,19.2399845123291,-4.97557163238525,-14.39093208312988,1
497,1429932734,-2.83172345161438,-9.0734281539917,10.16175079345703,36.32649993896484,-7.65966367721558,4.55553197860718,10.60849094390869,1.99702179431915,0.42461985349655,9.62224674224854,22.20566558837891,8.41754150390625,1
498,1429966068,-3.18649196624756,-7.20700979232788,9.29923057556152,45.15553283691406,6.74308300018311,33.1748161315918,10.40488719940186,1.70540118217468,0.46283435821533,19.62373733520508,48.7108268737793,28.84082221984863,1
499,1429999402,-3.72772288322449,-7.97403287887573,9.94334983825684,21.90911102294922,28.5299015045166,58.97515869140625,10.69921684265137,1.52701711654663,0.71086513996124,26.7653980255127,72.88323211669922,51.68689346313477,1
500,1430032736,-3.71439623832703,-7.85256338119507,9.4753532409668,66.9923095703125,46.43814086914062,71.92396545410156,10.90793991088867,1.89098846912384,0.71751856803894,18.45372581481934,95.90837097167967,68.65467834472656,1
501,1430066070,-3.5592668056488,-7.44770288467407,9.22041034698486,87.32843780517578,56.05903625488281,84.2820816040039,11.22176647186279,1.90846502780914,1.06221318244934,-8.01899337768555,116.2622528076172,80.88215637207031,1
502,1430099404,-3.71317148208618,-6.28923320770264,8.35355472564697,78.84584045410156,59.3759765625,91.81114196777344,11.2429838180542,1.24118101596832,1.25925648212433,-36.35858917236328,127.92000579833984,91.0884246826172,1
503,1430132738,-3.27890062332153,-7.91986227035522,9.02164268493652,91.56138610839844,52.78842926025391,88.49397277832031,11.32965660095215,1.3042551279068,1.31247901916504,-14.64668846130371,138.11181640625,94.5682373046875,1
504,1430166072,-2.62142777442932,-6.8704686164856,9.13123893737793,143.08676147460938,51.31493377685547,71.60624694824219,11.13468360900879,1.4770336151123,2.42072486877441,-12.60967540740967,147.96066284179688,90.235107421875,1
505,1430199406,-3.57003450393677,-3.4635603427887,6.79314613342285,130.25169372558594,37.91812896728516,44.87226486206055,10.58258056640625,1.20768857002258,3.13653063774109,-48.93196868896484,145.114013671875,90.10999298095705,1
506,1430232740,-3.40845799446106,-4.68036794662476,7.09678220748901,84.60575103759766,11.71802806854248,23.01036071777344,10.03557205200195,0.15549549460411,3.1230149269104,-21.85715866088867,138.47410583496094,83.01013946533203,1
507,1430266074,-2.90686893463135,-7.37814617156982,8.59928226470947,82.78925323486328,1.57874131202698,18.43427848815918,9.76209926605225,-0.99255484342575,3.11873340606689,19.47554779052734,135.01075744628906,81.5127182006836,1
508,1430299408,-2.80532598495483,-4.75643920898438,7.29468202590942,73.75469970703125,1.17383766174316,7.29066801071167,9.11712074279785,-0.90820038318634,4.14063215255737,30.42533683776855,121.96202850341795,79.84880828857422,1
509,1430332742,-2.71817350387573,-4.27013683319092,7.85755968093872,38.22293090820312,1.02207028865814,-2.31168675422668,8.2116003036499,-1.22493088245392,4.28467559814453,21.81477928161621,104.0846939086914,78.08599853515625,1
510,1430366076,-1.69349372386932,-7.14685344696045,9.08467292785645,47.91234970092773,11.1819953918457,0.22068654000759,8.02578353881836,-0.28039121627808,4.45278072357178,40.68340301513672,95.29364013671876,66.48471069335938,1
511,1430399410,-2.34973621368408,-3.89903020858765,7.51007461547852,40.22280502319336,22.74155807495117,2.53806471824646,7.97720527648926,0.02599147334695,4.97981071472168,16.96466827392578,88.83087921142578,55.80356597900391,1
512,1430432744,-3.21684861183167,-2.57836890220642,7.70392942428589,-7.74746227264404,24.64387130737305,-0.77786821126938,7.42210388183594,-1.62283229827881,5.92099046707153,-18.0918083190918,83.81270599365234,56.8673210144043,1
513,1430466078,-3.86810779571533,-3.95142316818237,8.65102958679199,-14.08283710479736,23.1716194152832,-14.97494411468506,6.86645364761353,-2.68637657165527,6.98479747772217,-46.2828483581543,76.29464721679688,73.13507843017578,1
514,1430499412,-4.06354665756226,-2.75925445556641,7.39877796173096,-2.22876358032227,11.7011194229126,-33.36857223510742,6.72577810287476,-2.58625197410583,7.84112501144409,-43.41590881347656,81.08061218261719,77.08370208740234,1
515,1430532746,-3.49271297454834,-2.32669973373413,7.72947454452515,-42.74388885498047,-2.81186819076538,-39.59504318237305,6.21502494812012,-2.69055676460266,8.04473114013672,-14.70781898498535,89.0194091796875,70.25491333007812,1
516,1430566080,-2.72681355476379,-3.64729619026184,8.63050746917725,-80.29335021972656,-15.68838119506836,-43.74395751953125,6.38923454284668,-3.82469367980957,8.36888980865479,24.6807746887207,94.92557525634766,69.81624603271484,1
517,1430599414,-1.8364816904068,-4.21872186660767,7.73503351211548,-78.32782745361328,-27.98293113708496,-64.20610046386719,5.31164979934692,-3.86884880065918,8.05325508117676,72.99311828613281,91.05686950683594,66.52915954589844,1
518,1430632748,-0.97621685266495,-5.01109647750854,7.03006839752197,-71.1549301147461,-30.19216156005859,-84.21575927734375,4.23913097381592,-2.86521816253662,7.23023414611816,112.29009246826172,84.32618713378906,60.21762084960938,1
519,1430666082,-0.59241366386414,-7.80060625076294,7.56497430801392,14.22292995452881,-36.32062911987305,-105.45713806152344,3.55090856552124,-1.41862809658051,7.35603380203247,105.23549652099608,73.5955581665039,52.78604125976562,1
520,1430699416,0.43772268295288,-5.403244972229,6.26813888549805,58.42399215698242,-42.28658294677734,-103.02469635009766,3.56319618225098,-0.19300067424774,7.10540342330933,76.20140838623047,61.82294464111328,37.51972961425781,1
521,1430732750,0.46708351373672,-4.92456674575806,6.30761814117432,34.01416778564453,-36.72953033447266,-82.09992980957031,2.73409152030945,-0.77542626857758,7.31243467330933,39.07650756835938,42.23712921142578,27.91246223449707,1
522,1430766084,0.8660843372345,-4.30433177947998,5.84886455535889,13.21138858795166,-27.409423828125,-67.43616485595703,2.07575583457947,-1.17280089855194,7.08562517166138,35.72612762451172,21.64359664916992,28.06380844116211,1
523,1430799418,0.94013613462448,-3.99338269233704,6.6574649810791,4.76584053039551,-12.47943782806396,-51.11967849731445,2.00061631202698,-0.40922868251801,7.53915119171143,36.68449401855469,2.67878818511963,23.16963386535645,1
524,1430832752,0.31477835774422,-3.45928740501404,7.06701517105103,-15.22200393676758,3.77805590629578,-33.67599487304688,2.54022812843323,-0.07541744410992,8.86853313446045,6.49201774597168,-2.89264345169067,23.91597175598145,1
525,1430866086,-0.12514980137348,-4.90885543823242,8.27374649047852,-31.82661247253418,8.1544017791748,-26.82225608825684,2.8608877658844,-0.44872072339058,9.50557613372803,-24.60215759277344,-2.41165995597839,15.4854907989502,1
526,1430899420,-0.04339249804616,-4.99569225311279,9.19552516937256,-33.55786895751953,6.67543268203735,-20.04247665405273,2.29089021682739,-0.84881454706192,9.37160491943359,-38.06636810302734,-7.52087926864624,4.50786113739014,1
527,1430932754,0.12235134840012,-5.01866912841797,8.7968578338623,-21.22554206848145,6.97752809524536,-6.72739601135254,2.05195355415344,-0.1566918939352,8.6157341003418,-34.03691864013672,-16.54963111877441,-9.14801788330078,1
