PacketCounter,SampleTimeFine,Forearm_Acc_X,Forearm_Acc_Y,Forearm_Acc_Z,Forearm_Gyr_X,Forearm_Gyr_Y,Forearm_Gyr_Z,Upper_Arm_Acc_X,Upper_Arm_Acc_Y,Upper_Arm_Acc_Z,Upper_Arm_Gyr_X,Upper_Arm_Gyr_Y,Upper_Arm_Gyr_Z,Activity
0,812437761,0.0,0.0,0.0,0.0,0.0,0.0,0.0,0.0,0.0,0.0,0.0,0.0,0
1,812454428,9.70552349090576,-1.05444324016571,1.57061100006104,2.91008186340332,2.41649913787842,5.91867351531982,9.89610767364502,-1.10121560096741,0.10400991141796,-0.00131905416492,2.65654325485229,2.99998378753662,0
2,812487762,9.66555118560791,-1.03523588180542,1.44998562335968,-4.94450521469116,1.56671452522278,7.77255630493164,9.83139801025391,-1.27546167373657,0.21650314331055,-3.28622531890869,2.28668022155762,3.13426232337952,0
3,812521096,9.67192840576172,-1.25490486621857,1.55095541477203,-6.30620241165161,0.09947027266026,8.63472366333008,9.85100078582764,-1.47431421279907,0.28480669856071,-2.95235109329224,0.249118745327,1.97927641868591,0
4,812554430,9.68613433837891,-1.22050845623016,1.69499289989471,1.07041621208191,-0.62559700012207,6.36719655990601,9.88248538970947,-1.53466331958771,0.33070436120033,-2.69935464859009,-0.70005917549133,0.50226831436157,0
5,812587764,9.6613941192627,-1.01113653182983,1.76384615898132,2.10523986816406,-1.88001108169556,2.77245044708252,9.92418193817139,-1.49068927764893,0.33603265881538,-1.96202218532562,-0.70931166410446,0.38655644655228,0
6,812621098,9.77389526367188,-0.88183486461639,1.94261825084686,-4.0384635925293,-1.65233957767487,-0.64289802312851,9.93657302856445,-1.50723528862,0.26831114292145,-2.39424967765808,0.2042164504528,0.68229669332504,0
7,812654432,9.78807926177979,-1.04841697216034,1.99384224414825,-10.54335784912109,-0.40003260970116,-2.30742645263672,9.96939182281494,-1.41987526416779,0.28802400827408,-4.4365496635437,1.19315195083618,-0.23414497077465,0
8,812687766,9.7354154586792,-1.32114338874817,1.88108944892883,-10.52588844299316,0.43155226111412,-2.82560396194458,9.94922637939453,-1.41020750999451,0.39446213841438,-4.23214149475098,2.20962429046631,-0.94491046667099,0
9,812721100,9.67955780029297,-1.41833055019379,1.74419844150543,-3.43575263023376,0.49389305710793,-3.65832114219666,9.8902759552002,-1.56706261634827,0.3801794052124,-0.74349838495255,2.52165079116821,-1.76081573963165,0
10,812754434,9.59369659423828,-1.34279227256775,1.65480303764343,-0.60515767335892,0.08938512206078,-4.32859134674072,9.78981113433838,-1.55990660190582,0.33306816220284,2.11415863037109,1.38572061061859,-2.11181807518005,0
11,812787768,9.60546016693115,-1.39586186408997,1.67428278923035,0.32842859625816,-0.36676117777824,-4.32660150527954,9.81514358520508,-1.50656402111053,0.28588289022446,2.29737281799316,0.66903895139694,-1.66237318515778,0
12,812821102,9.76483821868896,-1.34175801277161,1.62112677097321,-0.42018926143646,-0.63789731264114,-4.09354448318481,9.88059997558594,-1.4716557264328,0.2044792175293,1.5767468214035,0.95488959550858,-1.43456745147705,0
13,812854436,9.73693656921387,-1.29560017585754,1.70832407474518,-3.39497709274292,-0.13717524707317,-3.02197957038879,9.93460273742676,-1.34003353118896,0.23974038660526,-2.07792019844055,0.96407812833786,-0.67983800172806,0
14,812887770,9.65449047088623,-1.30365705490112,1.75389683246613,-7.37517595291138,-0.36747846007347,-0.15041708946228,9.88184833526611,-1.27906918525696,0.30478924512863,-7.01025247573853,1.89358997344971,-0.41326120495796,0
15,812921104,9.63189601898193,-1.39479053020477,1.81335067749023,-5.46942281723022,0.13258101046085,1.88613629341125,9.79012107849121,-1.45122182369232,0.41181832551956,-6.46963262557983,1.75033807754517,-0.76831120252609,0
16,812954438,9.61744689941406,-1.33124387264252,1.82975900173187,-2.24367904663086,0.26403167843819,1.79245018959045,9.81498622894287,-1.547518491745,0.43432748317719,-2.3081591129303,0.73558723926544,-1.00257706642151,0
17,812987772,9.6702241897583,-1.27821588516235,1.79362177848816,-1.4543468952179,-0.23673820495605,0.34236818552017,9.87178897857666,-1.58539962768555,0.3893486559391,-0.53711748123169,0.65589958429337,-0.55527687072754,0
18,813021106,9.70972061157227,-1.29811871051788,1.72139739990234,-1.21238350868225,-0.46011936664581,-1.15614461898804,9.87818431854248,-1.60920536518097,0.35696548223495,1.05332553386688,-0.01830027624965,0.13760104775429,0
19,813054440,9.70590972900391,-1.28360593318939,1.71193647384644,-1.07410049438477,-0.08063518255949,-1.23969948291779,9.88475322723389,-1.38353896141052,0.2907352745533,1.79487752914429,-0.7127503156662,0.53256177902222,0
20,813087774,9.66834735870361,-1.19256830215454,1.72624528408051,-2.00721573829651,-0.35764929652214,-0.3414044380188,9.9130163192749,-1.29648160934448,0.30314984917641,-1.51107895374298,0.35404759645462,-0.27847412228584,0
21,813121108,9.67965793609619,-1.20633888244629,1.77662098407745,-3.58725118637085,-0.77945220470428,-0.4998767375946,9.87703323364258,-1.43750250339508,0.35476738214493,-3.92437267303467,1.00423264503479,-0.90300172567368,0
22,813154442,9.67488574981689,-1.26180279254913,1.77977192401886,-5.08929061889648,-0.8676689863205,-1.32218563556671,9.86716556549072,-1.49025094509125,0.33187732100487,-2.26317000389099,0.69326853752136,-0.48917058110237,0
23,813187776,9.69423866271973,-1.3688884973526,1.77780747413635,-4.48469495773315,-0.52451622486115,-1.04082977771759,9.8640832901001,-1.44216704368591,0.32965496182442,-1.24977815151215,0.58137947320938,0.05356576293707,0
24,813221110,9.65515613555908,-1.37499737739563,1.74335479736328,-1.9660439491272,-0.36772799491882,0.17107686400414,9.84573650360107,-1.36322021484375,0.35480952262878,-1.06976568698883,0.18891607224941,0.32304978370667,0
25,813254444,9.65136241912842,-1.29100108146667,1.73265743255615,-0.48876076936722,-0.34121882915497,1.02721345424652,9.84762096405029,-1.4180109500885,0.33615633845329,-0.23341491818428,0.07257678359747,0.18668136000633,0
26,813287778,9.66921424865723,-1.240638256073,1.74323844909668,-0.96138542890549,-0.27349880337715,0.69666218757629,9.85513687133789,-1.47009837627411,0.30259540677071,-0.00066593015799,0.03415773808956,0.33536946773529,0
27,813321112,9.69229602813721,-1.21685552597046,1.68670010566711,-2.73219013214111,-0.62295216321945,0.18075203895569,9.85848045349121,-1.46015083789825,0.32705983519554,0.87451678514481,-0.47360441088676,0.55364090204239,0
28,813354446,9.62218189239502,-1.30677473545074,1.7293815612793,-2.2833468914032,-1.08567130565643,-0.01539963763207,9.85545825958252,-1.45935201644897,0.33785334229469,0.3881508409977,-0.51376515626907,0.01802173629403,0
29,813387780,9.77793979644775,-1.27734851837158,1.71878027915955,-2.31690573692322,-1.13121688365936,-0.4850789308548,9.91023635864258,-1.46235036849976,0.27213698625565,0.76652729511261,-0.04489266127348,-0.03991739451885,0
30,813421114,9.73548698425293,-1.31741094589233,1.83515501022339,-1.54048883914948,-0.27179560065269,-1.14698159694672,9.95820331573486,-1.40724420547485,0.31244900822639,-0.20714271068573,-0.04457250237465,0.64088416099548,0
31,813454448,9.67880439758301,-1.20171928405762,1.82777011394501,-1.86251747608185,-0.26673069596291,-0.57701575756073,9.93007183074951,-1.33841717243195,0.36791172623634,-3.79593753814697,1.47564733028412,0.4567097723484,0
32,813487782,9.64091968536377,-1.24997079372406,1.76123797893524,-2.89440155029297,-0.34353673458099,-0.11310569196939,9.8141622543335,-1.48987221717834,0.4088106751442,-2.19758915901184,1.22696042060852,-0.30083400011063,0
33,813521116,9.66229152679443,-1.36812210083008,1.71793949604034,-2.33085179328918,-0.74938929080963,0.16649216413498,9.85715675354004,-1.51281034946442,0.36842179298401,2.52528738975525,0.35646796226501,-0.96237802505493,0
34,813554450,9.67932891845703,-1.39664328098297,1.70647549629211,-1.05767011642456,-0.7236356139183,-0.02992203459144,9.86623382568359,-1.43425452709198,0.27588459849358,1.56389546394348,-0.00590372737497,-0.27059176564217,0
35,813587784,9.74134349822998,-1.39297044277191,1.72653675079346,-1.92414140701294,-0.38136672973633,0.00730922445655,9.89468669891357,-1.51615107059479,0.25471612811089,0.33488926291466,0.53133225440979,0.47736629843712,0
36,813621118,9.66037559509277,-1.37029933929443,1.76873135566711,0.07064303010702,0.24042320251465,0.16785602271557,9.88005638122559,-1.39778316020966,0.28993824124336,-1.24151158332825,0.773353099823,0.79046231508255,0
37,813654452,9.62683963775635,-1.21790897846222,1.75900948047638,0.22174513339996,0.1601850092411,0.70515918731689,9.83798503875732,-1.4432555437088,0.36805722117424,-1.6682767868042,1.39106106758118,0.56842589378357,0
38,813687786,9.69605159759521,-1.29413533210754,1.71022462844849,-0.32998758554459,-0.21932153403759,0.24515515565872,9.86452865600586,-1.58003640174866,0.38473978638649,1.13622725009918,0.65782696008682,0.10933741182089,0
39,813721120,9.74979209899902,-1.32371985912323,1.7422342300415,1.20916593074799,-0.45740443468094,-1.05984711647034,9.93283557891846,-1.50442051887512,0.32352995872498,3.22412371635437,0.03700715303421,-0.12287054210901,0
40,813754454,9.66961097717285,-1.25714373588562,1.70594656467438,0.43393993377686,-0.50340473651886,-0.72524273395538,9.89297008514404,-1.37094473838806,0.27909940481186,1.73991239070892,0.34285482764244,0.17701898515224,0
41,813787788,9.69049453735352,-1.3156898021698,1.6854362487793,-0.19351674616337,-0.48693588376045,0.2269189208746,9.86231994628906,-1.41291093826294,0.29717564582825,0.85181748867035,0.59881526231766,-0.0118010500446,0
42,813821122,9.6917724609375,-1.32430839538574,1.69758796691895,1.32626068592072,-0.30558508634567,-0.108284085989,9.880690574646,-1.48537802696228,0.2921906709671,1.34711909294128,0.41457998752594,-0.34021344780922,0
43,813854456,9.64680862426758,-1.22980558872223,1.69924104213715,-0.54019743204117,-0.33694785833359,-0.29131242632866,9.85845470428467,-1.42874026298523,0.25833716988564,0.92569744586945,0.3822535276413,0.21055878698826,0
44,813887790,9.67667484283447,-1.28430068492889,1.68503558635712,-2.93873763084412,-0.34988874197006,0.34024873375893,9.84943580627441,-1.41006660461426,0.2657884657383,0.92150342464447,0.43180772662163,0.387689858675,0
45,813921124,9.65731906890869,-1.32831144332886,1.7899876832962,-1.80870497226715,0.124122351408,0.38584572076797,9.82947063446045,-1.46196281909943,0.29381719231606,-0.37799221277237,0.68897205591202,-0.05347932130098,0
46,813954458,9.77019691467285,-1.28545618057251,1.67195844650269,-3.11753344535828,-0.05626470595598,-0.12707102298737,9.93870639801025,-1.5011283159256,0.26245364546776,-0.09116198867559,0.92694598436356,0.23380228877068,0
47,813987792,9.70988082885742,-1.37187683582306,1.77769589424133,-2.26122355461121,0.10968960076571,-0.64020228385925,9.95241546630859,-1.44856607913971,0.36035743355751,-1.7620575428009,1.04793381690979,0.40500399470329,0
48,814021126,9.62244129180908,-1.30758452415466,1.81758606433868,-0.45201930403709,-0.2974274456501,-0.01899181678891,9.86225032806396,-1.37573087215424,0.41869834065437,-3.4017322063446,1.85675776004791,0.2706590294838,0
49,814054460,9.61595916748047,-1.27690494060516,1.71783864498138,-0.12730792164803,-0.06850116699934,0.63204777240753,9.73482418060303,-1.49881601333618,0.40629512071609,0.27739191055298,0.59435552358627,0.62163305282593,0
50,814087794,9.68917083740234,-1.3021821975708,1.69182646274567,-0.80296456813812,-0.46202105283737,0.62698286771774,9.8805570602417,-1.49264109134674,0.33265742659569,3.93501710891724,-0.18245209753513,0.07050857692957,0
51,814121128,9.72667217254639,-1.34096729755402,1.64425349235535,-0.49061760306358,-0.83697819709778,0.02801708877087,9.93724060058594,-1.41827476024628,0.24533548951149,0.46817776560783,-0.00694744521752,0.20104368031025,0
52,814154462,9.74563217163086,-1.31783354282379,1.66311168670654,-1.45729851722717,-0.82162344455719,-0.22932328283787,9.92413425445557,-1.57474529743195,0.25724375247955,-0.10584447532892,0.31808090209961,0.19446760416031,0
53,814187796,9.66372585296631,-1.38669121265411,1.77572393417358,-1.09913694858551,-0.16883251070976,0.52292484045029,9.86141681671143,-1.42193591594696,0.25807523727417,0.33294263482094,-0.20399232208729,-0.40148547291756,0
54,814221130,9.62125110626221,-1.21514713764191,1.75234842300415,-0.19011664390564,0.13892005383968,-0.28309074044228,9.83836650848389,-1.4739089012146,0.30300280451775,-1.32814013957977,0.61239969730377,-0.62111443281174,0
55,814254464,9.77154159545898,-1.3227858543396,1.75523293018341,-3.29372930526733,-0.06257183104753,-1.42689001560211,9.91797161102295,-1.58945953845978,0.33104100823402,-1.08751535415649,1.24187970161438,-0.28549832105637,0
56,814287798,9.67604923248291,-1.29590773582458,1.75502574443817,-3.40433812141418,-0.07322031259537,-2.23475313186646,9.91560935974121,-1.52044641971588,0.29858961701393,-1.81604909896851,1.30589878559113,-1.08261680603027,0
57,814321132,9.63535499572754,-1.43206143379211,1.70089864730835,-2.48101925849915,-0.29491105675697,-1.67785608768463,9.84951972961426,-1.45444774627686,0.34736433625221,-1.28880560398102,1.20279502868652,-0.91080051660538,0
58,814354466,9.63067722320557,-1.36826419830322,1.6863511800766,-1.4204226732254,-0.15449580550194,-0.96796804666519,9.79968452453613,-1.47862124443054,0.32709056138992,0.5813570022583,0.54065209627151,-0.61009132862091,0
59,814387800,9.67090797424316,-1.40158951282501,1.77497494220734,-1.28010988235474,-0.17796985805035,-0.11275990307331,9.88368320465088,-1.38766980171204,0.37096676230431,0.60507118701935,0.04383933544159,0.25256362557411,0
60,814421134,9.63878345489502,-1.32163524627686,1.76788330078125,0.30483269691467,0.05914931744337,0.45350801944733,9.83516502380371,-1.39835023880005,0.33203107118607,-0.84326612949371,0.69875609874725,0.5488321185112,0
61,814454468,9.67041206359863,-1.25006651878357,1.72460103034973,-0.45233941078186,-0.33959233760834,0.439228951931,9.84746074676514,-1.53401362895966,0.43310949206352,1.19514620304108,0.10184890776873,0.37169790267944,0
62,814487802,9.58249282836914,-1.24504292011261,1.74580514431,-1.34692072868347,-0.68460190296173,0.41684991121292,9.79480361938477,-1.39636993408203,0.35095176100731,2.83119010925293,-0.9040195941925,0.19096833467484,0
63,814521136,9.77510356903076,-1.29938924312592,1.66808021068573,-3.38122940063477,-1.49257409572601,-0.32272008061409,9.95499610900879,-1.53030097484589,0.34100738167763,1.57962155342102,-0.32299533486366,0.15292382240295,0
64,814554470,9.69126319885254,-1.3862771987915,1.78652787208557,-2.09333896636963,-1.60215127468109,-0.86764305830002,9.93343353271484,-1.45911812782288,0.35209250450134,-0.74127632379532,-0.65419310331345,-0.21514666080475,0
65,814587804,9.705322265625,-1.38617551326752,1.81971299648285,-0.37265831232071,-1.57395148277283,-0.2574588060379,9.90371894836426,-1.44071435928345,0.37917625904083,-0.95482856035233,0.13780592381954,-0.07561509311199,0
66,814621138,9.68909454345703,-1.34751832485199,1.81369149684906,1.88911938667297,-0.63080888986588,0.17945221066475,9.85779762268066,-1.48992109298706,0.34497138857841,2.18246150016785,-0.48958039283752,-0.20554192364216,0
67,814654472,9.68431377410889,-1.28674721717834,1.71982824802399,1.86830902099609,-0.32748404145241,0.16879732906818,9.88585662841797,-1.43013691902161,0.28954166173935,3.51213932037354,-0.00344490911812,-0.27145630121231,0
68,814687806,9.70920085906982,-1.29432046413422,1.6286952495575,0.38188216090202,-0.44844633340836,-0.05312713980675,9.90967082977295,-1.45366168022156,0.24705675244331,0.84415918588638,0.44806528091431,0.15268687903881,0
69,814721140,9.67958736419678,-1.31180191040039,1.67204487323761,-0.68880879878998,-0.56572693586349,-0.13623395562172,9.8636589050293,-1.48096442222595,0.27200186252594,0.42310574650764,0.20863144099712,0.11321773380041,0
70,814754474,9.65864181518555,-1.29499685764313,1.70037639141083,-1.19161808490753,-0.61700993776321,0.17408633232117,9.87477111816406,-1.38573110103607,0.29127368330956,0.89409774541855,-0.0543949753046,0.1257615685463,0
71,814787808,9.69907188415527,-1.30103123188019,1.77939975261688,-1.75419473648071,-0.46515867114067,0.088872872293,9.88480758666992,-1.44667363166809,0.30980741977692,-0.29109475016594,0.59779721498489,-0.14413547515869,0
72,814821142,9.67361736297607,-1.32198405265808,1.81408894062042,-1.29703342914581,-0.43359091877937,-0.40966868400574,9.86246871948242,-1.489874958992,0.34489923715591,-0.68460834026337,0.91843611001968,0.03668699041009,0
73,814854476,9.70889091491699,-1.35229587554932,1.69307708740234,-0.62731891870499,-0.3530005812645,-0.39152207970619,9.88339614868164,-1.48821485042572,0.33801606297493,1.01954221725464,0.65174388885498,0.49857994914055,0
74,814887810,9.71109676361084,-1.38468813896179,1.67736744880676,0.72091108560562,-0.43017813563347,-0.19116678833961,9.92700004577637,-1.4518541097641,0.3231962621212,1.58965528011322,0.46704435348511,0.14993353188038,0
75,814921144,9.67974948883057,-1.31061363220215,1.66941571235657,1.44345808029175,-0.87773436307907,-0.02575356885791,9.88577079772949,-1.45240128040314,0.34503489732742,0.75248825550079,0.07640267908573,-0.14396257698536,0
76,814954478,9.65438842773438,-1.28301978111267,1.7390478849411,1.5321227312088,-1.04657959938049,-0.10913570225239,9.8355712890625,-1.51602578163147,0.32750052213669,1.57332730293274,-0.20997931063175,-0.59528392553329,0
77,814987812,9.61948013305664,-1.26227557659149,1.71851289272308,0.66444772481918,-0.63360691070557,-0.47415509819984,9.80137062072754,-1.41512846946716,0.2884533405304,3.00804233551025,-0.67428004741669,-0.43008852005005,0
78,815021146,9.63268566131592,-1.25178122520447,1.74605703353882,-1.34693992137909,-0.54829746484756,-0.14328384399414,9.84100437164307,-1.36763513088226,0.26717948913574,1.43519163131714,-0.13627237081528,0.06933037936687,0
79,815054480,9.74495697021484,-1.29887473583221,1.67169499397278,-4.14154195785522,-0.87869507074356,0.09313739091158,9.91218662261963,-1.41077196598053,0.24976715445518,-1.52535164356232,0.78684455156326,0.21980500221252,0
80,815087814,9.72813987731934,-1.44584584236145,1.72990667819977,-3.15618944168091,-0.62098002433777,-0.50071555376053,9.95363140106201,-1.53299903869629,0.32088622450829,-2.46496033668518,0.8675245642662,0.35829293727875,0
81,815121148,9.65639591217041,-1.39016842842102,1.73697912693024,-0.45047616958618,-0.76460313796997,0.03593781962991,9.89602375030518,-1.41721796989441,0.38908499479294,-2.56896042823792,0.86913514137268,0.17186123132706,0
82,815154482,9.63436603546143,-1.32776546478271,1.80606579780579,1.24228966236115,-0.66651940345764,0.53200459480286,9.79968738555908,-1.54654908180237,0.40034925937653,-0.17435203492641,0.38535907864571,0.00408842694014,0
83,815187816,9.65202522277832,-1.3119592666626,1.74561643600464,1.56051456928253,-0.57996761798859,0.25119975209236,9.81627368927002,-1.49434340000153,0.34130173921585,3.55219721794128,-0.20431895554066,0.10891482234001,0
84,815221150,9.6849946975708,-1.31891930103302,1.65266478061676,0.01102306414396,-0.52285122871399,0.48449295759201,9.87821102142334,-1.37209892272949,0.24898381531239,2.04321813583374,-0.02305783517659,1.09173190593719,0
85,815254484,9.75688457489014,-1.34618031978607,1.59644615650177,-1.50289571285248,-0.81125032901764,1.0882933139801,9.94210815429688,-1.4280036687851,0.27304723858833,-0.86675292253494,0.64580178260803,1.167839884758,0
86,815287818,9.69161128997803,-1.35204374790192,1.66864216327667,-0.42440244555473,-1.23391103744507,1.14325177669525,9.91214179992676,-1.50667059421539,0.30423581600189,-1.45046651363373,0.1924954354763,0.19874495267868,0
87,815321152,9.67903614044189,-1.28705143928528,1.74850046634674,0.02319550141692,-1.35966289043427,0.16015940904617,9.87671947479248,-1.57100141048431,0.30691480636597,-0.26885008811951,0.2754293680191,-0.40881708264351,0
88,815354486,9.68393230438232,-1.3405020236969,1.80611896514893,-0.90767556428909,-0.90902680158615,-0.60263478755951,9.84513759613037,-1.58522891998291,0.29679369926453,1.87126696109772,-0.26215881109238,-0.19637255370617,0
89,815387820,9.67938899993896,-1.44129598140717,1.73912870883942,1.57489609718323,-0.25554430484772,-0.65935415029526,9.85599899291992,-1.43018615245819,0.28600314259529,2.72282600402832,0.01369959581643,0.04382653906941,0
90,815421154,9.71283531188965,-1.34810960292816,1.65320014953613,1.91108226776123,0.17404152452946,0.01381485257298,9.89420986175537,-1.41487681865692,0.23347428441048,1.16481113433838,0.90856242179871,0.50139743089676,0
91,815454488,9.71744728088379,-1.33898019790649,1.60812699794769,1.11963033676147,0.34854081273079,0.31128716468811,9.90593147277832,-1.46623516082764,0.23760232329369,0.47404944896698,1.00357282161713,0.56151038408279,0
92,815487822,9.6412935256958,-1.27697360515594,1.64351117610931,0.67034518718719,0.01747106388211,0.35701224207878,9.87000465393066,-1.42951834201813,0.30518195033073,-1.05487179756165,0.87374836206436,0.43315875530243,0
93,815521156,9.61069869995117,-1.23098587989807,1.65831196308136,-0.52615523338318,-0.69966214895248,0.19320620596409,9.80695533752441,-1.48444867134094,0.33792194724083,-1.15554261207581,0.67403346300125,-0.0516864284873,0
94,815554490,9.70280647277832,-1.27382266521454,1.71466469764709,-1.64948356151581,-1.24405360221863,-0.59637892246246,9.86600399017334,-1.56182563304901,0.33219411969185,0.52744877338409,-0.20381304621696,-0.21484571695328,0
95,815587824,9.67237091064453,-1.31929934024811,1.7035608291626,-1.68785762786865,-1.07563745975494,-1.01289260387421,9.84189510345459,-1.43059718608856,0.26783585548401,1.28418576717377,-0.66760140657425,-0.5089436173439,0
96,815621158,9.82976531982422,-1.41571164131165,1.76320350170135,-2.83438467979431,-0.72716385126114,-0.92240935564041,10.00456809997559,-1.48625111579895,0.30049553513527,-0.55514234304428,0.60656309127808,-0.00699866842479,0
97,815654492,9.7197151184082,-1.44124925136566,1.76320779323578,0.26588222384453,-0.33537909388542,-0.04252348095179,9.95098304748535,-1.40254271030426,0.33028277754784,-2.41144847869873,1.09973573684692,-0.28512698411942,0
98,815687826,9.64684677124023,-1.38449287414551,1.75276076793671,1.82944822311401,0.15615744888783,0.55232834815979,9.81144905090332,-1.54257893562317,0.33657783269882,-0.59120517969131,1.37466251850128,-0.48187738656998,0
99,815721160,9.57811164855957,-1.31597483158112,1.67071104049683,1.89300620555878,0.1265235543251,0.26728457212448,9.77362632751465,-1.54683077335358,0.30958789587021,3.05931830406189,0.20612139999866,-0.35800787806511,0
100,815754494,9.66501808166504,-1.33384168148041,1.66138017177582,0.68078237771988,-0.41114148497581,-0.36213800311089,9.83865261077881,-1.48405373096466,0.25374519824982,1.75798213481903,0.60566037893295,0.15962156653404,0
101,815787828,9.74823760986328,-1.34836328029633,1.63281095027924,-0.63603377342224,-0.44288200139999,-0.84181904792786,9.92507839202881,-1.48872601985931,0.22893404960632,-0.98033249378204,0.80247473716736,0.71681946516037,0
102,815821162,9.70563507080078,-1.39280045032501,1.66841697692871,-0.22201086580753,-0.2059260904789,-0.18533989787102,9.90478992462158,-1.45900905132294,0.28338637948036,-0.78571444749832,0.55093878507614,0.55097085237503,0
103,815854496,9.70119857788086,-1.30176639556885,1.70352160930634,0.53167164325714,-0.17208532989025,0.52213090658188,9.90605735778809,-1.41149365901947,0.3138333261013,-0.45730832219124,0.81522977352142,0.05749090388417,0
104,815887830,9.68583583831787,-1.26057684421539,1.73288810253143,-0.72161859273911,-0.35723954439163,0.40816080570221,9.87860298156738,-1.52061414718628,0.33276417851448,-0.35744443535805,0.55918610095978,-0.18761944770813,0
105,815921164,9.69723510742188,-1.33954358100891,1.76599705219269,-0.22808746993542,-0.47641542553902,-0.68074065446854,9.87675189971924,-1.56017422676086,0.32440754771233,0.51364988088608,0.67572700977325,-0.43652361631393,0
106,815954498,9.66988468170166,-1.33148908615112,1.72128593921661,1.00701141357422,-0.29674878716469,-1.16566598415375,9.8546781539917,-1.47032451629639,0.32755550742149,0.95260673761368,0.64885938167572,-0.0823512300849,0
107,815987832,9.69167709350586,-1.3571789264679,1.70015442371368,0.4299763739109,0.00672653596848,-0.4908481836319,9.86313819885254,-1.45244288444519,0.29289320111275,1.5745245218277,0.62622725963593,0.06644254177809,0
108,816021166,9.68819808959961,-1.38015604019165,1.67951643466949,1.28001701831818,-0.04839519411325,0.09215128421783,9.87699413299561,-1.42333257198334,0.30785572528839,0.39763072133064,0.87625521421432,-0.0838719829917,0
109,816054500,9.6731538772583,-1.31780803203583,1.64459562301636,1.93426179885864,-0.12263360619545,-0.02342922240496,9.84835147857666,-1.54240441322327,0.27862867712975,0.86627906560898,0.65139496326447,-0.08941073715687,0
110,816087834,9.70989322662354,-1.27766823768616,1.64917409420013,0.94260829687119,-0.41781997680664,-0.44711446762085,9.89123821258545,-1.50526511669159,0.29223465919495,1.5868284702301,0.0647681131959,-0.19452525675297,0
111,816121168,9.55227756500244,-1.22481679916382,1.69793021678925,-0.44618600606918,-0.4965725839138,-0.2140965461731,9.77930164337158,-1.3333957195282,0.27668762207031,0.45015281438828,0.05187531560659,-0.42059251666069,0
112,816154502,9.79513072967529,-1.31984078884125,1.71222937107086,-3.59191250801086,-0.74335098266602,-0.41015538573265,9.92196846008301,-1.52704012393951,0.28952515125275,-0.58824044466019,0.97627931833267,0.02781539037824,0
113,816187836,9.64856910705566,-1.38886785507202,1.77343225479126,-1.00983822345734,-0.47654989361763,-0.55904203653336,9.90201950073242,-1.40117812156677,0.33346951007843,-2.54385995864868,0.57403510808945,0.00859626382589,0
114,816221170,9.67445945739746,-1.32963263988495,1.74032402038574,-0.29339349269867,-0.51563489437103,0.25522094964981,9.83941078186035,-1.4933168888092,0.37628132104874,-1.20363688468933,1.09061765670776,0.04925642162561,0
115,816254504,9.64840412139893,-1.3344212770462,1.73083174228668,0.96489763259888,-0.24662466347218,0.22031722962856,9.83769035339355,-1.53097903728485,0.34440404176712,2.59944915771484,-0.2386015355587,-0.19858810305595,0
116,816287838,9.67522621154785,-1.31161892414093,1.72845733165741,1.02580463886261,-0.444271504879,-0.08532232046127,9.87538719177246,-1.46010255813599,0.28000152111053,2.31749176979065,0.26341065764427,0.03520145639777,0
117,816321172,9.71541595458984,-1.29974031448364,1.64524126052856,-0.12402950227261,-0.30384343862534,-0.11754307150841,9.89203548431396,-1.43007957935333,0.25460329651833,-0.64997982978821,0.83455777168274,0.72394293546677,0
118,816354506,9.67468547821045,-1.35687744617462,1.69708323478699,-1.33551025390625,-0.22245271503925,0.40119412541389,9.86941337585449,-1.48593521118164,0.28426003456116,-0.93634277582169,0.63297951221466,0.33261293172836,0
119,816387840,9.59915256500244,-1.30886554718018,1.69695627689362,-0.82587516307831,-0.54195833206177,0.48422414064407,9.82471370697021,-1.4611120223999,0.32960534095764,-0.90644305944443,0.63402962684631,0.06875088810921,0
120,816421174,9.65688323974609,-1.31371796131134,1.72574317455292,-1.71330380439758,-0.77446395158768,-0.07491714507341,9.8099946975708,-1.5940443277359,0.34538474678993,-0.14056891202927,0.03324208408594,0.19256588816643,0
121,816454508,9.75863933563232,-1.38574290275574,1.76372826099396,-0.95279252529144,-0.79804688692093,-0.81099414825439,9.92336368560791,-1.55020320415497,0.33362156152725,1.07238137722015,-0.26462399959564,0.29964619874954,0
122,816487842,9.74470615386963,-1.35115528106689,1.77819383144379,1.20844888687134,-0.28135550022125,-0.66246610879898,9.95012855529785,-1.41826522350311,0.30536618828773,0.63803791999817,0.15756931900978,0.33370783925056,0
123,816521176,9.6859827041626,-1.28138136863708,1.74144148826599,0.37665715813637,0.12423120439053,0.40563154220581,9.88211727142334,-1.41471767425537,0.32196474075317,0.71361774206161,0.63528770208359,0.10976001620293,0
124,816554510,9.68480110168457,-1.29154479503632,1.73228132724762,-0.37156981229782,0.1559012979269,0.17961224913597,9.87065505981445,-1.47554540634155,0.31520467996597,-0.31586223840714,1.11143755912781,0.03382797166705,0
125,816587844,9.61244964599609,-1.30702006816864,1.69500946998596,-0.77854293584824,0.03472121804953,-0.34241619706154,9.82133674621582,-1.53737986087799,0.30524370074272,-0.6524578332901,1.12449657917023,-0.02913444489241,0
126,816621178,9.64328289031982,-1.31203770637512,1.62877547740936,-1.43443930149078,-0.50839930772781,-0.49531123042107,9.83078575134277,-1.52186155319214,0.33830204606056,0.67522442340851,0.39007183909416,-0.03936031460762,0
127,816654512,9.60274982452393,-1.3461412191391,1.71554124355316,-1.41339206695557,-0.58225989341736,-0.16387006640434,9.80819797515869,-1.43348002433777,0.30637338757515,0.35269004106522,-0.04973985999823,-0.28813004493713,0
128,816687846,9.85039901733398,-1.35284316539764,1.70632112026215,-3.73542070388794,-0.84681993722916,-0.35660567879677,9.97298049926758,-1.55357921123505,0.23626752197742,-0.27709740400314,0.61191940307617,0.08060316741467,0
129,816721180,9.63205337524414,-1.42823934555054,1.7973837852478,-1.26959586143494,-0.21739418804646,-0.32115766406059,9.89729118347168,-1.42228591442108,0.33508116006851,-3.05762505531311,0.54333192110062,0.1834157705307,0
130,816754514,9.632155418396,-1.34112012386322,1.78566336631775,-0.66631424427032,-0.33087760210037,0.64051902294159,9.81224155426025,-1.50796413421631,0.40672689676285,-2.42022752761841,1.23564970493317,-0.10827770829201,0
131,816787848,9.62379360198975,-1.35818874835968,1.74748003482819,0.46852350234985,-0.05830090865493,-0.04619890451431,9.78244686126709,-1.62428939342499,0.36192113161087,2.01098775863647,-0.02713986113667,-0.09704973548651,0
132,816821182,9.70095539093018,-1.31198799610138,1.7089010477066,0.27042853832245,-0.27423518896103,-0.62226057052612,9.88191413879395,-1.51586019992828,0.28798672556877,3.54109406471252,-0.0601514428854,0.00717475963756,0
133,816854516,9.71107959747314,-1.34100890159607,1.66977298259735,-1.43584799766541,-0.39533203840256,-0.28090089559555,9.92672061920166,-1.37392461299896,0.25294235348701,-0.31154006719589,0.4976387321949,0.28683337569237,0
134,816887850,9.6826343536377,-1.37706112861633,1.71250426769257,-2.18152976036072,-0.36684432625771,0.3565319776535,9.88493919372559,-1.49282562732697,0.30146330595016,-1.78781759738922,1.07976412773132,0.05458385497332,0
135,816921184,9.61155033111572,-1.33493900299072,1.70954763889313,-1.47812807559967,-0.32913601398468,0.47542616724968,9.81663227081299,-1.49608337879181,0.34035369753838,-0.90489035844803,0.61356502771378,-0.24779649078846,0
136,816954518,9.62824058532715,-1.34188449382782,1.76214218139648,-1.88026702404022,-0.64118844270706,-0.10179768502712,9.80084037780762,-1.62060487270355,0.36540114879608,-0.30493840575218,0.33367264270782,-0.41522666811943,0
137,816987852,9.70719432830811,-1.37806940078735,1.78100717067719,-1.60850310325623,-0.75320541858673,-1.0374231338501,9.86893272399902,-1.57750368118286,0.34539073705673,1.01694905757904,0.03634762018919,-0.1672188937664,0
138,817021186,9.72247886657715,-1.40681779384613,1.77991139888763,-1.67160665988922,-0.23815330862999,-0.99397140741348,9.90653038024902,-1.5127592086792,0.30552771687508,1.17365384101868,0.46796640753746,0.0294834189117,0
139,817054520,9.65119361877441,-1.44612324237823,1.75852584838867,-0.37521323561668,0.12057498842478,-0.30212101340294,9.88675785064697,-1.50085616111755,0.36271154880524,-0.0279498565942,1.51723551750183,-0.60503602027893,0
140,817087854,9.67519283294678,-1.4082807302475,1.73849070072174,1.04619240760803,0.28842782974243,-0.43117061257362,9.83653259277344,-1.60863888263702,0.34151366353035,2.39395499229431,1.56090843677521,-0.41150325536728,0
141,817121188,9.74439144134521,-1.40058350563049,1.77997088432312,1.16327452659607,0.68315798044205,-1.47279441356659,9.8891773223877,-1.62607288360596,0.30618116259575,3.08770108222961,1.06272864341736,-0.07288414984941,0
142,817154522,9.73614311218262,-1.38481712341309,1.70875215530396,1.41883158683777,0.73913449048996,-1.48644602298737,9.93830299377441,-1.44849419593811,0.35154420137405,1.53178369998932,0.55019611120224,0.99675995111465,0
143,817187856,9.54434967041016,-1.25784826278687,1.73047471046448,2.78512167930603,0.50995206832886,0.24486063420773,9.77373123168945,-1.32687532901764,0.41808143258095,1.62409162521362,0.30200895667076,0.05735003575683,0
144,817221190,9.69641208648682,-1.20565557479858,1.69147503376007,0.12314905971289,-0.573570728302,0.71948951482773,9.89457416534424,-1.42561340332031,0.35874915122986,1.32136261463165,1.1558084487915,-0.88112181425095,0
145,817254524,9.64317226409912,-1.27756500244141,1.78360950946808,0.04251388087869,-0.99754422903061,-0.75689369440079,9.87026500701904,-1.5050368309021,0.36547523736954,-0.42271843552589,0.45688891410828,-0.10266211628914,0
146,817287858,9.75309467315674,-1.27763915061951,1.80406928062439,-0.60312151908875,-1.0906720161438,-1.04533755779266,9.90310955047607,-1.449915766716,0.36722296476364,-0.88093602657318,1.11721014976501,0.56035149097443,0
147,817321192,9.65987110137939,-1.30598115921021,1.78278291225433,-1.20017910003662,-0.53054147958755,0.53277939558029,9.86952877044678,-1.35539674758911,0.36796817183495,-0.32066139578819,0.4155148267746,0.49990865588188,0
148,817354526,9.66328620910645,-1.35038685798645,1.73176991939545,-0.65199691057205,-0.33172288537025,1.46827685832977,9.84285831451416,-1.4942182302475,0.38040262460709,0.46020263433456,0.61024188995361,-0.43591538071632,0
149,817387860,9.63182258605957,-1.34091031551361,1.67587697505951,-0.42770004272461,-0.51153689622879,0.63815641403198,9.83225440979004,-1.55861127376556,0.35217416286469,0.24289801716805,-0.06609355658293,0.04063454270363,0
150,817421194,9.6305456161499,-1.34508621692657,1.68921232223511,-1.52239310741425,-0.88999003171921,0.05290623009205,9.82352733612061,-1.60734641551971,0.28340590000153,0.88740956783295,-0.17660276591778,0.34214082360268,0
151,817454528,9.65062141418457,-1.37146878242493,1.69848430156708,-1.73038768768311,-0.56394684314728,-0.08723686635494,9.80497360229492,-1.47273325920105,0.27681848406792,0.79812377691269,-0.46939435601234,0.61510187387466,0
152,817487862,9.70014572143555,-1.31631422042847,1.73674631118774,-1.76002776622772,-0.17161147296429,0.12968029081821,9.88370323181152,-1.44421339035034,0.2884124815464,-0.86288869380951,0.05219868198037,0.82592642307281,0
153,817521196,9.73549556732178,-1.27752256393433,1.77070438861847,-2.65298295021057,-0.1785781532526,0.30690741539001,9.94426345825195,-1.48049557209015,0.35427102446556,-2.64276647567749,0.61782956123352,0.41210839152336,0
154,817554530,9.76316165924072,-1.3036333322525,1.80302762985229,-0.31072688102722,-0.71410131454468,-0.86325687170029,9.97884845733643,-1.60228824615479,0.43431112170219,-1.79934656620026,1.04962122440338,-0.81538343429565,0
155,817587864,9.70655918121338,-1.31694531440735,1.79751467704773,0.81851476430893,-0.93253916501999,-2.01796722412109,9.88528823852539,-1.63585734367371,0.41958335042,2.05394339561462,0.35122376680374,-1.77204668521881,0
156,817621198,9.67892169952393,-1.39284348487854,1.7706378698349,2.92397451400757,-0.47058215737343,-2.1827335357666,9.85054397583008,-1.46775889396667,0.32893055677414,4.37205696105957,-0.42176765203476,-1.38234663009644,0
157,817654532,9.61541652679443,-1.30227220058441,1.66187763214111,2.56824636459351,-0.08289550244808,-1.46192181110382,9.81946277618408,-1.37147533893585,0.22411255538464,3.75416612625122,-0.08348460495472,-1.1780754327774,0
158,817687866,9.66103744506836,-1.26346099376678,1.58292543888092,-0.10507609695196,-0.24839834868908,-0.89191097021103,9.84689331054688,-1.41808450222015,0.23447567224503,0.7748162150383,0.40160712599754,-0.76109099388123,0
159,817721200,9.55780124664307,-1.23982751369476,1.63356792926788,-2.69166445732117,-0.33141553401947,-0.70027685165405,9.78148365020752,-1.39239323139191,0.23275102674961,-1.40632629394531,0.11805533617735,-0.44018310308456,0
160,817754534,9.78297328948975,-1.25954723358154,1.67771816253662,-7.11770963668823,-0.94069111347198,-0.55676925182343,9.94735622406006,-1.45927488803864,0.27569368481636,-2.50968313217163,0.45002165436745,0.08276744931936,0
161,817787868,9.69026279449463,-1.35218846797943,1.85190391540527,-6.49199771881104,-0.73443818092346,-0.37363827228546,9.94787216186523,-1.3812243938446,0.36487075686455,-4.69583702087402,0.57428175210953,-0.27319473028183,0
162,817821202,9.67452907562256,-1.34080266952515,1.90286445617676,-5.24733924865723,-0.54039615392685,0.38691517710686,9.87409687042236,-1.46878945827484,0.45662227272987,-5.58554315567017,1.5968564748764,-0.36233019828796,0
163,817854536,9.62639141082764,-1.41307926177979,1.86846208572388,-1.59809803962708,-0.0301973707974,-0.37505957484245,9.80434703826904,-1.68204164505005,0.4839623272419,-0.92524915933609,0.78041249513626,-0.52056205272675,0
164,817887870,9.6724681854248,-1.42024838924408,1.77871632575989,1.42917907238007,-0.49707844853401,-1.43304967880249,9.8659839630127,-1.62090134620667,0.44374060630798,3.49045443534851,0.08660935610533,-0.71208757162094,0
165,817921204,9.70407676696777,-1.40090084075928,1.66323304176331,1.66010975837708,-0.40570521354675,-1.0249947309494,9.88435554504395,-1.44432353973389,0.26683872938156,4.3552680015564,-0.18778918683529,-0.07786583900452,0
166,817954538,9.66552639007568,-1.38507401943207,1.64732801914215,0.2236020565033,0.05453263968229,0.19562017917633,9.87117958068848,-1.40186107158661,0.24590490758419,2.76518559455872,0.08696792274714,0.19737146794796,0
167,817987872,9.65270137786865,-1.3328994512558,1.6550372838974,-1.12632489204407,-0.18703673779964,1.10743236541748,9.87838840484619,-1.38027024269104,0.24477189779282,-1.2281482219696,0.90384012460709,0.44217762351036,0
168,818021206,9.6741304397583,-1.27867650985718,1.71851122379303,-2.35814189910889,-0.30811437964439,0.66640084981918,9.83222389221191,-1.5364773273468,0.31386989355087,-2.99512410163879,1.1484831571579,0.39717936515808,0
169,818054540,9.66727542877197,-1.24041998386383,1.79429948329926,-3.57400918006897,-0.73402798175812,-0.00067233340815,9.88047313690186,-1.55240821838379,0.41777941584587,-1.28999316692352,0.38374227285385,0.35394188761711,0
170,818087874,9.72549057006836,-1.36599898338318,1.87582695484161,-2.09547114372253,-0.96112936735153,-1.14067447185516,9.91160869598389,-1.61772167682648,0.4480673968792,1.02882373332977,0.2984071969986,-0.50138461589813,0
171,818121208,9.71333980560303,-1.42922949790955,1.84835481643677,0.59149014949799,-0.73750483989716,-1.58981227874756,9.91283798217773,-1.5553959608078,0.43687650561333,2.77220344543457,0.04977828636765,-0.83459943532944,0
172,818154542,9.70823764801025,-1.48147296905518,1.78568601608276,4.14456129074097,-0.23868477344513,-0.83595377206802,9.89273643493652,-1.44212627410889,0.38274505734444,4.53620481491089,0.00886519718915,-0.48182621598244,0
173,818187876,9.65164089202881,-1.35200321674347,1.71109473705292,6.75507545471191,0.03525270149112,-0.38359525799751,9.84802532196045,-1.48372030258179,0.3475538790226,5.01897954940796,0.40762305259705,-0.70073807239532,0
174,818221210,9.68059921264648,-1.21269130706787,1.66571366786957,5.513427734375,-0.31770649552345,-0.47299000620842,9.84992504119873,-1.46143615245819,0.31328094005585,5.29253005981445,-0.22284337878227,-0.43313652276993,0
175,818254544,9.60731315612793,-1.16556560993195,1.66434824466705,3.70144271850586,-0.42079117894173,-0.33967572450638,9.8131103515625,-1.31528198719025,0.27077054977417,4.71741819381714,-0.54540973901749,-0.13538874685764,0
176,818287878,9.78511524200439,-1.16248500347137,1.65876090526581,-0.46527388691902,-1.14561760425568,-0.30538019537926,9.98061180114746,-1.37734007835388,0.28494873642921,2.32537078857422,0.02258399873972,-0.34271392226219,0
177,818321212,9.66055774688721,-1.22765517234802,1.75618064403534,-0.89629715681076,-1.22397971153259,-0.65280365943909,9.89761161804199,-1.35755252838135,0.31601870059967,-0.29559937119484,0.23538069427013,-0.887560069561,0
178,818354546,9.67173385620117,-1.24297094345093,1.82228565216064,-1.25838387012482,-1.15005505084991,-0.33646121621132,9.83026695251465,-1.39058256149292,0.3757358789444,-0.82755589485168,0.63226872682571,-0.51165533065796,0
179,818387880,9.64975738525391,-1.31173849105835,1.80072939395905,-0.09582351148129,-0.27648270130157,-0.13492129743099,9.80465888977051,-1.44328463077545,0.33803015947342,1.99806618690491,-0.05281659215689,-0.16060765087605,0
180,818421214,9.69174003601074,-1.27283120155334,1.71959960460663,0.36195543408394,0.01691398583353,-0.20737321674824,9.88974761962891,-1.37261521816254,0.29282504320145,2.23914575576782,0.62697333097458,0.03105540014803,0
181,818454548,9.72146701812744,-1.27871823310852,1.62664210796356,-1.65183353424072,-0.01348508708179,0.485530346632,9.89409351348877,-1.34845972061157,0.24406763911247,-0.91926854848862,0.99653881788254,0.9219611287117,0
182,818487882,9.69147968292236,-1.31900501251221,1.66427791118622,-1.79668641090393,-0.09880100190639,0.8587139248848,9.88118267059326,-1.4494081735611,0.30268093943596,-1.12188410758972,0.81316471099854,0.86978155374527,0
183,818521216,9.62011909484863,-1.24889826774597,1.68530058860779,-1.05701696872711,-0.54364240169525,0.73125219345093,9.85960102081299,-1.43433928489685,0.3370518386364,-1.17130398750305,0.42846205830574,0.55265164375305,0
184,818554550,9.67861080169678,-1.20525228977203,1.76028370857239,-2.33842039108276,-0.78091835975647,-0.03086970746517,9.83769607543945,-1.52471315860748,0.33151811361313,-0.75227701663971,0.22218699753284,0.29946053028107,0
185,818587884,9.74045848846436,-1.27369511127472,1.8081830739975,-2.82790493965149,-0.5900719165802,-0.73820292949677,9.92836666107178,-1.45442116260529,0.3484620153904,-0.19499906897545,0.05039298161864,0.39575460553169,0
186,818621218,9.71173858642578,-1.31230843067169,1.785489320755,-2.21763730049133,-0.33113381266594,-0.20762938261032,9.93570613861084,-1.38024163246155,0.35257202386856,-0.37065100669861,0.69509029388428,0.22690932452679,0
187,818654552,9.7063102722168,-1.34355688095093,1.73715460300446,-1.89688956737518,-0.07865020632744,0.24728745222092,9.90321445465088,-1.47132587432861,0.3455813229084,-0.39952287077904,1.14219832420349,-0.04715618491173,0
188,818687886,9.66119003295898,-1.36203908920288,1.71511232852936,-0.59710246324539,-0.03982134535909,-0.01495141256601,9.86367893218994,-1.52637779712677,0.34051212668419,-0.02890713512897,0.73238235712051,0.24552975594997,0
189,818721220,9.61998176574707,-1.33049929141998,1.71434795856476,-0.02022122777998,-0.13942912220955,-0.14086343348026,9.82896137237549,-1.47479641437531,0.35137605667114,0.08837661892176,0.61063235998154,0.34031593799591,0
190,818754554,9.65532207489014,-1.27562642097473,1.72614979743958,-0.45977354049683,-0.81497049331665,0.20357932150364,9.85918045043945,-1.46229183673859,0.39121162891388,-0.54051446914673,0.27932572364807,0.15772941708565,0
191,818787888,9.66815567016602,-1.28375720977783,1.72679662704468,-0.52207005023956,-0.63943386077881,-0.01116073410958,9.81715774536133,-1.50249755382538,0.31100934743881,1.25908184051514,-0.13463635742664,-0.07780817896128,0
192,818821222,9.82711029052734,-1.35523414611816,1.75078535079956,-1.66421735286713,-0.56440794467926,-0.7908690571785,10.02347373962402,-1.5208991765976,0.30200326442719,1.10489344596863,0.3337142765522,0.22868300974369,0
193,818854556,9.62659645080566,-1.33597183227539,1.78943884372711,0.13591058552265,-0.3878915309906,0.10105810314417,9.91231918334961,-1.29130399227142,0.36020398139954,-1.9541882276535,0.83560794591904,0.01483615674078,0
194,818887890,9.68351173400879,-1.32118630409241,1.78029990196228,-0.02739918790758,-0.3067312836647,1.03739440441132,9.82452964782715,-1.5063271522522,0.42016661167145,-1.77424597740173,1.64014112949371,0.08589218556881,0
195,818921224,9.68394947052002,-1.3578896522522,1.74319183826447,1.67780780792236,-0.01338903978467,0.0127647286281,9.85390663146973,-1.63275277614594,0.3568739593029,2.55563545227051,0.29852885007858,-0.14516319334507,0
196,818954558,9.64925861358643,-1.30346739292145,1.7017115354538,2.08836674690247,-0.27816677093506,-0.58279782533646,9.87000179290771,-1.45466768741608,0.31495410203934,2.83323860168457,0.38529187440872,-0.07144983112812,0
197,818987892,9.71072864532471,-1.31104218959808,1.65188574790955,-0.06202114745975,-0.47268232703209,0.07372935116291,9.888747215271,-1.40187466144562,0.29698371887207,0.83806675672531,0.60887151956558,0.55963754653931,0
198,819021226,9.69698333740234,-1.3675057888031,1.71485579013824,0.38528227806091,-0.34901785850525,0.51367235183716,9.90143394470215,-1.47028017044067,0.31293174624443,0.07308584451675,0.55584681034088,0.37935611605644,0
199,819054560,9.63449573516846,-1.28407394886017,1.72501659393311,1.47200989723206,-0.42596477270126,0.44810375571251,9.85393714904785,-1.47507202625275,0.34935867786407,-0.52060055732727,0.71946722269058,-0.09364964812994,0
200,819087894,9.65203189849854,-1.26381409168243,1.74630439281464,0.35572522878647,-0.54578107595444,-0.0092269750312,9.79808235168457,-1.55029129981995,0.36764931678772,1.05098509788513,0.3406937122345,-0.00642558606341,0
201,819121228,9.71506023406982,-1.31722748279572,1.7664749622345,0.32989472150803,-0.59986865520477,-0.63595050573349,9.89518547058105,-1.49476969242096,0.3434402346611,2.29141807556152,-0.16338342428207,0.29615649580956,0
202,819154562,9.73925876617432,-1.31640648841858,1.74384498596191,0.61682093143463,-0.50821995735168,-0.4993771314621,9.93401336669922,-1.38909327983856,0.32474115490913,0.35364097356796,0.56033545732498,0.29938045144081,0
203,819187896,9.69217777252197,-1.30212008953094,1.73231160640717,0.03264658898115,-0.30883154273033,0.58965879678726,9.88051319122314,-1.40877497196198,0.35304126143456,-0.601831138134,0.8109684586525,0.21795125305653,0
204,819221230,9.69518089294434,-1.32929515838623,1.7249311208725,0.63448089361191,-0.22837559878826,0.67692112922668,9.87357711791992,-1.53518891334534,0.33250370621681,0.69357264041901,0.63816595077515,-0.12077666074038,0
205,819254564,9.63336944580078,-1.28868639469147,1.69069266319275,1.43359088897705,-0.45988246798515,-0.42962104082108,9.84127235412598,-1.54900896549225,0.35046479105949,1.56907224655151,0.2651746571064,-0.41293752193451,0
206,819287898,9.64368629455566,-1.26176285743713,1.75618278980255,0.3541884124279,-0.81575167179108,-0.86175847053528,9.85892963409424,-1.47330415248871,0.35020726919174,0.62375247478485,0.11281753331423,-0.10438135266304,0
207,819321232,9.67117500305176,-1.27176988124847,1.70204186439514,-1.48681700229645,-0.66975283622742,-0.14366161823273,9.82362270355225,-1.38647603988647,0.2730658352375,1.2335010766983,0.2000287771225,-0.2489458322525,0
208,819354566,9.81623554229736,-1.4043390750885,1.79927515983582,-1.78896391391754,0.05021689832211,-0.52071267366409,9.97203731536865,-1.52955913543701,0.29904380440712,-0.05411322787404,0.93628823757172,-0.09048967063427,0
209,819387900,9.63100337982178,-1.31058835983276,1.76294815540314,0.3315532207489,0.11707884818316,-0.12458016723394,9.90961074829102,-1.34263920783997,0.36910688877106,-2.84084606170654,1.44002950191498,0.02733515761793,0
210,819421234,9.59768390655518,-1.25964641571045,1.74348080158234,-1.14751303195953,0.17422719299793,0.96961045265198,9.75268745422363,-1.49127042293549,0.41123595833778,-1.90944921970367,1.69393444061279,0.2703612446785,0
211,819454568,9.65677261352539,-1.31809270381927,1.75104928016663,-0.98988610506058,0.10600776970387,0.40111091732979,9.83113193511963,-1.57595276832581,0.36854991316795,1.55427777767181,0.52104234695435,-0.32420551776886,0
212,819487902,9.69087219238281,-1.28714144229889,1.68230879306793,-0.9595285654068,-0.1643503010273,-0.70687210559845,9.89284801483154,-1.45941567420959,0.30492752790451,0.36591583490372,0.57372450828552,0.11447597295046,0
213,819521236,9.75810432434082,-1.31003618240356,1.69880032539368,-2.92331838607788,-0.51697957515717,-0.7193198800087,9.94517517089844,-1.4888026714325,0.33633062243462,-2.09894490242004,1.1858104467392,-0.07216057926416,0
214,819554570,9.6609582901001,-1.36847186088562,1.76767337322235,-1.38380932807922,-0.31344822049141,-0.15333043038845,9.86611080169678,-1.46482491493225,0.3611658513546,-2.32598233222961,0.94637018442154,-0.87812834978104,0
215,819587904,9.59087562561035,-1.33595752716064,1.7956668138504,-1.91018879413605,-0.26039791107178,-0.21871326863766,9.79028606414795,-1.51533043384552,0.3867458999157,-1.18315005302429,0.9472473859787,-1.0257214307785,0
216,819621238,9.59311580657959,-1.37542068958282,1.82430684566498,-2.55633974075317,-0.20442135632038,-0.72259199619293,9.76793479919434,-1.58686697483063,0.41321605443954,0.27194282412529,0.62197238206863,-0.3569033741951,0
217,819654572,9.67285442352295,-1.45477306842804,1.79894840717316,-1.06942629814148,-0.05045701563358,-0.7096318602562,9.84737205505371,-1.47417950630188,0.39149984717369,0.85422199964523,0.3392850458622,0.70785182714462,0
218,819687906,9.68888092041016,-1.36739552021027,1.74746477603912,-1.13345170021057,0.14782051742077,0.26665702462196,9.88634204864502,-1.42231166362762,0.38738232851028,0.21954244375229,0.51291674375534,1.10746431350708,0
219,819721240,9.65486907958984,-1.38328218460083,1.77312195301056,-0.46359625458717,-0.16063643991947,1.17428135871887,9.87621688842773,-1.44452273845673,0.43365341424942,-0.74153572320938,0.69639647006989,0.92248618602753,0
220,819754574,9.59291362762451,-1.26609170436859,1.7532879114151,0.08347498625517,-0.38661730289459,1.13255202770233,9.80767059326172,-1.53059732913971,0.43389874696732,0.11996348202229,0.35677853226662,0.7674525976181,0
221,819787908,9.6796350479126,-1.28851866722107,1.74023854732513,-1.60146629810333,-1.10724365711212,0.26634973287582,9.86138153076172,-1.62787580490112,0.41139525175095,1.90161514282227,-0.55182892084122,0.38627800345421,0
222,819821242,9.60105228424072,-1.36284971237183,1.82409000396729,-0.65378969907761,-0.96650147438049,-0.5519472360611,9.82621383666992,-1.49300599098206,0.36282801628113,1.88592088222504,-0.65773743391037,0.05306952446699,0
223,819854576,9.80747699737549,-1.35679149627686,1.77678668498993,-2.4466278553009,-0.81263345479965,-0.53202706575394,9.93445205688477,-1.51781892776489,0.31415233016014,0.85876190662384,0.13901934027672,0.70000153779984,0
224,819887910,9.72045707702637,-1.43718087673187,1.83815276622772,-0.60410755872726,-0.0996013879776,-0.07069104909897,9.95232963562012,-1.42172849178314,0.35783952474594,-0.72284471988678,0.33639073371887,0.5618337392807,0
225,819921244,9.67342090606689,-1.32885098457336,1.79529023170471,0.13272179663181,0.0039795730263,0.92489051818848,9.89408683776855,-1.45854449272156,0.42518073320389,-2.01435256004333,1.63435292243958,0.304304510355,0
226,819954578,9.59457778930664,-1.33041870594025,1.77654659748077,-0.38871750235558,0.14103953540325,0.60696655511856,9.78090000152588,-1.60993790626526,0.41400948166847,1.02948319911957,0.58212542533875,-0.00419087801129,0
227,819987912,9.68503379821777,-1.36666631698608,1.77379930019379,-0.23330606520176,-0.22824114561081,-0.33926579356194,9.86424732208252,-1.55734956264496,0.3771744966507,2.61213064193726,0.48733288049698,-0.00089324294822,0
228,820021246,9.70687294006348,-1.32201588153839,1.72652626037598,-0.96211540699005,-0.16351787745953,-0.59564888477325,9.90713214874268,-1.42980527877808,0.31094211339951,-0.05042500421405,0.67969697713852,0.63641160726547,0
229,820054580,9.68544673919678,-1.38943362236023,1.76002752780914,-1.7230943441391,0.02315067872405,0.28493809700012,9.89123916625977,-1.4911425113678,0.33738881349564,-0.72240304946899,0.98183715343475,0.36591580510139,0
230,820087914,9.62003517150879,-1.34037518501282,1.76607930660248,-0.30646234750748,0.0102034593001,0.35257482528687,9.8403205871582,-1.48613405227661,0.39345616102219,-0.96859222650528,1.11634230613708,-0.12234225869179,0
231,820121248,9.64510631561279,-1.28288292884827,1.78151416778564,-1.33177709579468,-0.37305536866188,-0.43956518173218,9.81447410583496,-1.60898733139038,0.41735661029816,-0.22966906428337,0.81010407209396,-0.14413546025753,0
232,820154582,9.68328857421875,-1.37327075004578,1.79604029655457,-1.88278329372406,-0.59272909164429,-0.95249795913696,9.87792778015137,-1.5363541841507,0.41900622844696,0.5314314365387,0.19845998287201,-0.01748386956751,0
233,820187916,9.73397922515869,-1.4070029258728,1.80572414398193,0.10638553649187,-0.42624005675316,-0.87983453273773,9.91560459136963,-1.48849642276764,0.38758385181427,0.32064539194107,0.52070617675781,-0.37294334173203,0
234,820221250,9.67266178131104,-1.34513461589813,1.78909969329834,0.1757959574461,-0.42171305418015,-0.49058559536934,9.88862800598145,-1.4971878528595,0.41470664739609,0.21209235489368,0.61791914701462,-0.43462508916855,0
235,820254584,9.66374111175537,-1.37231707572937,1.78967654705048,0.12635704874992,-0.35049697756767,-0.30255001783371,9.86618995666504,-1.53443253040314,0.40033084154129,0.84964376688004,0.39387848973274,-0.545425593853,0
236,820287918,9.62103843688965,-1.35642755031586,1.74311923980713,1.71536290645599,-0.38390243053436,-0.77335637807846,9.80796241760254,-1.54663300514221,0.39717635512352,1.97055780887604,0.02799468114972,-0.77367317676544,0
237,820321252,9.64681911468506,-1.2893146276474,1.76555371284485,1.28120791912079,-0.69111377000809,-1.10295331478119,9.84519004821777,-1.50060272216797,0.38546371459961,2.17579221725464,-0.19304612278938,-0.45607575774193,0
238,820354586,9.68449306488037,-1.27173602581024,1.71138381958008,-1.42028820514679,-0.96700114011765,-0.53867989778519,9.87171363830566,-1.39199817180634,0.33771958947182,1.38379657268524,-0.22954419255257,-0.29579147696495,0
239,820387920,9.74566078186035,-1.38922214508057,1.82900679111481,-0.93803954124451,-0.62580144405365,-0.61440378427505,9.94069576263428,-1.4794408082962,0.38963744044304,-0.44200158119202,0.38343492150307,-0.44788601994514,0
240,820421254,9.61789703369141,-1.26492249965668,1.78941094875336,0.24532803893089,-0.7053929567337,0.02325953170657,9.86211013793945,-1.37179577350616,0.42854654788971,-1.56071960926056,0.83505725860596,-0.44748270511627,0
241,820454588,9.67470932006836,-1.30511689186096,1.80827462673187,-1.178830742836,-0.39278349280357,0.23058791458607,9.81050205230713,-1.56442999839783,0.39398500323296,0.12084712833166,0.71135431528091,-0.18857029080391,0
242,820487922,9.63880157470703,-1.3498729467392,1.78917586803436,0.31395721435547,-0.3955112695694,-0.43449380993843,9.851975440979,-1.51241743564606,0.4036523103714,2.35045170783997,0.11112068593502,-0.57610321044922,0
243,820521256,9.63409519195557,-1.30099999904633,1.70330929756165,-0.84039753675461,-0.59595632553101,-0.46128472685814,9.82337188720703,-1.44839704036713,0.33622914552689,1.03999722003937,0.21779760718346,0.08226159960032,0
244,820554590,9.7227201461792,-1.40176558494568,1.69468784332275,-1.64819014072418,-0.66954159736633,-0.11472567170858,9.89787578582764,-1.52451658248901,0.34204262495041,0.49129638075829,0.35232824087143,0.21108704805374,0
245,820587924,9.6683988571167,-1.40516245365143,1.7456955909729,1.20056009292603,-0.71794325113297,-0.22895835340023,9.89354705810547,-1.50156009197235,0.36346605420113,-0.2057948410511,0.01345947477967,-0.26287916302681,0
246,820621258,9.65247821807861,-1.24432718753815,1.7634904384613,0.35055142641068,-0.96174412965775,-0.33599382638931,9.85266494750977,-1.48990166187286,0.40271899104118,0.41938868165016,0.12426640838385,-0.24514874815941,0
247,820654592,9.75180053710938,-1.30186641216278,1.81597673892975,-0.5944002866745,-0.92795443534851,-0.70527768135071,9.91967582702637,-1.54341506958008,0.39579045772552,1.56022953987122,-0.25800630450249,-0.53358614444733,0
248,820687926,9.70427799224854,-1.32304799556732,1.85744440555573,0.84688705205917,-0.770756483078,-1.36130201816559,9.93341732025146,-1.48225224018097,0.38634172081947,1.91407561302185,0.18685746192932,-1.1767852306366,0
249,820721260,9.6432466506958,-1.29038846492767,1.78439974784851,-0.13391600549221,-0.43679261207581,-1.0443514585495,9.83222770690918,-1.4090017080307,0.38109707832336,1.72462463378906,0.57134252786636,-0.64288192987442,0
250,820754594,9.65757274627686,-1.38394141197205,1.76912879943848,-0.35936537384987,0.04971104860306,-0.36321365833282,9.84078884124756,-1.44708621501923,0.37160819768906,1.9252622127533,0.64020866155624,0.10555636137724,0
251,820787928,9.64179611206055,-1.3483954668045,1.72071754932404,1.26318311691284,0.01125357951969,0.01706125959754,9.84716320037842,-1.43335115909576,0.36058861017227,1.14809572696686,0.87735670804977,0.10940465331078,0
252,820821262,9.66070365905762,-1.26885426044464,1.6694403886795,0.71029454469681,-0.43495485186577,0.41337296366692,9.83923816680908,-1.45713222026825,0.38866570591927,0.6132385134697,0.42746958136559,0.47259274125099,0
253,820854596,9.61203765869141,-1.23393440246582,1.71724677085876,0.11618880182505,-0.65099155902863,0.61676335334778,9.80570411682129,-1.4257481098175,0.35772159695625,1.6994537115097,-0.39080175757408,0.31611829996109,0
254,820887930,9.7982063293457,-1.24001586437225,1.71185028553009,-2.61760520935059,-1.30700325965881,-0.03556323423982,9.97381591796875,-1.47753489017487,0.3421219587326,0.62024354934692,0.0099889524281,0.26368272304535,0
255,820921264,9.64633464813232,-1.30488109588623,1.835169672966,-1.3262130022049,-1.42871510982513,-0.36992430686951,9.91352653503418,-1.39787638187408,0.43109545111656,-2.05628681182861,0.18998219072819,-0.21804410219193,0
256,820954598,9.68237209320068,-1.28399538993835,1.81168329715729,-1.24115931987762,-1.41699063777924,0.23332206904888,9.83930397033691,-1.47817730903625,0.44842115044594,-0.98744320869446,0.59434914588928,-0.28549516201019,0
257,820987932,9.67420673370361,-1.37061512470245,1.79223656654358,-0.60758447647095,-0.51847785711288,0.03064879588783,9.82498645782471,-1.57387208938599,0.35448282957077,2.95646166801453,-0.53683263063431,-0.17513006925583,0
258,821021266,9.67241764068604,-1.36908948421478,1.74363267421722,0.72565585374832,-0.37850451469421,-0.29287484288216,9.87471008300781,-1.44390249252319,0.32201853394508,1.68413102626801,0.01023867633194,0.07867580652237,0
259,821054600,9.69272613525391,-1.31685662269592,1.65311825275421,-0.59761464595795,-0.38264733552933,0.18059194087982,9.86290073394775,-1.41448223590851,0.28807553648949,-1.53857123851776,0.71063095331192,0.92194205522537,0
260,821087934,9.68087863922119,-1.37417197227478,1.67112565040588,-1.26340413093567,-0.49849998950958,0.76170569658279,9.87724876403809,-1.50975835323334,0.33214309811592,-0.66538268327713,0.18062075972557,0.66779339313507,0
261,821121268,9.67273998260498,-1.32303595542908,1.70565438270569,0.03505417704582,-1.06570601463318,0.67818909883499,9.89944267272949,-1.45588910579681,0.3978396654129,-0.88456344604492,-0.20352812111378,0.62022441625595,0
262,821154602,9.6686372756958,-1.269171833992,1.76441299915314,-0.33680701255798,-1.4262752532959,0.26801446080208,9.85821342468262,-1.54994761943817,0.3733437359333,-0.04683602228761,-0.46010971069336,0.08634041249752,0
263,821187936,9.71504402160645,-1.27922320365906,1.80387330055237,-0.79279631376266,-1.2116152048111,-0.48309394717216,9.8893346786499,-1.51426005363464,0.35440507531166,1.68983626365662,-0.88730388879776,-0.21427264809608,0
264,821221270,9.73043060302734,-1.31432819366455,1.82362699508667,-0.1746209859848,-0.75040090084076,-1.10815918445587,9.93703556060791,-1.43700766563416,0.36085423827171,0.63619375228882,-0.15815518796444,-0.22168110311031,0
265,821254604,9.72897434234619,-1.33718514442444,1.75562572479248,-0.67112958431244,-0.76599264144897,-0.5466582775116,9.93380641937256,-1.4306116104126,0.39081528782845,-0.47045409679413,0.62132889032364,-0.2287854552269,0
266,821287938,9.70046043395996,-1.40401327610016,1.73375463485718,0.74755471944809,-0.72519165277481,-0.22862537205219,9.88510894775391,-1.53875660896301,0.37728074193001,0.43672850728035,0.48399674892426,-0.72422152757645,0
267,821321272,9.63853073120117,-1.37315857410431,1.68469846248627,2.70567154884338,-0.78671336174011,-0.81956166028976,9.82739353179932,-1.5867737531662,0.36997932195663,2.43766975402832,-0.02350285463035,-0.85883557796478,0
268,821354606,9.62601661682129,-1.34942090511322,1.73805522918701,3.34231972694397,-1.03044390678406,-1.02692210674286,9.82833862304688,-1.51263809204102,0.35043558478355,2.61983323097229,-0.62709808349609,-0.51909583806992,0
269,821387940,9.68488311767578,-1.26542782783508,1.64596152305603,1.70082724094391,-1.11769986152649,-0.32097837328911,9.8255729675293,-1.39342522621155,0.24641852080822,3.34462809562683,-0.68130743503571,-0.43528464436531,0
270,821421274,9.80474662780762,-1.36420798301697,1.77199876308441,1.23796737194061,-0.64974296092987,-0.78572082519531,9.97406005859375,-1.48203778266907,0.2722519338131,1.14872324466705,0.08142917603254,-0.19741947948933,0
271,821454608,9.64640426635742,-1.22241318225861,1.70880997180939,0.68477153778076,-0.68271291255951,0.0370519682765,9.89550304412842,-1.28775572776794,0.32938677072525,-1.49541354179382,0.79616445302963,-0.06840191781521,0
272,821487942,9.65179920196533,-1.28925538063049,1.74993371963501,-0.99902981519699,-0.47474420070648,1.0493940114975,9.78279685974121,-1.50561535358429,0.34905105829239,-0.61480724811554,0.88812041282654,-0.04758199676871,0
273,821521276,9.66268825531006,-1.34088790416718,1.73685503005981,1.46643280982971,-0.26104465126991,-0.07599288225174,9.85374927520752,-1.56605958938599,0.34789410233498,2.34743642807007,0.09692487865686,-0.44158542156219,0
274,821554610,9.6491527557373,-1.25506794452667,1.66731011867523,1.0410121679306,-0.41022583842278,-0.7486976981163,9.83335876464844,-1.45070242881775,0.28202465176582,1.58173763751984,0.21171456575394,0.29913711547852,0
275,821587944,9.73571300506592,-1.31331181526184,1.66131138801575,-1.50438106060028,-0.62915033102036,-0.43973806500435,9.90760135650635,-1.44718205928802,0.28688555955887,0.37521004676819,0.58851265907288,0.55298143625259,0
276,821621278,9.66422939300537,-1.35069942474365,1.70598781108856,-0.38140514492989,-0.57215571403503,0.21461842954159,9.88700103759766,-1.38775134086609,0.31098049879074,-0.72118002176285,0.37006509304047,0.26256218552589,0
277,821654612,9.61702728271484,-1.2863495349884,1.68726193904877,-0.93988353013992,-0.63798034191132,0.85370010137558,9.80654525756836,-1.44579005241394,0.33417278528214,-1.10611319541931,0.70239615440369,0.09717457741499,0
278,821687946,9.65622806549072,-1.32232713699341,1.70979678630829,-1.28543090820312,-0.4809744656086,0.55625981092453,9.81897258758545,-1.56060945987701,0.30569505691528,0.39183586835861,-0.05348251760006,0.33867031335831,0
279,821721280,9.73153781890869,-1.3206228017807,1.7332067489624,-0.25443017482758,-0.65625500679016,-0.43985968828201,9.91070938110352,-1.51458704471588,0.31309753656387,0.48810121417046,-0.18790438771248,0.45977994799614,0
280,821754614,9.72672176361084,-1.26765859127045,1.72886395454407,-0.96098202466965,-0.67191714048386,-0.31015059351921,9.9404935836792,-1.40858852863312,0.31987899541855,-0.79769158363342,0.43630594015121,0.64371758699417,0
281,821787948,9.71476078033447,-1.30841958522797,1.76708817481995,-2.36327075958252,-0.23448427021503,0.62850683927536,9.89830207824707,-1.42968761920929,0.30936351418495,-0.96094042062759,0.776442527771,0.44434189796448,0
282,821821282,9.6278772354126,-1.31502449512482,1.75801968574524,-1.61790311336517,0.32312020659447,0.671222448349,9.83721923828125,-1.46458387374878,0.34776702523232,-1.46743810176849,1.01944947242737,0.0785029232502,0
283,821854616,9.68228626251221,-1.31758463382721,1.73939859867096,-1.25423455238342,-0.07199088484049,-0.13865435123444,9.87064456939697,-1.60329604148865,0.39162182807922,-1.49928116798401,1.20452702045441,0.20597736537457,0
284,821887950,9.60957527160645,-1.29215550422668,1.66553068161011,-0.62443125247955,-0.03345659002662,-0.63743609189987,9.78580188751221,-1.50754380226135,0.32061582803726,1.36077702045441,0.37155702710152,-0.08710558712482,0
285,821921284,9.86632347106934,-1.3662816286087,1.72713482379913,-2.43823957443237,-0.30834493041039,-1.28034055233002,10.01624870300293,-1.56746912002563,0.29331722855568,0.64408904314041,0.56983780860901,0.22131936252117,0
286,821954618,9.67447376251221,-1.32536828517914,1.77525949478149,-0.29183748364449,-0.21198990941048,-0.84895849227905,9.9446964263916,-1.336146235466,0.32851731777191,-2.79178166389465,1.15136790275574,-0.09120364487171,0
287,821987952,9.60560989379883,-1.31533563137054,1.75478565692902,-2.33639025688171,0.01379564031959,0.86974000930786,9.78109169006348,-1.46925830841064,0.39391434192657,-2.56630659103394,1.89856719970703,-0.18182779848576,0
288,822021286,9.65703773498535,-1.43747329711914,1.81271052360535,-0.09366564452648,0.48354539275169,0.41195151209831,9.81080722808838,-1.60870265960693,0.37646827101707,0.36752307415009,0.92880618572235,-0.43956199288368,0
289,822054620,9.71323299407959,-1.39720904827118,1.83632636070251,2.67295098304749,1.10287976264954,-0.11840110272169,9.87648105621338,-1.51393055915833,0.35512489080429,0.67570149898529,1.7253612279892,0.24829591810703,0
290,822087954,10.31840133666992,-1.33086776733398,2.35025143623352,-4.21671628952026,7.91848516464233,7.75731754302979,9.9144401550293,-0.94943952560425,0.2348513007164,-4.27987432479858,4.26672554016113,-0.01799613051116,0
291,822121288,11.36396217346191,-2.143315076828,2.73645281791687,-31.66919708251953,19.33432006835938,33.30665969848633,10.61744976043701,0.13453657925129,-0.4799380004406,-23.42892837524414,4.99085235595703,-7.75481653213501,0
292,822154622,12.25453090667725,-3.48833560943604,4.41495037078857,-54.00399780273438,45.31966400146484,84.6822280883789,10.81297588348389,1.13686919212341,-0.07367379963398,-51.24431228637695,9.4199047088623,-23.98232841491699,0
293,822187956,12.67702579498291,-5.78664016723633,5.10175657272339,-84.62641906738281,69.90174865722656,158.41966247558594,10.5627269744873,0.63926780223846,0.50370824337006,-75.53543853759766,7.37871074676514,-37.88804244995117,0
294,822221290,13.29365634918213,-9.84830570220947,5.81096363067627,-45.34131622314453,100.72523498535156,221.0927581787109,10.8248291015625,-1.13994836807251,1.08081555366516,-64.52200317382812,10.46385288238525,-48.50427627563477,0
295,822254624,11.12418746948242,-9.93568992614746,6.44203090667725,11.57075691223145,126.04695129394533,254.81190490722656,10.25484561920166,-2.73846459388733,1.43606507778168,-41.13094329833984,16.9680061340332,-37.02133178710938,0
296,822287958,7.70702838897705,-8.54808330535889,5.97453832626343,-6.52475786209106,134.91317749023438,279.26708984375,9.83032989501953,-3.82218742370605,1.81222748756409,-34.43542861938477,28.66421508789062,-6.76568698883057,0
297,822321292,5.32402467727661,-9.83261775970459,5.41076326370239,-13.39584922790527,129.28277587890625,298.79299926757807,9.6103687286377,-4.48502159118652,2.56686353683472,-17.58574104309082,49.906982421875,23.90853118896484,0
298,822354626,3.2775764465332,-9.65562057495117,5.67077159881592,32.97215270996094,128.27085876464844,295.0598449707031,9.91644954681396,-4.77298593521118,2.63949966430664,16.63956451416016,74.58858489990234,55.42617416381836,0
299,822387960,1.77060556411743,-8.74179935455322,5.17651510238647,42.88430023193359,118.5068130493164,285.62896728515625,10.32893753051758,-5.52424812316895,2.92972731590271,33.66944885253906,99.87860107421876,106.47696685791016,0
300,822421294,0.03585009276867,-8.42771434783936,4.62910985946655,44.85204315185547,98.37503051757812,270.0616149902344,11.20672702789307,-4.53403520584106,3.87932348251343,39.68020629882812,119.90399932861328,137.73019409179688,0
301,822454628,-1.19286131858826,-8.56068992614746,4.88772439956665,83.41284942626953,82.13522338867188,230.53192138671875,10.3779935836792,-5.13261079788208,3.79858946800232,50.70615005493164,131.92234802246094,152.27951049804688,0
302,822487962,-1.79413878917694,-7.24456596374512,4.53231716156006,104.24578094482422,74.674072265625,184.33175659179688,10.02129936218262,-5.80799722671509,3.95845150947571,57.62135314941406,132.84983825683594,160.67572021484375,0
303,822521296,-3.48145484924316,-5.10767221450806,4.51053524017334,82.31665802001953,57.42588806152344,134.16078186035156,10.15832424163818,-4.98266124725342,4.38186311721802,79.12378692626953,122.18775177001952,144.55801391601562,0
304,822554630,-3.21124839782715,-6.04674005508423,4.2334451675415,55.52992248535156,26.92358207702637,86.65261840820312,9.15546035766602,-5.15535020828247,4.75480937957764,60.30893707275391,118.95904541015624,142.6699981689453,0
305,822587964,-2.37038421630859,-7.34161424636841,4.75067472457886,125.54753875732422,23.11566162109375,44.30102157592773,8.05566024780273,-5.12403392791748,4.90406703948975,48.30063629150391,101.5022201538086,140.82260131835938,0
306,822621298,-3.41892790794373,-4.19483613967896,5.09443473815918,133.51795959472656,16.98088073730469,8.5680685043335,8.05222511291504,-4.7565336227417,4.48684501647949,102.72837066650392,86.52312469482422,124.20703125,0
307,822654632,-3.5826895236969,-4.05125379562378,5.38792705535889,99.7722625732422,2.80260920524597,-25.67475128173828,7.03202676773071,-6.3540244102478,5.81967926025391,168.0569305419922,81.20500183105469,118.62483978271484,0
308,822687966,-2.57778573036194,-2.32046604156494,5.44664669036865,15.5669116973877,-13.98976039886475,-43.87562942504883,5.87371397018433,-4.91021919250488,6.19349050521851,160.03805541992188,72.1391372680664,95.886962890625,0
309,822721300,-1.98565888404846,-3.91964840888977,5.71850824356079,-58.56911849975586,-34.16152954101562,-58.1656379699707,5.52980518341064,-3.06804728507996,5.71168231964111,155.8729248046875,75.8221206665039,88.1148681640625,0
310,822754634,-0.91823041439056,-5.91627264022827,5.65097665786743,-20.27750205993652,-30.27447891235352,-77.50184631347656,3.95952749252319,-2.08215379714966,6.73927593231201,134.40525817871094,79.1374282836914,74.64901733398438,0
311,822787968,-0.42778021097183,-4.44241523742676,6.18429565429688,-14.87142562866211,-26.06563568115234,-79.01209259033203,2.96396231651306,-1.94067072868347,6.64611864089966,76.56299591064453,78.51129150390625,65.91162872314453,0
312,822821302,-0.39363181591034,-5.72499370574951,6.21726179122925,-1.36745083332062,-19.17333221435547,-80.8298568725586,2.08840608596802,-2.47916221618652,7.88635540008545,66.54210662841797,59.61620712280273,59.84420013427734,0
313,822854636,0.1251128911972,-4.3797721862793,6.23282194137573,3.25577139854431,-17.38640975952148,-72.6845474243164,1.97962260246277,-1.33070993423462,7.4567723274231,59.45236968994141,43.50996017456055,50.42715072631836,0
314,822887970,0.14302325248718,-6.05036973953247,6.95028638839722,25.59598159790039,-12.51170921325684,-64.44825744628906,2.49035501480103,-0.85601544380188,7.51098966598511,39.14392852783203,30.45666694641113,34.17582702636719,0
315,822921304,-0.16152733564377,-4.36792373657227,6.65218877792358,36.47213745117188,-8.68678092956543,-48.00413131713867,1.86361813545227,-0.45822986960411,7.88743925094604,16.95812797546387,23.4006519317627,22.08873176574707,0
316,822954638,0.42046502232552,-3.301100730896,6.99610948562622,-25.10529518127441,-11.91841125488281,-31.72908020019531,2.03984141349792,-0.58365482091904,7.78989410400391,4.18004465103149,13.21631336212158,12.1561918258667,0
317,822987972,-1.38267421722412,-6.00124216079712,6.72104406356812,-55.13095474243164,-5.92235898971558,-18.2220630645752,1.76534986495972,-1.1468722820282,8.12102127075195,-3.57359027862549,1.34320068359375,1.15768778324127,0
318,823021306,-1.11125159263611,-5.89246511459351,6.87890815734863,-36.0926628112793,-5.656081199646,-34.04021835327148,1.49838542938232,-2.8769748210907,9.45700836181641,-4.98996210098267,-0.70219588279724,10.66343879699707,0
319,823054640,-0.86426311731339,-6.61626195907593,8.38238525390625,-3.87484884262085,0.86573845148087,-36.40140533447266,2.10239386558533,-1.93437492847443,9.39975357055664,-11.22664070129395,6.516770362854,16.92909049987793,0
320,823087974,-0.84554475545883,-6.94225978851318,7.81496238708496,-39.45432662963867,0.00769680598751,-13.56871604919434,1.32308959960938,-1.31929636001587,9.33008480072021,-42.42733001708984,9.18024253845215,8.94126319885254,0
321,823121308,-0.20108273625374,-7.92306518554688,7.81940650939941,-49.68127059936523,-16.50017547607422,20.9246940612793,1.83807182312012,-0.88371187448502,9.40318870544434,-52.08125686645508,4.07191181182861,-5.81614303588867,0
322,823154642,0.16902028024197,-6.71842336654663,7.73433828353882,14.56620121002197,-7.71065711975098,23.99339866638184,2.35939908027649,-2.52311897277832,8.96483612060547,-24.79270935058594,0.73186576366425,-14.5402660369873,0
323,823187976,0.40512612462044,-4.93109941482544,7.82452249526978,1.35353708267212,1.9456125497818,38.01389312744141,1.81739938259125,-1.31185531616211,8.3326416015625,-2.68731069564819,-3.42956233024597,-27.63139152526855,0
324,823221310,0.25379157066345,-7.54157829284668,8.41319274902344,-15.32696342468262,6.1533088684082,65.54025268554688,2.36348724365234,-0.14912977814674,8.28401851654053,-33.78792572021484,-4.11781930923462,-40.92855834960938,0
325,823254644,0.17111404240131,-8.50128746032715,8.41870021820068,34.86273574829102,18.18928527832031,95.95599365234376,1.86332952976227,-1.29293763637543,8.68542766571045,-71.67298889160156,0.79915142059326,-55.60906982421875,0
326,823287978,-0.43361255526543,-6.14284133911133,7.3801121711731,46.32294082641602,36.74211502075195,105.40586853027344,1.51150846481323,-3.86054158210754,8.73754119873047,-66.81700134277344,0.31782740354538,-73.5566177368164,0
327,823321312,-1.69881081581116,-6.08920192718506,7.02830696105957,16.38862800598145,33.96990966796875,107.71294403076172,2.82486724853516,-3.80322432518005,8.71897029876709,-47.1906852722168,-2.94993019104004,-54.17198944091797,0
328,823354646,-0.72573268413544,-6.75717353820801,6.55999517440796,28.18338775634766,26.98837280273438,125.15685272216795,2.46492958068848,-2.34159278869629,8.09720611572266,-54.94461059570312,-7.33923625946045,-60.94417953491211,0
329,823387980,-2.03825402259827,-5.95362329483032,6.16022729873657,65.44003295898438,36.30788040161133,118.73595428466795,2.69587373733521,-3.58983325958252,7.55342626571655,-66.74685668945312,-3.3537003993988,-78.36969757080078,0
330,823421314,-3.72421455383301,-4.47262907028198,4.93266916275024,59.07825469970703,28.02220344543457,112.41624450683594,3.43979406356812,-5.01391839981079,7.64969253540039,-55.46210861206055,-6.31385278701782,-57.81095504760742,0
331,823454648,-3.0674455165863,-3.687575340271,4.96083688735962,55.43078994750977,15.66863536834717,113.19429779052734,3.05691766738892,-4.98132991790771,7.52953863143921,-39.2645378112793,-13.41878890991211,-60.34919738769531,0
332,823487982,-4.26646757125854,-1.90749478340149,5.2798285484314,12.15655708312988,22.41549301147461,105.6584930419922,1.64649569988251,-5.2040057182312,6.86224555969238,-29.05300903320312,-28.83238410949707,-83.83047485351562,0
333,823521316,-5.57572174072266,-2.77900385856628,5.38725471496582,-32.48500061035156,17.90415000915527,93.10945129394533,3.14914989471436,-5.54526376724243,6.19566297531128,-13.78553199768066,-56.0740966796875,-65.45285034179688,0
334,823554650,-4.85130834579468,-3.60171461105347,5.80822372436523,-9.88077735900879,20.17368507385254,83.99539184570312,4.64429473876953,-4.53420162200928,6.45133209228516,-22.45587539672852,-54.01350402832031,-54.30592727661133,0
335,823587984,-5.73604345321655,-1.70689797401428,5.57638359069824,-20.59598350524902,20.32956314086914,69.18629455566406,4.19589853286743,-4.36010026931763,6.42099666595459,-58.64158630371094,-60.59596252441406,-59.86357116699219,0
336,823621318,-6.77016592025757,-1.55771660804749,6.50982809066772,-27.34695434570312,12.55252647399902,52.41830444335938,5.32184553146362,-5.21838331222534,6.82757806777954,-28.47310638427734,-73.48245239257812,-53.49440002441406,0
337,823654652,-6.9299201965332,-1.76133573055267,6.52887153625488,-46.82752990722656,2.85527276992798,34.00737380981445,5.107497215271,-6.37607908248901,7.41318368911743,-34.16335678100586,-61.31266784667969,-52.38393020629883,0
338,823687986,-7.76825094223022,-2.39892673492432,7.34074115753174,-29.41347885131836,-0.38400089740753,14.09192657470703,6.28656816482544,-4.74179363250732,7.4126091003418,-7.73350048065186,-82.17329406738281,-68.47579956054688,0
339,823721320,-7.23776245117188,-1.38626301288605,5.99294233322144,-48.59716796875,-9.04356288909912,-7.09525203704834,7.04538822174072,-5.260573387146,6.78158760070801,-11.50083160400391,-67.08106994628906,-65.38468933105469,0
340,823754654,-7.93346405029297,-2.89390206336975,8.25603675842285,-59.38265609741211,-22.14254951477051,-16.655517578125,6.62822580337524,-4.75201797485352,7.450927734375,-17.57807159423828,-83.7893295288086,-74.0788803100586,0
341,823787988,-8.11586093902588,-2.83502960205078,8.08319854736328,-40.30507278442383,-24.9427318572998,-25.08837699890137,7.00657653808594,-4.93504619598389,7.43507051467896,0.50207245349884,-61.43343353271484,-65.6240005493164,0
342,823821322,-6.54944467544556,-3.92834997177124,7.7790150642395,-56.82289123535156,-34.04595947265625,-29.33870315551758,8.20311164855957,-4.04559087753296,7.02757787704468,-0.25737875699997,-60.70407867431641,-57.92897415161133,0
343,823854656,-6.537437915802,-2.91661262512207,7.3904333114624,-54.23157119750977,-36.05942535400391,-40.8892822265625,7.75735855102539,-4.06591939926147,6.08855819702148,17.64694404602051,-63.41119003295898,-64.8670883178711,0
344,823887990,-5.48876428604126,-2.64495635032654,6.60923767089844,-63.824951171875,-31.12313270568848,-65.16800689697266,7.81791067123413,-3.72611260414124,4.70148372650146,11.28803253173828,-70.84434509277344,-60.68303680419922,0
345,823921324,-5.422682762146,-5.94021606445312,7.1088752746582,-76.85829162597656,-11.57283210754395,-65.646484375,8.09530830383301,-3.43911147117615,4.18481922149658,-23.09263038635254,-79.05946350097656,-52.18111801147461,0
346,823954658,-6.29875755310059,-7.27754640579224,6.77403831481934,-82.59102630615234,-15.25518131256104,-44.50534057617188,8.39952182769775,-2.9110860824585,4.98311614990234,-26.67398452758789,-64.00304412841797,-39.46229553222656,0
347,823987992,-5.86867427825928,-7.66309881210327,7.61733627319336,-32.31835556030273,-13.11914253234863,-31.14361000061035,8.94592475891113,-3.70411157608032,4.94187831878662,-13.64943885803223,-52.65142059326172,-35.61423110961914,0
348,824021326,-6.32358360290527,-5.62070035934448,8.14846515655518,-11.42612838745117,-1.37233591079712,-20.60918426513672,8.80415725708008,-3.41005754470825,4.83773422241211,3.29734969139099,-46.22669982910156,-32.91492080688477,0
349,824054660,-6.21072912216187,-6.24924755096436,8.02026462554932,-23.96285057067871,-2.13476991653442,-6.47804880142212,9.51932239532471,-3.04650712013245,4.86233520507812,3.01563835144043,-26.50333976745605,-21.68633651733398,0
350,824087994,-6.36368465423584,-5.81829929351807,7.37613248825073,7.55618190765381,-0.69983887672424,-2.99970769882202,9.27613830566406,-3.22248530387878,4.96532964706421,5.4434986114502,-12.43790817260742,-11.80431079864502,0
351,824121328,-6.15445518493652,-4.88083553314209,7.23675298690796,4.8599681854248,-4.82914686203003,3.40430784225464,8.80060482025146,-3.28404259681702,4.79424238204956,6.47295475006104,-0.96624934673309,-3.25142884254456,0
352,824154662,-5.32175540924072,-5.59032249450684,7.36942863464355,-1.03320133686066,0.93601059913635,8.5269947052002,8.45926189422607,-2.98537707328796,4.13870477676392,6.22069978713989,6.45450639724731,5.48701620101929,0
353,824187996,-5.31721305847168,-5.71363353729248,6.56697559356689,5.50429391860962,8.93767929077148,9.16741371154785,8.90743064880371,-2.73195862770081,3.83746099472046,4.49920082092285,9.49327945709229,12.13525772094727,0
354,824221330,-5.47762727737427,-5.75757789611816,6.47452545166016,12.53667449951172,8.0679988861084,10.57992553710938,8.81945610046387,-2.76803016662598,4.07209491729736,-1.15047335624695,10.1934986114502,15.11268520355225,0
355,824254664,-6.12018918991089,-5.37798166275024,7.39666271209717,17.75810050964355,12.17104244232178,13.5234956741333,8.70819187164307,-3.03038716316223,4.28685569763184,-0.23059631884098,14.19840145111084,20.07999610900879,0
356,824287998,-7.08036279678345,-4.64112997055054,7.31911849975586,14.79936218261719,15.06785011291504,13.8373327255249,8.98002815246582,-3.5764422416687,4.81586170196533,-9.49914836883545,20.18832588195801,31.04398536682129,0
357,824321332,-6.8995795249939,-5.29820108413696,7.98710536956787,23.99396514892578,7.42858457565308,18.58742904663086,8.73093795776367,-4.04563760757446,5.58268117904663,-8.94140148162842,31.21713829040527,40.91201019287109,0
358,824354666,-7.03139925003052,-5.29228544235229,8.68022918701172,47.80573272705078,12.45750713348389,22.02153778076172,8.80223083496094,-4.21817827224731,5.61104965209961,3.43429183959961,47.0047721862793,49.06108856201172,0
359,824388000,-7.57915210723877,-4.05221700668335,8.14747047424316,41.48365783691406,17.12099266052246,20.91060638427734,8.98555564880371,-4.48857641220093,5.64661693572998,4.10522270202637,60.77441024780273,60.92506790161133,0
360,824421334,-6.74239444732666,-6.03154277801514,8.46607494354248,47.57109832763672,14.7149772644043,23.47541618347168,8.73840808868408,-4.80830097198486,5.96172046661377,-7.32239246368408,78.98787689208984,72.86363220214844,0
361,824454668,-6.19636535644531,-5.66492080688477,8.23123073577881,82.16132354736328,25.08065223693848,25.12113952636719,8.04355144500732,-3.89699292182922,5.75358200073242,4.01728057861328,86.61262512207031,75.47340393066406,0
362,824488002,-7.10315370559692,-2.91595768928528,6.82629728317261,78.07915496826172,23.7242603302002,9.59518623352051,7.89224147796631,-4.4924840927124,5.83670806884766,22.31123924255371,91.12558746337892,74.17594146728516,0
363,824521336,-6.62658309936523,-2.40270614624023,6.74948930740356,29.72024345397949,6.41605424880981,-4.29031562805176,7.59365320205688,-5.05510234832764,6.71190357208252,16.54596710205078,92.36437225341795,75.88597106933594,0
364,824554670,-5.95529937744141,-4.08102703094482,7.53009462356567,-22.64691352844238,1.06289148330688,-10.13391017913818,6.69139194488525,-5.00076055526733,6.08664989471436,11.8214807510376,89.95795440673828,69.0987777709961,0
365,824588004,-5.54398345947266,-5.3368501663208,7.01169967651367,6.39280986785889,7.96142482757568,-25.01634216308594,6.52779817581177,-4.98688173294067,6.08653879165649,40.07059097290039,82.7933578491211,56.56709671020508,0
366,824621338,-5.17044305801392,-4.85491561889648,5.78736686706543,72.32106018066406,12.40341472625732,-45.04634094238281,6.15983867645264,-5.22980546951294,6.62651109695435,38.9711799621582,86.3138427734375,61.04080581665039,0
367,824654672,-5.1226282119751,-3.76170063018799,6.36696004867554,87.14588165283203,8.42557811737061,-56.22319412231445,5.55472850799561,-4.54775476455688,6.47827482223511,40.33589553833008,71.90369415283203,59.70943069458008,0
368,824688006,-4.95891046524048,-2.97213220596313,6.67762613296509,52.16162109375,6.43402290344238,-68.51020812988281,5.00658845901489,-4.85663747787476,6.55680370330811,58.24671936035156,68.2257308959961,57.8404541015625,0
369,824721340,-4.7748384475708,-2.27319765090942,5.20235967636108,-41.01826095581055,-3.81504607200623,-70.36819458007812,3.86639928817749,-5.23301839828491,7.31241321563721,47.40090942382812,63.73175048828125,64.66901397705078,0
370,824754674,-4.23981380462646,-6.19198656082153,5.3064112663269,-21.17553520202637,-24.49812889099121,-79.72058868408203,3.70975780487061,-4.32456398010254,7.59050512313843,41.19231796264648,60.46512603759766,63.84395599365234,0
371,824788008,-3.52475309371948,-5.25938940048218,6.16237211227417,64.29676818847656,-11.81875324249268,-89.98111724853516,2.85895895957947,-3.95224046707153,7.26672315597534,74.08329010009766,52.76277542114258,49.60605239868164,0
372,824821342,-3.72466731071472,-2.62787318229675,6.23132705688477,0.45125293731689,-17.00101661682129,-84.04545593261719,2.21794939041138,-4.27028036117554,7.34256649017334,73.43988037109375,38.1251335144043,49.64464569091797,0
373,824854676,-3.95328092575073,-4.5359935760498,5.66985321044922,-10.05133152008057,-25.34554862976074,-91.63400268554688,2.11797261238098,-3.88558101654053,8.50654315948486,75.13590240478516,34.44970321655273,51.72048187255859,0
374,824888010,-2.24456429481506,-4.34463548660278,6.91642189025879,-15.56873989105225,-24.96751976013184,-94.22799682617188,1.64420711994171,-2.67762875556946,8.12303352355957,63.17287826538086,30.96045875549316,48.53596496582031,0
375,824921344,-2.0952672958374,-6.60704660415649,6.95572948455811,-22.62117004394531,-16.80282974243164,-86.9173583984375,1.45826947689056,-3.1314685344696,8.03468322753906,48.90112686157227,23.08694458007812,46.31327056884766,0
376,824954678,-2.20795917510986,-5.57707595825195,5.97535943984985,5.26652669906616,-15.49283981323242,-83.4389877319336,1.52279305458069,-2.74528312683105,8.84237957000732,40.05115509033203,21.02181434631348,42.59743881225586,0
377,824988012,-1.1730740070343,-5.77933645248413,7.283851146698,-15.32821846008301,-19.77559280395508,-68.85990905761719,1.41855537891388,-1.63808465003967,8.15390110015869,30.48973274230957,17.2585563659668,41.34005355834961,0
378,825021346,-1.7405891418457,-6.66690683364868,7.28831052780151,7.4945821762085,-8.08615684509277,-56.09789657592773,0.82700139284134,-2.36662602424622,8.46768856048584,20.01229476928711,5.28624105453491,27.3115234375,0
379,825054680,-1.55054485797882,-5.69808530807495,7.41429710388184,19.15320777893066,-10.55109024047852,-53.21926498413086,1.52353048324585,-2.34257292747498,9.25423717498779,13.75271415710449,2.0241367816925,24.69864082336426,0
380,825088014,-1.24605202674866,-5.74419784545898,8.15776348114014,8.59461975097656,-7.32727766036987,-43.74287033081055,1.34419023990631,-1.99548125267029,8.94353199005127,11.99195575714111,3.5141818523407,20.99298286437988,0
381,825121348,-1.47458589076996,-5.20957660675049,7.39494276046753,-8.03376960754395,-7.43838787078857,-40.22473907470703,1.27530920505524,-2.00044250488281,9.09934425354004,-2.84825110435486,1.56724190711975,18.0676097869873,0
382,825154682,-1.12208116054535,-5.89469385147095,7.42941188812256,1.85804069042206,-7.1441388130188,-37.1302490234375,1.09711134433746,-2.06568241119385,9.03761577606201,-6.31844472885132,1.67485952377319,15.59109497070312,0
383,825188016,-1.066650390625,-5.72193908691406,7.38928604125977,0.919588804245,-6.34128141403198,-26.58846664428711,1.05246150493622,-1.96226942539215,8.83768558502197,-5.16437292098999,-2.80057859420776,10.82767009735107,0
384,825221350,-0.93124574422836,-5.55337810516357,7.52896785736084,-1.04500830173492,-9.99993991851807,-19.2694263458252,1.46296095848083,-2.11523222923279,9.09005641937256,-1.7090060710907,-6.05449914932251,6.44013452529907,0
385,825254684,-1.04046523571014,-6.17386245727539,7.85653400421143,4.0334849357605,-9.42102146148682,-17.17559814453125,1.29597568511963,-2.37866568565369,9.19696712493896,-2.19168329238892,-6.19621229171753,2.20050382614136,0
386,825288018,-1.0475709438324,-5.45006322860718,7.76294755935669,6.63956451416016,-6.80199718475342,-17.00741195678711,1.26835024356842,-2.54936838150024,9.26583576202393,-3.45104169845581,-6.85237264633179,1.89026367664337,0
387,825321352,-0.82168400287628,-5.66285419464111,7.18357229232788,-17.30018043518066,-5.89371633529663,-16.81354331970215,1.22046363353729,-2.64556074142456,9.0338888168335,-0.02567995153368,-7.56117248535156,-0.78169047832489,0
388,825354686,-0.9252502322197,-7.35211801528931,7.53089904785156,-41.69647979736328,-2.46674633026123,-3.21704387664795,1.06584000587463,-2.39283061027527,8.76028537750244,-8.49955654144287,-11.00623989105225,-1.0342470407486,0
389,825388020,-1.22733342647552,-6.97436904907227,7.88186168670654,-12.50861263275146,-2.61973571777344,8.03067493438721,1.55075180530548,-2.35799312591553,9.42078590393066,-11.00809955596924,-9.90789699554443,-0.55311751365662,0
390,825421354,-0.95662665367126,-6.33210706710815,7.86577749252319,-13.87819194793701,-1.93485748767853,8.08965969085693,1.29599058628082,-3.20345759391785,9.54804229736328,-21.04538917541504,-7.48375225067139,0.5186350941658,0
391,825454688,-1.36360800266266,-7.00668954849243,7.8390531539917,-3.35458922386169,-2.44777750968933,2.47267627716064,1.7440584897995,-3.28284072875977,9.85342025756836,-6.5896577835083,-5.33480739593506,-1.43033933639526,0
392,825488022,-1.01718902587891,-7.06548833847046,8.008056640625,3.35551357269287,-1.0466982126236,1.0073858499527,1.51954281330109,-3.47448945045471,9.6655101776123,1.14463806152344,-3.18313074111938,1.9012246131897,0
393,825521356,-1.21685969829559,-6.71198081970215,7.81567621231079,0.87795853614807,0.14831674098969,1.27308583259583,1.49909198284149,-3.2462592124939,9.4724588394165,1.68817818164825,-0.14724424481392,3.78139591217041,0
394,825554690,-1.37464272975922,-6.35322952270508,7.43913650512695,0.72207337617874,-0.54192310571671,2.41889572143555,1.29901194572449,-2.88089275360107,9.42347240447998,-4.09519910812378,0.13679745793343,2.37596917152405,0
395,825588024,-1.36674749851227,-6.33512830734253,7.50159025192261,3.09913682937622,-0.17048135399818,-2.40164875984192,1.29871666431427,-3.5019907951355,9.35256481170654,1.51314723491669,1.85647249221802,0.05456785857677,0
396,825621358,-1.25954937934875,-6.15548849105835,7.29224252700806,-5.00628995895386,0.34773740172386,-4.65210485458374,1.25723814964294,-3.09952712059021,9.1994743347168,5.12742805480957,0.94335448741913,3.0980429649353,0
397,825654692,-1.29606652259827,-6.45149564743042,7.29958057403564,-19.99662017822266,-2.61911535263062,-3.61898350715637,1.3268620967865,-2.98231053352356,9.37971019744873,-2.58075904846191,2.74171853065491,4.20349979400635,0
398,825688026,-1.30098307132721,-6.70711231231689,7.56146287918091,-19.21542549133301,-6.51145458221436,0.40422195196152,1.2876101732254,-3.20758819580078,9.37921905517578,-2.77208614349365,3.50654649734497,3.26677966117859,0
399,825721360,-1.20295548439026,-6.43172454833984,8.09503936767578,-27.95548057556152,-4.67357158660889,7.66842746734619,1.08729779720306,-2.23141074180603,9.17232799530029,-2.47456216812134,3.70981478691101,0.39945581555367,0
400,825754694,-0.78545582294464,-7.66797637939453,7.86803722381592,-5.90231132507324,-7.38981056213379,9.34746837615967,1.50636720657349,-2.89610171318054,9.90792846679688,-2.21460700035095,6.37624835968018,-4.35558080673218,0
401,825788028,0.26538464426994,-6.6491436958313,7.89441537857056,32.15895462036133,1.39897274971008,17.30587959289551,1.89866459369659,-2.54125118255615,9.08525657653809,12.51808452606201,6.19117832183838,-9.92940807342529,0
402,825821362,-0.39090025424957,-6.07523441314697,7.43199634552002,-6.3981785774231,3.37386322021484,39.05210113525391,1.73413908481598,-1.25402045249939,8.53460311889648,3.59003806114197,2.33925771713257,-22.81037902832031,0
403,825854696,-0.19478389620781,-7.24743413925171,7.87604713439941,-5.7870192527771,8.67358875274658,58.50080871582031,1.65869760513306,-1.84159159660339,8.65499305725098,-21.1063232421875,5.15356111526489,-30.39312934875488,0
404,825888030,-0.55287492275238,-6.92598104476929,7.196457862854,5.13631439208984,16.93890762329102,73.85105895996094,1.40783631801605,-2.45055985450745,8.6762580871582,-28.03553771972656,2.98092198371887,-38.75937652587891,0
405,825921364,-0.91680532693863,-6.53333568572998,6.98251104354858,10.6683349609375,17.22793579101562,80.43851470947266,1.93618595600128,-3.04503130912781,8.79417991638184,-33.65585708618164,3.22264719009399,-37.23089218139648,0
406,825954698,-0.89524203538895,-6.54792404174805,7.22348594665527,16.4439697265625,17.51659202575684,94.34683990478516,1.62363922595978,-2.33655595779419,8.55993747711182,-36.25926971435547,-1.83452200889587,-38.96731948852539,0
407,825988032,-1.18920564651489,-5.75333499908447,6.83824396133423,25.40253257751465,26.88762474060059,103.65734100341795,1.52497088909149,-2.93058753013611,7.89774227142334,-44.39873886108398,-6.26350212097168,-48.09518051147461,0
408,826021366,-2.67907428741455,-5.71530818939209,6.28047513961792,34.35409927368164,23.8397216796875,101.99107360839844,1.92877304553986,-3.73297905921936,8.64223098754883,-47.30469512939453,-5.09461402893066,-45.24832534790039,0
409,826054700,-2.62091302871704,-5.28680229187012,6.63533687591553,40.29679489135742,20.32455444335938,101.59340667724608,2.08036541938782,-3.78824138641357,8.56794738769531,-44.62939071655273,-11.60935592651367,-49.46433639526367,0
410,826088034,-3.88026475906372,-4.98345518112183,7.0879955291748,50.21838760375977,19.64011192321777,96.05256652832033,2.63850903511047,-4.32293558120728,8.37028503417969,-33.54547119140625,-11.8928394317627,-49.13198471069336,0
411,826121368,-3.28853940963745,-3.68553829193115,6.4389705657959,36.17467498779297,19.22194671630859,94.9664306640625,2.20803236961365,-5.05458164215088,8.25407028198242,-26.39224433898926,-14.48089599609375,-51.37884902954102,0
412,826154702,-5.25589942932129,-3.47919535636902,6.0396032333374,12.57255077362061,14.99724960327148,89.6129379272461,2.20607805252075,-4.34148931503296,8.09932708740234,-20.22928810119629,-26.82624626159668,-52.63475036621094,0
413,826188036,-4.52329015731812,-3.66836929321289,6.14932346343994,5.70437526702881,3.03260493278503,82.38616943359375,3.06749248504639,-4.41376876831055,7.74129486083984,-20.01067161560059,-25.41409301757812,-48.01903533935547,0
414,826221370,-4.51165103912354,-3.61249685287476,6.77358722686768,30.01823425292969,15.3790864944458,78.72758483886719,2.48505592346191,-4.65063858032227,7.35166025161743,-16.66411590576172,-33.24906539916992,-56.48197174072266,0
415,826254704,-5.6316294670105,-2.22159481048584,5.92903709411621,-3.41384267807007,16.56646728515625,75.47571563720703,2.785484790802,-4.28720855712891,7.15172576904297,-27.93644142150879,-47.12889862060547,-51.78800964355469,0
416,826288038,-5.45616912841797,-2.56961345672607,6.46730184555054,-8.87699794769287,17.39363861083984,67.9592514038086,4.08964395523071,-5.2063422203064,6.92147064208984,-27.65429878234863,-45.62171936035156,-43.37063598632812,0
417,826321372,-6.01183319091797,-2.27573299407959,6.53374671936035,-13.88766574859619,21.53305244445801,60.8574104309082,3.77800726890564,-4.63155698776245,7.26796531677246,-27.99980545043945,-58.27320098876953,-41.82301712036133,0
418,826354706,-7.3468542098999,-1.61997973918915,7.49022006988525,-17.03561210632324,12.88128185272217,53.83754730224609,5.04393434524536,-4.62314081192017,7.78335666656494,-22.6385326385498,-57.99274826049805,-31.07565307617188,0
419,826388040,-6.75094509124756,-1.76809442043304,6.85681438446045,-17.59230613708496,0.23855930566788,48.77256774902344,4.62060689926147,-5.40816068649292,8.36300468444824,-15.22780990600586,-40.38348007202148,-27.57029342651367,0
420,826421374,-6.52604198455811,-2.01484894752502,8.26021671295166,-15.16187763214111,0.85003083944321,40.16777038574219,5.53444004058838,-4.87425899505615,7.68252944946289,-14.81445980072021,-47.71741485595703,-29.18807220458984,0
421,826454708,-7.37526559829712,-1.04757678508759,7.24782276153564,-39.95132064819336,1.03480362892151,31.57979011535645,5.62525987625122,-4.75024843215942,7.41675329208374,11.14167308807373,-55.14151382446289,-42.19193649291992,0
422,826488042,-6.6717381477356,-2.08907985687256,7.6782751083374,-43.05829238891602,-4.23698854446411,21.04319381713867,6.31211519241333,-4.41453313827515,7.26716136932373,-5.23132467269897,-43.96288299560547,-38.59882736206055,0
423,826521376,-7.95048141479492,-1.23124599456787,7.20056390762329,-27.4321346282959,-2.13554906845093,14.52118873596191,5.42311573028564,-4.41102027893066,7.67056035995483,-6.3833646774292,-47.67162322998047,-37.90657424926758,0
424,826554710,-7.05631065368652,-1.42785775661469,7.43628358840942,-48.68576812744141,-12.11825370788574,4.5305814743042,6.53246450424194,-4.71818923950195,6.96160745620728,-6.57109403610229,-39.95049667358398,-26.43049049377441,0
425,826588044,-6.64166641235352,-1.65978753566742,7.59170818328857,-37.35735321044922,3.56125736236572,-8.15063190460205,5.99561834335327,-4.97537994384766,6.53492450714111,-7.70802736282349,-36.97517013549805,-27.03274917602539,0
426,826621378,-6.96928977966309,-3.75920271873474,6.50789833068848,-72.23104095458984,-2.5319356918335,-5.24853706359863,6.93108320236206,-3.74982523918152,6.39654350280762,-23.14717483520508,-42.60478210449219,-30.29257965087891,0
427,826654712,-6.82553720474243,-3.74367594718933,7.62129783630371,-16.50820732116699,-8.58357238769531,2.09204936027527,6.20810699462891,-4.04280042648315,7.14294576644897,-7.59677314758301,-44.29401779174805,-31.86880302429199,0
428,826688046,-6.75827693939209,-1.84751963615417,7.23897314071655,-26.0211009979248,-15.27349853515625,-0.24236646294594,7.11658906936646,-4.32262802124023,6.73988103866577,12.11126708984375,-29.43637084960938,-28.81096458435059,0
429,826721380,-6.11098718643188,-3.60384321212769,8.01568222045898,-43.24947738647461,-14.40518379211426,-1.68102025985718,7.36352443695068,-3.48002934455872,6.2732949256897,14.89853477478027,-32.10724258422852,-33.96238708496094,0
430,826754714,-7.01735019683838,-3.57572650909424,7.15200042724609,-45.49211502075195,-7.75533056259155,0.32826855778694,7.65992069244385,-3.88044881820679,5.82862377166748,9.81315898895264,-27.57571601867676,-31.34720802307129,0
431,826788048,-7.43988132476807,-3.42082285881042,7.48322820663452,-19.34975624084473,-8.98520660400391,1.45237731933594,7.20685529708862,-3.65944695472717,6.40719223022461,8.12381267547607,-28.21733665466309,-26.95191955566406,0
432,826821382,-7.57208299636841,-2.9862048625946,7.79098701477051,-1.66174519062042,-9.02275848388672,6.13547515869141,7.42317533493042,-4.01327800750732,6.65274810791016,13.18738555908203,-11.64395046234131,-11.95268821716309,0
433,826854716,-6.70698976516724,-3.07166647911072,7.72476243972778,-5.59385108947754,-3.56969571113586,8.31475353240967,7.66503143310547,-3.80902361869812,6.01154232025146,9.97082710266113,-6.19102239608765,-4.59578275680542,0
434,826888050,-6.54458522796631,-3.33632397651672,7.07253217697144,-7.94180583953857,3.76583647727966,8.22244262695312,7.42102146148682,-3.48030138015747,5.72141408920288,0.20413964986801,-2.67228531837463,0.19727542996407,0
435,826921384,-6.67407178878784,-3.16727232933044,7.10231828689575,3.44559359550476,7.88194513320923,7.67292594909668,7.30082178115845,-3.40080118179321,5.64189386367798,-3.89263105392456,-5.99354648590088,2.94208216667175,0
436,826954718,-7.01396751403809,-2.42791676521301,7.49132108688354,5.14356088638306,10.61673450469971,6.35606956481934,7.29371690750122,-3.39221858978271,5.84021186828613,-5.25170850753784,-0.33298793435097,8.17928504943848,0
437,826988052,-7.17292928695679,-2.47978591918945,7.25943851470947,5.61048889160156,12.38141632080078,-0.12475018203259,7.70662975311279,-3.77995419502258,6.05655431747437,-13.4172830581665,6.62767457962036,12.79496479034424,0
438,827021386,-7.70668888092041,-2.42249894142151,7.61168718338013,0.96768200397491,11.78262901306152,-3.43807363510132,7.43115568161011,-4.09158897399902,6.373863697052,-19.19854736328125,9.55012130737305,16.85634231567383,0
439,827054720,-8.01976871490479,-2.55086135864258,7.78102111816406,11.12088298797607,12.72098541259766,-4.63478851318359,7.37810468673706,-4.36185264587402,6.71025323867798,-14.17285346984863,16.48244285583496,26.02535057067871,0
440,827088054,-7.98543930053711,-2.16445565223694,7.74088430404663,24.93614196777344,9.54667091369629,-8.62022018432617,7.54161882400513,-4.74730253219604,6.91420745849609,-11.34183025360107,29.27412223815918,38.05771255493164,0
441,827121388,-8.23316192626953,-2.76554894447327,8.27009773254395,26.96925926208496,9.06578540802002,-8.65636444091797,6.87714958190918,-4.7010817527771,7.0084753036499,-15.66525554656982,38.10128402709961,42.56689834594727,0
442,827154722,-8.36515712738037,-2.334885597229,7.99024248123169,42.85894393920898,13.20034122467041,-14.41279220581055,6.92177677154541,-4.7522177696228,6.74254274368286,-8.60766124725342,44.4876708984375,48.55989456176758,0
443,827188056,-8.05789852142334,-2.13422775268555,7.19734382629395,46.27500915527344,8.69212913513184,-22.95159149169922,7.32841300964355,-5.32131624221802,7.18612337112427,-2.45277142524719,63.28769302368164,64.2447509765625,0
444,827221390,-7.50216341018677,-2.79470181465149,7.78576278686523,34.89833068847656,6.37832832336426,-26.50454521179199,5.91285419464111,-5.81859350204468,6.96474266052246,-9.35080242156982,64.89037322998047,67.3449935913086,0
445,827254724,-7.43710231781006,-2.17159748077393,7.23274803161621,31.74829483032227,12.17089366912842,-39.18517303466797,5.99972629547119,-5.6056752204895,6.72519588470459,15.91618156433105,57.73703765869141,60.43906021118164,0
446,827288058,-6.43254375457764,-3.37137889862061,5.73370027542114,41.91445159912109,2.3002142906189,-55.15749740600586,6.28881740570068,-5.29590225219727,6.95422792434692,35.95608139038086,65.43788146972656,61.14682006835938,0
447,827321392,-6.24990653991699,-2.69111633300781,7.05892753601074,32.04640960693359,-3.86464238166809,-55.98557662963867,5.45249223709106,-4.57237577438354,7.16091728210449,27.32812118530273,65.60408020019531,48.55899810791016,0
448,827354726,-6.29636335372925,-1.95248770713806,6.92570495605469,1.55931651592255,-5.76797246932983,-70.95255279541016,4.88381338119507,-5.12162828445435,6.86697006225586,30.11974143981934,52.56840515136719,44.42380523681641,0
449,827388060,-5.52095603942871,-4.74686813354492,5.64920282363892,15.44474983215332,-10.30822372436523,-81.81829071044922,5.22290897369385,-5.75351810455322,7.29529333114624,34.99886322021484,57.07458877563477,57.09600830078125,0
450,827421394,-5.01958417892456,-3.20360708236694,6.06117534637451,-15.37337779998779,-22.75606727600098,-79.38496398925781,4.48381376266479,-4.7871036529541,7.34769487380981,32.55000686645508,55.22529220581055,56.64628601074219,0
451,827454728,-5.02704572677612,-4.19244432449341,5.89236068725586,-13.77274322509766,-22.2674388885498,-90.40433502197266,3.47791218757629,-5.34869527816772,7.14544486999512,71.85729217529297,51.39728164672852,45.60559844970703,0
452,827488062,-3.98873257637024,-4.94568157196045,5.46718645095825,-9.99039649963379,-27.71709251403809,-92.16323852539062,3.08470463752747,-5.05489158630371,7.5975079536438,68.68634033203125,41.71370697021484,52.09010696411133,0
453,827521396,-3.32406210899353,-4.77751970291138,6.70892381668091,-3.88801050186157,-24.99168395996094,-94.46725463867188,3.07446718215942,-3.52032446861267,7.57554531097412,80.64409637451172,37.45053482055664,51.57665252685547,0
454,827554730,-3.3751699924469,-5.1403751373291,6.34017419815063,-15.48667335510254,-22.55236625671387,-95.04338073730467,2.38115358352661,-3.87555742263794,7.87913417816162,69.97162628173828,34.92217636108398,46.77291488647461,0
455,827588064,-2.77752304077148,-5.67993879318237,6.45940113067627,10.53080177307129,-20.02975273132324,-95.61158752441406,2.28955340385437,-3.29555368423462,8.22123527526855,53.64553451538086,30.5936164855957,47.66075134277344,0
456,827621398,-2.27133560180664,-5.08502960205078,6.50588226318359,-17.62263488769531,-22.94535064697266,-92.2985610961914,1.87638258934021,-3.05273175239563,8.04985332489014,40.87099075317383,27.23596382141113,40.48167419433594,0
457,827654732,-2.33442354202271,-6.00349140167236,6.40232229232788,0.5441220998764,-17.25045394897461,-93.96332550048828,1.57872891426086,-3.79184818267822,8.72709465026855,51.07122802734375,19.44440460205078,37.18082046508789,0
458,827688066,-1.47604846954346,-5.61620283126831,6.43588924407959,-11.88435173034668,-17.5759220123291,-86.5721435546875,1.53267252445221,-2.78442621231079,8.44191551208496,48.13003158569336,14.0009241104126,37.92014312744141,0
459,827721400,-0.90718734264374,-7.21802997589111,7.27288150787354,-12.50254154205322,-9.64176177978516,-68.78479766845703,1.02922570705414,-1.68742084503174,7.89448881149292,34.34196472167969,8.37973880767822,23.17814636230469,0
460,827754734,-1.34010064601898,-5.58411550521851,6.79480504989624,-20.62236595153809,-2.63214659690857,-55.70648956298828,1.57030689716339,-1.85336077213287,8.315354347229,17.15069389343262,3.7899272441864,24.36475372314453,0
461,827788068,-1.13760626316071,-7.13339805603027,6.9447455406189,-25.59241676330566,-5.29202890396118,-47.36697006225586,1.62385261058807,-2.0349133014679,8.91483402252197,-0.44527247548103,3.22570133209229,28.82298278808594,0
462,827821402,-1.20807039737701,-6.42424154281616,7.23449611663818,2.16963577270508,0.40825739502907,-42.14667129516602,1.41087627410889,-2.30951547622681,8.9075231552124,-8.07438278198242,-0.20021945238113,23.71933937072754,0
463,827854736,-1.21002745628357,-5.84818601608276,7.01833486557007,-19.35164642333984,-2.33736348152161,-40.74538421630859,1.44610774517059,-2.85696887969971,9.34758853912354,-1.9398775100708,-1.66939270496368,22.09258079528809,0
464,827888070,-1.17015838623047,-7.32724380493164,7.2953782081604,-5.06514406204224,-3.68141269683838,-34.66657257080078,1.31611585617065,-2.12790417671204,9.16271018981934,2.79002809524536,-1.90061390399933,16.51331520080566,0
465,827921404,-0.9812895655632,-6.2107982635498,7.22032356262207,4.98225688934326,-0.71491187810898,-25.94761085510254,1.10914933681488,-2.17383646965027,8.87146663665771,-1.69565689563751,-2.74464654922485,11.78125667572021,0
466,827954738,-0.82843673229218,-6.78639841079712,6.8675389289856,-9.87525463104248,-3.44843864440918,-19.90032386779785,1.49497628211975,-2.36375141143799,9.18150234222412,-5.67969226837158,-2.96700191497803,8.17150688171387,0
467,827988072,-1.00993525981903,-7.26934814453125,7.25652599334717,-0.93892282247543,-3.89622473716736,-14.2929630279541,1.48651969432831,-2.51832723617554,9.11121463775635,-12.20069026947021,-3.78970098495483,6.25571441650391,0
468,828021406,-1.11144256591797,-6.3785457611084,6.78010511398315,11.21171855926514,-3.67626261711121,-13.93703937530518,1.24247241020203,-3.07995843887329,9.40723037719727,-5.71758890151978,-5.3084192276001,2.89473080635071,0
469,828054740,-0.65107530355453,-8.0615119934082,7.4823203086853,-19.13912010192871,-0.5249959230423,-3.44581365585327,1.2795182466507,-2.87198400497437,9.02639961242676,4.54919147491455,-6.84426736831665,0.71611255407333,0
470,828088074,-1.11558699607849,-6.87200307846069,7.64364910125732,0.56399834156036,-4.33578729629517,4.83085823059082,1.64739573001862,-2.17629981040955,9.69547367095947,-6.85804128646851,-5.12879133224487,-1.51590502262115,0
471,828121408,-1.08297312259674,-7.37308216094971,7.71300935745239,-2.6472487449646,-1.63378632068634,-1.43868792057037,1.57051920890808,-4.19085025787354,9.6867504119873,-12.01672554016113,0.61452674865723,2.46835875511169,0
472,828154742,-0.80356788635254,-7.11648321151733,7.36640787124634,3.03999090194702,0.64551693201065,-2.8771870136261,1.59019076824188,-2.9702775478363,9.58244800567627,6.74116706848145,2.59552311897278,5.50983572006226,0
473,828188076,-0.87044978141785,-6.91268634796143,7.37492752075195,-0.33096408843994,-1.55258738994598,-0.58785301446915,1.59226787090302,-2.9050452709198,9.39399909973145,-2.34625649452209,6.53530931472778,3.37612771987915,0
474,828221410,-0.76170748472214,-6.74014472961426,7.33239030838013,1.66504347324371,-1.50745809078217,3.15882134437561,1.30330741405487,-2.98718214035034,9.30922222137451,-1.85214900970459,8.2844820022583,0.25679960846901,0
475,828254744,-0.34778681397438,-6.84732389450073,7.34058713912964,-8.08741092681885,-2.06607913970947,20.79997825622559,1.32568943500519,-1.85528683662415,8.81328773498535,3.24786853790283,5.23358583450317,-8.79959297180176,0
476,828288078,-0.29914265871048,-7.53589582443237,7.95784759521484,4.8752760887146,3.04704737663269,38.33248901367188,1.69967567920685,-1.38140296936035,8.8181266784668,-12.6102409362793,5.50117874145508,-17.47097587585449,0
477,828321412,-0.32446184754372,-7.02138662338257,7.93942928314209,2.84983777999878,5.20606708526611,60.77418518066406,1.49209880828857,-2.06474924087524,9.12567329406738,-22.53736877441406,9.18495941162109,-24.73765754699707,0
478,828354746,-0.27030882239342,-7.40748119354248,7.68436241149902,15.86107921600342,6.45581483840942,77.62052154541016,1.43725895881653,-2.48662948608398,9.23032855987549,-18.4521541595459,7.47488641738892,-36.86848449707031,0
479,828388080,-0.05809238925576,-6.68939590454102,7.4373197555542,35.26583862304688,15.82421112060547,96.23053741455078,1.45802474021912,-2.21867561340332,8.63830280303955,-13.09429931640625,5.19065618515015,-47.30401611328125,0
480,828421414,-0.88844352960587,-6.56079292297363,6.89237642288208,19.67293930053711,19.30424690246582,112.39695739746094,1.49779272079468,-2.32067370414734,8.26657772064209,-24.96013641357422,-0.64716964960098,-51.22908020019531,0
481,828454748,-1.18157553672791,-6.6478099822998,6.93064498901367,33.10918045043945,20.93648910522461,120.88150787353516,1.91428768634796,-2.93764352798462,8.5452880859375,-40.70538711547852,1.87091135978699,-49.49579620361328,0
482,828488082,-1.94839227199554,-6.08241081237793,7.31575727462769,65.07147979736328,30.29474830627441,128.6935577392578,1.62794816493988,-3.05226063728333,8.40325355529785,-48.00825500488281,1.26547503471375,-50.18115234375,0
483,828521416,-2.28294968605042,-3.88180136680603,6.11004638671875,36.22719573974609,35.70506286621094,129.66131591796875,1.32349729537964,-4.4537148475647,8.11359596252441,-41.82511901855469,-0.3554835319519,-60.79084777832031,0
484,828554750,-3.43539047241211,-4.43211269378662,5.5269455909729,18.80698204040527,30.60737609863281,122.10016632080078,2.25760626792908,-4.24221038818359,7.84421062469482,-33.69909286499023,-15.33270740509033,-53.83200836181641,0
485,828588084,-3.13333749771118,-4.10670375823975,5.75898790359497,45.88346481323242,29.60180854797363,120.91933441162108,2.31545925140381,-3.40533328056335,7.66757488250732,-36.21676254272461,-26.81229782104492,-57.68670654296875,0
486,828621418,-5.18201208114624,-2.22210717201233,5.526198387146,27.54820251464844,37.05780792236328,112.837646484375,1.7128883600235,-4.85025691986084,7.45417261123657,-42.61611557006836,-28.5428581237793,-70.80111694335938,0
487,828654752,-5.51645183563232,-1.99280500411987,5.40112781524658,-19.08746337890625,18.22179222106934,103.50440979003906,2.55325508117676,-5.41516542434692,7.67018413543701,-26.80167579650879,-43.49392318725586,-53.94020080566406,0
488,828688086,-5.71928405761719,-2.52566123008728,5.69960498809814,-7.9289722442627,17.95839309692383,88.67439270019531,3.82039189338684,-4.31740236282349,7.39464235305786,-5.18649244308472,-51.03397750854492,-64.84662628173828,0
489,828721420,-6.59896850585938,-1.96348774433136,5.71438646316528,-7.3020339012146,19.52986717224121,78.34532928466797,3.6536238193512,-4.96178293228149,7.09019708633423,-38.22418975830078,-42.65893173217773,-54.11822128295898,0
490,828754754,-6.63487005233765,-1.9098242521286,6.11641120910645,-12.06244659423828,9.40167999267578,68.57406616210938,4.18364810943604,-4.66168451309204,7.68639326095581,-28.86384963989258,-61.62623596191406,-34.58141708374023,0
491,828788088,-7.08472061157227,-1.10335254669189,6.69833087921143,-8.347243309021,6.95158720016479,57.74554061889648,4.46829032897949,-5.12602376937866,7.89426803588867,-16.64429473876953,-55.71091842651367,-45.22898864746094,0
492,828821422,-7.39980602264404,-0.15988670289516,6.92931032180786,-33.02304077148438,3.7533004283905,36.92753219604492,5.37844324111938,-4.77822208404541,7.46019649505615,-8.73673629760742,-62.70912170410156,-45.90883255004883,0
493,828854756,-8.65943241119385,-1.2229597568512,7.40254688262939,-42.61918640136719,-9.1562557220459,30.44091796875,5.08703994750977,-4.94641780853271,8.62203216552734,-2.91023421287537,-66.10692596435547,-51.52590179443359,0
494,828888090,-7.88979005813599,-1.53989911079407,8.05267238616943,-25.77566909790039,-22.79667091369629,21.3693962097168,6.21280908584595,-4.71450090408325,8.59165668487549,-9.92191314697266,-34.61787033081055,-39.71018218994141,0
495,828921424,-6.65380668640137,-1.07654070854187,7.1167426109314,-38.87429809570312,-20.76579475402832,10.20171737670898,5.66160869598389,-5.11608123779297,7.58945465087891,-8.75102043151855,-36.37677383422852,-37.87196350097656,0
496,828954758,-7.33001232147217,-1.70546722412109,6.78031826019287,-76.17182159423828,-24.95990180969238,2.5868866443634,6.28573989868164,-4.32291221618652,6.95486402511597,13.42111682891846,-49.58587646484375,-43.4804801940918,0
497,828988092,-7.28046321868896,-3.07360458374023,6.90423583984375,-58.94435501098633,-28.78620910644531,-2.87708592414856,6.1208028793335,-4.64833402633667,7.05574560165405,5.56442975997925,-52.33473968505859,-31.42107582092285,0
498,829021426,-5.59622192382812,-2.9132034778595,8.41998958587646,-15.46490287780762,-10.64674091339111,-8.49303340911865,5.76159334182739,-3.72595262527466,6.13361692428589,23.1682243347168,-58.58490371704102,-28.32096672058105,0
499,829054760,-7.26533317565918,-1.39495193958282,6.94785356521606,-72.2675552368164,5.17282009124756,-6.34840536117554,6.56766271591187,-3.47486662864685,5.98507022857666,2.6270592212677,-54.96379852294922,-34.80952453613281,0
500,829088094,-7.12719917297363,-3.72657465934753,7.69254016876221,-71.60749053955078,2.2835841178894,-7.49186229705811,6.82096195220947,-4.09739351272583,6.67918062210083,-18.8481388092041,-61.04582214355469,-32.08820343017578,0
501,829121428,-7.69142055511475,-3.07004237174988,8.31418704986572,-20.88234901428223,11.06429958343506,-0.88506990671158,6.92762899398804,-3.97641825675964,7.0560941696167,-5.80392694473267,-43.40045928955078,-27.94079971313477,0
502,829154762,-7.98948383331299,-2.18587875366211,8.33346748352051,-27.85142135620117,13.09256649017334,0.84198385477066,7.4216103553772,-3.98199343681335,6.9870777130127,-6.89118099212646,-34.81079483032227,-22.49762344360352,0
503,829188096,-8.91896057128906,-2.70478129386902,8.71361637115479,-24.83782768249512,13.29783725738525,6.59823656082153,7.55615329742432,-4.44022798538208,7.12201833724976,-6.61783075332642,-18.94728469848633,-8.80205821990967,0
504,829221430,-9.26956748962402,-2.28775572776794,9.00843715667725,17.6632080078125,22.87638282775879,4.174241065979,8.09603595733643,-5.01861095428467,7.43010377883911,-15.39295196533203,-1.48678934574127,10.40526103973389,0
505,829254764,-9.15064334869385,-2.28570461273193,8.51581764221191,33.40940856933594,21.3990535736084,2.25756645202637,7.69292402267456,-4.96615219116211,7.48242950439453,-24.83495330810547,21.69618988037109,28.02629089355469,0
506,829288098,-9.16615200042725,-1.61221587657928,8.07340431213379,64.01477813720703,21.81828308105469,-2.14728617668152,7.20924758911133,-4.76210498809814,7.34987258911133,-26.01744270324707,36.62072372436523,39.57493591308594,0
507,829321432,-9.38443660736084,-0.38915154337883,7.95150995254517,46.98141098022461,15.77956581115723,-13.79709148406982,7.02544546127319,-4.9138708114624,7.28034734725952,-15.29898738861084,48.16400527954102,51.98273086547852,0
508,829354766,-8.46473503112793,-1.62330293655396,7.37012910842896,30.47638320922852,11.11929321289062,-24.35323715209961,6.91844177246094,-5.54590368270874,7.14688348770142,-13.72518825531006,63.25812530517578,68.40198516845703,0
509,829388100,-8.02846145629883,-2.5568585395813,6.69094228744507,35.09127426147461,7.86578607559204,-34.17018127441406,6.55839538574219,-5.43198442459106,6.89650058746338,-8.96159648895264,71.47369384765625,76.75594329833984,0
510,829421434,-7.63892364501953,-2.90945649147034,6.85551500320435,51.0388069152832,5.74954986572266,-47.42119216918945,6.05942726135254,-5.26680946350098,6.89448022842407,8.90563488006592,69.29322814941406,75.49189758300781,0
511,829454768,-6.88429117202759,-2.8175220489502,6.58993721008301,43.91019821166992,6.01239633560181,-58.36659622192383,6.27238035202026,-6.14823198318481,6.62963247299194,27.53966331481934,73.32716369628906,77.3481216430664,0
512,829488102,-6.24134206771851,-3.29529905319214,6.15605068206787,34.51846694946289,-2.57898139953613,-67.39143371582031,5.6784029006958,-5.2000617980957,7.09844255447388,8.63670444488525,59.47324371337891,70.78826141357422,0
513,829521436,-6.12258958816528,-2.99564099311829,5.97436857223511,35.43974304199219,-9.23995304107666,-77.71929168701172,5.54009962081909,-4.50637912750244,6.94119358062744,35.14979934692383,49.54162216186523,54.65514755249023,0
514,829554770,-5.13830995559692,-3.11261367797852,5.8814263343811,-33.48957443237305,-23.84162712097168,-76.03337097167969,5.14519500732422,-5.45255041122437,6.90792083740234,21.31300735473633,56.5467529296875,57.11062240600586,0
515,829588104,-4.57694053649902,-5.79199552536011,6.34553718566895,12.87453842163086,-19.57519912719727,-84.29884338378906,4.57272291183472,-4.80716896057129,6.80553293228149,44.25350570678711,59.71641159057617,55.60072708129883,0
516,829621438,-5.14965486526489,-3.1328022480011,5.7334942817688,11.90809059143066,-19.9698657989502,-86.60443878173828,3.43500137329102,-5.63814878463745,7.22656154632568,53.83805084228516,47.52785110473633,50.93294525146484,0
517,829654772,-3.56008887290955,-5.18628072738647,6.30677032470703,-11.34253025054932,-27.45813751220703,-88.34236907958984,3.60631275177002,-4.6089916229248,7.20453596115112,50.10247421264648,48.05919647216797,53.94966125488281,0
518,829688106,-3.88995099067688,-5.05371713638306,5.89151430130005,28.0948600769043,-20.99308776855469,-94.25411224365234,2.73546266555786,-4.12067604064941,7.67287635803223,75.0263671875,42.44093322753906,48.53301239013672,0
519,829721440,-3.76304769515991,-3.89485287666321,5.85871076583862,-22.85209655761719,-36.00518417358398,-92.5437469482422,2.8926694393158,-4.5153284072876,7.78727340698242,58.99217987060547,32.97453308105469,48.14962005615234,0
520,829754774,-2.72680234909058,-5.16102075576782,6.62229585647583,-6.38751029968262,-32.4620246887207,-99.633544921875,2.12998390197754,-4.28260040283203,8.19538307189941,57.52631378173828,38.21860885620117,45.08244705200195,0
521,829788108,-2.11768198013306,-6.1794867515564,6.3198766708374,-15.27655792236328,-29.59750747680664,-87.40164184570312,1.30893909931183,-3.6939525604248,8.11039257049561,63.30662155151367,33.29656600952148,42.45035171508789,0
522,829821442,-2.40323233604431,-5.96976232528687,7.087242603302,2.59478950500488,-22.74648857116699,-76.94757080078125,0.90528309345245,-2.73509621620178,7.8310022354126,69.36805725097656,10.56223201751709,31.37090873718262,0
523,829854776,-2.55172944068909,-5.1423487663269,7.06257724761963,0.03392704203725,-16.36966705322266,-77.8038558959961,1.39093410968781,-3.438316822052,8.40356922149658,60.83422088623047,10.43563079833984,32.72197723388672,0
524,829888110,-1.2886780500412,-5.90901613235474,7.39506673812866,-8.5888204574585,-6.47926664352417,-70.22370147705078,0.85674381256104,-2.60085153579712,8.3297758102417,35.48352432250977,6.77884483337402,35.59580993652344,0
525,829921444,-1.37763249874115,-6.11536836624146,6.83169078826904,-6.52603673934937,-2.14719367027283,-59.84053802490234,1.22458112239838,-1.46047627925873,8.32907962799072,5.48515892028809,6.63817834854126,26.07476615905762,0
526,829954778,-1.97555923461914,-5.95314598083496,6.96781015396118,-16.35018157958984,-2.94244050979614,-57.0259895324707,1.46779799461365,-3.0379786491394,8.96255493164062,-11.75228214263916,3.49664330482483,26.58807182312012,0
527,829988112,-1.3816796541214,-6.39817428588867,7.39727163314819,-10.97832202911377,-3.4235360622406,-52.54697418212891,0.94138997793198,-2.91113662719727,9.21718883514404,-3.45173954963684,-0.62452918291092,23.7479248046875,0
528,830021446,-1.61911392211914,-6.40942907333374,6.94722652435303,-13.82596015930176,-3.95193672180176,-48.77882766723633,0.95354759693146,-3.10397219657898,9.24802017211914,20.96776008605957,-2.48402547836304,21.74591636657715,0
529,830054780,-0.96800947189331,-6.68130159378052,7.09836578369141,-17.59399032592773,-4.58974075317383,-41.73496627807617,1.2914354801178,-2.44911050796509,8.92341613769531,19.07534408569336,-4.29531860351562,20.01657867431641,0
