PacketCounter,SampleTimeFine,Forearm_Acc_X,Forearm_Acc_Y,Forearm_Acc_Z,Forearm_Gyr_X,Forearm_Gyr_Y,Forearm_Gyr_Z,Upper_Arm_Acc_X,Upper_Arm_Acc_Y,Upper_Arm_Acc_Z,Upper_Arm_Gyr_X,Upper_Arm_Gyr_Y,Upper_Arm_Gyr_Z,Activity
1,820898193,9.66315078735352,-3.18150305747986,2.73217248916626,-12.04318523406982,-1.13430452346802,-39.25315093994141,0.0,0.0,0.0,0.0,0.0,0.0,0
2,820931527,9.45557498931885,-3.52898216247559,2.77172255516052,18.33963775634766,0.03800070285797,-40.5420036315918,9.50328826904297,1.50865864753723,1.61733818054199,30.43856430053711,-6.14915752410889,-0.93267673254013,0
3,820964861,9.4232702255249,-3.1568591594696,2.64686012268066,57.11830139160156,3.64215874671936,-38.42900848388672,9.35076713562012,1.84529602527618,1.47456610202789,26.38290786743164,-0.60215729475021,0.42042377591133,0
4,820998195,9.57480144500732,-2.22723793983459,2.3851432800293,71.48462677001953,6.50400543212891,-31.34082221984863,9.51169681549072,1.83560812473297,1.4594132900238,16.74365425109863,1.44064974784851,0.816177546978,0
5,821031529,9.73229789733887,-1.43892645835876,2.26421642303467,49.50034332275391,7.25091361999512,-20.20940399169922,9.75794124603271,1.65897715091705,1.5485827922821,8.14327716827393,1.19709360599518,-0.01482016034424,0
6,821064863,9.73437690734863,-1.17587161064148,2.27268218994141,6.76765012741089,6.17803192138672,-7.66984415054321,9.86426734924316,1.51649641990662,1.61511874198914,4.0759425163269,-0.17336922883987,-0.86432319879532,0
7,821098197,9.64371681213379,-1.58652281761169,2.352698802948,-29.66076278686523,4.61390829086304,2.99608087539673,9.85609531402588,1.45200800895691,1.60695219039917,1.42069804668427,0.73520618677139,-0.32135292887688,0
8,821131531,9.46910285949707,-2.14173722267151,2.4088454246521,-39.16091156005859,3.4518096446991,8.87369346618652,9.71630954742432,1.38829505443573,1.59673845767975,-2.90436840057373,1.19533836841583,1.15255880355835,0
9,821164865,9.41758632659912,-2.49322175979614,2.4229679107666,-25.38397789001465,2.93554449081421,10.43844795227051,9.64932441711426,1.18918097019196,1.67669117450714,-5.76016807556152,0.86941713094711,2.20703458786011,0
10,821198199,9.39092636108398,-2.43452954292297,2.39167451858521,-4.34117984771729,2.28575420379639,9.30174255371094,9.72493457794189,0.97833406925201,1.76672768592834,-3.32122802734375,0.85522103309631,2.17839217185974,0
11,821231533,9.32793140411377,-2.15725612640381,2.39722537994385,8.34952545166016,0.89337915182114,8.50137805938721,9.69244956970215,0.90521949529648,1.79410815238953,4.27468395233154,1.47181499004364,1.66658699512482,0
12,821264867,9.29129123687744,-1.98926496505737,2.40705394744873,12.57550525665283,-0.52264481782913,8.24880123138428,9.62646293640137,1.01136326789856,1.72149264812469,11.4334602355957,2.21821761131287,1.92576503753662,0
13,821298201,9.30359363555908,-1.91053473949432,2.39934897422791,13.1943531036377,-1.30959451198578,7.85644912719727,9.59189987182617,1.16934788227081,1.5713198184967,13.29830455780029,2.72352719306946,2.54459047317505,0
14,821331535,9.51945304870605,-1.89091122150421,2.40593695640564,13.43599891662598,-1.22081387042999,6.33435726165771,9.84967517852783,1.24617218971252,1.46420073509216,10.5618896484375,3.78343820571899,3.36794829368591,0
15,821364869,9.54728603363037,-1.89804720878601,2.52751779556274,14.27754974365234,0.70712733268738,5.00306367874146,9.69940567016602,1.37185895442963,1.49304258823395,7.43725824356079,4.11377620697021,3.68223357200623,0
16,821398203,9.44028091430664,-1.73700273036957,2.47704124450684,13.00563716888428,3.18361973762512,5.20324468612671,9.54904174804688,1.58489108085632,1.45181310176849,3.49050688743591,2.35767579078674,4.58750534057617,0
17,821431537,9.45373058319092,-1.50026106834412,2.39902472496033,5.93218278884888,4.38258600234985,6.85622549057007,9.55798053741455,1.54135322570801,1.48107397556305,-3.81773209571838,2.43164539337158,4.36425256729126,0
18,821464871,9.48732471466064,-1.42878675460815,2.38230037689209,-3.30286407470703,3.8289213180542,8.05730152130127,9.63170528411865,1.39407062530518,1.63729107379913,-10.18951320648193,1.42242908477783,2.24733877182007,0
19,821498205,9.41145610809326,-1.42468523979187,2.41386985778809,-10.90592861175537,3.35334205627441,7.66003942489624,9.701904296875,1.2668708562851,1.75296247005463,-13.14221096038818,-0.39522090554237,-0.41566628217697,0
20,821531539,9.2928352355957,-1.51669466495514,2.65025520324707,-15.41979789733887,3.7606954574585,4.86345434188843,9.56690979003906,1.12028431892395,1.8169196844101,-12.32133388519287,-1.76339054107666,-1.65639936923981,0
21,821564873,9.1857328414917,-1.62919652462006,2.52881455421448,-16.95274925231934,1.92752039432526,1.13388204574585,9.62736892700195,1.04291045665741,1.81670594215393,-10.52724266052246,-1.93854820728302,-1.60072267055511,0
22,821598207,9.21503925323486,-2.06104445457458,2.41643571853638,-14.04795455932617,-1.05301797389984,-4.3930835723877,9.6561336517334,1.02913784980774,1.82233071327209,-9.22093772888184,-1.46975755691528,-1.92589461803436,0
23,821631541,9.23847770690918,-2.05252265930176,2.51237750053406,-4.88605117797852,-1.88718450069427,-7.77801609039307,9.62454891204834,1.0248851776123,1.77529096603394,-7.92451524734497,-1.36701822280884,-1.97832357883453,0
24,821664875,9.29500675201416,-1.97335815429688,2.57921981811523,-3.07310366630554,-1.37250530719757,-13.8331127166748,9.63922691345215,0.97967076301575,1.68326532840729,-6.11620473861694,-2.54155302047729,-1.65512251853943,0
25,821698209,9.38104438781738,-1.89121127128601,2.55968642234802,-0.76949149370193,-0.87684744596481,-15.96716022491455,9.67830181121826,1.03751194477081,1.62279546260834,-7.13667345046997,-3.38877725601196,-0.73933351039886,0
26,821731543,9.40696048736572,-1.87908101081848,2.52120471000671,-4.59661436080933,-0.52989691495895,-16.61003875732422,9.70114707946777,1.17639577388763,1.59951841831207,-9.49258232116699,-3.52952790260315,-0.32535538077354,0
27,821764877,9.4684591293335,-1.86388862133026,2.38625049591064,-9.26811218261719,-0.5347318649292,-16.68504333496094,9.74126243591309,1.23306930065155,1.59686851501465,-12.05474853515625,-3.15306758880615,-1.17644822597504,0
28,821798211,9.59652805328369,-2.06758165359497,2.37984895706177,-11.48139381408691,0.74084758758545,-14.35933399200439,9.73043060302734,1.22767281532288,1.59425795078278,-14.72103500366211,-2.99198627471924,-2.28910732269287,0
29,821831545,9.70912551879883,-1.93299520015717,2.69899082183838,-14.15434741973877,2.50140833854675,-10.53382110595703,9.71273422241211,1.19867837429047,1.56139397621155,-17.23905181884766,-4.03477668762207,-2.88914155960083,0
30,821864879,9.52907085418701,-1.94089591503143,2.68693208694458,-3.40595674514771,4.90336656570435,-14.44322204589844,9.72457695007324,1.14021813869476,1.58206641674042,-20.34504890441895,-4.53581047058105,-2.69263219833374,0
31,821898213,9.50144195556641,-2.36960029602051,2.82530927658081,0.79759746789932,8.82153224945068,-10.24940204620361,9.75940895080566,0.95993220806122,1.65083479881287,-21.93635368347168,-4.78754997253418,-0.96050536632538,0
32,821931547,9.43936443328857,-1.71557235717773,2.61109471321106,7.09839010238647,11.20856380462646,-19.98334503173828,9.83895301818848,0.92230087518692,1.6846512556076,-19.30182647705078,-4.44168567657471,-0.99180924892426,0
33,821964881,9.20466709136963,-0.9527400135994,2.99659538269043,13.38685321807861,18.37087821960449,-13.20778942108154,9.75446605682373,0.82187348604202,1.64521563053131,-11.72222709655762,-5.10770606994629,-2.69554114341736,0
34,821998215,9.157790184021,-0.35085782408714,2.84857201576233,-22.17325210571289,13.00052261352539,-4.24674510955811,9.69008731842041,1.0478458404541,1.61560094356537,-8.82518005371094,-6.05217170715332,-1.64045429229736,0
35,822031549,9.91455936431885,-1.86305773258209,3.0868227481842,-81.28008270263672,3.69660472869873,19.97418975830078,9.94343090057373,1.60389792919159,1.60090303421021,-12.26607608795166,-1.93891489505768,-4.08313179016113,0
36,822064883,9.83300971984863,-2.64146065711975,2.63526701927185,-116.33927917480467,1.17276644706726,41.45859146118164,9.89041805267334,1.88422465324402,1.39224517345428,-20.50995826721191,1.10698282718658,-10.75545883178711,0
37,822098217,9.74771404266357,-3.62373685836792,4.17511558532715,-87.25544738769531,15.98703479766846,42.96010971069336,9.60308933258057,1.36118483543396,1.28481709957123,-28.34713745117188,-1.5447005033493,-13.04452514648438,0
38,822131551,8.50768661499023,-3.04319500923157,2.19771552085876,-15.84490394592285,17.1695556640625,27.66886329650879,9.68105030059814,0.58107596635818,1.44345247745514,-32.91448211669922,-3.09988832473755,-7.53083610534668,0
39,822164885,8.84772872924805,-3.1957266330719,2.41254854202271,35.88852691650391,18.35804748535156,15.38516139984131,9.70961475372314,0.2242940813303,1.78603518009186,-31.40465354919434,-0.86567330360413,-0.09910011291504,0
40,822198219,8.41930198669434,-2.26685118675232,2.24766111373901,30.9683952331543,8.89660549163818,5.01738166809082,9.80094814300537,0.40009814500809,1.88096916675568,-17.57976531982422,2.19137454032898,1.48591434955597,0
41,822231553,9.12195205688477,-2.87903904914856,2.27293395996094,23.19941902160645,5.21731328964233,-5.2354564666748,9.71224117279053,0.51823544502258,1.80235767364502,2.0002110004425,-0.06247257441282,-0.44739300012589,0
42,822264887,9.62615966796875,-2.98661947250366,4.16435766220093,39.50392532348633,13.01599597930908,-22.67837524414062,9.76624870300293,0.85657125711441,1.68186259269714,9.2023458480835,-1.33061647415161,-1.65053224563599,0
43,822298221,8.97121429443359,-1.99095666408539,2.73617196083069,32.59262466430664,5.13077878952026,-30.34056091308594,9.93768215179443,1.37631022930145,1.50193166732788,3.76351356506348,-5.75680112838745,-2.29344916343689,0
44,822331555,9.29934406280518,-1.70816504955292,3.83692669868469,45.52731704711914,2.67561745643616,-21.64190864562988,9.7727222442627,1.25883734226227,1.68060874938965,-7.4630823135376,-2.11164379119873,-0.73861640691757,0
45,822364889,7.77517938613892,-0.0269442088902,2.16632580757141,-16.30438232421875,-22.59241485595703,-26.99789810180664,9.20051097869873,0.6492805480957,1.8809380531311,-7.30102586746216,-3.9498565196991,1.72599029541016,0
46,822398223,9.12001037597656,-1.03936517238617,1.50389742851257,31.46951675415039,-27.88022613525391,-39.54641723632812,10.45874118804932,0.2420402020216,1.80351293087006,4.61723041534424,4.45685005187988,3.75180244445801,0
47,822431557,9.49608993530273,-0.52265900373459,2.72126460075378,11.66681861877441,-21.88560104370117,-32.21496200561523,9.3877477645874,1.14535439014435,1.71931946277618,22.81476974487305,-1.86688876152039,-4.57079744338989,0
48,822464891,8.60390853881836,-0.14130882918835,2.31097531318665,-15.15539741516113,-14.74559783935547,-33.04263687133789,9.62532711029053,1.87950325012207,0.93156689405441,26.39148330688477,-13.23757648468018,-9.81589031219482,0
49,822498225,9.91460132598877,0.04196736589074,3.59865188598633,-54.50554656982422,-8.26016235351562,-29.43910217285156,9.59920215606689,2.15606427192688,1.25195896625519,1.69473361968994,-10.76426124572754,-10.87462711334229,0
50,822531559,12.54555320739746,-3.4659481048584,5.84829473495483,-122.56844329833984,7.19124746322632,16.86949729919434,10.00803279876709,1.82054233551025,1.19236576557159,-26.92183685302734,-2.45804762840271,-1.18708086013794,0
51,822564893,9.9304370880127,-4.47229862213135,6.43562412261963,-57.08724212646484,32.76775741577148,9.8078556060791,10.21488857269287,2.89606952667236,1.10806238651276,-36.95005416870117,3.54866123199463,-9.00042724609375,0
52,822598227,8.0027904510498,-1.85119223594666,2.54384469985962,-3.78603196144104,23.28532218933105,-1.33080458641052,9.93598461151123,1.28472363948822,1.63438379764557,-46.26161956787109,1.60312461853027,-11.42426681518555,0
53,822631561,8.79209899902344,-2.28269386291504,2.74705529212952,34.40925598144531,20.17603492736816,-7.88614416122437,9.62248992919922,-0.84075421094894,2.44295024871826,-29.3403377532959,15.77365779876709,3.57455229759216,0
54,822664895,8.72325325012207,-1.55052888393402,2.57444787025452,48.75109481811523,12.85451126098633,-14.38173007965088,9.49835777282715,-0.79341340065002,2.50064206123352,10.98843193054199,21.99713897705078,8.18341255187988,0
55,822698229,8.71761226654053,-1.09929883480072,2.32171583175659,15.84752655029297,4.4395112991333,-10.20290660858154,9.34513187408447,0.69397521018982,1.94647872447968,53.2901725769043,13.01300716400146,0.23948249220848,0
56,822731563,9.06613063812256,-1.891477227211,2.29517149925232,-4.44333457946777,2.2495641708374,-2.40516495704651,9.44783496856689,1.75359892845154,1.63825738430023,58.76348495483398,5.82868099212646,-3.99145197868347,0
57,822764897,9.16475868225098,-2.37484264373779,2.9189338684082,-9.76629066467285,2.34535884857178,5.59303569793701,9.20926666259766,2.22611737251282,1.44108998775482,40.56943511962891,7.31932544708252,-2.55429768562317,0
58,822798231,8.79832935333252,-2.56659245491028,2.85499453544617,-5.80773496627808,-2.91627550125122,7.5313286781311,8.80258655548096,2.38719534873962,1.10959112644196,20.58288764953613,3.70536708831787,-1.27665030956268,0
59,822831565,8.55405426025391,-2.16443562507629,3.42952799797058,28.74941444396973,1.54690194129944,8.98593044281006,8.42533397674561,1.74515533447266,1.27628600597382,6.14339542388916,-0.84901982545853,1.37722134590149,0
60,822864899,8.94573593139648,-2.37768888473511,3.89278507232666,78.52616882324219,12.00754737854004,20.84783363342285,8.5460958480835,1.15228927135468,1.61685013771057,10.62800979614258,-0.26545369625092,4.60620260238647,0
61,822898233,7.45062398910522,-0.23790070414543,1.0959300994873,56.26584243774414,-14.82522296905518,18.37840461730957,8.91396331787109,1.03162515163422,1.98901307582855,20.85535430908203,3.0883629322052,7.90026140213013,0
62,822931567,9.92483711242676,-0.58812123537064,2.332035779953,96.61089324951172,-17.36893081665039,2.13151931762695,11.41579723358154,0.76080411672592,1.80679643154144,23.03951454162598,14.84410667419434,14.40672492980957,0
63,822964901,11.14853858947754,-0.5518633723259,2.62425231933594,68.62447357177734,-21.11312866210938,3.83909225463867,11.09404754638672,1.5131459236145,2.11388731002808,36.42750549316406,0.83946681022644,10.56837272644043,0
64,822998235,10.03930473327637,0.73152911663055,2.14308428764343,28.39034843444824,-24.94568824768066,5.48546648025513,10.98536777496338,2.64898538589478,1.46762037277222,40.64897155761719,-13.47552299499512,4.04948663711548,0
65,823031569,10.16793251037598,0.26338195800781,3.34122824668884,5.33444356918335,-11.87509918212891,16.39404678344727,9.97924709320068,3.20780682563782,1.38234066963196,20.49336624145508,-15.54197311401367,0.15294125676155,0
66,823064903,10.20790672302246,0.25724628567696,4.42914581298828,-54.75504684448242,-22.81391716003418,38.82949447631836,9.12537288665771,3.17876362800598,1.04842722415924,-19.22374534606934,-5.44947385787964,-0.41328555345535,0
67,823098237,10.49953269958496,-3.19639420509338,4.37714767456055,-57.82083892822266,-12.72838592529297,53.82865905761719,9.44605731964111,3.1130154132843,0.95983862876892,-56.72152709960938,6.11810779571533,-5.88946199417114,0
68,823131571,8.45589160919189,-1.51524782180786,6.94006156921387,38.66912841796875,13.22437858581543,38.37694931030273,8.79131603240967,2.26571488380432,1.4353119134903,-80.12854766845703,3.89744520187378,-17.57291793823242,0
69,823164905,8.15140438079834,-0.18349778652191,2.69412779808044,26.72511863708496,9.05344390869141,18.4990119934082,9.65287208557129,0.1336163431406,2.08242893218994,-78.57705688476562,9.943284034729,-10.36907863616943,0
70,823198239,8.62943172454834,-0.62992870807648,3.18068695068359,25.47332382202148,6.9370698928833,2.00357294082642,9.69822216033936,-1.20704245567322,3.21315121650696,-52.57346343994141,17.98787498474121,2.64744424819946,0
71,823231573,8.79360198974609,0.27238810062408,3.24232125282288,-15.25115394592285,1.44558787345886,-16.55470848083496,9.68248462677002,-0.66814196109772,3.09649014472961,0.30310800671577,14.09025001525879,4.41224908828735,0
72,823264907,9.50063896179199,-1.39579880237579,3.14369416236877,-33.53040313720703,-3.65853142738342,-28.30716514587402,10.08050346374512,0.76432073116302,2.67188358306885,47.60644149780273,4.0964093208313,-1.28398358821869,0
73,823298241,10.21344375610352,-2.35437774658203,3.47283554077148,-12.46331977844238,-5.59140491485596,-35.03765106201172,10.27816200256348,1.95421350002289,2.26248121261597,43.1406364440918,8.23261833190918,0.13308078050613,0
74,823331575,10.13681125640869,-2.29314088821411,3.76308536529541,1.3817492723465,-4.2435474395752,-32.48272323608398,9.82686424255371,2.92676281929016,1.7454000711441,18.67604827880859,12.33059692382812,-2.27887082099915,0
75,823364909,9.56047439575195,-1.66183352470398,3.42371988296509,7.88957452774048,0.11164375394583,-26.72386169433594,9.33935642242432,2.80488848686218,1.67779469490051,-7.33477735519409,11.23238372802734,-4.42789363861084,0
76,823398243,9.29716873168945,-0.79326826334,2.91985583305359,11.67529964447021,4.24843692779541,-19.86031341552734,9.02933025360107,1.91057312488556,2.04424238204956,-26.16743087768555,11.44759654998779,-4.6513819694519,0
77,823431577,8.92159175872803,-0.25527322292328,2.76012015342712,-7.93907403945923,6.36047220230103,-11.20166110992432,8.79168224334717,1.39915704727173,2.20515942573547,-28.47323989868164,8.63065528869629,-5.53974866867065,0
78,823464911,8.80001449584961,-0.46594089269638,2.68543410301208,-38.97545623779297,4.74399423599243,-6.97239685058594,9.08425903320312,1.2872668504715,2.29914593696594,-25.30963325500488,4.34136867523193,-4.95822715759277,0
79,823498245,9.30516052246094,-1.22718977928162,2.88803315162659,-51.93906021118164,3.67314052581787,-5.53169870376587,9.65945053100586,1.29524946212769,2.54425430297852,-20.52190589904785,1.28747534751892,-5.51180124282837,0
80,823531579,9.41532802581787,-1.63869321346283,2.79654431343079,-47.80955505371094,2.80233287811279,-6.44469738006592,9.72363758087158,1.23162162303925,2.61788487434387,-14.43567371368408,-4.10487604141235,-4.96631669998169,0
81,823564913,9.30226707458496,-1.77923023700714,2.95712327957153,-31.96299743652344,1.06170392036438,-5.55045747756958,9.56523895263672,1.3579363822937,2.54913735389709,-7.82563972473145,-4.73500299453735,-3.51226401329041,0
82,823598247,9.08459281921387,-1.73351013660431,3.2927577495575,-22.50738143920898,-1.84989082813263,-2.59588503837585,9.1959867477417,1.51690578460693,2.37965893745422,-4.04242515563965,-4.00990390777588,-1.14698529243469,0
83,823631581,9.24697113037109,-1.36361145973206,3.35443234443665,-21.44096374511719,-3.46393227577209,-0.99191915988922,9.36292839050293,1.53957223892212,2.18877625465393,-7.55081844329834,-1.37536787986755,2.04091763496399,0
84,823664915,9.3505687713623,-1.15879237651825,3.27139353752136,-28.76772880554199,-3.18783640861511,-2.92434883117676,9.60708045959473,1.47072863578796,2.166579246521,-16.30032920837402,-1.16289472579956,3.61265349388123,0
85,823698249,9.49363803863525,-0.96199822425842,3.2612247467041,-39.70947647094727,-1.18140316009521,-6.96736097335815,9.82518482208252,1.29822719097137,2.29429483413696,-22.87949562072754,-2.11292719841003,6.60567760467529,0
86,823731583,9.89699363708496,-1.44082260131836,3.50753927230835,-58.97216796875,-0.25172141194344,-8.87422752380371,9.78636074066162,1.09892547130585,2.47828125953674,-19.51829147338867,-2.89683127403259,8.90297508239746,0
87,823764917,9.7376823425293,-1.6603924036026,3.96242928504944,-30.84251594543457,7.87174797058105,-12.3937406539917,9.64923858642578,1.09349119663239,2.41699743270874,-10.00896167755127,-1.05861103534698,9.63973808288574,0
88,823798251,9.13779830932617,-1.02927529811859,3.35048317909241,-8.04472541809082,10.64893054962158,-11.12822532653809,9.46623229980469,1.2978732585907,2.35106873512268,-4.42252254486084,3.14189505577087,8.30859184265137,0
89,823831585,8.93534564971924,-0.78472238779068,3.05326390266418,-7.19951963424683,11.52995681762695,-5.23259973526001,9.23281478881836,1.40547096729279,2.31902933120728,-3.78733444213867,9.95215320587158,5.05378580093384,0
90,823864919,8.95440673828125,-0.75653970241547,3.06632590293884,-18.48255348205566,14.2515115737915,1.00687825679779,9.05801486968994,1.21570432186127,2.13490056991577,-4.58299446105957,10.19935989379883,1.8723429441452,0
91,823898253,8.81721210479736,-0.32313933968544,2.79573750495911,-41.62151718139648,16.04700088500977,3.12181496620178,9.33579635620117,0.97231882810593,2.09774684906006,-9.21846008300781,7.22259044647217,1.94318795204163,0
92,823931587,8.71758079528809,-0.3052054643631,2.41881155967712,-73.85195922851562,16.95285034179688,4.54948329925537,9.50286865234375,0.8812073469162,2.24074220657349,-10.34528541564941,2.89915800094604,3.91866707801819,0
93,823964921,8.44845676422119,-0.70756012201309,2.03403902053833,-91.5095443725586,20.44995307922363,5.90816640853882,9.45087909698486,0.77905005216599,2.31768655776978,-5.39370965957642,-2.79395413398743,4.76041889190674,0
94,823998255,9.04324340820312,-1.30382263660431,2.38187432289124,-98.29191589355467,25.8724365234375,9.61558437347412,9.23815631866455,0.85238373279572,2.23962378501892,1.43826961517334,-6.71114444732666,4.03073787689209,0
95,824031589,9.6657247543335,-2.84354639053345,2.83964467048645,-117.3997802734375,25.92065238952637,18.17305755615234,9.16952228546143,1.14011323451996,2.01334881782532,3.19275569915771,-9.0418758392334,3.31433320045471,0
96,824064923,9.73705387115479,-4.30204820632935,3.30576086044312,-117.4340362548828,26.75022506713867,16.81759643554688,9.44662094116211,1.514044880867,1.92583644390106,-3.95861625671387,-7.46547889709473,2.10995054244995,0
97,824098257,8.95094871520996,-3.82848119735718,3.40062141418457,-74.51653289794922,25.60536766052246,9.40852546691895,9.62585163116455,1.45308649539948,2.14041924476624,-14.81025409698486,-2.57821750640869,1.57003772258759,0
98,824131591,8.58118057250977,-3.07364201545715,3.03139519691467,-43.5909423828125,18.14308929443359,4.98028135299683,9.64257717132568,0.95052540302277,2.42334175109863,-23.4966869354248,2.04598450660706,3.16867470741272,0
99,824164925,8.57911491394043,-3.27481055259705,2.77776122093201,-19.4019775390625,8.77825164794922,-0.7687668800354,9.57717895507812,0.42059895396233,2.63194227218628,-21.91766929626465,5.08025312423706,5.25721311569214,0
100,824198259,8.83610916137695,-3.98518252372742,2.32928061485291,29.93182182312012,-2.80392909049988,-9.65826034545898,9.94688606262207,0.23034793138504,2.78074669837952,-10.0429630279541,6.18794631958008,4.37622833251953,0
101,824231593,9.14230918884277,-4.81597185134888,1.6821403503418,109.8535385131836,-19.45192527770996,-17.79179000854492,10.38645935058594,0.51350218057632,2.85939621925354,7.55607604980469,5.94562387466431,-0.87401843070984,0
102,824264927,9.29594612121582,-6.24740219116211,0.76016736030579,228.21841430664065,-50.39181518554688,-11.43328666687012,10.40954780578613,1.06162631511688,2.99508047103882,17.55138969421387,7.11226940155029,-10.2083044052124,0
103,824298261,10.89403533935547,-4.77111053466797,1.41392600536346,324.0487060546875,-67.8415756225586,27.62198829650879,10.20803356170654,1.48280143737793,3.17715716362,24.48862838745117,19.68607711791992,-30.92185211181641,0
104,824331595,10.75887966156006,-1.60095608234406,2.29603147506714,320.10549926757807,-53.12404632568359,79.44041442871094,9.28900814056396,1.77144992351532,2.62657856941223,45.47858428955078,19.60305595397949,-55.24519348144531,0
105,824364929,9.72177886962891,0.34703749418259,3.15813493728638,210.9175720214844,-27.16864967346191,115.85924530029295,8.31747722625732,1.69992518424988,2.02753448486328,50.26080703735352,10.31322002410889,-54.74542617797852,0
106,824398263,8.6396598815918,0.98380762338638,3.19785165786743,29.85757446289062,-15.61547088623047,118.7606964111328,8.46452045440674,1.15373563766479,1.40123426914215,32.78387832641602,-3.82330846786499,-31.04713439941406,0
107,824431597,8.51259803771973,-0.45231568813324,4.08784246444702,-104.79087066650392,2.41834044456482,92.79251098632812,8.79401111602783,1.5272136926651,0.88578885793686,-5.32126903533936,-22.10932159423828,-6.37660360336304,0
108,824464931,7.63775062561035,-1.70564186573029,4.57712936401367,-114.64427947998048,27.69709587097168,44.41808319091797,9.00740718841553,1.84555745124817,1.33836674690247,-50.90083694458008,-36.66371154785156,10.0283899307251,0
109,824498265,7.3302755355835,-0.79305601119995,4.44895315170288,-135.5849151611328,39.80812835693359,14.98771095275879,9.29494380950928,1.29041528701782,2.01246953010559,-69.91570281982422,-44.4129753112793,32.13207626342773,0
110,824531599,8.19625377655029,-1.63207507133484,4.16682577133179,-151.4522705078125,39.31767272949219,-3.46486353874207,9.66486358642578,0.08891129493713,2.88090085983276,-53.82552337646484,-41.53468322753906,43.94476318359375,0
111,824564933,8.60574913024902,-2.13596224784851,4.13659143447876,-129.5810089111328,29.73692321777344,-26.92681884765625,10.27787303924561,-0.14746189117432,3.80978560447693,-3.91255044937134,-27.29649543762207,42.88037872314453,0
112,824598267,9.25870418548584,-3.2851836681366,4.77386379241943,-73.32621765136719,24.60653686523438,-49.49178695678711,10.43298435211182,0.71547424793243,3.48336434364319,45.46735382080078,2.70149683952332,26.86054992675781,0
113,824631601,9.58516407012939,-3.05709552764893,4.96415662765503,-0.78895980119705,29.45390319824219,-69.34329986572266,9.95719432830811,1.16525506973267,2.34688282012939,73.68067169189453,20.82427787780762,9.98612976074219,0
114,824664935,9.80007076263428,-1.88072896003723,4.62030124664307,18.9081916809082,40.26887512207031,-82.56287384033203,9.66756534576416,1.31728911399841,1.66150760650635,65.64160919189453,20.01847076416016,8.14851760864258,0
115,824698269,9.84565258026123,-0.96599078178406,3.67174673080444,-25.81580352783203,48.27503967285156,-89.04732513427734,9.5962028503418,1.67561161518097,1.39766454696655,32.58854675292969,15.42461681365967,18.20297622680664,0
116,824731603,9.76578426361084,-0.59893000125885,2.69989967346191,-91.23062133789062,51.98401260375977,-87.48340606689453,9.3755464553833,1.92186045646667,1.35765993595123,-3.22254657745361,9.933518409729,26.52539443969727,0
117,824764937,9.6032657623291,-1.08230471611023,2.18255996704102,-148.42628479003906,49.9361686706543,-72.01668548583984,9.46599388122559,1.98935317993164,1.6727614402771,-29.3848705291748,9.47665596008301,25.50278282165527,0
118,824798271,9.52162456512451,-2.17838525772095,1.81961798667908,-189.00300598144528,43.53940200805664,-49.17048645019531,9.77746868133545,1.61746227741241,2.10498714447021,-38.41086578369141,13.49941349029541,15.35969352722168,0
119,824831605,9.70997714996338,-3.32534670829773,1.57616651058197,-192.43347167968753,29.36722946166992,-24.24644088745117,10.40115070343018,0.81001442670822,2.17973232269287,-39.48758316040039,12.37073421478271,2.24852299690247,0
120,824864939,9.96131229400635,-4.24326467514038,1.84306406974792,-144.3872833251953,15.6898889541626,-10.33638858795166,10.42404365539551,0.35259684920311,2.40123963356018,-30.1787223815918,4.28798151016235,-11.1875524520874,0
121,824898273,9.20168495178223,-4.61074066162109,1.81777703762054,-61.74881744384766,7.00809240341187,-9.71842193603516,9.8292293548584,0.57520830631256,2.41981315612793,-12.07479572296143,-6.53009271621704,-20.43422317504883,0
122,824931607,8.23719310760498,-4.13014364242554,1.51151430606842,17.58488273620605,-2.21420931816101,-15.00669765472412,9.29705047607422,0.73412996530533,2.27397394180298,-0.1443000882864,-11.09453582763672,-23.24604034423828,0
123,824964941,7.99943923950195,-3.37067532539368,1.69343233108521,62.06673431396484,-11.9559154510498,-20.83953666687012,9.06012153625488,0.6711231470108,1.90938901901245,-2.22397589683533,-8.0484094619751,-20.70503425598145,0
124,824998275,8.41047668457031,-3.02919507026672,2.27235198020935,75.56172943115234,-16.51698684692383,-25.89528656005859,9.1088342666626,0.40495043992996,1.62118756771088,-13.34329509735107,-7.00245189666748,-12.97953605651855,0
125,825031609,8.74750804901123,-2.57658433914185,2.59376907348633,62.98197555541992,-15.74459743499756,-29.66434478759766,9.31868743896484,0.17235238850117,1.74488425254822,-17.63642311096191,-12.08168315887451,-2.52287721633911,0
126,825064943,8.97305107116699,-2.34579205513,2.49376320838928,25.66670417785645,-18.81847763061523,-29.49190330505371,9.69065952301025,0.14395876228809,1.93947613239288,-12.62400531768799,-16.29044342041016,7.40557813644409,0
127,825098277,9.15989780426025,-2.62078833580017,2.87838435173035,-7.59195756912231,-22.34667778015137,-24.33126640319824,9.88538360595703,0.39600446820259,2.07289528846741,-3.59223389625549,-16.36574935913086,13.72018814086914,0
128,825131611,9.36971378326416,-3.21632075309753,3.56913304328918,-7.03583478927612,-23.008544921875,-14.01704883575439,9.85370063781738,0.80253833532333,1.96435034275055,6.45002174377441,-13.45168972015381,14.73612689971924,0
129,825164945,9.35262489318848,-3.57965207099915,3.85955309867859,22.35673713684082,-22.17339706420898,1.52632999420166,9.69254112243652,1.20859241485596,1.83244001865387,7.90029621124268,-9.31490039825439,12.43679141998291,0
130,825198279,9.30498695373535,-3.67356204986572,3.62147498130798,65.68865203857422,-23.59624481201172,18.59907722473145,9.76409339904785,1.3980975151062,1.83251774311066,-1.43594872951508,-4.86115217208862,7.55051040649414,0
131,825231613,9.61095809936523,-3.30429768562317,3.4529082775116,110.6805419921875,-24.62652969360352,34.05723190307617,9.97903442382812,1.07539629936218,2.02077579498291,-8.11956977844238,3.19418835639954,0.67876279354095,0
132,825264947,9.9118185043335,-2.54490399360657,3.10970282554626,136.6317596435547,-24.1452751159668,46.16279983520508,10.07072257995605,0.49115204811096,2.16230082511902,-0.48115119338036,7.64225006103516,-5.6363410949707,0
133,825298281,10.11823177337646,-1.82174670696259,2.76448249816895,137.3980255126953,-23.7363166809082,52.71635437011719,10.3285493850708,0.13170254230499,2.21979355812073,12.02096462249756,9.6900577545166,-8.994948387146,0
134,825331615,9.97192192077637,-1.39305067062378,2.85412931442261,119.94054412841795,-21.22958946228027,53.6362419128418,10.13405799865723,0.19683477282524,2.17916655540466,24.83387756347656,8.40924072265625,-9.38228797912598,0
135,825364949,9.72813129425049,-1.16605949401855,2.95131468772888,93.80774688720705,-16.86760902404785,50.50785827636719,9.89537906646729,0.38207513093948,1.84535610675812,34.22817993164062,7.66411590576172,-9.98442935943604,0
136,825398283,9.47402858734131,-1.12446987628937,2.99578952789307,69.5653305053711,-12.54081058502197,44.87397766113281,9.58048725128174,0.72737485170364,1.63715660572052,38.15774917602539,8.71595001220703,-8.85373973846436,0
137,825431617,9.28536987304688,-1.18453788757324,3.08764457702637,54.4342155456543,-6.77530860900879,38.14456558227539,9.54859352111816,1.38236832618713,1.46586906909943,39.30669403076172,11.15523719787598,-4.92229890823364,0
138,825464951,9.53965187072754,-1.03524076938629,3.39899682998657,47.80283355712891,4.62219429016113,31.04789161682129,9.305908203125,1.85471832752228,1.2800304889679,31.80453300476074,10.72775554656982,-1.95067811012268,0
139,825498285,9.82081985473633,-0.5129811167717,3.49627757072449,34.25059509277344,21.85019302368164,22.36388969421387,9.38248634338379,2.07867240905762,1.021404504776,13.29558849334717,7.39603042602539,-0.53947240114212,0
140,825531619,9.75216865539551,0.24708558619022,3.08199310302734,-8.83528137207031,33.8167724609375,14.4926118850708,9.39474105834961,2.33928370475769,1.06254243850708,-14.90764141082764,-0.45738342404366,0.62326139211655,0
141,825564953,9.60281181335449,0.51812183856964,2.93113899230957,-74.37962341308594,40.06337356567383,8.05077362060547,9.62525939941406,2.35254073143005,1.20241355895996,-49.80583190917969,-6.39326238632202,0.57230406999588,0
142,825598287,9.71334171295166,-0.02842959016562,3.28648924827576,-126.22069549560548,45.81939697265625,1.40181934833527,9.73900699615479,1.95300364494324,1.47277498245239,-75.5721206665039,-9.20867538452148,-2.89386034011841,0
143,825631621,9.80623722076416,-0.5412061214447,3.53996133804321,-151.11878967285156,54.45898056030273,-7.53729057312012,9.79013919830322,1.41113865375519,1.63083410263062,-86.96820831298828,-11.27392959594727,-10.260573387146,0
144,825664955,9.40538215637207,-0.72076040506363,3.42694330215454,-159.97421264648438,63.2598876953125,-20.67033958435059,9.70443439483643,1.15170347690582,1.68911635875702,-92.59591674804688,-11.86613845825195,-17.99703216552734,0
145,825698289,8.87557029724121,-1.06685507297516,3.06959557533264,-160.1160430908203,63.08889389038086,-36.12574005126953,9.76150798797607,0.98569113016129,1.77511417865753,-95.44617462158205,-9.7494592666626,-21.03988075256348,0
146,825731623,8.84437656402588,-1.61459159851074,3.02475237846375,-145.32647705078125,58.3115119934082,-54.92336654663086,9.95487785339355,0.6599817276001,2.11048030853271,-90.51871490478516,-2.28098487854004,-22.10577392578125,0
147,825764957,9.04219245910645,-2.07558727264404,2.93442535400391,-119.4636001586914,53.93801116943359,-74.80305480957031,9.84240913391113,0.36860147118568,2.22062516212463,-75.71092224121094,6.3563871383667,-24.14571189880371,0
148,825798291,9.30007553100586,-2.22527766227722,2.71775317192078,-93.35314178466795,51.57241439819336,-93.82927703857422,9.56345462799072,0.45537123084068,2.18011713027954,-59.88439559936523,9.8996753692627,-26.20107650756836,0
149,825831625,9.45634460449219,-2.12208700180054,2.22691559791565,-78.74213409423828,47.35321044921875,-107.89592742919922,9.46011543273926,0.86074817180634,2.04222798347473,-52.51462554931641,8.84034824371338,-26.94103813171387,0
150,825864959,9.58934497833252,-2.0553605556488,1.80057847499847,-76.76326751708984,40.28279113769531,-114.60377502441406,9.42488765716553,1.20531892776489,1.93683624267578,-57.42156600952148,6.45219135284424,-27.23435401916504,0
151,825898293,9.76945686340332,-2.15592193603516,1.61079072952271,-79.66163635253906,32.11956787109375,-113.90303802490234,9.44536399841309,1.42585480213165,1.8516618013382,-70.0978012084961,1.99252676963806,-27.71053504943848,0
152,825931627,9.77622890472412,-2.28829908370972,1.56817555427551,-83.2015151977539,24.40797424316406,-106.4242706298828,9.40011882781982,1.47623002529144,1.84359490871429,-82.6903076171875,-4.49197196960449,-28.97238922119141,0
153,825964961,9.54867172241211,-2.47212767601013,1.46619784832001,-87.7782974243164,15.35103130340576,-93.45193481445312,9.50492000579834,1.38321089744568,1.81342196464539,-92.7185287475586,-10.02137851715088,-30.59829521179199,0
154,825998295,9.43876647949219,-2.77275633811951,1.58755350112915,-86.92462158203125,5.23238325119019,-78.00670623779297,9.53467655181885,1.31919252872467,1.9054936170578,-99.67131805419922,-12.81094074249268,-32.41492080688477,0
155,826031629,9.43428707122803,-3.13342237472534,1.8594878911972,-72.81784057617188,-4.22683715820312,-63.67113494873047,9.6672306060791,1.14476191997528,1.98073077201843,-103.47452545166016,-16.51355361938477,-33.90118408203125,0
156,826064963,9.23084354400635,-3.31607818603516,2.13020324707031,-49.00657272338867,-12.86241245269775,-50.5638313293457,9.58849334716797,0.89189624786377,2.17536568641663,-101.51813507080078,-20.77774047851562,-35.18864440917969,0
157,826098297,9.05835819244385,-3.14029717445374,2.53365468978882,-28.36791801452637,-19.45700645446777,-39.60748672485352,9.49747180938721,0.56022918224335,2.29369711875916,-92.00328063964844,-23.7101001739502,-33.46650314331055,0
158,826131631,9.00125885009766,-2.92401051521301,2.79197335243225,-18.92318725585938,-24.15139579772949,-30.48544692993164,9.47803115844727,0.35554876923561,2.39793372154236,-75.7938232421875,-26.08690071105957,-28.51922035217285,0
159,826164965,8.95723056793213,-2.95838093757629,3.07320713996887,-15.1778039932251,-27.97493934631348,-23.1425952911377,9.48561477661133,0.27602055668831,2.45969390869141,-61.81204605102539,-26.55016326904297,-21.0513858795166,0
160,826198299,8.92663860321045,-3.22262668609619,3.39534568786621,-5.96600723266602,-31.07180213928223,-15.95468330383301,9.43687534332275,0.34882342815399,2.60349011421204,-48.60068130493164,-24.76591682434082,-11.27770900726318,0
161,826231633,9.027419090271,-3.42638540267944,3.77387547492981,15.37930965423584,-31.84030723571777,-7.22876644134521,9.48036003112793,0.43562397360802,2.66813802719116,-34.7778434753418,-21.81256675720215,-2.78032732009888,0
162,826264967,9.42361450195312,-3.26954579353333,4.18295669555664,41.49321365356445,-28.67391586303711,4.63040208816528,9.61907577514648,0.38966256380081,2.57695174217224,-18.60976409912109,-17.90289115905762,0.34581309556961,0
163,826298301,9.72705173492432,-2.64643979072571,4.43849658966064,57.34263610839844,-22.26240921020508,20.45832252502441,9.6884126663208,0.57141870260239,2.51910829544067,-6.34664440155029,-12.82705402374268,1.74437713623047,0
164,826331635,9.72437858581543,-1.76952242851257,4.47416067123413,52.04996871948242,-14.11995887756348,37.22243499755859,9.79808235168457,1.03097569942474,2.47423148155212,3.41963315010071,-7.99337816238403,3.98496985435486,0
165,826364969,9.81317806243896,-1.2466379404068,4.36533260345459,30.73712539672852,-6.80583429336548,51.25422668457031,9.8557300567627,1.0495787858963,2.3269522190094,7.32300710678101,-3.56546211242676,5.21018600463867,0
166,826398303,9.80937194824219,-1.30110335350037,4.34954786300659,11.43058586120605,-0.07798837125301,60.03112030029297,9.81798458099365,0.91181099414825,2.28426289558411,10.68420886993408,1.4309401512146,7.11238861083984,0
167,826431637,9.68229007720947,-1.57315754890442,4.18235206604004,7.62528133392334,4.97466373443604,62.96666717529297,9.85787582397461,0.88591402769089,2.38636016845703,20.3601245880127,6.54018354415894,10.02599048614502,0
168,826464971,9.67154216766357,-1.7194117307663,3.88128638267517,18.58246994018555,7.36391067504883,60.68144226074219,9.96584796905518,0.86228948831558,2.40293478965759,30.64140701293945,11.99960803985596,10.09901237487793,0
169,826498305,9.71004676818848,-1.75385868549347,3.61726045608521,36.56027603149414,8.54441165924072,55.23695373535156,9.95211791992188,0.87121731042862,2.31097865104675,38.43932342529297,17.52987289428711,9.29268646240234,0
170,826531639,9.5656623840332,-1.48277187347412,3.30057764053345,49.22787094116211,9.9815788269043,47.95840072631836,9.80462646484375,1.06266963481903,2.22633290290833,45.27888488769531,21.77509880065918,9.33699131011963,0
171,826564973,9.37260150909424,-1.13589119911194,3.01566553115845,46.40693664550781,11.11854457855225,39.40530395507812,9.67641925811768,1.23661696910858,2.08674144744873,49.14617156982422,20.99037170410156,8.32548809051514,0
172,826598307,9.18164825439453,-0.98750275373459,2.79464292526245,31.56304168701172,11.75025749206543,30.23434066772461,9.54691219329834,1.42004811763763,1.90668892860413,45.55941390991211,19.9447193145752,8.17956733703613,0
173,826631641,9.01836013793945,-1.02551913261414,2.77637195587158,14.37679672241211,11.27377319335938,20.85996055603027,9.50268840789795,1.74561941623688,1.76641428470612,36.70935821533203,20.61043739318848,9.8200855255127,0
174,826664975,8.92093372344971,-1.20241141319275,3.01214194297791,-7.59895515441895,11.49014568328857,14.37942695617676,9.29817295074463,2.23440957069397,1.6891804933548,21.677001953125,22.69633102416992,13.48722267150879,0
175,826698309,9.01908683776855,-1.45734977722168,3.57118153572083,-41.13138580322266,16.59918975830078,13.87362766265869,9.186767578125,2.61484932899475,1.57486248016357,-1.57928764820099,24.37736129760742,22.61115455627441,0
176,826731643,9.32226943969727,-2.08446884155273,3.94498562812805,-93.18417358398438,23.91497802734375,21.70258331298828,9.45001792907715,2.45466136932373,1.56883442401886,-27.6262035369873,26.20936012268066,40.1364860534668,0
177,826764977,9.69725322723389,-3.09035325050354,4.49842309951782,-164.07830810546875,36.56169509887695,39.65565872192383,9.14766693115234,1.25262498855591,2.11352014541626,-38.8259162902832,28.01326179504395,50.65864944458008,0
178,826798311,8.90442180633545,-4.07021760940552,3.11043763160706,-265.6060791015625,46.05321884155273,75.49675750732422,8.93105125427246,0.12555368244648,2.84797239303589,-28.1799373626709,14.94988536834717,50.78387069702148,0
179,826831645,7.20198249816895,-6.5258469581604,0.86351865530014,-369.1817626953125,26.39335823059082,136.29083251953125,8.64038372039795,-0.68812555074692,3.64142394065857,-11.999098777771,10.5841646194458,42.38063049316406,0
180,826864979,6.17709589004517,-9.7550048828125,-1.89954280853271,-387.6190185546875,-23.94539833068848,197.50744628906247,8.87728309631348,-0.28891840577126,3.45102667808533,0.65049141645432,16.20919418334961,32.36697006225586,0
181,826898313,5.82561922073364,-10.32723903656006,-4.5211238861084,-371.40521240234375,-86.64697265625,233.00201416015625,9.29550933837891,-0.07576540857553,3.28960251808167,-3.76594352722168,19.0242919921875,29.69144821166992,0
182,826931647,5.93622636795044,-10.70198249816895,-6.23995637893677,-352.6691589355469,-133.83694458007812,224.149169921875,9.94583797454834,-1.31418371200562,3.44354867935181,-14.11394691467285,19.24266242980957,33.70869445800781,0
183,826964981,5.53392744064331,-10.72837734222412,-6.04258155822754,-273.50396728515625,-152.4195098876953,184.48208618164065,9.51063919067383,-2.45572733879089,3.95070195198059,-11.21552658081055,10.85620021820068,40.70352172851562,0
184,826998315,4.47556447982788,-9.09642314910889,-4.80036640167236,-152.67880249023438,-150.81288146972656,132.35804748535156,9.85543441772461,-3.14204740524292,4.41104793548584,10.15577697753906,5.5474910736084,48.77620697021484,0
185,827031649,4.11897802352905,-7.71121788024902,-3.36162400245667,-8.57021808624268,-125.64878845214844,75.81173706054688,9.97234535217285,-3.01972270011902,4.65597867965698,45.00332641601562,10.21215057373047,43.92693710327148,0
186,827064983,3.51927042007446,-6.34877109527588,-3.13398313522339,115.46769714355467,-89.41484832763672,18.37589073181152,9.85371685028076,-2.56483125686646,4.46378469467163,81.82417297363281,14.61748600006104,27.90248107910156,0
187,827098317,2.76658248901367,-5.97106838226318,-2.96965456008911,211.2567901611328,-59.97544097900391,-33.32130432128906,9.51405715942383,-1.3990672826767,4.12053966522217,110.37559509277344,16.38176918029785,12.10402774810791,0
188,827131651,2.2197413444519,-6.18920946121216,-2.38279318809509,307.7103271484375,-37.17543029785156,-83.65476989746094,9.18890380859375,-0.31197503209114,3.63292217254639,118.0807647705078,15.49695301055908,5.89335203170776,0
189,827164985,2.08290266990662,-7.18989753723145,-1.6789618730545,423.6040954589844,-29.67645835876465,-139.86219787597656,9.30237102508545,-0.14220094680786,3.4991660118103,107.81098175048828,18.2550048828125,5.40683937072754,0
190,827198319,1.4850537776947,-6.97943639755249,-1.86255073547363,559.0621948242188,-49.5305061340332,-201.19754028320312,9.51369094848633,0.20013117790222,4.41961812973022,89.1877212524414,25.56572532653809,8.1950740814209,0
191,827231653,1.82739496231079,-4.30852317810059,-1.67650413513184,639.7638549804688,-120.81262969970705,-237.16799926757807,10.00713062286377,0.65024691820145,5.78784132003784,67.44039916992188,41.36433029174805,4.6656756401062,0
192,827264987,4.63683462142944,1.36228728294373,2.92780876159668,643.4574584960938,-174.89674377441406,-251.74755859375,12.55740642547607,-2.03258323669434,8.05510807037354,90.98146057128906,94.9806671142578,-27.33133888244629,0
193,827298321,11.77921104431152,2.30482077598572,10.35756683349609,637.4314575195312,-145.3186798095703,-229.71713256835935,4.04288959503174,-8.11985397338867,1.87579989433289,193.67535400390625,115.9807357788086,6.34579992294312,0
194,827331655,13.69084739685059,8.49353122711182,4.86074113845825,348.390869140625,-128.33724975585938,-175.70660400390625,3.50241541862488,-3.48500490188599,-0.32949298620224,300.0572204589844,-2.17487621307373,60.0955696105957,0
195,827364989,11.90297031402588,11.48554706573486,2.54633498191833,-119.43457794189452,-70.17935180664062,-218.65122985839844,11.32502174377441,8.70890045166016,-1.75060772895813,276.4257507324219,-82.4189682006836,28.6223030090332,0
196,827398323,10.79343032836914,5.58671426773071,0.61215543746948,-316.1363830566406,-33.14188766479492,-150.32923889160156,8.83538627624512,17.39843368530273,1.08069443702698,-4.1770977973938,-65.67952728271484,-26.67054176330566,0
197,827431657,9.68534088134766,1.23785328865051,2.60365962982178,-397.3517761230469,-35.31887054443359,-55.67315673828125,9.39728164672852,10.24088001251221,-0.05423897504807,-331.12890625,-70.98682403564453,-38.54087448120117,0
198,827464991,9.48441982269287,-3.11318874359131,4.28917169570923,-374.22698974609375,-38.4069709777832,9.21500301361084,11.86056137084961,1.49743950366974,0.54560542106628,-413.6506042480469,-18.07433700561523,-42.53685760498047,0
199,827498325,10.94963264465332,-5.63797616958618,3.26690101623535,-330.7387084960937,-16.87168502807617,40.91997909545898,10.49269104003906,-4.98367166519165,2.61016464233398,-345.72491455078125,16.3194694519043,-103.33248138427734,0
200,827531659,9.35462379455566,-5.82036018371582,0.87161219120026,-252.11706542968753,-9.20349407196045,16.70434761047363,7.76940393447876,-7.86914396286011,5.48680877685547,-127.97635650634766,-33.27817153930664,-112.9778289794922,0
201,827564993,6.73746347427368,-4.63386201858521,-0.16264727711678,-151.36312866210938,-9.33392906188965,-33.99081420898438,8.93821716308594,-4.73344373703003,4.53777694702148,83.70893096923828,-67.24153137207031,-92.44007873535156,0
202,827598327,5.95251941680908,-4.37292242050171,0.25703680515289,-57.1858024597168,-20.24843406677246,-88.99249267578125,8.63609409332275,-0.4820967912674,4.05069875717163,158.04466247558594,-57.26145935058594,-59.29869842529297,0
203,827631661,7.1788444519043,-4.67173624038696,0.65333157777786,23.64496231079102,-34.2884407043457,-137.66305541992188,8.28361797332764,0.13034519553185,2.93144798278809,133.72549438476562,-55.06292724609375,-22.59640312194824,0
204,827664995,9.3093786239624,-5.6179027557373,1.47846031188965,95.94053649902344,-47.69375610351562,-165.73123168945312,8.3114767074585,0.23208200931549,2.169766664505,100.01537322998048,-47.19812393188477,14.4625415802002,0
205,827698329,9.76488876342773,-5.92154550552368,2.04176449775696,154.67286682128906,-57.73538589477539,-151.7228546142578,8.30777168273926,0.13437934219837,1.7369292974472,108.71247100830078,-58.8165283203125,36.60804748535156,0
206,827731663,8.66984081268311,-5.16865825653076,2.00049090385437,174.7479248046875,-69.11518859863281,-93.75111389160156,8.190185546875,1.50121986865997,0.81982642412186,107.46814727783205,-72.73904418945312,33.38480377197266,0
207,827764997,9.61523628234863,-4.54932880401611,1.50531399250031,191.7313995361328,-77.73632049560547,-19.16545677185059,10.15221500396729,4.427330493927,1.16591107845306,93.92049407958984,-79.38446044921875,24.06423950195312,0
208,827798331,12.25823211669922,-3.87468481063843,1.80515313148499,244.33204650878903,-79.30858612060547,58.15276336669922,11.69694519042969,5.07158660888672,1.51019096374512,97.38431549072266,-64.17781829833984,10.98085498809814,0
209,827831665,13.24319839477539,-2.70132565498352,3.83027529716492,293.0113220214844,-67.46902465820312,139.02243041992188,11.32612609863281,4.12762212753296,-0.08440128713846,68.72076416015625,-25.74276733398438,12.6983470916748,0
210,827864999,16.63787841796875,1.0109897851944,8.11955165863037,495.0930480957031,-27.52915382385254,143.5582733154297,11.19638919830322,4.07240581512451,0.34569582343102,76.16643524169922,8.42364692687988,13.59903812408447,0
211,827898333,13.15226173400879,15.73047733306885,-0.44380021095276,754.8927001953125,111.19928741455078,18.4474925994873,11.24055862426758,3.94247555732727,0.03521075472236,113.11849212646484,47.7758674621582,0.47200787067413,0
212,827931667,9.46324157714844,10.40292072296143,1.88736009597778,205.84690856933597,125.34588623046876,38.20231246948242,9.22861576080322,3.96293091773987,-0.43616062402725,112.21318817138672,79.72285461425781,-11.10634994506836,0
213,827965001,10.04592132568359,5.75232172012329,0.67322111129761,-241.3080139160156,96.5641860961914,77.13404846191406,7.93726205825806,4.66482639312744,-0.33872079849243,43.30435562133789,67.30901336669922,-15.05179691314697,0
214,827998335,8.93484497070312,3.83627033233643,-1.11568760871887,-438.41506958007807,79.27741241455078,87.17433166503906,8.82082748413086,4.51613473892212,-0.07342019677162,-51.27482223510742,44.33638000488281,-5.57673788070679,0
215,828031669,9.0056266784668,-0.33014488220215,-0.69391280412674,-520.28857421875,74.60198211669922,102.4705047607422,8.96516513824463,1.43176448345184,0.25925561785698,-127.66738128662108,20.84714317321777,20.52563285827637,0
216,828065003,10.06343650817871,-4.93252229690552,0.29801344871521,-447.32916259765625,84.93854522705078,115.11617279052734,8.6519250869751,-0.01684719324112,0.70669519901276,-152.4709930419922,-3.56508994102478,50.52486419677734,0
217,828098337,9.6230411529541,-6.22116899490356,0.04068592190742,-337.34573364257807,88.37519073486328,128.41297912597656,9.09753036499023,0.97967427968979,0.64810121059418,-106.57184600830078,-26.80885887145996,48.87011337280273,0
218,828131671,8.92686748504639,-6.09147691726685,-0.80686384439468,-301.57183837890625,66.8756103515625,163.89549255371094,10.34184169769287,2.54959225654602,1.46407651901245,-90.15725708007812,-27.87135124206543,36.58830261230469,0
219,828165005,7.5501537322998,-6.47544240951538,-1.02651298046112,-373.6312561035156,14.01345634460449,212.45997619628903,10.6991024017334,2.05852937698364,1.72670698165894,-71.38262176513672,-9.78217506408691,14.79237842559814,0
220,828198339,7.20174360275269,-9.20724582672119,-3.47331619262695,-536.40966796875,-55.04809188842773,275.25958251953125,9.3668327331543,1.36775994300842,1.24439013004303,-60.12316513061523,0.30050998926163,4.59728622436523,0
221,828231673,5.90358972549438,-11.1815128326416,-9.45388507843018,-687.038330078125,-148.5567626953125,304.9061889648437,9.89194393157959,1.47753179073334,1.09553349018097,-94.30687713623048,-1.54591429233551,13.10790348052979,0
222,828265007,5.27056074142456,-15.66080856323242,-10.91862487792969,-508.6156311035156,-229.02395629882807,239.49542236328125,11.09818840026855,1.38387441635132,1.24395871162415,-134.76400756835938,7.13418102264404,1.78311443328857,0
223,828298341,5.48605632781982,-13.4759349822998,-7.26368474960327,-78.76221466064453,-225.96813964843753,144.82240295410156,10.79859638214111,0.43989813327789,2.34124755859375,-135.99581909179688,21.68311882019043,-22.19253730773926,0
224,828331675,2.308598279953,-7.17812395095825,-6.69380283355713,221.92173767089844,-186.03460693359372,88.7219467163086,10.13820362091064,-1.00184631347656,3.46089553833008,-117.91490173339844,31.92465209960938,-28.56611251831055,0
225,828365009,-0.74628645181656,-3.59940052032471,-3.35308742523193,304.98565673828125,-145.1694793701172,77.4969711303711,9.90789794921875,-3.08961915969849,4.12145614624023,-61.12339019775391,62.70922470092773,-31.71756744384766,0
226,828398343,-1.61285126209259,-2.89138269424438,0.35713315010071,285.8799743652344,-62.25754928588867,82.31729888916016,7.46447896957397,-3.40143585205078,3.90755295753479,-2.28244805335999,69.02613830566406,-15.59722232818604,0
227,828431677,-2.0098934173584,1.63728809356689,-0.92001390457153,97.08861541748048,2.62411141395569,77.94072723388672,7.58112955093384,-2.25120759010315,3.30523419380188,35.25433731079102,36.24802780151367,20.37966918945312,0
228,828465011,-1.51854300498962,-1.20276367664337,-3.97972345352173,-190.01580810546875,14.57972049713135,90.47673797607422,8.56132125854492,0.11765070259571,3.31558179855347,19.97797012329102,15.53021430969238,42.2476921081543,0
229,828498345,-2.76871967315674,-7.03262996673584,-9.18279838562012,-218.9843597412109,4.29088354110718,88.77943420410156,10.33974742889404,0.4514596760273,1.28052020072937,22.28700828552246,-16.01899719238281,32.08461761474609,0
230,828531679,-3.70003533363342,-7.86466026306152,-9.69300746917725,-68.29766845703125,-4.19234848022461,58.38113784790039,10.72889995574951,1.18376433849335,1.51037645339966,3.3974883556366,-16.90847587585449,-4.8639349937439,0
231,828565013,-3.89574456214905,-6.96176385879517,-7.76119899749756,89.55687713623047,2.20809531211853,21.83907127380371,9.72171974182129,1.06241619586945,3.08421611785889,-19.2211799621582,-17.05176734924316,-11.95987892150879,0
232,828598347,-4.95042419433594,-4.75256395339966,-7.11405944824219,102.41071319580078,-6.22014665603638,7.93692493438721,8.98110675811768,-0.20786775648594,3.71116709709167,-9.36544990539551,-13.71740245819092,9.72578620910645,0
233,828631681,-5.60131692886353,-3.79495668411255,-6.09430074691772,-41.55448150634766,-36.24273300170898,15.57657432556152,8.92824268341064,-1.0935742855072,4.12078046798706,20.25904655456543,-5.66999673843384,24.93574523925781,0
234,828665015,-5.04130554199219,-4.76881408691406,-5.56225299835205,-154.5381317138672,-53.98080825805664,16.09643745422363,9.3434534072876,-0.91722589731216,3.64450359344482,53.72557830810547,3.85085654258728,22.63571166992188,0
235,828698349,-3.64248991012573,-6.08147287368774,-5.46608257293701,-137.68191528320312,-48.76130294799805,-2.76581263542175,9.64152812957764,-0.0821313932538,3.17550897598267,69.30287170410156,8.47648048400879,19.91767311096191,0
236,828731683,-3.1106870174408,-5.38834953308105,-5.66484212875366,-44.48758697509766,-20.87267875671387,-37.0472297668457,9.70704078674316,0.21427954733372,2.64738631248474,64.53042602539062,9.48165035247803,20.13846969604492,0
237,828765017,-3.58798217773438,-4.27224016189575,-8.95704078674316,-40.14010620117188,-25.38126564025879,-44.92583847045898,9.05010318756104,0.18894043564796,2.42771029472351,51.17445373535156,1.56561231613159,21.59555816650391,0
238,828798351,-3.18446779251099,-3.88666296005249,-9.2371768951416,-116.81172943115234,-49.66283798217773,-34.67123413085938,8.92163276672363,0.05976350978017,1.97985696792603,48.61259460449219,-10.29333972930908,20.38362312316895,0
239,828831685,-3.74740719795227,-8.53347492218018,-7.5360894203186,-63.94366455078125,-58.0566291809082,-20.68856620788574,8.86473083496094,-0.21526454389095,1.95897924900055,48.69721221923828,-25.31197357177734,16.89775848388672,0
240,828865019,-3.30079030990601,-4.62993907928467,-1.74603962898254,29.85088157653809,-13.53190612792969,-18.91961669921875,10.19648551940918,0.02255066670477,2.12354564666748,29.59088706970215,-32.20009231567383,24.75078201293945,0
241,828898353,-7.31292152404785,-5.29813671112061,-8.64803791046143,-37.66602325439453,-15.33696937561035,-10.30888080596924,11.09813594818115,-0.19358512759209,3.20385265350342,25.30343246459961,-8.76333045959473,24.18011474609375,0
242,828931687,-3.45066690444946,-4.24313116073608,-6.32848405838013,-37.11317443847656,8.05362129211426,-42.74554061889648,9.99773597717285,-0.02361395955086,3.31803607940674,59.55178451538086,11.00509643554688,23.13849639892578,0
243,828965021,-3.38281011581421,-4.90842580795288,-9.79820251464844,-88.48180389404297,-6.53224515914917,-43.42693710327148,9.84367179870605,-0.2905510365963,2.30819058418274,79.56523132324219,13.02060604095459,10.89413833618164,0
244,828998355,-2.15440344810486,-4.27033090591431,-8.00456237792969,-73.29660034179688,-7.60038709640503,-48.83890914916992,9.54770469665527,0.90191555023193,1.3759868144989,68.71382904052734,-2.31637263298035,-6.7300443649292,0
245,829031689,-1.83663487434387,-2.10206818580627,-7.05675029754639,-29.42917823791504,7.26832389831543,-73.85223388671875,9.70672702789307,1.22454869747162,1.25709581375122,39.90698623657227,-3.18507862091064,-17.25538635253906,0
246,829065023,-3.44748020172119,-4.58099031448364,-7.90186357498169,-7.72823524475098,9.60807609558105,-60.66009140014648,8.95756530761719,0.29132300615311,1.27715241909027,16.21091079711914,-17.45403289794922,-11.59046649932861,0
247,829098357,-4.02917337417603,-4.27153825759888,-8.16816329956055,-15.94993305206299,8.26611232757568,-44.02009582519531,9.01377773284912,-0.88732004165649,1.69138252735138,10.45137310028076,-22.74301147460938,1.18329787254333,0
248,829131691,-4.00284957885742,-4.89524269104004,-8.3935661315918,-35.23405838012695,2.77342009544373,-28.61884498596191,9.40547657012939,-0.75043737888336,2.29188799858093,21.67154312133789,-25.0742015838623,11.86600780487061,0
249,829165025,-3.69727110862732,-4.47565126419067,-8.24373340606689,-32.49110794067383,-0.17659160494804,-29.78253173828125,9.77518463134766,0.12042223662138,2.39853048324585,36.64286804199219,-26.31394004821777,19.87244033813477,0
250,829198359,-3.31155967712402,-4.41601371765137,-9.04127311706543,-35.88900756835938,-7.01173067092896,-39.88993072509766,10.32658576965332,0.39546164870262,2.22188067436218,51.54747772216797,-15.75503349304199,15.352707862854,0
251,829231693,-3.1646249294281,-5.11356115341187,-9.23631286621094,-21.66699409484863,-14.6292839050293,-53.990234375,10.56940364837646,0.46352314949036,2.0899829864502,55.57530212402344,-9.63012599945068,3.70151567459106,0
252,829265027,-2.57725358009338,-5.18558216094971,-8.1706075668335,14.55615234375,-13.01105976104736,-73.48924255371094,10.40260314941406,0.57374775409698,1.8026407957077,52.01664352416992,-2.46900224685669,-4.33841705322266,0
253,829298361,-2.70259237289429,-5.65118932723999,-7.86603355407715,30.61135101318359,-12.00949287414551,-73.7679443359375,9.93925380706787,0.55694663524628,1.53502380847931,46.92924880981445,2.53845882415771,-5.71339082717896,0
254,829331695,-2.51818370819092,-5.38991355895996,-6.93290710449219,27.97402000427246,-7.728111743927,-64.1584701538086,9.70358562469482,0.35766771435738,1.32465600967407,41.17285919189453,5.5484094619751,-1.32752239704132,0
255,829365029,-2.53424739837646,-5.98054885864258,-6.58290529251099,41.21233367919922,2.13759899139404,-52.94636535644531,9.6183614730835,0.26832178235054,1.31371569633484,38.64317321777344,9.26318740844727,2.89762949943542,0
256,829398363,-2.24849653244019,-6.78689622879028,-6.36385345458984,120.37557983398438,17.64603042602539,-53.76262283325195,9.5403413772583,0.52557802200317,1.33820462226868,33.10465621948242,11.39074039459229,8.74571323394775,0
257,829431697,-1.4817066192627,-6.47665739059448,-4.49419546127319,216.4784698486328,47.10735702514648,-78.22052001953125,9.91966152191162,0.6081041097641,1.44172334671021,30.9642219543457,15.18491554260254,14.12760257720947,0
258,829465031,-0.68965947628021,-6.26592445373535,-3.22978210449219,305.9413146972656,79.51498413085938,-121.66873931884766,9.82361793518066,0.43884027004242,1.80973386764526,34.04478073120117,18.98643112182617,18.79764556884766,0
259,829498365,0.0484783500433,-6.00079488754272,-2.60475587844849,395.9603576660156,96.6460189819336,-185.4037170410156,9.64253902435303,0.19716612994671,2.15234160423279,38.214599609375,19.48836708068848,23.6783618927002,0
260,829531699,0.74513256549835,-5.91976070404053,-2.507488489151,472.01666259765625,83.00015258789062,-265.92108154296875,9.77723693847656,-0.23784796893597,2.47369122505188,45.58988571166992,21.864501953125,24.73551177978516,0
261,829565033,1.79594933986664,-5.02844905853271,-2.66894245147705,515.045166015625,16.69713973999023,-342.7133483886719,9.75833225250244,-0.78325605392456,2.93290686607361,58.72521591186523,26.90347290039062,22.37185287475586,0
262,829598367,5.33571243286133,-2.79139685630798,-1.6797206401825,488.8433532714844,-93.93008422851562,-388.4469604492188,9.95929431915283,-1.37371063232422,3.2739577293396,77.6097183227539,32.76676177978516,22.84301948547363,0
263,829631701,11.73587703704834,-0.13460220396519,0.30666399002075,394.1876220703125,-189.4743194580078,-374.1851196289063,9.38878059387207,-1.94157612323761,3.28302097320557,100.14747619628906,36.51474380493164,24.68394088745117,0
264,829665035,19.8236255645752,-1.42745757102966,5.25968217849731,318.76956176757807,-181.7681579589844,-312.61444091796875,8.54238414764404,-2.03956699371338,1.97004127502441,138.5503387451172,21.06609916687012,20.65959358215332,0
265,829698369,16.79133415222168,-1.49282741546631,4.90190172195435,263.89117431640625,-149.1920166015625,-226.80496215820312,8.56091499328613,2.73573923110962,-0.96935844421387,155.25823974609375,-26.01499176025391,-3.53544592857361,0
266,829731703,11.91110420227051,2.0286021232605,2.42671966552734,118.62039184570312,-125.17017364501952,-143.34800720214844,8.42074775695801,8.76867008209229,-1.98661065101624,35.99938583374023,-84.20654296875,-33.90328598022461,0
267,829765037,11.18896961212158,3.63016724586487,3.45434427261353,-23.01889801025391,-104.00473022460938,-80.50853729248047,10.55274677276611,9.5633020401001,-0.76677405834198,-150.48081970214844,-113.83074188232422,-44.95663452148438,0
268,829798371,12.05056571960449,3.56927037239075,5.20857715606689,-160.748291015625,-91.23592376708984,-31.28780174255371,13.41874027252197,1.93694400787354,0.19456627964973,-234.5158843994141,-61.5550651550293,-52.67670822143555,0
269,829831705,11.99487400054932,-0.73832750320435,5.99481153488159,-268.7598876953125,-68.6339111328125,-7.68414115905762,11.3272008895874,-3.46162247657776,1.41743898391724,-226.1951446533203,-26.12657737731934,-63.40626525878906,0
270,829865039,10.81034755706787,-5.93292903900146,5.59984159469604,-273.2382507324219,-35.66710662841797,-0.59288024902344,9.59941959381104,-4.00805044174194,2.88739991188049,-112.8049774169922,-21.6434326171875,-53.79824829101562,0
271,829898373,9.37994575500488,-7.8370509147644,5.12132740020752,-165.92254638671875,-7.36967325210571,-4.84435415267944,9.40895080566406,-2.38430571556091,2.93355679512024,-1.76713848114014,-18.92315673828125,-37.86547470092773,0
272,829931707,8.79409408569336,-6.63844442367554,4.49977207183838,10.83622932434082,14.29470539093018,-17.8747615814209,9.12520790100098,-0.49914622306824,2.00522446632385,58.20188140869141,-2.81479215621948,-16.01116180419922,0
273,829965041,9.10373687744141,-4.33346748352051,3.83945465087891,131.74993896484375,30.7508373260498,-18.13447189331055,9.19862651824951,0.79925239086151,1.543097615242,72.47150421142578,11.60721302032471,9.4517707824707,0
274,829998375,9.68420124053955,-1.45954322814941,3.17954635620117,140.13943481445312,39.76458740234375,-1.02951908111572,9.59091854095459,1.49194931983948,1.16641187667847,70.79137420654297,16.888427734375,25.29753112792969,0
275,830031709,10.23948287963867,0.34517276287079,2.53843593597412,52.38353729248047,42.2216796875,30.80975151062012,10.12283611297607,2.03834772109985,1.10050439834595,62.38636016845703,21.83601951599121,29.36218070983887,0
276,830065043,10.37296104431152,0.68273550271988,2.21919822692871,-52.72769927978516,40.83267593383789,70.42092895507812,10.10708808898926,2.14708518981934,1.23927628993988,53.15840911865234,20.30411720275879,22.60441970825195,0
277,830098377,10.0333251953125,-0.33686137199402,1.83224523067474,-130.30039978027344,30.13884544372559,106.77780151367188,9.92626285552979,1.75598013401031,1.19987714290619,48.87176513671875,14.06428909301758,14.34159088134766,0
278,830131711,9.85032272338867,-2.07149243354797,1.50175487995148,-138.58612060546875,17.63636779785156,129.06878662109375,9.53943252563477,1.51997005939484,1.08275580406189,45.96049880981445,11.90327167510986,10.46624851226807,0
279,830165045,9.65505027770996,-3.04789066314697,1.44775235652924,-87.29354095458984,6.53521871566772,130.5631103515625,9.35650730133057,1.50227093696594,1.02022457122803,37.54502868652344,10.86711883544922,11.22175407409668,0
280,830198379,9.51405906677246,-3.10246586799622,1.47224724292755,-15.46812438964844,-0.70686340332031,115.52078247070312,9.48410797119141,1.26385486125946,1.15869545936584,26.61357116699219,9.05958080291748,12.27348041534424,0
281,830231713,9.18357563018799,-2.54599165916443,1.51578569412231,47.26046752929688,-4.79876899719238,88.88343811035156,9.70287895202637,0.95030272006989,1.41331207752228,19.14852523803711,8.32117557525635,12.86828136444092,0
282,830265047,8.8592529296875,-1.83086431026459,1.48506331443787,84.01158905029297,-9.60054016113281,61.68519592285156,9.80501079559326,0.71676111221313,1.63301062583923,21.37657737731934,9.30584239959717,14.01353740692139,0
283,830298381,8.45835208892822,-1.33545136451721,1.40289258956909,89.0401611328125,-19.1993293762207,37.64136123657227,9.71885395050049,0.69233632087708,1.65235102176666,28.96030616760254,9.7880859375,14.81610488891602,0
284,830331715,8.34439563751221,-1.2434173822403,1.3732248544693,78.61095428466797,-32.18767166137695,16.83422660827637,9.61154365539551,0.72459453344345,1.51800894737244,34.91310501098633,9.69721794128418,14.02268695831299,0
285,830365049,8.60492515563965,-1.53339898586273,1.62138509750366,76.77862548828125,-42.76028823852539,-1.69568765163422,9.57612323760986,0.85886651277542,1.36973655223846,35.96345138549805,8.38806533813477,12.76513957977295,0
286,830398383,9.0459508895874,-2.00777435302734,1.85823726654053,92.65140533447266,-48.62317657470703,-17.72265434265137,9.60696601867676,1.09259796142578,1.27624309062958,31.39377212524414,5.53354120254517,11.75818157196045,0
287,830431717,9.45024871826172,-2.09273791313171,1.94282162189484,117.87410736083984,-50.29769515991211,-31.27837371826172,9.68218231201172,1.21826875209808,1.21643126010895,21.38382339477539,2.78977704048157,10.83061695098877,0
288,830465051,9.5751781463623,-1.64371955394745,1.97732138633728,131.2068328857422,-52.63841247558594,-39.12297058105469,9.88154029846191,1.17814683914185,1.38397598266602,10.01527309417725,0.71445548534393,9.7879467010498,0
289,830498385,9.59077262878418,-0.79094880819321,2.27785229682922,100.43951416015624,-63.12023162841797,-41.6259651184082,10.30576133728027,0.46146768331528,1.7610170841217,6.4907021522522,3.92556810379028,6.83664703369141,0
290,830531719,9.93237209320068,-1.15497648715973,3.94059181213379,40.41032409667969,-66.23636627197266,-36.11479568481445,9.8935661315918,0.22892209887505,2.36959624290466,18.52864837646484,3.87115526199341,2.51150465011597,0
291,830565053,9.96022796630859,-0.73551505804062,5.61583232879639,-58.10070419311523,-46.3195915222168,-9.96094608306885,9.34863090515137,0.96892535686493,2.18387985229492,38.26885986328125,1.2096174955368,6.0564751625061,0
292,830598387,10.25877571105957,-3.74750590324402,4.5724925994873,-97.10805511474608,-20.46740913391113,1.76453769207001,9.2056131362915,1.11502540111542,1.63339066505432,41.95090484619141,0.44964236021042,6.73504304885864,0
293,830631721,9.56217193603516,-4.78742551803589,3.31725788116455,3.35576462745667,3.51711845397949,-3.73082780838013,9.37928295135498,1.21431410312653,1.80444180965424,18.8210506439209,-1.26178193092346,9.05028820037842,0
294,830665055,9.58299255371094,-3.79230093955994,2.47205400466919,90.00293731689453,11.39589691162109,-6.38560009002686,9.99881935119629,0.53647005558014,2.13091325759888,-1.78108203411102,3.35414361953735,11.47539043426514,0
295,830698389,10.19896221160889,-1.91178929805756,2.19719648361206,100.7130126953125,13.78345966339111,-4.3406925201416,10.35596656799316,-0.31432580947876,2.68431258201599,7.34395503997803,1.36708557605743,4.11933898925781,0
296,830731723,10.17809104919434,-0.37233433127403,1.98395168781281,38.323974609375,10.01212501525879,8.58075141906738,10.28223705291748,-0.38712105154991,2.73965167999268,38.13212966918945,-12.06929302215576,-5.00721502304077,0
297,830765057,10.33315658569336,-0.53387731313705,1.75835204124451,-34.76726150512695,1.05831289291382,21.66119384765625,10.75999164581299,0.16092218458652,2.05245184898376,61.52779388427734,-11.17184352874756,-20.75365447998047,0
298,830798391,9.65261840820312,-1.51776993274689,2.25400042533875,-64.89361572265625,-7.48207521438599,29.51145553588867,10.07599258422852,1.14317202568054,1.4341094493866,58.22342300415039,-5.19987058639526,-37.84182739257812,0
299,830831725,9.17526054382324,-2.34065413475037,3.59082126617432,-46.8957405090332,-7.46422052383423,31.57660293579102,9.30687618255615,1.43823230266571,1.0883606672287,37.64878845214844,3.03230714797974,-43.37722015380859,0
300,830865059,8.94777774810791,-2.80000066757202,3.84822416305542,-5.45573806762695,0.59134012460709,20.51869010925293,9.48980712890625,1.29531252384186,0.6574774980545,35.15547943115234,10.79337882995605,-31.2655086517334,0
301,830898393,9.03468704223633,-2.95147633552551,3.23485660552979,45.21598434448242,13.03806304931641,-2.88087797164917,9.67794990539551,1.19294309616089,0.67423593997955,42.77427673339844,20.08236312866211,-16.30644226074219,0
302,830931727,8.92705154418945,-2.56342768669128,2.7182822227478,72.99980163574219,27.44053268432617,-28.52634429931641,9.68557167053223,1.12886273860931,0.78272247314453,40.82338714599609,36.19533920288086,-0.89166361093521,0
303,830965061,9.27804946899414,-2.05227160453796,2.61876130104065,69.35147857666016,40.9906120300293,-49.40625381469727,9.50283718109131,1.28559803962708,0.97580373287201,41.31992340087891,45.41840362548828,16.07467460632324,0
304,830998395,10.02328681945801,-1.70452427864075,2.43105888366699,40.53977966308594,51.23503112792969,-54.91305541992188,9.47132778167725,1.51550483703613,0.77365505695343,45.99878692626953,42.58477401733398,29.34545707702637,0
305,831031729,10.48339653015137,-1.65258491039276,2.13039708137512,3.34196519851685,57.17416000366211,-42.85791778564453,9.73133850097656,2.04980301856995,0.77310943603516,42.98464965820312,38.13164138793945,34.09616088867188,0
306,831065063,10.31758594512939,-1.54163908958435,1.67341804504395,-30.44080543518066,56.72971725463867,-16.93874359130859,9.78106594085693,3.07766556739807,1.1497894525528,30.84601974487305,34.62842559814453,30.97203636169434,0
307,831098397,9.67803573608398,-1.58790075778961,1.3633314371109,-56.05896759033203,47.13683319091797,16.56968879699707,9.74201107025146,3.4731011390686,1.37119555473328,15.04887771606445,29.08573913574219,25.12931060791016,0
308,831131731,9.25210857391357,-1.92044484615326,1.45132040977478,-63.62204360961914,31.10859489440918,46.85243606567383,9.54562282562256,2.79904627799988,1.43679535388947,-3.72615599632263,27.08903884887695,17.64677810668945,0
309,831165065,9.01402282714844,-2.50907564163208,1.70567536354065,-45.61837387084961,15.9498405456543,64.94149017333984,9.26808834075928,1.70175433158875,1.53977406024933,-13.84102821350098,25.05396461486816,12.80212879180908,0
310,831198399,8.96138381958008,-2.84934639930725,1.70459389686584,-9.89492893218994,5.81379556655884,68.4531478881836,9.10588359832764,0.85493808984756,1.72294986248016,-8.27808284759521,20.51665878295898,12.28005409240723,0
311,831231733,8.77938270568848,-2.58886337280273,1.45722234249115,23.50960540771484,-0.84561574459076,60.98164367675781,9.06741428375244,0.46164536476135,1.90386724472046,4.05049180984497,12.81292057037354,14.97410774230957,0
312,831265067,8.60176467895508,-2.23855185508728,1.33748006820679,37.58667755126953,-7.81876420974731,48.70654296875,9.29606056213379,0.40303421020508,2.07599306106567,15.60799980163574,6.45393037796021,21.61106109619141,0
313,831298401,8.50160694122314,-2.08466076850891,1.75292325019836,36.70015716552734,-16.01888275146484,36.58806991577148,9.3748664855957,0.59402948617935,2.15712881088257,23.24915313720703,0.26441124081612,27.96178817749023,0
314,831331735,8.89399528503418,-1.91039681434631,2.40343809127808,27.5666561126709,-21.29886817932129,26.71810913085938,9.53890800476074,0.69417655467987,2.02329587936401,23.03435134887695,-5.29386520385742,31.12714004516602,0
315,831365069,9.38386821746826,-1.89049518108368,2.86663603782654,9.37088680267334,-21.16522216796875,21.4692211151123,9.78453540802002,0.77208030223846,1.84143602848053,19.90938758850098,-11.52945041656494,34.12490844726562,0
316,831398403,9.58376979827881,-1.82585287094116,3.05253601074219,-11.00120449066162,-19.5191822052002,18.4797191619873,9.94083595275879,0.93203228712082,1.79837107658386,11.34507942199707,-16.28727531433105,32.67310333251953,0
317,831431737,9.53317546844482,-2.00117182731628,3.23517942428589,-20.79423332214355,-17.3092098236084,12.98686599731445,9.91485214233398,1.47100758552551,2.02387571334839,-8.50196838378906,-25.32679557800293,22.03952789306641,0
318,831465071,9.83336448669434,-2.00020480155945,3.54149842262268,-11.88502502441406,-16.55874633789062,9.10934829711914,10.68228244781494,1.34942400455475,1.86325836181641,-39.82424926757812,-24.5870418548584,12.60254859924316,0
319,831498405,9.95679092407227,-2.10723614692688,4.72866725921631,-2.43645215034485,-8.18308258056641,-1.25361800193787,10.39113330841064,0.51116240024567,2.12291646003723,-60.14162063598633,-17.990234375,-2.43460035324097,0
320,831531739,9.33001613616943,-1.65448558330536,5.14413166046143,3.56533670425415,2.93772864341736,-8.34174823760986,9.64448547363281,0.51229935884476,2.16913604736328,-68.07555389404297,-18.44500732421875,-9.43599891662598,0
321,831565073,8.62497711181641,-1.03837633132935,4.8271689414978,-12.01505661010742,9.78722763061523,-15.55057525634766,9.46912097930908,0.54524409770966,1.87772035598755,-75.43306732177734,-10.06206130981445,-13.34842872619629,0
322,831598407,8.39784812927246,-0.82745981216431,4.55358457565308,-39.21669769287109,13.40503311157227,-25.24735832214355,9.33401393890381,0.29704737663269,1.76398992538452,-88.40872955322266,-2.45499587059021,-19.69843864440918,0
323,831631741,8.85322380065918,-0.9688373208046,4.54539966583252,-60.71421432495117,20.61944007873535,-39.49029922485352,9.56042671203613,-0.23753699660301,1.91177248954773,-98.01265716552734,3.45690298080444,-23.04458808898926,0
324,831665075,9.08451843261719,-1.22921347618103,3.90929365158081,-81.84860229492188,28.5587100982666,-57.82645034790039,9.68029117584229,-0.56807214021683,2.19465470314026,-96.97429656982422,5.15138578414917,-24.85758590698242,0
325,831698409,9.31448173522949,-1.60219085216522,3.10125970840454,-99.6210708618164,32.1904411315918,-74.2593994140625,9.89954090118408,-0.69977295398712,2.24846529960632,-93.8146743774414,4.67141580581665,-24.3527774810791,0
326,831731743,9.50415706634521,-2.03194451332092,2.74835968017578,-109.6150360107422,31.84754371643066,-85.18260192871094,9.91635322570801,-0.62955129146576,2.32822513580322,-90.18915557861328,7.19503211975098,-24.726806640625,0
327,831765077,9.46217632293701,-2.47285866737366,2.53475689888,-125.4433135986328,30.27809906005859,-90.02433776855469,9.59720516204834,-0.42734920978546,2.53548359870911,-87.40241241455078,7.23887968063354,-24.63773727416992,0
328,831798411,9.22493743896484,-2.99035596847534,2.29888820648193,-132.6909942626953,28.05779266357422,-88.29295349121094,9.30244255065918,-0.31960690021515,2.50330257415771,-88.40716552734375,5.72969484329224,-25.06579208374023,0
329,831831745,9.13020896911621,-3.31532120704651,1.99474263191223,-123.31272888183594,24.55321311950684,-82.07527923583984,9.18013763427734,-0.43530371785164,2.55078530311584,-88.6342544555664,3.33882021903992,-26.47455215454102,0
330,831865079,9.29238319396973,-3.42198967933655,1.72691178321838,-101.0247039794922,19.25901031494141,-73.35519409179688,9.38050842285156,-0.4580149948597,2.60847806930542,-85.7338638305664,0.34120723605156,-29.79897117614746,0
331,831898413,9.65743541717529,-3.41030073165894,1.58146727085114,-78.17170715332031,10.78649616241455,-63.91641235351562,10.01007175445557,-0.35036405920982,2.48425674438477,-81.19123077392578,-3.4465446472168,-32.48712158203125,0
332,831931747,9.79708290100098,-3.36365675926208,1.72770845890045,-58.84282302856445,2.89414477348328,-54.99868392944336,10.04580307006836,-0.18981383740902,2.40328121185303,-75.11198425292969,-9.7462100982666,-37.19547653198242,0
333,831965081,9.54524040222168,-3.11613965034485,1.76541543006897,-46.90697860717773,-4.83303451538086,-44.50957107543945,9.9126033782959,0.05980217829347,2.18224143981934,-68.3984603881836,-17.89570236206055,-37.88594436645508,0
334,831998415,9.20001983642578,-2.89573645591736,1.83168315887451,-40.53511047363281,-11.85263919830322,-33.63172149658203,9.58234310150146,0.19646838307381,1.97168457508087,-65.0584945678711,-21.72184371948242,-37.2073860168457,0
335,832031749,9.04893112182617,-2.75674915313721,2.02537703514099,-36.23767852783203,-17.79268646240234,-23.76874923706055,9.4220027923584,0.23824071884155,1.78528165817261,-67.53196716308594,-23.52741813659668,-35.25769424438477,0
336,832065083,9.09978485107422,-2.73919868469238,2.18734192848206,-30.08488082885742,-22.34974098205566,-17.25837898254395,9.49297714233398,0.24755442142487,1.77556669712067,-72.28950500488281,-23.4527416229248,-31.26304626464844,0
337,832098417,9.2024097442627,-2.78402352333069,2.3955705165863,-19.39436340332031,-26.14352416992188,-13.54739952087402,9.62703132629395,0.14189685881138,1.96396040916443,-73.57569885253906,-24.34469985961914,-27.16305732727051,0
338,832131751,9.30761623382568,-2.79104733467102,2.62465167045593,-3.96960473060608,-29.2805061340332,-11.10104179382324,9.77129173278809,-0.17355263233185,2.17754983901978,-64.47553253173828,-25.8720531463623,-24.43742752075195,0
339,832165085,9.39524555206299,-2.83789253234863,2.92384171485901,15.8281421661377,-30.46689987182617,-8.77111911773682,9.7461462020874,-0.39356002211571,2.23534917831421,-40.12887573242188,-24.30408668518066,-22.13981437683105,0
340,832198419,9.53418731689453,-2.85089325904846,3.20597815513611,39.31968307495117,-29.27182769775391,-5.86728000640869,9.79587936401367,-0.00020263902843,2.02085208892822,-14.62734699249268,-18.66963577270508,-16.96174621582031,0
341,832231753,9.690842628479,-2.73796200752258,3.37376189231873,62.87223434448242,-25.91696929931641,-1.36151254177094,9.93949317932129,0.63316452503204,1.80570292472839,-2.61107993125916,-12.08596229553223,-10.04065322875977,0
342,832265087,10.08504104614258,-2.2570743560791,3.55174779891968,78.41159057617188,-20.01003456115723,5.2607626914978,10.14969921112061,0.91848307847977,1.77387082576752,-3.01748394966125,-7.29929780960083,-4.90270233154297,0
343,832298421,10.1560754776001,-1.30671620368958,3.85560178756714,66.19025421142578,-11.61454486846924,16.46611976623535,10.11067676544189,0.88768541812897,1.84133243560791,-1.10008811950684,-3.19413828849792,-3.66160202026367,0
344,832331755,10.11349487304688,-0.70311164855957,4.00855684280396,49.74625015258789,-1.02724456787109,23.73624992370605,9.92801761627197,0.88856953382492,1.81188356876373,8.02243709564209,1.36141240596771,-4.0402569770813,0
345,832365089,9.90450477600098,-0.25881379842758,3.46697616577148,38.95033645629883,9.92665672302246,26.83234977722168,9.85461521148682,0.94060307741165,1.70253229141235,19.84009170532227,5.82955074310303,-5.0131630897522,0
346,832398423,9.74330139160156,-0.40703678131104,3.07839131355286,21.56965637207031,16.39029502868652,28.9065055847168,9.75430202484131,1.12685978412628,1.5677182674408,26.37586212158203,10.39229679107666,-2.79925966262817,0
347,832431757,9.78296089172363,-0.77497011423111,2.8410701751709,1.98616075515747,20.42481994628906,25.79065895080566,9.8185453414917,1.36180329322815,1.45777225494385,28.21262168884277,13.80466175079346,0.01961960084736,0
348,832465091,9.63234996795654,-0.83168810606003,2.70479130744934,-16.42159080505371,23.70847129821777,21.90847015380859,9.81253814697266,1.38179457187653,1.36055767536163,26.17210960388184,16.07798385620117,1.46760153770447,0
349,832498425,9.46926879882812,-0.90289026498795,2.53435254096985,-42.26747131347656,25.44750785827637,19.95369529724121,9.52237606048584,1.19064605236053,1.33700668811798,22.12862968444824,13.50780010223389,5.5783224105835,0
350,832531759,9.3339729309082,-1.19401800632477,2.21524453163147,-54.22648239135742,25.83425521850586,17.76640319824219,9.49411392211914,1.09810388088226,1.40958714485168,21.12258148193359,10.13080024719238,10.053391456604,0
351,832565093,9.31987285614014,-1.47358024120331,2.01593494415283,-47.58269500732422,24.89467430114746,14.41439056396484,9.55243110656738,1.21051442623138,1.44869768619537,21.79355239868164,6.9212794303894,10.42248344421387,0
352,832598427,9.22700595855713,-1.56275737285614,1.90859031677246,-33.13557052612305,21.37292861938477,10.75374412536621,9.54074287414551,1.35316777229309,1.52128684520721,22.21821403503418,4.72298812866211,8.04714012145996,0
353,832631761,9.19990348815918,-1.55149865150452,2.00382685661316,-19.5224437713623,15.21309375762939,7.91451406478882,9.60892295837402,1.51643896102905,1.55824649333954,22.22933959960938,4.8595666885376,4.50724172592163,0
354,832665095,9.31801986694336,-1.67998731136322,2.3158106803894,-3.83789324760437,9.20514297485352,3.43658947944641,9.61562442779541,1.5532158613205,1.51413440704346,20.34198188781738,3.67156386375427,1.02226650714874,0
355,832698429,9.22108173370361,-1.13734173774719,1.9078551530838,3.28288626670837,0.68863922357559,2.64397716522217,9.72721576690674,1.51893472671509,1.47816300392151,13.91129589080811,2.32410287857056,-0.84150439500809,0
356,832731763,9.15040302276611,-1.7706595659256,1.69312977790833,9.62551116943359,-7.57211875915527,-0.77738237380981,9.58106994628906,1.65675055980682,1.51342833042145,8.80960178375244,1.139164686203,-4.00057172775269,0
357,832765097,9.0763463973999,-1.5892630815506,1.93156147003174,29.62178039550781,-11.88748741149902,-7.00074100494385,9.45216655731201,1.55925297737122,1.40471613407135,5.07473754882812,-0.52666467428207,-5.39905500411987,0
358,832798431,9.1226749420166,-1.22687518596649,2.0975456237793,33.41799545288086,-15.07322216033936,-10.07846546173096,9.3649263381958,1.49140524864197,1.33615386486053,2.54403424263,-3.13607501983643,-4.08769035339355,0
359,832831765,9.25659656524658,-1.37961912155151,2.27959227561951,29.10446357727051,-17.45909881591797,-12.39861583709717,9.48273944854736,1.51184749603271,1.27147257328033,-2.34891319274902,-5.11418342590332,-1.26023197174072,0
360,832865099,9.40004062652588,-1.39779007434845,2.48105406761169,28.05284881591797,-18.05870628356934,-14.06761169433594,9.55989360809326,1.58991289138794,1.28776955604553,-6.01476144790649,-6.81529331207275,0.07963637262583,0
361,832898433,9.58372783660889,-1.29957485198975,2.66514658927917,25.80739212036133,-16.92868614196777,-13.90410423278809,9.66105937957764,1.73092305660248,1.29982399940491,-9.32383060455322,-6.79081392288208,0.08218489587307,0
362,832931767,9.67996501922607,-1.26439273357391,2.76667809486389,18.2755012512207,-15.64898777008057,-10.37795734405518,9.74551010131836,1.69451940059662,1.30678915977478,-14.36309719085693,-6.26209878921509,-0.13080769777298,0
363,832965101,9.73873138427734,-1.30915760993958,2.95217442512512,12.03718662261963,-13.81402206420898,-5.96164608001709,9.78283500671387,1.59308886528015,1.3783233165741,-18.90889167785645,-4.931077003479,-0.79948872327805,0
364,832998435,9.71066665649414,-1.28567707538605,3.06891465187073,8.73754978179932,-10.610032081604,-2.08299040794373,9.73486995697021,1.45457172393799,1.4989378452301,-20.44919395446777,-3.59331393241882,-2.09526920318604,0
365,833031769,9.65190887451172,-1.23425984382629,3.0590615272522,4.16039228439331,-6.6575665473938,0.44996747374535,9.78100872039795,1.2634152173996,1.55353188514709,-19.79975128173828,-1.50278544425964,-3.23192143440247,0
366,833065103,9.58199882507324,-1.23957741260529,3.03792643547058,-0.5716946721077,-2.40051174163818,0.7339094877243,9.70957279205322,1.11139297485352,1.59063410758972,-15.51866817474365,0.03315575793386,-2.7679455280304,0
367,833098437,9.51284694671631,-1.2461953163147,2.97082471847534,-5.62810516357422,1.73863232135773,-0.66942024230957,9.70555305480957,1.02211451530457,1.62215626239777,-11.19849681854248,0.40890744328499,-0.80642682313919,0
368,833131771,9.49801635742188,-1.29572510719299,2.85128474235535,-10.54821681976318,4.68560886383057,-2.6463315486908,9.70529270172119,0.97626352310181,1.66553831100464,-6.63239717483521,0.44156327843666,0.21024839580059,0
369,833165105,9.69871044158936,-1.22479975223541,2.73422980308533,-16.71637725830078,6.70017957687378,-3.97847461700439,9.8482608795166,1.02058780193329,1.6595276594162,-2.29444646835327,2.05561780929565,-0.27170914411545,0
370,833198439,9.51943016052246,-1.3203159570694,2.6164436340332,-23.45309066772461,7.44374847412109,-3.31832385063171,9.77239036560059,1.23725724220276,1.56648325920105,-0.53958600759506,3.41064548492432,-1.90882194042206,0
371,833231773,9.37524509429932,-1.52568590641022,2.58551359176636,-22.32806205749512,6.62028646469116,-2.70081233978271,9.69617748260498,1.2297545671463,1.58483123779297,-2.40321755409241,2.55428433418274,-0.9533399939537,0
372,833265107,9.40693855285645,-1.7225079536438,2.58459830284119,-13.10277462005615,5.38457155227661,-3.55287027359009,9.73833465576172,1.2013566493988,1.61762285232544,-3.32008266448975,4.36612796783447,0.82714331150055,0
373,833298441,9.30477142333984,-1.76749968528748,2.56717801094055,-0.44216829538345,4.52775144577026,-5.1699104309082,9.609543800354,1.15575623512268,1.65367043018341,-5.13639688491821,5.89142513275146,1.8079696893692,0
374,833331775,9.1852855682373,-1.61640298366547,2.49935388565063,6.84473276138306,3.26664781570435,-5.90095853805542,9.51711750030518,1.04650604724884,1.68651163578033,-6.03635406494141,6.27677726745605,2.48816132545471,0
375,833365109,9.13567352294922,-1.5232617855072,2.47732543945312,6.68242120742798,1.4683678150177,-4.63224744796753,9.43880748748779,0.90709346532822,1.77991211414337,-5.32111024856567,5.3798246383667,1.96575725078583,0
376,833398443,9.14735984802246,-1.6346572637558,2.51126265525818,6.53044605255127,-0.31819316744804,-3.35061740875244,9.47961330413818,0.77744483947754,1.80745983123779,-3.65566110610962,5.19589138031006,1.65500390529633,0
377,833431777,9.16869735717773,-1.75230920314789,2.57256817817688,10.23105621337891,-1.8644472360611,-3.2670202255249,9.5364875793457,0.74900949001312,1.85552668571472,-0.87851268053055,5.5143837928772,1.79512417316437,0
378,833465111,9.2709789276123,-1.83137404918671,2.64186406135559,16.77829551696777,-3.73708176612854,-3.70490550994873,9.68144035339355,0.63108670711517,1.86416792869568,4.54433584213257,4.90470743179321,2.90927147865295,0
379,833498445,9.64550876617432,-1.87153422832489,2.70391845703125,24.42388534545898,-4.82811450958252,-4.75612926483154,9.95983028411865,0.44536304473877,1.8769029378891,14.05787372589111,5.24096584320068,5.54069948196411,0
380,833531779,10.02381134033203,-1.80842077732086,2.74216389656067,29.27596092224121,-5.0693302154541,-5.2317681312561,10.31321048736572,0.5257374048233,1.88027834892273,28.0080623626709,3.44202280044556,7.64382934570312,0
381,833565113,10.11774826049805,-1.73433876037598,2.77130842208862,30.73023414611816,-3.71741342544556,-2.58672547340393,10.23735332489014,0.8496949672699,1.86046040058136,42.83787155151367,1.06628501415253,7.39783000946045,0
382,833598447,9.71655464172363,-1.62779378890991,2.75353574752808,29.78736114501953,-1.99380826950073,6.25776052474976,9.827073097229,1.31427419185638,1.68522942066193,51.84308624267578,-0.47582221031189,6.66341924667358,0
383,833631781,9.48037433624268,-1.54802310466766,2.73647475242615,29.19392585754395,-0.84634071588516,17.86145973205566,9.59963703155518,1.75767683982849,1.43467402458191,50.01152801513672,4.16211748123169,5.5712571144104,0
384,833665115,9.53719806671143,-1.53389692306519,2.83014416694641,31.61695671081543,1.12534129619598,27.85363006591797,9.50506591796875,2.03319215774536,1.30700480937958,36.77719497680664,11.19209575653076,5.41978120803833,0
385,833698449,9.54634666442871,-1.37417435646057,2.80302810668945,34.68026351928711,3.6191098690033,33.4954948425293,9.52709197998047,1.93635654449463,1.37588715553284,17.5768985748291,14.09633445739746,6.71209144592285,0
386,833731783,9.59100818634033,-1.12636363506317,2.68627858161926,31.34979629516602,6.14386224746704,35.62641525268555,9.55992126464844,1.43474102020264,1.57456302642822,5.32177495956421,13.54843807220459,6.88373279571533,0
387,833765117,9.52818202972412,-0.91996049880981,2.56958699226379,20.08494758605957,7.49388980865479,35.3466911315918,9.62361812591553,0.98836869001389,1.73134708404541,3.07796883583069,11.11792469024658,6.57294607162476,0
388,833798451,9.39138698577881,-0.98698753118515,2.53374648094177,7.9513578414917,7.50917339324951,31.18939971923828,9.59488010406494,0.89707750082016,1.81236279010773,6.67663717269897,8.30968189239502,6.9946141242981,0
389,833831785,9.21534156799316,-1.1137216091156,2.51824998855591,3.6780641078949,6.41672611236572,24.02710723876953,9.58753108978271,0.99753206968307,1.80981874465942,9.63860893249512,5.35321521759033,8.22466850280762,0
390,833865119,9.23123836517334,-1.16586029529572,2.52288579940796,6.43915843963623,4.49437761306763,15.40520858764648,9.60526847839355,1.11191403865814,1.8193587064743,8.06118583679199,4.30958890914917,8.21488094329834,0
391,833898453,9.25131893157959,-1.10987079143524,2.5331244468689,9.96471309661865,2.06576490402222,7.43521595001221,9.58590507507324,1.2555730342865,1.87625479698181,3.64072728157043,2.89696574211121,7.07102108001709,0
392,833931787,9.28831577301025,-1.02187311649323,2.54114055633545,10.03095817565918,-0.87069529294968,1.82456803321838,9.58208179473877,1.29924178123474,1.94585609436035,-0.35181292891502,1.96407830715179,4.2379298210144,0
393,833965121,9.32926845550537,-0.9712827205658,2.56699895858765,7.31034469604492,-3.82444405555725,-1.396639585495,9.56855297088623,1.25401878356934,1.98500967025757,-2.05169582366943,0.76432782411575,-0.91345459222794,0
394,833998455,9.26512145996094,-0.99592506885529,2.62562680244446,2.34958958625793,-6.34380769729614,-4.25888729095459,9.51360511779785,1.14204275608063,1.98215854167938,-4.85225534439087,-0.54479849338531,-5.05361604690552,0
395,834031789,9.1564769744873,-1.13891327381134,2.69023060798645,-2.3523268699646,-8.5293493270874,-9.13972759246826,9.52308368682861,1.01097679138184,1.91048157215118,-8.92747783660889,-2.00959801673889,-5.73560571670532,0
396,834065123,9.20099258422852,-1.33311545848846,2.77342939376831,-4.57558107376099,-9.50351810455322,-16.76775360107422,9.61758613586426,0.88281321525574,1.86442720890045,-11.48369407653809,-2.7220823764801,-4.45149421691895,0
397,834098457,9.2478084564209,-1.54647409915924,2.83668565750122,-2.78457236289978,-9.02366161346436,-24.46805763244629,9.62226104736328,0.80587464570999,1.86071050167084,-11.58244323730469,-4.70754480361938,-2.34298133850098,0
398,834131791,9.39559650421143,-1.53202903270721,2.83234858512878,1.86665272712708,-7.31946039199829,-29.82642555236816,9.63990688323975,0.8516458272934,1.87712025642395,-10.27088832855225,-5.64380407333374,0.59452956914902,0
399,834165125,9.50515460968018,-1.45487892627716,2.94036340713501,-0.96450406312943,-5.67489719390869,-30.45427322387695,9.6509895324707,1.03501033782959,1.86119842529297,-7.09681606292725,-5.76650428771973,2.31805443763733,0
400,834198459,9.59641742706299,-1.45066857337952,2.93317866325378,-8.82732009887695,-4.13760709762573,-25.0715503692627,9.62850093841553,1.2492767572403,1.8276184797287,-7.06767988204956,-4.77197360992432,1.14014399051666,0
401,834231793,9.68566417694092,-1.53816032409668,2.91929197311401,-13.97451877593994,-2.24242258071899,-16.42065620422363,9.71121692657471,1.23270118236542,1.77043926715851,-10.26191329956055,-3.16053867340088,-1.03251028060913,0
402,834265127,9.5881929397583,-1.6628623008728,2.85949063301086,-13.84698963165283,-0.21900855004787,-7.47544479370117,9.67977619171143,1.19732677936554,1.74808359146118,-13.45932769775391,-2.9387674331665,-2.30960917472839,0
403,834298461,9.51980781555176,-1.66204476356506,2.77460789680481,-12.8132905960083,1.25622892379761,-1.06865072250366,9.72795867919922,1.0703661441803,1.75390386581421,-15.9593620300293,-1.83768904209137,-2.26640892028809,0
404,834331795,9.51614665985107,-1.63269448280334,2.72987127304077,-13.80586051940918,1.87372136116028,2.50765633583069,9.80488204956055,0.89655536413193,1.79100048542023,-16.556640625,-0.58948820829391,-0.53833937644958,0
405,834365129,9.48179531097412,-1.6461763381958,2.71317219734192,-14.68554210662842,1.86888146400452,4.24807214736938,9.79495048522949,0.7179502248764,1.81272387504578,-15.72651290893555,-0.03619407489896,2.04466271400452,0
406,834398463,9.45933055877686,-1.70083904266357,2.7459454536438,-12.93855857849121,1.8965836763382,5.40699243545532,9.75723266601562,0.62802094221115,1.85305738449097,-12.04232120513916,-0.15147703886032,3.83597779273987,0
407,834431797,9.46632862091064,-1.64490699768066,2.75036001205444,-8.88197135925293,2.10634088516235,6.88641500473022,9.70839786529541,0.72755444049835,1.90412139892578,-7.27416515350342,-0.4602766931057,4.22778987884521,0
408,834465131,9.50017929077148,-1.53472208976746,2.75071406364441,-6.21763181686401,1.66430330276489,9.28857040405273,9.79019641876221,0.79374462366104,1.90190899372101,-4.96982336044312,-0.17907448112965,3.47891712188721,0
409,834498465,9.51923561096191,-1.55809140205383,2.85975027084351,-2.81046724319458,0.90044486522675,11.03047180175781,9.85564231872559,0.82602524757385,1.89223062992096,-4.84953927993774,1.66696488857269,2.56568956375122,0
410,834531799,9.46474838256836,-1.50421297550201,2.90986847877502,2.995192527771,0.82761812210083,10.57696056365967,9.77338027954102,0.8733406662941,1.93022072315216,-3.82895064353943,3.41231822967529,3.99397659301758,0
411,834565133,9.38883876800537,-1.3500007390976,2.93791818618774,6.24560976028442,1.10997939109802,9.31958770751953,9.66129970550537,0.76932084560394,2.00530886650085,-4.17673254013062,3.47227668762207,3.62742590904236,0
412,834598467,9.43747901916504,-1.25939738750458,2.93492317199707,5.9739785194397,1.32008683681488,7.99396467208862,9.70053958892822,0.66333478689194,2.04652976989746,-3.74442148208618,3.87713694572449,1.95156049728394,0
413,834631801,9.44009113311768,-1.22519218921661,2.96976590156555,4.20333194732666,1.64283502101898,5.85874605178833,9.71707344055176,0.68815165758133,2.09233736991882,-0.07091198116541,3.67485952377319,0.38413295149803,0
414,834665135,9.3577880859375,-1.24893712997437,2.96013116836548,3.60126805305481,1.99933433532715,2.71934604644775,9.69695568084717,0.71956449747086,2.05081176757812,1.59104216098785,4.30417680740356,-0.30150318145752,0
415,834698469,9.30005836486816,-1.31221175193787,2.96791505813599,4.33421468734741,2.41511201858521,-0.78342550992966,9.60072135925293,0.72694778442383,1.98717439174652,1.42399621009827,4.92358207702637,0.8490292429924,0
416,834731803,9.237868309021,-1.31842875480652,2.91389060020447,3.66301774978638,2.93027639389038,-3.59741425514221,9.53613185882568,0.74373096227646,1.97311890125275,1.19271337985992,4.8453540802002,2.1137912273407,0
417,834765137,9.26391887664795,-1.36589992046356,2.87767171859741,0.72107487916946,3.6848828792572,-5.60590410232544,9.53903770446777,0.78029960393906,1.95058250427246,-0.24436770379543,4.89859771728516,3.35061645507812,0
418,834798471,9.34738254547119,-1.46016907691956,2.87579560279846,-2.69317770004272,4.42401218414307,-6.65017700195312,9.66328716278076,0.7778794169426,1.94806778430939,-2.45213294029236,5.16187238693237,4.23773956298828,0
419,834831805,9.45491123199463,-1.61066973209381,2.92811989784241,-3.47717118263245,4.98785781860352,-6.4264063835144,9.73264122009277,0.72788447141647,1.92339789867401,-4.61137008666992,6.68653011322021,4.35313367843628,0
420,834865139,9.5351448059082,-1.6631453037262,2.97193694114685,-1.34920799732208,6.30243015289307,-4.99369382858276,9.74559116363525,0.88152819871902,1.92919862270355,-5.40776872634888,7.94577074050903,4.23359394073486,0
421,834898473,9.59994029998779,-1.56811285018921,2.95587754249573,-0.63706201314926,8.16279220581055,-1.52213513851166,9.78425788879395,0.95012491941452,1.90116000175476,-7.59949159622192,8.57415580749512,3.78541731834412,0
422,834931807,9.76009845733643,-1.43930089473724,2.94346141815186,-3.70588517189026,10.07840251922607,2.7568531036377,9.89846134185791,0.91925179958344,1.90684580802917,-11.6981372833252,10.19946479797363,1.07136356830597,0
423,834965141,9.50582122802734,-1.24498999118805,2.86454486846924,-12.26708221435547,11.202956199646,7.32982444763184,9.60819053649902,0.9357647895813,2.03036379814148,-16.08991432189941,7.26681661605835,-1.55157625675201,0
424,834998475,9.27361106872559,-1.18628311157227,2.66400146484375,-23.46520042419434,10.447265625,10.71100234985352,9.48750400543213,0.74990874528885,2.13953304290771,-20.2476634979248,3.69819521903992,-3.0602080821991,0
425,835031809,9.10959434509277,-1.27124893665314,2.55213809013367,-30.5899486541748,7.94490766525269,10.72369956970215,9.44556903839111,0.40316513180733,2.28660702705383,-20.34454917907715,0.63388615846634,-5.39362287521362,0
426,835065143,8.97898960113525,-1.36710369586945,2.44450831413269,-31.9438591003418,3.42082929611206,6.82477617263794,9.48177337646484,0.20797248184681,2.34164452552795,-16.65121459960938,-3.84389185905457,-7.36768436431885,0
427,835098477,8.97446918487549,-1.54494190216064,2.41595029830933,-26.38620185852051,-1.63896644115448,-0.75694596767426,9.52593326568604,0.22704586386681,2.37065315246582,-11.51931571960449,-7.3459939956665,-8.08492279052734,0
428,835131811,9.00001335144043,-1.62736523151398,2.4402186870575,-15.34751892089844,-6.6879997253418,-9.54961204528809,9.58413696289062,0.3217825293541,2.32790637016296,-7.5771918296814,-10.17548656463623,-7.72637939453125,0
429,835165145,9.11515522003174,-1.56389367580414,2.50435566902161,-5.55622005462646,-11.67701530456543,-16.60465431213379,9.60219860076904,0.43076908588409,2.21036982536316,-3.9609043598175,-12.18838977813721,-8.32897853851318,0
430,835198479,9.29731273651123,-1.54816138744354,2.6438364982605,-0.03374183550477,-15.1934986114502,-20.48885726928711,9.64810085296631,0.70243161916733,2.08875918388367,-2.44044065475464,-12.2913875579834,-8.96502208709717,0
431,835231813,9.36621570587158,-1.57014393806458,2.79577493667603,5.30260562896729,-16.17247200012207,-21.72692680358887,9.57145309448242,1.03356873989105,1.95266807079315,-3.94060134887695,-12.14570999145508,-9.3086519241333,0
432,835265147,9.47558212280273,-1.44100487232208,2.89636039733887,7.27348327636719,-15.3280200958252,-21.00406265258789,9.63046360015869,1.14556646347046,1.82250881195068,-11.82605838775635,-11.01048946380615,-9.33058261871338,0
433,835298481,9.61223030090332,-1.31571269035339,3.02709031105042,1.77638185024261,-13.40515518188477,-18.31461524963379,9.72012138366699,1.11789178848267,1.79258644580841,-20.57741546630859,-9.38191318511963,-9.38790512084961,0
434,835331815,9.7114953994751,-1.32015323638916,3.15214204788208,-7.32782983779907,-10.02540493011475,-14.88747024536133,9.81608390808105,1.07645750045776,1.83125007152557,-26.51301765441895,-7.67165470123291,-9.06810188293457,0
435,835365149,9.63699150085449,-1.34393990039825,3.21320414543152,-15.81598281860352,-5.5066123008728,-11.33329772949219,9.73900890350342,1.0073014497757,1.89059066772461,-28.13825798034668,-6.13273477554321,-8.63859081268311,0
436,835398483,9.52982902526855,-1.41442251205444,3.19968438148499,-21.25472259521484,-1.58771073818207,-7.63764667510986,9.6792459487915,0.85158735513687,1.88727855682373,-28.5650806427002,-4.49822568893433,-7.31656694412231,0
437,835431817,9.48373889923096,-1.52761352062225,3.19131422042847,-22.3331127166748,1.88471472263336,-5.3256368637085,9.67271327972412,0.69422996044159,1.91501772403717,-26.81769752502441,-2.32233762741089,-5.50240564346313,0
438,835465151,9.54265689849854,-1.53256142139435,3.10815238952637,-20.73943328857422,4.85635995864868,-5.23903226852417,9.79698085784912,0.62473851442337,1.95713222026825,-23.39499282836914,0.34101015329361,-3.23452186584473,0
439,835498485,9.45560741424561,-1.50997042655945,3.03763675689697,-20.23195838928223,7.0933575630188,-5.17963075637817,9.7308874130249,0.58704102039337,2.00011968612671,-19.60622978210449,1.45604515075684,-1.19647490978241,0
440,835531819,9.47457027435303,-1.54977023601532,2.94662070274353,-19.63896751403809,8.25056457519531,-4.64396238327026,9.76132392883301,0.53314113616943,2.02861022949219,-15.72935581207275,2.24748373031616,0.20625978708267,0
441,835565153,9.45845794677734,-1.59935593605042,2.94402360916138,-18.1966552734375,9.12497043609619,-3.51279973983765,9.72026920318604,0.61629390716553,2.02077770233154,-11.03974914550781,3.27738785743713,2.10281300544739,0
442,835598487,9.48006725311279,-1.6414235830307,2.87592935562134,-14.73227977752686,9.74092292785645,-2.01082015037537,9.76425170898438,0.71166688203812,1.98467123508453,-9.25122261047363,4.82389736175537,2.96687746047974,0
443,835631821,9.44056034088135,-1.59125900268555,2.85842084884644,-12.05078220367432,9.84209156036377,0.40015497803688,9.67708301544189,0.71662271022797,2.01984786987305,-9.2157096862793,5.23070383071899,2.94032335281372,0
444,835665155,9.43740177154541,-1.55164396762848,2.7961950302124,-10.52737140655518,9.27777194976807,2.98618054389954,9.68917369842529,0.69512462615967,2.07604694366455,-8.03754901885986,5.4079122543335,2.85142803192139,0
445,835698489,9.38591861724854,-1.51512515544891,2.76886868476868,-9.36810302734375,8.34901332855225,4.84536504745483,9.6840181350708,0.65749454498291,2.10017466545105,-6.11490678787231,5.3834867477417,2.17521166801453,0
446,835731823,9.31863498687744,-1.50391447544098,2.74611210823059,-7.30654287338257,6.81038236618042,6.13051128387451,9.63263607025146,0.61721134185791,2.11390495300293,-3.6556282043457,4.5170578956604,1.59709978103638,0
447,835765157,9.32138347625732,-1.49970304965973,2.73940253257751,-3.57206583023071,4.91744136810303,6.48091220855713,9.64225673675537,0.5930939912796,2.10939788818359,-1.60873103141785,4.18026924133301,1.272292137146,0
448,835798491,9.29343318939209,-1.44771242141724,2.75749230384827,0.19206975400448,3.3287308216095,5.74810838699341,9.60074329376221,0.66171628236771,2.10484600067139,0.39254027605057,3.79834461212158,1.01222050189972,0
449,835831825,9.22959423065186,-1.38236832618713,2.73728346824646,1.84927606582642,1.76505506038666,4.85469102859497,9.56628227233887,0.68357139825821,2.09090209007263,0.89307636022568,2.47801566123962,0.76277822256088,0
450,835865159,9.23477840423584,-1.36656785011292,2.77540445327759,2.22296524047852,0.44546899199486,3.94508647918701,9.54625511169434,0.63112056255341,2.08890128135681,1.84171330928802,1.85916829109192,0.2995597422123,0
451,835898493,9.24709796905518,-1.40577852725983,2.81833148002625,3.59923791885376,-0.34937325119972,2.47939920425415,9.54536914825439,0.68830138444901,2.03458023071289,3.39012289047241,2.06408286094666,0.5190606713295,0
452,835931827,9.18367576599121,-1.37575471401215,2.845623254776,4.5383472442627,-0.35251086950302,0.80676180124283,9.44072437286377,0.80549055337906,1.94350004196167,3.59645962715149,1.16541016101837,1.74766385555267,0
453,835965161,9.1772403717041,-1.30151987075806,2.79009628295898,1.98762929439545,0.00117818429135,0.23057195544243,9.40902805328369,0.84794718027115,1.9441237449646,1.64467489719391,0.08442587405443,2.66215872764587,0
454,835998495,9.29402828216553,-1.34661424160004,2.76724600791931,-2.89449453353882,0.06083016470075,-0.028196381405,9.54419803619385,0.74398279190063,1.92601919174194,-1.57291758060455,0.09519600123167,3.29204511642456,0
455,836031829,9.2662935256958,-1.40391838550568,2.72918844223022,-6.46062755584717,-0.28735542297363,-0.77526479959488,9.5965690612793,0.67405915260315,1.9684089422226,-3.2144558429718,-1.78308320045471,3.76095700263977,0
456,836065163,9.41421794891357,-1.58636975288391,2.78438091278076,-4.80958652496338,-0.83469891548157,-2.00754976272583,9.7730598449707,0.55978339910507,1.96158909797668,-3.45684766769409,-0.53132599592209,3.06221032142639,0
457,836098497,9.5096321105957,-1.44666373729706,3.12751507759094,-4.96446657180786,0.79790949821472,-1.56110739707947,9.66228294372559,0.81095039844513,1.95062899589539,-3.87688374519348,-0.90312647819519,3.48049783706665,0
458,836131831,10.00461196899414,-1.26588082313538,3.70737051963806,-25.84233283996582,9.17191219329834,5.31995010375977,9.73428535461426,1.1586674451828,1.81851410865784,-9.28652858734131,-0.3708693087101,4.72458982467651,0
459,836165165,10.32098388671875,-1.58068406581879,4.32295608520508,-69.46935272216797,21.05925750732422,20.92708587646484,9.7972936630249,1.14200758934021,1.69345879554749,-15.0315113067627,-2.9457049369812,5.79995965957642,0
460,836198499,10.76322078704834,-3.03142666816711,5.57662391662598,-113.39169311523438,40.38253021240234,50.11219024658203,9.79160308837891,1.16558623313904,1.82678282260895,-27.09272003173828,-1.70017969608307,5.1906681060791,0
461,836231833,9.20598125457764,-4.05160140991211,4.95890140533447,-151.15994262695312,55.77765274047852,88.31718444824219,9.51113414764404,1.6556156873703,1.99280726909637,-37.52642059326172,-1.33218455314636,-2.88417840003967,0
462,836265167,8.87513637542725,-5.60803985595703,4.35186004638672,-161.4088134765625,55.00223922729492,125.09087371826172,9.80924606323242,1.19985032081604,2.28675961494446,-51.3533821105957,9.14457893371582,-3.56802821159363,0
463,836298501,9.14658832550049,-7.21168851852417,4.5445237159729,-143.028076171875,55.37643432617188,150.18588256835938,9.54927253723145,-0.18544648587704,2.58930921554565,-51.67879867553711,23.06807518005371,4.33054256439209,0
464,836331835,8.77087879180908,-7.70437812805176,4.06542587280273,-104.4678955078125,58.03131103515625,162.23544311523438,9.3551664352417,-1.03179001808167,2.79817891120911,-34.95179748535156,21.66011619567871,11.49855327606201,0
465,836365169,8.35918521881104,-8.08406257629395,3.06711316108704,-71.80021667480469,56.69990921020508,172.6214599609375,9.4583215713501,-0.87750494480133,3.09436964988708,-13.56194972991943,16.85202598571777,15.44701385498047,0
466,836398503,8.0454158782959,-8.27677154541016,2.13840627670288,-65.71464538574219,48.98698425292969,188.9849548339844,10.07580280303955,-0.46367329359055,2.97042322158813,-1.66408324241638,14.02624034881592,15.38283252716064,0
467,836431837,6.46374702453613,-7.20539665222168,0.97958272695541,-131.8949737548828,24.24609184265137,213.03872680664065,10.38973045349121,-0.22660322487354,2.79254269599915,4.86987113952637,15.76818370819092,10.30042552947998,0
468,836465171,4.31670999526978,-6.39427471160889,-0.53301453590393,-278.94549560546875,-16.91722869873047,240.0619201660156,10.24478721618652,-0.66719704866409,2.73959255218506,5.3416576385498,17.87110710144043,2.41934943199158,0
469,836498505,2.17886972427368,-7.62501955032349,-2.22841262817383,-413.849609375,-67.41800689697266,240.12527465820312,9.56003379821777,-1.23788070678711,2.90043973922729,13.54759979248047,15.78422260284424,0.21123562753201,0
470,836531839,1.28752195835114,-8.91211986541748,-1.70405542850494,-373.9391784667969,-88.47177124023438,192.56887817382807,8.78200626373291,-1.06462645530701,3.00356531143188,35.18039703369141,13.95686721801758,8.62839698791504,0
471,836565173,1.30538094043732,-9.19874668121338,-0.59118968248367,-181.59773254394528,-65.54400634765625,128.28472900390625,8.53532791137695,-0.11926580965519,2.7006208896637,44.5814094543457,11.5598611831665,26.4355297088623,0
472,836598507,2.43013453483582,-11.32073402404785,-1.50608134269714,144.7354278564453,-19.70265769958496,57.57478713989258,8.8161039352417,0.63535559177399,2.61207938194275,31.09100532531738,14.79124736785889,38.32595062255859,0
473,836631841,2.4634747505188,-8.91612529754639,-2.55101299285889,383.34719848632807,21.35028266906738,-5.20175409317017,9.04506969451904,1.03479993343353,2.80492377281189,16.01073265075684,6.3488564491272,29.15551376342773,0
474,836665175,1.949911236763,-8.0970630645752,-1.55232524871826,437.9365234375,35.91693496704102,-45.98185348510742,9.9378833770752,0.50162667036057,3.04549694061279,2.48945713043213,0.16338375210762,11.90601062774658,0
475,836698509,1.27730715274811,-7.73419237136841,-0.85960066318512,446.8427429199218,28.32565116882324,-74.8494644165039,10.05434513092041,0.02479804307222,3.51285672187805,-4.66808176040649,0.55169796943665,-6.04626369476318,0
476,836731843,1.11984384059906,-4.65686893463135,1.08854365348816,326.3583068847656,-1.71521556377411,-65.81300354003906,9.87398147583008,0.19605626165867,3.54159784317017,-1.04396331310272,-2.39792203903198,-19.57476234436035,0
477,836765177,1.46327686309814,-4.90604877471924,4.44663333892822,115.40865325927734,-27.1568489074707,-39.49056243896484,9.58304691314697,0.33230701088905,2.69578886032104,3.20471358299255,-8.50999546051025,-30.59502029418945,0
478,836798511,1.81207978725433,-7.2726469039917,5.92327260971069,-7.67499208450317,-28.93239784240723,-24.02841377258301,9.01726055145264,0.13105615973473,2.12506031990051,-6.84274625778198,-15.08678531646729,-35.80654907226562,0
479,836831845,1.65890657901764,-8.93377208709717,5.70726680755615,-23.73369407653809,-14.1483039855957,-23.09305000305176,9.08129692077637,0.00185831170529,2.06853151321411,-20.74505805969238,-20.92910385131836,-33.45478057861328,0
480,836865179,1.39754140377045,-9.29779624938965,5.42540645599365,4.38753271102905,1.27599346637726,-23.66847801208496,9.28467464447021,0.32867938280106,2.2991783618927,-38.85446929931641,-24.35710716247559,-23.95779037475586,0
481,836898513,0.8838826417923,-8.36286926269531,5.60329914093018,6.14302396774292,11.31539821624756,-22.56367111206055,9.45267391204834,0.3665583729744,2.43151021003723,-50.65254592895508,-24.93665885925293,-12.49054908752441,0
482,836931847,0.78140288591385,-8.37955570220947,5.70041370391846,-11.64950942993164,12.80609512329102,-16.21039390563965,9.66487121582031,-0.30160313844681,2.882164478302,-43.72040176391602,-20.30279159545898,-6.29576301574707,0
483,836965181,0.95686584711075,-8.82320880889893,5.7044825553894,-16.09634590148926,7.92838573455811,-10.74498271942139,9.77598190307617,-0.76951718330383,3.28818893432617,-22.5158863067627,-15.54114246368408,-6.62711381912231,0
484,836998515,1.3087010383606,-9.68819904327393,6.0665078163147,4.91340017318726,2.64573955535889,-4.71389961242676,9.89932632446289,-0.45398050546646,3.29714751243591,1.38079607486725,-10.32428455352783,-5.67411661148071,0
485,837031849,1.34181022644043,-9.82561779022217,6.31665515899658,39.85175704956055,-0.26250404119492,1.29112350940704,10.15965270996094,0.21744638681412,2.86547183990479,18.11553955078125,-1.99797034263611,-5.0535683631897,0
486,837065183,1.26716077327728,-9.08271884918213,6.14060306549072,62.6759147644043,-4.47692060470581,7.52745914459229,10.15405559539795,0.60722422599792,2.46830558776855,18.89106750488281,5.73621559143066,-5.98533010482788,0
487,837098517,1.45368719100952,-8.06854438781738,5.69405651092529,69.12996673583984,-10.55464744567871,12.10986232757568,10.02367305755615,0.58051747083664,2.56960248947144,12.14223480224609,11.6184720993042,-6.298668384552,0
488,837131851,1.63303411006927,-6.9316611289978,5.69018268585205,51.2829475402832,-11.92247676849365,19.94638061523438,9.27729034423828,0.48855176568031,2.65155363082886,12.57147026062012,10.90200805664062,-4.73709201812744,0
489,837165185,1.28193998336792,-6.36121988296509,5.9412145614624,11.31019973754883,-11.02731990814209,25.11822319030762,9.0619068145752,0.22826068103313,2.42646503448486,16.20509338378906,6.91385889053345,-3.77729773521423,0
490,837198519,0.67179214954376,-7.05031156539917,5.31851863861084,-15.13466930389404,-18.01420402526855,23.90345191955566,9.72282409667969,0.05671556293964,2.48830842971802,20.85863304138184,6.65226030349731,-3.89523506164551,0
491,837231853,0.29338705539703,-8.40133953094482,4.98376131057739,-4.70044279098511,-42.49197006225586,24.13003158569336,10.30801868438721,0.49734011292458,2.85057878494263,25.1327075958252,15.23330593109131,0.91966074705124,0
492,837265187,0.85583329200745,-8.64376354217529,6.23205089569092,34.57620620727539,-58.65393447875977,29.51721954345703,9.2337818145752,0.86724692583084,3.3718056678772,30.0556697845459,24.03834533691406,9.6934871673584,0
493,837298521,1.13592863082886,-8.06571960449219,7.14797973632812,55.26556396484375,-56.6733512878418,40.70561599731445,9.39582920074463,0.07901145517826,3.09211993217468,40.9284782409668,33.51888275146484,16.19110488891602,0
494,837331855,1.51310670375824,-8.11260890960693,7.2292685508728,44.17356109619141,-47.48595809936523,52.76383972167969,9.41973304748535,-0.61929470300674,3.06901383399963,58.00855255126953,38.82275390625,20.4227237701416,0
495,837365189,1.61485958099365,-8.04312801361084,7.08159255981445,31.99267768859863,-35.71013259887695,60.15610504150391,9.4776029586792,-0.13147795200348,3.12920880317688,69.7745132446289,33.71205520629883,23.43356895446777,0
496,837398523,1.56799030303955,-7.51535749435425,7.16159677505493,27.75309181213379,-21.91814041137695,61.94035720825195,9.38863849639893,0.56445282697678,2.93030142784119,70.22542572021484,29.96667289733887,24.14000511169434,0
497,837431857,1.6100594997406,-6.74220275878906,6.76143884658813,18.78762435913086,-10.16294288635254,58.07983779907227,9.06143665313721,0.7164454460144,2.89732670783997,61.42787551879883,27.79155540466309,26.47171592712402,0
498,837465191,1.5812087059021,-6.3302206993103,6.34169292449951,11.11579608917236,-4.66474199295044,52.32017135620117,8.90469264984131,0.60384631156921,3.0105836391449,50.1241455078125,24.50650978088379,29.88932228088379,0
499,837498525,1.33427405357361,-6.00221347808838,6.14320945739746,5.66147518157959,-4.23511934280396,43.60999298095703,8.90447330474854,0.74373376369476,3.21330618858337,39.26103591918945,17.11459732055664,30.63362121582031,0
500,837531859,1.29254543781281,-5.89074182510376,6.02044820785522,-1.04978370666504,-7.09730529785156,31.27877616882324,9.13376617431641,0.7020828127861,3.23867988586426,29.78912162780762,11.10122680664062,29.35787391662598,0
501,837565193,1.38682425022125,-6.6416163444519,6.34690523147583,6.89754438400269,-10.7736177444458,19.77516746520996,9.11784362792969,0.60546976327896,3.37375617027283,24.93329238891602,7.73874378204346,27.18140983581543,0
502,837598527,1.37481462955475,-6.82437944412231,6.78535938262939,27.95838928222656,-12.95437717437744,13.22012805938721,8.98633193969727,0.70911008119583,3.69264721870422,24.03695487976074,5.95798015594482,24.42380142211914,0
503,837631861,1.2553608417511,-6.42897748947144,6.96530771255493,35.78481292724609,-16.10064315795898,11.72586059570312,9.25778770446777,0.80809319019318,3.78873562812805,22.57790374755859,5.16070079803467,20.23564338684082,0
504,837665195,1.27581191062927,-6.43256282806396,7.57213068008423,27.95295524597168,-18.64979362487793,14.16503047943115,9.39204597473145,0.64286023378372,3.88951253890991,17.02056694030762,7.84143733978271,13.26388645172119,0
505,837698529,1.34971642494202,-6.34203338623047,7.90964841842651,21.8808422088623,-17.73083114624023,14.88604736328125,9.3021821975708,0.41646254062653,4.01192998886108,11.03575229644775,8.57232761383057,8.19799518585205,0
506,837731863,1.19750905036926,-5.87872886657715,7.7603931427002,11.22469615936279,-15.5509033203125,13.72721004486084,9.17940330505371,0.23521244525909,4.0116491317749,12.77355670928955,6.94587993621826,4.63104152679443,0
507,837765197,1.23391163349152,-5.89880323410034,7.59027719497681,1.12299597263336,-11.89100646972656,10.51801109313965,8.93563461303711,0.18196472525597,3.91266345977783,13.1395435333252,4.83677387237549,2.47631311416626,0
508,837798531,1.21714067459106,-5.88571691513062,7.2744140625,-2.54898500442505,-7.18240404129028,4.81834650039673,8.72614097595215,0.2497830092907,3.75582480430603,9.05224323272705,0.4447970688343,1.82045674324036,0
509,837831865,1.11153864860535,-5.70619678497314,6.79856491088867,-7.94025135040283,-4.09130382537842,-2.234534740448,8.73526763916016,0.32104182243347,3.63668513298035,1.10688507556915,-4.08414697647095,1.12838685512543,0
510,837865199,1.02506744861603,-5.87694883346558,6.46395444869995,-14.9673433303833,-4.55186080932617,-8.41236019134521,8.81930446624756,0.30711597204208,3.59747076034546,-8.48792266845703,-9.19763374328613,0.89539629220963,0
511,837898533,0.91538035869598,-6.25815153121948,6.4374942779541,-18.16166305541992,-8.90610694885254,-12.73424434661865,8.99157524108887,0.24459700286388,3.58087396621704,-16.77682113647461,-13.40145587921143,1.05684447288513,0
512,837931867,0.89685350656509,-6.70638704299927,6.77806329727173,-18.31331253051758,-13.81712341308594,-13.91335773468018,9.14334201812744,0.06047001481056,3.72401142120361,-20.2226390838623,-15.95553588867188,0.13627362251282,0
513,837965201,0.65782845020294,-7.15556812286377,7.16726684570312,-17.71408462524414,-20.03744697570801,-9.45511913299561,9.33453464508057,-0.21219047904015,3.97186875343323,-17.04958343505859,-14.73221778869629,0.49976494908333,0
514,837998535,0.53699308633804,-7.86115503311157,7.84680652618408,-15.36790561676025,-22.61149597167969,2.71057295799255,9.51052474975586,-0.54817378520966,4.26997327804565,-5.8290057182312,-11.36496639251709,0.20284663140774,0
515,838031869,0.42154777050018,-8.2369556427002,8.77269649505615,-18.18509864807129,-19.69053649902344,16.51988792419434,9.53076553344727,-1.14103627204895,4.48717641830444,12.56580924987793,-5.34954357147217,1.54067194461823,0
516,838065203,0.51908779144287,-8.47414684295654,9.10033702850342,-27.51277542114258,-8.36246109008789,34.14423751831055,9.42248153686523,-1.44403040409088,4.5035514831543,34.8934440612793,1.87041366100311,6.76359033584595,0
517,838098537,-0.56007379293442,-9.43547821044922,10.22773838043213,-89.62691497802734,10.43971347808838,67.24302673339844,9.71634292602539,-1.5119549036026,4.36180686950684,55.13356018066406,12.70122909545898,16.75061988830566,0
518,838131871,-1.7077556848526,-11.00156784057617,8.96330070495605,-151.66375732421875,22.19199562072754,111.18406677246094,9.80232524871826,-0.73399847745895,4.30643033981323,65.03917694091797,28.94460678100586,27.63425445556641,0
519,838165205,-2.124342918396,-11.76550674438477,7.56237745285034,-164.43748474121094,31.35151863098145,156.26019287109375,9.49980545043945,-0.41925770044327,4.855309009552,55.82032775878906,43.40547943115234,38.79874801635742,0
520,838198539,-3.26770424842834,-11.12981224060059,5.81845569610596,-141.24822998046875,43.19155883789062,174.1261749267578,9.85275459289551,-1.43562936782837,4.61931943893433,34.57455444335938,55.75493621826172,60.35623168945312,0
521,838231873,-2.91044092178345,-9.48254013061523,3.20130777359009,-102.72427368164062,34.63476181030273,170.49044799804688,9.53245830535889,-2.28049969673157,5.05529832839966,43.46384811401367,67.37004089355469,79.04413604736328,0
522,838265207,-2.25999593734741,-8.21949577331543,2.53922057151794,-59.02829360961914,-0.22374318540096,141.17666625976562,9.2307710647583,-0.96302431821823,5.6535325050354,81.02936553955078,77.3261947631836,89.41313171386719,0
523,838298541,-3.16160988807678,-7.0323052406311,1.83597195148468,34.30738830566406,-24.86261177062988,84.43405151367188,9.62170219421387,0.44852721691132,4.74720573425293,82.5977554321289,93.11684417724608,84.75791931152344,0
524,838331875,-3.39286875724792,-5.45175504684448,1.81218862533569,106.43077087402344,-49.36040878295898,50.9340705871582,8.78620529174805,0.6982274055481,5.1601710319519,45.20883560180664,101.93953704833984,64.60746765136719,0
525,838365209,-2.15146803855896,-5.34402942657471,0.85025542974472,101.27355194091795,-73.48648834228516,16.40367889404297,6.85643243789673,-0.07507230341434,5.37708711624146,12.72552490234375,87.08802795410156,42.59072113037109,0
526,838398543,0.23599371314049,-6.84257650375366,2.5189380645752,124.78550720214844,-74.06568145751953,-10.58842372894287,6.50982475280762,-1.78638577461243,5.46639680862427,2.21607184410095,54.26271057128906,39.36950302124023,0
527,838431877,0.11025056242943,-5.03244495391846,4.78554439544678,136.07452392578125,-44.79026031494141,-26.3648509979248,6.73793077468872,-2.85215902328491,4.923180103302,34.16287994384766,27.40748405456543,31.76611137390137,0
528,838465211,0.17762269079685,-4.44393014907837,5.33299589157104,15.10078525543213,-32.07032012939453,-15.67102909088135,6.94473218917847,-1.64516568183899,4.5250301361084,69.93318939208984,-2.05910849571228,25.74736213684082,0
