sep=,
DeviceTag:,D_leg_new
FirmwareVersion:,2.2.1
AppVersion:,2023.6.0
SyncStatus:,Synced
OutputRate:,30Hz
FilterProfile:,General
Measurement Mode:,Sensor fusion Mode - Complete(Quaternion)
StartTime: ,2026-09-07_14:31:32_925 AEST
© Movella Technologies B. V. 2005-2026

PacketCounter,SampleTimeFine,Quat_W,Quat_X,Quat_Y,Quat_Z,FreeAcc_X,FreeAcc_Y,FreeAcc_Z
1,2876392237,0.430157,-0.619626,-0.574607,-0.317579,0.128475,-0.005871,0.156671
2,2876425571,0.429799,-0.619954,-0.574458,-0.317694,0.076992,-0.067247,0.187689
3,2876458905,0.429508,-0.620258,-0.574311,-0.317759,0.041605,-0.013589,0.174374
4,2876492239,0.429328,-0.620437,-0.574263,-0.317739,0.033600,0.058349,0.200778
5,2876525573,0.429093,-0.620661,-0.574135,-0.317851,0.075491,0.047398,0.193270
6,2876558907,0.428735,-0.621047,-0.573900,-0.318005,0.043453,0.048474,0.148304
7,2876592241,0.428397,-0.621352,-0.573814,-0.318020,-0.079924,0.034387,0.165941
8,2876625575,0.428300,-0.621277,-0.573974,-0.318010,-0.118203,0.027441,0.190451
9,2876658909,0.428409,-0.620866,-0.574454,-0.317799,-0.031218,0.001550,0.147888
10,2876692243,0.428474,-0.620489,-0.575039,-0.317389,0.005751,0.003428,0.108639
11,2876725577,0.428453,-0.620155,-0.575663,-0.316938,0.005288,0.026680,0.170618
12,2876758911,0.428516,-0.619700,-0.576257,-0.316662,0.052040,0.053638,0.219697
13,2876792245,0.428669,-0.619199,-0.576838,-0.316379,0.084636,0.039738,0.178316
14,2876825579,0.428776,-0.618817,-0.577313,-0.316112,0.091750,-0.007108,0.156718
15,2876858913,0.428889,-0.618504,-0.577620,-0.316014,0.086583,-0.010628,0.200707
16,2876892247,0.428945,-0.618302,-0.577801,-0.316001,0.121660,0.039250,0.174022
17,2876925581,0.428856,-0.618266,-0.577908,-0.315995,0.115573,0.014554,0.162260
18,2876958915,0.428748,-0.618345,-0.577937,-0.315935,0.024414,0.044127,0.172681
19,2876992249,0.428720,-0.618302,-0.578056,-0.315839,0.006711,0.019213,0.238359
20,2877025583,0.428850,-0.618037,-0.578257,-0.315813,0.050018,-0.001205,0.152554
21,2877058917,0.428984,-0.617811,-0.578400,-0.315813,0.060769,-0.026937,0.154608
22,2877092251,0.428958,-0.617814,-0.578336,-0.315959,0.077374,-0.085701,0.165854
23,2877125585,0.428773,-0.618019,-0.578079,-0.316279,0.072127,-0.105454,0.129686
24,2877158919,0.428606,-0.618238,-0.577901,-0.316403,0.018588,-0.098241,0.144541
25,2877192253,0.428374,-0.618522,-0.577715,-0.316502,-0.047373,-0.060794,0.114874
26,2877225587,0.428101,-0.618846,-0.577583,-0.316479,-0.051601,0.020308,0.167331
27,2877258921,0.427931,-0.618850,-0.577877,-0.316163,-0.115741,0.146071,0.167018
28,2877292255,0.428033,-0.618406,-0.578603,-0.315567,-0.084391,0.245745,0.196103
29,2877325589,0.428432,-0.617574,-0.579573,-0.314872,0.020910,0.163555,0.184555
30,2877358923,0.428678,-0.616865,-0.580484,-0.314249,0.077857,0.075939,0.155100
31,2877392257,0.428805,-0.616315,-0.581253,-0.313732,0.028112,0.049186,0.149617
32,2877425591,0.428978,-0.615661,-0.582201,-0.313022,-0.035961,-0.019173,0.172456
33,2877458925,0.429487,-0.614625,-0.583560,-0.311828,-0.107353,0.007308,0.171247
34,2877492259,0.430198,-0.613293,-0.585100,-0.310582,-0.012717,0.060805,0.201847
35,2877525593,0.430676,-0.612137,-0.586478,-0.309599,0.127502,0.025435,0.164607
36,2877558927,0.431024,-0.611213,-0.587729,-0.308568,0.143356,0.034899,0.150320
37,2877592261,0.431400,-0.610330,-0.588869,-0.307614,0.066504,0.056777,0.149295
38,2877625595,0.432027,-0.609177,-0.590009,-0.306835,-0.024392,0.129741,0.214265
39,2877658929,0.432851,-0.607765,-0.591274,-0.306038,0.005867,0.083738,0.207727
40,2877692263,0.433620,-0.606481,-0.592401,-0.305315,0.169514,-0.045885,0.149228
41,2877725597,0.434104,-0.605545,-0.593287,-0.304764,0.193132,-0.120680,0.183022
42,2877758931,0.434611,-0.604739,-0.594063,-0.304130,0.066843,-0.151848,0.180019
43,2877792265,0.434963,-0.604173,-0.594582,-0.303736,0.061047,-0.186337,0.235398
44,2877825599,0.435200,-0.603765,-0.594901,-0.303584,0.197088,-0.221435,0.183630
45,2877858933,0.435460,-0.603588,-0.594895,-0.303576,0.137231,-0.124197,0.185819
46,2877892267,0.435826,-0.603500,-0.594694,-0.303618,0.024098,-0.029703,0.177040
47,2877925601,0.436194,-0.603315,-0.594561,-0.303719,0.042755,-0.058512,0.174846
48,2877958935,0.436647,-0.602943,-0.594630,-0.303672,0.096522,-0.059476,0.212110
49,2877992269,0.437545,-0.602154,-0.594921,-0.303374,-0.036006,0.086820,0.127965
50,2878025603,0.438643,-0.600942,-0.595834,-0.302397,-0.098285,0.115045,0.170592
51,2878058937,0.439674,-0.599517,-0.597216,-0.301002,-0.052446,0.110127,0.175891
52,2878092271,0.440612,-0.598089,-0.598720,-0.299477,0.031292,0.115449,0.187424
53,2878125605,0.441535,-0.596580,-0.600408,-0.297744,0.061533,0.090636,0.182874
54,2878158939,0.442478,-0.594991,-0.602262,-0.295771,-0.049012,-0.011049,0.052832
55,2878192273,0.443451,-0.593364,-0.604321,-0.293373,-0.148098,-0.062404,0.089709
56,2878225607,0.444483,-0.591507,-0.606694,-0.290653,-0.102861,-0.025329,0.171833
57,2878258941,0.445453,-0.589440,-0.609400,-0.287692,-0.054607,-0.051955,0.149403
58,2878292275,0.446439,-0.587334,-0.612035,-0.284860,-0.000049,0.074608,0.176874
59,2878325609,0.447614,-0.585174,-0.614408,-0.282342,0.177873,0.175798,0.225379
60,2878358943,0.448454,-0.583431,-0.616425,-0.280213,0.203725,0.092982,0.153234
61,2878392277,0.449010,-0.582278,-0.617735,-0.278832,0.145460,0.226864,0.191096
62,2878425611,0.449469,-0.581277,-0.618779,-0.277863,0.062085,0.211121,0.236706
63,2878458945,0.449628,-0.580546,-0.619723,-0.277032,0.060929,0.153820,0.182295
64,2878492279,0.449762,-0.579984,-0.620303,-0.276692,0.131353,0.199586,0.098413
65,2878525613,0.449694,-0.579718,-0.620619,-0.276651,0.244281,0.070250,0.208666
66,2878558947,0.449064,-0.580228,-0.620536,-0.276791,0.242206,-0.101525,0.223467
67,2878592281,0.448438,-0.581239,-0.619642,-0.277687,0.276464,0.013862,0.165822
68,2878625615,0.447822,-0.582531,-0.618147,-0.279301,0.393316,-0.062235,0.234866
69,2878658949,0.446752,-0.584604,-0.616196,-0.280989,0.318987,-0.314198,0.260164
70,2878692283,0.445540,-0.587368,-0.613416,-0.283224,0.263664,-0.231172,0.193772
71,2878725617,0.444271,-0.590412,-0.609955,-0.286345,0.315197,-0.207760,0.172868
72,2878758951,0.442774,-0.593874,-0.606155,-0.289557,0.231487,-0.362289,0.165657
73,2878792285,0.441077,-0.597799,-0.602009,-0.292702,-0.002908,-0.216251,0.148070
74,2878825619,0.439449,-0.601564,-0.597935,-0.295771,-0.100741,0.014892,0.204438
75,2878858953,0.437693,-0.605054,-0.594277,-0.298616,-0.069207,-0.103757,0.216393
76,2878892287,0.436303,-0.608306,-0.590543,-0.301437,-0.070565,0.032443,0.213899
77,2878925621,0.435287,-0.611063,-0.586977,-0.304280,0.036193,0.109893,0.225071
78,2878958955,0.434118,-0.613748,-0.583466,-0.307285,-0.003236,-0.041435,0.170691
79,2878992289,0.433088,-0.616338,-0.579876,-0.310335,-0.086590,-0.042235,0.138122
80,2879025623,0.432259,-0.618616,-0.576474,-0.313282,-0.115375,-0.080681,0.160455
81,2879058957,0.431553,-0.620587,-0.573203,-0.316346,-0.083767,-0.163861,0.151965
82,2879092291,0.431169,-0.622250,-0.570026,-0.319329,-0.079746,-0.161901,0.150647
83,2879125625,0.430714,-0.624002,-0.566864,-0.322141,-0.029504,-0.173611,0.183828
84,2879158959,0.430106,-0.625884,-0.563579,-0.325052,0.089449,-0.173176,0.124753
85,2879192293,0.429568,-0.627908,-0.559784,-0.328400,0.056030,-0.037263,0.170436
86,2879225627,0.429108,-0.629881,-0.556012,-0.331615,0.015223,0.110694,0.312958
87,2879258961,0.428716,-0.631561,-0.552621,-0.334581,0.050510,0.107619,0.192397
88,2879292295,0.428227,-0.633381,-0.549048,-0.337635,0.051878,-0.044955,0.140793
89,2879325629,0.427680,-0.635434,-0.544960,-0.341078,0.082913,0.023849,0.281274
90,2879358963,0.426902,-0.637565,-0.540839,-0.344616,0.106819,-0.119133,0.188732
91,2879392297,0.425882,-0.639989,-0.536517,-0.348124,-0.068885,-0.121173,0.052976
92,2879425631,0.425187,-0.642270,-0.532125,-0.351497,-0.038955,0.033839,0.185371
93,2879458965,0.424316,-0.644517,-0.527742,-0.355026,-0.061907,0.065529,0.204456
94,2879492299,0.423219,-0.646757,-0.523620,-0.358351,-0.149278,0.136569,0.104617
95,2879525633,0.422527,-0.648522,-0.520136,-0.361041,0.006103,0.232052,0.101613
96,2879558967,0.421657,-0.650254,-0.516971,-0.363479,0.031337,0.185555,0.161104
97,2879592301,0.420823,-0.651898,-0.514099,-0.365569,-0.037386,0.222732,0.169004
98,2879625635,0.420288,-0.653187,-0.511491,-0.367537,0.065882,0.273847,0.099072
99,2879658969,0.419788,-0.654340,-0.509156,-0.369296,-0.008694,0.268414,0.019194
100,2879692303,0.419344,-0.655431,-0.507457,-0.370202,-0.186933,0.355998,0.078400
101,2879725637,0.418860,-0.656248,-0.506721,-0.370311,-0.168851,0.440519,0.142192
102,2879758971,0.418672,-0.656420,-0.506736,-0.370199,0.032032,0.342777,0.082834
103,2879792305,0.418777,-0.656296,-0.506919,-0.370049,-0.018390,0.097920,0.111090
104,2879825639,0.418753,-0.656317,-0.507283,-0.369540,-0.008725,0.066679,0.187565
105,2879858973,0.418740,-0.656276,-0.507683,-0.369077,0.156442,0.057142,0.131722
106,2879892307,0.418765,-0.656289,-0.507914,-0.368708,0.116769,-0.042043,0.142877
107,2879925641,0.418453,-0.656765,-0.507983,-0.368120,-0.144161,-0.114765,0.197099
108,2879958975,0.418213,-0.657073,-0.508108,-0.367669,-0.064252,-0.008546,0.217688
109,2879992309,0.418362,-0.656888,-0.508463,-0.367339,0.185787,-0.110909,0.183288
110,2880025643,0.418203,-0.657159,-0.508682,-0.366733,0.026946,-0.308675,0.187514
111,2880058977,0.417850,-0.657704,-0.508577,-0.366303,-0.273673,-0.034773,0.148182
112,2880092311,0.418209,-0.657349,-0.508909,-0.366070,-0.153911,0.193216,0.247126
113,2880125645,0.418840,-0.656462,-0.509934,-0.365514,-0.095459,-0.204011,0.089854
114,2880158979,0.418923,-0.656183,-0.510871,-0.364610,-0.224008,-0.315471,-0.113551
115,2880192313,0.418878,-0.655861,-0.512197,-0.363377,-0.064960,-0.305443,0.197274
116,2880225647,0.419005,-0.655211,-0.513928,-0.361957,0.188995,-0.201464,0.273152
117,2880258981,0.419138,-0.654767,-0.515373,-0.360548,0.214745,0.013538,0.163777
118,2880292315,0.419564,-0.654361,-0.516247,-0.359541,0.305986,0.017940,0.324779
119,2880325649,0.419872,-0.654396,-0.515730,-0.359858,0.463026,-0.059268,0.345954
120,2880358983,0.419370,-0.655563,-0.513748,-0.361151,0.422801,-0.373823,0.115399
121,2880392317,0.418106,-0.657973,-0.510145,-0.363334,0.333254,-0.445486,0.065092
122,2880425651,0.417119,-0.660591,-0.505607,-0.366052,0.033662,-0.234249,0.258671
123,2880458985,0.416531,-0.662882,-0.501338,-0.368443,-0.106526,-0.054201,0.260427
124,2880492319,0.415690,-0.665178,-0.497424,-0.370555,-0.008344,-0.001435,0.175084
125,2880525653,0.415061,-0.667111,-0.493774,-0.372661,0.118819,0.111821,0.260203
126,2880558987,0.414943,-0.668710,-0.489811,-0.375148,0.117625,0.056688,0.238449
127,2880592321,0.415089,-0.670324,-0.485532,-0.377659,0.026555,-0.087474,0.244447
128,2880625655,0.415018,-0.672215,-0.480730,-0.380510,0.056121,-0.084345,0.072527
129,2880658989,0.414749,-0.674347,-0.475530,-0.383553,-0.139993,0.185316,0.101912
130,2880692323,0.414588,-0.676145,-0.471143,-0.385968,-0.137823,0.351350,0.213724
131,2880725657,0.414152,-0.677866,-0.467496,-0.387847,-0.141429,0.252868,0.084043
132,2880758991,0.414140,-0.679093,-0.464663,-0.389116,-0.109566,0.415494,0.096040
133,2880792325,0.414571,-0.679711,-0.462572,-0.390067,-0.139294,0.288435,0.243824
134,2880825659,0.414845,-0.680251,-0.461004,-0.390692,0.028692,0.179629,0.086810
135,2880858993,0.415084,-0.680803,-0.459975,-0.390687,0.059874,0.130840,0.072471
136,2880892327,0.415430,-0.681253,-0.458935,-0.390759,-0.017081,0.130089,0.230124
137,2880925661,0.416098,-0.681434,-0.457877,-0.390975,-0.141715,0.051788,0.263872
138,2880958995,0.416744,-0.681654,-0.456722,-0.391253,-0.009596,0.190510,0.085316
139,2880992329,0.417496,-0.681664,-0.456139,-0.391114,-0.114329,0.193775,0.003712
140,2881025663,0.418159,-0.681573,-0.456871,-0.389707,-0.321065,-0.140571,0.158494
141,2881058997,0.418841,-0.681009,-0.458850,-0.387630,-0.047572,-0.014357,0.004196
142,2881092331,0.419453,-0.680263,-0.461407,-0.385237,-0.095273,0.257461,0.047794
143,2881125665,0.420572,-0.679073,-0.464442,-0.382459,-0.198054,0.567703,0.348109
144,2881158999,0.421797,-0.677448,-0.468171,-0.379434,-0.169034,0.519949,0.205119
145,2881192333,0.423031,-0.675483,-0.472470,-0.376219,-0.039966,0.364448,0.112948
146,2881225667,0.424277,-0.673345,-0.476813,-0.373157,0.038040,0.187131,0.208681
147,2881259001,0.425233,-0.671370,-0.480823,-0.370474,-0.031136,-0.053685,0.190500
148,2881292335,0.426014,-0.669678,-0.484190,-0.368247,0.005219,0.019808,0.125138
149,2881325669,0.426683,-0.668120,-0.487557,-0.365852,0.032339,0.094668,0.145050
150,2881359003,0.426795,-0.666872,-0.490918,-0.363496,0.139484,-0.126749,0.210283
151,2881392337,0.426540,-0.665988,-0.493348,-0.362123,0.093063,0.088865,0.127739
152,2881425671,0.426570,-0.665278,-0.495467,-0.360497,-0.241979,0.299591,0.138336
153,2881459005,0.426506,-0.664107,-0.498748,-0.358199,-0.332431,0.119584,0.222686
154,2881492339,0.426898,-0.662154,-0.502822,-0.355644,-0.306505,0.035916,0.141252
155,2881525673,0.427983,-0.659452,-0.507447,-0.352778,-0.088202,-0.070500,0.133153
156,2881559007,0.428801,-0.656964,-0.512017,-0.349813,0.103899,-0.270685,0.191893
157,2881592341,0.429122,-0.655031,-0.515761,-0.347535,0.194490,-0.267984,0.156794
158,2881625675,0.429536,-0.653513,-0.518572,-0.345696,0.103342,-0.103672,0.143738
159,2881659009,0.429997,-0.652033,-0.521447,-0.343583,0.019869,-0.005842,0.180222
160,2881692343,0.430181,-0.650705,-0.524411,-0.341354,-0.135930,-0.058652,0.177196
161,2881725677,0.430946,-0.648821,-0.527677,-0.338934,0.012914,0.190665,0.264076
162,2881759011,0.431725,-0.646783,-0.530931,-0.336748,0.123009,0.166171,0.230247
163,2881792345,0.432179,-0.645143,-0.533796,-0.334777,0.091568,-0.005902,0.050338
164,2881825679,0.432652,-0.643578,-0.536547,-0.332774,0.114092,-0.076128,0.160734
165,2881859013,0.433228,-0.641974,-0.539284,-0.330693,0.042828,0.018647,0.150646
166,2881892347,0.433747,-0.640397,-0.542300,-0.328128,-0.071232,0.146929,0.171115
167,2881925681,0.434376,-0.638462,-0.545739,-0.325352,-0.065985,0.225903,0.185558
168,2881959015,0.435305,-0.635964,-0.549652,-0.322404,-0.033787,0.287397,0.222267
169,2881992349,0.436128,-0.633365,-0.553909,-0.319105,-0.066112,0.161947,0.173209
170,2882025683,0.436704,-0.630928,-0.558176,-0.315690,-0.100865,-0.006865,0.153688
171,2882059017,0.437208,-0.628452,-0.562388,-0.312440,-0.080237,-0.134368,0.055235
172,2882092351,0.437809,-0.625916,-0.566485,-0.309271,-0.149601,-0.211583,0.066016
173,2882125685,0.438948,-0.622845,-0.571020,-0.305493,-0.191228,-0.092630,0.129945
174,2882159019,0.440287,-0.619270,-0.576141,-0.301188,-0.319443,0.071024,0.151047
175,2882192353,0.441848,-0.615074,-0.581833,-0.296524,-0.145744,0.059370,0.227205
176,2882225687,0.443457,-0.610665,-0.587412,-0.292202,0.155373,0.009129,0.153275
177,2882259021,0.444875,-0.606669,-0.592428,-0.288218,0.435916,-0.175129,0.124811
178,2882292355,0.445970,-0.603415,-0.596556,-0.284824,0.338100,-0.121939,0.294086
179,2882325689,0.447351,-0.600121,-0.600212,-0.281922,0.103951,0.128002,0.339417
180,2882359023,0.448999,-0.596541,-0.603802,-0.279219,0.102514,0.090068,0.102774
181,2882392357,0.449884,-0.593791,-0.606892,-0.276948,0.214994,-0.196269,0.129118
182,2882425691,0.450451,-0.591568,-0.609539,-0.274964,0.011158,-0.176347,0.215125
183,2882459025,0.451289,-0.589127,-0.612292,-0.272707,0.035130,-0.169897,0.161539
184,2882492359,0.452239,-0.586617,-0.614935,-0.270587,0.023004,-0.100662,0.128118
185,2882525693,0.452843,-0.584515,-0.617278,-0.268783,0.120511,-0.146703,0.233254
186,2882559027,0.452895,-0.583078,-0.619221,-0.267345,0.116050,-0.098745,0.266081
187,2882592361,0.453126,-0.581824,-0.620690,-0.266278,0.183962,0.037334,0.250109
188,2882625695,0.453745,-0.580409,-0.621678,-0.266006,0.227445,0.165930,0.216099
189,2882659029,0.454064,-0.579329,-0.622290,-0.266386,0.125981,-0.071876,0.150585
190,2882692363,0.453909,-0.578921,-0.622696,-0.266588,-0.113401,-0.224369,0.072699
191,2882725697,0.453611,-0.578522,-0.623460,-0.266175,-0.281275,-0.182784,0.163339
192,2882759031,0.453521,-0.577346,-0.624936,-0.265418,-0.183055,-0.003370,0.179572
193,2882792365,0.453995,-0.575471,-0.626778,-0.264335,-0.167418,0.260398,0.179294
194,2882825699,0.454294,-0.573527,-0.628849,-0.263126,0.061146,0.322668,0.240246
195,2882859033,0.454121,-0.571959,-0.630786,-0.262198,0.266471,0.233573,0.097553
196,2882892367,0.453927,-0.570584,-0.632447,-0.261527,0.178305,0.046310,0.057669
197,2882925701,0.453879,-0.569166,-0.633961,-0.261036,0.052755,-0.014490,0.177508
198,2882959035,0.453483,-0.568016,-0.635471,-0.260554,0.010792,0.032283,0.189568
199,2882992369,0.452507,-0.567364,-0.637064,-0.259782,0.183117,0.044258,0.169549
200,2883025703,0.451119,-0.567365,-0.638166,-0.259487,0.330721,-0.039757,0.193049
201,2883059037,0.449698,-0.567937,-0.638401,-0.260126,0.442947,-0.011202,0.219082
202,2883092371,0.448364,-0.568941,-0.637876,-0.261519,0.366789,-0.007546,0.162645
203,2883125705,0.446646,-0.570724,-0.636801,-0.263187,0.296142,-0.157240,0.188724
204,2883159039,0.444953,-0.572769,-0.635287,-0.265264,0.182421,-0.128187,0.288393
205,2883192373,0.443630,-0.574577,-0.633546,-0.267722,0.198399,-0.010274,0.216794
206,2883225707,0.442199,-0.576542,-0.631691,-0.270237,0.171249,-0.047709,0.175065
207,2883259041,0.440560,-0.578810,-0.629652,-0.272812,0.144441,-0.158044,0.180507
208,2883292375,0.439053,-0.581042,-0.627421,-0.275622,0.048110,-0.142682,0.175194
209,2883325709,0.437592,-0.583194,-0.625182,-0.278473,0.057771,-0.138156,0.217655
210,2883359043,0.436022,-0.585542,-0.622797,-0.281337,0.166889,-0.220110,0.097557
211,2883392377,0.434111,-0.588452,-0.620061,-0.284251,0.087265,-0.209244,0.180501
212,2883425711,0.432016,-0.591569,-0.617129,-0.287336,0.099815,-0.106110,0.287558
213,2883459045,0.429933,-0.594812,-0.613805,-0.290863,0.203773,-0.055779,0.130792
214,2883492379,0.427641,-0.598516,-0.610017,-0.294590,0.166413,-0.035459,0.153631
215,2883525713,0.425190,-0.602335,-0.606203,-0.298204,0.106717,-0.181316,0.212837
216,2883559047,0.422891,-0.605993,-0.602375,-0.301797,0.002956,-0.133984,0.185102
217,2883592381,0.421024,-0.609254,-0.598554,-0.305424,-0.073408,0.029329,0.124751
218,2883625715,0.419454,-0.612071,-0.595121,-0.308642,0.008166,-0.006590,0.187737
219,2883659049,0.417910,-0.614724,-0.591993,-0.311467,0.060160,-0.062447,0.166106
220,2883692383,0.416363,-0.617424,-0.588645,-0.314529,-0.032989,0.061225,0.186262
221,2883725717,0.415020,-0.619790,-0.585542,-0.317429,-0.063502,0.111272,0.228091
222,2883759051,0.413932,-0.621740,-0.582902,-0.319886,-0.105452,0.058918,0.116751
223,2883792385,0.413102,-0.623231,-0.580616,-0.322205,-0.083366,0.152555,0.209241
224,2883825719,0.412581,-0.624187,-0.578685,-0.324489,0.100325,0.076574,0.180752
225,2883859053,0.411948,-0.625366,-0.576697,-0.326558,0.093032,-0.066425,0.132316
226,2883892387,0.411088,-0.627007,-0.574048,-0.329149,0.110490,0.233086,0.227796
227,2883925721,0.410345,-0.628285,-0.571576,-0.331931,0.052669,0.176261,0.184511
228,2883959055,0.409633,-0.629470,-0.569443,-0.334224,-0.104643,0.004277,0.067100
229,2883992389,0.409115,-0.630543,-0.567468,-0.336188,-0.178174,0.145036,0.141028
230,2884025723,0.408708,-0.631193,-0.565936,-0.338040,-0.053889,0.015274,0.230519
231,2884059057,0.408336,-0.631677,-0.564849,-0.339402,0.021174,-0.164385,0.056894
232,2884092391,0.407960,-0.632360,-0.563604,-0.340650,-0.053648,-0.062467,0.034692
233,2884125725,0.407348,-0.633251,-0.562096,-0.342216,-0.060995,0.042625,0.191179
234,2884159059,0.406680,-0.634079,-0.560857,-0.343507,0.005486,0.035541,0.353923
235,2884192393,0.405885,-0.634994,-0.559666,-0.344697,0.023151,0.126358,0.165731
236,2884225727,0.405331,-0.635595,-0.558652,-0.345884,0.147214,0.138042,0.185455
237,2884259061,0.404990,-0.636065,-0.557441,-0.347370,0.027927,-0.026413,0.222256
238,2884292395,0.404258,-0.636902,-0.556050,-0.348915,0.048990,-0.133752,0.130360
239,2884325729,0.403412,-0.637899,-0.554576,-0.350414,0.010050,-0.075171,0.059786
240,2884359063,0.402861,-0.638627,-0.553371,-0.351626,-0.045604,-0.039183,0.160640
241,2884392397,0.402491,-0.639167,-0.552545,-0.352367,-0.129237,-0.099814,0.196166
242,2884425731,0.401819,-0.639920,-0.551787,-0.352954,-0.025722,0.028301,0.150849
243,2884459065,0.401357,-0.640436,-0.551164,-0.353516,0.037572,0.126719,0.145272
244,2884492399,0.401066,-0.640746,-0.550582,-0.354191,0.076743,0.005797,0.276208
245,2884525733,0.400835,-0.640998,-0.549985,-0.354925,0.016270,-0.088723,0.216166
246,2884559067,0.400603,-0.641282,-0.549228,-0.355843,-0.010302,-0.055224,0.111501
247,2884592401,0.400429,-0.641521,-0.548522,-0.356698,-0.072817,-0.046042,0.210391
248,2884625735,0.400193,-0.641799,-0.548021,-0.357231,-0.008376,-0.055085,0.154846
249,2884659069,0.399836,-0.642203,-0.547531,-0.357657,0.029002,0.073270,0.083186
250,2884692403,0.399646,-0.642472,-0.547019,-0.358169,-0.026929,0.128676,0.191442
251,2884725737,0.399553,-0.642554,-0.546791,-0.358474,-0.002399,0.065093,0.244626
252,2884759071,0.399679,-0.642465,-0.546827,-0.358438,0.008179,0.078777,0.156694
253,2884792405,0.399647,-0.642493,-0.546656,-0.358684,0.019051,0.099536,0.080139
254,2884825739,0.399609,-0.642424,-0.546679,-0.358814,-0.025575,-0.009294,0.190941
255,2884859073,0.399606,-0.642279,-0.547148,-0.358362,0.023367,-0.080245,0.177548
256,2884892407,0.399813,-0.642102,-0.547602,-0.357756,0.091073,0.028514,0.129491
257,2884925741,0.399988,-0.641951,-0.547780,-0.357558,0.063956,0.120485,0.229421
258,2884959075,0.399989,-0.641934,-0.547978,-0.357285,0.117758,-0.028349,0.239103
259,2884992409,0.399966,-0.642020,-0.548152,-0.356888,0.076956,-0.085230,0.097883
260,2885025743,0.400092,-0.642118,-0.548082,-0.356678,-0.034127,-0.022862,0.081786
261,2885059077,0.400207,-0.642166,-0.548054,-0.356506,-0.024725,-0.077936,0.253860
262,2885092411,0.400110,-0.642376,-0.548121,-0.356134,0.037109,-0.094830,0.162700
263,2885125745,0.400089,-0.642677,-0.548030,-0.355751,-0.033613,0.080711,0.142694
264,2885159079,0.400329,-0.642746,-0.547857,-0.355625,0.092322,0.142752,0.215744
265,2885192413,0.400328,-0.642923,-0.547664,-0.355604,0.079826,0.002651,0.225546
266,2885225747,0.399965,-0.643447,-0.547368,-0.355519,-0.001294,-0.022930,0.090095
267,2885259081,0.399829,-0.643768,-0.547074,-0.355544,-0.236998,0.116750,0.176858
268,2885292415,0.400106,-0.643416,-0.547573,-0.355102,-0.147803,-0.029643,0.181597
269,2885325749,0.400195,-0.643102,-0.548273,-0.354489,-0.186430,-0.114475,0.125263
270,2885359083,0.400472,-0.642561,-0.549034,-0.353978,-0.062671,0.022128,0.234819
271,2885392417,0.401155,-0.641492,-0.550160,-0.353396,0.194039,-0.119989,0.292430
272,2885425751,0.401389,-0.641076,-0.550670,-0.353090,0.112729,-0.222419,0.246264
273,2885459085,0.401269,-0.641234,-0.550322,-0.353481,-0.057858,-0.027356,0.147665
274,2885492419,0.401346,-0.641104,-0.550119,-0.353946,-0.000128,-0.080126,0.208031
275,2885525753,0.401366,-0.641016,-0.549985,-0.354292,-0.026818,-0.115819,0.095747
276,2885559087,0.401161,-0.641191,-0.549601,-0.354801,-0.035202,-0.104178,0.145121
277,2885592421,0.401006,-0.641311,-0.549237,-0.355324,-0.024896,-0.109554,0.296543
278,2885625755,0.400799,-0.641530,-0.548679,-0.356023,-0.020219,-0.037960,0.214922
279,2885659089,0.400503,-0.641736,-0.548076,-0.356912,0.073660,0.049962,0.205670
280,2885692423,0.400340,-0.641821,-0.547374,-0.358018,0.139050,-0.112487,0.301188
281,2885725757,0.400136,-0.642200,-0.546066,-0.359561,0.017263,-0.204185,0.236123
282,2885759091,0.399883,-0.642758,-0.544382,-0.361394,0.021772,-0.108067,0.199857
283,2885792425,0.399379,-0.643422,-0.542594,-0.363452,0.076870,-0.212557,0.202993
284,2885825759,0.398756,-0.644271,-0.540621,-0.365568,-0.097322,-0.231117,0.153509
285,2885859093,0.398238,-0.645293,-0.538318,-0.367721,-0.147383,-0.110457,0.154934
286,2885892427,0.397880,-0.646029,-0.536074,-0.370087,-0.017501,-0.020417,0.173094
287,2885925761,0.397411,-0.646597,-0.534120,-0.372417,-0.067326,-0.032861,0.213056
288,2885959095,0.397090,-0.647125,-0.532301,-0.374442,-0.095202,-0.070526,0.283814
289,2885992429,0.396647,-0.647776,-0.530078,-0.376931,-0.048904,0.025448,0.119500
290,2886025763,0.395908,-0.648635,-0.527524,-0.379802,-0.035160,-0.035476,0.025400
291,2886059097,0.395127,-0.649538,-0.525073,-0.382460,-0.071322,0.040398,0.237486
292,2886092431,0.394474,-0.650181,-0.522859,-0.385065,-0.093966,0.076746,0.137237
293,2886125765,0.393798,-0.650814,-0.520584,-0.387761,-0.132086,0.051583,0.024641
294,2886159099,0.393117,-0.651440,-0.518614,-0.390033,-0.071526,-0.006563,0.222905
295,2886192433,0.392184,-0.652072,-0.516759,-0.392373,-0.054928,0.111345,0.198730
296,2886225767,0.391649,-0.652261,-0.515311,-0.394491,0.044700,0.248596,0.160316
297,2886259101,0.391230,-0.652375,-0.513855,-0.396611,0.113393,0.103191,0.167337
298,2886292435,0.390465,-0.652975,-0.512105,-0.398636,0.225470,-0.019231,0.235048
299,2886325769,0.389374,-0.654007,-0.509746,-0.401029,0.120113,0.101707,0.089727
300,2886359103,0.388456,-0.654975,-0.507234,-0.403516,-0.011770,0.180587,0.027458
301,2886392437,0.387620,-0.655896,-0.505103,-0.405491,0.036579,0.097645,0.180711
302,2886425771,0.386389,-0.657061,-0.502923,-0.407485,0.055584,0.284166,0.026737
303,2886459105,0.385421,-0.657992,-0.500954,-0.409320,0.044223,0.433337,-0.099216
304,2886492439,0.384995,-0.658453,-0.499721,-0.410486,-0.112731,0.256923,0.272433
305,2886525773,0.384648,-0.658834,-0.499169,-0.410872,-0.110172,0.226957,0.400330
306,2886559107,0.384254,-0.658913,-0.499236,-0.411033,0.055699,0.378998,0.171201
307,2886592441,0.384624,-0.658152,-0.500287,-0.410628,0.132924,0.107893,0.173852
308,2886625775,0.385303,-0.657159,-0.501634,-0.409937,0.114914,-0.264151,0.215770
309,2886659109,0.385387,-0.656879,-0.502435,-0.409325,-0.023795,-0.096933,-0.067029
310,2886692443,0.385357,-0.656978,-0.502865,-0.408666,-0.001355,0.244262,-0.023308
311,2886725777,0.385918,-0.656590,-0.503953,-0.407419,-0.027723,0.232526,0.448205
312,2886759111,0.386599,-0.655691,-0.505760,-0.405979,-0.015329,0.200972,0.320784
313,2886792445,0.387547,-0.654473,-0.507806,-0.404485,-0.025881,0.283716,0.009989
314,2886825779,0.388774,-0.653072,-0.510086,-0.402699,0.045358,0.177138,0.146369
315,2886859113,0.389873,-0.651806,-0.512630,-0.400450,-0.120647,0.191088,0.095422
316,2886892447,0.390958,-0.650402,-0.515530,-0.397945,-0.054003,0.245360,0.103555
317,2886925781,0.392445,-0.648367,-0.518984,-0.395302,-0.077311,0.201881,0.072077
318,2886959115,0.394187,-0.646181,-0.523018,-0.391817,-0.106750,-0.028480,0.321181
319,2886992449,0.395721,-0.644068,-0.526884,-0.388557,0.043920,-0.042766,0.092916
320,2887025783,0.397063,-0.642115,-0.530244,-0.385839,0.237238,-0.046052,-0.068947
321,2887059117,0.398332,-0.640439,-0.533134,-0.383326,0.187514,0.013054,0.130885
322,2887092451,0.399120,-0.639280,-0.535712,-0.380838,0.038168,-0.184611,0.178110
323,2887125785,0.399304,-0.638721,-0.538446,-0.377718,-0.173931,-0.340717,0.277688
324,2887159119,0.400164,-0.637517,-0.541333,-0.374702,-0.216520,-0.108550,0.018173
325,2887192453,0.401694,-0.635542,-0.544812,-0.371362,-0.201856,-0.142805,0.200356
326,2887225787,0.403004,-0.633493,-0.549103,-0.367100,-0.127595,-0.337351,0.299904
327,2887259121,0.403859,-0.631967,-0.553015,-0.362896,-0.002803,-0.187322,-0.112303
328,2887292455,0.404533,-0.630921,-0.556142,-0.359165,0.160387,-0.000954,0.095842
329,2887325789,0.405266,-0.629864,-0.558883,-0.355924,0.121534,-0.048681,0.151964
330,2887359123,0.405892,-0.629053,-0.561278,-0.352864,0.003302,-0.127572,0.322581
331,2887392457,0.406309,-0.628506,-0.563271,-0.350172,-0.031368,-0.104834,0.295997
332,2887425791,0.407301,-0.627392,-0.565681,-0.347120,0.089091,-0.063178,0.265301
333,2887459125,0.408350,-0.625948,-0.568507,-0.343863,0.062282,-0.030283,0.180889
334,2887492459,0.409644,-0.624234,-0.571462,-0.340524,-0.031661,-0.084257,0.194901
335,2887525793,0.411046,-0.622444,-0.574485,-0.337008,-0.056144,0.123004,0.213275
336,2887559127,0.412256,-0.620931,-0.577128,-0.333789,0.075448,0.258149,-0.043764
337,2887592461,0.413177,-0.619863,-0.579395,-0.330694,0.167679,-0.087733,0.254896
338,2887625795,0.414311,-0.618621,-0.581500,-0.327892,0.203188,0.032401,0.408182
339,2887659129,0.415712,-0.617026,-0.583782,-0.325058,-0.093352,0.252292,0.114000
340,2887692463,0.416789,-0.615517,-0.586342,-0.321916,-0.049932,0.028257,0.202007
341,2887725797,0.418117,-0.613783,-0.588863,-0.318890,0.001287,-0.215334,0.177126
342,2887759131,0.419667,-0.611946,-0.591154,-0.316135,0.092238,-0.160646,0.096574
343,2887792465,0.420914,-0.610397,-0.593309,-0.313422,0.131887,-0.128101,0.254026
344,2887825799,0.421780,-0.609364,-0.595089,-0.310882,0.196978,-0.202974,0.196333
345,2887859133,0.422634,-0.608620,-0.596329,-0.308800,0.092896,-0.046353,0.217092
346,2887892467,0.423647,-0.607720,-0.597528,-0.306859,-0.085216,0.177335,0.294888
347,2887925801,0.424573,-0.606519,-0.599256,-0.304575,-0.070751,0.092609,0.229131
348,2887959135,0.425739,-0.605082,-0.601014,-0.302334,0.102429,-0.083753,0.199184
349,2887992469,0.427241,-0.603523,-0.602315,-0.300738,0.190673,-0.148356,0.180356
350,2888025803,0.428521,-0.602317,-0.603277,-0.299403,0.054536,-0.011244,0.243949
351,2888059137,0.429342,-0.601583,-0.603956,-0.298333,0.015182,0.129388,0.217269
352,2888092471,0.430461,-0.600674,-0.604558,-0.297330,0.107946,0.040393,0.343040
353,2888125805,0.431601,-0.599846,-0.604720,-0.297019,0.063787,-0.112502,0.295129
354,2888159139,0.432707,-0.599176,-0.604666,-0.296875,0.044237,-0.232182,0.076777
355,2888192473,0.433642,-0.598822,-0.604401,-0.296763,0.086146,-0.289224,-0.022798
356,2888225807,0.434736,-0.598397,-0.604312,-0.296201,-0.007581,-0.171050,0.162055
357,2888259141,0.435761,-0.597891,-0.604476,-0.295381,-0.168890,0.128163,0.185194
358,2888292475,0.436351,-0.597598,-0.604835,-0.294366,-0.057504,0.286127,0.202372
359,2888325809,0.436666,-0.597494,-0.605144,-0.293473,0.275362,0.156926,0.107751
360,2888359143,0.437068,-0.597474,-0.605104,-0.292999,0.260213,-0.020445,0.072880
361,2888392477,0.437623,-0.597427,-0.604901,-0.292682,0.027429,-0.078715,0.074775
362,2888425811,0.437943,-0.597607,-0.604730,-0.292192,-0.057942,-0.124084,0.182785
363,2888459145,0.437978,-0.597972,-0.604712,-0.291428,-0.101207,-0.141161,0.139808
364,2888492479,0.438285,-0.597907,-0.605114,-0.290264,-0.172392,-0.000824,0.239611
365,2888525813,0.439115,-0.597016,-0.606016,-0.288958,-0.011801,0.003360,0.237500
366,2888559147,0.439914,-0.596304,-0.606514,-0.288166,0.281823,-0.051240,0.309433
367,2888592481,0.440607,-0.596119,-0.606227,-0.288094,0.263691,0.077118,0.178619
368,2888625815,0.440940,-0.596488,-0.605391,-0.288579,0.112261,-0.115033,0.122490
369,2888659149,0.441150,-0.597074,-0.604370,-0.289186,-0.044597,-0.079022,0.186907
370,2888692483,0.441423,-0.597437,-0.603571,-0.289688,-0.163675,0.125842,0.178704
371,2888725817,0.441736,-0.597497,-0.603181,-0.289899,-0.137111,0.147250,0.131396
372,2888759151,0.441987,-0.597401,-0.603177,-0.289721,-0.097532,0.215881,0.111255
373,2888792485,0.442323,-0.597154,-0.603413,-0.289228,0.047504,0.291494,0.220280
374,2888825819,0.442543,-0.596805,-0.603801,-0.288800,0.091353,0.257642,0.178440
375,2888859153,0.442658,-0.596554,-0.604071,-0.288578,-0.036914,0.126104,0.080256
376,2888892487,0.442732,-0.596408,-0.604225,-0.288444,0.059112,0.009130,0.238423
377,2888925821,0.442505,-0.596494,-0.604337,-0.288381,0.079651,-0.022360,0.151092
378,2888959155,0.442228,-0.596724,-0.604427,-0.288140,0.024472,0.035239,0.199711
379,2888992489,0.442010,-0.596938,-0.604401,-0.288086,0.107015,0.047688,0.184801
380,2889025823,0.441514,-0.597492,-0.604220,-0.288078,0.253200,-0.067725,0.281562
381,2889059157,0.440798,-0.598497,-0.603539,-0.288514,0.228202,-0.069221,0.064980
382,2889092491,0.440063,-0.599774,-0.602443,-0.289274,0.176786,-0.148857,0.266194
383,2889125825,0.439438,-0.601157,-0.600953,-0.290451,0.191491,-0.290700,0.129190
384,2889159159,0.438552,-0.603003,-0.598964,-0.292068,0.193336,-0.494377,0.184720
385,2889192493,0.437550,-0.605163,-0.596636,-0.293862,-0.042229,-0.486540,0.219070
386,2889225827,0.436347,-0.607635,-0.593870,-0.296142,-0.124069,-0.278620,0.132284
387,2889259161,0.435321,-0.609791,-0.591123,-0.298708,-0.079425,-0.172104,0.339520
388,2889292495,0.434384,-0.611902,-0.587973,-0.301953,-0.077898,-0.234864,0.151479
389,2889325829,0.433332,-0.614258,-0.584558,-0.305292,-0.066774,-0.331784,0.241832
390,2889359163,0.432010,-0.616788,-0.580808,-0.309197,-0.039379,-0.322703,0.007407
391,2889392497,0.430850,-0.619196,-0.576824,-0.313431,-0.074194,-0.071450,0.190374
392,2889425831,0.430056,-0.621305,-0.572870,-0.317577,-0.173427,0.212716,0.200946
393,2889459165,0.428883,-0.623499,-0.569420,-0.321046,-0.062833,0.186242,0.210219
394,2889492499,0.427534,-0.625559,-0.566328,-0.324291,0.102202,0.159431,0.230075
395,2889525833,0.426965,-0.626952,-0.563393,-0.327448,0.219107,0.139665,0.283035
396,2889559167,0.426730,-0.628124,-0.560413,-0.330606,0.184116,0.118128,0.199437
397,2889592501,0.426012,-0.629841,-0.557190,-0.333700,0.156606,0.060533,0.143826
398,2889625835,0.424884,-0.631984,-0.553750,-0.336797,0.065273,0.088884,0.124242
399,2889659169,0.424074,-0.633859,-0.550390,-0.339788,-0.033514,0.162353,0.162999
400,2889692503,0.423625,-0.635194,-0.547474,-0.342555,-0.102022,0.189626,0.222862
401,2889725837,0.423384,-0.636032,-0.545401,-0.344600,-0.013040,0.088123,0.167065
402,2889759171,0.423136,-0.636803,-0.543680,-0.346197,0.037096,-0.039537,0.118412
403,2889792505,0.422843,-0.637731,-0.541672,-0.347989,-0.001590,0.021809,0.225677
404,2889825839,0.422687,-0.638552,-0.539596,-0.349892,0.058683,0.095499,0.165648
405,2889859173,0.422413,-0.639470,-0.537422,-0.351889,-0.008418,0.064576,0.166005
406,2889892507,0.422289,-0.640339,-0.535264,-0.353740,-0.004023,0.052011,0.173573
407,2889925841,0.422451,-0.640973,-0.533243,-0.355446,0.009901,0.110472,0.236132
408,2889959175,0.422563,-0.641471,-0.531290,-0.357334,0.073809,0.054458,0.148148
409,2889992509,0.422645,-0.642013,-0.529320,-0.359182,0.006609,0.007379,0.136956
410,2890025843,0.422884,-0.642413,-0.527713,-0.360551,0.087136,-0.113151,0.172968
411,2890059177,0.422755,-0.643131,-0.526029,-0.361878,0.096526,-0.155408,0.079447
412,2890092511,0.422571,-0.644073,-0.523942,-0.363442,0.168221,-0.040975,0.083615
413,2890125845,0.422453,-0.645102,-0.521917,-0.364666,0.139428,-0.000264,0.219840
414,2890159179,0.422033,-0.646411,-0.519903,-0.365710,-0.018809,-0.008771,0.082024
415,2890192513,0.421762,-0.647603,-0.517775,-0.366929,-0.152192,0.226553,-0.028715
416,2890225847,0.422062,-0.647937,-0.516792,-0.367382,-0.171507,0.442996,0.154548
417,2890259181,0.422193,-0.648021,-0.516999,-0.366790,-0.132676,0.263453,0.259749
418,2890292515,0.422112,-0.648096,-0.517101,-0.366608,0.085991,0.135021,0.045226
419,2890325849,0.422430,-0.647980,-0.517018,-0.366565,0.108450,-0.025912,0.118128
420,2890359183,0.422363,-0.648339,-0.517033,-0.365983,-0.090071,-0.257228,0.143214
421,2890392517,0.422105,-0.648780,-0.517133,-0.365359,-0.114726,-0.193630,0.077978
422,2890425851,0.422465,-0.648683,-0.517373,-0.364776,-0.005660,0.122552,0.325232
423,2890459185,0.423023,-0.648252,-0.517965,-0.364052,0.108530,0.125328,0.314573
424,2890492519,0.423050,-0.648239,-0.518320,-0.363539,0.030752,-0.079120,0.098985
425,2890525853,0.423368,-0.648137,-0.518520,-0.363065,-0.065870,0.022752,0.141094
426,2890559187,0.423862,-0.647684,-0.519033,-0.362563,-0.107691,0.018111,0.216869
427,2890592521,0.424151,-0.647349,-0.519624,-0.361977,-0.205834,-0.025877,0.102129
428,2890625855,0.424755,-0.646750,-0.520398,-0.361228,-0.076770,0.004605,0.215580
429,2890659189,0.425381,-0.645907,-0.521443,-0.360492,-0.060740,-0.141554,0.177727
430,2890692523,0.425717,-0.645351,-0.522300,-0.359847,-0.057807,-0.223933,0.084817
431,2890725857,0.426314,-0.644685,-0.522916,-0.359441,-0.014194,-0.064235,0.243793
432,2890759191,0.426920,-0.643904,-0.523614,-0.359105,-0.013529,0.019876,0.223915
433,2890792525,0.427341,-0.643332,-0.524277,-0.358664,0.074051,0.003000,0.120603
434,2890825859,0.427523,-0.643042,-0.524583,-0.358518,0.074245,0.051943,0.146847
435,2890859193,0.427448,-0.643019,-0.524837,-0.358277,-0.031070,-0.058442,0.054007
436,2890892527,0.427154,-0.643273,-0.525205,-0.357632,-0.107686,-0.135223,0.067636
437,2890925861,0.426853,-0.643399,-0.526011,-0.356578,-0.055702,-0.117013,0.225579
438,2890959195,0.426465,-0.643372,-0.527241,-0.355273,0.099896,-0.138035,0.175331
439,2890992529,0.425849,-0.643763,-0.528022,-0.354141,0.212875,-0.030198,0.152975
440,2891025863,0.425432,-0.644160,-0.528587,-0.353077,0.010415,0.411199,0.223294
441,2891059197,0.425612,-0.643839,-0.529467,-0.352126,-0.094434,0.624232,0.334916
442,2891092531,0.425879,-0.643055,-0.530696,-0.351385,0.006562,0.332306,0.176395
443,2891125865,0.425948,-0.642504,-0.531834,-0.350589,0.102261,-0.023800,0.105845
444,2891159199,0.425743,-0.642359,-0.532431,-0.350196,0.053434,-0.216125,0.188135
445,2891192533,0.425745,-0.642133,-0.532853,-0.349966,-0.042846,-0.188760,0.176392
446,2891225867,0.426218,-0.641516,-0.533374,-0.349726,0.014984,-0.124016,0.184533
447,2891259201,0.426806,-0.640861,-0.533829,-0.349517,0.113571,-0.181786,0.164221
448,2891292535,0.426852,-0.640959,-0.533812,-0.349307,0.040282,-0.213451,0.143472
449,2891325869,0.426600,-0.641387,-0.533281,-0.349642,0.074668,-0.125851,0.224530
450,2891359203,0.426608,-0.641648,-0.532489,-0.350357,0.130552,-0.013268,0.280169
451,2891392537,0.426583,-0.642075,-0.531528,-0.351065,0.123046,-0.061971,0.189384
452,2891425871,0.426401,-0.642797,-0.530122,-0.352088,0.092443,-0.125105,0.203429
453,2891459205,0.426314,-0.643512,-0.528563,-0.353231,0.042509,-0.121658,0.194584
454,2891492539,0.426290,-0.644146,-0.526967,-0.354486,0.002699,-0.080492,0.184687
455,2891525873,0.426046,-0.644937,-0.525129,-0.356065,-0.011472,0.030507,0.231212
456,2891559207,0.425892,-0.645794,-0.523047,-0.357757,0.120190,-0.063943,0.161814
457,2891592541,0.425646,-0.646909,-0.520503,-0.359740,0.192180,-0.173935,0.126539
458,2891625875,0.425150,-0.648474,-0.517430,-0.361934,0.057503,-0.100451,0.215819
459,2891659209,0.424680,-0.649993,-0.514334,-0.364168,0.030720,-0.089633,0.160658
460,2891692543,0.424121,-0.651688,-0.511153,-0.366264,-0.055070,-0.096291,0.149073
461,2891725877,0.423735,-0.653307,-0.507885,-0.368366,0.068274,-0.080984,0.204611
462,2891759211,0.423396,-0.654812,-0.504616,-0.370569,0.185087,-0.050277,0.137080
463,2891792545,0.422966,-0.656494,-0.501233,-0.372670,0.080066,0.059427,0.121762
464,2891825879,0.422514,-0.658287,-0.498021,-0.374323,-0.003389,0.057774,0.157831
465,2891859213,0.421970,-0.660037,-0.494989,-0.375873,-0.067656,-0.076548,0.128403
466,2891892547,0.421628,-0.661469,-0.492026,-0.377625,-0.002992,0.069797,0.202710
467,2891925881,0.421538,-0.662697,-0.489181,-0.379265,0.095932,0.119823,0.199025
468,2891959215,0.421256,-0.664163,-0.486183,-0.380867,0.010564,-0.022052,0.125685
469,2891992549,0.420716,-0.666002,-0.482851,-0.382488,-0.057137,0.047950,0.135875
470,2892025883,0.420488,-0.667431,-0.479958,-0.383884,-0.017056,0.127010,0.148880
471,2892059217,0.420451,-0.668532,-0.477590,-0.384962,-0.071414,0.098817,0.165015
472,2892092551,0.420577,-0.669393,-0.475936,-0.385375,-0.085073,-0.002380,0.154976
473,2892125885,0.420679,-0.670186,-0.474489,-0.385670,-0.026614,-0.026431,0.162194
474,2892159219,0.420905,-0.670704,-0.473329,-0.385948,0.015116,0.194932,0.134850
475,2892192553,0.421125,-0.671228,-0.472198,-0.386183,-0.008156,0.118455,0.223623
476,2892225887,0.421224,-0.671847,-0.470971,-0.386498,-0.026421,-0.087866,0.153332
477,2892259221,0.421319,-0.672573,-0.469348,-0.387105,-0.151193,-0.056248,0.135538
478,2892292555,0.421610,-0.672988,-0.468007,-0.387689,-0.194705,0.107632,0.093434
479,2892325889,0.422080,-0.673065,-0.467466,-0.387698,-0.233101,0.102840,0.128480
480,2892359223,0.422831,-0.672713,-0.467750,-0.387147,-0.170663,0.141977,0.128649
481,2892392557,0.423695,-0.672069,-0.468533,-0.386373,-0.040558,0.269961,0.170487
482,2892425891,0.424598,-0.671255,-0.469838,-0.385211,-0.058159,0.257688,0.187176
483,2892459225,0.425414,-0.670310,-0.471693,-0.383685,-0.067961,0.175147,0.142102
484,2892492559,0.426392,-0.669074,-0.473905,-0.382027,-0.007277,0.195470,0.216737
485,2892525893,0.427735,-0.667461,-0.476277,-0.380396,0.111362,0.210445,0.277548
486,2892559227,0.428696,-0.666212,-0.478266,-0.379004,0.107155,0.113564,0.123030
487,2892592561,0.428903,-0.665652,-0.479849,-0.377751,0.203151,0.091517,0.067925
488,2892625895,0.429312,-0.664955,-0.481467,-0.376454,-0.000383,0.168154,0.267606
489,2892659229,0.430130,-0.663835,-0.483314,-0.375128,-0.110295,0.331923,0.272155
490,2892692563,0.430991,-0.662481,-0.485677,-0.373477,-0.250389,0.092795,0.053658
491,2892725897,0.432023,-0.660753,-0.488716,-0.371377,-0.056191,0.108715,0.175008
492,2892759231,0.432795,-0.658927,-0.492132,-0.369204,-0.010042,-0.064516,0.109005
493,2892792565,0.432924,-0.657753,-0.495049,-0.367241,-0.141622,-0.200111,0.091442
494,2892825899,0.433112,-0.656720,-0.497776,-0.365177,-0.086245,-0.104354,0.157656
495,2892859233,0.433399,-0.655408,-0.500721,-0.363161,-0.145720,-0.150637,0.261375
496,2892892567,0.433920,-0.653811,-0.503791,-0.361166,-0.078276,-0.048813,0.141090
497,2892925901,0.434255,-0.652401,-0.506811,-0.359082,-0.161536,-0.097626,0.105515
498,2892959235,0.434656,-0.650778,-0.510225,-0.356700,-0.160299,-0.005050,0.192944
499,2892992569,0.435323,-0.648616,-0.514065,-0.354303,-0.157471,0.041811,0.203987
500,2893025903,0.436213,-0.646171,-0.517853,-0.352152,-0.060264,0.001842,0.278336
501,2893059237,0.437171,-0.643695,-0.521301,-0.350407,0.078054,-0.128891,0.179275
502,2893092571,0.438151,-0.641407,-0.524397,-0.348756,0.041564,-0.136110,0.013222
503,2893125905,0.439357,-0.639080,-0.527326,-0.347090,-0.152425,-0.081820,0.298393
504,2893159239,0.440737,-0.636412,-0.530679,-0.345126,-0.168451,-0.013905,0.205175
505,2893192573,0.441974,-0.633586,-0.534308,-0.343139,-0.123731,-0.031693,0.070391
506,2893225907,0.443679,-0.630126,-0.538473,-0.340793,-0.061654,0.091581,0.211261
507,2893259241,0.445688,-0.626322,-0.542850,-0.338230,0.012222,-0.014746,0.262510
508,2893292575,0.447414,-0.622888,-0.547030,-0.335547,0.084446,-0.053836,0.131535
509,2893325909,0.449075,-0.619613,-0.551033,-0.332829,0.065188,-0.003042,0.131660
510,2893359243,0.450911,-0.616211,-0.554832,-0.330342,0.035299,-0.079956,0.234527
511,2893392577,0.452579,-0.612914,-0.558547,-0.327926,-0.009516,-0.102714,0.267006
512,2893425911,0.454088,-0.610027,-0.561810,-0.325641,-0.007665,0.030171,0.186804
513,2893459245,0.455988,-0.607065,-0.564767,-0.323401,-0.000199,-0.021650,0.150924
514,2893492579,0.457725,-0.604279,-0.567664,-0.321081,-0.037523,0.021545,0.157413
515,2893525913,0.459575,-0.600929,-0.571036,-0.318739,0.045191,0.044104,0.117137
516,2893559247,0.460559,-0.598321,-0.574221,-0.316494,0.181195,-0.019334,0.040635
517,2893592581,0.460548,-0.596667,-0.577097,-0.314396,0.180798,0.144160,0.155184
518,2893625915,0.459737,-0.595692,-0.579613,-0.312799,0.272082,0.321529,0.204929
519,2893659249,0.458479,-0.595114,-0.581797,-0.311689,0.201487,0.260169,0.047263
520,2893692583,0.457216,-0.594855,-0.583420,-0.311004,0.092178,0.003598,0.299704
521,2893725917,0.455524,-0.595006,-0.584646,-0.310897,0.099080,-0.195580,0.245943
522,2893759251,0.453204,-0.595847,-0.585391,-0.311273,0.114058,-0.204969,0.045466
523,2893792585,0.451253,-0.596841,-0.585550,-0.311905,0.059038,-0.128124,0.088015
524,2893825919,0.449486,-0.597827,-0.585519,-0.312626,0.038287,0.045282,0.363505
525,2893859253,0.447263,-0.598964,-0.585496,-0.313678,-0.097771,0.117182,0.325641
526,2893892587,0.445242,-0.600248,-0.584714,-0.315553,0.049476,-0.138901,0.295437
527,2893925921,0.443611,-0.601553,-0.583249,-0.318064,0.239485,-0.154833,0.191905
528,2893959255,0.442009,-0.603018,-0.581191,-0.321271,0.097255,-0.102913,0.062153
529,2893992589,0.440063,-0.604849,-0.578934,-0.324561,0.030561,-0.267511,0.159834
530,2894025923,0.438315,-0.606613,-0.576820,-0.327387,0.135863,-0.292149,0.358403
531,2894059257,0.436715,-0.608367,-0.574384,-0.330535,0.068524,-0.143484,0.232726
532,2894092591,0.435054,-0.610123,-0.571773,-0.333998,0.047218,-0.143624,0.148476
533,2894125925,0.433409,-0.611899,-0.568902,-0.337769,0.145755,-0.198693,0.128133
534,2894159259,0.431732,-0.613947,-0.565678,-0.341594,-0.017478,-0.140895,0.196180
535,2894192593,0.430282,-0.615824,-0.562683,-0.344976,-0.061085,-0.129052,0.235503
536,2894225927,0.428885,-0.617310,-0.560115,-0.348222,-0.119431,-0.175478,0.123326
537,2894259261,0.427452,-0.618853,-0.557561,-0.351330,-0.221269,-0.039529,0.157892
538,2894292595,0.426214,-0.620049,-0.555611,-0.353805,-0.158015,0.080421,0.264348
539,2894325929,0.424814,-0.621129,-0.554081,-0.355988,-0.020487,0.047520,0.098460
540,2894359263,0.423282,-0.622430,-0.552299,-0.358302,0.008726,0.055960,0.130818
541,2894392597,0.421967,-0.623529,-0.550478,-0.360737,-0.100740,0.121292,0.286701
542,2894425931,0.420547,-0.624394,-0.548903,-0.363291,-0.060703,0.069965,0.188365
543,2894459265,0.419049,-0.625165,-0.547730,-0.365458,-0.014685,-0.103050,0.103147
544,2894492599,0.417655,-0.625828,-0.546790,-0.367323,0.010429,-0.140514,0.278535
545,2894525933,0.416818,-0.625787,-0.546383,-0.368946,-0.174906,-0.121824,0.167463
546,2894559267,0.416283,-0.625452,-0.546297,-0.370241,-0.161903,-0.121446,0.132800
547,2894592601,0.415890,-0.624957,-0.546445,-0.371300,-0.037689,-0.019554,0.256924
548,2894625935,0.415242,-0.624536,-0.546394,-0.372805,0.054104,0.087289,0.238795
549,2894659269,0.414696,-0.624119,-0.545977,-0.374717,0.001803,0.212364,0.162154
550,2894692603,0.414037,-0.623921,-0.545132,-0.376999,0.039004,0.182866,0.277272
551,2894725937,0.412961,-0.624017,-0.544118,-0.379478,0.022942,0.083332,0.124610
552,2894759271,0.411709,-0.624251,-0.543001,-0.382044,-0.290114,0.130918,-0.049618
553,2894792605,0.411184,-0.623774,-0.542657,-0.383872,-0.288382,0.281534,0.121091
554,2894825939,0.410651,-0.622860,-0.542899,-0.385583,-0.140927,0.160107,0.216317
555,2894859273,0.409738,-0.622281,-0.543088,-0.387218,0.019770,0.041406,0.126625
556,2894892607,0.408829,-0.621863,-0.543145,-0.388768,-0.024969,0.189947,0.030113
557,2894925941,0.408223,-0.621170,-0.543267,-0.390340,0.078009,0.264825,0.151095
558,2894959275,0.407532,-0.620419,-0.543406,-0.392058,0.073330,0.127988,0.203614
559,2894992609,0.406627,-0.619862,-0.543534,-0.393698,-0.033867,0.118111,0.089359
560,2895025943,0.405932,-0.619102,-0.543923,-0.395072,-0.070976,0.152374,0.026645
561,2895059277,0.405398,-0.618130,-0.544773,-0.395969,-0.031532,-0.045424,0.196702
562,2895092611,0.405028,-0.616957,-0.545971,-0.396526,0.086953,-0.037696,0.217727
563,2895125945,0.404725,-0.615767,-0.547167,-0.397037,0.160006,0.068977,0.041140
564,2895159279,0.404075,-0.614996,-0.548327,-0.397295,0.097483,-0.052169,0.216527
565,2895192613,0.403476,-0.614195,-0.549664,-0.397295,0.042577,-0.057255,0.258362
566,2895225947,0.403156,-0.613201,-0.550841,-0.397524,0.071615,0.145270,0.191530
567,2895259281,0.402996,-0.612113,-0.551774,-0.398069,0.216828,0.125527,0.217241
568,2895292615,0.402729,-0.611171,-0.552406,-0.398910,0.193255,-0.068090,0.241908
569,2895325949,0.402254,-0.610619,-0.552559,-0.400021,0.134668,-0.068082,0.155698
570,2895359283,0.401670,-0.610398,-0.552319,-0.401274,0.112159,0.092525,0.102881
571,2895392617,0.401183,-0.610169,-0.552124,-0.402376,0.004949,0.021962,0.042960
572,2895425951,0.400756,-0.609925,-0.552157,-0.403126,-0.068474,-0.009547,0.067720
573,2895459285,0.400376,-0.609580,-0.552527,-0.403519,-0.014839,0.074278,0.067701
574,2895492619,0.400084,-0.609071,-0.553090,-0.403805,0.073122,0.045501,0.097965
575,2895525953,0.399860,-0.608451,-0.554234,-0.403393,0.096383,-0.090768,0.314998
576,2895559287,0.399719,-0.607725,-0.555698,-0.402612,-0.014230,-0.109243,0.250836
577,2895592621,0.399811,-0.606894,-0.557168,-0.401741,0.015249,-0.062971,0.084884
578,2895625955,0.400050,-0.605908,-0.558941,-0.400528,0.083787,-0.187104,0.257127
579,2895659289,0.400466,-0.604731,-0.560614,-0.399551,0.092980,-0.145824,0.216186
580,2895692623,0.401483,-0.603167,-0.562393,-0.398393,0.106799,-0.101075,0.229633
581,2895725957,0.402759,-0.601269,-0.564745,-0.396644,0.161540,-0.171719,0.395131
582,2895759291,0.404031,-0.599216,-0.567193,-0.394960,0.186957,-0.217276,0.368959
583,2895792625,0.405368,-0.597332,-0.569206,-0.393545,0.225172,-0.124660,0.157576
584,2895825959,0.406784,-0.595626,-0.570917,-0.392189,0.230608,-0.210684,0.051207
585,2895859293,0.407979,-0.594322,-0.572245,-0.390989,0.185110,-0.429343,0.132453
586,2895892627,0.409102,-0.593363,-0.573281,-0.389752,-0.011662,-0.287974,0.018815
587,2895925961,0.410214,-0.592629,-0.574422,-0.388015,-0.140402,-0.019641,-0.017807
588,2895959295,0.411083,-0.592013,-0.575974,-0.385729,0.032963,-0.074067,0.109941
589,2895992629,0.411733,-0.591495,-0.577681,-0.383271,0.229313,-0.000259,0.218654
590,2896025963,0.412524,-0.590905,-0.579372,-0.380770,0.267955,0.145670,0.251187
591,2896059297,0.413201,-0.590584,-0.580781,-0.378379,0.418431,0.080493,0.349025
592,2896092631,0.413579,-0.590779,-0.581408,-0.376695,0.487073,0.056630,0.255729
593,2896125965,0.414029,-0.591302,-0.581326,-0.375506,0.434644,0.045990,0.141519
594,2896159299,0.414405,-0.592193,-0.580746,-0.374581,0.236228,-0.031932,0.198329
595,2896192633,0.414417,-0.593560,-0.579836,-0.373814,0.148534,-0.219819,0.245092
596,2896225967,0.414008,-0.595581,-0.578638,-0.372909,0.111640,-0.292673,-0.016533
597,2896259301,0.413622,-0.597862,-0.577311,-0.371741,0.032886,-0.181161,0.085428
598,2896292635,0.413072,-0.600354,-0.575919,-0.370494,0.038452,-0.180316,0.308809
599,2896325969,0.412026,-0.603629,-0.573904,-0.369462,0.302192,-0.225078,0.134732
600,2896359303,0.410894,-0.607333,-0.571173,-0.368884,0.431959,-0.165601,0.077575
601,2896392637,0.409829,-0.611083,-0.567563,-0.369448,0.283494,-0.076487,0.052607
602,2896425971,0.408843,-0.614864,-0.563871,-0.369920,0.047003,-0.197045,0.116740
603,2896459305,0.408099,-0.618225,-0.561006,-0.369496,-0.028576,-0.147695,0.526392
604,2896492639,0.407553,-0.620808,-0.558765,-0.369165,-0.037214,0.206206,0.373056
605,2896525973,0.407912,-0.622665,-0.557477,-0.367582,-0.145702,0.113791,0.255267
606,2896559307,0.408527,-0.624619,-0.555971,-0.365862,-0.153987,-0.071083,0.183663
607,2896592641,0.408969,-0.626560,-0.554038,-0.364980,0.068252,0.037080,0.117260
608,2896625975,0.409355,-0.628463,-0.552040,-0.364304,0.189345,-0.088530,0.198614
609,2896659309,0.409880,-0.630639,-0.549435,-0.363889,0.266988,-0.164434,0.366817
610,2896692643,0.410489,-0.633345,-0.545744,-0.364057,0.206114,-0.223730,0.372684
611,2896725977,0.410517,-0.636935,-0.540597,-0.365440,0.281075,-0.392862,0.152293
612,2896759311,0.410050,-0.641021,-0.534460,-0.367837,0.058344,-0.274787,0.125210
613,2896792645,0.408802,-0.645769,-0.527696,-0.370678,-0.012721,-0.022750,0.048392
614,2896825979,0.406771,-0.651106,-0.520485,-0.373758,-0.070266,0.275135,-0.039923
615,2896859313,0.405313,-0.655920,-0.514007,-0.375885,-0.710509,1.040547,0.087072
616,2896892647,0.405164,-0.658563,-0.510537,-0.376152,-0.495544,1.267543,0.418032
617,2896925981,0.405413,-0.659411,-0.509817,-0.375375,-0.506226,0.532719,0.288470
618,2896959315,0.406502,-0.659373,-0.510514,-0.373310,-0.278088,-0.165131,0.107654
619,2896992649,0.408748,-0.658344,-0.511505,-0.371313,0.217000,-0.478050,0.063053
620,2897025983,0.410244,-0.658177,-0.511185,-0.370399,0.060701,-0.799895,0.007225
621,2897059317,0.410472,-0.659834,-0.508949,-0.370277,-0.158060,-0.383747,0.124513
622,2897092651,0.410819,-0.661394,-0.506386,-0.370621,-0.001540,0.041456,0.318325
623,2897125985,0.411169,-0.662793,-0.503654,-0.371455,-0.261598,0.109587,0.227573
624,2897159319,0.411719,-0.663914,-0.500953,-0.372497,-0.242333,0.082850,0.183943
625,2897192653,0.412182,-0.664735,-0.498673,-0.373578,-0.056245,0.018036,0.149159
626,2897225987,0.412628,-0.665550,-0.496344,-0.374735,-0.225480,-0.067090,0.171007
627,2897259321,0.412792,-0.666619,-0.493898,-0.375882,-0.190496,-0.060677,0.163889
628,2897292655,0.412962,-0.667455,-0.491799,-0.376963,-0.094722,0.017989,0.072920
629,2897325989,0.413475,-0.668159,-0.489613,-0.377998,-0.215590,0.155522,0.243819
630,2897359323,0.414560,-0.668345,-0.487907,-0.378686,-0.190585,0.201520,0.258225
631,2897392657,0.415476,-0.668436,-0.486537,-0.379285,-0.068811,0.076180,0.180771
632,2897425991,0.416603,-0.668096,-0.485589,-0.379862,-0.089964,0.053705,0.028916
633,2897459325,0.417609,-0.667668,-0.485083,-0.380157,-0.045165,-0.043037,0.123993
634,2897492659,0.418421,-0.667281,-0.484820,-0.380279,-0.074623,-0.196350,0.120972
635,2897525993,0.419415,-0.666551,-0.484989,-0.380248,-0.110306,0.095074,0.102614
636,2897559327,0.420606,-0.665689,-0.485266,-0.380090,-0.132469,0.221566,0.156288
637,2897592661,0.421772,-0.664606,-0.486505,-0.379107,-0.231256,0.082206,0.147645
638,2897625995,0.422965,-0.663170,-0.488247,-0.378051,-0.110927,0.153225,0.115883
639,2897659329,0.424240,-0.661472,-0.490293,-0.376948,0.126652,0.382277,0.196814
640,2897692663,0.425256,-0.659846,-0.492749,-0.375447,0.014308,0.297259,0.124681
641,2897725997,0.426121,-0.658261,-0.495061,-0.374205,-0.092995,0.137591,0.227354
642,2897759331,0.427387,-0.656161,-0.497585,-0.373100,-0.126224,0.114435,0.184771
643,2897792665,0.428631,-0.654164,-0.499916,-0.372062,-0.185188,0.019487,0.145257
646,2897892667,0.432054,-0.647625,-0.508673,-0.367649,0.042988,0.008677,0.181641
647,2897926001,0.433046,-0.645860,-0.510927,-0.366458,-0.080238,-0.076026,0.068081
655,2898192673,0.441992,-0.627208,-0.537436,-0.349882,-0.150440,0.154070,-0.042373
656,2898226007,0.443595,-0.623653,-0.542364,-0.346589,-0.059196,0.109974,0.141042
657,2898259341,0.445209,-0.619948,-0.547585,-0.342937,-0.136233,0.104017,0.269863
658,2898292675,0.447022,-0.616011,-0.552927,-0.339079,-0.121340,-0.000384,0.138488
659,2898326009,0.448836,-0.612080,-0.557959,-0.335540,0.206887,-0.080302,0.104577
660,2898359343,0.450646,-0.608226,-0.562618,-0.332327,0.146701,-0.116248,0.195179
661,2898392677,0.452076,-0.605052,-0.566512,-0.329553,0.094756,-0.163306,0.185840
662,2898426011,0.453308,-0.602039,-0.570482,-0.326515,0.051028,-0.173003,0.131063
663,2898459345,0.454133,-0.599387,-0.574252,-0.323627,0.046313,-0.116651,0.132847
664,2898492679,0.455258,-0.596567,-0.577929,-0.320700,-0.074104,-0.122462,0.231920
665,2898526013,0.456457,-0.593610,-0.581640,-0.317759,0.076609,-0.099236,0.199481
666,2898559347,0.457673,-0.590632,-0.585068,-0.315257,0.205318,-0.103302,0.158405
667,2898592681,0.458371,-0.588349,-0.588084,-0.312892,0.224369,-0.155979,0.073986
668,2898626015,0.458698,-0.586679,-0.590766,-0.310485,0.080194,-0.039890,0.157044
669,2898659349,0.459024,-0.585045,-0.593408,-0.308040,-0.102473,0.026692,0.178762
670,2898692683,0.459384,-0.583055,-0.596387,-0.305514,0.043299,0.081338,0.216255
671,2898726017,0.459756,-0.581157,-0.599249,-0.302959,0.271078,0.126878,0.220340
672,2898759351,0.459696,-0.580069,-0.601178,-0.301305,0.343490,0.121176,0.182674
673,2898792685,0.459239,-0.579784,-0.602094,-0.300724,0.327394,-0.058383,0.167063
674,2898826019,0.458200,-0.580326,-0.602450,-0.300549,0.193372,-0.129738,0.120630
675,2898859353,0.456819,-0.581432,-0.602485,-0.300445,0.039480,-0.014490,0.173409
676,2898892687,0.455375,-0.582625,-0.602415,-0.300465,0.068458,0.061330,0.247201
677,2898926021,0.454068,-0.583812,-0.602118,-0.300735,0.123030,0.071292,0.197889
678,2898959355,0.452428,-0.585373,-0.601499,-0.301411,0.253867,0.016162,0.168168
679,2898992689,0.450456,-0.587360,-0.600627,-0.302238,0.074957,-0.030919,0.193559
680,2899026023,0.448155,-0.589631,-0.599608,-0.303257,0.048152,0.018829,0.158784
681,2899059357,0.446266,-0.591501,-0.598509,-0.304568,-0.116209,-0.023296,0.295903
682,2899092691,0.445069,-0.592948,-0.597344,-0.305789,0.007158,0.004696,0.219685
683,2899126025,0.443405,-0.594814,-0.596157,-0.306899,0.185184,0.044944,0.196699
684,2899159359,0.441037,-0.597427,-0.594407,-0.308625,0.216615,0.023492,0.272651
685,2899192693,0.439544,-0.599588,-0.591808,-0.311546,0.023385,0.097103,0.329276
686,2899226027,0.438214,-0.601500,-0.589213,-0.314637,-0.035353,0.002067,0.129388
687,2899259361,0.436554,-0.603705,-0.586752,-0.317310,-0.017897,-0.305153,0.066752
688,2899292695,0.434690,-0.606195,-0.584172,-0.319870,-0.083959,-0.380127,0.147391
689,2899326029,0.433151,-0.608431,-0.581658,-0.322287,-0.215107,-0.168345,0.123642
690,2899359363,0.431410,-0.610518,-0.579593,-0.324388,-0.024098,0.057497,0.253909
691,2899392697,0.429969,-0.612023,-0.578223,-0.325904,-0.011263,0.020532,0.147049
692,2899426031,0.428919,-0.613448,-0.576491,-0.327674,0.022219,-0.022514,0.124583
693,2899459365,0.427967,-0.614757,-0.574739,-0.329538,0.000245,-0.043259,0.224142
694,2899492699,0.426606,-0.616258,-0.573045,-0.331444,-0.057702,-0.227414,0.173116
695,2899526033,0.425463,-0.617487,-0.571704,-0.332937,-0.068779,-0.198992,0.037983
696,2899559367,0.425043,-0.618038,-0.570758,-0.334074,-0.034949,-0.226171,0.182048
697,2899592701,0.424593,-0.618626,-0.569812,-0.335170,0.020094,-0.182337,0.256124
698,2899626035,0.423574,-0.619773,-0.568524,-0.336526,0.043674,-0.007921,0.078930
699,2899659369,0.422412,-0.620992,-0.567453,-0.337544,0.021152,0.128083,0.152555
700,2899692703,0.421755,-0.621640,-0.566627,-0.338559,0.006772,0.043288,0.245075
701,2899726037,0.421183,-0.622148,-0.566093,-0.339229,-0.021249,0.038360,0.177454
702,2899759371,0.420593,-0.622629,-0.565624,-0.339861,0.007286,0.144570,0.060491
703,2899792705,0.419993,-0.623124,-0.565240,-0.340334,0.007344,0.064196,0.204983
704,2899826039,0.419440,-0.623460,-0.565240,-0.340402,0.009306,0.034843,0.250524
705,2899859373,0.419237,-0.623449,-0.565380,-0.340438,0.041422,0.127015,0.099271
706,2899892707,0.418943,-0.623579,-0.565334,-0.340640,0.005738,0.062033,0.220922
707,2899926041,0.418503,-0.623792,-0.565464,-0.340574,-0.032936,-0.126353,0.116361
708,2899959375,0.418024,-0.624097,-0.565687,-0.340234,-0.030135,-0.053941,0.071711
709,2899992709,0.417792,-0.624218,-0.565727,-0.340230,-0.074202,0.017438,0.183633
710,2900026043,0.417402,-0.624301,-0.565997,-0.340107,0.008999,-0.107882,0.333927
711,2900059377,0.416916,-0.624481,-0.566238,-0.339972,0.081995,-0.161154,0.175830
712,2900092711,0.416897,-0.624496,-0.566151,-0.340113,0.183259,-0.174713,0.105058
713,2900126045,0.416937,-0.624651,-0.565729,-0.340481,0.068304,-0.217047,0.178233
714,2900159379,0.416492,-0.625222,-0.565341,-0.340622,-0.041221,-0.135983,0.123359
715,2900192713,0.416180,-0.625776,-0.564981,-0.340582,-0.197070,0.130237,0.203945
716,2900226047,0.416371,-0.625537,-0.565256,-0.340331,-0.041751,0.140835,0.310630
717,2900259381,0.416796,-0.624754,-0.566225,-0.339639,0.157573,-0.132398,0.189104
718,2900292715,0.417119,-0.624498,-0.566412,-0.339403,0.115924,-0.180981,0.113330
719,2900326049,0.417167,-0.624733,-0.565977,-0.339636,0.089115,-0.074660,0.273123
720,2900359383,0.417189,-0.624909,-0.565449,-0.340163,0.189225,-0.105216,0.216280
721,2900392717,0.417343,-0.625234,-0.564688,-0.340641,0.031843,-0.234915,0.198050
722,2900426051,0.417789,-0.625508,-0.563740,-0.341161,-0.050187,-0.180989,0.238012
723,2900459385,0.417788,-0.626185,-0.562298,-0.342299,0.094792,-0.168204,0.142393
724,2900492719,0.417776,-0.626939,-0.560687,-0.343574,0.158348,-0.013807,0.242504
725,2900526053,0.417808,-0.627725,-0.559011,-0.344828,0.126688,-0.004654,0.268120
726,2900559387,0.417255,-0.629135,-0.556962,-0.346240,-0.031678,-0.140428,0.127617
727,2900592721,0.416532,-0.630764,-0.554603,-0.347929,-0.206443,-0.103212,0.153047
728,2900626055,0.416106,-0.631921,-0.552562,-0.349585,-0.167412,-0.019450,0.202058
729,2900659389,0.416022,-0.632736,-0.550725,-0.351105,-0.225466,0.120420,0.212048
730,2900692723,0.415876,-0.633540,-0.548947,-0.352610,-0.040306,0.022168,0.202369
731,2900726057,0.415191,-0.634566,-0.547144,-0.354368,0.100723,-0.074738,0.169600
732,2900759391,0.414630,-0.635690,-0.544905,-0.356455,-0.125598,0.088532,0.054626
733,2900792725,0.414195,-0.636780,-0.542655,-0.358444,-0.009903,0.000718,0.278953
734,2900826059,0.413574,-0.637770,-0.540753,-0.360271,-0.097622,-0.106904,0.263505
735,2900859393,0.413029,-0.638601,-0.538872,-0.362235,-0.167873,-0.102327,0.050920
736,2900892727,0.412701,-0.639239,-0.537171,-0.364006,0.054974,-0.146257,0.313245
737,2900926061,0.412288,-0.639752,-0.535564,-0.365935,-0.009373,-0.113060,0.216934
738,2900959395,0.411943,-0.640253,-0.533926,-0.367836,-0.069677,0.038757,0.133708
739,2900992729,0.411619,-0.640846,-0.532235,-0.369613,-0.093739,0.123055,0.209848
740,2901026063,0.410833,-0.641628,-0.530467,-0.371667,-0.014124,0.147706,0.211311
741,2901059397,0.410219,-0.642195,-0.528780,-0.373765,-0.109620,0.146994,0.248158
742,2901092731,0.409847,-0.642496,-0.527302,-0.375738,-0.076789,-0.091388,0.154596
743,2901126065,0.409241,-0.642957,-0.525670,-0.377891,-0.091523,-0.073999,0.059622
744,2901159399,0.408711,-0.643279,-0.523983,-0.380251,0.011863,0.064810,0.076448
745,2901192733,0.408077,-0.643751,-0.522047,-0.382787,-0.048379,0.159533,0.133495
746,2901226067,0.407089,-0.644565,-0.520017,-0.385225,-0.116514,0.203493,0.021728
747,2901259401,0.406139,-0.645268,-0.518355,-0.387284,-0.078960,0.287830,0.123482
748,2901292735,0.405400,-0.645562,-0.517139,-0.389191,-0.036704,0.210742,0.124484
749,2901326069,0.404848,-0.645629,-0.516354,-0.390694,-0.005376,0.175673,0.176426
750,2901359403,0.404073,-0.645781,-0.515939,-0.391790,-0.065244,0.222762,0.124839
751,2901392737,0.403458,-0.645736,-0.515924,-0.392519,-0.019639,0.352351,0.094269
752,2901426071,0.403098,-0.645390,-0.516353,-0.392892,0.059429,0.313614,0.267599
753,2901459405,0.402624,-0.645031,-0.517218,-0.392832,0.008758,0.153323,0.234821
754,2901492739,0.402292,-0.644563,-0.518142,-0.392722,-0.004526,0.260556,0.047060
755,2901526073,0.402183,-0.643780,-0.519315,-0.392568,-0.008258,0.180975,-0.032359
756,2901559407,0.401944,-0.643122,-0.520916,-0.391771,-0.067504,-0.063320,0.165651
757,2901592741,0.401621,-0.642501,-0.522833,-0.390564,-0.114568,0.110839,0.116156
758,2901626075,0.401757,-0.641353,-0.524985,-0.389423,-0.047103,0.297437,0.066219
759,2901659409,0.402327,-0.639734,-0.527574,-0.387996,-0.023091,0.098019,0.190191
760,2901692743,0.402756,-0.638233,-0.530427,-0.386129,-0.086927,-0.004274,0.060083
761,2901726077,0.403034,-0.636961,-0.533265,-0.384023,-0.097569,0.136148,-0.116844
762,2901759411,0.403358,-0.635595,-0.536396,-0.381578,0.040058,0.096753,0.235239
763,2901792745,0.403688,-0.634032,-0.539585,-0.379326,-0.009658,0.153802,0.225533
764,2901826079,0.404248,-0.632319,-0.543048,-0.376639,0.064554,0.059124,0.283528
765,2901859413,0.404624,-0.630677,-0.546745,-0.373628,0.117431,-0.164397,0.254948
766,2901892747,0.405059,-0.629014,-0.550433,-0.370530,-0.027690,-0.247790,0.104959
767,2901926081,0.406083,-0.626911,-0.554423,-0.367010,-0.059858,-0.098054,0.268346
768,2901959415,0.407199,-0.624403,-0.558575,-0.363739,0.015972,-0.047690,0.298569
769,2901992749,0.408058,-0.622151,-0.562418,-0.360699,0.147834,-0.172144,0.181894
770,2902026083,0.408726,-0.620462,-0.565492,-0.358037,0.176487,-0.124780,-0.068196
771,2902059417,0.409104,-0.619304,-0.568073,-0.355515,0.119139,-0.149188,0.197010
772,2902092751,0.409128,-0.618464,-0.570129,-0.353655,-0.054488,-0.175834,0.157084
773,2902126085,0.409338,-0.617605,-0.572013,-0.351866,-0.232375,0.037902,-0.032512
774,2902159419,0.409807,-0.616366,-0.574813,-0.348918,-0.154347,0.082209,0.333846
775,2902192753,0.410351,-0.614505,-0.578242,-0.345882,-0.144616,-0.168202,0.222598
776,2902226087,0.411426,-0.612299,-0.581844,-0.342459,0.021539,-0.183205,0.200791
777,2902259421,0.412461,-0.610287,-0.584953,-0.339494,0.196427,0.078594,0.274489
778,2902292755,0.413347,-0.608456,-0.587528,-0.337251,0.201943,0.057747,0.168344
779,2902326089,0.413939,-0.607126,-0.589800,-0.334949,0.174959,-0.190701,0.326810
780,2902359423,0.414389,-0.605971,-0.591771,-0.333002,-0.037332,-0.149439,0.108979
781,2902392757,0.415195,-0.604594,-0.593749,-0.330974,-0.265311,0.029221,0.048248
782,2902426091,0.416218,-0.602542,-0.596494,-0.328485,-0.244561,-0.029678,0.259397
783,2902459425,0.417436,-0.599895,-0.599974,-0.325432,-0.211180,-0.119389,0.204719
784,2902492759,0.418995,-0.596992,-0.603622,-0.322003,-0.097082,-0.028687,0.105600
785,2902526093,0.420677,-0.593832,-0.607415,-0.318502,0.118161,-0.138371,0.209820
786,2902559427,0.422444,-0.590547,-0.611117,-0.315172,0.166407,-0.288241,0.332822
787,2902592761,0.424475,-0.587183,-0.614761,-0.311621,0.144010,-0.304626,0.223490
788,2902626095,0.426614,-0.583974,-0.618234,-0.307835,0.065171,-0.312181,0.145232
789,2902659429,0.428364,-0.581247,-0.621183,-0.304615,0.134715,-0.264163,0.170690
790,2902692763,0.429615,-0.579257,-0.623352,-0.302202,0.335562,-0.104801,0.215042
791,2902726097,0.430617,-0.578010,-0.624507,-0.300777,0.442787,0.006107,0.190468
792,2902759431,0.431575,-0.577207,-0.624947,-0.300031,0.396385,-0.049175,0.304001
793,2902792765,0.432372,-0.576933,-0.624625,-0.300081,0.320668,-0.103034,0.233541
794,2902826099,0.433010,-0.577126,-0.623692,-0.300729,0.122397,-0.132546,0.144113
795,2902859433,0.433576,-0.577570,-0.622486,-0.301559,-0.042868,-0.214310,0.150011
796,2902892767,0.433957,-0.578228,-0.621124,-0.302556,-0.024972,-0.193094,0.213930
797,2902926101,0.434319,-0.579015,-0.619498,-0.303863,0.056484,-0.025445,0.166956
798,2902959435,0.434610,-0.579825,-0.618007,-0.304937,0.037581,0.060553,0.140439
799,2902992769,0.434733,-0.580692,-0.616726,-0.305703,-0.003928,0.028344,0.180840
800,2903026103,0.434916,-0.581534,-0.615436,-0.306442,-0.052279,0.164781,0.144284
801,2903059437,0.435271,-0.581963,-0.614537,-0.306928,-0.187594,0.344142,0.084734
802,2903092771,0.435623,-0.581863,-0.614651,-0.306389,-0.374848,0.249583,0.186269
803,2903126105,0.436090,-0.581117,-0.615691,-0.305050,-0.386108,0.265577,0.117682
804,2903159439,0.437033,-0.579669,-0.617071,-0.303662,-0.037277,0.314247,0.090285
805,2903192773,0.438082,-0.577958,-0.618655,-0.302187,0.223966,0.054189,0.143881
806,2903226107,0.438666,-0.576953,-0.619953,-0.300596,0.187010,-0.170445,0.252309
807,2903259441,0.439003,-0.576642,-0.620349,-0.299881,0.147663,-0.029694,0.157676
808,2903292775,0.439408,-0.576378,-0.620390,-0.299710,0.099156,-0.046604,0.125978
809,2903326109,0.439926,-0.575976,-0.620677,-0.299129,-0.142521,-0.160909,0.191353
810,2903359443,0.440260,-0.575712,-0.620991,-0.298494,-0.086595,-0.180261,0.202056
811,2903392777,0.440665,-0.575434,-0.621120,-0.298165,0.064637,-0.040002,0.138661
812,2903426111,0.441139,-0.575075,-0.621229,-0.297927,0.041929,0.039408,0.197046
813,2903459445,0.441663,-0.574538,-0.621606,-0.297400,0.029200,0.009631,0.276845
814,2903492779,0.442008,-0.574266,-0.621722,-0.297171,0.120556,-0.013765,0.174067
815,2903526113,0.442204,-0.574395,-0.621364,-0.297380,0.079916,0.013760,0.122779
816,2903559447,0.442420,-0.574540,-0.620970,-0.297601,-0.002449,0.031635,0.219203
817,2903592781,0.442465,-0.574692,-0.620734,-0.297733,0.021622,0.052541,0.262355
818,2903626115,0.442360,-0.574979,-0.620291,-0.298257,0.047965,0.082374,0.135560
819,2903659449,0.442462,-0.575028,-0.619974,-0.298670,-0.053555,0.048774,0.104321
820,2903692783,0.442450,-0.575092,-0.619817,-0.298890,-0.092115,-0.033078,0.199389
821,2903726117,0.442293,-0.575147,-0.619789,-0.299075,-0.052893,-0.016294,0.234236
822,2903759451,0.442375,-0.574873,-0.619844,-0.299367,-0.045324,0.065540,0.075905
823,2903792785,0.442367,-0.574759,-0.619782,-0.299725,0.029023,0.025332,0.226905
824,2903826119,0.442080,-0.575003,-0.619455,-0.300355,0.127308,-0.015367,0.206963
825,2903859453,0.441687,-0.575425,-0.618960,-0.301147,0.086291,0.006531,0.194262
826,2903892787,0.441404,-0.575816,-0.618394,-0.301976,0.053264,-0.023358,0.259232
827,2903926121,0.441033,-0.576421,-0.617478,-0.303235,0.119680,-0.147239,0.204783
828,2903959455,0.440586,-0.577227,-0.616357,-0.304628,0.107458,-0.050554,0.082543
829,2903992789,0.440078,-0.578114,-0.615285,-0.305847,-0.004517,-0.004347,0.199485
830,2904026123,0.439430,-0.579144,-0.614251,-0.306905,0.016878,-0.084260,0.259431
831,2904059457,0.438732,-0.580443,-0.612679,-0.308590,0.146249,0.001507,0.196959
832,2904092791,0.438224,-0.581636,-0.610856,-0.310671,0.148956,0.004896,0.163705
833,2904126125,0.437627,-0.583020,-0.608944,-0.312665,0.114213,-0.152570,0.227583
834,2904159459,0.436748,-0.584937,-0.606636,-0.314791,0.093839,-0.233703,0.122540
835,2904192793,0.435647,-0.587289,-0.603895,-0.317200,0.090445,-0.175826,0.157599
836,2904226127,0.434541,-0.589662,-0.600883,-0.320023,0.042333,-0.048808,0.189941
837,2904259461,0.433589,-0.591883,-0.598001,-0.322600,0.011100,-0.066086,0.196219
838,2904292795,0.432604,-0.594130,-0.595231,-0.324908,-0.003151,-0.026463,0.235076
839,2904326129,0.431444,-0.596430,-0.592352,-0.327487,0.021258,-0.100629,0.246563
840,2904359463,0.430274,-0.598875,-0.589049,-0.330509,0.036626,-0.211899,0.160383
841,2904392797,0.429117,-0.601431,-0.585563,-0.333553,0.118563,-0.157018,0.099244
842,2904426131,0.427913,-0.603956,-0.582271,-0.336290,0.031481,-0.063471,0.039814
843,2904459465,0.426341,-0.606873,-0.578836,-0.338953,-0.149452,0.000092,0.197897
844,2904492799,0.425055,-0.609389,-0.575571,-0.341604,-0.072913,0.128529,0.343411
845,2904526133,0.424477,-0.611086,-0.572806,-0.343932,0.101656,0.144368,0.059784
846,2904559467,0.423704,-0.613234,-0.569611,-0.346357,0.176556,0.059409,0.254857
847,2904592801,0.422273,-0.616062,-0.565806,-0.349311,0.241852,-0.165005,0.306775
848,2904626135,0.420676,-0.619229,-0.561478,-0.352606,0.082923,-0.271342,0.003858
849,2904659469,0.419236,-0.622347,-0.557043,-0.355851,-0.024872,-0.231856,-0.040842
850,2904692803,0.417670,-0.625466,-0.552842,-0.358764,-0.172421,-0.314327,0.103301
851,2904726137,0.416346,-0.628210,-0.549337,-0.360886,-0.254001,-0.193343,0.202775
852,2904759471,0.415814,-0.630020,-0.546744,-0.362278,-0.159653,0.115699,0.222871
853,2904792805,0.415829,-0.631016,-0.545031,-0.363108,0.049886,0.204543,0.235642
854,2904826139,0.415522,-0.632244,-0.543339,-0.363859,0.161671,0.092427,0.227550
855,2904859473,0.415421,-0.633538,-0.541434,-0.364562,0.174202,0.046104,0.222532
856,2904892807,0.415204,-0.635072,-0.538992,-0.365757,0.205824,-0.088488,0.275759
857,2904926141,0.414746,-0.636804,-0.536266,-0.367270,0.073602,-0.156215,0.074182
858,2904959475,0.413873,-0.639114,-0.533145,-0.368782,-0.143703,-0.007871,0.019892
859,2904992809,0.413181,-0.641123,-0.530415,-0.370005,-0.261591,0.330578,0.170008
860,2905026143,0.412897,-0.642324,-0.528798,-0.370554,-0.255053,0.318968,0.245523
861,2905059477,0.413051,-0.642753,-0.528115,-0.370612,-0.224192,0.342798,0.151094
862,2905092811,0.413769,-0.642512,-0.528088,-0.370268,-0.006965,0.335265,0.172554
863,2905126145,0.414418,-0.642339,-0.528255,-0.369602,-0.107280,0.074794,0.150305
864,2905159479,0.414869,-0.642153,-0.528625,-0.368891,-0.071485,-0.080090,0.148685
865,2905192813,0.415602,-0.641600,-0.529353,-0.367984,-0.141221,-0.041098,0.144892
866,2905226147,0.416706,-0.640897,-0.530227,-0.366699,-0.124739,0.130611,0.193604
867,2905259481,0.417618,-0.640101,-0.531392,-0.365363,0.119433,0.067522,0.295802
868,2905292815,0.418659,-0.639188,-0.532227,-0.364554,-0.054514,0.353350,0.258423
869,2905326149,0.419225,-0.638862,-0.532656,-0.363849,-0.003378,0.073555,0.119379
870,2905359483,0.419027,-0.639253,-0.532764,-0.363230,0.012856,0.019422,0.075069
871,2905392817,0.418706,-0.639715,-0.532509,-0.363162,-0.156768,0.341277,0.280010
872,2905426151,0.418473,-0.639819,-0.532663,-0.363019,-0.140070,0.173011,0.160965
873,2905459485,0.418017,-0.639899,-0.533185,-0.362638,0.021438,-0.030650,0.159612
874,2905492819,0.417564,-0.640078,-0.533336,-0.362623,-0.080533,0.198315,0.141504
875,2905526153,0.416711,-0.640523,-0.533246,-0.362951,0.012135,-0.014010,0.163878
876,2905559487,0.415794,-0.640980,-0.533252,-0.363186,-0.040199,0.001992,0.170165
877,2905592821,0.415052,-0.641381,-0.533254,-0.363323,-0.262299,0.181476,0.162663
878,2905626155,0.414557,-0.641272,-0.533978,-0.363017,-0.450548,0.089827,0.306623
879,2905659489,0.414380,-0.640542,-0.535624,-0.362083,-0.258998,-0.034992,0.225535
880,2905692823,0.414257,-0.639666,-0.537228,-0.361395,-0.024080,0.080640,0.127825
881,2905726157,0.413587,-0.639082,-0.538528,-0.361260,0.136557,0.046383,0.191567
882,2905759491,0.412613,-0.638863,-0.539562,-0.361219,-0.134008,0.119065,0.271544
883,2905792825,0.411624,-0.638522,-0.540702,-0.361245,-0.301181,0.314444,0.195640
884,2905826159,0.410889,-0.637520,-0.542569,-0.361052,-0.322674,0.179345,0.189237
885,2905859493,0.410023,-0.636396,-0.544571,-0.361007,-0.320505,-0.007334,0.097415
886,2905892827,0.409207,-0.635114,-0.546636,-0.361069,-0.283358,-0.002430,-0.073691
887,2905926161,0.408483,-0.633670,-0.549175,-0.360573,-0.192547,-0.254528,-0.054189
888,2905959495,0.407624,-0.632231,-0.552230,-0.359404,-0.078374,-0.359428,0.213061
889,2905992829,0.407033,-0.630443,-0.555039,-0.358886,0.109628,-0.131929,0.208665
890,2906026163,0.406515,-0.628694,-0.557395,-0.358890,0.068769,-0.050221,0.281015
891,2906059497,0.405543,-0.627505,-0.559683,-0.358510,0.000381,-0.194462,0.400215
892,2906092831,0.404448,-0.626389,-0.561770,-0.358432,0.035833,-0.079832,0.255212
893,2906126165,0.404082,-0.624523,-0.563940,-0.358694,0.076398,-0.072653,0.122604
894,2906159499,0.404390,-0.622130,-0.566275,-0.358828,-0.023280,-0.176569,0.225993
895,2906192833,0.404648,-0.619623,-0.568830,-0.358835,0.048994,-0.186682,0.417386
896,2906226167,0.404657,-0.617156,-0.571342,-0.359085,0.054076,-0.114635,0.172197
897,2906259501,0.404825,-0.614833,-0.573220,-0.359885,0.046097,-0.077235,0.064204
898,2906292835,0.405403,-0.612425,-0.574708,-0.360966,0.105927,-0.058320,0.383008
899,2906326169,0.405889,-0.610135,-0.575787,-0.362573,0.220596,-0.114594,0.367975
900,2906359503,0.405821,-0.608413,-0.576648,-0.364174,0.016501,-0.212509,-0.092674
901,2906392837,0.405684,-0.606996,-0.577160,-0.365875,-0.069190,-0.232148,0.045189
902,2906426171,0.406064,-0.605225,-0.577790,-0.367389,-0.093326,-0.167030,0.136169
903,2906459505,0.406181,-0.603728,-0.578100,-0.369231,-0.051010,0.060296,0.170688
904,2906492839,0.406076,-0.602349,-0.578640,-0.370751,0.064013,0.113950,0.299787
905,2906526173,0.405932,-0.600948,-0.579449,-0.371915,0.082213,0.130962,0.177062
906,2906559507,0.406055,-0.599349,-0.580192,-0.373201,0.104562,0.184168,0.182270
907,2906592841,0.406456,-0.597463,-0.580679,-0.375028,0.175653,0.142818,0.219149
908,2906626175,0.406949,-0.595728,-0.580584,-0.377392,0.195930,-0.005651,0.190363
909,2906659509,0.407691,-0.594127,-0.580165,-0.379752,0.183113,-0.067438,0.292672
910,2906692843,0.408183,-0.592721,-0.579712,-0.382104,0.035978,-0.067575,0.117719
911,2906726177,0.409374,-0.591149,-0.578346,-0.385322,-0.105317,0.035380,0.181307
912,2906759511,0.410862,-0.589423,-0.577295,-0.387950,0.280830,-0.083475,-0.032567
913,2906792845,0.410752,-0.588689,-0.577110,-0.389454,0.240067,-0.307033,0.107907
914,2906826179,0.410540,-0.588207,-0.577321,-0.390092,0.214607,-0.177468,0.056371
915,2906859513,0.410047,-0.587963,-0.577418,-0.390833,0.250055,-0.005037,0.076363
916,2906892847,0.409589,-0.588038,-0.577160,-0.391581,0.241717,0.083912,0.056618
917,2906926181,0.409186,-0.588411,-0.576449,-0.392489,0.085742,0.155161,0.080324
918,2906959515,0.409080,-0.588853,-0.575283,-0.393645,-0.040797,0.100099,-0.005642
919,2906992849,0.408993,-0.589597,-0.574197,-0.394207,0.040861,-0.086155,0.097059
920,2907026183,0.408623,-0.590428,-0.573410,-0.394494,0.243268,-0.190553,0.223424
921,2907059517,0.408254,-0.591065,-0.572629,-0.395056,0.296023,-0.032805,0.070826
922,2907092851,0.407929,-0.591773,-0.572222,-0.394921,0.273588,0.043816,0.037807
923,2907126185,0.407621,-0.592735,-0.571760,-0.394465,0.275958,-0.108631,0.120469
924,2907159519,0.407118,-0.593945,-0.570949,-0.394338,0.243903,-0.046110,0.189020
925,2907192853,0.406826,-0.595160,-0.570056,-0.394101,0.213760,-0.090291,-0.024253
926,2907226187,0.406343,-0.597001,-0.569080,-0.393224,0.199676,-0.381486,0.249770
927,2907259521,0.405464,-0.599250,-0.568054,-0.392193,0.176445,-0.260886,0.326883
928,2907292855,0.404884,-0.601197,-0.567070,-0.391234,0.205339,0.092644,-0.036328
929,2907326189,0.404605,-0.602989,-0.566148,-0.390098,0.317114,0.086550,0.029210
930,2907359523,0.404141,-0.605241,-0.564899,-0.388902,0.188086,-0.105211,0.382519
931,2907392857,0.403546,-0.607803,-0.563381,-0.387723,0.073578,-0.024604,0.243425
932,2907426191,0.402986,-0.610305,-0.561667,-0.386863,0.113109,0.215486,-0.040349
933,2907459525,0.402489,-0.612782,-0.559917,-0.386000,0.112024,0.080350,0.139392
934,2907492859,0.402161,-0.615133,-0.558651,-0.384433,-0.035470,0.108491,0.441159
935,2907526193,0.401812,-0.617326,-0.557410,-0.383082,0.164889,0.371373,0.183869
936,2907559527,0.401399,-0.619613,-0.555919,-0.381987,0.286048,0.166966,0.150243
937,2907592861,0.401356,-0.621907,-0.554197,-0.380805,0.153394,-0.184128,0.334138
938,2907626195,0.401377,-0.624187,-0.552195,-0.379959,0.172472,-0.283178,0.113736
939,2907659529,0.401194,-0.626734,-0.550013,-0.379125,0.135319,-0.337002,0.259103
940,2907692863,0.401271,-0.628900,-0.548498,-0.377648,0.081320,-0.311804,0.682297
941,2907726197,0.402028,-0.630364,-0.546924,-0.376684,0.107203,0.067952,0.256513
942,2907759531,0.403348,-0.631696,-0.545248,-0.375469,0.109918,-0.034857,0.188646
943,2907792865,0.404159,-0.633724,-0.542821,-0.374695,0.088348,-0.423755,0.298681
944,2907826199,0.404340,-0.636483,-0.539100,-0.375195,-0.009856,-0.383112,0.094324
945,2907859533,0.404527,-0.639434,-0.534610,-0.376400,-0.043705,-0.155107,0.057731
946,2907892867,0.404968,-0.642188,-0.530446,-0.377126,-0.223679,-0.205931,0.280857
947,2907926201,0.405523,-0.644874,-0.526534,-0.377429,-0.356755,0.023624,0.221004
948,2907959535,0.406497,-0.646949,-0.523014,-0.377724,-0.284240,0.368047,0.251397
949,2907992869,0.407544,-0.648487,-0.520126,-0.377947,-0.204593,0.208235,0.189866
950,2908026203,0.408302,-0.650001,-0.517358,-0.378326,-0.076856,0.200867,0.151641
951,2908059537,0.408962,-0.651531,-0.514360,-0.379068,0.072929,0.055847,0.082085
952,2908092871,0.409197,-0.653689,-0.510611,-0.380167,-0.053418,-0.048322,0.155947
953,2908126205,0.409290,-0.655929,-0.506799,-0.381307,-0.242415,0.058676,0.145276
954,2908159539,0.409390,-0.657866,-0.503478,-0.382261,-0.312565,0.218035,0.140125
955,2908192873,0.409880,-0.659104,-0.501034,-0.382814,-0.201817,0.260389,0.189304
956,2908226207,0.410495,-0.659986,-0.499147,-0.383102,-0.142186,0.157179,0.203510
957,2908259541,0.410845,-0.660991,-0.497477,-0.383164,-0.133551,-0.004732,0.100666
958,2908292875,0.410989,-0.662202,-0.495504,-0.383477,-0.121920,-0.057763,0.147272
959,2908326209,0.411510,-0.662963,-0.493526,-0.384153,-0.051459,-0.050633,0.245213
960,2908359543,0.411762,-0.663958,-0.491523,-0.384733,-0.177013,-0.193066,0.201856
961,2908392877,0.411744,-0.665147,-0.489526,-0.385242,-0.154267,-0.151913,0.096601
962,2908426211,0.412011,-0.666028,-0.487412,-0.386116,-0.128725,0.038384,0.160887
963,2908459545,0.412539,-0.666552,-0.485489,-0.387069,-0.192355,0.104247,0.217928
964,2908492879,0.412781,-0.667196,-0.483744,-0.387885,-0.192883,0.029231,0.102361
965,2908526213,0.413133,-0.667634,-0.482277,-0.388584,-0.078940,0.213634,0.121820
966,2908559547,0.413829,-0.667492,-0.481686,-0.388820,-0.156109,0.323610,0.176182
967,2908592881,0.414645,-0.666880,-0.482241,-0.388311,-0.257506,0.318300,0.090250
968,2908626215,0.415607,-0.665779,-0.483951,-0.387043,-0.166149,0.228837,0.066069
969,2908659549,0.416653,-0.664390,-0.486113,-0.385594,-0.127604,0.158258,0.183450
970,2908692883,0.417773,-0.662814,-0.488561,-0.383996,-0.066283,0.193183,0.177552
971,2908726217,0.418767,-0.661278,-0.491045,-0.382390,-0.026166,0.123083,0.141643
972,2908759551,0.419701,-0.659781,-0.493542,-0.380735,-0.027526,0.004205,0.181210
973,2908792885,0.420542,-0.658410,-0.495962,-0.379030,-0.140669,-0.034051,0.082244
974,2908826219,0.421172,-0.657122,-0.498439,-0.377313,-0.154098,0.058092,0.173342
975,2908859553,0.421910,-0.655481,-0.501436,-0.375367,-0.188142,0.165951,0.081840
976,2908892887,0.422759,-0.653600,-0.504876,-0.373073,-0.077348,0.124722,0.169394
977,2908926221,0.423732,-0.651564,-0.508520,-0.370575,-0.051984,0.188991,0.190140
978,2908959555,0.424663,-0.649443,-0.512412,-0.367859,-0.071582,0.184618,0.119818
979,2908992889,0.425504,-0.647158,-0.516522,-0.365157,0.050892,0.099009,0.321200
980,2909026223,0.426343,-0.644769,-0.520732,-0.362413,-0.095873,0.079666,0.064218
981,2909059557,0.427160,-0.642420,-0.525137,-0.359255,-0.156714,0.009278,0.053761
982,2909092891,0.428053,-0.639675,-0.530093,-0.355794,-0.125904,0.001555,0.329740
983,2909126225,0.428986,-0.636601,-0.535298,-0.352376,-0.110659,0.032495,0.196963
984,2909159559,0.429927,-0.633663,-0.540335,-0.348819,0.000758,-0.050768,0.159926
985,2909192893,0.430793,-0.630894,-0.544991,-0.345508,0.074598,-0.192395,0.179141
986,2909226227,0.431561,-0.628337,-0.549137,-0.342634,-0.052781,-0.178034,0.049083
987,2909259561,0.432610,-0.625543,-0.553257,-0.339783,-0.194374,-0.106629,0.109511
988,2909292895,0.434018,-0.622117,-0.557992,-0.336520,-0.191394,-0.069888,0.258368
989,2909326229,0.435546,-0.618315,-0.563299,-0.332690,-0.092329,-0.158406,0.241564
990,2909359563,0.437124,-0.614530,-0.568323,-0.329070,0.148848,-0.100534,0.183026
991,2909392897,0.438618,-0.610940,-0.572884,-0.325840,0.305843,-0.088280,0.168843
992,2909426231,0.439416,-0.608238,-0.576784,-0.322928,0.126283,-0.156955,0.125237
993,2909459565,0.439783,-0.606141,-0.580274,-0.320106,-0.023756,-0.112558,0.145042
994,2909492899,0.440301,-0.603997,-0.583405,-0.317747,0.003621,0.006561,0.190734
995,2909526233,0.440910,-0.601746,-0.586382,-0.315688,0.121653,-0.047777,0.178035
996,2909559567,0.441618,-0.599436,-0.589499,-0.313278,-0.090661,-0.037063,0.147971
997,2909592901,0.442385,-0.597087,-0.592679,-0.310670,-0.058398,0.013807,0.162671
998,2909626235,0.442899,-0.594717,-0.596011,-0.308099,0.027467,0.051650,0.236958
999,2909659569,0.443466,-0.592333,-0.599240,-0.305602,-0.027058,0.097639,0.236456
1000,2909692903,0.444156,-0.589930,-0.602167,-0.303488,-0.044880,0.165688,0.150827
1001,2909726237,0.444287,-0.587978,-0.604767,-0.301909,0.156526,0.094433,0.194314
1002,2909759571,0.444285,-0.586097,-0.607518,-0.300041,0.055551,-0.044003,0.191959
1003,2909792905,0.444538,-0.584330,-0.609911,-0.298251,-0.011357,-0.108227,0.250259
1004,2909826239,0.444768,-0.582771,-0.611484,-0.297739,0.117094,0.027266,0.294000
1005,2909859573,0.445094,-0.581022,-0.612941,-0.297674,0.098958,-0.023876,0.173456
1006,2909892907,0.445202,-0.579741,-0.614260,-0.297293,0.103607,-0.193262,0.056503
1007,2909926241,0.444911,-0.579199,-0.614839,-0.297588,0.120127,-0.164824,0.188886
1008,2909959575,0.444636,-0.578468,-0.615501,-0.298050,-0.042201,-0.087177,0.241909
1009,2909992909,0.444793,-0.577147,-0.616672,-0.297956,-0.276342,-0.050695,0.194118
1010,2910026243,0.445261,-0.575457,-0.618017,-0.297740,-0.085457,-0.037800,0.190827
1011,2910059577,0.445808,-0.573635,-0.619315,-0.297741,0.260545,-0.018141,0.164516
1012,2910092911,0.446300,-0.571974,-0.620544,-0.297639,0.263477,-0.166832,0.142215
1015,2910192913,0.446556,-0.569558,-0.622168,-0.298496,0.086427,-0.172830,0.188751
1016,2910226247,0.446592,-0.568922,-0.622470,-0.299026,0.124407,-0.185826,0.196879
1017,2910259581,0.446733,-0.568449,-0.622550,-0.299546,0.051097,-0.199678,0.143673
1018,2910292915,0.446833,-0.567971,-0.622927,-0.299522,-0.018067,-0.063382,0.181152
1019,2910326249,0.447210,-0.566995,-0.623699,-0.299201,-0.017861,0.019666,0.136402
1020,2910359583,0.447954,-0.565483,-0.624834,-0.298579,-0.080796,0.064725,0.120522
1021,2910392917,0.448993,-0.563573,-0.626404,-0.297338,-0.205855,0.036022,0.156195
1022,2910426251,0.449818,-0.561436,-0.628440,-0.295836,-0.115357,0.097617,0.154533
1023,2910459585,0.450769,-0.559050,-0.630621,-0.294260,0.083352,0.118324,0.134061
1027,2910592921,0.454779,-0.550013,-0.638150,-0.288840,0.154758,0.076268,0.259422
1028,2910626255,0.455748,-0.547867,-0.639733,-0.287888,0.110920,-0.003540,0.177522
1029,2910659589,0.456762,-0.546005,-0.640856,-0.287319,0.105230,-0.032678,0.136235
1030,2910692923,0.457583,-0.544478,-0.641745,-0.286926,0.177026,-0.036926,0.140550
1031,2910726257,0.457945,-0.543382,-0.642723,-0.286234,0.055533,-0.160709,0.182466
1032,2910759591,0.458243,-0.542496,-0.643598,-0.285474,0.095232,-0.131556,0.196036
1033,2910792925,0.458394,-0.541928,-0.644117,-0.285140,0.290916,-0.060573,0.127984
1034,2910826259,0.458383,-0.541867,-0.644334,-0.284781,0.225895,0.008871,0.170524
1035,2910859593,0.458044,-0.542511,-0.644001,-0.284855,0.130576,0.137934,0.223969
1036,2910892927,0.457423,-0.543485,-0.643373,-0.285414,0.105838,0.197391,0.203094
1037,2910926261,0.456792,-0.544510,-0.642758,-0.285857,0.078901,0.100340,0.155555
1038,2910959595,0.456066,-0.545646,-0.642102,-0.286323,0.036074,-0.039726,0.186680
1039,2910992929,0.455418,-0.546665,-0.641440,-0.286895,0.162491,-0.038438,0.186157
1040,2911026263,0.454771,-0.547858,-0.640512,-0.287716,0.280236,0.004038,0.219662
1041,2911059597,0.453930,-0.549383,-0.639453,-0.288491,0.220084,-0.104523,0.193926
1042,2911092931,0.453070,-0.551257,-0.637969,-0.289552,0.119996,-0.178001,0.192932
1043,2911126265,0.452337,-0.553171,-0.636237,-0.290857,0.084903,-0.110957,0.150762
1044,2911159599,0.451449,-0.555064,-0.634763,-0.291847,0.007786,-0.126099,0.132808
1045,2911192933,0.450468,-0.556972,-0.633472,-0.292534,-0.065400,-0.066559,0.171548
1046,2911226267,0.449520,-0.558877,-0.632112,-0.293299,0.029569,0.010662,0.221885
1047,2911259601,0.448534,-0.560627,-0.631003,-0.293858,0.048237,0.035524,0.149999
1048,2911292935,0.447509,-0.562430,-0.629950,-0.294234,-0.014081,0.041250,0.078250
1049,2911326269,0.446456,-0.564546,-0.628428,-0.295034,0.159515,0.049205,0.290263
1050,2911359603,0.445135,-0.567164,-0.626173,-0.296798,0.408537,0.021696,0.219102
1051,2911392937,0.443588,-0.570537,-0.623216,-0.298867,0.355678,-0.010366,0.131226
1052,2911426271,0.441838,-0.574386,-0.619772,-0.301239,0.174145,0.038583,0.182864
1053,2911459605,0.439930,-0.578280,-0.616235,-0.303827,0.023942,-0.098115,0.287642
1054,2911492939,0.438254,-0.581666,-0.613185,-0.305949,-0.082380,-0.177283,0.213575
1055,2911526273,0.437239,-0.584328,-0.610623,-0.307448,-0.085972,-0.089658,0.065851
1056,2911559607,0.436372,-0.586832,-0.608039,-0.309029,-0.005446,-0.110741,0.177822
1057,2911592941,0.435033,-0.589751,-0.605388,-0.310560,0.063027,-0.144018,0.209026
1058,2911626275,0.433579,-0.592937,-0.602618,-0.311911,0.115366,-0.082134,0.134450
1059,2911659609,0.432204,-0.596287,-0.599348,-0.313729,0.133335,-0.062028,0.198292
1060,2911692943,0.430816,-0.599696,-0.595725,-0.316030,0.067865,-0.068207,0.276082
1061,2911726277,0.429163,-0.603404,-0.591735,-0.318706,0.021037,-0.037056,0.241377
1062,2911759611,0.427634,-0.606906,-0.587736,-0.321500,-0.002859,-0.031470,0.186937
1063,2911792945,0.426499,-0.609936,-0.583847,-0.324348,-0.165166,-0.147025,0.165660
1064,2911826279,0.425509,-0.612733,-0.580040,-0.327195,-0.179342,-0.207132,0.122908
1065,2911859613,0.424460,-0.615438,-0.576376,-0.329943,-0.176294,-0.120658,0.160480
1066,2911892947,0.423527,-0.617887,-0.572936,-0.332545,-0.135878,0.017462,0.287106
1067,2911926281,0.422777,-0.619897,-0.569883,-0.334996,-0.076423,-0.054780,0.137239
1068,2911959615,0.422130,-0.621795,-0.567010,-0.337162,-0.047631,-0.151838,0.172856
1069,2911992949,0.421590,-0.623598,-0.564122,-0.339346,-0.037322,-0.081633,0.201261
1070,2912026283,0.420936,-0.625429,-0.561111,-0.341770,-0.116547,-0.028049,0.191383
1071,2912059617,0.420136,-0.627295,-0.558263,-0.343993,-0.165345,-0.100172,0.173321
1072,2912092951,0.419517,-0.628850,-0.555762,-0.345953,-0.186999,-0.063743,0.112835
1073,2912126285,0.419217,-0.630006,-0.553659,-0.347583,-0.147410,0.034716,0.204255
1074,2912159619,0.418877,-0.630987,-0.551853,-0.349080,-0.036004,0.082603,0.221125
1075,2912192953,0.418630,-0.631706,-0.550285,-0.350550,-0.010022,0.121761,0.129417
1076,2912226287,0.418539,-0.632322,-0.548819,-0.351843,0.034792,0.054986,0.132221
1077,2912259621,0.418365,-0.633107,-0.547196,-0.353164,0.037969,0.015730,0.136707
1078,2912292955,0.418152,-0.633912,-0.545551,-0.354515,-0.020077,0.080013,0.112003
1079,2912326289,0.417896,-0.634655,-0.544179,-0.355594,-0.048627,0.059423,0.215890
1080,2912359623,0.417639,-0.635330,-0.542968,-0.356541,-0.061407,0.006990,0.203094
1081,2912392957,0.417621,-0.635800,-0.541801,-0.357498,0.078308,0.002258,0.175075
1082,2912426291,0.417692,-0.636242,-0.540594,-0.358454,0.100172,-0.026008,0.183574
1083,2912459625,0.417536,-0.636979,-0.539167,-0.359475,0.083710,-0.067669,0.171732
1084,2912492959,0.417339,-0.637902,-0.537475,-0.360598,-0.013194,-0.002270,0.165112
1085,2912526293,0.417320,-0.638699,-0.535761,-0.361760,0.041513,0.057914,0.210237
1086,2912559627,0.417088,-0.639576,-0.534019,-0.363050,0.006165,0.018792,0.127453
1087,2912592961,0.416775,-0.640532,-0.532343,-0.364183,-0.053409,-0.017388,0.107880
1088,2912626295,0.416635,-0.641348,-0.530862,-0.365069,-0.071717,0.062801,0.170953
1089,2912659629,0.416683,-0.641923,-0.529636,-0.365784,-0.055471,0.168971,0.248153
1090,2912692963,0.416795,-0.642234,-0.528731,-0.366418,0.040389,0.241100,0.245059
1091,2912726297,0.416832,-0.642504,-0.527960,-0.367016,-0.007909,0.131313,0.107210
1092,2912759631,0.416869,-0.642796,-0.527278,-0.367441,-0.004767,0.019840,0.076266
1093,2912792965,0.416855,-0.643181,-0.526538,-0.367844,-0.018135,-0.014787,0.049412
1094,2912826299,0.416785,-0.643697,-0.525771,-0.368117,-0.077777,0.065116,0.081997
1095,2912859633,0.416763,-0.644120,-0.525372,-0.367974,-0.091599,0.052019,0.269291
1096,2912892967,0.416756,-0.644340,-0.525414,-0.367535,-0.062442,0.085436,0.236475
1097,2912926301,0.416781,-0.644361,-0.525495,-0.367353,-0.032522,0.163846,-0.028909
1098,2912959635,0.416999,-0.644297,-0.525819,-0.366756,-0.095324,0.059897,0.228445
1099,2912992969,0.417211,-0.644117,-0.526480,-0.365881,-0.117224,0.086968,0.333020
1100,2913026303,0.417492,-0.643609,-0.527228,-0.365377,-0.018899,0.190052,0.013852
1101,2913059637,0.417902,-0.643006,-0.528104,-0.364704,-0.042320,-0.010472,0.062285
1102,2913092971,0.417914,-0.642751,-0.529117,-0.363670,-0.134104,-0.161076,0.169634
1103,2913126305,0.417894,-0.642486,-0.530099,-0.362730,-0.141665,0.087340,0.060954
1104,2913159639,0.418134,-0.641777,-0.531398,-0.361807,-0.065813,0.112743,0.030433
1105,2913192973,0.418389,-0.641094,-0.533032,-0.360317,-0.115514,-0.105984,0.114956
1106,2913226307,0.418304,-0.640735,-0.534730,-0.358532,-0.175212,-0.094972,0.108612
1107,2913259641,0.418588,-0.639813,-0.537027,-0.356408,-0.066606,0.126734,0.207631
1108,2913292975,0.419283,-0.638260,-0.539836,-0.354125,-0.011546,0.209850,0.246072
1109,2913326309,0.419864,-0.636779,-0.542695,-0.351725,0.026314,0.098161,0.176284
1110,2913359643,0.420054,-0.635697,-0.545293,-0.349430,0.080823,0.002148,0.128656
1111,2913392977,0.420359,-0.634524,-0.547783,-0.347294,0.073130,0.066871,0.146661
1112,2913426311,0.420801,-0.633207,-0.550353,-0.345093,-0.046026,0.065817,0.293731
1113,2913459645,0.421322,-0.631701,-0.553066,-0.342873,-0.067610,0.113288,0.216726
1114,2913492979,0.421860,-0.630101,-0.555812,-0.340708,-0.071070,0.087913,0.098982
1115,2913526313,0.422601,-0.628109,-0.559060,-0.338144,-0.145420,-0.047108,0.209317
1116,2913559647,0.423634,-0.625634,-0.562864,-0.335116,-0.189019,-0.183459,0.286246
1117,2913592981,0.424738,-0.622956,-0.566710,-0.332213,-0.001085,-0.257664,0.203574
1118,2913626315,0.425892,-0.620255,-0.570264,-0.329698,0.054855,-0.425923,0.098712
1119,2913659649,0.427310,-0.617614,-0.573571,-0.327074,-0.044720,-0.363072,0.108841
1120,2913692983,0.428662,-0.615066,-0.576878,-0.324277,-0.046767,-0.150589,0.267406
1121,2913726317,0.429766,-0.612467,-0.580302,-0.321616,-0.029953,-0.139598,0.225139
1122,2913759651,0.431166,-0.609560,-0.584022,-0.318516,-0.039794,-0.194255,0.073475
1123,2913792985,0.432699,-0.606592,-0.587829,-0.315080,-0.004292,-0.168225,0.282565
1124,2913826319,0.434743,-0.603072,-0.591485,-0.312170,0.129429,0.181793,0.315807
1125,2913859653,0.437049,-0.599232,-0.595207,-0.309256,0.270507,0.094312,0.158755
1126,2913892987,0.439137,-0.595773,-0.598815,-0.305999,0.246178,-0.180567,0.139198
1127,2913926321,0.441114,-0.592732,-0.601943,-0.302909,0.069314,-0.109917,0.215450
1128,2913959655,0.443250,-0.589458,-0.605027,-0.300021,0.007513,0.006559,0.236567
1129,2913992989,0.445411,-0.586048,-0.608172,-0.297128,0.082919,-0.002129,0.069633
1130,2914026323,0.447599,-0.582696,-0.611349,-0.293895,0.096316,-0.041718,0.168363
1131,2914059657,0.449833,-0.579506,-0.614244,-0.290739,0.115357,0.177263,0.279144
1132,2914092991,0.452057,-0.576146,-0.617247,-0.287591,0.025730,0.405154,0.183742
1133,2914126325,0.453792,-0.573274,-0.619792,-0.285113,0.229316,0.259235,0.117095
1134,2914159659,0.455069,-0.571358,-0.621582,-0.283020,0.247322,0.020547,0.145252
1135,2914192993,0.456192,-0.569863,-0.622843,-0.281448,0.188530,-0.004401,0.132948
1136,2914226327,0.457294,-0.568573,-0.623770,-0.280214,0.126785,-0.014145,0.249812
1137,2914259661,0.457944,-0.567923,-0.624230,-0.279444,0.171348,0.026126,0.275008
1138,2914292995,0.458108,-0.568145,-0.623860,-0.279551,0.278273,-0.092711,0.105177
1139,2914326329,0.457930,-0.569209,-0.622665,-0.280340,0.279604,-0.094828,0.127069
1140,2914359663,0.457580,-0.570719,-0.621093,-0.281327,0.097407,-0.080278,0.236561
1141,2914392997,0.456916,-0.572527,-0.619500,-0.282244,0.043428,-0.091389,0.171342
1142,2914426331,0.456026,-0.574725,-0.617556,-0.283476,0.067072,-0.096012,0.170121
1143,2914459665,0.455180,-0.576996,-0.615288,-0.285146,0.126104,0.004463,0.284436
1144,2914492999,0.454201,-0.579436,-0.612873,-0.286956,0.129419,0.091959,0.161838
1145,2914526333,0.452819,-0.582437,-0.610110,-0.288947,0.198171,0.004919,0.182723
1146,2914559667,0.451371,-0.585740,-0.606767,-0.291562,0.168064,-0.052453,0.213619
1147,2914593001,0.449970,-0.589137,-0.603051,-0.294579,0.049698,-0.080529,0.162871
1148,2914626335,0.448556,-0.592440,-0.599437,-0.297470,-0.094323,-0.121535,0.204982
1149,2914659669,0.447327,-0.595381,-0.596097,-0.300150,-0.086761,-0.205882,0.186108
1150,2914693003,0.446286,-0.598032,-0.592953,-0.302645,-0.039182,-0.218665,0.136583
1151,2914726337,0.445562,-0.600258,-0.590152,-0.304775,-0.036263,-0.189502,0.218519
1152,2914759671,0.444660,-0.602686,-0.587056,-0.307268,-0.031065,-0.163567,0.133486
1153,2914793005,0.443581,-0.605357,-0.583689,-0.309981,-0.036974,-0.122228,0.202401
1154,2914826339,0.442505,-0.608050,-0.580358,-0.312491,0.052659,-0.136072,0.229977
1155,2914859673,0.441367,-0.610847,-0.576722,-0.315364,0.006129,-0.147152,0.252517
1156,2914893007,0.440381,-0.613533,-0.572651,-0.318928,0.110237,-0.115437,0.258643
1157,2914926341,0.439487,-0.616253,-0.568198,-0.322857,0.147799,-0.239063,0.216995
1158,2914959675,0.438374,-0.619452,-0.563082,-0.327180,0.151527,-0.351874,0.170229
1159,2914993009,0.437061,-0.623055,-0.557290,-0.331979,0.057325,-0.431674,0.173314
1160,2915026343,0.435576,-0.626913,-0.551054,-0.337040,-0.077100,-0.452277,0.197404
1161,2915059677,0.433763,-0.631045,-0.544489,-0.342293,-0.205778,-0.348801,0.138973
1162,2915093011,0.431973,-0.635087,-0.537986,-0.347328,-0.146435,-0.205079,0.166784
1163,2915126345,0.430163,-0.639021,-0.531513,-0.352289,-0.086033,0.048630,0.143782
1164,2915159679,0.428502,-0.642547,-0.525333,-0.357137,-0.047731,0.220396,0.134043
1165,2915193013,0.427037,-0.645713,-0.519580,-0.361568,-0.149262,0.249926,0.123449
1166,2915226347,0.425675,-0.648591,-0.514549,-0.365200,-0.277981,0.344674,0.037457
1167,2915259681,0.424566,-0.650750,-0.510852,-0.367831,-0.268164,0.401931,0.103541
1168,2915293015,0.423780,-0.651941,-0.508830,-0.369428,-0.074291,0.248982,0.082425
1169,2915326349,0.422832,-0.653148,-0.507321,-0.370457,-0.039568,0.107413,0.093109
1170,2915359683,0.421937,-0.654441,-0.505887,-0.371156,0.039873,0.199998,0.082696
1171,2915393017,0.421434,-0.655206,-0.505052,-0.371513,-0.122654,0.492145,0.136318
1172,2915426351,0.421321,-0.655433,-0.505256,-0.370966,-0.158679,0.411994,0.195801
1173,2915459685,0.421508,-0.655175,-0.506038,-0.370140,0.013816,0.165265,0.212875
1174,2915493019,0.421795,-0.654804,-0.506381,-0.370002,0.196347,0.043151,0.174460
1175,2915526353,0.421911,-0.654823,-0.506122,-0.370189,0.050067,-0.087591,0.179413
1176,2915559687,0.421622,-0.655229,-0.505774,-0.370276,0.060462,-0.156658,0.121802
1177,2915593021,0.421249,-0.655759,-0.505220,-0.370519,-0.034139,-0.058728,0.152205
1178,2915626355,0.421436,-0.655863,-0.504848,-0.370629,-0.086810,0.147722,0.268104
1179,2915659689,0.421842,-0.655645,-0.504972,-0.370383,0.034268,0.040869,0.229052
1180,2915693023,0.421755,-0.655733,-0.505056,-0.370212,0.128526,-0.173614,0.096671
1181,2915726357,0.421645,-0.656140,-0.504414,-0.370493,0.107715,-0.110977,0.239468
1182,2915759691,0.421804,-0.656397,-0.503376,-0.371267,0.059297,-0.099433,0.266644
1183,2915793025,0.421642,-0.656938,-0.502097,-0.372226,-0.018821,-0.213813,0.024408
1184,2915826359,0.421196,-0.657893,-0.500609,-0.373047,-0.154807,0.000009,0.070912
1185,2915859693,0.421418,-0.658138,-0.499896,-0.373319,-0.222238,0.198205,0.257332
1186,2915893027,0.421913,-0.657747,-0.500202,-0.373039,-0.187566,0.168234,0.162504
1187,2915926361,0.422364,-0.657344,-0.500688,-0.372588,-0.004708,0.103471,0.129517
1188,2915959695,0.423039,-0.656700,-0.501327,-0.372096,0.092265,0.190894,0.161304
1189,2915993029,0.423654,-0.655958,-0.502295,-0.371400,-0.058872,0.123835,0.157004
1190,2916026363,0.424196,-0.655176,-0.503455,-0.370590,-0.142761,0.129042,0.150117
1191,2916059697,0.424974,-0.654047,-0.505024,-0.369556,-0.115809,0.216502,0.149442
1192,2916093031,0.425938,-0.652536,-0.507191,-0.368146,-0.038571,0.186270,0.189784
1193,2916126365,0.426723,-0.651141,-0.509551,-0.366446,-0.034515,0.035624,0.062964
1194,2916159699,0.427565,-0.649642,-0.511985,-0.364727,-0.020400,0.148108,0.175059
1195,2916193033,0.428531,-0.647784,-0.514753,-0.362998,-0.073319,0.109767,0.214866
1196,2916226367,0.429169,-0.646045,-0.517737,-0.361096,-0.055195,-0.101297,0.130815
1197,2916259701,0.429775,-0.644466,-0.520577,-0.359107,-0.014126,-0.143963,0.128937
1198,2916293035,0.430770,-0.642577,-0.523505,-0.357038,-0.026952,-0.026071,0.184068
1199,2916326369,0.431778,-0.640561,-0.526576,-0.354920,-0.081191,-0.063214,0.183803
1200,2916359703,0.432659,-0.638608,-0.529695,-0.352719,0.042838,-0.207986,0.210689
1201,2916393037,0.433268,-0.637079,-0.532319,-0.350781,0.100729,-0.196773,0.123784
1202,2916426371,0.433938,-0.635756,-0.534543,-0.348966,-0.049183,-0.064458,0.128869
1203,2916459705,0.434582,-0.634269,-0.536951,-0.347170,0.015171,-0.059349,0.229970
1204,2916493039,0.435141,-0.632749,-0.539455,-0.345355,-0.020388,-0.030928,0.076628
1205,2916526373,0.435712,-0.631475,-0.541753,-0.343366,-0.026513,-0.006033,0.116899
1206,2916559707,0.436234,-0.630133,-0.544173,-0.341335,0.000635,-0.037148,0.263472
1207,2916593041,0.436758,-0.628544,-0.546734,-0.339498,0.025060,-0.075078,0.136174
1208,2916626375,0.437334,-0.627151,-0.548913,-0.337813,0.043918,0.034565,0.186370
1209,2916659709,0.437866,-0.625874,-0.550978,-0.336125,0.099501,0.002111,0.195575
1210,2916693043,0.438085,-0.624860,-0.552836,-0.334671,-0.010244,0.009878,0.194979
1211,2916726377,0.438619,-0.623666,-0.554521,-0.333411,-0.080885,0.102047,0.131219
1212,2916759711,0.439214,-0.622302,-0.556277,-0.332247,-0.036189,-0.028232,0.262263
1213,2916793045,0.439578,-0.621086,-0.558092,-0.330995,0.021808,-0.153777,0.174388
1214,2916826379,0.440093,-0.619945,-0.559584,-0.329929,0.050444,-0.091801,0.134015
1215,2916859713,0.440892,-0.618619,-0.560951,-0.329030,0.121375,-0.001175,0.253616
1216,2916893047,0.441282,-0.617644,-0.562279,-0.328071,0.153665,-0.112615,0.141673
1217,2916926381,0.441107,-0.617414,-0.563033,-0.327446,-0.011940,0.060951,0.103451
1218,2916959715,0.441084,-0.617050,-0.563699,-0.327014,0.025748,0.257874,0.241851
1219,2916993049,0.441641,-0.615893,-0.565083,-0.326055,-0.032514,0.153967,0.215297
1220,2917026383,0.442343,-0.614560,-0.566662,-0.324876,-0.041826,0.143575,0.166487
1221,2917059717,0.442921,-0.613269,-0.568203,-0.323834,-0.030742,0.234268,0.108296
1222,2917093051,0.443388,-0.611953,-0.569990,-0.322544,-0.075458,0.113285,0.117605
1223,2917126385,0.443826,-0.610363,-0.572373,-0.320729,-0.112463,0.026639,0.178283
1224,2917159719,0.444529,-0.608425,-0.575056,-0.318631,-0.136564,0.071818,0.136035
1225,2917193053,0.445465,-0.606284,-0.577682,-0.316649,-0.010481,0.122692,0.099190
1226,2917226387,0.446040,-0.604311,-0.580361,-0.314706,0.069458,-0.064703,0.165672
1227,2917259721,0.446068,-0.602858,-0.583041,-0.312492,-0.020031,-0.208829,0.071539
1228,2917293055,0.446118,-0.601646,-0.585403,-0.310332,-0.055846,-0.084163,0.169273
1229,2917326389,0.446359,-0.600056,-0.587878,-0.308380,0.002762,-0.019780,0.274739
1230,2917359723,0.446455,-0.598582,-0.590178,-0.306706,-0.011871,-0.038735,0.165798
1231,2917393057,0.446499,-0.597293,-0.592394,-0.304877,0.095628,-0.060026,0.194830
1232,2917426391,0.446396,-0.596222,-0.594283,-0.303447,0.130589,-0.036231,0.128667
1233,2917459725,0.446229,-0.595390,-0.595846,-0.302258,0.020730,-0.039974,0.092837
1234,2917493059,0.445862,-0.594838,-0.597178,-0.301256,0.012452,-0.105153,0.244231
1235,2917526393,0.445490,-0.594170,-0.598665,-0.300171,-0.105697,-0.082722,0.207782
1236,2917559727,0.445609,-0.592880,-0.600577,-0.298720,-0.134931,0.016305,0.165605
1237,2917593061,0.445888,-0.591374,-0.602531,-0.297354,0.031972,0.055113,0.156688
1238,2917626395,0.445737,-0.590396,-0.604076,-0.296386,0.137090,-0.027503,0.157847
1239,2917659729,0.445278,-0.589818,-0.605435,-0.295453,0.115509,-0.108977,0.220904
1240,2917693063,0.445002,-0.589152,-0.606683,-0.294636,-0.047449,-0.246308,0.160264
1241,2917726397,0.445018,-0.588235,-0.607898,-0.293941,-0.067770,-0.217362,0.145562
1242,2917759731,0.445054,-0.587056,-0.609546,-0.292826,-0.060244,-0.261330,0.210538
1243,2917793065,0.445129,-0.585870,-0.611200,-0.291638,-0.092750,-0.151761,0.207084
1244,2917826399,0.445347,-0.584450,-0.612785,-0.290826,-0.029415,0.076280,0.236163
1245,2917859733,0.445842,-0.582601,-0.614612,-0.289922,0.012166,0.041715,0.186438
1246,2917893067,0.446496,-0.580603,-0.616639,-0.288619,-0.077992,-0.121050,0.191398
1247,2917926401,0.447331,-0.578327,-0.618921,-0.287003,-0.045055,-0.230016,0.199895
1248,2917959735,0.448647,-0.575592,-0.621364,-0.285163,-0.159989,-0.094896,0.188184
1249,2917993069,0.450183,-0.572207,-0.624508,-0.282677,-0.247828,-0.056415,0.132755
1250,2918026403,0.451061,-0.569342,-0.627378,-0.280699,0.202691,0.120354,0.199101
1251,2918059737,0.451765,-0.566790,-0.629668,-0.279602,0.447406,0.203854,0.193730
1252,2918093071,0.452517,-0.564518,-0.631624,-0.278569,0.272722,0.172486,0.126740
1253,2918126405,0.453092,-0.562553,-0.633439,-0.277486,-0.097843,0.055778,0.206445
1254,2918159739,0.453555,-0.560484,-0.635318,-0.276619,-0.145275,0.023943,0.105168
1255,2918193073,0.454233,-0.558115,-0.637350,-0.275622,-0.053511,0.062458,0.118114
1256,2918226407,0.455152,-0.555273,-0.639880,-0.273977,-0.021644,-0.022341,0.244730
1257,2918259741,0.455741,-0.552689,-0.642398,-0.272327,0.047355,-0.064429,0.157590
1258,2918293075,0.456261,-0.550387,-0.644563,-0.271000,0.155771,0.027451,0.171653
1259,2918326409,0.456773,-0.548262,-0.646351,-0.270182,0.305047,-0.026974,0.199917
1260,2918359743,0.457102,-0.546505,-0.647946,-0.269366,0.201577,-0.247279,0.192150
1261,2918393077,0.457226,-0.545293,-0.649109,-0.268809,0.062367,-0.211030,0.152385
1262,2918426411,0.457278,-0.544290,-0.650046,-0.268490,0.041018,-0.060012,0.190632
1263,2918459745,0.457257,-0.543262,-0.651077,-0.268110,0.040905,0.018563,0.220551
1264,2918493079,0.457408,-0.541899,-0.652320,-0.267589,-0.020541,0.078483,0.159709
1265,2918526413,0.457417,-0.540684,-0.653473,-0.267218,0.076792,0.048345,0.174548
1266,2918559747,0.457136,-0.539960,-0.654216,-0.267343,0.179088,0.014405,0.215980
1267,2918593081,0.456628,-0.539688,-0.654673,-0.267644,0.200781,0.048754,0.185642
1268,2918626415,0.456030,-0.539741,-0.654796,-0.268254,0.201899,0.092712,0.076022
1269,2918659749,0.455174,-0.540457,-0.654315,-0.269436,0.267199,0.068298,0.230951
1270,2918693083,0.453884,-0.541891,-0.653324,-0.271132,0.315944,0.051802,0.269465
1271,2918726417,0.452489,-0.543785,-0.651908,-0.273075,0.281715,0.069567,0.128821
1272,2918759751,0.451033,-0.546014,-0.650161,-0.275190,0.249407,0.035005,0.231856
1273,2918793085,0.449570,-0.548345,-0.648285,-0.277367,0.217109,0.028688,0.261420
1274,2918826419,0.448080,-0.550815,-0.646296,-0.279518,0.189418,0.067823,0.125129
1275,2918859753,0.446512,-0.553555,-0.643917,-0.282095,0.304197,-0.069022,0.200707
1276,2918893087,0.444933,-0.556675,-0.640970,-0.285143,0.335585,-0.219481,0.225625
1277,2918926421,0.443231,-0.560246,-0.637643,-0.288244,0.211903,-0.163558,0.131097
1278,2918959755,0.441390,-0.564054,-0.634137,-0.291357,0.090969,-0.150193,0.117194
1279,2918993089,0.439486,-0.568012,-0.630393,-0.294654,0.043788,-0.204163,0.195700
1280,2919026423,0.437624,-0.571850,-0.626824,-0.297603,0.023329,-0.206701,0.225043
1281,2919059757,0.435969,-0.575420,-0.623325,-0.300484,0.031062,-0.029721,0.151600
1282,2919093091,0.434366,-0.578985,-0.619557,-0.303732,0.047966,-0.011395,0.203331
1283,2919126425,0.432637,-0.582707,-0.615708,-0.306892,0.039331,-0.122189,0.218225
1284,2919159759,0.431133,-0.586272,-0.611850,-0.309920,-0.038026,-0.049049,0.134060
1285,2919193093,0.429910,-0.589481,-0.607908,-0.313272,-0.098373,-0.013590,0.198680
1286,2919226427,0.428741,-0.592343,-0.604255,-0.316525,-0.069895,-0.206510,0.270187
1287,2919259761,0.427522,-0.595277,-0.600573,-0.319663,-0.096298,-0.162116,0.103898
1288,2919293095,0.426549,-0.597957,-0.597029,-0.322586,-0.134833,-0.042473,0.147656
1289,2919326429,0.425712,-0.600242,-0.593791,-0.325410,-0.106015,-0.112094,0.224966
1290,2919359763,0.424868,-0.602391,-0.590773,-0.328025,-0.119058,-0.206948,0.084073
1291,2919393097,0.424224,-0.604307,-0.587964,-0.330372,-0.056805,-0.017043,0.188783
1292,2919426431,0.424038,-0.605492,-0.585809,-0.332265,-0.004179,0.088138,0.317548
1293,2919459765,0.423536,-0.606884,-0.583571,-0.334299,0.028536,-0.099222,0.246631
1294,2919493099,0.423161,-0.608289,-0.581263,-0.336236,0.066553,-0.089425,0.146564
1295,2919526433,0.423284,-0.609278,-0.578877,-0.338399,0.148702,-0.111854,0.237045
1296,2919559767,0.423767,-0.609931,-0.576622,-0.340462,0.153708,-0.182451,0.275073
1297,2919593101,0.424087,-0.611005,-0.573880,-0.342763,0.048856,-0.284608,0.082079
1298,2919626435,0.424183,-0.612511,-0.570705,-0.345249,-0.023116,-0.185715,0.111278
1299,2919659769,0.424456,-0.613686,-0.567840,-0.347543,0.030956,-0.093831,0.299826
1300,2919693103,0.424857,-0.614642,-0.565149,-0.349743,-0.088652,-0.090323,0.164241
1301,2919726437,0.425283,-0.615849,-0.561967,-0.352219,-0.002408,0.020692,0.136636
1302,2919759771,0.425914,-0.616858,-0.558662,-0.354939,0.144891,-0.054003,0.350797
1303,2919793105,0.426486,-0.617888,-0.555121,-0.358002,0.201645,-0.295115,0.280908
1304,2919826439,0.426946,-0.619372,-0.551093,-0.361099,0.159982,-0.375855,0.072532
1305,2919859773,0.426840,-0.621619,-0.546338,-0.364573,0.100924,-0.326887,0.092015
1306,2919893107,0.426327,-0.624262,-0.541344,-0.368092,-0.135148,0.015638,0.087803
1307,2919926441,0.425947,-0.626605,-0.536869,-0.371093,-0.049253,0.423973,0.169733
1308,2919959775,0.425545,-0.628669,-0.532995,-0.373637,-0.190252,0.382398,0.172862
1309,2919993109,0.425306,-0.630537,-0.529252,-0.376076,0.023072,0.247668,0.262118
1310,2920026443,0.424923,-0.632368,-0.525557,-0.378607,0.306473,0.117578,-0.001167
1311,2920059777,0.424028,-0.634982,-0.521119,-0.381359,0.010990,0.234542,-0.105005
1312,2920093111,0.423357,-0.637595,-0.517045,-0.383285,-0.019385,0.387528,0.281110
1313,2920126445,0.422430,-0.640021,-0.513857,-0.384550,-0.254179,0.323953,0.158011
1314,2920159779,0.421964,-0.641633,-0.511956,-0.384912,-0.367549,0.475774,0.011209
1315,2920193113,0.422335,-0.642080,-0.511475,-0.384398,-0.138630,0.405261,0.184074
1316,2920226447,0.422727,-0.642212,-0.511665,-0.383492,-0.027689,0.210836,0.191035
1317,2920259781,0.423217,-0.642230,-0.512004,-0.382468,-0.027545,0.198404,0.072720
1318,2920293115,0.423781,-0.642198,-0.512478,-0.381261,-0.078951,-0.061098,0.142226
1319,2920326449,0.424087,-0.642452,-0.512880,-0.379949,-0.133762,-0.210982,0.178982
1320,2920359783,0.424404,-0.642648,-0.513198,-0.378833,-0.044003,0.087264,0.080131
1321,2920393117,0.424794,-0.642565,-0.513825,-0.377685,-0.099738,0.142285,0.119891
1322,2920426451,0.425019,-0.642724,-0.514756,-0.375889,-0.199663,-0.053367,0.237359
1323,2920459785,0.424935,-0.642979,-0.515628,-0.374350,-0.067371,0.043169,0.105756
1324,2920493119,0.424928,-0.643004,-0.516578,-0.373001,-0.058098,-0.018758,-0.003078
1325,2920526453,0.424974,-0.643166,-0.517667,-0.371158,-0.124360,-0.185168,0.301144
1326,2920559787,0.424917,-0.643447,-0.518547,-0.369503,-0.058462,-0.015721,0.231503
1327,2920593121,0.425142,-0.643155,-0.519769,-0.368032,0.043777,0.013662,0.067986
1328,2920626455,0.425388,-0.642792,-0.521361,-0.366126,-0.214308,-0.205992,0.048087
1329,2920659789,0.425250,-0.642744,-0.523256,-0.363659,-0.505193,-0.052994,0.137323
1330,2920693123,0.425337,-0.641970,-0.526070,-0.360853,-0.279345,0.103482,0.197088
1331,2920726457,0.426104,-0.639961,-0.529841,-0.357989,0.038172,0.196598,0.327584
1332,2920759791,0.427352,-0.637617,-0.533454,-0.355308,0.183240,0.099113,0.352073
1333,2920793125,0.428167,-0.635970,-0.536207,-0.353128,0.231555,-0.193739,0.202193
1334,2920826459,0.428603,-0.634893,-0.537949,-0.351885,0.098846,-0.248121,0.159871
1335,2920859793,0.429152,-0.633953,-0.539102,-0.351146,0.061933,-0.185900,0.334508
1336,2920893127,0.429599,-0.633266,-0.539752,-0.350840,0.088993,-0.240034,0.243399
1337,2920926461,0.429724,-0.633206,-0.539475,-0.351220,0.277302,-0.396927,0.176577
1338,2920959795,0.429685,-0.633829,-0.537961,-0.352463,0.255813,-0.343700,0.123200
1339,2920993129,0.429494,-0.635077,-0.535437,-0.354290,0.141229,-0.059208,0.267830
1340,2921026463,0.429061,-0.636632,-0.532577,-0.356329,0.079234,-0.032388,0.231537
1341,2921059797,0.428420,-0.638380,-0.529583,-0.358427,0.021935,0.018424,0.136611
1342,2921093131,0.427907,-0.640082,-0.526498,-0.360544,0.103052,-0.018437,0.189886
1343,2921126465,0.427350,-0.641873,-0.523305,-0.362663,0.047849,-0.171572,0.242583
1344,2921159799,0.426734,-0.643773,-0.520042,-0.364710,-0.004625,-0.039669,0.132370
1345,2921193133,0.426250,-0.645452,-0.517101,-0.366485,-0.061381,0.100196,0.078457
1346,2921226467,0.425637,-0.647167,-0.514212,-0.368232,-0.079994,0.024668,0.166785
1347,2921259801,0.425002,-0.648792,-0.511477,-0.369911,0.041125,-0.010567,0.151812
1348,2921293135,0.424252,-0.650591,-0.508606,-0.371567,-0.038777,0.091600,0.101498
1349,2921326469,0.423785,-0.652146,-0.505882,-0.373092,-0.053923,0.119078,0.289707
1350,2921359803,0.423230,-0.653571,-0.503344,-0.374658,-0.055755,-0.121750,0.274495
1351,2921393137,0.422390,-0.655177,-0.500574,-0.376507,-0.081267,-0.226322,0.024703
1352,2921426471,0.421860,-0.656702,-0.497682,-0.378273,-0.068979,-0.008024,0.082470
1353,2921459805,0.421628,-0.657884,-0.495215,-0.379714,-0.079249,-0.014300,0.216009
1354,2921493139,0.421270,-0.658960,-0.493142,-0.380942,-0.062663,-0.029848,0.180526
1355,2921526473,0.420675,-0.660167,-0.490957,-0.382329,0.038464,-0.050024,0.150505
1356,2921559807,0.420009,-0.661539,-0.488353,-0.384020,-0.025605,-0.020208,0.113166
1357,2921593141,0.419654,-0.662672,-0.486111,-0.385298,-0.157298,0.109003,0.075306
1358,2921626475,0.419747,-0.663181,-0.484837,-0.385926,-0.270664,0.257842,0.180173
1359,2921659809,0.420439,-0.662826,-0.484726,-0.385920,-0.184600,0.299199,0.195808
1360,2921693143,0.421323,-0.662005,-0.485612,-0.385253,-0.149871,0.288608,0.105016
1361,2921726477,0.422350,-0.660741,-0.487363,-0.384084,-0.128196,0.290094,0.091605
1362,2921759811,0.423597,-0.659043,-0.489862,-0.382445,-0.222148,0.195275,0.192090
1363,2921793145,0.424787,-0.657145,-0.493005,-0.380348,-0.168893,-0.007360,0.113223
1364,2921826479,0.425850,-0.655255,-0.496111,-0.378375,-0.096655,-0.051274,0.124022
1365,2921859813,0.427121,-0.653201,-0.499007,-0.376682,0.004952,0.033698,0.185967
1366,2921893147,0.428094,-0.651429,-0.501730,-0.375026,-0.006335,-0.017321,0.217475
1367,2921926481,0.428703,-0.650005,-0.504406,-0.373206,-0.023733,0.007257,0.091326
1368,2921959815,0.429365,-0.648492,-0.507045,-0.371498,-0.063019,0.105545,0.177093
1369,2921993149,0.430356,-0.646591,-0.509788,-0.369907,0.001442,0.068074,0.232015
1370,2922026483,0.431030,-0.644875,-0.512517,-0.368344,0.057533,-0.078931,0.120224
1371,2922059817,0.431435,-0.643575,-0.514806,-0.366948,0.212187,-0.118562,0.142409
1372,2922093151,0.431625,-0.642787,-0.516323,-0.365975,0.147184,-0.011306,0.153997
1373,2922126485,0.431811,-0.642278,-0.517663,-0.364752,-0.202938,0.042014,0.184860
1374,2922159819,0.431907,-0.641605,-0.519459,-0.363267,-0.070016,0.159812,0.216678
1375,2922193153,0.432185,-0.640267,-0.522110,-0.361492,-0.025925,0.174948,0.111790
1376,2922226487,0.432708,-0.638877,-0.524675,-0.359608,0.023670,0.166139,0.239873
1377,2922259821,0.433452,-0.637291,-0.527424,-0.357499,0.024762,0.060789,0.142630
1378,2922293155,0.433636,-0.636045,-0.529939,-0.355770,-0.064750,0.077182,0.100333
1379,2922326489,0.434118,-0.634476,-0.532710,-0.353842,-0.088537,0.125488,0.202458
1380,2922359823,0.434689,-0.632687,-0.535874,-0.351560,-0.168842,-0.017834,0.132166
1381,2922393157,0.435359,-0.630692,-0.539247,-0.349150,-0.121505,-0.065136,0.208923
1382,2922426491,0.436536,-0.628154,-0.542824,-0.346701,-0.042061,-0.039013,0.187575
1383,2922459825,0.437836,-0.625487,-0.546483,-0.344128,-0.009896,-0.180835,0.019087
1384,2922493159,0.438884,-0.623071,-0.550120,-0.341369,0.016241,-0.200753,0.190298
1385,2922526493,0.439785,-0.620853,-0.553628,-0.338569,-0.057397,-0.051664,0.167349
1386,2922559827,0.440672,-0.618576,-0.557246,-0.335635,-0.062576,-0.047403,0.124008
1387,2922593161,0.441494,-0.616305,-0.560767,-0.332856,-0.057642,-0.055762,0.176524
1388,2922626495,0.442575,-0.613783,-0.564345,-0.330021,0.063716,0.044901,0.222800
1389,2922659829,0.443361,-0.611481,-0.567791,-0.327318,0.093256,-0.017278,0.053008
1390,2922693163,0.444055,-0.609388,-0.571121,-0.324475,0.060508,-0.089310,0.224531
1391,2922726497,0.444800,-0.607292,-0.574198,-0.321943,0.097491,-0.061821,0.299429
1392,2922759831,0.445158,-0.605664,-0.576815,-0.319832,0.001685,-0.111273,0.153965
1393,2922793165,0.445357,-0.604344,-0.579154,-0.317818,-0.049979,-0.092666,0.122776
1394,2922826499,0.445711,-0.602862,-0.581473,-0.315895,-0.066037,-0.097744,0.128988
1395,2922859833,0.446207,-0.601096,-0.583919,-0.314043,-0.118641,-0.010020,0.262475
1396,2922893167,0.446544,-0.599399,-0.586416,-0.312150,-0.038464,0.009507,0.194093
1397,2922926501,0.446554,-0.598186,-0.588370,-0.310783,0.088975,-0.016072,0.116333
1398,2922959835,0.446420,-0.597191,-0.589978,-0.309840,0.224609,-0.150832,0.211792
1399,2922993169,0.446199,-0.596425,-0.591410,-0.308902,0.008036,-0.162913,0.182478
1400,2923026503,0.445789,-0.596114,-0.592337,-0.308316,-0.009053,0.069122,0.156082
1401,2923059837,0.445305,-0.595819,-0.593158,-0.308008,-0.169361,0.225793,0.142743
1402,2923093171,0.444862,-0.595220,-0.594334,-0.307538,-0.101529,0.086044,0.264256
1403,2923126505,0.444620,-0.594175,-0.595961,-0.306759,-0.312563,-0.071436,0.147148
1404,2923159839,0.444838,-0.592581,-0.598020,-0.305517,-0.239034,0.022640,0.123640
1405,2923193173,0.445109,-0.590585,-0.600548,-0.304025,-0.107360,-0.062020,0.123279
1406,2923226507,0.444885,-0.588851,-0.603110,-0.302641,-0.067440,-0.078846,0.168526
1407,2923259841,0.445379,-0.586509,-0.605862,-0.300963,-0.083128,-0.055583,0.214935
1408,2923293175,0.446258,-0.583783,-0.608683,-0.299262,0.011995,0.005726,0.165722
1409,2923326509,0.446645,-0.581576,-0.611217,-0.297816,0.119664,-0.062631,0.161813
1410,2923359843,0.446959,-0.579508,-0.613862,-0.295930,-0.004378,-0.117969,0.128107
1411,2923393177,0.447412,-0.577240,-0.616616,-0.293943,-0.090163,-0.034363,0.131763
1412,2923426511,0.448084,-0.574515,-0.619447,-0.292301,-0.123450,0.137289,0.263666
1413,2923459845,0.449215,-0.571147,-0.622602,-0.290458,-0.085421,0.299674,0.226013
1414,2923493179,0.450454,-0.567315,-0.626349,-0.287984,0.048383,0.039895,0.105220
1415,2923526513,0.451644,-0.563376,-0.630394,-0.285008,0.114683,-0.168033,0.097917
1416,2923559847,0.452796,-0.559478,-0.634374,-0.282012,-0.006391,-0.100779,0.134608
1417,2923593181,0.454233,-0.555154,-0.638606,-0.278678,-0.099222,0.094054,0.225249
1418,2923626515,0.455558,-0.550730,-0.643063,-0.275019,0.038805,0.060419,0.218321
1419,2923659849,0.456496,-0.546774,-0.647293,-0.271410,0.182733,0.000858,0.187480
1420,2923693183,0.457291,-0.543377,-0.650726,-0.268672,0.418403,0.029532,0.173278
1421,2923726517,0.458208,-0.540280,-0.653596,-0.266378,0.354928,-0.023411,0.217896
1422,2923759851,0.458901,-0.537675,-0.656186,-0.264076,0.254273,-0.124911,0.187120
1423,2923793185,0.459291,-0.535685,-0.658297,-0.262183,0.194834,-0.093626,0.147808
1424,2923826519,0.459466,-0.534128,-0.659994,-0.260784,0.249558,-0.100512,0.278742
1425,2923859853,0.459637,-0.532825,-0.661343,-0.259730,0.206936,-0.017421,0.200270
1426,2923893187,0.459920,-0.531646,-0.662475,-0.258757,0.195209,-0.028577,0.127623
1427,2923926521,0.459979,-0.531074,-0.663097,-0.258234,0.280601,-0.115713,0.152631
1428,2923959855,0.459686,-0.531163,-0.663214,-0.258269,0.269620,-0.147438,0.206539
1429,2923993189,0.459512,-0.531368,-0.663135,-0.258362,0.116491,-0.034936,0.204728
1430,2924026523,0.459170,-0.531830,-0.662908,-0.258600,0.068830,-0.046861,0.147883
1431,2924059857,0.458514,-0.532547,-0.662751,-0.258692,0.025210,-0.101189,0.185556
1432,2924093191,0.457856,-0.533394,-0.662413,-0.258978,0.102167,0.020461,0.207551
1433,2924126525,0.457162,-0.534477,-0.661783,-0.259580,0.270795,0.071168,0.124290
1434,2924159859,0.456168,-0.536157,-0.660812,-0.260337,0.356049,0.113976,0.268044
1435,2924193193,0.455024,-0.538331,-0.659392,-0.261451,0.233090,0.062582,0.229001
1436,2924226527,0.453669,-0.541093,-0.657404,-0.263105,0.147261,0.014282,0.169363
1437,2924259861,0.452290,-0.543994,-0.655273,-0.264807,0.118054,-0.033471,0.225119
1438,2924293195,0.450806,-0.546905,-0.653240,-0.266361,0.113798,-0.044384,0.267340
1439,2924326529,0.449197,-0.549935,-0.651137,-0.267985,0.093107,0.098451,0.151975
1440,2924359863,0.447550,-0.553195,-0.648673,-0.269998,0.195482,0.169487,0.122649
1441,2924393197,0.445775,-0.556907,-0.645633,-0.272580,0.189992,0.038293,0.256214
1442,2924426531,0.443852,-0.560795,-0.642518,-0.275095,0.064706,0.020685,0.288600
1443,2924459865,0.441942,-0.564552,-0.639354,-0.277841,-0.004910,0.119302,0.102212
1444,2924493199,0.440237,-0.568090,-0.636098,-0.280796,0.078825,-0.010180,0.112890
1445,2924526533,0.438507,-0.571679,-0.632936,-0.283354,0.028079,-0.205438,0.171437
1446,2924559867,0.436654,-0.575565,-0.629512,-0.285963,-0.005104,-0.114996,0.060072
1447,2924593201,0.434824,-0.579371,-0.625933,-0.288907,0.053591,-0.143867,0.083428
1448,2924626535,0.433043,-0.582874,-0.622658,-0.291599,-0.029843,-0.345294,0.228116
1449,2924659869,0.431396,-0.586378,-0.619121,-0.294533,-0.040470,-0.195197,0.198527
1450,2924693203,0.429739,-0.589837,-0.615433,-0.297758,0.061089,-0.193361,0.229184
1451,2924726537,0.428199,-0.592975,-0.611949,-0.300909,-0.010410,-0.169210,0.094847
1452,2924759871,0.427010,-0.595690,-0.608639,-0.303935,-0.280171,-0.064217,0.225773
1453,2924793205,0.426021,-0.598046,-0.605616,-0.306720,-0.293988,-0.191950,0.237652
1454,2924826539,0.424728,-0.600579,-0.602564,-0.309563,-0.167809,-0.271515,0.229520
1455,2924859873,0.423488,-0.602913,-0.599448,-0.312758,-0.017741,-0.009621,0.320519
1456,2924893207,0.422747,-0.604504,-0.596591,-0.316134,-0.097997,0.064664,0.245641
1457,2924926541,0.422173,-0.606008,-0.593701,-0.319446,-0.003949,-0.039438,0.238657
1458,2924959875,0.421702,-0.607445,-0.590695,-0.322892,0.052369,-0.062623,0.255665
1459,2924993209,0.421063,-0.608714,-0.587868,-0.326476,-0.106024,-0.127875,0.244589
1460,2925026543,0.420776,-0.609366,-0.585782,-0.329365,-0.406348,-0.162981,0.269009
1461,2925059877,0.420652,-0.609744,-0.583867,-0.332213,-0.450037,-0.197107,0.134975
1462,2925093211,0.420235,-0.610337,-0.581849,-0.335178,-0.262238,-0.207006,-0.027988
1463,2925126545,0.418978,-0.611680,-0.579855,-0.337751,-0.106759,-0.280157,0.070799
1464,2925159879,0.417325,-0.613413,-0.577595,-0.340515,0.044918,-0.063853,0.234327
1465,2925193213,0.416282,-0.614467,-0.575376,-0.343634,0.058845,0.082998,0.098117
1466,2925226547,0.415230,-0.615695,-0.572669,-0.347212,0.015485,-0.081514,0.074840
1467,2925259881,0.413696,-0.617519,-0.569640,-0.350767,-0.017195,-0.182872,0.237801
