sep=,
DeviceTag:,D_leg_new
FirmwareVersion:,2.2.1
AppVersion:,2023.6.0
SyncStatus:,Synced
OutputRate:,30Hz
FilterProfile:,General
Measurement Mode:,Sensor fusion Mode - Complete(Quaternion)
StartTime: ,2026-09-07_14:47:37_114 AEST
© Movella Technologies B. V. 2005-2026

PacketCounter,SampleTimeFine,Quat_W,Quat_X,Quat_Y,Quat_Z,FreeAcc_X,FreeAcc_Y,FreeAcc_Z
1,3840637726,0.116237,-0.793175,-0.176554,-0.571131,-1.973495,0.976360,1.025176
2,3840654393,0.136263,-0.801791,-0.170531,-0.556311,-0.040868,-0.677794,0.458517
3,3840687727,0.144330,-0.805840,-0.168870,-0.548884,0.622294,0.182668,-0.538960
4,3840721061,0.135360,-0.805985,-0.157236,-0.554384,2.524895,0.238544,-1.690370
5,3840754395,0.119477,-0.803696,-0.141035,-0.565604,1.682698,0.359217,1.423418
6,3840787729,0.111127,-0.797513,-0.131827,-0.578140,-0.354197,-1.165459,1.014253
7,3840821063,0.102473,-0.793309,-0.127873,-0.586353,0.117642,0.188867,-1.164512
8,3840854397,0.095606,-0.792607,-0.124562,-0.589168,0.161071,1.768747,-0.166504
9,3840887731,0.097724,-0.789119,-0.128243,-0.592702,-0.451488,1.157853,0.996063
10,3840921065,0.101219,-0.785226,-0.131915,-0.596467,0.499358,-0.835202,0.122637
11,3840954399,0.100496,-0.784757,-0.131712,-0.597252,0.546836,-1.254105,0.079608
12,3840987733,0.099276,-0.783483,-0.134594,-0.598484,0.986025,-1.529248,0.192627
13,3841021067,0.094275,-0.779064,-0.140640,-0.603649,1.267691,-2.436768,0.639375
14,3841054401,0.086372,-0.770494,-0.147778,-0.614036,1.983898,-3.243886,1.002804
15,3841087735,0.074393,-0.761616,-0.151540,-0.625653,0.803093,-3.189318,1.420907
16,3841121069,0.060940,-0.754133,-0.152627,-0.635826,-1.011123,-1.795964,0.354099
17,3841154403,0.048496,-0.746515,-0.160172,-0.643979,-1.456476,2.470565,-0.707195
18,3841187737,0.043090,-0.743050,-0.168696,-0.646191,-4.495464,5.055741,-2.080380
19,3841221071,0.039721,-0.744381,-0.172872,-0.643766,-0.765945,1.706602,-1.346513
20,3841254405,0.042880,-0.748311,-0.179672,-0.637111,-1.345924,-1.125405,-1.691775
21,3841287739,0.044115,-0.758156,-0.176923,-0.626060,-1.996953,-1.814738,-0.710886
22,3841321073,0.043550,-0.768483,-0.167006,-0.616155,0.635111,-0.173570,0.941107
23,3841354407,0.040296,-0.775003,-0.152692,-0.611909,2.474583,-0.584318,0.539595
24,3841387741,0.036801,-0.779024,-0.139206,-0.610236,1.531968,-1.783740,0.806720
25,3841421075,0.035513,-0.781431,-0.129339,-0.609407,-0.628623,-1.926873,-0.195988
26,3841454409,0.031991,-0.786009,-0.122978,-0.605015,-0.287191,-0.636824,-0.085099
27,3841487743,0.034420,-0.788548,-0.123851,-0.601389,1.748758,1.105987,2.948974
28,3841521077,0.040040,-0.789349,-0.122585,-0.600249,1.907879,-0.345755,0.687031
29,3841554411,0.042415,-0.790887,-0.118420,-0.598896,0.489494,-1.155001,-0.654775
30,3841587745,0.045419,-0.792363,-0.117289,-0.596944,-0.477782,-0.518475,0.232482
31,3841621079,0.050699,-0.792769,-0.119790,-0.595482,0.309775,0.212432,0.202408
32,3841654413,0.057029,-0.793244,-0.122946,-0.593629,0.710376,0.727579,0.242639
33,3841687747,0.063991,-0.793546,-0.125707,-0.591936,0.558054,0.481227,0.059943
34,3841721081,0.070492,-0.794101,-0.128083,-0.589940,0.131814,-0.031222,0.041370
35,3841754415,0.077048,-0.794712,-0.131852,-0.587462,-0.136757,0.024600,0.212236
36,3841787749,0.084849,-0.795098,-0.137353,-0.584598,0.036940,0.720015,0.086631
37,3841821083,0.093249,-0.794932,-0.143696,-0.582013,0.230263,0.591378,0.181274
38,3841854417,0.101877,-0.794182,-0.150422,-0.579888,0.131913,-0.008911,0.260183
39,3841887751,0.109973,-0.793581,-0.156975,-0.577489,0.168480,-0.545193,0.085709
40,3841921085,0.116189,-0.793554,-0.162466,-0.574784,0.202397,-0.040342,0.196651
41,3841954419,0.121800,-0.792925,-0.167546,-0.573031,0.273695,0.120141,0.235053
42,3841987753,0.126700,-0.791965,-0.172319,-0.571878,0.281535,-0.391156,0.087505
43,3842021087,0.129672,-0.791664,-0.175717,-0.570594,0.183013,-0.427641,0.261297
44,3842054421,0.131199,-0.791518,-0.178062,-0.569719,0.052629,-0.286916,0.144991
45,3842087755,0.131605,-0.791062,-0.179615,-0.569772,0.127449,-0.225889,0.216666
46,3842121089,0.130811,-0.790802,-0.180266,-0.570110,0.288736,-0.403707,0.160024
47,3842154423,0.128717,-0.790444,-0.180476,-0.571016,0.601763,-0.407150,0.232435
48,3842187757,0.124894,-0.789501,-0.180262,-0.573232,0.599271,-0.268394,0.238967
49,3842221091,0.119514,-0.787528,-0.179315,-0.577376,-0.095352,-0.320191,0.306180
50,3842254425,0.113129,-0.785775,-0.176680,-0.581845,-0.511461,-0.323244,0.113852
51,3842287759,0.105845,-0.785276,-0.172214,-0.585219,-1.004661,-0.221942,0.106358
52,3842321093,0.099155,-0.785595,-0.167107,-0.587439,-0.755807,0.018179,0.124689
53,3842354427,0.093012,-0.786283,-0.161557,-0.589074,-0.500013,-0.296737,0.199264
54,3842387761,0.086598,-0.787016,-0.155430,-0.590718,-0.032723,-0.581377,0.157721
55,3842421095,0.078764,-0.787879,-0.147797,-0.592621,0.014096,-0.658749,0.149022
56,3842454429,0.070033,-0.788645,-0.139045,-0.594812,0.072113,-0.492790,0.088868
57,3842487763,0.060974,-0.789168,-0.130092,-0.597137,0.039959,-0.243912,0.281885
58,3842521097,0.052529,-0.789373,-0.121459,-0.599482,0.035977,0.149147,0.237818
59,3842554431,0.044986,-0.789270,-0.113567,-0.601774,-0.260102,-0.223727,0.048734
60,3842587765,0.037931,-0.789138,-0.106099,-0.603793,-0.251809,-0.343444,0.104586
61,3842621099,0.031026,-0.789223,-0.098428,-0.605374,-0.195727,-0.072276,0.247981
62,3842654433,0.024562,-0.789314,-0.090321,-0.606813,-0.032368,-0.189875,0.103441
63,3842687767,0.018761,-0.789246,-0.082104,-0.608275,-0.046207,-0.387585,0.135138
64,3842721101,0.013491,-0.789285,-0.074228,-0.609375,0.096272,-0.317989,0.128211
65,3842754435,0.008886,-0.789281,-0.067082,-0.610292,0.256589,-0.431981,0.190376
66,3842787769,0.004330,-0.789221,-0.060548,-0.611103,0.290239,-0.156513,0.223258
67,3842821103,-0.001498,-0.788534,-0.053119,-0.612691,0.017940,0.259367,0.530434
68,3842854437,-0.007535,-0.787874,-0.045578,-0.614101,-0.137467,-0.074675,0.016226
69,3842887771,-0.011782,-0.787540,-0.039519,-0.614882,-0.370159,0.199796,-0.164688
70,3842921105,-0.015195,-0.787740,-0.033890,-0.614888,-0.346641,0.249221,-0.014894
71,3842954439,-0.016864,-0.788390,-0.029603,-0.614232,0.090589,0.312191,0.048844
72,3842987773,-0.017542,-0.789322,-0.025956,-0.613180,-0.243766,0.238152,0.252946
73,3843021107,-0.018177,-0.789935,-0.022339,-0.612514,-0.041355,0.134558,0.122498
74,3843054441,-0.019024,-0.790750,-0.018255,-0.611572,-0.033527,-0.147819,0.076033
75,3843087775,-0.019862,-0.791501,-0.014172,-0.610681,-0.245243,0.144088,0.240339
76,3843121109,-0.020812,-0.791882,-0.009986,-0.610238,-0.025729,0.259514,0.178049
77,3843154443,-0.020878,-0.792424,-0.006664,-0.609577,-0.075031,-0.075317,0.145934
78,3843187777,-0.021113,-0.792935,-0.003299,-0.608932,-0.025224,-0.278852,0.280437
79,3843221111,-0.021691,-0.793373,0.000258,-0.608349,0.138474,-0.505941,0.184628
80,3843254445,-0.022914,-0.793754,0.004271,-0.607793,0.323467,-0.215725,0.317662
81,3843287779,-0.023867,-0.794021,0.007717,-0.607373,0.201572,-0.012207,0.344157
82,3843321113,-0.024092,-0.794421,0.010323,-0.606802,0.129211,-0.055057,0.119189
83,3843354447,-0.023777,-0.795109,0.012359,-0.605875,0.007064,0.138211,0.182728
84,3843387781,-0.022980,-0.795904,0.013943,-0.604826,0.133818,0.161879,0.240697
85,3843421115,-0.021187,-0.796882,0.013994,-0.603601,0.167139,-0.095309,0.221731
86,3843454449,-0.018992,-0.797883,0.013341,-0.602366,0.079589,-0.095916,0.328832
87,3843487783,-0.017020,-0.798557,0.012720,-0.601544,0.378959,-0.042993,0.137971
88,3843521117,-0.014391,-0.799318,0.011332,-0.600630,0.234130,0.097743,0.222939
89,3843554451,-0.010802,-0.800094,0.008717,-0.599715,0.153417,0.131070,0.178680
90,3843587785,-0.006159,-0.801037,0.004648,-0.598566,-0.073125,-0.158554,0.203947
91,3843621119,-0.001380,-0.802402,0.000329,-0.596783,-0.264336,-0.143410,0.107113
92,3843654453,0.003286,-0.804200,-0.003580,-0.594340,-0.070126,-0.006321,0.214122
93,3843687787,0.007965,-0.806248,-0.007907,-0.591471,0.085963,0.144770,0.330132
94,3843721121,0.013085,-0.808405,-0.013468,-0.588329,0.353924,0.243831,0.193863
95,3843754455,0.018520,-0.810687,-0.019870,-0.584850,0.433010,0.516364,0.215056
96,3843787789,0.024276,-0.812770,-0.027526,-0.581428,0.636190,0.782033,0.199250
97,3843821123,0.031023,-0.814649,-0.037110,-0.577934,0.651885,1.106981,0.130720
98,3843854457,0.038754,-0.816206,-0.048750,-0.574395,0.550647,1.106731,0.108268
99,3843887791,0.047173,-0.816838,-0.062327,-0.571548,0.364855,1.193678,0.192210
100,3843921125,0.056426,-0.815695,-0.077085,-0.570541,0.386211,0.993662,0.343750
101,3843954459,0.064854,-0.813931,-0.090769,-0.570152,0.091410,-0.087240,-0.122772
102,3843987793,0.070804,-0.812569,-0.102040,-0.569480,-0.400270,-0.020129,-0.004622
103,3844021127,0.075689,-0.811314,-0.112599,-0.568651,-0.478660,0.398707,0.062863
104,3844054461,0.081267,-0.809891,-0.124305,-0.567470,-0.539611,0.248798,0.008941
105,3844087795,0.087012,-0.808941,-0.135972,-0.565292,-0.781627,0.219337,0.096912
106,3844121129,0.092248,-0.807874,-0.146624,-0.563322,-0.453377,0.148330,0.164186
107,3844154463,0.096269,-0.806736,-0.156053,-0.561745,0.217475,-0.382449,0.155074
108,3844187797,0.100107,-0.805507,-0.165605,-0.560101,0.038386,0.193652,0.355088
109,3844221131,0.103010,-0.803044,-0.174756,-0.560331,0.413417,0.233184,0.621120
110,3844254465,0.106139,-0.799181,-0.184616,-0.562105,-0.053181,-0.756153,-0.137803
111,3844287799,0.107479,-0.795810,-0.193796,-0.563541,-0.185119,-0.665748,0.143576
112,3844321133,0.110113,-0.792831,-0.202948,-0.564010,-0.421413,0.564869,0.032950
113,3844354467,0.113677,-0.790564,-0.211606,-0.563304,-1.017565,0.238752,-0.006166
114,3844387801,0.118142,-0.788320,-0.220369,-0.562167,-0.817398,-0.490901,-0.056853
115,3844421135,0.122983,-0.786542,-0.228871,-0.560220,-0.699808,-0.377018,0.237902
116,3844454469,0.127478,-0.785126,-0.236014,-0.558234,-0.511376,-0.213638,0.179498
117,3844487803,0.129644,-0.784203,-0.240529,-0.557104,-0.376225,-0.434937,0.221514
118,3844521137,0.129624,-0.784055,-0.242124,-0.556626,-0.284334,-0.513196,0.187946
119,3844554471,0.127818,-0.784781,-0.241380,-0.556344,-0.312230,-0.167201,0.140532
120,3844587805,0.125211,-0.785611,-0.239702,-0.556491,-0.296741,-0.091108,0.370422
121,3844621139,0.121786,-0.786416,-0.237028,-0.557259,-0.008825,-0.102948,0.180630
122,3844654473,0.117374,-0.787466,-0.233552,-0.558189,-0.078513,-0.123493,0.162661
123,3844687807,0.111858,-0.788597,-0.229169,-0.559540,-0.185539,-0.032498,0.104291
124,3844721141,0.105885,-0.789609,-0.224317,-0.561239,-0.295258,-0.039603,0.047606
125,3844754475,0.099522,-0.790636,-0.219142,-0.562999,-0.358203,0.000466,0.127802
126,3844787809,0.093306,-0.791881,-0.214325,-0.564167,-0.465732,0.145981,0.375855
127,3844821143,0.087796,-0.793017,-0.209858,-0.565134,-0.537074,0.158328,0.510370
128,3844854477,0.082752,-0.793742,-0.205560,-0.566455,-0.454152,-0.063198,0.188196
129,3844887811,0.078116,-0.794429,-0.201561,-0.567587,-0.587248,0.045055,0.092816
130,3844921145,0.073899,-0.794997,-0.197568,-0.568760,-0.406118,0.247560,0.049342
131,3844954479,0.069998,-0.795774,-0.193535,-0.569552,-0.502312,0.196164,0.133769
132,3844987813,0.067362,-0.796963,-0.189945,-0.569416,-0.453569,0.371964,0.348582
133,3845021147,0.065593,-0.797650,-0.187196,-0.569571,-0.095184,0.401979,0.249867
134,3845054481,0.064630,-0.797779,-0.185975,-0.569901,0.343918,0.042848,0.455023
135,3845087815,0.063588,-0.797316,-0.185689,-0.570758,0.351927,-0.433582,0.177433
136,3845121149,0.062623,-0.796931,-0.185898,-0.571334,-0.031026,0.071023,0.386445
137,3845154483,0.060659,-0.796238,-0.185636,-0.572596,-0.095192,0.344563,0.124361
138,3845187817,0.058637,-0.795724,-0.185631,-0.573521,-0.181459,0.389893,0.120241
139,3845221151,0.057857,-0.795239,-0.186348,-0.574041,-0.203756,0.345398,0.017707
140,3845254485,0.056841,-0.794789,-0.186635,-0.574672,-0.023786,0.322621,0.041334
141,3845287819,0.055996,-0.794242,-0.187049,-0.575377,0.118530,0.023100,0.116364
142,3845321153,0.055238,-0.793844,-0.187956,-0.575703,-0.099266,0.000741,0.256367
143,3845354487,0.054505,-0.793543,-0.189375,-0.575723,-0.277644,0.227567,0.320647
144,3845387821,0.054248,-0.793245,-0.191483,-0.575460,-0.362118,0.314400,0.278728
145,3845421155,0.054210,-0.792914,-0.193659,-0.575193,-0.139321,0.233130,0.208381
146,3845454489,0.054074,-0.792774,-0.196046,-0.574589,-0.041324,0.245433,0.242646
147,3845487823,0.054751,-0.792172,-0.199493,-0.574168,-0.073050,0.415518,0.293181
148,3845521157,0.055763,-0.790543,-0.203548,-0.574893,-0.018157,0.465796,0.196964
149,3845554491,0.057256,-0.788444,-0.208189,-0.575965,-0.132317,0.284451,0.199513
150,3845587825,0.059470,-0.786303,-0.213674,-0.576659,-0.440334,0.127381,0.141073
151,3845621159,0.060894,-0.783833,-0.219015,-0.577868,-0.802454,0.342183,0.292637
152,3845654493,0.063908,-0.780532,-0.225021,-0.579700,-0.430975,0.382511,-0.097289
153,3845687827,0.066656,-0.778633,-0.230024,-0.579981,-0.535057,-0.008034,-0.044660
154,3845721161,0.069794,-0.777982,-0.234650,-0.578630,-0.871110,-0.155485,0.022227
155,3845754495,0.074060,-0.777817,-0.239134,-0.576483,-0.440725,0.285554,-0.308584
156,3845787829,0.078761,-0.778038,-0.243996,-0.573515,-0.593881,0.342835,-0.003052
157,3845821163,0.084102,-0.778163,-0.248954,-0.570449,-0.466257,0.256243,0.143689
158,3845854497,0.089681,-0.778731,-0.253775,-0.566687,-0.151060,0.224551,0.203125
159,3845887831,0.095822,-0.779357,-0.258823,-0.562523,-0.174566,-0.162278,0.178741
160,3845921165,0.101103,-0.779712,-0.263124,-0.559101,0.056597,-0.208156,0.252885
161,3845954499,0.106148,-0.779900,-0.266956,-0.556079,0.131497,-0.260656,0.079319
162,3845987833,0.110582,-0.780349,-0.270439,-0.552893,0.070887,-0.329635,0.232918
163,3846021167,0.114607,-0.780434,-0.273678,-0.550354,0.060545,-0.217188,0.174218
164,3846054501,0.117770,-0.780318,-0.275974,-0.548702,0.143494,-0.247104,0.180223
165,3846087835,0.119699,-0.780554,-0.277393,-0.547231,-0.016602,-0.203737,0.402052
166,3846121169,0.121789,-0.780583,-0.278272,-0.546281,-0.297714,0.366620,0.158208
167,3846154503,0.124416,-0.780035,-0.278989,-0.546106,-0.423501,0.451552,-0.077716
168,3846187837,0.126210,-0.779804,-0.278619,-0.546214,-0.660942,0.009074,0.038321
169,3846221171,0.126756,-0.780353,-0.277304,-0.545972,-0.662978,-0.304516,0.183443
170,3846254505,0.126872,-0.781427,-0.275836,-0.545153,-0.598621,-0.346236,0.009845
171,3846287839,0.127069,-0.782523,-0.274604,-0.544156,-0.326019,0.019306,0.235094
172,3846321173,0.126388,-0.783493,-0.272602,-0.543925,-0.105022,0.019433,0.480160
173,3846354507,0.124434,-0.784536,-0.269246,-0.544544,0.031335,-0.088149,0.243941
174,3846387841,0.122956,-0.785210,-0.266564,-0.545227,-0.142503,0.194427,0.306940
175,3846421175,0.121219,-0.785176,-0.263743,-0.547033,-0.021154,0.191419,0.271513
176,3846454509,0.118344,-0.785487,-0.260358,-0.548835,0.043958,-0.058928,0.139323
177,3846487843,0.115921,-0.785806,-0.257790,-0.550107,-0.213368,0.011050,0.181584
178,3846521177,0.113002,-0.785721,-0.255344,-0.551973,-0.324768,0.130333,0.201702
179,3846554511,0.109370,-0.785479,-0.251749,-0.554694,-0.114452,0.005249,0.058565
180,3846587845,0.105607,-0.785618,-0.247355,-0.557196,-0.473690,-0.020595,0.216510
181,3846621179,0.101854,-0.786097,-0.242625,-0.559296,-0.692092,0.158936,0.067694
182,3846654513,0.097660,-0.786675,-0.237363,-0.561485,-0.558174,0.037671,-0.067755
183,3846687847,0.093179,-0.787450,-0.231758,-0.563497,-0.569715,-0.364931,0.015194
184,3846721181,0.087905,-0.789165,-0.225263,-0.564579,-0.619078,-0.139193,0.132602
185,3846754515,0.082391,-0.791392,-0.217741,-0.565244,-0.449211,0.287125,0.433791
186,3846787849,0.076876,-0.792984,-0.209202,-0.567011,-0.209048,0.465057,0.268250
187,3846821183,0.070163,-0.794560,-0.199352,-0.569221,-0.012663,0.012382,0.233110
188,3846854517,0.063458,-0.796753,-0.188689,-0.570575,-0.106149,-0.209832,0.218473
189,3846887851,0.056214,-0.798694,-0.178115,-0.572017,-0.172903,-0.014494,0.015250
190,3846921185,0.049713,-0.799781,-0.169435,-0.573735,-0.541069,-0.057338,0.172877
191,3846954519,0.044115,-0.801124,-0.161573,-0.574587,-0.799563,0.386838,0.285708
192,3846987853,0.039802,-0.802713,-0.154138,-0.574727,-0.682755,0.636524,0.081440
193,3847021187,0.036115,-0.803837,-0.146505,-0.575395,-0.289440,0.172604,-0.080619
194,3847054521,0.032636,-0.804902,-0.138526,-0.576089,-0.414906,-0.124519,0.080238
195,3847087855,0.027987,-0.806258,-0.128961,-0.576658,-0.294094,-0.010665,0.293739
196,3847121189,0.022546,-0.807511,-0.118459,-0.577397,0.076466,0.030139,0.229002
197,3847154523,0.017223,-0.808167,-0.108345,-0.578646,0.156171,0.053196,0.119425
198,3847187857,0.012005,-0.808083,-0.098851,-0.580592,0.043935,0.122000,0.276713
199,3847221191,0.007216,-0.807153,-0.090553,-0.583312,0.208954,0.284309,-0.043390
200,3847254525,0.003806,-0.805702,-0.084531,-0.586247,0.037551,0.224066,0.254433
201,3847287859,0.001436,-0.804436,-0.079767,-0.588658,-0.229828,0.278496,0.850717
202,3847321193,-0.000230,-0.803349,-0.074743,-0.590800,0.040645,0.361531,0.035072
203,3847354527,-0.000461,-0.802584,-0.070494,-0.592360,-0.279717,0.373778,0.045319
204,3847387861,0.000282,-0.802314,-0.066692,-0.593166,-0.527985,0.035714,0.051318
205,3847421195,0.001636,-0.802557,-0.062762,-0.593264,-0.449182,0.088491,0.127026
206,3847454529,0.003972,-0.802964,-0.059039,-0.593083,-0.301871,0.140283,0.214554
207,3847487863,0.007013,-0.803092,-0.056079,-0.593170,-0.178121,-0.030810,0.203831
208,3847521197,0.009961,-0.802875,-0.053025,-0.593702,-0.101738,-0.245697,0.234087
209,3847554531,0.012062,-0.802319,-0.048637,-0.594789,-0.111783,-0.327064,0.374425
210,3847587865,0.013193,-0.801240,-0.042907,-0.596658,0.194757,-0.072305,0.303923
211,3847621199,0.014450,-0.799613,-0.037912,-0.599145,0.090241,-0.055112,0.341612
212,3847654533,0.016073,-0.797617,-0.033436,-0.602024,-0.058707,-0.113016,0.163877
213,3847687867,0.016554,-0.795533,-0.027671,-0.605052,0.063816,0.072712,-0.013931
214,3847721201,0.016220,-0.793759,-0.020489,-0.607672,-0.129911,0.191779,-0.095025
215,3847754535,0.016877,-0.792599,-0.013745,-0.609355,-0.384879,0.449482,0.174665
216,3847787869,0.018775,-0.791621,-0.008965,-0.610659,-0.043442,0.262982,0.055276
217,3847821203,0.022103,-0.791214,-0.005634,-0.611114,0.079561,0.409973,0.090012
218,3847854537,0.026825,-0.791291,-0.004086,-0.610839,0.045000,0.783190,0.160122
219,3847887871,0.033190,-0.791733,-0.005001,-0.609945,0.158104,0.407365,0.105363
220,3847921205,0.040799,-0.792722,-0.007501,-0.608171,0.011893,0.407508,0.004119
221,3847954539,0.049170,-0.794304,-0.010669,-0.605434,0.236394,0.573952,0.181413
222,3847987873,0.058489,-0.795882,-0.015569,-0.602419,0.585115,0.626206,0.332161
223,3848021207,0.068850,-0.797059,-0.022875,-0.599528,0.546894,0.389528,0.339392
224,3848054541,0.080213,-0.797587,-0.032511,-0.596964,0.260607,0.627572,0.164026
225,3848087875,0.093479,-0.797985,-0.045565,-0.593638,-0.283088,1.571172,0.260932
226,3848121209,0.109415,-0.797672,-0.063006,-0.589728,-0.507415,1.083887,0.177750
227,3848154543,0.125772,-0.796794,-0.080690,-0.585484,-0.317777,0.098742,-0.245543
228,3848187877,0.139782,-0.796231,-0.095186,-0.580877,-0.107719,0.088168,0.076271
229,3848221211,0.151549,-0.795685,-0.107658,-0.576480,-0.155964,0.513482,0.142981
230,3848254545,0.162507,-0.794701,-0.119433,-0.572520,0.124171,0.478014,0.176124
231,3848287879,0.172228,-0.793432,-0.129848,-0.569160,0.145613,0.421654,0.174108
232,3848321213,0.180810,-0.792121,-0.138832,-0.566198,-0.055413,0.345424,0.172655
233,3848354547,0.188365,-0.791435,-0.146241,-0.562818,-0.476542,0.485457,0.058958
234,3848387881,0.195178,-0.790740,-0.152749,-0.559737,-0.252929,0.569237,0.159469
235,3848421215,0.202445,-0.789005,-0.160484,-0.557434,0.307139,0.364146,0.449461
236,3848454549,0.210019,-0.786199,-0.168840,-0.556127,0.259301,0.321250,0.393344
237,3848487883,0.216901,-0.782910,-0.176574,-0.555723,0.083755,0.087840,0.197028
238,3848521217,0.222808,-0.779365,-0.183539,-0.556112,-0.068594,-0.017226,0.292556
239,3848554551,0.227904,-0.775382,-0.189675,-0.557555,-0.175341,-0.129365,0.070757
240,3848587885,0.231912,-0.772139,-0.194502,-0.558738,-0.710250,0.120080,0.059327
241,3848621219,0.235098,-0.769435,-0.198298,-0.559802,-0.662150,0.018375,0.192304
242,3848654553,0.237822,-0.766890,-0.201595,-0.560964,-0.455259,-0.140662,0.051169
243,3848687887,0.239613,-0.765387,-0.203634,-0.561518,-0.582213,-0.039937,-0.027678
244,3848721221,0.240675,-0.764802,-0.204690,-0.561477,-0.574482,0.263268,0.208350
245,3848754555,0.241902,-0.764204,-0.205886,-0.561328,-0.544031,0.213939,0.269325
246,3848787889,0.242968,-0.763985,-0.206713,-0.560860,-0.429786,-0.125642,0.000044
247,3848821223,0.243111,-0.764483,-0.206485,-0.560204,-0.379090,-0.019468,0.115253
248,3848854557,0.242538,-0.765222,-0.205366,-0.559854,-0.303505,0.158225,0.209934
249,3848887891,0.241585,-0.766146,-0.204002,-0.559501,-0.295242,0.105974,0.078012
250,3848921225,0.239815,-0.767444,-0.202089,-0.559178,-0.297890,0.127488,0.250683
251,3848954559,0.237715,-0.768469,-0.199994,-0.559421,-0.286584,0.076842,0.285109
252,3848987893,0.234829,-0.769503,-0.196905,-0.560313,-0.186281,-0.201531,0.081518
253,3849021227,0.230949,-0.771174,-0.192396,-0.561194,-0.558859,0.236515,0.271852
254,3849054561,0.226669,-0.773092,-0.186936,-0.562144,-0.472921,0.205337,0.160422
255,3849087895,0.222401,-0.775164,-0.181232,-0.562864,-0.527264,0.093998,0.162819
256,3849121229,0.217803,-0.777389,-0.175028,-0.563555,-0.333201,0.005914,0.184856
257,3849154563,0.212779,-0.779586,-0.168282,-0.564494,-0.131506,-0.225222,0.245250
258,3849187897,0.206975,-0.781494,-0.160660,-0.566231,0.045217,-0.256879,0.215154
259,3849221231,0.200253,-0.783221,-0.152125,-0.568614,0.063418,-0.245345,0.169456
260,3849254565,0.192783,-0.784696,-0.142999,-0.571524,-0.137526,-0.036495,0.281363
261,3849287899,0.185532,-0.785744,-0.134100,-0.574633,-0.271278,0.133290,0.215939
262,3849321233,0.178342,-0.786392,-0.125350,-0.577989,-0.154571,-0.031417,0.156757
263,3849354567,0.170537,-0.786574,-0.116180,-0.581999,0.373600,-0.164861,0.184607
264,3849387901,0.162367,-0.786289,-0.107057,-0.586453,0.416267,-0.003201,0.360795
265,3849421235,0.154919,-0.785289,-0.099310,-0.591151,0.187556,0.256589,0.197234
266,3849454569,0.148583,-0.783416,-0.093735,-0.596152,0.259147,0.227291,0.158140
267,3849487903,0.143487,-0.781612,-0.089950,-0.600337,-0.262832,0.403899,0.058165
268,3849521237,0.139904,-0.781276,-0.086679,-0.602099,-1.121237,1.224558,-0.044054
269,3849554571,0.138536,-0.781749,-0.084713,-0.602081,-1.044370,1.332066,-0.057287
270,3849587905,0.139689,-0.782787,-0.084467,-0.600498,-0.702927,0.648566,0.240944
271,3849621239,0.142015,-0.784329,-0.084754,-0.597894,-0.612215,0.227572,0.050430
272,3849654573,0.144840,-0.786126,-0.085566,-0.594733,-0.230855,0.312378,0.142759
273,3849687907,0.148467,-0.787612,-0.087286,-0.591614,-0.215101,0.370584,0.175918
274,3849721241,0.152465,-0.788723,-0.089449,-0.588787,-0.125479,0.118278,0.075748
275,3849754575,0.156482,-0.789777,-0.092006,-0.585920,-0.221221,0.136627,0.153796
276,3849787909,0.160716,-0.791160,-0.094826,-0.582447,-0.628078,0.334163,0.213490
277,3849821243,0.164905,-0.792456,-0.097521,-0.579060,-0.133129,0.278532,0.081214
278,3849854577,0.169673,-0.793207,-0.101001,-0.576050,0.172313,0.336369,0.307774
279,3849887911,0.174830,-0.793027,-0.105321,-0.573978,0.456839,0.087750,0.432798
280,3849921245,0.180123,-0.792002,-0.110594,-0.572765,0.368573,-0.022883,0.326013
281,3849954579,0.185036,-0.790519,-0.116223,-0.572131,0.283231,0.062924,0.198943
282,3849987913,0.189860,-0.788958,-0.121998,-0.571503,-0.033286,0.444022,0.223581
283,3850021247,0.195206,-0.786957,-0.128562,-0.571023,-0.120612,0.255003,0.160335
284,3850054581,0.200591,-0.784880,-0.135351,-0.570445,-0.146921,0.008224,0.141425
285,3850087915,0.205325,-0.783343,-0.141439,-0.569396,-0.205540,0.043111,0.123783
286,3850121249,0.209439,-0.782225,-0.146825,-0.568070,-0.156817,0.246729,0.237110
287,3850154583,0.213303,-0.780838,-0.152084,-0.567156,-0.023582,0.023735,0.130302
288,3850187917,0.216458,-0.779650,-0.156518,-0.566387,-0.191541,-0.056672,0.183692
289,3850221251,0.218458,-0.778993,-0.159541,-0.565680,-0.365739,0.017571,0.153914
290,3850254585,0.219319,-0.778793,-0.161167,-0.565160,-0.286438,-0.029489,0.146876
291,3850287919,0.219052,-0.778668,-0.161486,-0.565346,-0.083008,0.005034,0.225767
292,3850321253,0.217940,-0.778736,-0.160875,-0.565856,-0.330341,0.097900,0.195325
293,3850354587,0.215969,-0.778965,-0.159337,-0.566731,-0.326943,-0.060088,0.180107
294,3850387921,0.213022,-0.779392,-0.156804,-0.567964,-0.288376,0.064546,0.167637
295,3850421255,0.209387,-0.780313,-0.153253,-0.569020,-0.616641,0.264012,0.179224
296,3850454589,0.205664,-0.781516,-0.149238,-0.569793,-0.739073,0.183051,0.071796
297,3850487923,0.201563,-0.783046,-0.144570,-0.570362,-0.606421,0.191462,0.071492
298,3850521257,0.196999,-0.785017,-0.139219,-0.570578,-0.686081,0.163882,0.140773
299,3850554591,0.192333,-0.787320,-0.133559,-0.570349,-0.672094,0.272221,0.184144
300,3850587925,0.187583,-0.789041,-0.127870,-0.570856,0.020425,-0.038711,0.240889
301,3850621259,0.181974,-0.789933,-0.121811,-0.572761,0.649315,-0.381591,0.245233
302,3850654593,0.175099,-0.790017,-0.115249,-0.576136,0.653681,-0.397460,0.330832
303,3850687927,0.166952,-0.790009,-0.107920,-0.579972,-0.442388,0.054650,0.540141
304,3850721261,0.158070,-0.790554,-0.099039,-0.583293,-0.740083,0.414186,-0.022826
305,3850754595,0.149436,-0.791492,-0.089849,-0.585780,-0.950620,0.231114,-0.084832
306,3850787929,0.141161,-0.792968,-0.079958,-0.587267,-1.021828,0.529373,0.131494
307,3850821263,0.134151,-0.795143,-0.070385,-0.587195,-1.202097,0.509484,0.054609
308,3850854597,0.128104,-0.797421,-0.060927,-0.586514,-0.686205,-0.005844,-0.107345
309,3850887931,0.121312,-0.799495,-0.050297,-0.586142,-0.100257,-0.019150,0.134790
310,3850921265,0.112829,-0.800944,-0.038518,-0.586750,0.100819,-0.111847,0.279166
311,3850954599,0.103510,-0.801607,-0.027051,-0.588202,0.009844,0.160354,0.314840
312,3850987933,0.094335,-0.801480,-0.016284,-0.590311,-0.089903,0.316077,0.291283
313,3851021267,0.085189,-0.800686,-0.005585,-0.592971,-0.279590,0.517631,0.011395
314,3851054601,0.076203,-0.799671,0.005108,-0.595563,-0.451956,0.935316,0.091288
315,3851087935,0.067940,-0.798663,0.015516,-0.597730,-0.376933,0.756576,0.100112
316,3851121269,0.060262,-0.797664,0.025493,-0.599544,-0.082515,0.364237,0.044549
317,3851154603,0.052538,-0.796243,0.035011,-0.601675,0.549595,-0.029319,0.350176
318,3851187937,0.045021,-0.794267,0.043648,-0.604325,0.623626,-0.013982,0.424105
319,3851221271,0.037755,-0.791858,0.051341,-0.607372,0.343269,0.383172,0.225276
320,3851254605,0.031772,-0.789411,0.057406,-0.610350,0.010738,0.277307,0.225793
321,3851287939,0.026118,-0.787254,0.062847,-0.612862,-0.254681,0.226386,0.091331
322,3851321273,0.020657,-0.785204,0.068301,-0.615114,0.009351,0.218643,0.135486
323,3851354607,0.016239,-0.783235,0.072279,-0.617298,0.040444,0.144221,0.271897
324,3851387941,0.012220,-0.781569,0.075387,-0.619127,-0.079199,-0.122673,0.068814
325,3851421275,0.009013,-0.780489,0.077828,-0.620243,-0.065008,0.289479,0.078646
326,3851454609,0.007058,-0.779932,0.079036,-0.620815,0.154787,0.371663,0.241463
327,3851487943,0.006636,-0.779653,0.078615,-0.621223,0.275213,0.263301,0.216940
328,3851521277,0.007086,-0.779519,0.077084,-0.621578,0.202030,0.321559,0.273034
329,3851554611,0.008991,-0.779618,0.074346,-0.621764,0.026499,0.415660,0.165678
330,3851587945,0.012347,-0.780110,0.070017,-0.621591,-0.119261,0.419528,0.089751
331,3851621279,0.016680,-0.780955,0.064499,-0.621026,-0.108313,0.360806,0.159955
332,3851654613,0.021855,-0.782059,0.058011,-0.620115,-0.144934,0.463890,0.168913
333,3851687947,0.027854,-0.783630,0.050902,-0.618514,-0.348598,0.383725,0.004244
334,3851721281,0.034553,-0.785555,0.043279,-0.616310,-0.322974,0.391867,0.129154
335,3851754615,0.041862,-0.787444,0.034848,-0.613976,0.029676,0.168267,0.256714
336,3851787949,0.049322,-0.788968,0.025805,-0.611909,0.221130,-0.108332,0.248824
337,3851821283,0.056820,-0.790128,0.016306,-0.610087,0.224180,-0.106541,0.310309
338,3851854617,0.064248,-0.791053,0.006644,-0.608330,0.232689,0.040891,0.245394
339,3851887951,0.071672,-0.791918,-0.003049,-0.606401,0.143680,0.197740,0.152512
340,3851921285,0.078934,-0.792683,-0.012811,-0.604368,0.049891,0.170234,0.182964
341,3851954619,0.086324,-0.793189,-0.022927,-0.602392,0.037988,0.315845,0.139027
342,3851987953,0.093823,-0.793649,-0.032854,-0.600200,0.019926,0.532632,0.084800
343,3852021287,0.101612,-0.793943,-0.043535,-0.597860,-0.015773,0.664457,0.170419
344,3852054621,0.110231,-0.793831,-0.055718,-0.595465,0.054604,1.171989,0.286622
345,3852087955,0.120225,-0.793160,-0.069833,-0.592932,-0.110137,0.596023,-0.063555
346,3852121289,0.129777,-0.792633,-0.084376,-0.589723,-0.209009,0.901959,0.468862
347,3852154623,0.139415,-0.791525,-0.099229,-0.586692,0.006043,0.755599,0.349362
348,3852187957,0.149754,-0.789993,-0.114763,-0.583366,-0.584832,1.163783,0.010380
349,3852221291,0.159691,-0.787696,-0.129976,-0.580639,-0.545034,0.272631,-0.007967
350,3852254625,0.167853,-0.785918,-0.143996,-0.577430,-0.146078,-0.379243,-0.303298
351,3852287959,0.175029,-0.785353,-0.156246,-0.572866,-0.011715,0.450171,0.241259
352,3852321293,0.180896,-0.784631,-0.167611,-0.568805,0.091782,0.306265,0.133214
353,3852354627,0.187163,-0.782703,-0.180365,-0.565523,0.417648,0.171755,0.508833
354,3852387961,0.190148,-0.780424,-0.190610,-0.564316,0.219424,-0.549455,-0.089297
355,3852421295,0.189829,-0.779397,-0.197846,-0.563351,0.097169,1.099319,0.182713
356,3852454629,0.192724,-0.775464,-0.207799,-0.564211,-1.350640,0.858615,0.745571
357,3852487963,0.196731,-0.770286,-0.218298,-0.565954,-0.138673,-1.458555,-1.011827
358,3852521297,0.195381,-0.770305,-0.223481,-0.564372,-1.888577,-0.290589,0.574197
359,3852554631,0.192841,-0.771690,-0.226067,-0.562320,-0.758477,-0.195335,0.212236
360,3852587965,0.188740,-0.773406,-0.226836,-0.561042,-0.469729,-0.582220,0.246248
361,3852621299,0.181600,-0.775341,-0.224608,-0.561623,0.189776,-0.683255,0.157146
362,3852654633,0.170965,-0.778001,-0.218835,-0.563559,0.130834,0.091205,0.315536
363,3852687967,0.158690,-0.779941,-0.211446,-0.567276,-0.250247,0.581596,0.140956
364,3852721301,0.146355,-0.781390,-0.204709,-0.571057,-0.742574,0.910919,0.051869
365,3852754635,0.136280,-0.782684,-0.200385,-0.573308,-0.966729,1.084158,0.343042
366,3852787969,0.129061,-0.783337,-0.198087,-0.574883,-0.502460,0.845575,0.051192
367,3852821303,0.122851,-0.783552,-0.196248,-0.576578,-0.358870,0.124309,0.231403
368,3852854637,0.117197,-0.783758,-0.194603,-0.578032,-0.273043,-0.357096,-0.076561
369,3852887971,0.111707,-0.784191,-0.192981,-0.579075,-0.208640,-0.298454,0.096932
370,3852921305,0.107140,-0.783884,-0.192223,-0.580602,0.076589,-0.334632,0.432677
371,3852954639,0.103415,-0.782666,-0.192052,-0.582973,-0.081013,-0.167254,0.641138
372,3852987973,0.100248,-0.781218,-0.192579,-0.585290,-0.421848,-0.390990,0.280031
373,3853021307,0.096315,-0.780658,-0.192042,-0.586872,-0.553871,-0.368107,0.157495
374,3853054641,0.092336,-0.781012,-0.190094,-0.587674,-0.576177,0.142258,0.341485
375,3853087975,0.089032,-0.781788,-0.187262,-0.588061,-0.478413,0.359197,0.210838
376,3853121309,0.086931,-0.782816,-0.184966,-0.587734,-0.187549,0.159219,-0.034214
377,3853154643,0.085279,-0.784442,-0.183415,-0.586293,-0.058658,-0.096173,-0.186392
378,3853187977,0.082879,-0.787237,-0.180913,-0.583662,0.211095,-0.127057,-0.251531
379,3853221311,0.080325,-0.790113,-0.177719,-0.581109,0.794460,0.079748,-0.150415
380,3853254645,0.078728,-0.792203,-0.175659,-0.579104,1.432606,0.018315,0.202275
381,3853287979,0.077615,-0.793507,-0.175239,-0.577596,1.107700,-0.305596,0.255727
382,3853321313,0.076959,-0.794756,-0.176180,-0.575675,0.667247,-0.255088,0.386560
383,3853354647,0.076974,-0.795686,-0.178283,-0.573739,0.400929,0.044126,0.425530
384,3853387981,0.077880,-0.795775,-0.181689,-0.572423,0.198530,0.401842,0.426783
385,3853421315,0.079575,-0.795260,-0.185817,-0.571580,0.096898,0.258137,0.343648
386,3853454649,0.081542,-0.795068,-0.189681,-0.570299,-0.129550,-0.126514,0.228064
387,3853487983,0.083119,-0.795276,-0.192924,-0.568692,-0.424700,-0.137090,0.029029
388,3853521317,0.084092,-0.795408,-0.195700,-0.567414,-0.414055,-0.011439,0.022120
389,3853554651,0.084699,-0.795531,-0.198205,-0.566280,-0.462549,0.069515,0.197700
390,3853587985,0.085881,-0.795861,-0.200526,-0.564819,-0.467123,0.318867,0.060432
391,3853621319,0.087243,-0.796112,-0.202623,-0.563507,-0.454755,0.171718,0.119081
392,3853654653,0.088223,-0.796497,-0.204433,-0.562155,-0.572442,-0.072283,0.197401
393,3853687987,0.089179,-0.797654,-0.205966,-0.559799,-0.781110,0.004003,0.203185
394,3853721321,0.090474,-0.798881,-0.207044,-0.557439,-0.521067,0.169774,0.003837
395,3853754655,0.091101,-0.800110,-0.207460,-0.555416,-0.094495,0.089291,0.066946
396,3853787989,0.091678,-0.801539,-0.207688,-0.553172,-0.093050,-0.107012,0.236474
397,3853821323,0.092404,-0.803059,-0.207981,-0.550730,-0.189784,0.030816,0.339348
398,3853854657,0.093447,-0.804012,-0.208915,-0.548807,0.099813,0.199952,0.392049
399,3853887991,0.094678,-0.804358,-0.210643,-0.547427,0.127361,-0.045458,0.418095
400,3853921325,0.095572,-0.804968,-0.212276,-0.545742,-0.116928,-0.141369,0.391088
401,3853954659,0.096497,-0.805061,-0.213818,-0.544839,-0.143334,0.076740,0.218771
402,3853987993,0.097143,-0.804253,-0.215388,-0.545298,-0.108164,0.006903,-0.004823
403,3854021327,0.097635,-0.803628,-0.216915,-0.545528,-0.375707,-0.081678,0.106124
404,3854054661,0.098441,-0.803317,-0.218296,-0.545289,-0.631941,0.277751,0.189230
405,3854087995,0.099494,-0.802813,-0.219654,-0.545295,-0.496752,0.294100,0.036003
406,3854121329,0.100320,-0.802477,-0.220522,-0.545288,-0.485098,-0.106584,0.172773
407,3854154663,0.100874,-0.802746,-0.220816,-0.544671,-0.730556,-0.198415,0.415771
408,3854187997,0.100996,-0.803184,-0.220186,-0.544256,-0.581352,0.105799,0.306788
409,3854221331,0.100524,-0.803460,-0.218748,-0.544517,-0.045589,0.021293,0.070654
410,3854254665,0.099408,-0.803810,-0.216951,-0.544924,0.012258,-0.068336,0.181129
411,3854287999,0.098233,-0.803995,-0.215333,-0.545505,-0.155067,-0.003407,0.328606
412,3854321333,0.096316,-0.803989,-0.213267,-0.546666,0.107774,0.176142,0.016540
413,3854354667,0.094289,-0.804212,-0.211265,-0.547469,0.173301,0.317969,0.035075
414,3854388001,0.092717,-0.804861,-0.209795,-0.547348,-0.157848,0.388084,0.256215
415,3854421335,0.091773,-0.805372,-0.208955,-0.547077,-0.150683,0.408673,0.155315
416,3854454669,0.091462,-0.805290,-0.208875,-0.547281,0.353504,0.162000,-0.070789
417,3854488003,0.090726,-0.805077,-0.208910,-0.547702,0.169389,0.035349,0.157790
418,3854521337,0.090038,-0.804568,-0.208964,-0.548543,-0.274212,0.131130,0.423105
419,3854554671,0.088724,-0.803814,-0.208402,-0.550074,-0.324725,0.085133,0.224202
420,3854588005,0.087099,-0.803260,-0.207652,-0.551426,-0.332477,0.012643,0.107568
421,3854621339,0.085809,-0.802695,-0.207207,-0.552616,-0.472250,-0.006937,0.075274
422,3854654673,0.084446,-0.801986,-0.206487,-0.554123,-0.390451,-0.055785,0.170550
423,3854688007,0.082798,-0.801444,-0.204966,-0.555719,-0.384692,-0.013687,0.113459
424,3854721341,0.080457,-0.801267,-0.202060,-0.557379,-0.247496,0.189305,0.120932
425,3854754675,0.078268,-0.801549,-0.198578,-0.558535,-0.510460,0.084645,0.217767
426,3854788009,0.076015,-0.801995,-0.194910,-0.559498,-0.586133,0.089468,0.068859
427,3854821343,0.074011,-0.802232,-0.191341,-0.560658,-0.180365,-0.040499,0.069864
428,3854854677,0.071754,-0.802509,-0.187483,-0.561856,-0.036798,-0.161481,0.222273
429,3854888011,0.068945,-0.802811,-0.182935,-0.563275,-0.022030,-0.052221,0.265416
430,3854921345,0.066027,-0.802897,-0.178388,-0.564957,-0.053904,0.098314,0.228998
431,3854954679,0.064025,-0.802577,-0.174683,-0.566797,-0.185648,-0.052021,0.244445
432,3854988013,0.061407,-0.802691,-0.170474,-0.568205,-0.294433,-0.032812,0.111948
433,3855021347,0.058855,-0.803153,-0.166068,-0.569127,-0.302739,0.194817,0.019801
434,3855054681,0.057353,-0.803645,-0.162504,-0.569614,-0.380832,0.248351,0.034604
435,3855088015,0.056330,-0.804407,-0.159141,-0.569590,-0.256374,0.145798,0.014313
436,3855121349,0.055728,-0.805678,-0.155758,-0.568787,-0.161649,0.154033,0.030169
437,3855154683,0.055949,-0.807065,-0.152727,-0.567620,-0.006428,0.162977,0.257825
438,3855188017,0.056842,-0.808347,-0.150622,-0.566268,0.042756,0.052538,0.416417
439,3855221351,0.058421,-0.809335,-0.149718,-0.564935,0.034189,-0.028243,0.371403
440,3855254685,0.060439,-0.809931,-0.149944,-0.563806,-0.066738,0.110572,0.233838
441,3855288019,0.062939,-0.810136,-0.150929,-0.562976,-0.126937,0.028808,0.158027
442,3855321353,0.065482,-0.810350,-0.151831,-0.562134,-0.250062,0.037858,0.277537
443,3855354687,0.068435,-0.810555,-0.152742,-0.561239,-0.089009,0.150833,0.266131
444,3855388021,0.071304,-0.810509,-0.153585,-0.560718,0.159562,0.093780,0.212603
445,3855421355,0.074163,-0.810481,-0.154154,-0.560232,0.105903,-0.027140,0.226486
446,3855454689,0.076462,-0.810534,-0.153929,-0.559907,0.232590,0.036930,0.193203
447,3855488023,0.078187,-0.810298,-0.153438,-0.560146,0.344814,-0.016724,0.185185
448,3855521357,0.079380,-0.809959,-0.152594,-0.560698,0.121590,-0.009689,0.252981
449,3855554691,0.079781,-0.809524,-0.150990,-0.561703,-0.016592,0.098247,0.145623
450,3855588025,0.079260,-0.808788,-0.148812,-0.563415,-0.002555,0.114891,0.228171
451,3855621359,0.078086,-0.807851,-0.145998,-0.565656,-0.138442,0.211860,0.242111
452,3855654693,0.076232,-0.807091,-0.141859,-0.568042,-0.247811,0.504695,0.030278
453,3855688027,0.073915,-0.806473,-0.137174,-0.570372,-0.443688,0.232693,0.061239
454,3855721361,0.071229,-0.805999,-0.132250,-0.572543,-0.538293,0.209037,0.051762
455,3855754695,0.068087,-0.805726,-0.126721,-0.574556,-0.316531,0.323551,0.084023
456,3855788029,0.064561,-0.805579,-0.120668,-0.576469,0.043025,0.476383,0.112953
457,3855821363,0.061135,-0.804980,-0.114803,-0.578871,0.270725,0.401508,0.170240
458,3855854697,0.058230,-0.803886,-0.109909,-0.581635,0.018895,0.222741,0.213471
459,3855888031,0.055999,-0.802374,-0.106049,-0.584650,-0.336108,0.192043,-0.062052
460,3855921365,0.053852,-0.801062,-0.101856,-0.587391,-0.659639,0.261855,-0.100539
461,3855954699,0.051289,-0.800457,-0.095790,-0.589462,-0.409296,0.124825,-0.201085
462,3855988033,0.048572,-0.800636,-0.088306,-0.590616,-0.337882,-0.354155,0.188266
463,3856021367,0.045019,-0.800811,-0.080090,-0.591830,0.066235,-0.534526,0.555989
464,3856054701,0.040869,-0.800634,-0.071655,-0.593450,0.512761,-0.634348,0.464118
465,3856088035,0.036559,-0.800426,-0.063096,-0.594981,0.635411,-0.203187,0.471230
466,3856121369,0.032940,-0.800073,-0.055614,-0.596412,0.512726,0.075101,0.481122
467,3856154703,0.031076,-0.799563,-0.050779,-0.597627,0.273243,0.251072,0.227246
468,3856188037,0.030695,-0.799516,-0.048013,-0.597938,0.172687,0.115459,0.180949
469,3856221371,0.031540,-0.799703,-0.046529,-0.597761,0.255755,0.164239,0.163989
470,3856254705,0.033262,-0.799864,-0.045764,-0.597510,0.269706,0.160329,0.147653
471,3856288039,0.036205,-0.800054,-0.045978,-0.597069,0.056956,0.322969,0.118233
472,3856321373,0.040620,-0.800386,-0.047818,-0.596194,-0.381918,0.264126,-0.006892
473,3856354707,0.045964,-0.801219,-0.050468,-0.594466,-0.510909,0.178491,-0.020106
474,3856388041,0.051882,-0.802362,-0.053259,-0.592191,-0.210299,0.053255,0.154200
475,3856421375,0.057953,-0.803510,-0.055985,-0.589815,0.149754,-0.236015,0.312521
476,3856454709,0.063738,-0.804325,-0.058424,-0.587867,0.371124,-0.458203,0.379408
477,3856488043,0.068872,-0.804885,-0.060411,-0.586318,0.493563,-0.511325,0.529390
478,3856521377,0.073477,-0.805068,-0.062170,-0.585323,0.398187,-0.231205,0.317072
479,3856554711,0.078406,-0.805137,-0.064187,-0.584370,0.274880,0.186009,0.220057
480,3856588045,0.083983,-0.805009,-0.067213,-0.583432,0.334199,0.426979,0.168139
481,3856621379,0.090229,-0.804786,-0.071312,-0.582319,0.277480,0.515868,0.110437
482,3856654713,0.096714,-0.804538,-0.076330,-0.580983,-0.350380,0.674214,0.029861
483,3856688047,0.103418,-0.804760,-0.081647,-0.578794,-0.560536,0.707470,-0.316192
484,3856721381,0.111445,-0.805298,-0.088413,-0.575552,-0.937293,1.060707,-0.031478
485,3856754715,0.122131,-0.805352,-0.098270,-0.571697,-0.728903,1.041851,-0.124431
486,3856788049,0.134451,-0.804678,-0.110714,-0.567592,-0.820577,0.631783,-0.002110
487,3856821383,0.147434,-0.803666,-0.124099,-0.563015,-0.446784,0.288851,0.112587
488,3856854717,0.159458,-0.803118,-0.135626,-0.557837,0.024977,0.112907,0.092700
489,3856888051,0.169507,-0.803012,-0.144884,-0.552675,0.565008,0.272596,0.304557
490,3856921385,0.177690,-0.802521,-0.153111,-0.548585,0.839588,-0.024373,0.467482
491,3856954719,0.184877,-0.801124,-0.160975,-0.545995,0.563298,0.288374,0.607991
492,3856988053,0.190753,-0.799090,-0.168161,-0.544787,0.279072,0.332299,0.353065
493,3857021387,0.195886,-0.796649,-0.174878,-0.544426,0.065225,0.364134,0.060080
494,3857054721,0.200047,-0.794078,-0.180697,-0.544768,0.021502,0.291810,0.213912
495,3857088055,0.202966,-0.791322,-0.185765,-0.545992,-0.034024,0.233492,0.237274
496,3857121389,0.205034,-0.788280,-0.190331,-0.548044,-0.041378,0.073984,-0.009227
497,3857154723,0.206336,-0.785669,-0.193945,-0.550033,-0.275572,0.080041,0.002286
498,3857188057,0.207844,-0.783897,-0.197212,-0.550832,-0.360979,0.211510,0.054358
499,3857221391,0.209756,-0.782712,-0.200177,-0.550723,-0.249374,0.177464,0.050093
500,3857254725,0.211418,-0.782117,-0.202907,-0.549933,-0.367909,0.005525,0.136646
501,3857288059,0.213109,-0.782005,-0.205488,-0.548480,-0.195610,-0.073632,0.121605
502,3857321393,0.214285,-0.782570,-0.207308,-0.546527,-0.285048,-0.053170,0.135829
503,3857354727,0.214990,-0.783333,-0.208421,-0.544730,0.000191,0.139096,0.196694
504,3857388061,0.214872,-0.783466,-0.208859,-0.544417,0.130128,-0.140220,0.284929
505,3857421395,0.212586,-0.783403,-0.207372,-0.545973,0.144452,-0.388087,0.199760
506,3857454729,0.209159,-0.783740,-0.204824,-0.547771,-0.476443,-0.163488,0.371590
507,3857488063,0.204719,-0.784414,-0.200871,-0.549944,-0.768680,0.032279,0.094402
508,3857521397,0.199899,-0.785272,-0.196231,-0.552164,-0.839522,0.200766,0.143216
509,3857554731,0.195167,-0.786491,-0.191165,-0.553895,-0.708234,-0.167953,0.126329
510,3857588065,0.190252,-0.788066,-0.185584,-0.555263,-0.436274,0.033272,0.145475
511,3857621399,0.184976,-0.789860,-0.179314,-0.556555,-0.354545,0.104625,0.116847
512,3857654733,0.179449,-0.791600,-0.172642,-0.558000,-0.262713,-0.097765,0.155958
513,3857688067,0.173685,-0.793340,-0.165525,-0.559508,-0.301315,0.046009,0.158618
514,3857721401,0.168027,-0.794994,-0.158256,-0.560989,-0.084870,-0.056938,0.188130
515,3857754735,0.162236,-0.796439,-0.150671,-0.562729,0.137516,-0.370118,0.180408
516,3857788069,0.155571,-0.797682,-0.142261,-0.565036,0.178722,0.249673,0.325991
517,3857821403,0.149239,-0.798110,-0.134510,-0.568029,0.104759,0.157275,0.198443
518,3857854737,0.144312,-0.797928,-0.128733,-0.570889,-0.045398,-0.146518,0.202711
519,3857888071,0.139126,-0.797949,-0.122740,-0.573462,-0.131105,0.050567,0.167713
520,3857921405,0.134597,-0.798091,-0.117095,-0.575522,-0.119145,0.496637,0.142660
521,3857954739,0.131809,-0.798074,-0.112964,-0.577014,-0.355215,0.713836,0.184114
522,3857988073,0.130925,-0.797887,-0.110885,-0.577876,-0.421413,0.267307,0.142783
523,3858021407,0.131313,-0.798129,-0.110002,-0.577623,-0.260737,0.198156,-0.001647
524,3858054741,0.132365,-0.798572,-0.109512,-0.576863,-0.064034,0.281857,0.173429
525,3858088075,0.134078,-0.798911,-0.109656,-0.575970,-0.072033,0.216495,0.256299
526,3858121409,0.136709,-0.799145,-0.110825,-0.574802,0.128900,0.023798,0.144982
527,3858154743,0.140132,-0.799259,-0.113245,-0.573346,0.197462,0.147038,0.167171
528,3858188077,0.144710,-0.798883,-0.117141,-0.571949,0.257013,0.330372,0.233460
529,3858221411,0.150112,-0.798238,-0.122235,-0.570389,0.055921,0.188011,0.227641
530,3858254745,0.155868,-0.797442,-0.127938,-0.568705,0.087223,0.067584,0.171953
531,3858288079,0.161779,-0.796529,-0.133996,-0.566935,0.041345,0.122440,0.264693
532,3858321413,0.167834,-0.795237,-0.140564,-0.565397,0.026670,0.034978,0.211347
533,3858354747,0.173811,-0.793875,-0.147036,-0.563857,0.011731,0.187329,0.177727
534,3858388081,0.179625,-0.792370,-0.153309,-0.562479,-0.109462,0.131778,0.212111
535,3858421415,0.185195,-0.790815,-0.159393,-0.561168,-0.070845,-0.051778,0.121827
536,3858454749,0.190919,-0.789604,-0.165448,-0.559200,-0.378468,0.094863,0.125879
537,3858488083,0.196305,-0.788732,-0.171046,-0.556876,-0.314864,0.143387,0.094043
538,3858521417,0.201511,-0.788128,-0.176108,-0.554288,-0.341720,-0.008879,0.110423
539,3858554751,0.206108,-0.788238,-0.180214,-0.551114,-0.429902,0.015042,0.188293
540,3858588085,0.210112,-0.788316,-0.183665,-0.548344,-0.074113,0.085686,0.241235
541,3858621419,0.213328,-0.787870,-0.186613,-0.546744,0.153362,-0.098371,0.206257
542,3858654753,0.215118,-0.787326,-0.188243,-0.546268,0.136777,-0.215460,0.250945
543,3858688087,0.215336,-0.786978,-0.188322,-0.546656,-0.089562,0.121653,0.225294
544,3858721421,0.214872,-0.786539,-0.187668,-0.547694,-0.207928,0.181991,0.116673
545,3858754755,0.214212,-0.786259,-0.186835,-0.548639,-0.422628,0.241327,0.204793
546,3858788089,0.213189,-0.786158,-0.185572,-0.549610,-0.285202,0.115023,0.108617
547,3858821423,0.211115,-0.786348,-0.183407,-0.550865,-0.259057,0.157187,0.215110
548,3858854757,0.208218,-0.786573,-0.180326,-0.552660,0.194470,0.081656,0.136205
549,3858888091,0.203975,-0.786801,-0.176022,-0.555300,-0.304925,-0.072206,0.303853
550,3858921425,0.198997,-0.786778,-0.170841,-0.558745,-0.037781,0.061306,0.088772
551,3858954759,0.194177,-0.787053,-0.165528,-0.561645,-0.320240,0.171711,0.179361
552,3858988093,0.189545,-0.787415,-0.160042,-0.564304,-0.111420,-0.107947,0.171865
553,3859021427,0.184942,-0.788004,-0.154359,-0.566589,-0.236730,0.058808,0.234158
554,3859054761,0.179908,-0.788347,-0.148456,-0.569302,-0.196665,0.196507,0.148394
555,3859088095,0.174567,-0.788477,-0.141974,-0.572429,-0.258721,0.115928,0.100581
556,3859121429,0.168573,-0.788768,-0.134456,-0.575632,-0.362737,0.043679,0.133607
557,3859154763,0.162050,-0.789155,-0.126160,-0.578843,-0.270718,0.110728,0.131071
558,3859188097,0.155420,-0.789458,-0.117593,-0.582043,-0.133305,0.138675,0.250028
559,3859221431,0.148500,-0.789619,-0.108440,-0.585399,0.040312,0.024858,0.130680
560,3859254765,0.141026,-0.789840,-0.098557,-0.588688,0.038690,0.116913,0.133625
561,3859288099,0.133619,-0.790070,-0.088649,-0.591675,-0.003312,0.077891,0.225804
562,3859321433,0.126554,-0.790134,-0.079333,-0.594458,0.005767,0.238897,0.174111
563,3859354767,0.120464,-0.790012,-0.071243,-0.596906,0.104899,0.261437,0.199095
564,3859388101,0.114658,-0.789605,-0.063917,-0.599411,-0.025691,0.126973,0.211577
565,3859421435,0.109283,-0.789294,-0.057092,-0.601511,-0.136796,0.242374,0.131198
566,3859454769,0.105030,-0.789143,-0.051249,-0.602991,0.035598,0.250118,0.127286
567,3859488103,0.101652,-0.788854,-0.046569,-0.604326,0.096009,0.044236,0.241816
568,3859521437,0.098366,-0.788527,-0.042040,-0.605627,0.075359,-0.345874,0.144441
569,3859554771,0.094427,-0.788419,-0.036584,-0.606748,0.078305,-0.020648,0.079906
570,3859588105,0.090778,-0.788369,-0.031057,-0.607677,0.157684,-0.033946,0.259054
571,3859621439,0.086959,-0.788143,-0.025558,-0.608784,0.224766,-0.534284,0.151437
572,3859654773,0.081669,-0.788468,-0.018519,-0.609350,-0.096270,-0.479564,0.078457
573,3859688107,0.075486,-0.788876,-0.010432,-0.609811,-0.118684,0.513669,0.369842
574,3859721441,0.070370,-0.788895,-0.003361,-0.610478,-0.446086,0.561702,0.110541
575,3859754775,0.066134,-0.788811,0.002949,-0.611062,-0.071701,0.261305,0.252432
576,3859788109,0.060758,-0.787777,0.009842,-0.612879,0.340192,-0.472099,0.409529
577,3859821443,0.055119,-0.786560,0.017211,-0.614810,0.168115,-0.141770,0.209272
578,3859854777,0.049590,-0.785272,0.023770,-0.616706,-0.080901,0.119667,0.121884
579,3859888111,0.045406,-0.784347,0.028761,-0.617991,-0.231374,0.703540,0.117479
580,3859921445,0.042663,-0.783767,0.032652,-0.618728,-0.225540,1.012159,0.054231
581,3859954779,0.041887,-0.783559,0.034883,-0.618923,0.070739,0.724680,0.013644
582,3859988113,0.042775,-0.783712,0.035251,-0.618648,0.158218,0.511530,0.172361
583,3860021447,0.044954,-0.783897,0.033927,-0.618334,-0.021211,0.155985,0.204210
584,3860054781,0.047850,-0.784382,0.031744,-0.617616,-0.010315,-0.030414,0.123602
585,3860088115,0.051159,-0.785003,0.028852,-0.616703,0.105317,0.092770,0.220819
586,3860121449,0.055265,-0.785519,0.024959,-0.615861,0.189651,0.201733,0.240333
587,3860154783,0.060052,-0.785955,0.020250,-0.615029,0.029704,0.181716,0.255320
588,3860188117,0.065296,-0.786479,0.014987,-0.613974,-0.035864,0.114115,0.140450
589,3860221451,0.070813,-0.786674,0.009482,-0.613222,0.225639,0.000529,0.213109
590,3860254785,0.076526,-0.786661,0.003234,-0.612618,0.182684,0.101146,0.266125
591,3860288119,0.082562,-0.786641,-0.003501,-0.611857,-0.229998,0.067810,0.108398
592,3860321453,0.088384,-0.786798,-0.009890,-0.610771,-0.300280,0.141883,0.037018
593,3860354787,0.094293,-0.787557,-0.015956,-0.608777,-0.467602,0.394670,0.080340
594,3860388121,0.100702,-0.788369,-0.022258,-0.606498,-0.177533,0.468661,0.133574
595,3860421455,0.107612,-0.789129,-0.029351,-0.604016,0.023255,0.311787,0.215690
596,3860454789,0.114846,-0.789499,-0.037035,-0.601774,0.123132,0.190284,0.290883
597,3860488123,0.121927,-0.789200,-0.045180,-0.600215,0.402061,-0.075059,0.250821
598,3860521457,0.128828,-0.788714,-0.053732,-0.598706,-0.019399,0.196986,0.208751
599,3860554791,0.135532,-0.788351,-0.062370,-0.596864,-0.220696,0.587959,0.156430
600,3860588125,0.142709,-0.787862,-0.071721,-0.594783,-0.112632,0.690987,0.240162
601,3860621459,0.150080,-0.787091,-0.081859,-0.592676,-0.144523,0.277335,0.173647
602,3860654793,0.156881,-0.786745,-0.091836,-0.589906,-0.226133,0.439970,-0.005869
603,3860688127,0.163641,-0.786513,-0.101481,-0.586791,-0.392430,0.942712,-0.057534
604,3860721461,0.171293,-0.785625,-0.111857,-0.583903,-0.524024,0.915398,0.204517
605,3860754795,0.179749,-0.784808,-0.122954,-0.580216,-1.027163,0.574330,-0.020065
606,3860788129,0.188146,-0.784846,-0.133574,-0.575133,-0.943202,0.631922,0.014458
607,3860821463,0.196646,-0.784990,-0.144160,-0.569509,-0.499375,0.127778,0.113843
608,3860854797,0.204388,-0.785034,-0.154243,-0.564055,-0.218772,-0.396857,0.010846
609,3860888131,0.210377,-0.785774,-0.162539,-0.558466,-0.006577,-0.339479,0.169208
610,3860921465,0.214631,-0.787053,-0.168942,-0.553121,0.095811,-0.044223,0.282348
611,3860954799,0.218208,-0.787637,-0.175035,-0.548979,0.465878,-0.143851,0.424338
612,3860988133,0.221330,-0.787418,-0.181132,-0.546058,0.505233,-0.279236,0.342340
613,3861021467,0.223444,-0.786861,-0.186369,-0.544234,0.170748,0.094237,0.296729
614,3861054801,0.225155,-0.786159,-0.191049,-0.542920,-0.178530,0.256573,0.223937
615,3861088135,0.227715,-0.784996,-0.196312,-0.541656,-0.490231,0.252244,0.228838
616,3861121469,0.230745,-0.783213,-0.202161,-0.540802,-0.268771,-0.623337,-0.083141
617,3861154803,0.231583,-0.783020,-0.205816,-0.539343,-0.347217,-0.388091,0.054512
618,3861188137,0.230868,-0.784187,-0.207074,-0.537470,-0.466352,0.055861,0.174310
619,3861221471,0.230194,-0.785101,-0.208061,-0.536042,-0.163182,0.105207,0.173188
620,3861254805,0.228854,-0.785950,-0.208787,-0.535088,-0.043103,-0.098175,0.265215
621,3861288139,0.226807,-0.786704,-0.208861,-0.534821,0.221957,-0.061781,0.217707
622,3861321473,0.223450,-0.787601,-0.207677,-0.535376,0.243659,0.066535,0.204519
623,3861354807,0.219122,-0.788506,-0.205621,-0.536625,0.142355,0.159479,0.194021
624,3861388141,0.214523,-0.789144,-0.203459,-0.538366,0.083026,0.198377,0.241932
625,3861421475,0.209695,-0.789500,-0.201396,-0.540518,0.154705,0.031165,0.182031
626,3861454809,0.204129,-0.790122,-0.198968,-0.542634,0.035573,0.062306,0.007948
627,3861488143,0.198087,-0.791150,-0.196069,-0.544429,-0.134687,0.383563,0.199478
628,3861521477,0.192507,-0.791972,-0.193846,-0.546029,-0.196801,0.407612,0.225423
629,3861554811,0.187664,-0.792571,-0.192994,-0.547146,-0.358835,0.388272,0.005904
630,3861588145,0.183234,-0.793423,-0.193026,-0.547401,-0.446177,0.557193,-0.049626
631,3861621479,0.178916,-0.794883,-0.192987,-0.546726,-0.339762,0.275205,0.174384
632,3861654813,0.174865,-0.796777,-0.193446,-0.545114,-0.358821,0.416376,-0.091097
633,3861688147,0.170919,-0.798840,-0.194946,-0.542806,-0.253019,0.677681,0.014077
634,3861721481,0.168016,-0.800697,-0.197178,-0.540165,-0.101375,0.521624,0.734187
635,3861754815,0.165049,-0.801221,-0.198137,-0.539952,0.641916,0.065782,0.452710
636,3861788149,0.159935,-0.801005,-0.197312,-0.542108,0.832708,-0.195352,-0.054493
637,3861821483,0.153166,-0.800906,-0.195593,-0.544827,0.316794,-0.062854,0.240478
638,3861854817,0.145636,-0.800274,-0.194082,-0.548349,0.100916,0.124753,0.267435
639,3861888151,0.137708,-0.799350,-0.192790,-0.552188,0.171696,0.062049,0.036611
640,3861921485,0.130082,-0.798344,-0.191700,-0.555858,0.240210,-0.034141,-0.031079
641,3861954819,0.122682,-0.796972,-0.190678,-0.559848,0.173414,0.130683,0.379498
642,3861988153,0.115792,-0.795080,-0.190242,-0.564136,0.258556,-0.021162,0.307599
643,3862021487,0.109513,-0.793275,-0.190675,-0.567773,0.336042,-0.232282,0.186948
644,3862054821,0.103199,-0.790737,-0.192495,-0.571867,0.049569,-0.016135,0.508211
645,3862088155,0.098730,-0.786535,-0.196458,-0.577080,0.036874,-0.105106,0.183382
646,3862121489,0.095730,-0.782840,-0.200950,-0.581049,-0.254703,-0.036101,0.048300
647,3862154823,0.093560,-0.780587,-0.204700,-0.583121,-0.606562,0.164506,0.183825
648,3862188157,0.092347,-0.779210,-0.207975,-0.583997,-1.074937,0.128262,0.321374
649,3862221491,0.092218,-0.778696,-0.210520,-0.583792,-0.710109,-0.222697,0.096304
650,3862254825,0.091974,-0.779445,-0.211682,-0.582408,-0.097627,-0.333090,0.045313
651,3862288159,0.091598,-0.780810,-0.212052,-0.580502,0.039646,-0.426860,-0.018871
652,3862321493,0.090746,-0.782200,-0.211966,-0.578793,0.311223,-0.332524,0.084002
653,3862354827,0.090684,-0.783005,-0.212799,-0.577406,0.376725,-0.005120,0.194772
654,3862388161,0.091960,-0.782730,-0.215155,-0.576704,0.106119,-0.078218,0.215105
655,3862421495,0.093976,-0.782224,-0.218498,-0.575809,0.016495,-0.000083,0.349213
656,3862454829,0.096527,-0.781936,-0.222200,-0.574359,-0.233962,-0.205619,0.111382
657,3862488163,0.099378,-0.782198,-0.225958,-0.572046,-0.483234,-0.202638,0.371038
658,3862521497,0.102119,-0.782401,-0.229825,-0.569739,-0.363560,-0.113180,0.171503
659,3862554831,0.105139,-0.782662,-0.233619,-0.567283,0.011088,0.019507,0.074604
660,3862588165,0.107906,-0.782875,-0.236766,-0.565161,0.079712,0.035916,0.282593
661,3862621499,0.110401,-0.783032,-0.239547,-0.563287,-0.235539,-0.092397,0.224277
662,3862654833,0.112711,-0.783054,-0.242243,-0.561644,-0.354560,-0.163015,0.095948
663,3862688167,0.115394,-0.783150,-0.245379,-0.559599,-0.413183,-0.054236,-0.014034
664,3862721501,0.118439,-0.783423,-0.248606,-0.557152,-0.299654,0.116915,0.078750
665,3862754835,0.122036,-0.783978,-0.251884,-0.554113,-0.406926,0.088151,0.040505
666,3862788169,0.126338,-0.784690,-0.255363,-0.550538,-0.407804,0.096530,0.181692
667,3862821503,0.131103,-0.785581,-0.259146,-0.546370,-0.014583,0.266670,0.172978
668,3862854837,0.136489,-0.786550,-0.263676,-0.541467,0.286509,0.200323,0.249331
669,3862888171,0.141853,-0.787059,-0.268702,-0.536859,0.371467,0.079751,0.477224
670,3862921505,0.147060,-0.786279,-0.274051,-0.533888,0.604734,-0.054762,0.369985
671,3862954839,0.151618,-0.784525,-0.279460,-0.532388,0.670981,-0.232643,0.224198
672,3862988173,0.154481,-0.782807,-0.283679,-0.531863,0.621700,-0.329709,0.127868
673,3863021507,0.154857,-0.781535,-0.286159,-0.532295,0.090501,-0.143696,0.107238
674,3863054841,0.156114,-0.779951,-0.288795,-0.532827,-0.552992,0.677014,0.259723
675,3863088175,0.158644,-0.778004,-0.291878,-0.533246,-0.354165,0.411919,0.161587
676,3863121509,0.160151,-0.777060,-0.293763,-0.533136,-0.444979,-0.336474,0.132694
677,3863154843,0.159888,-0.777332,-0.293444,-0.532995,-0.375733,-0.478570,-0.080383
678,3863188177,0.158375,-0.778279,-0.291926,-0.532898,-0.339797,-0.286055,0.212484
679,3863221511,0.156118,-0.779094,-0.289932,-0.533461,-0.125750,-0.059678,0.205577
680,3863254845,0.153411,-0.779776,-0.287748,-0.534432,0.055477,0.127983,0.192813
681,3863288179,0.150373,-0.780180,-0.285256,-0.536039,0.038963,-0.076741,0.055242
682,3863321513,0.146839,-0.780486,-0.282467,-0.538047,0.007225,-0.017157,0.116433
683,3863354847,0.142972,-0.780571,-0.279361,-0.540580,-0.228038,-0.197784,0.255246
684,3863388181,0.138374,-0.780605,-0.276149,-0.543371,-0.272787,-0.227724,0.274153
685,3863421515,0.134087,-0.780607,-0.273821,-0.545616,-0.617408,-0.285654,0.224353
686,3863454849,0.129057,-0.780842,-0.270392,-0.548197,-0.472787,-0.153690,0.096125
687,3863488183,0.123298,-0.782040,-0.265843,-0.550036,-0.377512,-0.219669,0.073255
688,3863521517,0.117051,-0.783363,-0.260689,-0.551983,-0.440638,-0.279286,0.077119
689,3863554851,0.110661,-0.784390,-0.254847,-0.554564,-0.209342,-0.036946,0.020357
690,3863588185,0.104348,-0.785513,-0.248238,-0.557190,0.020957,-0.027267,-0.041512
691,3863621519,0.097137,-0.787039,-0.240508,-0.559724,-0.388625,-0.409178,-0.071438
692,3863654853,0.089268,-0.788966,-0.231898,-0.561951,-0.214438,-0.190947,-0.029866
693,3863688187,0.081734,-0.791279,-0.223163,-0.563379,0.138311,0.190090,0.365841
694,3863721521,0.075640,-0.793285,-0.215043,-0.564567,0.012710,0.212270,0.811942
695,3863754855,0.070329,-0.794033,-0.207590,-0.566987,-0.245178,0.183307,0.649100
696,3863788189,0.064699,-0.793770,-0.200169,-0.570682,0.044269,0.029605,0.207828
697,3863821523,0.059399,-0.793713,-0.192163,-0.574079,-0.266436,-0.370270,-0.092366
698,3863854857,0.052560,-0.794045,-0.182206,-0.577523,-0.544812,-0.110176,0.013664
699,3863888191,0.045190,-0.794206,-0.171643,-0.581150,-0.791740,0.239890,0.214136
700,3863921525,0.039064,-0.794014,-0.161316,-0.584803,-0.641404,0.318794,-0.107556
701,3863954859,0.033524,-0.793956,-0.150509,-0.588098,-0.632258,0.331779,0.116866
702,3863988193,0.027697,-0.794385,-0.138794,-0.590698,-0.803253,0.164633,-0.006828
703,3864021527,0.020631,-0.795609,-0.125370,-0.592339,-0.598590,0.240420,-0.001349
704,3864054861,0.014649,-0.797506,-0.111829,-0.592677,-0.387222,0.354317,0.094583
705,3864088195,0.010691,-0.799354,-0.100156,-0.592360,0.183473,0.286086,0.234197
706,3864121529,0.006333,-0.801222,-0.088871,-0.591699,0.610487,-0.106113,0.198473
707,3864154863,0.004061,-0.802887,-0.079727,-0.590764,0.661264,-0.195199,0.580872
708,3864188197,0.002210,-0.803620,-0.072198,-0.590744,0.936573,-0.368630,0.336361
709,3864221531,0.001125,-0.804101,-0.066172,-0.590799,0.740876,-0.168805,0.392081
710,3864254865,0.000895,-0.804601,-0.061084,-0.590667,0.238483,0.183606,0.244625
711,3864288199,0.001655,-0.805672,-0.056345,-0.589675,-0.166125,0.466540,-0.083388
712,3864321533,0.004113,-0.807251,-0.053116,-0.587801,-0.167928,0.565901,0.008392
713,3864354867,0.007912,-0.808962,-0.051199,-0.585575,-0.125791,0.229903,0.224316
714,3864388201,0.011370,-0.810554,-0.049014,-0.583501,0.236015,-0.107986,0.177475
715,3864421535,0.013849,-0.811682,-0.046437,-0.582088,0.349678,-0.177554,0.216143
716,3864454869,0.016035,-0.812330,-0.044079,-0.581311,-0.020278,0.121033,0.196993
717,3864488203,0.018024,-0.812831,-0.041856,-0.580716,-0.229918,0.379364,0.069030
718,3864521537,0.020732,-0.813568,-0.040577,-0.579683,-0.308548,0.521354,0.064923
719,3864554871,0.024388,-0.814503,-0.040348,-0.578242,-0.097635,0.634335,0.069728
720,3864588205,0.029031,-0.815543,-0.041422,-0.576483,0.053239,0.316799,0.059223
721,3864621539,0.034633,-0.816545,-0.043711,-0.574583,0.179234,0.173095,0.477405
722,3864654873,0.040534,-0.817292,-0.046953,-0.572878,0.250081,-0.043404,0.319745
723,3864688207,0.046511,-0.817809,-0.050961,-0.571341,0.261990,0.025887,0.253007
724,3864721541,0.052997,-0.818142,-0.055922,-0.569833,0.169261,0.264019,0.193989
725,3864754875,0.059471,-0.818353,-0.061143,-0.568353,0.020917,0.094646,0.167819
726,3864788209,0.065017,-0.818638,-0.065631,-0.566832,0.090813,-0.084611,0.055525
727,3864821543,0.070025,-0.819209,-0.069558,-0.564939,0.050258,0.069661,0.121336
728,3864854877,0.074818,-0.819967,-0.073446,-0.562730,0.085167,0.352892,0.259848
729,3864888211,0.079945,-0.820603,-0.077930,-0.560490,0.186934,0.316711,0.201375
730,3864921545,0.085268,-0.821172,-0.082944,-0.558147,0.141230,0.142886,0.221570
731,3864954879,0.090491,-0.821700,-0.088307,-0.555720,0.165605,0.182501,0.211958
732,3864988213,0.095894,-0.822010,-0.094261,-0.553373,0.277140,0.288006,0.219899
733,3865021547,0.101471,-0.822214,-0.100907,-0.550898,0.146234,0.291326,0.205621
734,3865054881,0.107387,-0.822137,-0.108456,-0.548451,0.030948,0.413485,0.181114
735,3865088215,0.113652,-0.821679,-0.116938,-0.546126,-0.013087,0.436512,0.152393
736,3865121549,0.119888,-0.821145,-0.125688,-0.543647,0.065915,0.449886,0.109455
737,3865154883,0.126399,-0.820338,-0.134825,-0.541196,0.071278,0.492199,0.164001
738,3865188217,0.132996,-0.819097,-0.144261,-0.539057,0.185904,0.402368,0.136954
739,3865221551,0.139490,-0.817526,-0.153906,-0.537130,0.276685,0.308529,0.116401
740,3865254885,0.145650,-0.815678,-0.163415,-0.535493,0.314017,0.430609,0.155029
741,3865288219,0.151564,-0.813268,-0.172842,-0.534557,0.367634,0.318766,0.271396
742,3865321553,0.157224,-0.810208,-0.182415,-0.534388,-0.048685,0.189291,0.365153
743,3865354887,0.162030,-0.807127,-0.190991,-0.534619,-0.210888,0.080947,0.001561
744,3865388221,0.166706,-0.803825,-0.199382,-0.535092,-0.886425,0.699643,0.104623
745,3865421555,0.171616,-0.800111,-0.208025,-0.535816,-0.405628,0.416948,0.211674
746,3865454889,0.176928,-0.796123,-0.216944,-0.536491,-0.530992,-0.487722,-0.082531
747,3865488223,0.181095,-0.792788,-0.224685,-0.536853,0.110501,-0.430817,-0.070924
748,3865521557,0.184475,-0.789951,-0.231428,-0.537019,-0.038920,0.178974,0.245373
749,3865554891,0.187467,-0.787075,-0.237778,-0.537432,-0.030207,-0.083626,0.135388
750,3865588225,0.190980,-0.783953,-0.245001,-0.537514,-0.294609,0.018679,0.257078
751,3865621559,0.194897,-0.780517,-0.252552,-0.537614,-0.115562,-0.000460,0.203195
752,3865654893,0.199007,-0.777325,-0.259700,-0.537327,-0.313966,-0.223097,0.098375
753,3865688227,0.201738,-0.775151,-0.265202,-0.536762,-0.520067,-0.220676,0.197721
754,3865721561,0.203664,-0.773944,-0.269159,-0.535806,-0.545865,-0.317616,0.071151
755,3865754895,0.204929,-0.774092,-0.271997,-0.533672,-0.384340,-0.168200,0.209516
756,3865788229,0.205711,-0.774528,-0.274142,-0.531636,-0.215810,-0.143188,0.258480
757,3865821563,0.205954,-0.774827,-0.275522,-0.530392,0.347324,-0.315062,0.184898
758,3865854897,0.205642,-0.775195,-0.276315,-0.529562,0.375592,-0.415848,0.269325
759,3865888231,0.204361,-0.775441,-0.276372,-0.529668,0.215383,-0.361376,0.305905
760,3865921565,0.202757,-0.775757,-0.275871,-0.530083,0.042330,-0.264424,0.271923
761,3865954899,0.201091,-0.776032,-0.275161,-0.530683,-0.217990,-0.329668,0.111942
762,3865988233,0.199029,-0.776264,-0.273868,-0.531789,-0.216835,-0.349233,0.189756
763,3866021567,0.196868,-0.776885,-0.271845,-0.532725,-0.062537,-0.243245,0.141603
764,3866054901,0.193563,-0.778005,-0.268821,-0.533834,-0.214396,-0.400292,0.309848
765,3866088235,0.189909,-0.778932,-0.264861,-0.535770,0.141380,-0.294198,0.288529
766,3866121569,0.186346,-0.779797,-0.260701,-0.537800,-0.049363,-0.223464,0.135217
767,3866154903,0.182237,-0.780650,-0.256519,-0.539977,-0.086944,-0.188289,0.300838
768,3866188237,0.178259,-0.781244,-0.252160,-0.542494,0.146396,-0.086679,0.164762
769,3866221571,0.174526,-0.781905,-0.247690,-0.544809,0.172690,0.013652,0.165572
770,3866254905,0.170800,-0.782609,-0.243290,-0.546958,0.002702,-0.258449,0.192470
771,3866288239,0.167318,-0.783544,-0.239018,-0.548576,0.067172,-0.034968,0.109850
772,3866321573,0.164270,-0.784706,-0.234947,-0.549594,-0.070835,0.035169,0.286225
773,3866354907,0.161520,-0.785329,-0.230816,-0.551268,0.098403,-0.350101,0.090293
774,3866388241,0.158227,-0.786402,-0.225988,-0.552691,0.082012,-0.491377,0.190212
775,3866421575,0.154402,-0.788013,-0.220146,-0.553835,-0.160850,-0.052565,0.240294
776,3866454909,0.150225,-0.789232,-0.213606,-0.555805,-0.163902,-0.195193,0.201187
777,3866488243,0.145590,-0.790315,-0.206182,-0.558298,0.017214,-0.631804,0.253933
778,3866521577,0.140103,-0.791395,-0.197635,-0.561255,-0.309971,-0.418412,0.227380
779,3866554911,0.133643,-0.792308,-0.187872,-0.564883,-0.562555,-0.004113,0.177281
780,3866588245,0.127528,-0.793252,-0.177906,-0.568190,-0.591036,0.113971,0.265087
781,3866621579,0.122844,-0.794100,-0.168846,-0.570795,-0.728464,-0.037814,0.157768
782,3866654913,0.118209,-0.795208,-0.159335,-0.572962,-0.253942,-0.063773,-0.034401
783,3866688247,0.113756,-0.796815,-0.149370,-0.574314,-0.062545,0.071867,0.136143
784,3866721581,0.109452,-0.798142,-0.139715,-0.575736,0.254890,0.060046,0.187310
785,3866754915,0.105954,-0.799112,-0.131352,-0.577011,0.353051,0.007176,0.259858
786,3866788249,0.103143,-0.799797,-0.123907,-0.578217,0.251864,-0.214400,0.045730
787,3866821583,0.100844,-0.800465,-0.116926,-0.579151,0.464414,-0.085403,0.100181
788,3866854917,0.099504,-0.800924,-0.111176,-0.579881,0.461000,0.317786,0.251733
789,3866888251,0.100053,-0.801050,-0.107865,-0.580238,0.383468,0.223743,0.257535
790,3866921585,0.102187,-0.800791,-0.106678,-0.580443,0.324988,0.067498,0.182373
791,3866954919,0.105426,-0.800492,-0.106757,-0.580262,0.298486,0.332129,0.137325
792,3866988253,0.109457,-0.800006,-0.107899,-0.579973,0.305702,0.352134,0.080951
793,3867021587,0.114293,-0.799519,-0.110129,-0.579293,0.126666,0.244547,0.305284
794,3867054921,0.119787,-0.798737,-0.113167,-0.578676,0.248405,0.340192,0.273530
795,3867088255,0.125624,-0.797154,-0.116928,-0.578873,0.509996,0.171958,0.096968
796,3867121589,0.131719,-0.794964,-0.121710,-0.579545,0.452598,0.058441,0.238265
797,3867154923,0.137500,-0.792173,-0.126998,-0.580886,0.322641,0.139921,0.039639
798,3867188257,0.143113,-0.788985,-0.133012,-0.582522,0.048268,0.316351,0.100789
799,3867221591,0.148158,-0.786225,-0.138681,-0.583669,-0.751033,0.706326,-0.057053
800,3867254925,0.154433,-0.784555,-0.144755,-0.582814,-1.380290,0.933019,0.130597
801,3867288259,0.163339,-0.784081,-0.151814,-0.579217,-1.584526,1.016291,0.210689
802,3867321593,0.174150,-0.783970,-0.159795,-0.574048,-0.971283,0.258509,0.207548
803,3867354927,0.184423,-0.783591,-0.167293,-0.569201,-0.154100,-0.738914,0.121444
804,3867388261,0.192122,-0.783745,-0.172333,-0.564922,0.031108,-0.492615,0.018711
805,3867421595,0.197309,-0.784387,-0.174905,-0.561442,0.118815,-0.036160,0.352047
806,3867454929,0.201130,-0.784056,-0.176627,-0.560007,0.218825,0.173354,0.442149
807,3867488263,0.205516,-0.782647,-0.179006,-0.559630,-0.027535,0.101374,0.318857
808,3867521597,0.209727,-0.780667,-0.181455,-0.560045,-0.106521,-0.082804,0.148180
809,3867554931,0.213488,-0.778941,-0.183108,-0.560488,-0.272444,0.113230,0.214881
810,3867588265,0.216430,-0.777625,-0.183981,-0.560902,-0.585074,0.056748,0.182339
811,3867621599,0.219154,-0.776604,-0.184497,-0.561089,-0.072736,-0.181273,0.199082
812,3867654933,0.221070,-0.775968,-0.184540,-0.561204,0.088616,-0.311798,0.137277
813,3867688267,0.222407,-0.775373,-0.184248,-0.561593,0.170854,-0.156913,0.089140
814,3867721601,0.222885,-0.774693,-0.183707,-0.562518,0.121362,0.175697,0.159141
815,3867754935,0.222845,-0.773912,-0.182931,-0.563861,0.295126,0.004169,0.247641
816,3867788269,0.222433,-0.773065,-0.182015,-0.565479,0.074384,-0.245237,0.131910
817,3867821603,0.220457,-0.772656,-0.179932,-0.567476,0.019216,-0.079206,0.048548
818,3867854937,0.218595,-0.773358,-0.177206,-0.568097,-1.144225,0.315947,-0.036318
819,3867888271,0.216587,-0.775707,-0.173411,-0.566833,-1.611148,0.205675,0.151727
820,3867921605,0.215189,-0.778543,-0.169698,-0.564596,-0.736420,-0.248110,0.044747
821,3867954939,0.213103,-0.782278,-0.164727,-0.561690,-0.333761,-0.358466,0.442636
822,3867988273,0.209599,-0.786248,-0.158099,-0.559365,-0.148174,-0.342344,0.016949
823,3868021607,0.204905,-0.789825,-0.150353,-0.558200,0.364672,-0.196702,0.171348
824,3868054941,0.199257,-0.791439,-0.142534,-0.560006,1.362171,-0.235882,0.531915
825,3868088275,0.193175,-0.791613,-0.135471,-0.563633,0.529536,-0.288466,0.524241
826,3868121609,0.185873,-0.791890,-0.127106,-0.567634,-0.403134,-0.260476,-0.149534
827,3868154943,0.177407,-0.792296,-0.117655,-0.571799,-0.545178,0.346182,-0.074938
828,3868188277,0.168825,-0.792517,-0.107718,-0.576033,-0.280769,0.350434,0.025339
829,3868221611,0.160815,-0.792324,-0.098213,-0.580274,-0.002402,-0.073319,0.242997
830,3868254945,0.152339,-0.792485,-0.087717,-0.584011,0.122743,-0.007101,0.294859
831,3868288279,0.142469,-0.792962,-0.075849,-0.587505,0.077612,0.071603,0.247308
832,3868321613,0.133609,-0.793540,-0.064779,-0.590126,-0.193762,0.620354,0.219233
833,3868354947,0.126127,-0.794354,-0.054804,-0.591686,-0.456287,0.768334,0.130178
834,3868388281,0.119663,-0.795295,-0.045971,-0.592516,-0.147736,0.602423,0.128498
835,3868421615,0.113994,-0.796181,-0.037894,-0.593016,0.080134,0.560245,0.156454
836,3868454949,0.108677,-0.796716,-0.030415,-0.593726,0.562711,0.063035,0.190494
837,3868488283,0.103515,-0.796983,-0.023293,-0.594611,0.413192,0.203206,0.217949
838,3868521617,0.099468,-0.796717,-0.017724,-0.595849,0.408142,0.253416,0.233518
839,3868554951,0.096590,-0.795894,-0.014486,-0.597508,0.316508,0.119642,0.334639
840,3868588285,0.093767,-0.795100,-0.011557,-0.599077,-0.054301,0.024709,0.088408
841,3868621619,0.090674,-0.794512,-0.007894,-0.600390,-0.000017,0.245841,0.163979
842,3868654953,0.087826,-0.793847,-0.004780,-0.601725,-0.053947,0.082857,0.224411
843,3868688287,0.084681,-0.792750,-0.001858,-0.603635,-0.146403,-0.096925,0.192732
844,3868721621,0.081091,-0.791155,0.001146,-0.606217,-0.177830,-0.093968,0.263078
845,3868754955,0.077163,-0.789260,0.004388,-0.609178,-0.150809,0.103681,0.069058
846,3868788289,0.072789,-0.787191,0.007997,-0.612348,-0.194725,-0.180058,0.105720
847,3868821623,0.068238,-0.785152,0.012045,-0.615416,-0.239872,0.185961,0.240807
848,3868854957,0.064066,-0.783963,0.016674,-0.617270,-0.527428,0.515367,-0.054899
849,3868888291,0.061227,-0.783620,0.020825,-0.617867,-0.173908,0.505840,0.064843
850,3868921625,0.060050,-0.783543,0.022583,-0.618018,0.321217,0.032591,0.325168
851,3868954959,0.060360,-0.783555,0.022096,-0.617991,0.381429,-0.077485,0.144265
852,3868988293,0.061488,-0.783786,0.020507,-0.617641,0.383288,-0.207437,0.105691
853,3869021627,0.063564,-0.784028,0.017678,-0.617211,0.540780,0.053695,0.268519
854,3869054961,0.067279,-0.784598,0.013278,-0.616203,0.220069,0.499618,0.184915
855,3869088295,0.072064,-0.785351,0.007580,-0.614796,0.209207,0.539595,0.224871
856,3869121629,0.078120,-0.785923,-0.000152,-0.613372,0.343527,0.366499,0.207647
857,3869154963,0.085358,-0.786577,-0.009322,-0.611495,0.191565,0.559119,0.214496
858,3869188297,0.092929,-0.787202,-0.019012,-0.609359,-0.015963,0.377216,0.267103
859,3869221631,0.100728,-0.787771,-0.029245,-0.606974,-0.385097,0.412638,-0.043324
860,3869254965,0.108457,-0.788674,-0.038734,-0.603931,-0.949229,0.599301,-0.115891
861,3869288299,0.116502,-0.789850,-0.048137,-0.600207,-0.852828,0.258004,0.073916
862,3869321633,0.124665,-0.791086,-0.058227,-0.596032,-0.154271,0.377319,0.328997
863,3869354967,0.132685,-0.791776,-0.068604,-0.592268,-0.159711,0.480909,0.222724
864,3869388301,0.140280,-0.791711,-0.078849,-0.589322,0.106977,0.209960,0.222852
865,3869421635,0.146860,-0.791181,-0.088348,-0.587079,0.017753,0.138320,0.225780
866,3869454969,0.151713,-0.790557,-0.096851,-0.585342,0.078806,-0.177010,-0.103003
867,3869488303,0.155602,-0.790712,-0.104883,-0.582722,-0.112273,0.479735,-0.169251
868,3869521637,0.158860,-0.791672,-0.112927,-0.579023,-0.397901,1.064258,0.212549
869,3869554971,0.162588,-0.793249,-0.121556,-0.574063,-0.683130,1.221922,0.188475
870,3869588305,0.167196,-0.794837,-0.131228,-0.568385,-0.247021,0.679164,-0.035677
871,3869621639,0.171581,-0.796411,-0.141152,-0.562466,0.306089,0.582336,0.220976
872,3869654973,0.174792,-0.796606,-0.151904,-0.558386,0.570381,0.498659,0.682613
873,3869688307,0.178558,-0.795452,-0.163965,-0.555419,0.359736,0.281904,0.156936
874,3869721641,0.180083,-0.794456,-0.175030,-0.552971,-0.120081,-0.105438,-0.132717
875,3869754975,0.179867,-0.793229,-0.185407,-0.551419,0.761786,-0.192039,0.248679
876,3869788309,0.178602,-0.790986,-0.195046,-0.551726,1.074686,0.055460,0.597891
877,3869821643,0.174985,-0.786469,-0.203497,-0.556272,1.522892,-0.336475,-0.012684
878,3869854977,0.169191,-0.780186,-0.210973,-0.564072,1.061924,-0.606202,-0.209845
879,3869888311,0.160814,-0.775293,-0.215982,-0.571326,0.016570,0.130868,0.182615
880,3869921645,0.152264,-0.771813,-0.219808,-0.576894,-1.557187,0.772407,0.371642
881,3869954979,0.145042,-0.769202,-0.222690,-0.581121,-1.861553,0.668659,-0.340194
882,3869988313,0.138081,-0.768852,-0.225181,-0.582319,-1.508930,0.450945,0.191326
883,3870021647,0.132215,-0.769864,-0.227839,-0.581309,-0.642092,-0.152520,0.237779
884,3870054981,0.127447,-0.770927,-0.230210,-0.580029,0.063229,-0.125327,0.546621
885,3870088315,0.122868,-0.771887,-0.231461,-0.579243,0.215266,-0.838102,0.264085
886,3870121649,0.117484,-0.772772,-0.231451,-0.579184,0.283015,-1.082844,0.208754
887,3870154983,0.112015,-0.773577,-0.230896,-0.579414,0.289090,-0.769816,0.407514
888,3870188317,0.107130,-0.773781,-0.230402,-0.580261,0.117551,-0.333623,0.517926
889,3870221651,0.102587,-0.773777,-0.229633,-0.581391,-0.078515,-0.117485,0.339361
890,3870254985,0.099107,-0.774082,-0.229027,-0.581827,-0.201204,-0.208987,0.221368
891,3870288319,0.096253,-0.774769,-0.228098,-0.581757,-0.284992,-0.241520,-0.025632
892,3870321653,0.094519,-0.775797,-0.227673,-0.580838,-0.306387,-0.263277,0.075330
893,3870354987,0.093413,-0.777071,-0.227798,-0.579263,-0.211771,-0.402122,0.038201
894,3870388321,0.091457,-0.778315,-0.227734,-0.577928,-0.031237,-0.463592,-0.190947
895,3870421655,0.089543,-0.780231,-0.227751,-0.575633,-0.056946,-0.212823,0.313070
896,3870454989,0.087506,-0.781911,-0.227100,-0.573921,0.219725,-0.104768,0.293611
897,3870488323,0.085607,-0.782642,-0.226008,-0.573642,0.284660,-0.325629,0.348467
898,3870521657,0.083223,-0.782385,-0.224856,-0.574795,0.008353,-0.426848,0.343678
899,3870554991,0.080669,-0.782173,-0.224192,-0.575707,-0.418011,-0.317209,0.469959
900,3870588325,0.077770,-0.782317,-0.223686,-0.576106,-0.326163,-0.035400,0.111289
901,3870621659,0.076611,-0.782642,-0.224771,-0.575397,-0.145439,0.533061,-0.103395
902,3870654993,0.077039,-0.783063,-0.227482,-0.573700,-0.393604,0.344906,0.052008
903,3870688327,0.078593,-0.782866,-0.230566,-0.572525,-0.248842,0.631528,-0.119713
904,3870721661,0.082627,-0.782402,-0.233964,-0.571213,-0.356958,0.710319,-0.061341
905,3870754995,0.087372,-0.783261,-0.238031,-0.567637,-0.745347,0.079552,0.068830
906,3870788329,0.093427,-0.783936,-0.243618,-0.563354,-0.530510,-0.029727,0.129055
907,3870821663,0.100583,-0.784341,-0.250749,-0.558408,0.041235,0.172105,0.243634
908,3870854997,0.107239,-0.784750,-0.258558,-0.553006,0.158212,-0.034742,0.375114
909,3870888331,0.114324,-0.784303,-0.266630,-0.548369,0.529528,-0.157335,0.260130
910,3870921665,0.120333,-0.783251,-0.274409,-0.544738,0.803772,-0.238221,0.358546
911,3870954999,0.123772,-0.781952,-0.279993,-0.542990,0.560901,-0.656303,0.451478
912,3870988333,0.124588,-0.780717,-0.282571,-0.543244,0.254947,-0.746493,0.374803
913,3871021667,0.122970,-0.779712,-0.282663,-0.545005,-0.296814,-0.421907,0.182636
914,3871055001,0.119976,-0.778765,-0.281363,-0.547693,-0.671200,-0.226089,0.142444
915,3871088335,0.115723,-0.778065,-0.278203,-0.551206,-0.778424,-0.190510,0.125437
916,3871121669,0.110558,-0.778161,-0.272858,-0.554791,-0.727634,0.074222,0.132909
917,3871155003,0.104578,-0.778806,-0.266497,-0.558127,-0.701638,0.055522,0.235452
918,3871188337,0.098669,-0.779145,-0.259959,-0.561802,-0.471685,0.048282,0.134214
919,3871221671,0.092599,-0.779524,-0.253028,-0.565462,-0.180595,-0.013544,0.267850
920,3871255005,0.085558,-0.779603,-0.245089,-0.569941,0.065042,-0.084854,0.365623
921,3871288339,0.079051,-0.779180,-0.237554,-0.574631,-0.158255,-0.094301,0.124505
922,3871321673,0.072422,-0.778307,-0.229825,-0.579807,-0.241245,0.038475,0.195752
923,3871355007,0.065138,-0.776950,-0.221568,-0.585675,-0.378760,0.016230,0.261147
924,3871388341,0.057148,-0.775635,-0.212687,-0.591516,-0.363717,0.132611,0.170340
925,3871421675,0.049114,-0.774711,-0.203460,-0.596671,-0.397300,0.201410,0.216525
926,3871455009,0.041446,-0.773924,-0.194504,-0.601244,-0.336191,0.389540,0.315129
927,3871488343,0.034347,-0.773064,-0.186683,-0.605263,-0.125831,0.666679,0.136184
928,3871521677,0.028211,-0.772219,-0.179822,-0.608727,0.035025,0.702544,-0.168577
929,3871555011,0.023023,-0.771764,-0.173066,-0.611474,0.135986,0.451759,-0.040322
930,3871588345,0.018340,-0.771794,-0.166322,-0.613462,0.035218,0.209405,0.027018
931,3871621679,0.014040,-0.772242,-0.159740,-0.614760,0.199060,0.070810,-0.166249
932,3871655013,0.009773,-0.773372,-0.152275,-0.615317,0.184329,-0.116999,-0.173322
933,3871688347,0.005359,-0.775086,-0.144081,-0.615188,0.213766,-0.121080,-0.044480
934,3871721681,0.001046,-0.776680,-0.136367,-0.614958,0.299100,-0.146617,0.092404
935,3871755015,-0.002588,-0.777675,-0.130121,-0.615049,0.637162,-0.255707,0.132150
936,3871788349,-0.005704,-0.778429,-0.125136,-0.615108,0.698528,-0.267737,0.165779
937,3871821683,-0.007513,-0.779062,-0.121267,-0.615063,0.341855,0.115883,0.245573
938,3871855017,-0.007823,-0.779524,-0.118773,-0.614961,0.083697,0.210360,0.307750
939,3871888351,-0.006873,-0.780199,-0.117937,-0.614276,-0.180738,0.321089,0.059929
940,3871921685,-0.004141,-0.780804,-0.118933,-0.613339,-0.265468,0.198142,-0.056102
941,3871955019,-0.000136,-0.782179,-0.120894,-0.611214,-0.390028,0.153038,0.066938
942,3871988353,0.004372,-0.784195,-0.122937,-0.608200,-0.447056,0.039142,0.026354
943,3872021687,0.008317,-0.785984,-0.124649,-0.605495,-0.008041,0.256151,0.023359
944,3872055021,0.009592,-0.787077,-0.123888,-0.604212,0.500303,-0.068745,0.299630
945,3872088355,0.010097,-0.787562,-0.122869,-0.603779,0.360474,-0.519569,0.470269
946,3872121689,0.011112,-0.788673,-0.122630,-0.602358,-0.020584,-0.627462,0.566082
947,3872155023,0.012244,-0.789804,-0.123274,-0.600721,-0.149274,0.141567,0.268598
948,3872188357,0.016847,-0.790203,-0.126940,-0.599320,0.307891,0.498161,0.213390
949,3872221691,0.022484,-0.791258,-0.129901,-0.597103,-0.444236,-0.271794,0.348389
950,3872255025,0.026732,-0.793000,-0.130670,-0.594444,-0.494503,0.018259,0.116719
951,3872288359,0.032243,-0.794876,-0.131633,-0.591445,-0.434434,0.657411,0.093065
952,3872321693,0.039556,-0.795994,-0.133705,-0.589027,-0.111891,0.009332,0.009302
953,3872355027,0.046029,-0.797475,-0.135016,-0.586248,-0.276371,-0.285003,0.453963
954,3872388361,0.051165,-0.799399,-0.135336,-0.583120,-0.306903,0.101306,0.172276
955,3872421695,0.054800,-0.800862,-0.134605,-0.580947,-0.092200,-0.098703,0.058070
956,3872455029,0.056966,-0.802298,-0.131459,-0.579477,-0.102556,0.071429,0.117345
957,3872488363,0.057094,-0.803978,-0.125189,-0.578523,-0.429526,0.332462,0.077801
958,3872521697,0.055637,-0.805521,-0.116881,-0.578257,-0.349570,0.011917,0.231298
959,3872555031,0.054140,-0.807023,-0.108829,-0.577876,0.045845,-0.088850,0.219954
960,3872588365,0.052612,-0.807891,-0.101656,-0.578110,0.233201,0.028751,0.518640
961,3872621699,0.051764,-0.807697,-0.096006,-0.579422,0.262211,-0.282136,0.390077
962,3872655033,0.051034,-0.806977,-0.090945,-0.581304,0.101549,-0.233508,0.187211
963,3872688367,0.049943,-0.806218,-0.085399,-0.583290,-0.049253,-0.178096,0.163065
964,3872721701,0.048500,-0.805781,-0.078798,-0.584942,-0.483821,0.209092,0.017698
965,3872755035,0.046810,-0.805270,-0.070948,-0.586785,0.097297,0.184144,0.088438
966,3872788369,0.045448,-0.804742,-0.063792,-0.588437,-0.145897,-0.240279,-0.000919
967,3872821703,0.043939,-0.804855,-0.056208,-0.589170,-0.524179,0.210887,0.093275
968,3872855037,0.042402,-0.805019,-0.048740,-0.589722,0.141963,0.224375,0.143151
969,3872888371,0.040924,-0.804850,-0.041368,-0.590621,0.546607,-0.030126,0.237439
970,3872921705,0.039506,-0.804609,-0.033794,-0.591527,0.225049,-0.213605,0.263921
971,3872955039,0.038271,-0.804184,-0.026884,-0.592539,0.055977,-0.027171,0.157990
972,3872988373,0.038314,-0.804117,-0.021918,-0.592832,-0.053538,-0.074631,0.098894
973,3873021707,0.039102,-0.804651,-0.017795,-0.592193,0.177031,-0.025681,0.209616
974,3873055041,0.040203,-0.805020,-0.013512,-0.591731,0.781940,-0.151049,0.479967
975,3873088375,0.041698,-0.805100,-0.009336,-0.591599,1.077614,-0.548600,0.438265
976,3873121709,0.044165,-0.805008,-0.006551,-0.591583,0.457257,-0.031900,0.390376
977,3873155043,0.048048,-0.804978,-0.006459,-0.591322,-0.013268,0.012749,0.134681
978,3873188377,0.052645,-0.805522,-0.007292,-0.590180,-0.024047,0.019297,-0.042480
979,3873221711,0.057868,-0.806366,-0.008399,-0.588521,0.327023,0.143221,0.175036
980,3873255045,0.063828,-0.807171,-0.010549,-0.586764,0.274859,0.122914,0.330600
981,3873288379,0.070422,-0.807755,-0.014234,-0.585125,-0.015719,0.282390,0.165406
982,3873321713,0.077648,-0.808084,-0.019347,-0.583609,-0.168296,0.422893,0.084989
983,3873355047,0.085461,-0.808200,-0.025208,-0.582130,-0.096601,0.555247,0.041954
984,3873388381,0.093534,-0.808243,-0.031264,-0.580533,-0.096187,0.511654,0.068101
985,3873421715,0.101577,-0.808056,-0.037604,-0.579064,-0.040355,0.430452,0.202017
986,3873455049,0.110024,-0.807245,-0.045045,-0.578120,0.081076,0.419637,0.198118
987,3873488383,0.119171,-0.805855,-0.053838,-0.577495,0.067540,0.598484,0.155010
988,3873521717,0.128859,-0.803910,-0.063644,-0.577127,-0.031053,0.710769,0.213058
989,3873555051,0.139601,-0.801382,-0.075060,-0.576772,-0.206748,0.462375,0.087594
990,3873588385,0.150406,-0.798653,-0.087082,-0.576151,-0.256183,0.017053,0.024838
991,3873621719,0.160342,-0.796435,-0.098259,-0.574742,-0.484784,0.244010,0.163966
992,3873655053,0.169444,-0.794586,-0.107958,-0.572948,-0.328196,0.535277,-0.002252
993,3873688387,0.178565,-0.792711,-0.117664,-0.570860,-0.169887,0.399298,0.207436
994,3873721721,0.187604,-0.790553,-0.127044,-0.568940,-0.083990,0.038996,0.109937
995,3873755055,0.195908,-0.788644,-0.135706,-0.566786,-0.237985,0.198503,0.175720
996,3873788389,0.203442,-0.786848,-0.143798,-0.564628,-0.167781,0.007465,0.128888
997,3873821723,0.210074,-0.785361,-0.150766,-0.562449,-0.051772,-0.070840,0.004446
998,3873855057,0.216025,-0.784447,-0.157040,-0.559746,-0.196657,0.061913,0.102216
999,3873888391,0.221347,-0.784205,-0.162704,-0.556379,-0.407894,0.226881,0.243963
1000,3873921725,0.226282,-0.783889,-0.167917,-0.553281,0.140870,0.106465,0.266722
1001,3873955059,0.230802,-0.782992,-0.173021,-0.551108,0.585867,-0.266405,0.364528
1002,3873988393,0.234038,-0.781812,-0.177101,-0.550122,0.326011,-0.266331,0.307375
1003,3874021727,0.235882,-0.780830,-0.179757,-0.549867,-0.027719,-0.171135,0.102240
1004,3874055061,0.236686,-0.780255,-0.181306,-0.549829,-0.225331,-0.030448,0.166302
1005,3874088395,0.236648,-0.779908,-0.181856,-0.550156,-0.242572,-0.161183,0.052834
1006,3874121729,0.235813,-0.780340,-0.181245,-0.550104,-0.582249,-0.144078,0.053983
1007,3874155063,0.233623,-0.781687,-0.178551,-0.550007,-0.341359,-0.053012,0.138215
1008,3874188397,0.230444,-0.783200,-0.174417,-0.550521,0.067824,-0.081130,0.213191
1009,3874221731,0.226320,-0.784703,-0.169191,-0.551722,0.212334,-0.185175,0.225015
1010,3874255065,0.220975,-0.786146,-0.163091,-0.553668,0.329127,-0.042839,0.346650
1011,3874288399,0.215304,-0.787300,-0.157045,-0.556005,0.255518,-0.024706,0.215229
1012,3874321733,0.209324,-0.788146,-0.151157,-0.558716,0.198980,0.014970,0.259436
1013,3874355067,0.203525,-0.788715,-0.145644,-0.561513,0.005587,0.196648,0.183289
1014,3874388401,0.198123,-0.788965,-0.140944,-0.564285,-0.081479,-0.058033,0.107007
1015,3874421735,0.192665,-0.789178,-0.136382,-0.566993,0.037699,-0.219256,0.142179
1016,3874455069,0.186890,-0.789404,-0.131421,-0.569776,0.071059,-0.052006,0.203100
1017,3874488403,0.181045,-0.789365,-0.126393,-0.572846,-0.004937,-0.157836,0.217086
1018,3874521737,0.175428,-0.789270,-0.121366,-0.575804,-0.137251,-0.338403,0.010550
1019,3874555071,0.168965,-0.789654,-0.115210,-0.578469,-0.107078,-0.145770,0.135600
1020,3874588405,0.162159,-0.790045,-0.108449,-0.581184,-0.067405,0.004306,0.221707
1021,3874621739,0.156373,-0.790747,-0.102648,-0.582865,-0.589566,0.415286,0.118614
1022,3874655073,0.152393,-0.791870,-0.098485,-0.583114,-0.733610,0.867320,0.139752
1023,3874688407,0.150850,-0.792920,-0.096321,-0.582449,-0.366055,0.677102,0.120917
1024,3874721741,0.150884,-0.793836,-0.095500,-0.581326,-0.101870,0.105640,0.229795
1025,3874755075,0.151281,-0.794432,-0.095465,-0.580414,0.350435,-0.369888,0.126654
1026,3874788409,0.152042,-0.794800,-0.096049,-0.579615,0.480152,-0.061575,0.340016
1027,3874821743,0.153331,-0.794412,-0.097545,-0.579557,0.590788,-0.060658,0.162650
1028,3874855077,0.155352,-0.793413,-0.100287,-0.579919,0.325289,0.188474,0.170593
1029,3874888411,0.157784,-0.791956,-0.103907,-0.580616,0.119433,0.214657,0.160734
1030,3874921745,0.161510,-0.790413,-0.108975,-0.580765,-0.146902,0.371487,0.148468
1031,3874955079,0.166086,-0.788967,-0.114850,-0.580309,-0.283773,0.350388,0.111642
1032,3874988413,0.171707,-0.787868,-0.121461,-0.578818,-0.320041,0.371288,0.146950
1033,3875021747,0.178271,-0.787392,-0.128552,-0.575943,-0.546300,0.452378,0.110505
1034,3875055081,0.185560,-0.786992,-0.136081,-0.572446,-0.343164,0.338640,0.131979
1035,3875088415,0.193342,-0.786755,-0.143846,-0.568283,-0.283803,0.216945,0.119951
1036,3875121749,0.201296,-0.786528,-0.151838,-0.563738,-0.220749,0.207167,0.130251
1037,3875155083,0.209123,-0.786009,-0.160077,-0.559316,0.162739,0.168921,0.349794
1038,3875188417,0.216707,-0.784949,-0.168625,-0.555393,0.315052,0.011634,0.418622
1039,3875221751,0.223034,-0.783471,-0.176622,-0.552481,0.568978,-0.097073,0.203890
1040,3875255085,0.227943,-0.781643,-0.183949,-0.550674,0.510837,-0.187012,0.054519
1041,3875288419,0.231740,-0.779508,-0.190431,-0.549911,0.277838,0.363518,0.329939
1042,3875321753,0.235538,-0.776356,-0.196733,-0.550538,-0.084553,0.249250,0.127756
1043,3875355087,0.239825,-0.773434,-0.203158,-0.550466,-0.326896,-0.108778,-0.018378
1044,3875388421,0.244300,-0.771492,-0.209131,-0.548985,-0.564176,0.234383,0.179050
1045,3875421755,0.248900,-0.769812,-0.215240,-0.546912,-0.331985,0.161365,0.193069
1046,3875455089,0.254037,-0.768064,-0.221654,-0.544440,-0.215013,-0.019410,0.133151
1047,3875488423,0.258735,-0.766759,-0.227800,-0.541522,-0.026491,-0.371575,0.194612
1048,3875521757,0.262924,-0.765355,-0.233730,-0.538957,0.126455,-0.402201,0.251090
1049,3875555091,0.266309,-0.763577,-0.238816,-0.537587,0.359578,-0.136054,0.249972
1050,3875588425,0.268572,-0.761724,-0.243074,-0.537180,0.181128,-0.364266,0.241580
1051,3875621759,0.269410,-0.760089,-0.246232,-0.537638,0.387887,-0.542357,0.227918
1052,3875655093,0.268730,-0.759066,-0.247870,-0.538670,0.131005,-0.418428,0.172530
1053,3875688427,0.266413,-0.758654,-0.247815,-0.540424,-0.191698,-0.318544,0.111065
1054,3875721761,0.263091,-0.758923,-0.246443,-0.542298,-0.338580,-0.264912,0.228301
1055,3875755095,0.259015,-0.759761,-0.243762,-0.544295,-0.587049,-0.351517,0.224262
1056,3875788429,0.254011,-0.761145,-0.239626,-0.546552,-0.653855,-0.474243,0.172278
1057,3875821763,0.248464,-0.763509,-0.234167,-0.548167,-0.926273,-0.252447,0.198860
1058,3875855097,0.242577,-0.766781,-0.227464,-0.549059,-0.951693,-0.099416,0.231237
1059,3875888431,0.236725,-0.770383,-0.220097,-0.549574,-0.585102,-0.320309,0.189775
1060,3875921765,0.230894,-0.774101,-0.212328,-0.549887,-0.315244,-0.326640,0.260505
1061,3875955099,0.224600,-0.777924,-0.203777,-0.550333,-0.199057,-0.329486,0.201750
1062,3875988433,0.217508,-0.781604,-0.194320,-0.551386,0.079464,-0.382602,0.133032
1063,3876021767,0.209633,-0.784763,-0.184436,-0.553341,0.032902,-0.213223,0.324541
1064,3876055101,0.201524,-0.787232,-0.174792,-0.555971,0.152745,-0.104081,0.260497
1065,3876088435,0.193524,-0.789032,-0.165486,-0.559101,-0.063291,-0.133219,0.239076
1066,3876121769,0.184819,-0.790370,-0.155483,-0.563013,0.000551,-0.115739,0.094451
1067,3876155103,0.175722,-0.791369,-0.145135,-0.567270,0.121120,-0.002765,0.148166
1068,3876188437,0.167108,-0.791799,-0.135032,-0.571750,0.153154,-0.034298,0.265966
1069,3876221771,0.158510,-0.792163,-0.124686,-0.576028,-0.233008,-0.107840,0.332345
1070,3876255105,0.149661,-0.793602,-0.113368,-0.578747,-0.935310,0.123696,-0.112492
1071,3876288439,0.141065,-0.795766,-0.101696,-0.580101,-0.809147,0.401077,0.007685
1072,3876321773,0.133029,-0.798407,-0.089889,-0.580320,-0.975660,0.619299,0.080071
1073,3876355107,0.125617,-0.801066,-0.077870,-0.580045,-0.501222,0.310328,-0.113385
1074,3876388441,0.118061,-0.803254,-0.065646,-0.580119,-0.061211,-0.134688,0.150302
1075,3876421775,0.109331,-0.804525,-0.052468,-0.581408,0.485938,0.009175,0.387317
1076,3876455109,0.099207,-0.804555,-0.038312,-0.584281,0.609812,0.145402,0.326712
1077,3876488443,0.089134,-0.803732,-0.024502,-0.587769,0.369394,0.070578,0.263442
1078,3876521777,0.078774,-0.802662,-0.010880,-0.591111,0.345678,-0.073491,0.288442
1079,3876555111,0.068887,-0.801280,0.002006,-0.594309,0.616626,0.236136,0.160080
1080,3876588445,0.060668,-0.799255,0.012833,-0.597787,0.645870,0.155785,0.302372
1081,3876621779,0.053298,-0.797119,0.021677,-0.601076,0.238606,-0.452974,0.237577
1082,3876655113,0.046162,-0.795069,0.030025,-0.604016,0.304075,-0.277937,0.030037
1083,3876688447,0.039072,-0.793231,0.037950,-0.606482,0.137819,-0.089120,0.294447
1084,3876721781,0.033224,-0.791758,0.044605,-0.608300,0.030710,0.231233,-0.050189
1085,3876755115,0.028481,-0.790656,0.050173,-0.609538,0.115141,0.562738,0.160962
1086,3876788449,0.025523,-0.790027,0.053925,-0.610164,0.080298,0.769282,0.193962
1087,3876821783,0.024003,-0.789619,0.056508,-0.610521,-0.114007,0.733230,0.004674
1088,3876855117,0.024220,-0.789706,0.057568,-0.610300,-0.160432,0.720683,-0.067029
1089,3876888451,0.025278,-0.790315,0.057977,-0.609429,0.071942,0.544985,0.095247
1090,3876921785,0.027552,-0.790946,0.056880,-0.608616,0.380940,0.303032,0.259407
1091,3876955119,0.030453,-0.791291,0.054422,-0.608253,0.563558,0.060733,0.170607
1092,3876988453,0.034359,-0.791678,0.050433,-0.607885,0.405511,0.341446,0.382795
1093,3877021787,0.039594,-0.791959,0.044399,-0.607672,0.205525,0.248302,0.193247
1094,3877055121,0.045762,-0.792028,0.037079,-0.607639,0.281013,0.166586,0.209370
1095,3877088455,0.052470,-0.791739,0.028870,-0.607919,0.192605,0.064898,0.111752
1096,3877121789,0.059815,-0.791630,0.019849,-0.607745,-0.087059,0.006142,-0.003765
1097,3877155123,0.067709,-0.791620,0.010347,-0.607165,-0.058358,0.184772,0.306746
1098,3877188457,0.076126,-0.791522,0.000330,-0.606384,-0.071665,0.293224,0.125991
1099,3877221791,0.084904,-0.791620,-0.009678,-0.605011,-0.303776,0.190709,-0.029144
1100,3877255125,0.094097,-0.791832,-0.019992,-0.603117,-0.143308,0.255810,0.342519
1101,3877288459,0.103555,-0.791996,-0.030599,-0.600904,-0.346998,-0.094761,0.183884
1102,3877321793,0.112141,-0.792477,-0.039868,-0.598179,-0.337630,-0.123174,-0.049440
1103,3877355127,0.119742,-0.793048,-0.048002,-0.595345,0.201744,0.237006,0.178025
1104,3877388461,0.127402,-0.793416,-0.056598,-0.592503,0.239962,0.419077,0.360912
1105,3877421795,0.135743,-0.793161,-0.066476,-0.589961,0.143694,0.238040,0.256717
1106,3877455129,0.144372,-0.792599,-0.077251,-0.587349,0.093896,0.201302,0.072985
1107,3877488463,0.152756,-0.791945,-0.088312,-0.584545,0.049458,0.523812,0.184363
1108,3877521797,0.161691,-0.791119,-0.100217,-0.581331,-0.250282,0.598001,0.238559
1109,3877555131,0.171154,-0.790158,-0.112958,-0.577581,-0.510052,0.144912,-0.030684
1110,3877588465,0.180125,-0.789450,-0.124950,-0.573336,-0.342172,0.060070,-0.057601
1111,3877621799,0.188177,-0.789240,-0.135508,-0.568621,-0.349093,0.097635,0.233637
1112,3877655133,0.195447,-0.789351,-0.144688,-0.563733,-0.482598,-0.135244,0.085440
1113,3877688467,0.201730,-0.789671,-0.152499,-0.558992,-0.354776,-0.098906,0.124356
1114,3877721801,0.207060,-0.789966,-0.159534,-0.554646,0.048741,0.073949,0.297014
1115,3877755135,0.211661,-0.789783,-0.166013,-0.551258,0.243232,-0.180879,0.359753
1116,3877788469,0.215407,-0.789086,-0.171735,-0.549047,0.362009,-0.190093,0.186954
1117,3877821803,0.217340,-0.788587,-0.176224,-0.547578,0.222280,-0.009236,0.129861
1118,3877855137,0.218703,-0.788311,-0.180236,-0.546125,-0.043778,0.215545,0.225049
1119,3877888471,0.219827,-0.788124,-0.184000,-0.544687,-0.122660,0.205435,0.237972
1120,3877921805,0.220601,-0.788230,-0.187656,-0.542971,-0.098559,0.148020,0.112384
1121,3877955139,0.221239,-0.788486,-0.191302,-0.541064,-0.121753,0.113364,0.087046
1122,3877988473,0.221589,-0.788791,-0.194675,-0.539270,0.102007,0.073602,0.155676
1123,3878021807,0.221320,-0.789074,-0.197669,-0.537875,0.151962,-0.115535,0.141879
1124,3878055141,0.220026,-0.789693,-0.199796,-0.536711,-0.011711,-0.046872,0.107872
1125,3878088475,0.217992,-0.790266,-0.201326,-0.536125,-0.077891,-0.103940,0.167853
1126,3878121809,0.215131,-0.791003,-0.202266,-0.535840,-0.164607,-0.046926,0.151587
1127,3878155143,0.211450,-0.792151,-0.202347,-0.535579,-0.334984,-0.180939,0.117072
1128,3878188477,0.206962,-0.793653,-0.201360,-0.535480,-0.314939,-0.069128,0.035134
1129,3878221811,0.201772,-0.795383,-0.199739,-0.535501,-0.289431,0.134881,0.168593
1130,3878255145,0.196295,-0.797143,-0.197885,-0.535608,-0.202729,0.088368,0.379404
1131,3878288479,0.190646,-0.798582,-0.195783,-0.536276,-0.014313,-0.055649,0.243090
1132,3878321813,0.184570,-0.799718,-0.193709,-0.537462,-0.073898,-0.057548,0.036934
1133,3878355147,0.178088,-0.800796,-0.191488,-0.538838,-0.204572,0.152455,0.231409
1134,3878388481,0.171975,-0.801707,-0.189583,-0.540140,-0.356103,0.245923,0.316209
1135,3878421815,0.165839,-0.802244,-0.187977,-0.541821,-0.164983,0.097677,0.086426
1136,3878455149,0.159469,-0.802802,-0.186408,-0.543446,-0.134909,-0.027602,-0.040122
1137,3878488483,0.152891,-0.803721,-0.184630,-0.544584,-0.119247,0.176707,0.254303
1138,3878521817,0.146434,-0.804480,-0.182941,-0.545807,-0.051101,0.229927,0.265907
1139,3878555151,0.140107,-0.804777,-0.181689,-0.547445,0.018604,0.209677,-0.053006
1140,3878588485,0.134193,-0.804884,-0.181349,-0.548880,0.005577,0.037982,0.204652
1141,3878621819,0.128080,-0.804924,-0.180728,-0.550484,0.167302,-0.103281,0.347204
1142,3878655153,0.120729,-0.804922,-0.178590,-0.552843,0.364508,0.034678,-0.015759
1143,3878688487,0.112625,-0.805148,-0.175196,-0.555303,0.251965,0.144977,-0.004726
1144,3878721821,0.105182,-0.804777,-0.172478,-0.558144,0.255559,-0.060883,0.296174
1145,3878755155,0.098724,-0.803734,-0.171188,-0.561216,0.274305,-0.193909,0.471764
1146,3878788489,0.092859,-0.802249,-0.170618,-0.564506,0.223547,-0.183757,0.426312
1147,3878821823,0.087527,-0.800212,-0.170339,-0.568320,0.144131,-0.188285,0.444029
1148,3878855157,0.082175,-0.797539,-0.170242,-0.572887,0.203703,-0.423041,0.551449
1149,3878888491,0.076390,-0.794859,-0.169715,-0.577550,-0.013646,-0.689006,0.615054
1150,3878921825,0.069673,-0.792437,-0.168039,-0.582199,-0.134398,-0.490520,0.418739
1151,3878955159,0.062110,-0.790305,-0.165546,-0.586649,-0.080523,-0.130336,0.411124
1152,3878988493,0.054631,-0.788448,-0.163535,-0.590444,-0.160485,0.084562,0.066454
1153,3879021827,0.047441,-0.787345,-0.162644,-0.592779,-0.506740,0.018866,-0.061180
1154,3879055161,0.040589,-0.786889,-0.161169,-0.594294,-0.185066,0.247883,-0.282648
1155,3879088495,0.036215,-0.786997,-0.160764,-0.594544,-0.292426,0.316494,-0.240859
1156,3879121829,0.033083,-0.787443,-0.160329,-0.594254,-0.383835,0.197316,-0.075066
1157,3879155163,0.029891,-0.788688,-0.159572,-0.592973,-0.117166,0.294977,0.037729
1158,3879188497,0.028531,-0.790248,-0.159683,-0.590930,0.128273,0.309879,0.273709
1159,3879221831,0.028844,-0.791477,-0.161079,-0.588888,0.154283,-0.035363,0.220740
1160,3879255165,0.029119,-0.792096,-0.163193,-0.587458,0.237776,-0.309166,0.280551
1161,3879288499,0.030378,-0.791884,-0.166664,-0.586705,0.424118,-0.391279,0.208800
1162,3879321833,0.031496,-0.791487,-0.170587,-0.586055,0.130147,-0.200619,0.110308
1163,3879355167,0.032743,-0.791059,-0.174420,-0.585435,-0.269248,-0.218780,0.193493
1164,3879388501,0.034263,-0.790890,-0.178370,-0.584385,-0.220104,-0.002722,0.157541
1165,3879421835,0.035718,-0.790673,-0.182185,-0.583414,-0.146129,0.131638,0.007627
1166,3879455169,0.037517,-0.790541,-0.185698,-0.582371,-0.091117,0.023006,0.036470
1167,3879488503,0.039171,-0.790642,-0.187897,-0.581420,0.135354,-0.129819,0.048243
1168,3879521837,0.040156,-0.791095,-0.189078,-0.580352,0.146528,-0.112300,0.085134
1169,3879555171,0.041004,-0.791360,-0.189930,-0.579653,0.059719,-0.091721,0.242578
1170,3879588505,0.041649,-0.791331,-0.190760,-0.579374,-0.135957,-0.079415,0.343632
1171,3879621839,0.041877,-0.791019,-0.191280,-0.579612,-0.112868,-0.094196,0.196527
1172,3879655173,0.041929,-0.790871,-0.191516,-0.579732,-0.298658,-0.190972,0.130199
1173,3879688507,0.041939,-0.790707,-0.191247,-0.580044,-0.340477,-0.142840,0.045681
1174,3879721841,0.042000,-0.790442,-0.190370,-0.580689,-0.270797,0.002983,0.055723
1175,3879755175,0.041423,-0.790443,-0.188501,-0.581339,-0.495987,-0.205496,0.099904
1176,3879788509,0.040686,-0.790637,-0.186070,-0.581910,-0.238617,-0.137761,0.163836
1177,3879821843,0.039829,-0.790731,-0.183350,-0.582704,-0.131034,-0.093465,0.213861
1178,3879855177,0.038860,-0.790476,-0.180257,-0.584079,-0.004946,-0.204188,0.222442
1179,3879888511,0.037436,-0.790207,-0.176191,-0.585774,0.195669,-0.280740,0.219972
1180,3879921845,0.035214,-0.790028,-0.171005,-0.587687,-0.002861,-0.289663,0.170415
1181,3879955179,0.033145,-0.789661,-0.165606,-0.589844,-0.200040,-0.111620,0.019712
1182,3879988513,0.031543,-0.789345,-0.160287,-0.591820,-0.316351,0.002412,0.046682
1183,3880021847,0.030119,-0.789306,-0.154931,-0.593370,-0.284309,-0.083924,0.313164
1184,3880055181,0.029190,-0.789375,-0.149090,-0.594819,-0.153881,-0.151002,0.252030
1185,3880088515,0.028959,-0.789570,-0.143214,-0.596015,-0.091627,-0.205654,0.132801
1186,3880121849,0.029134,-0.790015,-0.137413,-0.596781,-0.225482,-0.534251,0.397044
1187,3880155183,0.028912,-0.791027,-0.132278,-0.596612,0.027924,-0.577392,0.401003
1188,3880188517,0.030010,-0.791410,-0.128602,-0.596853,0.355436,0.309422,0.165835
1189,3880221851,0.032598,-0.791083,-0.125144,-0.597885,-0.115003,-0.338865,-0.138579
1190,3880255185,0.033364,-0.790991,-0.119241,-0.599170,-0.392353,-0.641903,0.059924
1191,3880288519,0.033760,-0.791503,-0.111772,-0.599911,-0.490688,-0.099288,0.412612
1192,3880321853,0.034936,-0.791396,-0.104096,-0.601364,0.035593,-0.151615,0.556158
1193,3880355187,0.035351,-0.791001,-0.095712,-0.603249,0.131314,-0.684842,0.194733
1194,3880388521,0.034814,-0.790884,-0.086171,-0.604870,-0.115731,0.085704,0.206315
1195,3880421855,0.034110,-0.790661,-0.076911,-0.606448,-0.269639,0.238620,0.166599
1196,3880455189,0.035217,-0.790691,-0.069242,-0.607270,-0.267428,0.832795,-0.115960
1197,3880488523,0.038420,-0.791191,-0.063891,-0.607011,-0.336995,1.196326,0.336732
1198,3880521857,0.042552,-0.791054,-0.060344,-0.607276,-0.152501,-0.092547,0.033923
1199,3880555191,0.045733,-0.790971,-0.055507,-0.607614,-0.090242,-0.352171,-0.027667
1200,3880588525,0.047306,-0.790776,-0.048981,-0.608308,0.256426,0.046037,0.196506
1201,3880621859,0.047914,-0.790565,-0.041781,-0.609071,0.201431,-0.038480,0.189461
1202,3880655193,0.047613,-0.790635,-0.033972,-0.609490,0.180804,0.000899,-0.012922
1203,3880688527,0.047118,-0.791071,-0.026187,-0.609347,0.289555,0.448429,0.254588
1204,3880721861,0.047541,-0.791402,-0.019819,-0.609124,0.521503,0.406383,0.296320
1205,3880755195,0.048330,-0.791350,-0.014552,-0.609279,0.328564,0.088344,0.196867
1206,3880788529,0.048979,-0.791146,-0.009840,-0.609586,0.430493,0.049885,0.027326
1207,3880821863,0.049706,-0.791349,-0.004998,-0.609322,0.476200,0.378587,0.152493
1208,3880855197,0.051019,-0.791576,-0.001208,-0.608939,0.517471,1.021890,0.444895
1209,3880888531,0.053590,-0.791304,0.000399,-0.609073,0.459967,0.288473,0.204907
1210,3880921865,0.057592,-0.791113,0.000141,-0.608956,0.117418,0.383460,0.182167
1211,3880955199,0.061876,-0.790913,-0.000905,-0.608794,0.375937,0.232714,0.122771
1212,3880988533,0.066435,-0.790826,-0.003142,-0.608418,0.172007,0.374802,0.200985
1213,3881021867,0.071318,-0.791030,-0.005943,-0.607579,-0.013767,0.115007,0.016889
1214,3881055201,0.076216,-0.791445,-0.008888,-0.606408,0.047529,0.020222,0.150126
1215,3881088535,0.081297,-0.791916,-0.012576,-0.605066,0.160748,0.383336,0.214629
1216,3881121869,0.087042,-0.792673,-0.017506,-0.603149,-0.107667,0.632323,0.107024
1217,3881155203,0.093931,-0.793647,-0.023902,-0.600610,-0.088715,0.633310,0.044550
1218,3881188537,0.101709,-0.794499,-0.031467,-0.597862,0.223560,0.448528,0.261854
1219,3881221871,0.109779,-0.794850,-0.039981,-0.595455,0.150555,0.077295,0.235467
1220,3881255205,0.118183,-0.794853,-0.049454,-0.593126,0.169433,0.476283,0.073619
1221,3881288539,0.127508,-0.794311,-0.060647,-0.590878,0.166751,0.874712,0.516563
1222,3881321873,0.138263,-0.792392,-0.074214,-0.589486,0.002250,0.506780,0.236688
1223,3881355207,0.149235,-0.790019,-0.088348,-0.588045,-0.230254,0.041713,-0.116622
1224,3881388541,0.158649,-0.788046,-0.100438,-0.586285,-0.489176,0.388033,0.082004
1225,3881421875,0.167119,-0.786461,-0.111144,-0.584123,-0.677845,0.663124,0.054538
1226,3881455209,0.176356,-0.784714,-0.122598,-0.581460,-0.850441,0.336084,0.127070
1227,3881488543,0.185799,-0.782911,-0.133974,-0.578432,-0.509847,-0.339679,-0.005036
1228,3881521877,0.194242,-0.782146,-0.143843,-0.574308,-0.198088,-0.172687,0.064736
1229,3881555211,0.201794,-0.782132,-0.152257,-0.569535,-0.221610,-0.065935,0.226610
1230,3881588545,0.209038,-0.782042,-0.160293,-0.564821,0.069087,0.004979,0.168854
1231,3881621879,0.216050,-0.781985,-0.168472,-0.559858,0.082747,-0.048735,0.149819
1232,3881655213,0.222788,-0.782014,-0.176276,-0.554751,0.087579,0.024985,0.217531
1233,3881688547,0.228608,-0.781979,-0.183255,-0.550153,0.301323,-0.225773,0.256721
1234,3881721881,0.233336,-0.781808,-0.189237,-0.546372,0.501904,-0.272589,0.123260
1235,3881755215,0.237171,-0.781460,-0.194533,-0.543350,0.359860,-0.067903,0.242883
1236,3881788549,0.239978,-0.780974,-0.199177,-0.541130,0.314492,-0.147509,0.187950
1237,3881821883,0.242179,-0.780735,-0.203066,-0.539045,0.178229,0.020501,0.172734
1238,3881855217,0.243462,-0.780876,-0.205840,-0.537208,0.318831,0.085071,0.146708
1239,3881888551,0.243182,-0.781137,-0.207317,-0.536387,0.008762,0.150027,0.378682
1240,3881921885,0.242425,-0.780830,-0.208262,-0.536809,0.292820,-0.013411,0.143125
1241,3881955219,0.240610,-0.780868,-0.208313,-0.537550,-0.130039,-0.059148,0.109419
1242,3881988553,0.238232,-0.781749,-0.207493,-0.537646,-0.535527,0.112346,0.149961
1243,3882021887,0.235287,-0.783174,-0.205822,-0.537512,-0.678983,0.115029,0.083158
1244,3882055221,0.231831,-0.784946,-0.203646,-0.537257,-0.336621,-0.181449,0.129454
1245,3882088555,0.227738,-0.786905,-0.201103,-0.537099,-0.179105,-0.170720,0.227148
1246,3882121889,0.223473,-0.788765,-0.198159,-0.537257,0.007839,-0.213084,0.182246
1247,3882155223,0.218113,-0.790594,-0.194394,-0.538148,-0.044273,-0.118888,0.274100
1248,3882188557,0.212320,-0.791961,-0.190639,-0.539794,0.097658,-0.053543,0.177566
1249,3882221891,0.206934,-0.793031,-0.187494,-0.541414,-0.104513,-0.097058,0.182156
1250,3882255225,0.201467,-0.793898,-0.184552,-0.543213,-0.012219,-0.041086,0.184261
1251,3882288559,0.195884,-0.794537,-0.181528,-0.545336,0.156067,0.067210,0.142902
1252,3882321893,0.190201,-0.795284,-0.178286,-0.547324,-0.160251,0.053445,0.215321
1253,3882355227,0.185067,-0.795917,-0.175737,-0.548986,-0.209572,0.134004,0.136079
1254,3882388561,0.180621,-0.796532,-0.173986,-0.550131,-0.165647,0.333480,0.100092
1255,3882421895,0.176985,-0.797031,-0.172878,-0.550940,-0.143240,0.208889,0.204941
1256,3882455229,0.173679,-0.797739,-0.172004,-0.551240,-0.226702,-0.009006,0.141349
1257,3882488563,0.170599,-0.798571,-0.171361,-0.551198,-0.090775,0.176957,0.145086
1258,3882521897,0.167998,-0.799072,-0.171349,-0.551274,-0.040885,0.116212,0.149498
1259,3882555231,0.165843,-0.799470,-0.171782,-0.551215,0.026043,-0.039327,0.174227
1260,3882588565,0.164034,-0.799869,-0.172576,-0.550929,-0.028821,0.097938,0.164544
1261,3882621899,0.162662,-0.800082,-0.173672,-0.550682,0.007482,0.194496,0.114851
1262,3882655233,0.162350,-0.800096,-0.175800,-0.550079,-0.011070,0.111240,0.167048
1263,3882688567,0.162623,-0.800077,-0.178579,-0.549130,0.004108,-0.033398,0.230138
1264,3882721901,0.163421,-0.799867,-0.181778,-0.548148,0.006865,-0.025800,0.153381
1265,3882755235,0.164564,-0.799595,-0.185337,-0.547010,-0.216980,0.081197,0.084335
1266,3882788569,0.165882,-0.799377,-0.189110,-0.545637,-0.121013,-0.048789,0.205795
1267,3882821903,0.167219,-0.799293,-0.192851,-0.544040,0.119656,-0.052091,0.134969
1268,3882855237,0.168617,-0.799357,-0.196607,-0.542167,0.002916,-0.010668,0.086064
1269,3882888571,0.169666,-0.799474,-0.200093,-0.540389,0.052305,0.095058,0.224923
1270,3882921905,0.170820,-0.799095,-0.203983,-0.539131,0.152505,-0.062263,0.197396
1271,3882955239,0.172006,-0.798303,-0.208221,-0.538307,0.422531,-0.253512,0.241553
1272,3882988573,0.172954,-0.797601,-0.211905,-0.537605,0.085220,-0.079251,0.324282
1273,3883021907,0.173249,-0.796971,-0.215032,-0.537203,-0.461755,0.205863,0.153939
1279,3883221911,0.181153,-0.792403,-0.243317,-0.529228,-0.044863,-0.286645,0.351780
1280,3883255245,0.182952,-0.791130,-0.248108,-0.528287,0.320521,-0.063110,0.107942
1281,3883288579,0.184182,-0.790296,-0.252445,-0.527052,0.043109,-0.005155,0.287869
1282,3883321913,0.185083,-0.789011,-0.256632,-0.526639,0.128791,-0.038764,0.281035
1283,3883355247,0.185395,-0.787495,-0.260104,-0.527095,0.137282,-0.348797,0.204891
1284,3883388581,0.184094,-0.786430,-0.261748,-0.528326,-0.106134,-0.385734,0.143956
1285,3883421915,0.181412,-0.785989,-0.261792,-0.529885,-0.193778,-0.437314,0.095057
1286,3883455249,0.177719,-0.786204,-0.260848,-0.531281,-0.188669,-0.310570,0.305053
1287,3883488583,0.173824,-0.786272,-0.259400,-0.533176,-0.084997,-0.343530,0.209703
1288,3883521917,0.169754,-0.786313,-0.257478,-0.535354,0.299171,-0.449735,0.151814
1289,3883555251,0.165016,-0.786691,-0.255008,-0.537458,0.323095,-0.379997,0.397036
1290,3883588585,0.160466,-0.786624,-0.252237,-0.540233,0.284100,-0.010536,0.405313
1291,3883621919,0.156067,-0.785764,-0.249653,-0.543963,0.292546,-0.420699,0.253641
1292,3883655253,0.152001,-0.784369,-0.247548,-0.548073,0.187817,-0.441348,0.206080
1293,3883688587,0.147413,-0.783249,-0.244721,-0.552182,-0.065431,-0.497038,0.306337
1294,3883721921,0.142292,-0.782833,-0.240434,-0.555986,-0.203261,-0.342553,0.186794
1295,3883755255,0.136065,-0.783073,-0.234470,-0.559741,-0.277897,-0.441885,0.135541
1296,3883788589,0.129331,-0.783515,-0.227445,-0.563604,-0.205336,-0.570164,0.092164
1297,3883821923,0.122384,-0.784120,-0.219592,-0.567416,-0.210372,-0.383744,0.076979
1298,3883855257,0.115092,-0.784897,-0.210840,-0.571174,-0.211470,-0.323514,0.236159
1299,3883888591,0.107930,-0.785723,-0.201530,-0.574786,-0.190960,-0.371586,0.316729
1300,3883921925,0.101280,-0.786408,-0.191884,-0.578350,-0.227266,-0.164689,0.134362
1301,3883955259,0.095474,-0.786780,-0.182572,-0.581836,-0.417618,-0.147388,0.147499
1302,3883988593,0.090091,-0.786964,-0.172873,-0.585397,-0.300250,-0.316794,0.345199
1303,3884021927,0.084613,-0.787753,-0.162614,-0.588087,-0.473697,-0.100029,0.107953
1304,3884055261,0.079541,-0.788663,-0.151872,-0.590442,-0.218029,-0.041365,-0.022189
1305,3884088595,0.074498,-0.790180,-0.140512,-0.591883,-0.043395,-0.259968,-0.029928
1306,3884121929,0.069477,-0.792056,-0.128794,-0.592651,-0.007764,-0.051397,0.150067
1307,3884155263,0.064564,-0.793811,-0.117141,-0.593276,-0.035309,0.345287,0.112328
1308,3884188597,0.061108,-0.795655,-0.106602,-0.593160,0.028209,0.461266,0.031671
1309,3884221931,0.059568,-0.797193,-0.098256,-0.592691,0.111255,0.133416,0.215461
1310,3884255265,0.057852,-0.798616,-0.090241,-0.592221,0.313878,-0.086608,0.216573
1311,3884288599,0.056267,-0.799375,-0.082733,-0.592445,0.410015,-0.445605,0.286037
1312,3884321933,0.054425,-0.799463,-0.075382,-0.593479,0.337786,-0.260137,0.289062
1313,3884355267,0.052724,-0.799167,-0.068653,-0.594846,0.066843,0.088718,0.124709
1314,3884388601,0.051936,-0.798476,-0.062954,-0.596471,-0.210722,0.246119,0.062978
1315,3884421935,0.051538,-0.797953,-0.057499,-0.597756,-0.323008,0.317133,-0.132563
1316,3884455269,0.051606,-0.798124,-0.052169,-0.598011,-0.070679,0.746777,0.041029
1317,3884488603,0.052939,-0.798395,-0.048323,-0.597855,0.260619,0.529542,0.240791
1318,3884521937,0.054819,-0.798248,-0.045464,-0.598107,0.200872,0.204264,0.316830
1319,3884555271,0.056752,-0.797868,-0.042943,-0.598618,0.108766,0.007354,0.030085
1320,3884588605,0.058550,-0.797531,-0.040492,-0.599066,0.049916,-0.114501,0.094252
1321,3884621939,0.059964,-0.797596,-0.037474,-0.599036,0.216929,0.407866,0.157812
1322,3884655273,0.062354,-0.798065,-0.035455,-0.598290,0.245174,0.445150,0.184236
1323,3884688607,0.066150,-0.798594,-0.035634,-0.597164,0.409498,0.111486,0.204844
1324,3884721941,0.070703,-0.799057,-0.037100,-0.595932,0.651975,0.081227,0.245441
1325,3884755275,0.075744,-0.799407,-0.039626,-0.594680,0.576733,0.149623,0.299958
1326,3884788609,0.081581,-0.799556,-0.043629,-0.593426,0.425824,0.169528,0.263738
1327,3884821943,0.087883,-0.799694,-0.048437,-0.591965,0.236713,0.001407,0.110578
1328,3884855277,0.094471,-0.800342,-0.053470,-0.589637,-0.029063,0.132861,0.102215
1329,3884888611,0.100923,-0.801228,-0.058678,-0.586864,0.134121,0.188939,0.142325
1330,3884921945,0.107624,-0.802067,-0.064545,-0.583903,0.095185,0.126978,0.292364
1331,3884955279,0.114464,-0.802742,-0.070724,-0.580951,0.274137,0.115301,0.049973
1332,3884988613,0.121112,-0.803671,-0.076757,-0.577543,-0.004576,0.341783,0.125574
1333,3885021947,0.128244,-0.804445,-0.083507,-0.573978,0.023416,0.436487,0.107786
1334,3885055281,0.136534,-0.804623,-0.091910,-0.570522,0.168155,0.440090,0.349101
1335,3885088615,0.145409,-0.804141,-0.101550,-0.567366,0.363086,0.221519,0.182002
1336,3885121949,0.154788,-0.803175,-0.112135,-0.564252,0.306174,0.327648,0.160391
1337,3885155283,0.164633,-0.801727,-0.123853,-0.561064,-0.025601,0.446836,0.272095
1338,3885188617,0.175083,-0.800001,-0.136283,-0.557472,-0.206126,0.385166,-0.019151
1339,3885221951,0.185628,-0.798353,-0.148789,-0.553209,-0.119915,0.588643,0.021107
1340,3885255285,0.196405,-0.796697,-0.161538,-0.548277,-0.325542,0.536951,0.280998
1341,3885288619,0.207175,-0.794936,-0.174139,-0.542987,-0.619917,0.300985,0.021792
1342,3885321953,0.218079,-0.792989,-0.186569,-0.537406,-0.404682,0.116507,0.097164
1343,3885355287,0.227855,-0.790803,-0.197956,-0.532475,-0.081949,-0.186082,0.045422
1344,3885388621,0.236124,-0.789084,-0.207585,-0.527734,-0.077309,-0.359603,0.241764
1345,3885421955,0.242269,-0.788221,-0.214871,-0.523304,-0.173883,-0.133428,0.223611
1346,3885455289,0.246978,-0.787462,-0.220936,-0.519707,-0.100130,-0.067944,0.145619
1347,3885488623,0.250968,-0.786466,-0.226319,-0.516980,-0.230506,-0.294125,0.237732
1348,3885521957,0.253513,-0.786135,-0.230033,-0.514598,-0.171661,-0.306609,0.251526
1349,3885555291,0.254763,-0.786282,-0.232339,-0.512717,-0.271360,-0.081986,0.158279
1350,3885588625,0.255227,-0.786616,-0.233924,-0.511251,-0.132163,-0.065896,0.135071
1351,3885621959,0.255018,-0.787189,-0.234839,-0.510052,-0.060256,-0.238476,0.248504
1352,3885655293,0.253939,-0.787918,-0.234983,-0.509398,0.040946,-0.187749,0.184902
1353,3885688627,0.252396,-0.788584,-0.234981,-0.509135,-0.118381,-0.241144,0.118071
1354,3885721961,0.249964,-0.789518,-0.234283,-0.509208,0.067798,-0.323347,0.269253
1355,3885755295,0.246176,-0.790685,-0.232100,-0.510241,0.099462,-0.168891,0.286020
1356,3885788629,0.241697,-0.791496,-0.228950,-0.512544,0.093959,-0.287313,0.176023
1357,3885821963,0.236205,-0.792446,-0.224950,-0.515399,-0.061139,-0.543224,0.255420
1358,3885855297,0.229521,-0.794067,-0.219427,-0.518297,-0.339015,-0.225208,0.224887
1359,3885888631,0.222485,-0.795690,-0.213135,-0.521493,-0.297688,-0.151605,0.103183
1360,3885921965,0.215421,-0.797210,-0.206546,-0.524779,-0.183087,-0.364502,0.118937
1361,3885955299,0.207471,-0.799047,-0.198897,-0.528131,-0.072674,-0.352379,0.255370
1362,3885988633,0.198686,-0.800981,-0.190260,-0.531749,0.021251,-0.342935,0.259454
1363,3886021967,0.190365,-0.802467,-0.182127,-0.535388,-0.140584,-0.209289,0.182264
1364,3886055301,0.182306,-0.803791,-0.174203,-0.538833,-0.099832,-0.135399,0.227158
1365,3886088635,0.174381,-0.805303,-0.165786,-0.541846,-0.290113,-0.098851,0.159309
1366,3886121969,0.166328,-0.806985,-0.156939,-0.544504,-0.248435,0.156038,0.103478
1367,3886155303,0.159688,-0.808052,-0.149594,-0.546970,-0.054371,0.084131,0.146914
1368,3886188637,0.153846,-0.808554,-0.143113,-0.549631,0.143688,-0.352991,0.320006
1369,3886221971,0.147701,-0.808776,-0.136277,-0.552719,0.278552,-0.459912,0.087375
1370,3886255305,0.141045,-0.808895,-0.128488,-0.556139,0.128794,-0.426612,0.087976
1371,3886288639,0.133744,-0.809085,-0.120052,-0.559539,-0.344161,0.092780,0.391385
1372,3886321973,0.128442,-0.808871,-0.113402,-0.562471,-0.568688,0.460676,0.140801
1373,3886355307,0.125247,-0.808645,-0.108646,-0.564451,-0.529663,0.462311,-0.088353
1374,3886388641,0.123752,-0.808648,-0.104730,-0.565516,-0.149941,0.498084,0.171330
1375,3886421975,0.123573,-0.808804,-0.101855,-0.565858,-0.069012,-0.018218,0.084510
1376,3886455309,0.124972,-0.809145,-0.100639,-0.565280,0.203453,0.055889,0.135781
1377,3886488643,0.127789,-0.809246,-0.101098,-0.564423,0.564582,0.026961,0.311242
1378,3886521977,0.131852,-0.809024,-0.102885,-0.563483,0.522040,-0.162946,0.252999
1379,3886555311,0.137102,-0.808921,-0.105790,-0.561838,0.012332,0.111058,0.194235
1380,3886588645,0.143603,-0.808323,-0.110372,-0.560190,0.297659,0.221834,0.240147
1381,3886621979,0.151208,-0.807019,-0.116532,-0.558820,0.408958,0.068996,0.279231
1382,3886655313,0.158955,-0.805516,-0.122837,-0.557487,0.142368,-0.111384,0.191668
1383,3886688647,0.166600,-0.804295,-0.128918,-0.555641,-0.262031,0.130688,0.123298
1384,3886721981,0.174353,-0.803019,-0.135214,-0.553608,-0.202261,0.255199,0.107204
1385,3886755315,0.182359,-0.801370,-0.142011,-0.551713,0.001883,0.073391,0.156897
1386,3886788649,0.189814,-0.799707,-0.148443,-0.549916,-0.056112,-0.091824,0.176347
1387,3886821983,0.197021,-0.797863,-0.154673,-0.548340,-0.055109,0.134401,0.051796
1388,3886855317,0.204054,-0.795701,-0.161081,-0.547063,-0.123589,0.103079,0.189408
1389,3886888651,0.210897,-0.793575,-0.167365,-0.545668,-0.323770,-0.003848,0.180540
1390,3886921985,0.217230,-0.791537,-0.173137,-0.544340,-0.073870,0.032260,0.269024
1391,3886955319,0.223107,-0.789233,-0.178787,-0.543482,-0.072557,-0.068077,0.250725
1392,3886988653,0.228098,-0.787113,-0.183910,-0.542774,-0.172584,-0.080537,0.166960
1393,3887021987,0.232376,-0.784967,-0.188313,-0.542558,0.007820,0.046926,0.222635
1394,3887055321,0.235790,-0.782714,-0.191849,-0.543102,0.036227,0.002888,0.134694
1395,3887088655,0.238268,-0.780808,-0.194438,-0.543842,-0.226006,0.012556,0.069642
1396,3887121989,0.239896,-0.779723,-0.196066,-0.544098,-0.518211,-0.043341,0.069062
1397,3887155323,0.240179,-0.779864,-0.196030,-0.543784,-0.564974,0.061741,0.137183
1398,3887188657,0.239761,-0.780493,-0.194931,-0.543461,-0.311565,-0.117626,0.070035
1399,3887221991,0.238267,-0.781405,-0.192743,-0.543588,-0.041970,-0.167751,0.114552
1400,3887255325,0.235557,-0.782556,-0.189540,-0.544239,0.051661,-0.164132,0.230253
1401,3887288659,0.231793,-0.783829,-0.185497,-0.545415,0.011193,0.047539,0.245309
1402,3887321993,0.227650,-0.784483,-0.181522,-0.547553,0.183843,0.194817,0.371762
1403,3887355327,0.222623,-0.784631,-0.176950,-0.550894,0.435413,-0.110394,0.281370
1404,3887388661,0.217003,-0.784503,-0.171926,-0.554896,0.398104,-0.444757,0.187897
1405,3887421995,0.210982,-0.784392,-0.166465,-0.559024,0.393250,-0.128415,0.264032
1406,3887455329,0.204343,-0.784187,-0.160156,-0.563602,0.167318,-0.089805,0.216587
1407,3887488663,0.197491,-0.784183,-0.153434,-0.567904,-0.006140,0.161235,0.153232
1408,3887521997,0.190751,-0.784062,-0.146995,-0.572063,-0.400869,0.058810,0.191710
1409,3887555331,0.184029,-0.783811,-0.140290,-0.576277,-0.127706,0.045399,0.025467
1410,3887588665,0.177227,-0.783883,-0.133196,-0.579983,-0.370312,0.084151,0.072494
1411,3887621999,0.170619,-0.783911,-0.126026,-0.583518,-0.101893,-0.041454,0.154453
1412,3887655333,0.164289,-0.783773,-0.119219,-0.586940,-0.198043,0.016712,0.253147
1413,3887688667,0.158148,-0.783678,-0.112753,-0.590024,-0.349434,-0.015115,0.052306
1414,3887722001,0.152338,-0.783975,-0.106353,-0.592341,-0.381785,0.080310,0.168450
1415,3887755335,0.146843,-0.784483,-0.099926,-0.594173,-0.328087,-0.124014,0.120700
1416,3887788669,0.141250,-0.785211,-0.093282,-0.595645,-0.088537,-0.005506,0.152526
1417,3887822003,0.135216,-0.785785,-0.086067,-0.597373,-0.392223,0.372735,0.074356
1418,3887855337,0.130429,-0.786366,-0.079485,-0.598583,-0.446292,0.542327,0.151320
1419,3887888671,0.126982,-0.786923,-0.073851,-0.599313,-0.226967,0.196856,0.061132
1420,3887922005,0.123878,-0.787593,-0.068748,-0.599690,0.254225,0.184986,0.126788
1421,3887955339,0.120455,-0.788010,-0.063726,-0.600394,0.188018,-0.048817,0.226353
1422,3887988673,0.117325,-0.787815,-0.059095,-0.601741,0.428020,-0.108925,0.289794
1423,3888022007,0.113988,-0.787156,-0.054629,-0.603664,0.166647,-0.096891,0.260101
1424,3888055341,0.110413,-0.786421,-0.050022,-0.605682,0.127144,0.096345,0.151402
1425,3888088675,0.107150,-0.785803,-0.045689,-0.607411,-0.090720,0.303094,0.181582
1426,3888122009,0.104394,-0.785422,-0.041717,-0.608668,-0.121110,0.059613,0.051850
1427,3888155343,0.101962,-0.785437,-0.037829,-0.609315,-0.022633,-0.007650,0.210246
1428,3888188677,0.099874,-0.785579,-0.034391,-0.609682,0.190623,-0.031766,0.179250
1429,3888222011,0.098637,-0.785742,-0.032009,-0.609802,0.362984,0.119243,0.275827
1430,3888255345,0.098372,-0.785827,-0.030974,-0.609789,0.601898,-0.010385,0.260856
1431,3888288679,0.098953,-0.785753,-0.031610,-0.609758,0.604980,-0.094020,0.429712
1432,3888322013,0.099158,-0.785480,-0.032743,-0.610016,0.425082,-0.320725,0.231583
1433,3888355347,0.099757,-0.785291,-0.034479,-0.610066,0.299457,-0.029405,0.192293
1434,3888388681,0.101112,-0.784849,-0.037989,-0.610203,0.019627,0.313881,0.153390
1435,3888422015,0.104274,-0.784096,-0.043887,-0.610244,0.221866,0.638966,0.046030
1436,3888455349,0.110435,-0.783633,-0.052511,-0.609073,-0.320104,0.894954,0.066428
1437,3888488683,0.118066,-0.782440,-0.063837,-0.608092,-0.155021,-0.315388,0.427258
1438,3888522017,0.125064,-0.781000,-0.074133,-0.607376,-0.103379,-0.471734,0.057591
1439,3888555351,0.130812,-0.780508,-0.082375,-0.605733,-0.046296,0.074462,0.130320
1440,3888588685,0.135953,-0.780021,-0.090300,-0.604096,0.093645,0.229557,0.244838
1441,3888622019,0.141131,-0.779335,-0.098503,-0.602511,0.088401,0.302167,0.117519
1442,3888655353,0.146242,-0.779021,-0.106536,-0.600327,-0.190758,0.522592,0.055713
1443,3888688687,0.151663,-0.779248,-0.114797,-0.597156,-0.320161,0.630158,-0.000492
1444,3888722021,0.157654,-0.779555,-0.123784,-0.593397,-0.025466,0.508286,0.177267
1445,3888755355,0.163488,-0.779642,-0.133084,-0.589680,0.315696,0.239145,0.167445
1446,3888788689,0.168655,-0.779518,-0.142080,-0.586279,0.469201,0.185600,0.249039
1447,3888822023,0.173012,-0.779145,-0.150770,-0.583328,0.555744,0.087887,0.277811
1448,3888855357,0.176908,-0.778345,-0.159254,-0.580968,0.276087,0.165755,0.286698
1449,3888888691,0.180604,-0.777106,-0.168046,-0.579009,0.068300,0.290382,0.219842
1450,3888922025,0.184023,-0.775732,-0.177122,-0.577066,0.013325,0.060037,0.046625
1451,3888955359,0.186437,-0.775302,-0.184939,-0.574411,-0.269431,0.004780,-0.008396
1452,3888988693,0.187905,-0.775489,-0.191636,-0.571479,-0.210446,0.276579,0.147253
1453,3889022027,0.189543,-0.775358,-0.198450,-0.568783,-0.233252,0.234972,0.099187
1454,3889055361,0.191096,-0.775654,-0.205384,-0.565387,-0.428685,0.119240,0.173339
1455,3889088695,0.192180,-0.776158,-0.212203,-0.561799,-0.078343,0.262387,-0.023918
1456,3889122029,0.192913,-0.776846,-0.218782,-0.558062,0.188349,0.236706,0.096898
1457,3889155363,0.192340,-0.777864,-0.224132,-0.554708,0.313306,0.155284,0.139039
1458,3889188697,0.190258,-0.778949,-0.228031,-0.552309,0.098364,0.160575,0.223072
