sep=,
DeviceTag:,R_Wrist
FirmwareVersion:,2.2.1
AppVersion:,2023.6.0
SyncStatus:,Synced
OutputRate:,30Hz
FilterProfile:,General
Measurement Mode:,Sensor fusion Mode - Complete(Quaternion)
StartTime: ,2026-09-07_14:47:37_124 AEST
© Movella Technologies B. V. 2005-2026

PacketCounter,SampleTimeFine,Quat_W,Quat_X,Quat_Y,Quat_Z,FreeAcc_X,FreeAcc_Y,FreeAcc_Z
1,3840578187,-0.935401,-0.024635,-0.300404,0.184884,-0.644362,-1.324530,-0.562344
2,3840611521,-0.938551,-0.014749,-0.294226,0.179837,-0.152442,-2.423881,-0.046543
3,3840644855,-0.941546,-0.008887,-0.286448,0.177105,-0.086651,-0.332803,-0.908266
4,3840678189,-0.944988,-0.000230,-0.277372,0.173404,-0.507929,-0.008548,-0.615917
5,3840711523,-0.948802,0.007750,-0.267114,0.168435,-0.617673,0.119479,0.657982
6,3840744857,-0.952536,0.011082,-0.256131,0.164178,-1.221744,0.218713,0.674356
7,3840778191,-0.955996,0.013043,-0.244342,0.161879,-0.733414,-0.013547,-0.239402
8,3840811525,-0.958708,0.012718,-0.232884,0.162755,-0.806467,-0.779613,-0.681392
9,3840844859,-0.961500,0.009314,-0.220155,0.164224,-0.417903,-0.395098,-0.268195
10,3840878193,-0.964806,0.008953,-0.206566,0.162501,0.755140,-0.892133,-0.439067
11,3840911527,-0.967782,0.013588,-0.193862,0.160116,1.787062,-1.620863,-0.982623
12,3840944861,-0.970378,0.016347,-0.181476,0.158656,1.958316,-1.192806,-0.817864
13,3840978195,-0.972743,0.010329,-0.170611,0.156722,3.284545,-1.987269,-0.168448
14,3841011529,-0.973574,-0.005800,-0.166162,0.156577,4.106678,-0.807979,0.780277
15,3841044863,-0.972162,-0.024578,-0.169943,0.159442,4.075710,1.816070,0.926248
16,3841078197,-0.969348,-0.037935,-0.180525,0.162302,2.957992,0.440589,1.823197
17,3841111531,-0.965973,-0.043823,-0.193366,0.166106,0.857544,1.243361,1.264936
18,3841144865,-0.962510,-0.042473,-0.206489,0.170705,0.140338,1.512929,1.056469
19,3841178199,-0.959031,-0.037015,-0.218335,0.176705,-1.031894,1.074378,0.877792
20,3841211533,-0.955745,-0.029319,-0.227844,0.183806,-2.374540,1.583279,0.397656
21,3841244867,-0.953150,-0.019037,-0.234070,0.190681,-2.746934,0.821186,-0.122990
22,3841278201,-0.951230,-0.009704,-0.237052,0.197177,-2.688346,0.765139,-0.144814
23,3841311535,-0.950047,-0.003226,-0.236903,0.203184,-2.648268,0.798734,-0.201584
24,3841344869,-0.949399,0.001340,-0.234175,0.209301,-1.909951,0.319213,-0.540338
25,3841378203,-0.949055,0.003722,-0.229929,0.215452,-1.421765,0.452906,-0.855693
26,3841411537,-0.948653,0.000942,-0.223522,0.223830,-1.038100,0.232931,-0.698801
27,3841444871,-0.948072,-0.004670,-0.215389,0.233990,-0.311999,0.560092,-0.617789
28,3841478205,-0.947493,-0.007201,-0.206640,0.243950,-0.105437,0.359739,-0.599890
29,3841511539,-0.947057,-0.006326,-0.196484,0.253857,0.425902,-0.121766,-0.625067
30,3841544873,-0.946825,-0.003912,-0.185220,0.263073,0.504177,-0.268668,-0.567493
31,3841578207,-0.947022,-0.002062,-0.173472,0.270292,0.318481,-0.515563,-0.241687
32,3841611541,-0.947522,-0.002459,-0.161165,0.276094,-0.632758,-0.816330,-0.330394
33,3841644875,-0.948049,-0.008167,-0.147581,0.281713,-0.145567,-1.061051,-0.138569
34,3841678209,-0.948550,-0.016710,-0.134355,0.286231,-0.479066,-0.779675,-0.136895
35,3841711543,-0.949186,-0.024939,-0.122635,0.288774,-0.104955,-0.588865,-0.052908
36,3841744877,-0.950063,-0.029611,-0.114375,0.288840,0.220527,-0.208977,-0.042713
37,3841778211,-0.951360,-0.030479,-0.109170,0.286483,0.058409,-0.421556,-0.107560
38,3841811545,-0.952809,-0.029609,-0.105551,0.283095,-0.095999,-0.514317,-0.057852
39,3841844879,-0.954144,-0.029047,-0.102328,0.279823,-0.026701,-0.521997,0.000218
40,3841878213,-0.955248,-0.029808,-0.098860,0.277209,0.112949,-0.628940,0.075893
41,3841911547,-0.956073,-0.031051,-0.095424,0.275427,0.534009,-0.429559,0.012980
42,3841944881,-0.956660,-0.031134,-0.092842,0.274259,0.568631,-0.117367,0.069600
43,3841978215,-0.957015,-0.028787,-0.091208,0.273826,0.569977,-0.278634,0.045941
44,3842011549,-0.957189,-0.024567,-0.089851,0.274078,0.707400,-0.028483,-0.334019
45,3842044883,-0.957561,-0.017566,-0.089323,0.273487,0.947766,-0.320758,0.004478
46,3842078217,-0.958120,-0.009488,-0.090060,0.271681,1.016026,-0.573374,0.436220
47,3842111551,-0.958542,-0.005635,-0.090520,0.270143,1.585034,-0.400951,0.505184
48,3842144885,-0.959366,-0.000580,-0.091261,0.267010,1.379058,0.394749,0.152659
49,3842178219,-0.960408,0.007756,-0.092950,0.262531,1.508915,-0.365161,0.582597
50,3842211553,-0.961049,0.015712,-0.096018,0.258698,2.268894,0.598581,0.766242
51,3842244887,-0.961077,0.026017,-0.102557,0.255230,2.212095,0.163927,1.035769
52,3842278221,-0.960034,0.035256,-0.111836,0.254146,2.256938,0.129332,1.100390
53,3842311555,-0.957835,0.041397,-0.121577,0.257029,1.880879,0.246315,0.539673
54,3842344889,-0.954314,0.051216,-0.134452,0.261898,2.416832,0.824317,0.856186
55,3842378223,-0.949456,0.062364,-0.149059,0.269132,1.871598,-0.368371,0.828840
56,3842411557,-0.943639,0.068101,-0.161531,0.280752,1.563873,-0.009953,-0.254162
57,3842444891,-0.937054,0.073036,-0.172432,0.294735,1.737380,0.038870,-0.532271
58,3842478225,-0.929507,0.078259,-0.183162,0.310402,1.544960,-0.688368,-0.474601
59,3842511559,-0.920960,0.082161,-0.193172,0.328289,1.147582,-0.577743,-1.043513
60,3842544893,-0.911368,0.084598,-0.201520,0.348778,0.727296,-0.652568,-1.562921
61,3842578227,-0.900576,0.087385,-0.208574,0.371255,0.507512,-0.607388,-1.986064
62,3842611561,-0.888720,0.089998,-0.213408,0.395651,0.077878,-0.712896,-2.005458
63,3842644895,-0.875910,0.091422,-0.214858,0.422216,-0.189551,-0.938261,-2.306763
64,3842678229,-0.862376,0.092784,-0.213013,0.449811,-0.485366,-0.575806,-2.506515
65,3842711563,-0.847905,0.096835,-0.209469,0.477293,-0.751795,-0.885547,-2.493532
66,3842744897,-0.832509,0.103972,-0.204889,0.504127,-1.103579,-0.610666,-2.195652
67,3842778231,-0.816234,0.113353,-0.199383,0.530252,-1.335127,-0.892143,-1.687287
68,3842811565,-0.799241,0.122832,-0.192323,0.556007,-1.453658,-1.004379,-1.432081
69,3842844899,-0.781772,0.130796,-0.182438,0.581762,-1.845898,-0.508071,-0.964095
70,3842878233,-0.764082,0.136058,-0.167853,0.607863,-1.688727,-0.691963,-1.007197
71,3842911567,-0.746059,0.141578,-0.150635,0.632983,-1.760480,-0.581815,-1.179596
72,3842944901,-0.728065,0.148798,-0.130613,0.656298,-2.061519,0.198607,-1.020720
73,3842978235,-0.710444,0.155209,-0.105894,0.678212,-2.116285,-0.044026,0.313272
74,3843011569,-0.693434,0.158852,-0.074672,0.698817,-1.655127,0.272783,0.868275
75,3843044903,-0.676849,0.161751,-0.040499,0.716992,-1.960994,0.314180,1.462733
76,3843078237,-0.660369,0.164645,-0.005342,0.732654,-1.556550,0.549525,1.731021
77,3843111571,-0.643823,0.169103,0.029017,0.745694,-1.681086,0.574960,1.864138
78,3843144905,-0.627808,0.171490,0.068109,0.756185,-3.767005,0.606129,3.399218
79,3843178239,-0.614017,0.159587,0.130687,0.761868,-4.341587,2.251056,4.164065
80,3843211573,-0.601776,0.140304,0.200028,0.760378,0.680290,0.836234,-0.089571
81,3843244907,-0.590629,0.144407,0.238533,0.757240,-1.413464,-0.745384,1.311872
82,3843278241,-0.582082,0.152407,0.260122,0.755179,0.027765,0.022692,1.719374
83,3843311575,-0.574820,0.159475,0.273442,0.754576,-0.392853,0.965606,1.706030
84,3843344909,-0.570043,0.166018,0.281051,0.753993,-0.724489,1.394683,1.745761
85,3843378243,-0.567621,0.172403,0.283798,0.753358,-0.898484,1.560344,1.937010
86,3843411577,-0.567289,0.178522,0.282108,0.752818,-1.275147,1.580592,1.983132
87,3843444911,-0.568503,0.182479,0.278879,0.752156,-1.688341,1.808931,2.115134
88,3843478245,-0.571230,0.182569,0.275085,0.751465,-1.870478,1.862694,2.213023
89,3843511579,-0.576524,0.180728,0.267251,0.750693,-1.731379,1.681431,2.441647
90,3843544913,-0.585526,0.178775,0.251905,0.749499,-2.024960,1.383268,2.738553
91,3843578247,-0.598672,0.176188,0.229510,0.746914,-2.302402,1.025149,2.692130
92,3843611581,-0.615793,0.173539,0.200121,0.742052,-2.233212,0.657471,2.545802
93,3843644915,-0.635711,0.172151,0.162405,0.734756,-1.714188,0.306178,2.694645
94,3843678249,-0.656348,0.173311,0.115212,0.725191,-1.662869,-0.189883,2.230947
95,3843711583,-0.677428,0.177930,0.062698,0.710990,-2.093877,0.190183,1.634087
96,3843744917,-0.698855,0.181095,0.014473,0.691812,-3.304401,0.277782,1.644825
97,3843778251,-0.721554,0.176656,-0.021114,0.669113,-3.315202,-0.243051,1.194833
98,3843811585,-0.746114,0.166026,-0.047354,0.643050,-3.636905,-0.537711,0.779994
99,3843844919,-0.771921,0.153874,-0.069842,0.612853,-3.410580,-1.066506,0.591452
100,3843878253,-0.798142,0.141817,-0.089727,0.578630,-3.414197,-1.602168,0.405042
101,3843911587,-0.824470,0.127368,-0.105607,0.541184,-2.834487,-2.011308,-0.026549
102,3843944921,-0.850329,0.109852,-0.116660,0.501268,-2.695006,-2.139325,-0.490122
103,3843978255,-0.874826,0.089695,-0.122245,0.460105,-2.161884,-2.070837,-0.928944
104,3844011589,-0.896970,0.067095,-0.122898,0.419339,-1.309287,-2.149484,-0.892925
105,3844044923,-0.915862,0.041909,-0.119629,0.380966,-0.405116,-1.898700,-0.965908
106,3844078257,-0.931062,0.015604,-0.114233,0.346176,0.293166,-1.726629,-1.078186
107,3844111591,-0.942417,-0.010496,-0.107931,0.316382,0.251459,-1.321275,-1.320882
108,3844144925,-0.950110,-0.033717,-0.102045,0.292827,1.194953,-0.609721,-1.381009
109,3844178259,-0.955120,-0.050863,-0.097918,0.274913,1.830597,-0.317761,-1.075810
110,3844211593,-0.957990,-0.061518,-0.095508,0.263353,1.430040,-0.470015,-1.311879
111,3844244927,-0.958745,-0.069455,-0.091983,0.259864,2.614683,-0.235265,-1.702775
112,3844278261,-0.957789,-0.077241,-0.086539,0.263044,2.252256,0.044091,-2.650405
113,3844311595,-0.955544,-0.089331,-0.078097,0.269930,3.827408,-0.862634,-2.310596
114,3844344929,-0.952656,-0.104810,-0.069755,0.276772,3.796851,0.020510,-2.216709
115,3844378263,-0.950569,-0.118447,-0.062195,0.280225,4.040203,0.491020,-1.825191
116,3844411597,-0.950309,-0.126090,-0.056754,0.278926,4.389314,1.084038,-1.225458
117,3844444931,-0.951990,-0.128053,-0.054103,0.272757,3.820547,1.165659,-0.843787
118,3844478265,-0.954739,-0.126935,-0.053031,0.263733,2.638860,1.153726,-0.803702
119,3844511599,-0.957881,-0.127556,-0.049863,0.252414,2.011445,0.693395,-0.362359
120,3844544933,-0.960741,-0.130601,-0.044896,0.240647,2.208406,1.217355,0.322543
121,3844578267,-0.963353,-0.131011,-0.040673,0.230520,1.721557,0.318532,0.239553
122,3844611601,-0.965334,-0.129608,-0.036867,0.223561,1.104505,0.476841,0.474133
123,3844644935,-0.966595,-0.129824,-0.033629,0.218438,1.462423,0.481137,0.672958
124,3844678269,-0.967714,-0.126461,-0.034412,0.215312,0.772477,0.597647,1.426382
125,3844711603,-0.968410,-0.121841,-0.036711,0.214467,0.408513,-0.173623,0.849785
126,3844744937,-0.968530,-0.119487,-0.039497,0.214754,0.270147,-0.129899,0.452872
127,3844778271,-0.968060,-0.119322,-0.042924,0.216300,-0.096970,-0.357179,0.231419
128,3844811605,-0.966602,-0.123592,-0.046175,0.219728,0.138703,0.227201,0.270218
129,3844844939,-0.964330,-0.129831,-0.049547,0.225306,0.615961,1.433206,0.034158
130,3844878273,-0.962382,-0.130008,-0.055549,0.232031,-0.006544,0.724716,0.102441
131,3844911607,-0.959934,-0.130449,-0.061866,0.240183,-0.145831,0.430095,0.169028
132,3844944941,-0.956935,-0.131330,-0.066982,0.250093,-0.329426,0.484920,-0.322235
133,3844978275,-0.953533,-0.132384,-0.070196,0.261394,-0.668086,0.168923,-0.580609
134,3845011609,-0.949604,-0.135005,-0.071326,0.273761,-0.695378,0.005713,-0.461143
135,3845044943,-0.945421,-0.138252,-0.071092,0.286386,-0.688358,-0.309607,-0.396028
136,3845078277,-0.941405,-0.140342,-0.070202,0.298562,-0.878936,-0.229086,-0.561296
137,3845111611,-0.937656,-0.141248,-0.068344,0.310136,-1.069152,-0.460103,-0.457994
138,3845144945,-0.933904,-0.142856,-0.064722,0.321298,-1.163897,-0.594307,-0.253702
139,3845178279,-0.930238,-0.145616,-0.059693,0.331505,-0.976455,-0.828717,-0.043728
140,3845211613,-0.926939,-0.147964,-0.054843,0.340425,-1.061595,-0.590719,-0.107585
141,3845244947,-0.924394,-0.148767,-0.050265,0.347625,-1.445370,-0.772702,0.128940
142,3845278281,-0.922203,-0.149784,-0.045388,0.353627,-1.765710,-0.859153,0.520556
143,3845311615,-0.919899,-0.153227,-0.039556,0.358816,-1.909491,-1.179048,0.862789
144,3845344949,-0.917266,-0.159756,-0.033813,0.363268,-1.621660,-1.108425,1.111229
145,3845378283,-0.915039,-0.165675,-0.030605,0.366504,-1.359097,-0.752350,0.900614
146,3845411617,-0.913924,-0.168556,-0.030787,0.367955,-1.148659,-0.743680,0.631646
147,3845444951,-0.913969,-0.169062,-0.033490,0.367373,-1.007542,-0.407743,0.368772
148,3845478285,-0.915097,-0.168025,-0.037374,0.364655,-1.134271,-0.289768,-0.019380
149,3845511619,-0.916928,-0.167879,-0.040357,0.359773,-1.065992,-0.169976,-0.243646
150,3845544953,-0.919459,-0.169019,-0.042123,0.352504,-1.032969,0.679653,-0.642996
151,3845578287,-0.922924,-0.169502,-0.042068,0.343100,-0.957190,0.677710,-0.786642
152,3845611621,-0.925449,-0.175821,-0.037714,0.333490,-0.559419,0.283474,0.113038
153,3845644955,-0.926432,-0.187343,-0.030611,0.325109,0.181577,0.976842,-0.243871
154,3845678289,-0.926342,-0.200679,-0.021896,0.318035,0.534080,0.688397,0.195337
155,3845711623,-0.925336,-0.214270,-0.013575,0.312510,1.522674,1.098780,0.104415
156,3845744957,-0.924324,-0.224485,-0.007234,0.308520,1.376630,1.258776,0.423950
157,3845778291,-0.923083,-0.232772,-0.001882,0.306166,1.062551,1.064706,0.433392
158,3845811625,-0.921405,-0.239674,0.002903,0.305887,1.019237,1.168093,-0.210332
159,3845844959,-0.919230,-0.245612,0.008336,0.307615,0.804144,0.591664,-0.501401
160,3845878293,-0.915834,-0.253187,0.015088,0.311325,0.771652,0.334808,-0.718722
161,3845911627,-0.911939,-0.260145,0.022237,0.316550,0.945142,0.184550,-0.845215
162,3845944961,-0.907738,-0.266485,0.029605,0.322686,0.866308,-0.808167,-0.880501
163,3845978295,-0.903652,-0.272108,0.035921,0.328766,1.258679,-0.261277,-0.715384
164,3846011629,-0.901958,-0.271211,0.039154,0.333750,1.281918,-0.196719,-0.685130
165,3846044963,-0.902778,-0.263890,0.039854,0.337300,0.949795,-0.327792,-0.661952
166,3846078297,-0.905009,-0.253407,0.039718,0.339371,0.442789,-0.495912,-0.650213
167,3846111631,-0.907249,-0.244275,0.041232,0.339904,-0.197369,-0.875892,-0.200580
168,3846144965,-0.908423,-0.240207,0.045337,0.339146,-0.302358,-0.961753,0.535133
169,3846178299,-0.908761,-0.241305,0.052064,0.336483,0.189401,-0.534524,0.552371
170,3846211633,-0.909707,-0.241660,0.058654,0.332565,-0.041181,-1.066698,0.051962
171,3846244967,-0.910059,-0.244199,0.063841,0.328770,0.816408,-0.545314,1.027818
172,3846278301,-0.910390,-0.248033,0.065736,0.324583,0.815711,-0.664919,1.740984
173,3846311635,-0.910570,-0.250994,0.063335,0.322271,1.553789,0.107860,2.156382
174,3846344969,-0.911730,-0.248516,0.055936,0.322281,1.577399,0.184229,1.809748
175,3846378303,-0.913585,-0.241553,0.046013,0.323887,1.400757,0.017414,1.337139
176,3846411637,-0.915279,-0.233159,0.034759,0.326648,1.886631,0.287823,1.240239
177,3846444971,-0.916827,-0.224566,0.022253,0.329407,1.494690,-0.040048,0.743549
178,3846478305,-0.917291,-0.218125,0.009708,0.333034,1.594716,-0.143738,0.688104
179,3846511639,-0.916763,-0.213397,-0.002529,0.337650,1.678563,0.485616,0.472656
180,3846544973,-0.915975,-0.208158,-0.014230,0.342730,1.660030,0.333175,0.047380
181,3846578307,-0.914295,-0.204795,-0.024541,0.348607,1.735080,0.480789,-0.245538
182,3846611641,-0.911718,-0.202130,-0.034005,0.356038,1.692721,0.788418,-0.625337
183,3846644975,-0.908550,-0.198296,-0.042751,0.365231,1.704799,0.569749,-0.974376
184,3846678309,-0.904616,-0.194641,-0.050189,0.375860,1.192876,0.484422,-0.915009
185,3846711643,-0.899971,-0.191797,-0.055951,0.387480,1.156319,-0.089000,-1.029254
186,3846744977,-0.894964,-0.189053,-0.061069,0.399468,1.130032,0.161698,-1.335460
187,3846778311,-0.890519,-0.183233,-0.066933,0.411007,0.765670,0.084441,-1.265462
188,3846811645,-0.885960,-0.176446,-0.072371,0.422742,0.546833,-0.079682,-0.868315
189,3846844979,-0.880310,-0.170121,-0.076666,0.436166,0.745562,-0.304535,-0.984229
190,3846878313,-0.873401,-0.163258,-0.081737,0.451490,1.201919,-0.599968,-0.873956
191,3846911647,-0.866319,-0.151900,-0.090823,0.467092,1.118288,-0.499582,-1.060389
192,3846944981,-0.859560,-0.133856,-0.104852,0.481924,0.953506,-0.262741,-1.867774
193,3846978315,-0.852746,-0.110613,-0.121715,0.495763,0.003703,-0.643781,-2.250104
194,3847011649,-0.844456,-0.089226,-0.135623,0.510436,0.035889,-0.168418,-2.346303
195,3847044983,-0.834705,-0.069777,-0.145492,0.526533,-0.108346,-0.291856,-2.879164
196,3847078317,-0.823164,-0.051639,-0.150092,0.545172,-0.315696,0.072020,-3.072337
197,3847111651,-0.809905,-0.034071,-0.148599,0.566408,-0.255850,-0.068177,-2.693734
198,3847144985,-0.794752,-0.017771,-0.140216,0.590253,-0.515099,-0.828395,-2.197909
199,3847178319,-0.778154,-0.004475,-0.123980,0.615704,-0.599466,-0.585744,-2.004907
200,3847211653,-0.761160,0.005267,-0.098924,0.640959,-1.057456,-0.970415,-0.167282
201,3847244987,-0.744128,0.006860,-0.063895,0.664944,-0.510681,-1.691270,0.210945
202,3847278321,-0.727967,0.009109,-0.029060,0.684940,-1.032960,-0.975356,-0.109219
203,3847311655,-0.712202,0.016144,0.000388,0.701793,-0.515896,-1.179683,0.375628
204,3847344989,-0.697176,0.033879,0.016869,0.715904,-1.356895,-0.704083,0.774529
205,3847378323,-0.681931,0.056535,0.027240,0.728723,-2.573319,-0.134862,0.868907
206,3847411657,-0.666253,0.076208,0.040460,0.740721,-2.913160,0.707898,1.202248
207,3847444991,-0.651452,0.086566,0.064896,0.750940,-4.399545,0.854351,1.899148
208,3847478325,-0.640495,0.084536,0.103891,0.756196,-3.358760,1.132823,3.473655
209,3847511659,-0.630014,0.073391,0.151763,0.758070,-2.802518,1.833220,1.306927
210,3847544993,-0.621445,0.071780,0.197647,0.754716,-0.786605,1.516432,-1.073316
211,3847578327,-0.614785,0.070188,0.243854,0.746763,-0.234630,-0.213455,0.516530
212,3847611661,-0.609343,0.072764,0.278024,0.738996,-0.596949,0.112942,0.914292
213,3847644995,-0.604781,0.078588,0.301704,0.732833,-1.085656,0.935675,1.298660
214,3847678329,-0.602037,0.086392,0.317774,0.727402,-0.799552,1.233111,2.033150
215,3847711663,-0.601550,0.094548,0.329182,0.721695,-1.129040,1.157372,2.400743
216,3847744997,-0.603374,0.101689,0.337316,0.715418,-1.555231,1.248412,2.354783
217,3847778331,-0.606994,0.106791,0.343206,0.708781,-1.460693,1.557250,2.669696
218,3847811665,-0.612349,0.109850,0.345084,0.702769,-1.663620,1.928271,3.024218
219,3847844999,-0.619874,0.112255,0.340100,0.698207,-1.670423,2.127980,3.047825
220,3847878333,-0.629647,0.114905,0.327612,0.694995,-2.003870,2.197752,2.728895
221,3847911667,-0.641657,0.119393,0.307022,0.692650,-2.314443,2.243574,2.844514
222,3847945001,-0.656186,0.127032,0.277398,0.690173,-2.754216,2.029051,2.945184
223,3847978335,-0.673273,0.135334,0.242106,0.685404,-3.360897,1.798725,2.606317
224,3848011669,-0.692643,0.141224,0.205373,0.676853,-3.741860,1.371481,2.638502
225,3848045003,-0.713464,0.142422,0.169933,0.664691,-3.764427,0.775500,2.449711
226,3848078337,-0.735209,0.138754,0.136804,0.649235,-3.257682,0.012861,2.208743
227,3848111671,-0.757176,0.134526,0.102623,0.630921,-2.638032,-0.852919,1.975191
228,3848145005,-0.778678,0.132229,0.066825,0.609686,-2.428547,-1.535306,1.454691
229,3848178339,-0.799472,0.129866,0.031592,0.585652,-2.170506,-2.275552,0.968967
230,3848211673,-0.819146,0.126536,-0.001569,0.559457,-1.439269,-2.552788,0.212256
231,3848245007,-0.837663,0.121667,-0.031271,0.531550,-1.269306,-2.895100,0.010498
232,3848278341,-0.854959,0.112425,-0.055310,0.503341,-0.557808,-2.969978,-0.389282
233,3848311675,-0.870901,0.097597,-0.073325,0.476063,0.045250,-3.006049,-0.533884
234,3848345009,-0.885160,0.076201,-0.085012,0.451070,0.599811,-2.742979,-1.030534
235,3848378343,-0.897262,0.050050,-0.092377,0.428821,1.391014,-1.924667,-1.190950
236,3848411677,-0.906600,0.021492,-0.097152,0.410100,2.079190,-1.239211,-1.445226
237,3848445011,-0.913190,-0.005597,-0.100581,0.394896,1.933264,-0.766734,-1.417144
238,3848478345,-0.917059,-0.032482,-0.099926,0.384668,1.473683,-1.277763,-0.948478
239,3848511679,-0.919055,-0.053670,-0.097900,0.377994,2.113366,0.983424,-1.895757
240,3848545013,-0.920375,-0.064971,-0.096222,0.373410,1.878678,0.785554,-2.578587
241,3848578347,-0.921546,-0.069370,-0.094401,0.370184,1.359479,0.023690,-2.711377
242,3848611681,-0.922226,-0.073027,-0.092222,0.368331,1.485536,0.090266,-2.789987
243,3848645015,-0.922908,-0.075505,-0.090539,0.366536,1.584809,0.329544,-2.806130
244,3848678349,-0.923663,-0.075288,-0.090493,0.364684,1.455612,0.291995,-2.456028
245,3848711683,-0.924541,-0.072746,-0.089295,0.363270,1.287338,0.219650,-1.846550
246,3848745017,-0.925295,-0.071190,-0.085255,0.362628,1.509502,0.076169,-1.171766
247,3848778351,-0.926309,-0.069401,-0.079527,0.361685,1.884676,0.218410,-0.678218
248,3848811685,-0.927595,-0.066489,-0.074126,0.360081,1.463305,-0.148340,-0.464201
249,3848845019,-0.928805,-0.065282,-0.068216,0.358346,1.232085,0.069713,-0.216058
250,3848878353,-0.929714,-0.067026,-0.062683,0.356675,1.500992,0.267174,0.824765
251,3848911687,-0.930232,-0.069460,-0.060537,0.355227,1.690068,0.357805,1.534928
252,3848945021,-0.930423,-0.072570,-0.061275,0.353975,1.751195,-0.132366,2.126151
253,3848978355,-0.931199,-0.075053,-0.063295,0.351049,1.346457,-0.120283,1.781577
254,3849011689,-0.932185,-0.078826,-0.065832,0.347116,1.190162,-0.277443,1.000973
255,3849045023,-0.933142,-0.082044,-0.069963,0.342966,0.791913,-0.175483,-0.012609
256,3849078357,-0.934087,-0.083557,-0.075947,0.338731,0.641503,-0.338057,0.148929
257,3849111691,-0.934807,-0.083514,-0.083537,0.334947,1.412916,0.509905,0.428902
258,3849145025,-0.935562,-0.081126,-0.091730,0.331262,0.546739,-0.513916,0.112139
259,3849178359,-0.936589,-0.078924,-0.098498,0.326921,0.278054,-0.078753,-0.154119
260,3849211693,-0.937030,-0.080887,-0.101827,0.324145,-0.210929,-0.801507,-0.497002
261,3849245027,-0.937284,-0.083402,-0.104425,0.321938,0.300003,-0.034084,-0.447601
262,3849278361,-0.937660,-0.080683,-0.108676,0.320123,0.029864,0.200480,-0.540917
263,3849311695,-0.937394,-0.077890,-0.111393,0.320660,-0.596929,-0.064993,-0.825883
264,3849345029,-0.936288,-0.078536,-0.111380,0.323724,-0.288130,0.194925,-0.521323
265,3849378363,-0.935002,-0.079417,-0.110273,0.327584,-0.132094,0.240706,-0.140934
266,3849411697,-0.933730,-0.079807,-0.108057,0.331827,-0.451598,0.408852,-0.130531
267,3849445031,-0.932245,-0.079941,-0.104556,0.337050,-0.829821,0.402956,-0.062610
268,3849478365,-0.930137,-0.081135,-0.099903,0.343929,-0.876734,0.462424,0.314095
269,3849511699,-0.927607,-0.082422,-0.094457,0.351904,-1.085446,0.360876,0.393358
270,3849545033,-0.924829,-0.082938,-0.088747,0.360476,-1.175364,0.568411,0.498796
271,3849578367,-0.921811,-0.083130,-0.083199,0.369375,-1.200716,0.499967,0.628584
272,3849611701,-0.918727,-0.082587,-0.078446,0.378116,-1.423407,0.408648,0.764617
273,3849645035,-0.915536,-0.082012,-0.074156,0.386748,-1.286035,0.486581,0.594856
274,3849678369,-0.912261,-0.081018,-0.070548,0.395280,-1.146288,0.377585,0.261111
275,3849711703,-0.908581,-0.080430,-0.067716,0.404267,-1.113045,0.263965,0.192887
276,3849745037,-0.904415,-0.079824,-0.065937,0.413909,-0.843482,0.067345,0.207473
277,3849778371,-0.900796,-0.074078,-0.067346,0.422552,-0.487252,0.192381,0.031797
278,3849811705,-0.898198,-0.062252,-0.071816,0.429201,-0.675536,-0.100814,-0.147133
279,3849845039,-0.896179,-0.049165,-0.077131,0.434170,-0.988055,-0.290401,-0.165147
280,3849878373,-0.894033,-0.040314,-0.080399,0.438888,-0.851114,-0.366535,-0.157688
281,3849911707,-0.891971,-0.036064,-0.080481,0.443414,-0.796952,-0.191102,-0.303812
282,3849945041,-0.890383,-0.032605,-0.078681,0.447180,-0.376015,-0.321162,-0.244961
283,3849978375,-0.889583,-0.026288,-0.077299,0.449424,-0.130698,-0.275863,-0.467890
284,3850011709,-0.889507,-0.016482,-0.077006,0.450090,0.161398,-0.225637,-0.650405
285,3850045043,-0.889700,-0.005717,-0.076743,0.450020,0.443744,-0.350584,-0.751872
286,3850078377,-0.889855,0.004671,-0.076194,0.449819,0.391947,-0.562461,-0.732474
287,3850111711,-0.890116,0.014269,-0.074729,0.449346,0.359390,-0.696463,-0.709311
288,3850145045,-0.890629,0.022825,-0.073500,0.448177,0.814820,-0.617834,-0.120997
289,3850178379,-0.891399,0.030051,-0.072758,0.446337,0.704715,-0.554987,0.159092
290,3850211713,-0.892393,0.033612,-0.071827,0.444243,0.685734,-0.901640,0.693066
291,3850245047,-0.894340,0.031830,-0.068921,0.440906,0.325018,-1.187875,1.211400
292,3850278381,-0.897032,0.025250,-0.064227,0.436552,1.298441,-0.889755,1.615463
293,3850311715,-0.899687,0.016503,-0.060742,0.431980,2.143644,-0.126150,1.556272
294,3850345049,-0.902240,0.008844,-0.060142,0.426935,2.165069,0.102705,1.481956
295,3850378383,-0.904008,0.002334,-0.060896,0.423158,2.098504,0.190440,0.870190
296,3850411717,-0.904556,-0.004373,-0.062271,0.421768,2.280593,0.530431,0.217273
297,3850445051,-0.904400,-0.006631,-0.068315,0.421135,1.994922,0.122275,0.971928
298,3850478385,-0.904284,-0.002214,-0.079490,0.419468,2.037931,-0.023202,1.041333
299,3850511719,-0.902852,-0.001678,-0.089776,0.420479,1.416982,-0.664281,0.681183
300,3850545053,-0.900460,-0.003048,-0.099401,0.423425,1.777579,0.072671,-0.125278
301,3850578387,-0.897774,0.001209,-0.111386,0.426144,1.498188,-0.228967,-0.522942
302,3850611721,-0.894900,0.008684,-0.123975,0.428620,1.130696,-0.713057,-1.031419
303,3850645055,-0.891456,0.015571,-0.135007,0.432254,0.878939,-0.680724,-1.513122
304,3850678389,-0.887187,0.021018,-0.142980,0.438202,0.655363,-0.382388,-2.019565
305,3850711723,-0.882078,0.025976,-0.148235,0.446426,0.550196,-0.448270,-2.324070
306,3850745057,-0.876136,0.030314,-0.150373,0.457013,0.459177,-0.758929,-2.484674
307,3850778391,-0.869425,0.035585,-0.150811,0.469144,0.605971,-1.427752,-3.548878
308,3850811725,-0.861817,0.043983,-0.151172,0.482172,0.462477,-0.013155,-3.517622
309,3850845059,-0.853257,0.055228,-0.149587,0.496520,-0.002306,-0.352414,-2.865955
310,3850878393,-0.843336,0.067675,-0.144031,0.513290,0.021817,-0.321294,-2.438141
311,3850911727,-0.831866,0.077530,-0.132176,0.533408,-0.303423,-0.574974,-1.331173
312,3850945061,-0.818611,0.080943,-0.112895,0.557301,-0.515318,-1.094557,-0.820477
313,3850978395,-0.803732,0.081147,-0.088311,0.582784,-0.665120,-0.907787,-1.099529
314,3851011729,-0.787619,0.082686,-0.061494,0.607489,-1.204655,-1.138034,-0.876767
315,3851045063,-0.770859,0.084593,-0.033197,0.630495,-0.770792,-1.124812,-0.208063
316,3851078397,-0.753682,0.088309,-0.006175,0.651254,-1.560918,-1.185009,0.549042
317,3851111731,-0.736159,0.097583,0.018886,0.669476,-1.536339,-0.172799,0.842487
318,3851145065,-0.718662,0.110798,0.041459,0.685227,-2.076905,0.043876,1.840726
319,3851178399,-0.701485,0.122628,0.064839,0.699059,-2.174579,0.188651,1.902709
320,3851211733,-0.684905,0.133255,0.089355,0.710753,-2.302722,0.763612,1.679007
321,3851245067,-0.669533,0.140636,0.116557,0.719978,-2.325409,1.199799,2.112905
322,3851278401,-0.655385,0.145957,0.147192,0.726297,-2.764115,1.740800,2.411033
323,3851311735,-0.641537,0.149023,0.183625,0.729733,-3.118050,2.306954,2.676200
324,3851345069,-0.628476,0.149592,0.223001,0.730011,-3.382668,2.794202,2.698999
325,3851378403,-0.618744,0.146903,0.258908,0.727013,-1.278066,2.011155,2.451685
326,3851411737,-0.611675,0.149647,0.282302,0.723720,-1.026423,0.716501,-0.021062
327,3851445071,-0.607154,0.155108,0.294888,0.721355,1.239336,-0.054844,0.672779
328,3851478405,-0.605280,0.161776,0.296986,0.720604,-1.014361,1.411759,1.326479
329,3851511739,-0.606664,0.164140,0.298372,0.718329,-1.701898,1.745599,1.508492
330,3851545073,-0.610520,0.163347,0.300558,0.714321,-1.232877,1.582693,1.568527
331,3851578407,-0.615575,0.163379,0.300117,0.710148,-1.516128,1.617420,1.146871
332,3851611741,-0.621663,0.161736,0.300470,0.705053,-1.760372,1.810797,1.386358
333,3851645075,-0.628497,0.156656,0.302105,0.699421,-1.494431,1.804840,1.407152
334,3851678409,-0.636119,0.151567,0.300674,0.694249,-1.310630,1.692127,1.460920
335,3851711743,-0.645155,0.147859,0.293641,0.689705,-1.818365,1.434421,1.613791
336,3851745077,-0.656327,0.142920,0.283032,0.684622,-2.198581,1.110376,1.528498
337,3851778411,-0.670192,0.135721,0.270120,0.677837,-2.490708,0.685104,1.664382
338,3851811745,-0.687040,0.128117,0.253625,0.668762,-2.577201,0.263324,1.183616
339,3851845079,-0.706942,0.121036,0.234184,0.656313,-3.026538,-0.412054,1.218705
340,3851878413,-0.729644,0.113116,0.212925,0.639917,-2.809929,-1.173510,0.834151
341,3851911747,-0.754879,0.104981,0.189977,0.618912,-2.539979,-1.454646,0.274933
342,3851945081,-0.782189,0.096482,0.166529,0.592576,-2.549477,-2.032481,-0.105562
343,3851978415,-0.810807,0.087066,0.144181,0.560562,-1.936949,-2.298951,-0.775736
344,3852011749,-0.840030,0.079124,0.122347,0.522615,-1.422395,-2.346880,-0.777070
345,3852045083,-0.868682,0.071144,0.103403,0.479212,-1.808806,-2.614206,-0.919888
346,3852078417,-0.895650,0.057875,0.091483,0.431391,-1.144749,-2.888257,-1.205704
347,3852111751,-0.920626,0.041549,0.083380,0.379176,-0.135782,-2.624190,-1.059644
348,3852145085,-0.942770,0.027494,0.075779,0.323561,0.236338,-2.687795,-0.926213
349,3852178419,-0.961133,0.010464,0.070653,0.266696,0.222898,-3.483573,-0.791462
350,3852211753,-0.975277,-0.007971,0.066023,0.210754,1.407041,-1.849578,-0.528482
351,3852245087,-0.985781,-0.024104,0.059670,0.155243,1.926042,-1.533115,-0.264251
352,3852278421,-0.992916,-0.039048,0.050991,0.099997,1.894917,-1.533376,0.301630
353,3852311755,-0.996770,-0.051477,0.041098,0.046007,1.849404,-1.312178,0.193584
354,3852345089,-0.997506,-0.063127,0.031301,-0.004809,1.919165,-0.736625,-0.081605
355,3852378423,-0.995677,-0.074483,0.022369,-0.050839,2.048762,0.054928,-0.291639
356,3852411757,-0.992186,-0.084286,0.014696,-0.090844,1.866658,0.791926,-0.161484
357,3852445091,-0.988391,-0.088662,0.009529,-0.123038,1.873869,1.077415,-0.034108
358,3852478425,-0.985163,-0.088863,0.007849,-0.146632,1.810597,1.781426,-0.280136
359,3852511759,-0.982743,-0.084117,0.009085,-0.164509,1.637399,2.317146,-1.471067
360,3852545093,-0.980417,-0.083257,0.010052,-0.178204,2.331741,1.317214,-0.489996
361,3852578427,-0.978647,-0.088540,0.010604,-0.185215,1.893921,1.750214,0.121475
362,3852611761,-0.977909,-0.095909,0.011636,-0.185381,1.764130,1.839097,-0.230256
363,3852645095,-0.978188,-0.100532,0.014359,-0.181221,1.227787,1.611251,-1.128796
364,3852678429,-0.979121,-0.102753,0.018356,-0.174448,1.098586,1.490674,-0.036526
365,3852711763,-0.980888,-0.099032,0.022652,-0.165962,1.029716,1.649871,0.213349
366,3852745097,-0.983044,-0.090978,0.026571,-0.156996,1.273342,0.190144,-0.125607
367,3852778431,-0.984908,-0.087453,0.029175,-0.146505,1.547670,-0.086330,0.273870
368,3852811765,-0.986923,-0.080917,0.031697,-0.135785,1.307041,0.468650,0.246496
369,3852845099,-0.988945,-0.069234,0.034351,-0.126575,1.497360,-0.366851,0.027275
370,3852878433,-0.990457,-0.059492,0.035908,-0.119049,1.357980,0.103055,0.049847
371,3852911767,-0.991582,-0.050258,0.037035,-0.113463,0.789943,0.143129,0.054062
372,3852945101,-0.992361,-0.043138,0.039366,-0.108701,0.308537,-0.220305,-0.185345
373,3852978435,-0.992929,-0.036977,0.043642,-0.104047,-0.537278,0.287748,-0.109368
374,3853011769,-0.993347,-0.030856,0.049500,-0.099322,-0.787422,0.195548,0.069572
375,3853045103,-0.993564,-0.027642,0.056394,-0.094297,-0.958042,0.480949,-0.180577
376,3853078437,-0.993523,-0.026109,0.064150,-0.090114,-0.841808,0.908529,-0.301631
377,3853111771,-0.993258,-0.026493,0.071775,-0.087130,-0.479719,0.488578,0.271738
378,3853145105,-0.992859,-0.030117,0.078278,-0.084868,-0.176500,0.400620,0.578173
379,3853178439,-0.992547,-0.033287,0.082372,-0.083450,0.029587,0.512233,0.813048
380,3853211773,-0.992511,-0.033530,0.083316,-0.082837,0.258330,0.048111,1.147722
381,3853245107,-0.992694,-0.032601,0.081489,-0.082833,0.477484,-0.111032,1.099281
382,3853278441,-0.992968,-0.031746,0.077551,-0.083655,0.580135,-0.064744,0.645038
383,3853311775,-0.993248,-0.032108,0.071629,-0.085452,1.084973,-0.042630,0.825824
384,3853345109,-0.993565,-0.032734,0.063610,-0.087843,0.813883,0.207737,0.870988
385,3853378443,-0.993868,-0.033984,0.053955,-0.090374,0.530379,0.509606,0.903945
386,3853411777,-0.994110,-0.035719,0.042988,-0.092884,0.275135,0.631336,1.054213
387,3853445111,-0.994305,-0.037464,0.031004,-0.094859,0.429330,0.712984,1.207996
388,3853478445,-0.994406,-0.038919,0.017316,-0.096689,0.261352,0.689164,1.498016
389,3853511779,-0.994315,-0.040712,0.001262,-0.098412,0.089658,0.492652,1.411558
390,3853545113,-0.993794,-0.046007,-0.017720,-0.099743,-0.184288,0.363354,1.783946
391,3853578447,-0.992665,-0.056415,-0.039412,-0.099432,-0.244445,0.238921,1.671575
392,3853611781,-0.990974,-0.065898,-0.063062,-0.098267,-0.287502,0.548461,1.088455
393,3853645115,-0.988675,-0.071117,-0.088683,-0.098007,0.270497,-0.392597,0.738127
394,3853678449,-0.985348,-0.076962,-0.116366,-0.098138,0.645415,-0.951124,0.731400
395,3853711783,-0.980974,-0.084850,-0.144174,-0.098539,0.436090,-0.746685,0.163192
396,3853745117,-0.975768,-0.094190,-0.170323,-0.100007,0.524897,-0.491946,0.068641
397,3853778451,-0.969820,-0.107541,-0.194412,-0.100470,-0.270728,-0.278689,0.226051
398,3853811785,-0.963501,-0.126119,-0.215259,-0.097109,-1.206564,0.470363,0.701370
399,3853845119,-0.958340,-0.143761,-0.229611,-0.090565,-1.492479,0.157272,0.429402
400,3853878453,-0.956135,-0.155119,-0.233877,-0.083976,-2.595949,-0.316426,-0.346569
401,3853911787,-0.956435,-0.164358,-0.228761,-0.076770,-2.952995,-0.586508,-1.107613
402,3853945121,-0.957762,-0.176601,-0.216537,-0.067985,-2.188476,-2.133769,-2.576807
403,3853978455,-0.959012,-0.194343,-0.198113,-0.057306,-1.612160,-1.345762,-4.131081
404,3854011789,-0.958627,-0.219506,-0.175171,-0.046606,-0.657724,-0.833169,-3.824273
405,3854045123,-0.956016,-0.248542,-0.151671,-0.035514,0.559187,1.164903,-2.520082
406,3854078457,-0.953239,-0.272369,-0.128726,-0.024213,0.409155,1.521065,-2.145953
407,3854111791,-0.950583,-0.291486,-0.106061,-0.013641,2.334181,-0.010645,-0.528989
408,3854145125,-0.947166,-0.308249,-0.088607,-0.003832,2.061959,-0.315494,0.468004
409,3854178459,-0.944864,-0.318644,-0.075297,0.005877,1.292428,0.363306,0.066447
410,3854211793,-0.941902,-0.329316,-0.064630,0.014175,1.068842,0.628580,0.344487
411,3854245127,-0.939089,-0.338345,-0.055551,0.023539,1.313987,0.680861,0.238053
412,3854278461,-0.935795,-0.347480,-0.049334,0.033440,2.310924,0.547977,0.746643
413,3854311795,-0.932655,-0.355042,-0.047667,0.042819,3.324853,1.347996,1.910485
414,3854345129,-0.933203,-0.352858,-0.049969,0.046187,3.421720,0.328174,2.035982
415,3854378463,-0.936242,-0.343611,-0.057256,0.045932,3.198473,0.288435,1.925386
416,3854411797,-0.940966,-0.328790,-0.068177,0.042864,2.756758,0.636462,1.252965
417,3854445131,-0.947280,-0.308003,-0.080786,0.035708,2.194259,-0.058549,0.474191
418,3854478465,-0.952803,-0.287458,-0.094143,0.026032,1.340656,0.195984,0.376610
419,3854511799,-0.957539,-0.267278,-0.107135,0.014465,1.167936,0.240733,0.098716
420,3854545133,-0.961075,-0.248628,-0.120497,0.002423,1.146954,-0.740693,-0.450020
421,3854578467,-0.961144,-0.240250,-0.135907,-0.004194,0.712520,0.203275,-0.359349
422,3854611801,-0.959148,-0.238463,-0.152134,-0.005606,0.366716,1.136061,-0.599866
423,3854645135,-0.957665,-0.234395,-0.167081,-0.005113,0.543888,0.874844,-1.181290
424,3854678469,-0.956900,-0.227950,-0.179942,-0.002961,0.279941,0.596759,-1.478319
425,3854711803,-0.956180,-0.222696,-0.190076,0.001837,-0.067561,0.466369,-1.580054
426,3854745137,-0.955130,-0.220141,-0.197921,0.009941,0.058648,0.524908,-1.436666
427,3854778471,-0.954444,-0.217419,-0.203384,0.020156,-0.160850,0.670854,-1.311662
428,3854811805,-0.954548,-0.212806,-0.206375,0.031101,-0.184388,0.508956,-1.172490
429,3854845139,-0.954829,-0.208736,-0.206946,0.043703,-0.102242,0.365654,-0.944263
430,3854878473,-0.955074,-0.205869,-0.205015,0.058539,-0.137694,0.552698,-0.903369
431,3854911807,-0.955184,-0.204206,-0.200714,0.075123,0.029661,0.309261,-0.661446
432,3854945141,-0.954979,-0.203738,-0.194580,0.093008,0.076144,0.279235,-0.521859
433,3854978475,-0.954402,-0.204723,-0.186577,0.111354,0.207988,0.031757,-0.137637
434,3855011809,-0.952935,-0.208456,-0.177213,0.130626,0.619530,-0.056406,0.075739
435,3855045143,-0.950772,-0.212538,-0.168102,0.150363,0.788892,0.179857,0.186582
436,3855078477,-0.948487,-0.214062,-0.160483,0.169709,0.760084,0.156917,0.364557
437,3855111811,-0.946249,-0.212074,-0.154871,0.188834,0.215694,0.220549,0.307310
438,3855145145,-0.944075,-0.206916,-0.150656,0.207886,-0.044319,0.028287,0.165271
439,3855178479,-0.942086,-0.198632,-0.147379,0.226508,-0.270038,-0.094969,-0.004807
440,3855211813,-0.939701,-0.189565,-0.144549,0.245232,-0.749074,-0.204849,-0.079504
441,3855245147,-0.936641,-0.180952,-0.141525,0.264455,-0.457140,-0.212180,-0.168963
442,3855278481,-0.933636,-0.170632,-0.139081,0.282615,-0.018823,-0.419547,-0.479051
443,3855311815,-0.930456,-0.158826,-0.138316,0.299835,0.330992,-0.794500,-0.687613
444,3855345149,-0.926728,-0.145827,-0.139972,0.316739,0.522298,-0.706769,-0.980969
445,3855378483,-0.922215,-0.131078,-0.145206,0.333557,1.091896,-1.024205,-1.605477
446,3855411817,-0.916552,-0.112097,-0.155995,0.350768,0.861870,-0.408105,-2.071983
447,3855445151,-0.909660,-0.081807,-0.174581,0.367904,0.867337,-0.178713,-3.034865
448,3855478485,-0.900609,-0.036978,-0.200373,0.383917,-0.179936,0.120264,-3.638478
449,3855511819,-0.889181,0.020309,-0.226879,0.396834,-1.395464,0.491779,-2.872578
450,3855545153,-0.874948,0.080875,-0.246960,0.408585,-1.076987,-0.621456,-1.420872
451,3855578487,-0.858644,0.131389,-0.255561,0.424455,-0.788115,-0.542239,-0.844247
452,3855611821,-0.842242,0.169833,-0.252629,0.444937,-0.624932,-1.201266,0.569467
453,3855645155,-0.827592,0.189247,-0.235730,0.472985,0.512379,-1.864908,2.064882
454,3855678489,-0.814444,0.190562,-0.209013,0.506643,1.259822,-1.644853,1.864840
455,3855711823,-0.800567,0.185227,-0.181434,0.540250,1.301003,-1.455086,1.401062
456,3855745157,-0.784622,0.181880,-0.157748,0.571322,1.253483,-1.084153,0.474476
457,3855778491,-0.766770,0.186285,-0.139432,0.598270,0.511141,-0.930210,-0.283142
458,3855811825,-0.748248,0.192307,-0.121023,0.623300,-0.159345,-1.325477,0.275257
459,3855845159,-0.729855,0.189462,-0.094313,0.650021,-0.644700,-1.067172,-0.618240
460,3855878493,-0.711599,0.183456,-0.061967,0.675378,-0.648404,-1.110469,-0.799887
461,3855911827,-0.692841,0.179339,-0.026744,0.697925,-0.979221,-1.140534,-0.635949
462,3855945161,-0.673612,0.175954,0.014772,0.717687,-1.464459,-1.092157,-0.428205
463,3855978495,-0.654616,0.169844,0.069746,0.733330,-2.911579,-0.499990,1.959238
464,3856011829,-0.634557,0.159948,0.135844,0.743846,-2.683868,0.408745,1.438579
465,3856045163,-0.614902,0.149721,0.199820,0.748036,-1.019737,-0.428171,0.823037
466,3856078497,-0.596318,0.153677,0.240206,0.750397,-0.360927,-0.212328,1.624443
467,3856111831,-0.578631,0.163233,0.266455,0.753359,-0.812355,0.302748,1.700798
468,3856145165,-0.563654,0.174152,0.284706,0.755588,-1.374640,1.192831,2.179991
469,3856178499,-0.552434,0.183071,0.299172,0.756177,-1.830683,2.257064,3.392628
470,3856211833,-0.545542,0.194410,0.302496,0.757028,-1.390969,2.913643,3.288794
471,3856245167,-0.542531,0.210753,0.289852,0.759760,-2.506506,3.107282,2.626365
472,3856278501,-0.543370,0.222999,0.273272,0.761806,-2.250293,2.835969,2.014800
473,3856311835,-0.547571,0.230413,0.255504,0.762758,-2.332837,3.047403,2.069342
474,3856345169,-0.555927,0.231354,0.240249,0.761385,-2.899360,2.942377,2.178236
475,3856378503,-0.568197,0.226624,0.227673,0.757605,-2.376786,2.411367,2.331120
476,3856411837,-0.582998,0.220689,0.212331,0.752550,-2.184689,1.690442,1.942359
477,3856445171,-0.599887,0.214476,0.194264,0.745924,-2.221276,1.171623,1.585530
478,3856478505,-0.619376,0.207549,0.174415,0.736805,-2.254733,0.812335,1.534701
479,3856511839,-0.641903,0.198620,0.153502,0.724537,-2.565792,0.495951,2.072128
480,3856545173,-0.666616,0.189224,0.129662,0.709233,-2.405689,0.324082,2.576202
481,3856578507,-0.692538,0.180628,0.102528,0.690839,-2.640725,0.251421,2.543495
482,3856611841,-0.718962,0.172222,0.074512,0.669244,-3.021863,0.036660,2.665863
483,3856645175,-0.745992,0.158962,0.049899,0.644782,-3.059830,-1.234975,2.493168
484,3856678509,-0.774021,0.140185,0.027103,0.616856,-2.458954,-1.780506,1.677998
485,3856711843,-0.802169,0.120647,0.003361,0.584776,-2.348163,-2.428694,1.231791
486,3856745177,-0.829107,0.100395,-0.019831,0.549650,-1.762731,-2.907438,0.508645
487,3856778511,-0.854077,0.080430,-0.041797,0.512194,-1.333119,-2.856155,-0.474522
488,3856811845,-0.876615,0.060797,-0.062267,0.473264,-0.563334,-3.177281,-0.909657
489,3856845179,-0.896116,0.042250,-0.080953,0.434331,-0.268173,-2.892452,-1.680151
490,3856878513,-0.912517,0.025728,-0.095919,0.396809,-0.063912,-2.388529,-2.105753
491,3856911847,-0.925550,0.009358,-0.105522,0.363512,0.607084,-1.409303,-2.406753
492,3856945181,-0.935156,-0.008724,-0.108749,0.337027,0.323672,-1.246327,-2.420251
493,3856978515,-0.940476,-0.032824,-0.104377,0.321775,0.962816,0.396406,-2.913366
494,3857011849,-0.942299,-0.055783,-0.095609,0.315953,2.077760,0.367978,-2.070117
495,3857045183,-0.941585,-0.077551,-0.083881,0.316819,2.841406,0.212297,-1.533938
496,3857078517,-0.938836,-0.094038,-0.073469,0.323035,3.317813,1.238448,-1.575181
497,3857111851,-0.935620,-0.099693,-0.066969,0.331962,3.843924,1.675496,-2.009025
498,3857145185,-0.932598,-0.095046,-0.063543,0.342339,3.383562,1.076354,-2.039540
499,3857178519,-0.929577,-0.086250,-0.061049,0.353168,2.972121,0.395642,-1.536630
500,3857211853,-0.927007,-0.074337,-0.059391,0.362781,2.639179,0.646412,-2.108528
501,3857245187,-0.925607,-0.060515,-0.058156,0.369071,1.851052,-0.531304,-1.594663
502,3857278521,-0.924939,-0.054313,-0.055907,0.372047,1.005393,-2.003036,-0.406026
503,3857311855,-0.924462,-0.060031,-0.051551,0.372982,1.067696,-1.011288,-0.296822
504,3857345189,-0.925085,-0.068842,-0.046891,0.370522,1.426031,0.057503,0.014536
505,3857378523,-0.927239,-0.074407,-0.044650,0.364285,1.278910,-0.763711,0.959595
506,3857411857,-0.930027,-0.078719,-0.044336,0.356222,1.483911,-0.493131,1.263625
507,3857445191,-0.932912,-0.081986,-0.046243,0.347593,1.625918,0.059397,0.994349
508,3857478525,-0.936333,-0.081572,-0.051041,0.337679,0.929779,-0.426836,0.970714
509,3857511859,-0.939043,-0.084772,-0.055107,0.328604,0.948682,-0.388968,0.630361
510,3857545193,-0.940919,-0.089921,-0.059621,0.320994,0.967134,-0.416180,0.528959
511,3857578527,-0.942386,-0.097108,-0.064099,0.313649,0.934421,-0.039686,0.433413
512,3857611861,-0.944254,-0.101409,-0.070032,0.305292,0.976284,-0.258022,0.467514
513,3857645195,-0.945760,-0.105652,-0.076915,0.297431,0.614817,-0.515281,0.286433
514,3857678529,-0.946353,-0.111700,-0.083859,0.291399,0.661108,0.266633,-0.221869
515,3857711863,-0.947156,-0.114102,-0.091839,0.285391,0.682406,0.310044,-0.379882
516,3857745197,-0.947897,-0.113806,-0.100480,0.280086,0.197181,0.076379,-0.206495
517,3857778531,-0.948186,-0.113687,-0.108160,0.276274,-0.097092,0.292658,-0.306769
518,3857811865,-0.948204,-0.113810,-0.114023,0.273791,-0.366946,0.633488,-0.261130
519,3857845199,-0.947838,-0.114415,-0.118184,0.273040,-0.565267,0.913400,-0.202910
520,3857878533,-0.946903,-0.115217,-0.120918,0.274745,-0.860428,0.931589,-0.035694
521,3857911867,-0.945495,-0.114946,-0.122599,0.278929,-1.164539,1.306676,-0.156963
522,3857945201,-0.943792,-0.112952,-0.123305,0.285131,-1.313287,0.918236,0.009501
523,3857978535,-0.941590,-0.111344,-0.122729,0.293179,-1.362049,0.640195,0.201425
524,3858011869,-0.938937,-0.110196,-0.121090,0.302652,-1.686175,0.634310,0.123135
525,3858045203,-0.936087,-0.108410,-0.119141,0.312729,-1.565424,0.442641,0.195803
526,3858078537,-0.933351,-0.105144,-0.117606,0.322452,-1.346521,0.003231,0.155193
527,3858111871,-0.930887,-0.100407,-0.116802,0.331257,-1.301021,-0.331923,0.020214
528,3858145205,-0.929025,-0.094425,-0.116821,0.338165,-1.371667,-0.403843,-0.169477
529,3858178539,-0.927874,-0.088477,-0.117273,0.342745,-1.401689,-0.751155,-0.225582
530,3858211873,-0.927314,-0.083589,-0.117468,0.345412,-1.287248,-0.866027,-0.201198
531,3858245207,-0.927373,-0.079303,-0.117652,0.346201,-1.232454,-0.923303,-0.271780
532,3858278541,-0.928351,-0.074464,-0.117945,0.344549,-1.246575,-0.973403,-0.173956
533,3858311875,-0.930151,-0.069578,-0.118025,0.340667,-1.103807,-1.042779,-0.139924
534,3858345209,-0.932808,-0.065105,-0.117606,0.334374,-0.906114,-1.036950,-0.040844
535,3858378543,-0.936085,-0.061525,-0.117433,0.325846,-0.433774,-0.882876,0.009349
536,3858411877,-0.939919,-0.058079,-0.118413,0.314903,0.044378,-0.842407,0.045968
537,3858445211,-0.944711,-0.054243,-0.120288,0.300193,0.039390,-1.060801,0.045119
538,3858478545,-0.950567,-0.054077,-0.120398,0.281086,-0.193426,-1.864677,-0.209262
539,3858511879,-0.956948,-0.059522,-0.117362,0.258729,-0.118446,-2.231724,-0.246917
540,3858545213,-0.962514,-0.072213,-0.110688,0.236868,0.114554,-2.233746,-0.379832
541,3858578547,-0.966094,-0.092270,-0.101399,0.218798,0.624886,-0.092938,-0.643126
542,3858611881,-0.967272,-0.119113,-0.089078,0.205594,0.805856,0.653187,-0.976143
543,3858645215,-0.966059,-0.149528,-0.074536,0.197035,1.739779,2.412275,-0.707632
544,3858678549,-0.964200,-0.171761,-0.062458,0.192150,3.049793,3.031672,1.013965
545,3858711883,-0.963794,-0.179076,-0.056984,0.189187,3.489336,2.681115,1.790652
546,3858745217,-0.964803,-0.172427,-0.059770,0.189360,3.786511,2.330695,1.639993
547,3858778551,-0.967079,-0.153522,-0.067603,0.191379,2.726833,1.390848,0.388947
548,3858811885,-0.968996,-0.132215,-0.075953,0.194432,1.830963,-0.010125,0.561056
549,3858845219,-0.969214,-0.117902,-0.082840,0.199667,2.222327,0.034868,0.206331
550,3858878553,-0.968428,-0.106420,-0.091295,0.206140,2.666845,0.592915,0.552360
551,3858911887,-0.966739,-0.093110,-0.101738,0.215410,2.213041,0.503274,0.025208
552,3858945221,-0.964037,-0.080778,-0.111848,0.227166,2.120379,0.362305,-0.369489
553,3858978555,-0.960802,-0.066727,-0.121104,0.240303,1.763390,0.168654,-1.087712
554,3859011889,-0.956867,-0.052828,-0.128777,0.255024,1.164521,-0.165957,-1.561707
555,3859045223,-0.952117,-0.044210,-0.132876,0.271789,0.893319,-0.378779,-1.512795
556,3859078557,-0.946372,-0.040122,-0.133630,0.291410,0.806846,-0.353663,-1.599984
557,3859111891,-0.939483,-0.037522,-0.131153,0.314274,0.607354,0.054627,-1.758750
558,3859145225,-0.931644,-0.032435,-0.125911,0.339323,0.484543,-0.127877,-1.795938
559,3859178559,-0.922750,-0.025096,-0.117661,0.366147,0.131670,-0.344890,-1.489018
560,3859211893,-0.912379,-0.018856,-0.106057,0.394926,0.240940,-0.879310,-1.010473
561,3859245227,-0.900268,-0.013898,-0.092233,0.425234,0.301884,-0.846381,-0.769926
562,3859278561,-0.886540,-0.006505,-0.078776,0.455857,0.252913,-1.075615,-0.564620
563,3859311895,-0.871083,0.004394,-0.066933,0.486540,0.086653,-1.218441,-0.609365
564,3859345229,-0.853894,0.018171,-0.056513,0.517056,-0.094911,-1.506736,-0.570329
565,3859378563,-0.835166,0.033699,-0.047159,0.546941,-0.283983,-1.571210,-0.635016
566,3859411897,-0.815151,0.049295,-0.037254,0.575949,-0.827722,-1.688102,-0.620464
567,3859445231,-0.794377,0.064667,-0.026070,0.603414,-0.978510,-1.395341,-0.594330
568,3859478565,-0.773084,0.079990,-0.013556,0.629099,-1.423978,-1.267226,-0.086077
569,3859511899,-0.751207,0.092425,0.002178,0.653565,-1.702803,-1.060380,0.229534
570,3859545233,-0.728580,0.102106,0.020324,0.677007,-1.459614,-0.867196,-0.142489
571,3859578567,-0.705321,0.113980,0.036768,0.698703,-1.761399,-0.535427,-0.233988
572,3859611901,-0.681283,0.129885,0.050893,0.718609,-1.846555,-0.519118,0.006374
573,3859645235,-0.656471,0.146629,0.065336,0.737078,-2.266946,-0.417179,-0.173754
574,3859678569,-0.631537,0.159631,0.086362,0.753808,-2.375761,-0.030192,-0.030334
575,3859711903,-0.606971,0.167494,0.117708,0.767908,-2.939149,0.129206,0.856540
576,3859745237,-0.583979,0.167054,0.164930,0.777088,-2.229457,0.578541,1.753345
577,3859778571,-0.562045,0.166203,0.216463,0.780789,-2.670937,1.780313,1.449312
578,3859811905,-0.543437,0.172817,0.256616,0.780362,-1.459455,0.975888,1.334742
579,3859845239,-0.527647,0.185184,0.283338,0.779115,-1.272834,0.622913,1.823564
580,3859878573,-0.515381,0.196920,0.301365,0.777683,-1.422014,1.098941,1.609302
581,3859911907,-0.506757,0.207324,0.311169,0.776785,-1.351848,1.536021,2.026490
582,3859945241,-0.501795,0.215045,0.315923,0.775987,-1.373243,2.423666,2.208498
583,3859978575,-0.500456,0.220122,0.317313,0.774860,-1.373789,2.397079,2.057611
584,3860011909,-0.502371,0.222277,0.317546,0.772909,-1.268999,2.242275,1.862216
585,3860045243,-0.506134,0.222477,0.316378,0.770872,-1.300845,2.113326,1.773160
586,3860078577,-0.511625,0.221392,0.312947,0.768958,-1.537074,2.026428,1.822127
587,3860111911,-0.519429,0.219265,0.306790,0.766814,-1.680715,1.961147,1.755498
588,3860145245,-0.530387,0.216300,0.297189,0.763930,-1.855590,1.644388,1.457696
589,3860178579,-0.544888,0.212739,0.283949,0.759749,-2.029453,1.374426,1.388516
590,3860211913,-0.563072,0.207830,0.268308,0.753507,-2.006783,1.211078,1.216905
591,3860245247,-0.584253,0.201579,0.251476,0.744836,-2.190171,1.016074,1.467356
592,3860278581,-0.607681,0.193393,0.233421,0.734060,-2.290018,0.659733,2.016983
593,3860311915,-0.632804,0.184943,0.211729,0.721479,-2.347898,0.724837,1.918406
594,3860345249,-0.659278,0.177351,0.186381,0.706518,-2.678211,0.299641,2.510286
595,3860378583,-0.686902,0.169090,0.158850,0.688728,-2.621355,-0.235582,2.234542
596,3860411917,-0.715798,0.158950,0.130883,0.667266,-2.584403,-0.983707,1.941867
597,3860445251,-0.745481,0.144057,0.104614,0.642315,-2.114685,-1.762617,1.823933
598,3860478585,-0.774784,0.125803,0.079196,0.614506,-1.535532,-2.029894,0.856870
599,3860511919,-0.803248,0.107596,0.053023,0.583447,-1.318981,-2.617813,0.515504
600,3860545253,-0.830263,0.088703,0.027496,0.549586,-0.860499,-2.985354,0.154210
601,3860578587,-0.855405,0.069657,0.002860,0.513252,-0.235855,-2.943709,-0.677144
602,3860611921,-0.878415,0.050004,-0.019774,0.474870,0.068938,-2.859757,-1.071742
603,3860645255,-0.898781,0.028174,-0.038620,0.435790,0.465441,-2.921022,-1.469172
604,3860678589,-0.916169,0.006187,-0.055433,0.396899,1.268974,-2.271628,-1.759068
605,3860711923,-0.930355,-0.010400,-0.071903,0.359399,1.621190,-1.388980,-1.867894
606,3860745257,-0.942045,-0.019577,-0.086839,0.323471,1.382911,-0.882798,-1.959669
607,3860778591,-0.951358,-0.027692,-0.097799,0.290850,1.424316,-0.680342,-1.261780
608,3860811925,-0.958421,-0.038053,-0.105640,0.262350,1.559604,0.327800,-0.742537
609,3860845259,-0.963754,-0.048380,-0.110998,0.237744,1.378354,0.203301,-0.494305
610,3860878593,-0.967563,-0.059751,-0.113597,0.217609,1.486884,0.416912,-0.263762
611,3860911927,-0.970346,-0.068097,-0.115237,0.201291,1.292208,0.948035,-0.424613
612,3860945261,-0.972383,-0.074277,-0.115781,0.188560,1.002961,0.542066,-0.842399
613,3860978595,-0.973586,-0.081523,-0.114356,0.180038,0.916931,0.580147,-1.259081
614,3861011929,-0.974161,-0.089962,-0.111230,0.174787,0.802218,0.392885,-1.333272
615,3861045263,-0.974397,-0.097829,-0.106186,0.172369,0.927249,0.518010,-1.401485
616,3861078597,-0.974141,-0.105380,-0.099495,0.173352,1.442714,0.803371,-1.059120
617,3861111931,-0.973394,-0.112946,-0.091952,0.176915,1.733128,0.884479,-1.004890
618,3861145265,-0.972321,-0.120507,-0.083748,0.181831,1.884844,0.314328,-0.540685
619,3861178599,-0.971374,-0.125479,-0.075455,0.187083,1.948102,0.662862,-0.623745
620,3861211933,-0.970673,-0.127648,-0.066852,0.192449,1.479174,0.661369,-0.855405
621,3861245267,-0.969607,-0.131348,-0.056971,0.198420,1.393001,0.385162,-0.597197
622,3861278601,-0.967929,-0.136500,-0.046748,0.205674,1.295410,0.684116,-0.249249
623,3861311935,-0.966760,-0.137162,-0.037679,0.212480,1.255929,0.438562,0.290192
624,3861345269,-0.966225,-0.131236,-0.032090,0.219459,1.240503,0.077727,0.835062
625,3861378603,-0.964861,-0.127850,-0.029334,0.227691,0.964728,-1.043866,1.674974
626,3861411937,-0.962735,-0.128113,-0.028262,0.236506,1.025257,-0.301185,1.490493
627,3861445271,-0.960971,-0.126792,-0.029062,0.244170,0.992947,-0.135003,1.095680
628,3861478605,-0.959296,-0.125156,-0.031317,0.251221,0.620279,-0.568080,0.422953
629,3861511939,-0.957143,-0.125945,-0.035031,0.258446,0.772340,-0.417424,0.582707
630,3861545273,-0.955436,-0.124812,-0.040262,0.264480,0.421578,-0.202135,0.322083
631,3861578607,-0.954275,-0.120089,-0.048240,0.269475,0.586040,-0.188246,0.887396
632,3861611941,-0.953365,-0.113834,-0.058884,0.273269,-0.355553,-1.238284,0.769586
633,3861645275,-0.952142,-0.110039,-0.069541,0.276564,-0.866603,-1.423853,0.352862
634,3861678609,-0.950916,-0.107465,-0.079986,0.278959,-1.200111,-1.367647,-0.074351
635,3861711943,-0.950033,-0.104744,-0.090606,0.279754,-1.647632,-1.256124,-0.537330
636,3861745277,-0.949990,-0.098777,-0.101891,0.278184,-2.341117,-0.921618,-0.863972
637,3861778611,-0.951165,-0.088145,-0.112278,0.273706,-2.849579,-0.878560,-0.589402
638,3861811945,-0.953074,-0.078514,-0.119189,0.266992,-2.692287,-1.292772,0.165890
639,3861845279,-0.954938,-0.077194,-0.121834,0.259415,-2.197535,-1.529817,0.307746
640,3861878613,-0.956456,-0.085442,-0.121210,0.251408,-1.668094,-1.170884,-0.113664
641,3861911947,-0.957853,-0.097824,-0.119521,0.242214,-0.566519,-0.847344,0.011994
642,3861945281,-0.959245,-0.110184,-0.118514,0.231665,-0.051336,-0.373487,-0.043397
643,3861978615,-0.960632,-0.120942,-0.118412,0.220327,-0.083948,0.022263,0.004662
644,3862011949,-0.961867,-0.130136,-0.119133,0.209019,0.129671,0.495154,0.082022
645,3862045283,-0.962772,-0.138630,-0.119880,0.198713,0.181053,0.750493,0.167355
646,3862078617,-0.963106,-0.147897,-0.119910,0.190216,0.331333,0.862649,0.107825
647,3862111951,-0.962967,-0.157652,-0.119160,0.183434,0.635971,0.890182,0.054480
648,3862145285,-0.962479,-0.167268,-0.118162,0.178044,0.543469,1.064702,-0.013834
649,3862178619,-0.962072,-0.175055,-0.117166,0.173357,0.532158,1.153323,0.155993
650,3862211953,-0.961683,-0.181116,-0.116582,0.169641,0.593768,0.950438,0.272542
651,3862245287,-0.961144,-0.186534,-0.116132,0.167115,0.402132,0.675920,0.242834
652,3862278621,-0.960619,-0.191191,-0.115914,0.165009,0.243423,0.517554,0.249230
653,3862311955,-0.960200,-0.195302,-0.115917,0.162608,-0.108091,0.318427,0.094955
654,3862345289,-0.959873,-0.199243,-0.115746,0.159861,-0.446065,-0.002351,0.115265
655,3862378623,-0.959552,-0.203304,-0.115515,0.156810,-0.558433,-0.081359,0.089534
656,3862411957,-0.959648,-0.205426,-0.116009,0.153047,-0.822696,-0.169827,-0.092735
657,3862445291,-0.960562,-0.203943,-0.117062,0.148424,-1.134444,-0.084011,-0.276546
658,3862478625,-0.961990,-0.200010,-0.118079,0.143648,-1.335798,0.312487,-0.547110
659,3862511959,-0.963650,-0.194514,-0.117973,0.140115,-1.467285,0.938065,-0.582271
660,3862545293,-0.964904,-0.189967,-0.115917,0.139433,-1.502886,1.289770,-0.981000
661,3862578627,-0.965343,-0.188452,-0.111526,0.142011,-1.453614,1.376822,-0.957891
662,3862611961,-0.964999,-0.188673,-0.105155,0.148752,-0.513076,1.386528,-1.216914
663,3862645295,-0.963867,-0.190557,-0.096975,0.158905,-0.153013,1.122355,-1.345609
664,3862678629,-0.961786,-0.194969,-0.087411,0.171230,-0.013960,0.977526,-1.387659
665,3862711963,-0.958690,-0.202525,-0.075729,0.184850,0.762748,0.045241,-0.526398
666,3862745297,-0.954192,-0.215217,-0.063258,0.198000,1.270459,0.331385,0.112071
667,3862778631,-0.949661,-0.226782,-0.051935,0.209817,1.639857,0.945391,-0.211652
668,3862811965,-0.946836,-0.231587,-0.042287,0.219288,2.175582,1.393830,-0.339231
669,3862845299,-0.945970,-0.229101,-0.033715,0.226984,1.672150,0.828228,-1.004756
670,3862878633,-0.944497,-0.230152,-0.022788,0.233330,1.149670,-1.548936,-0.416591
671,3862911967,-0.940087,-0.243438,-0.009341,0.238523,1.610720,-0.696142,0.192188
672,3862945301,-0.935490,-0.258873,0.003992,0.240485,1.700755,-0.357330,0.388293
673,3862978635,-0.933050,-0.269547,0.015312,0.237767,1.686246,-0.319942,0.197569
674,3863011969,-0.933172,-0.273284,0.024535,0.232185,1.340618,-0.115382,0.285928
675,3863045303,-0.934148,-0.274866,0.033456,0.225175,1.148659,-0.842033,0.606984
676,3863078637,-0.934026,-0.280086,0.043083,0.217480,1.000605,-1.235271,0.707813
677,3863111971,-0.933378,-0.287028,0.050690,0.209420,1.213067,-0.528164,1.631990
678,3863145305,-0.934133,-0.289412,0.054092,0.201784,1.598643,0.164682,2.649855
679,3863178639,-0.936849,-0.285020,0.052525,0.195769,1.730540,-0.290734,2.798092
680,3863211973,-0.940576,-0.276614,0.046731,0.191373,1.377701,-0.083298,2.120173
681,3863245307,-0.942127,-0.273835,0.038441,0.189575,1.694416,-0.588374,1.904312
682,3863278641,-0.941212,-0.277951,0.029089,0.189795,2.050758,0.876376,1.212102
683,3863311975,-0.940750,-0.278917,0.017301,0.192097,2.420748,1.495178,1.330956
684,3863345309,-0.942286,-0.272608,0.002049,0.194384,2.313416,0.440381,1.086797
685,3863378643,-0.942993,-0.267175,-0.013553,0.198001,1.935898,0.949577,0.590563
686,3863411977,-0.942656,-0.262635,-0.027788,0.204096,2.169022,1.355013,0.069082
687,3863445311,-0.940662,-0.260667,-0.039964,0.213582,2.445636,1.444003,-0.606987
688,3863478645,-0.936596,-0.262419,-0.049885,0.226807,2.450236,1.237070,-0.860260
689,3863511979,-0.930971,-0.265189,-0.058066,0.244135,3.054482,1.884280,-1.509498
690,3863545313,-0.924849,-0.265023,-0.065434,0.264842,3.396324,1.448893,-2.481602
691,3863578647,-0.918542,-0.260235,-0.072742,0.288569,3.610981,1.538522,-3.768807
692,3863611981,-0.912503,-0.250283,-0.079010,0.313784,2.890064,1.223608,-3.627264
693,3863645315,-0.905547,-0.239778,-0.081093,0.340470,2.143123,1.136002,-3.452618
694,3863678649,-0.896186,-0.232118,-0.077125,0.370175,2.505218,0.148113,-3.351898
695,3863711983,-0.883756,-0.224804,-0.069256,0.404535,2.717860,-0.382800,-3.425991
696,3863745317,-0.868627,-0.214599,-0.059816,0.442564,2.186741,-0.841335,-3.138146
697,3863778651,-0.852737,-0.194357,-0.052739,0.481965,1.346957,-2.328509,-3.090466
698,3863811985,-0.835526,-0.168367,-0.047699,0.520845,-0.066926,-2.861032,-2.106092
699,3863845319,-0.816607,-0.139813,-0.044133,0.558268,-0.859519,-3.424067,-1.796656
700,3863878653,-0.795881,-0.111353,-0.040340,0.593762,-2.223731,-3.302469,-1.091219
701,3863911987,-0.773182,-0.085463,-0.034510,0.627456,-2.700645,-3.074755,-0.470707
702,3863945321,-0.750240,-0.059579,-0.028552,0.657861,-3.014008,-2.509246,-0.371190
703,3863978655,-0.728020,-0.034736,-0.021886,0.684329,-3.437770,-2.010750,-0.223491
704,3864011989,-0.707051,-0.011501,-0.013175,0.706951,-3.293297,-1.585024,0.456143
705,3864045323,-0.687731,0.009361,-0.002313,0.725906,-3.128114,-1.352024,0.424845
706,3864078657,-0.670087,0.029110,0.008906,0.741662,-3.406477,-0.605328,0.236634
707,3864111991,-0.653630,0.049169,0.019656,0.754963,-2.852531,-0.355213,0.354333
708,3864145325,-0.638043,0.069200,0.030894,0.766266,-2.899824,-0.141535,0.410874
709,3864178659,-0.623439,0.087326,0.045707,0.775638,-2.857041,0.422640,0.729337
710,3864211993,-0.610318,0.101968,0.065778,0.782812,-2.416575,0.255955,1.103169
711,3864245327,-0.598719,0.113971,0.088580,0.787849,-2.139157,0.452261,0.909004
712,3864278661,-0.588064,0.124078,0.114382,0.791017,-2.556614,0.708130,1.061580
713,3864311995,-0.576807,0.133506,0.145340,0.792686,-1.572702,1.077920,1.862165
714,3864345329,-0.565441,0.137930,0.183048,0.792307,-2.099684,1.983871,2.230416
715,3864378663,-0.555204,0.136927,0.228290,0.787966,-1.454244,1.550757,1.453700
716,3864411997,-0.546028,0.135391,0.273375,0.780253,-0.679003,1.041908,1.382116
717,3864445331,-0.537614,0.135752,0.309507,0.772498,1.269838,0.222711,1.488552
718,3864478665,-0.530399,0.141930,0.328427,0.768553,0.705258,0.621233,2.198173
719,3864511999,-0.525262,0.152826,0.331404,0.768714,-0.857790,1.447289,2.316431
720,3864545333,-0.522768,0.163062,0.327432,0.770012,-1.911791,1.732714,2.004079
721,3864578667,-0.522711,0.169138,0.324396,0.770025,-1.887444,1.635702,1.617089
722,3864612001,-0.524438,0.171310,0.323894,0.768580,-1.928954,1.473252,1.588954
723,3864645335,-0.527436,0.170407,0.324863,0.766317,-1.715876,1.343109,1.622446
724,3864678669,-0.531128,0.168346,0.324793,0.764250,-1.818711,1.169497,1.596125
725,3864712003,-0.535936,0.165511,0.322590,0.762444,-2.074161,1.229513,1.694291
726,3864745337,-0.543031,0.162119,0.317265,0.760384,-1.878465,1.056496,1.707439
727,3864778671,-0.553289,0.158486,0.308161,0.757493,-2.017338,1.083668,1.923902
728,3864812005,-0.567231,0.153242,0.295707,0.753213,-2.182527,1.031814,2.362975
729,3864845339,-0.584527,0.146172,0.279055,0.747728,-2.276558,0.958023,2.902390
730,3864878673,-0.604872,0.138380,0.256251,0.741163,-2.123541,0.611696,3.213652
731,3864912007,-0.627932,0.132111,0.225062,0.733214,-2.309420,0.423542,2.905801
732,3864945341,-0.653356,0.125194,0.189256,0.722246,-3.088125,-0.225923,2.963127
733,3864978675,-0.680847,0.114402,0.153372,0.706995,-2.827046,-0.699327,2.394073
734,3865012009,-0.710095,0.100825,0.117284,0.686913,-2.888677,-1.087840,2.360637
735,3865045343,-0.739553,0.084935,0.081728,0.662702,-2.622144,-1.682818,2.068720
736,3865078677,-0.768073,0.066631,0.048068,0.635074,-2.372482,-2.051774,1.372147
737,3865112011,-0.795256,0.047037,0.016537,0.604225,-1.795001,-2.631470,0.372384
738,3865145345,-0.821007,0.028446,-0.013817,0.570047,-1.506955,-2.743096,-0.181330
739,3865178679,-0.844598,0.010022,-0.041008,0.533739,-1.102426,-2.829055,-0.740376
740,3865212013,-0.865399,-0.010264,-0.063191,0.496983,-0.471667,-2.835297,-1.266467
741,3865245347,-0.883545,-0.030249,-0.081564,0.460203,0.043772,-2.299212,-1.811744
742,3865278681,-0.899268,-0.046372,-0.097547,0.423859,0.389015,-1.863320,-2.005146
743,3865312015,-0.912638,-0.059146,-0.109897,0.389258,0.828309,-1.116027,-2.050086
744,3865345349,-0.923349,-0.071774,-0.116974,0.358605,0.679187,-1.081728,-2.104911
745,3865378683,-0.930972,-0.087796,-0.117665,0.334281,0.175168,-0.847195,-2.673050
746,3865412017,-0.936149,-0.108041,-0.111754,0.315387,0.675258,-0.167023,-3.075800
747,3865445351,-0.939407,-0.129598,-0.104153,0.299794,1.250658,0.111082,-2.272440
748,3865478685,-0.942079,-0.146614,-0.097951,0.285314,1.547416,-0.052516,-1.650508
749,3865512019,-0.944539,-0.157098,-0.095042,0.272285,1.476071,0.402977,-1.294247
750,3865545353,-0.946811,-0.163462,-0.093256,0.261033,1.296603,0.424642,-1.175262
751,3865578687,-0.948348,-0.169096,-0.090938,0.252547,1.091263,0.921473,-1.057144
752,3865612021,-0.949321,-0.173700,-0.086872,0.247140,0.943395,1.056412,-1.296880
753,3865645355,-0.949597,-0.178883,-0.080611,0.244486,1.163730,1.580730,-1.377184
754,3865678689,-0.949007,-0.185306,-0.072317,0.244590,1.597465,1.430830,-1.207680
755,3865712023,-0.947317,-0.193681,-0.062160,0.247426,2.101325,1.544098,-1.041592
756,3865745357,-0.944898,-0.201883,-0.051318,0.252553,2.260821,1.189219,-0.648760
757,3865778691,-0.941465,-0.210902,-0.040040,0.259937,2.408857,0.730839,0.060282
758,3865812025,-0.938333,-0.215596,-0.031050,0.268499,2.537741,1.348210,-0.093809
759,3865845359,-0.936831,-0.213126,-0.024165,0.276311,1.802263,0.940137,-0.242840
760,3865878693,-0.936845,-0.204842,-0.018450,0.282891,1.346725,0.816992,-1.068855
761,3865912027,-0.936951,-0.196648,-0.010759,0.288691,0.848744,-0.524790,-0.928861
762,3865945361,-0.935508,-0.195672,0.000311,0.294183,1.558176,-0.778527,-0.192732
763,3865978695,-0.934447,-0.194314,0.010167,0.298252,1.695518,-0.753300,0.232649
764,3866012029,-0.934722,-0.189981,0.016012,0.299918,1.392668,-1.029187,0.660798
765,3866045363,-0.934942,-0.187857,0.018135,0.300450,1.526639,-0.530329,1.105324
766,3866078697,-0.936370,-0.182751,0.017148,0.299209,0.906339,-0.928422,1.269420
767,3866112031,-0.937243,-0.182289,0.015370,0.296842,0.858252,-1.228752,1.776114
768,3866145365,-0.938061,-0.183738,0.012053,0.293500,1.444752,0.606791,1.497675
769,3866178699,-0.939467,-0.183233,0.006297,0.289473,0.935320,-0.236396,1.299519
770,3866212033,-0.940188,-0.183809,-0.000795,0.286821,1.581775,0.572354,1.338002
771,3866245367,-0.939701,-0.187102,-0.008917,0.286148,1.732311,0.270119,1.053403
772,3866278701,-0.939254,-0.187848,-0.019434,0.286606,2.174274,1.557835,0.690137
773,3866312035,-0.940335,-0.179456,-0.034364,0.287039,1.770469,0.675159,0.385631
774,3866345369,-0.940694,-0.169904,-0.050291,0.289316,1.325006,0.549703,-0.465624
775,3866378703,-0.940371,-0.159222,-0.065377,0.293399,1.139425,0.724135,-1.012852
776,3866412037,-0.940226,-0.146238,-0.079251,0.297178,0.888925,0.588409,-1.738849
777,3866445371,-0.940528,-0.131449,-0.091413,0.299629,0.146531,0.538889,-2.078767
778,3866478705,-0.940619,-0.119944,-0.098812,0.301813,-0.286362,0.231106,-1.617388
779,3866512039,-0.939430,-0.115739,-0.100746,0.306485,-0.279212,-0.025422,-1.069358
780,3866545373,-0.937369,-0.115689,-0.098857,0.313351,-0.312091,0.141864,-0.878834
781,3866578707,-0.934664,-0.116978,-0.095483,0.321882,-0.214967,-0.160253,-0.189378
782,3866612041,-0.931574,-0.117744,-0.092360,0.331333,0.109352,-0.149111,0.095628
783,3866645375,-0.928847,-0.114444,-0.091859,0.340166,0.023441,-0.095518,0.351439
784,3866678709,-0.926513,-0.108262,-0.093008,0.348151,-0.473670,-0.181217,0.466277
785,3866712043,-0.924299,-0.102531,-0.094004,0.355425,-0.570777,0.010022,0.481546
786,3866745377,-0.921947,-0.098965,-0.093892,0.362507,-0.933737,-0.006110,0.475177
787,3866778711,-0.919251,-0.097248,-0.092525,0.370089,-1.019668,0.076423,0.438869
788,3866812045,-0.916332,-0.096621,-0.090135,0.377997,-1.233184,-0.070995,0.388453
789,3866845379,-0.913163,-0.097541,-0.086719,0.386141,-1.513562,-0.052367,0.500317
790,3866878713,-0.909956,-0.099194,-0.082923,0.394044,-1.435505,-0.196280,0.467697
791,3866912047,-0.907039,-0.099775,-0.080297,0.401102,-1.715467,-0.198103,0.501504
792,3866945381,-0.904739,-0.098732,-0.079279,0.406718,-1.867244,-0.240097,0.617937
793,3866978715,-0.903179,-0.097091,-0.079258,0.410566,-2.177691,-0.367359,0.823772
794,3867012049,-0.902314,-0.096381,-0.079720,0.412542,-1.987051,-0.614985,0.722186
795,3867045383,-0.902542,-0.095110,-0.082057,0.411879,-1.828930,-0.495278,0.495561
796,3867078717,-0.904200,-0.092028,-0.086569,0.408001,-1.847105,-0.591283,0.356164
797,3867112051,-0.906774,-0.088209,-0.092211,0.401849,-1.606360,-0.491251,0.179034
798,3867145385,-0.909803,-0.084535,-0.097860,0.394388,-1.589763,-0.438932,-0.175084
799,3867178719,-0.912654,-0.082749,-0.101834,0.387105,-1.305160,-0.264101,-0.313790
800,3867212053,-0.914777,-0.084385,-0.103182,0.381342,-0.855609,-0.185503,-0.259894
801,3867245387,-0.915893,-0.086372,-0.103232,0.378191,-0.302007,-0.116800,-0.317780
802,3867278721,-0.916064,-0.084142,-0.103774,0.378133,0.074168,0.199970,-0.726665
803,3867312055,-0.915528,-0.075953,-0.105002,0.380815,0.632825,0.520341,-0.770678
804,3867345389,-0.915013,-0.060781,-0.107312,0.384118,0.357264,0.579914,-1.318930
805,3867378723,-0.914232,-0.043840,-0.108305,0.387988,0.610005,0.316015,-0.743922
806,3867412057,-0.912694,-0.029901,-0.107305,0.393176,0.748867,-0.062671,-0.454525
807,3867445391,-0.910137,-0.024897,-0.101426,0.400937,0.604228,-0.179413,-0.901796
808,3867478725,-0.907771,-0.023295,-0.093168,0.408332,1.388660,-0.201618,-0.655065
809,3867512059,-0.906560,-0.017992,-0.087211,0.412583,1.453832,-0.067491,-0.409443
810,3867545393,-0.906599,-0.009238,-0.082849,0.413685,0.744920,-0.722243,-0.030542
811,3867578727,-0.907070,-0.003312,-0.077582,0.413762,0.988476,-0.471108,0.068466
812,3867612061,-0.908464,0.002399,-0.073224,0.411500,1.460956,-0.142856,0.317472
813,3867645395,-0.911018,0.015532,-0.075715,0.405066,0.644003,-1.238023,1.090980
814,3867678729,-0.913319,0.023216,-0.078506,0.398939,0.770919,-1.567179,1.533951
815,3867712063,-0.915880,0.023494,-0.079425,0.392823,1.170137,-0.870912,1.638383
816,3867745397,-0.918480,0.029921,-0.085956,0.384860,1.498543,-0.910980,1.766241
817,3867778731,-0.920817,0.034211,-0.092509,0.377324,1.921857,0.079221,1.375156
818,3867812065,-0.922811,0.039256,-0.098895,0.370277,0.916452,-0.435324,1.258742
819,3867845399,-0.924272,0.039997,-0.103210,0.365344,2.125264,0.367733,0.385086
820,3867878733,-0.924989,0.039397,-0.109935,0.361613,1.887420,-0.005295,1.061141
821,3867912067,-0.925236,0.038690,-0.119444,0.358024,2.038457,-0.083117,1.494620
822,3867945401,-0.924987,0.037150,-0.129440,0.355345,2.242596,-0.120443,0.635589
823,3867978735,-0.924218,0.038447,-0.141115,0.352755,2.172310,0.023395,-0.698184
824,3868012069,-0.923349,0.044737,-0.155440,0.348238,1.758747,-0.359015,-1.777762
825,3868045403,-0.922525,0.053394,-0.170968,0.341867,1.528908,-0.419680,-2.758127
826,3868078737,-0.921736,0.063890,-0.186014,0.334253,0.903104,-0.503495,-3.782757
827,3868112071,-0.921138,0.074336,-0.197232,0.327237,0.238172,-0.234062,-4.111835
828,3868145405,-0.920778,0.082135,-0.201788,0.323587,0.145084,-0.025863,-4.141393
829,3868178739,-0.920781,0.088141,-0.198526,0.324018,-0.628682,0.108730,-3.640401
830,3868212073,-0.920545,0.090041,-0.186148,0.331427,-0.432731,-0.016784,-3.113147
831,3868245407,-0.919089,0.085461,-0.163405,0.348249,-0.296291,0.737604,-2.519796
832,3868278741,-0.914903,0.079870,-0.133443,0.372521,0.223319,0.801276,-1.479098
833,3868312075,-0.906805,0.077072,-0.099768,0.402266,1.321713,0.949132,-0.131000
834,3868345409,-0.894112,0.080586,-0.066391,0.435510,1.272991,0.476229,0.316677
835,3868378743,-0.876261,0.090207,-0.036548,0.471911,1.342116,-0.684935,0.405414
836,3868412077,-0.853642,0.103431,-0.011144,0.510371,0.973420,-1.750787,0.380694
837,3868445411,-0.827149,0.118814,0.010083,0.549193,-0.037749,-2.715155,0.166536
838,3868478745,-0.798456,0.129100,0.034155,0.587061,-0.670120,-2.804004,-0.224283
839,3868512079,-0.769457,0.140356,0.058990,0.620292,-1.141532,-2.417091,-0.355781
840,3868545413,-0.740155,0.159441,0.078940,0.648478,-1.737069,-2.563444,-0.083152
841,3868578747,-0.710998,0.177988,0.101648,0.672664,-2.674297,-1.742443,0.556640
842,3868612081,-0.683692,0.188215,0.136884,0.691672,-4.102066,-0.878609,2.097455
843,3868645415,-0.658897,0.191231,0.184510,0.703738,-3.318505,0.618914,2.736107
844,3868678749,-0.635608,0.192760,0.233996,0.709998,-2.950760,0.858672,1.356503
845,3868712083,-0.614720,0.198504,0.276554,0.711505,-2.144248,0.907095,2.284082
846,3868745417,-0.596622,0.207241,0.308076,0.711469,-1.290293,1.315289,2.941557
847,3868778751,-0.582349,0.217808,0.327601,0.711416,-2.301953,2.102501,2.855913
848,3868812085,-0.572595,0.224695,0.342997,0.709934,-2.415473,2.527672,2.762924
849,3868845419,-0.567611,0.228038,0.355136,0.706896,-1.955400,2.782484,2.848247
850,3868878753,-0.566888,0.230446,0.361089,0.703672,-1.838408,2.663320,2.709720
851,3868912087,-0.570332,0.232473,0.360867,0.700327,-1.863366,2.730467,2.409905
852,3868945421,-0.577844,0.233285,0.356836,0.695952,-2.367683,2.744321,2.364648
853,3868978755,-0.589519,0.232128,0.350083,0.689951,-1.776259,2.104984,2.059280
854,3869012089,-0.604188,0.230334,0.339876,0.682930,-2.341174,1.707684,2.158580
855,3869045423,-0.622021,0.226838,0.327123,0.674263,-2.259354,0.973851,1.807474
856,3869078757,-0.642341,0.222166,0.311808,0.663945,-2.452231,0.279638,1.102191
857,3869112091,-0.664976,0.215905,0.296007,0.650829,-2.455028,-0.069079,0.368706
858,3869145425,-0.688957,0.209751,0.279883,0.634835,-2.231121,-0.922840,-0.563404
859,3869178759,-0.713257,0.207584,0.262408,0.615890,-1.682832,-1.889845,-1.523398
860,3869212093,-0.736356,0.213723,0.243041,0.594171,-1.208828,-2.135775,-3.089100
861,3869245427,-0.756805,0.225557,0.228956,0.569171,-1.820368,-2.045017,-3.586482
862,3869278761,-0.775206,0.233662,0.228934,0.540419,-1.718586,-2.093933,-3.184052
863,3869312095,-0.791319,0.236838,0.241776,0.509188,-1.372605,-2.620399,-2.915241
864,3869345429,-0.804999,0.236052,0.263773,0.476115,-1.660575,-3.608487,-1.485371
865,3869378763,-0.818751,0.223934,0.294289,0.439204,-1.361609,-4.096542,-0.613296
866,3869412097,-0.833484,0.202749,0.328088,0.395679,-0.474004,-4.781753,-0.372589
867,3869445431,-0.848876,0.182406,0.356653,0.344881,0.563047,-4.182861,0.419656
868,3869478765,-0.864212,0.168514,0.377330,0.286998,0.404596,-3.123481,2.375168
869,3869512099,-0.878270,0.163386,0.388214,0.226368,0.449182,-1.672968,3.137854
870,3869545433,-0.889614,0.164929,0.391855,0.166856,0.437919,-1.245115,2.689294
871,3869578767,-0.897972,0.166907,0.391969,0.110248,0.784343,-0.513109,2.334282
872,3869612101,-0.903829,0.168322,0.389059,0.058309,1.058534,0.323352,1.877779
873,3869645435,-0.907779,0.170411,0.383064,0.012829,1.255315,1.353408,1.152071
874,3869678769,-0.909991,0.175112,0.374997,-0.025226,1.422217,1.626361,0.764268
875,3869712103,-0.910975,0.181660,0.365948,-0.056678,1.514719,1.796876,0.320439
876,3869745437,-0.910672,0.191673,0.356788,-0.081522,1.590128,2.027645,-0.363158
877,3869778771,-0.909205,0.204045,0.348703,-0.100622,1.357379,1.553702,-0.248572
878,3869812105,-0.907973,0.213493,0.341516,-0.115662,1.535827,1.245993,-0.223452
879,3869845439,-0.907440,0.221129,0.334543,-0.125463,1.535631,1.407674,-0.439764
880,3869878773,-0.907755,0.227628,0.327495,-0.130070,1.665378,1.212394,-0.135281
881,3869912107,-0.909231,0.231459,0.320658,-0.130039,1.940085,0.867501,-0.045610
882,3869945441,-0.911752,0.232171,0.314565,-0.125933,2.064883,1.256932,0.297354
883,3869978775,-0.913953,0.235019,0.309135,-0.117889,1.906273,2.210367,0.095753
884,3870012109,-0.913765,0.246112,0.305054,-0.106817,2.023580,1.501270,0.332785
885,3870045443,-0.911421,0.263716,0.301709,-0.093507,1.526770,1.648411,-0.165016
886,3870078777,-0.907704,0.285397,0.297677,-0.077569,0.837433,2.494800,-0.118558
887,3870112111,-0.901048,0.314728,0.292613,-0.058669,1.097591,2.268263,-0.444152
888,3870145445,-0.891007,0.350690,0.285801,-0.038037,1.481255,1.547511,-0.383069
889,3870178779,-0.878997,0.387955,0.276666,-0.017837,1.594931,0.531160,0.593140
890,3870212113,-0.868958,0.418175,0.264661,-0.001653,1.581655,-0.216088,1.238479
891,3870245447,-0.864130,0.436517,0.250370,0.007343,0.937447,-0.649342,2.017804
892,3870278781,-0.868228,0.437119,0.234639,0.007632,-0.130955,-0.890949,2.794680
893,3870312115,-0.882408,0.416158,0.219487,0.000380,-0.914261,-1.289044,2.433663
894,3870345449,-0.902973,0.376885,0.206030,-0.012487,-1.672996,-1.075126,1.642377
895,3870378783,-0.924167,0.327837,0.194069,-0.027942,-2.268736,-1.095366,0.930537
896,3870412117,-0.942607,0.275526,0.183391,-0.044162,-2.462414,-1.080216,-0.155363
897,3870445451,-0.956994,0.223159,0.175001,-0.061177,-3.179887,-1.711259,-0.701447
898,3870478785,-0.967907,0.167758,0.170015,-0.078189,-3.562374,-1.730464,-1.018854
899,3870512119,-0.976177,0.101848,0.166889,-0.094129,-2.399986,-1.689246,-1.109133
900,3870545453,-0.980907,0.020037,0.163235,-0.103829,-2.865963,0.133593,-2.824692
901,3870578787,-0.978939,-0.065664,0.163600,-0.102993,-2.711222,2.725725,-3.496120
902,3870612121,-0.970328,-0.139789,0.175664,-0.089839,-1.631645,1.754889,-2.736039
903,3870645455,-0.955465,-0.212832,0.194856,-0.061851,1.842217,2.816815,-1.509172
904,3870678789,-0.935695,-0.277407,0.216667,-0.024122,4.188188,1.919422,1.170391
905,3870712123,-0.918103,-0.319857,0.233244,0.019559,5.325513,2.274984,2.566411
906,3870745457,-0.907889,-0.334996,0.244507,0.061139,4.135880,-0.038986,-1.064591
907,3870778791,-0.900968,-0.338235,0.256811,0.088921,4.379017,-0.960787,-1.707367
908,3870812125,-0.892755,-0.347881,0.267944,0.100892,3.009103,-1.092399,-1.410088
909,3870845459,-0.884552,-0.360758,0.277509,0.102057,2.590563,-1.103680,-0.453713
910,3870878793,-0.880320,-0.367592,0.283637,0.097311,2.123478,-2.236371,-0.523005
911,3870912127,-0.877345,-0.374519,0.286062,0.090422,1.618196,-1.084040,-0.201891
912,3870945461,-0.875794,-0.379931,0.286398,0.081359,1.364085,-0.003107,0.419456
913,3870978795,-0.877411,-0.380511,0.283345,0.071296,0.990501,-0.895378,1.502504
914,3871012129,-0.880589,-0.378536,0.278907,0.059082,0.443182,-1.797932,2.538026
915,3871045463,-0.885907,-0.373698,0.271194,0.044477,1.549302,-0.628725,1.557279
916,3871078797,-0.895107,-0.360697,0.260732,0.026555,2.748123,-0.777707,0.651217
917,3871112131,-0.902486,-0.352451,0.247571,0.003333,2.447769,-1.337241,0.123281
918,3871145465,-0.907381,-0.349619,0.232112,-0.023578,2.196276,-0.768780,0.298532
919,3871178799,-0.911021,-0.347017,0.216659,-0.051822,1.745940,0.706066,0.533043
920,3871212133,-0.917202,-0.333740,0.203128,-0.078118,1.392711,1.154785,-0.139692
921,3871245467,-0.923428,-0.316306,0.191600,-0.102599,1.138940,0.520296,-0.479408
922,3871278801,-0.927118,-0.304606,0.179836,-0.123822,1.086638,0.755207,0.013195
923,3871312135,-0.932193,-0.289496,0.166597,-0.139496,1.172975,1.453737,0.886938
924,3871345469,-0.939790,-0.268108,0.151380,-0.148332,0.276086,2.508409,1.427038
925,3871378803,-0.948556,-0.242140,0.135958,-0.152090,0.591804,2.078403,0.336712
926,3871412137,-0.956949,-0.213972,0.123275,-0.152559,0.590922,2.181822,-0.235977
927,3871445471,-0.964393,-0.185233,0.114643,-0.149993,0.570682,1.513224,-1.031176
928,3871478805,-0.970122,-0.161923,0.109503,-0.143731,0.557369,0.760122,-0.627953
929,3871512139,-0.975114,-0.140552,0.107557,-0.133552,-0.111439,1.281905,-0.813839
930,3871545473,-0.979564,-0.119447,0.108628,-0.119966,-0.398373,0.677906,-0.541708
931,3871578807,-0.983003,-0.102501,0.111663,-0.103612,-0.079348,-0.980096,-1.021318
932,3871612141,-0.985387,-0.091350,0.116100,-0.084821,-0.264583,-0.890812,-0.914008
933,3871645475,-0.987171,-0.081818,0.121245,-0.064069,-0.818026,-0.179177,-0.458508
934,3871678809,-0.988433,-0.072231,0.126344,-0.042738,-0.749420,-0.353125,-0.389044
935,3871712143,-0.989201,-0.063110,0.130617,-0.021072,-0.955981,-0.055199,-0.498175
936,3871745477,-0.989500,-0.052232,0.134782,0.001469,-1.306993,0.536822,-0.373344
937,3871778811,-0.989215,-0.040077,0.138666,0.025017,-0.891905,0.250055,0.070029
938,3871812145,-0.988322,-0.026768,0.141991,0.048452,-0.742329,0.056961,0.108850
939,3871845479,-0.986873,-0.008933,0.144648,0.071314,-0.543799,0.435355,-0.058845
940,3871878813,-0.984793,0.012512,0.145994,0.093372,-0.200525,0.208774,-0.008779
941,3871912147,-0.981972,0.030865,0.146720,0.115138,-0.008077,0.306923,-0.088097
942,3871945481,-0.978407,0.041867,0.148591,0.137455,0.232423,0.750808,-0.274445
943,3871978815,-0.974031,0.049676,0.151982,0.160324,0.725621,1.035136,0.241178
944,3872012149,-0.968526,0.056933,0.156830,0.184732,0.903922,1.326660,0.445292
945,3872045483,-0.961874,0.065228,0.161793,0.210648,1.184584,0.962530,0.931350
946,3872078817,-0.954095,0.076694,0.164745,0.238088,1.029291,0.908211,0.568315
947,3872112151,-0.945141,0.089454,0.165754,0.266903,0.518953,0.601534,0.734593
948,3872145485,-0.934839,0.102160,0.165228,0.297229,0.282422,-0.026056,1.167208
949,3872178819,-0.923385,0.113823,0.162341,0.328718,0.049130,-0.424464,1.082576
950,3872212153,-0.911263,0.125790,0.155681,0.359925,-0.246618,-0.908276,0.999369
951,3872245487,-0.899029,0.136064,0.145606,0.389921,-0.414170,-1.276680,0.979622
952,3872278821,-0.886984,0.144999,0.132078,0.418087,-0.270968,-1.350113,0.729291
953,3872312155,-0.875035,0.153559,0.114903,0.444450,-0.182550,-1.930294,0.417728
954,3872345489,-0.863081,0.163136,0.093712,0.468724,-0.193613,-1.931348,-0.391905
955,3872378823,-0.851094,0.173509,0.070203,0.490521,-0.068003,-1.825138,-0.619275
956,3872412157,-0.838684,0.184683,0.046499,0.510241,-0.285436,-1.650416,-1.016424
957,3872445491,-0.825893,0.196384,0.024299,0.527968,0.147130,-1.414678,-1.234225
958,3872478825,-0.812417,0.211106,0.003075,0.543516,-0.229662,-1.295220,-1.099793
959,3872512159,-0.798638,0.227486,-0.015367,0.556953,-0.399116,-1.182417,-0.804794
960,3872545493,-0.785765,0.242231,-0.028642,0.568404,-0.712215,-1.032375,-0.226675
961,3872578827,-0.775052,0.248512,-0.033184,0.580035,-0.622253,-0.797421,0.167695
962,3872612161,-0.766190,0.245523,-0.029325,0.593142,0.257174,-0.539726,-0.275192
963,3872645495,-0.756863,0.239890,-0.022574,0.607542,0.646936,-0.463718,-0.596345
964,3872678829,-0.745758,0.235546,-0.014792,0.623017,0.837146,-0.530632,-1.118365
965,3872712163,-0.732901,0.231183,-0.002409,0.639852,0.358926,-0.706417,-1.891646
966,3872745497,-0.718535,0.226161,0.019389,0.657410,0.028741,-0.575516,-2.871809
967,3872778831,-0.703599,0.221617,0.055284,0.672892,-0.538382,-0.704962,-2.736330
968,3872812165,-0.690213,0.212577,0.112070,0.682541,-1.076231,-0.488832,-0.234912
969,3872845499,-0.677538,0.189101,0.189548,0.685025,-2.370117,-0.599272,0.522863
970,3872878833,-0.663273,0.162445,0.263832,0.681234,0.662540,0.113759,0.966763
971,3872912167,-0.646972,0.156922,0.308530,0.679425,0.671332,0.207454,1.622601
972,3872945501,-0.630768,0.164873,0.332974,0.681236,-0.026769,0.463866,1.860974
973,3872978835,-0.615982,0.175850,0.349111,0.683938,-1.482973,0.811642,1.621190
974,3873012169,-0.604817,0.184552,0.362570,0.684606,-2.641604,1.295065,1.608836
975,3873045503,-0.596898,0.188605,0.374703,0.683918,-2.067265,1.993772,2.143219
976,3873078837,-0.592216,0.191513,0.381215,0.683582,-2.235903,2.545478,2.309166
977,3873112171,-0.591920,0.195134,0.380647,0.683131,-2.680335,2.605532,2.311275
978,3873145505,-0.596535,0.197046,0.375556,0.681382,-2.779939,2.425649,2.401272
979,3873178839,-0.605676,0.198281,0.364766,0.678817,-2.438997,2.226418,2.469148
980,3873212173,-0.619030,0.200751,0.346170,0.675776,-2.544523,2.100620,2.259527
981,3873245507,-0.635708,0.203712,0.321056,0.671793,-2.263338,1.860109,2.320626
982,3873278841,-0.654617,0.207831,0.289485,0.666699,-2.049766,1.592034,2.652676
983,3873312175,-0.675038,0.213833,0.252523,0.659421,-2.651479,1.138158,2.169838
984,3873345509,-0.696280,0.219099,0.215469,0.648667,-2.272984,0.655637,1.861257
985,3873378843,-0.718166,0.222350,0.179880,0.634387,-1.902072,0.442889,1.643620
986,3873412177,-0.739842,0.223733,0.146968,0.617238,-1.851454,-0.123267,1.394694
987,3873445511,-0.760498,0.223466,0.116375,0.598471,-1.738821,-0.581298,0.983459
988,3873478845,-0.779781,0.221887,0.088600,0.578674,-1.774108,-0.990300,0.766888
989,3873512179,-0.797136,0.220595,0.061917,0.558645,-0.990581,-1.288819,0.581161
990,3873545513,-0.811981,0.221658,0.034755,0.538844,-0.343094,-1.372380,0.171804
991,3873578847,-0.823719,0.225629,0.007251,0.520126,0.298361,-1.383036,-0.393547
992,3873612181,-0.832259,0.232167,-0.019054,0.503076,0.438333,-1.658519,-0.650639
993,3873645515,-0.837956,0.240218,-0.043560,0.488092,1.268091,-1.671599,-0.967348
994,3873678849,-0.841174,0.248572,-0.065567,0.475759,1.068891,-1.699635,-1.656839
995,3873712183,-0.843017,0.256008,-0.083274,0.465675,1.327906,-1.320665,-1.950994
996,3873745517,-0.844405,0.261898,-0.097414,0.457062,1.566712,-1.285490,-2.377120
997,3873778851,-0.845302,0.267431,-0.109145,0.449487,1.123501,-1.257041,-2.239381
998,3873812185,-0.846413,0.270140,-0.116909,0.443788,1.009076,-1.225671,-2.285861
999,3873845519,-0.848158,0.270826,-0.121508,0.438775,1.265195,-0.995228,-2.333429
1000,3873878853,-0.850140,0.271541,-0.124166,0.433724,1.166256,-1.088541,-1.873950
1001,3873912187,-0.852595,0.271853,-0.124032,0.428718,0.997601,-0.934251,-1.324421
1002,3873945521,-0.855507,0.272653,-0.121956,0.422966,1.182824,-0.628341,-1.331244
1003,3873978855,-0.859395,0.272643,-0.118191,0.416104,1.232833,-0.717063,-1.213537
1004,3874012189,-0.863941,0.272133,-0.113771,0.408180,1.256912,-1.145789,-0.506986
1005,3874045523,-0.869041,0.270484,-0.109100,0.399635,1.690238,-0.475579,-0.680490
1006,3874078857,-0.873510,0.272832,-0.107617,0.388545,2.070482,-0.020820,-0.456330
1007,3874112191,-0.877252,0.278443,-0.108465,0.375685,1.722218,-0.371190,0.114014
1008,3874145525,-0.881005,0.282730,-0.107415,0.363816,1.645780,0.304343,-0.553033
1009,3874178859,-0.883355,0.288435,-0.106367,0.353809,1.993873,0.687898,-0.083017
1010,3874212193,-0.884303,0.293784,-0.105471,0.347247,1.888884,0.428457,0.257476
1011,3874245527,-0.883725,0.299914,-0.105946,0.343313,1.399248,0.321923,-0.284449
1012,3874278861,-0.882676,0.304944,-0.107613,0.341053,0.871607,-0.033010,1.499375
1013,3874312195,-0.882828,0.303592,-0.107269,0.341974,0.897737,0.200483,1.068179
1014,3874345529,-0.882223,0.302474,-0.107161,0.344551,0.510727,0.332302,0.941788
1015,3874378863,-0.880873,0.301935,-0.107236,0.348432,0.056197,0.117326,1.227730
1016,3874412197,-0.879503,0.300108,-0.106990,0.353508,-0.272309,-0.078643,1.277357
1017,3874445531,-0.878079,0.298112,-0.107426,0.358569,-0.461720,-0.094705,1.120813
1018,3874478865,-0.876861,0.295801,-0.108858,0.363004,-0.897757,-0.309999,0.765676
1019,3874512199,-0.876119,0.293230,-0.111437,0.366086,-0.954975,-0.161363,0.796309
1020,3874545533,-0.875595,0.291406,-0.115417,0.367562,-1.185784,0.197194,0.719227
1021,3874578867,-0.875744,0.289252,-0.119089,0.367736,-1.411683,0.401585,0.576510
1022,3874612201,-0.876706,0.285923,-0.121788,0.367161,-1.531821,0.555045,0.442291
1023,3874645535,-0.878400,0.281185,-0.123391,0.366236,-1.606083,0.465916,0.586987
1024,3874678869,-0.880667,0.275048,-0.123890,0.365284,-1.591061,0.550645,0.337521
1025,3874712203,-0.883499,0.267658,-0.123373,0.364106,-1.653507,0.467783,0.545549
1026,3874745537,-0.886864,0.259050,-0.122531,0.362432,-1.657275,0.373817,0.734594
1027,3874778871,-0.890870,0.249181,-0.121756,0.359779,-1.649721,0.278401,1.041651
1028,3874812205,-0.895608,0.237315,-0.121587,0.356076,-1.735665,0.001444,1.477171
1029,3874845539,-0.901447,0.221485,-0.121283,0.351617,-1.991416,-0.279006,1.571609
1030,3874878873,-0.908371,0.201462,-0.120409,0.346097,-1.810503,-0.213911,1.500718
1031,3874912207,-0.915624,0.179722,-0.120398,0.338885,-1.720358,-0.467116,1.618622
1032,3874945541,-0.923430,0.154312,-0.120355,0.330131,-1.779497,-0.789953,1.281258
1033,3874978875,-0.931402,0.126167,-0.119595,0.319805,-1.606009,-0.877966,0.790692
1034,3875012209,-0.938759,0.100743,-0.119579,0.307064,-1.265636,-0.816170,0.397794
1035,3875045543,-0.945460,0.077560,-0.119603,0.292901,-1.126681,-0.962129,0.395958
1036,3875078877,-0.951516,0.053845,-0.118297,0.278800,-0.797105,-0.768228,0.028088
1037,3875112211,-0.956449,0.032293,-0.116812,0.265561,-0.272013,-0.494547,-0.229638
1038,3875145545,-0.960054,0.014062,-0.115233,0.254609,-0.181639,-0.220332,-0.596444
1039,3875178879,-0.962419,-0.002296,-0.112088,0.247360,-0.225584,-0.141997,-1.263127
1040,3875212213,-0.963648,-0.020624,-0.105791,0.244483,-0.267201,-0.606231,-1.501674
1041,3875245547,-0.963497,-0.043264,-0.096489,0.245963,0.199573,0.356562,-2.487855
1042,3875278881,-0.962154,-0.066087,-0.085623,0.250135,0.820597,0.091017,-2.745225
1043,3875312215,-0.959960,-0.085069,-0.075714,0.255954,1.728806,1.006922,-2.342215
1044,3875345549,-0.957640,-0.099798,-0.066637,0.261786,1.890189,0.001737,-1.774760
1045,3875378883,-0.954417,-0.116409,-0.057249,0.268824,2.518724,0.657516,-0.789718
1046,3875412217,-0.951979,-0.127602,-0.049825,0.273821,2.095044,0.326765,0.044977
1047,3875445551,-0.950691,-0.128758,-0.044279,0.278662,2.357327,2.018882,-0.582661
1048,3875478885,-0.950460,-0.121065,-0.040026,0.283501,2.619779,1.723860,-0.335850
1049,3875512219,-0.951332,-0.105372,-0.039719,0.286868,2.093607,0.485961,0.022675
1050,3875545553,-0.951741,-0.092722,-0.040491,0.289757,1.522776,0.097667,0.009223
1051,3875578887,-0.952417,-0.081422,-0.041890,0.290730,1.686270,-0.304020,0.406972
1052,3875612221,-0.953455,-0.071605,-0.044838,0.289469,0.938487,-1.918512,1.074741
1053,3875645555,-0.953618,-0.072286,-0.046990,0.288419,2.015469,-0.856250,1.910778
1054,3875678889,-0.954150,-0.072612,-0.050380,0.285996,1.993439,-0.117499,1.907107
1055,3875712223,-0.954288,-0.074141,-0.053647,0.284545,2.284402,0.403867,1.026408
1056,3875745557,-0.954558,-0.072446,-0.058665,0.283080,2.105357,0.855879,0.352313
1057,3875778891,-0.955103,-0.064760,-0.066753,0.281308,1.895270,0.525509,0.569433
1058,3875812225,-0.954607,-0.062174,-0.073093,0.281999,1.637326,-0.015475,0.057666
1059,3875845559,-0.953528,-0.063628,-0.079156,0.283683,2.422897,0.885508,0.106892
1060,3875878893,-0.953067,-0.057617,-0.088814,0.283655,2.294895,0.653851,0.177821
1061,3875912227,-0.952389,-0.048272,-0.098732,0.284398,1.056443,-0.466462,-0.955638
1062,3875945561,-0.950300,-0.046940,-0.104341,0.289559,1.816293,0.183483,-1.361939
1063,3875978895,-0.948251,-0.045773,-0.108588,0.294856,1.697315,-0.237429,-1.767613
1064,3876012229,-0.946639,-0.043113,-0.111813,0.299197,1.314700,-0.537191,-1.751693
1065,3876045563,-0.945144,-0.041193,-0.113421,0.303560,1.489407,-0.568866,-2.322145
1066,3876078897,-0.943760,-0.038054,-0.114097,0.307989,1.190651,-0.612309,-2.568441
1067,3876112231,-0.942160,-0.032614,-0.114885,0.313175,1.252023,-0.868080,-2.927238
1068,3876145565,-0.939367,-0.024155,-0.118435,0.320914,1.578902,-0.761874,-2.903392
1069,3876178899,-0.934050,-0.013475,-0.125666,0.334041,0.879154,-1.246782,-3.244189
1070,3876212233,-0.926062,-0.001876,-0.131632,0.353672,-0.657825,-0.994773,-2.906330
1071,3876245567,-0.916593,0.014744,-0.133440,0.376616,0.017060,0.385407,-2.533947
1072,3876278901,-0.905846,0.040152,-0.132013,0.400510,-0.688234,-0.145300,-2.030472
1073,3876312235,-0.892836,0.064490,-0.122053,0.428712,0.021568,0.149571,-1.114310
1074,3876345569,-0.876507,0.082360,-0.101146,0.463388,0.000853,-0.238696,0.579133
1075,3876378903,-0.856427,0.093370,-0.070501,0.502843,0.808121,0.066360,1.361711
1076,3876412237,-0.832072,0.102158,-0.036152,0.543985,0.940395,-0.990594,2.251486
1077,3876445571,-0.802866,0.109058,-0.001292,0.586102,0.929804,-1.751139,2.637363
1078,3876478905,-0.769860,0.116030,0.031017,0.626815,-0.131821,-2.420735,2.314704
1079,3876512239,-0.734473,0.125667,0.057621,0.664412,-1.226973,-2.095570,1.468607
1080,3876545573,-0.698863,0.136823,0.079594,0.697524,-2.513038,-2.006950,1.000436
1081,3876578907,-0.664756,0.145343,0.102570,0.725576,-3.459276,-1.512005,0.191700
1082,3876612241,-0.633766,0.151997,0.128367,0.747506,-3.473130,-1.044090,-0.063111
1083,3876645575,-0.606493,0.158399,0.157318,0.763107,-4.578088,-0.598084,0.358351
1084,3876678909,-0.583497,0.158337,0.199632,0.771112,-4.621722,1.195730,1.268202
1085,3876712243,-0.563931,0.153646,0.251943,0.771301,-4.086823,1.199357,0.023605
1086,3876745577,-0.549194,0.155209,0.295275,0.766234,-2.418498,1.005333,0.716849
1087,3876778911,-0.536585,0.164434,0.321301,0.762765,-0.871305,0.854338,1.276896
1088,3876812245,-0.526770,0.177449,0.334137,0.761172,-1.168897,1.857050,1.621805
1089,3876845579,-0.521392,0.189511,0.340754,0.759031,-2.961063,3.129698,1.840335
1090,3876878913,-0.520804,0.194843,0.349527,0.754080,-2.580773,3.280257,1.643593
1091,3876912247,-0.523933,0.195694,0.358728,0.747341,-1.847769,2.889307,1.819959
1092,3876945581,-0.529336,0.195263,0.364863,0.740646,-1.760994,2.465917,1.385649
1093,3876978915,-0.536932,0.193087,0.368995,0.733669,-2.321241,2.462017,1.014181
1094,3877012249,-0.546679,0.188895,0.372239,0.725882,-2.275773,1.730936,1.141394
1095,3877045583,-0.559291,0.185793,0.371202,0.717558,-2.222639,1.352359,1.037558
1096,3877078917,-0.575310,0.184586,0.365004,0.708325,-2.388803,0.974932,0.856107
1097,3877112251,-0.595191,0.183475,0.355194,0.697086,-2.557977,0.570885,0.911216
1098,3877145585,-0.619448,0.182480,0.340994,0.683165,-2.417243,-0.063902,0.639299
1099,3877178919,-0.648130,0.182912,0.322626,0.665124,-2.543133,-0.584541,0.453940
1100,3877212253,-0.680151,0.184701,0.301368,0.642233,-2.379070,-1.021105,0.932092
1101,3877245587,-0.713189,0.189152,0.277296,0.615383,-2.112136,-1.233764,0.498954
1102,3877278921,-0.745517,0.197243,0.251771,0.584737,-2.024823,-1.410014,0.458610
1103,3877312255,-0.776512,0.207290,0.226600,0.550198,-2.260342,-1.485487,0.994439
1104,3877345589,-0.806395,0.215127,0.204352,0.511560,-2.152062,-1.433620,1.068963
1105,3877378923,-0.835259,0.219161,0.186075,0.468714,-2.093663,-1.937725,1.136746
1106,3877412257,-0.863407,0.214411,0.174177,0.422165,-1.441874,-2.537411,1.428306
1107,3877445591,-0.889794,0.202007,0.166117,0.373992,0.098558,-2.288721,0.968746
1108,3877478925,-0.913467,0.184267,0.159301,0.325963,0.727374,-2.502106,0.567323
1109,3877512259,-0.933212,0.162135,0.153453,0.281577,1.965612,-1.758161,-0.053457
1110,3877545593,-0.947924,0.140318,0.149556,0.243700,2.247656,-1.371729,-0.365949
1111,3877578927,-0.956853,0.127879,0.146440,0.215964,2.830026,1.516064,-1.487983
1112,3877612261,-0.961106,0.131628,0.144310,0.195270,2.357870,2.153354,-2.174196
1113,3877645595,-0.962078,0.143692,0.145544,0.180502,2.217685,0.620210,-2.725291
1114,3877678929,-0.962084,0.151487,0.150176,0.170000,1.890885,0.424326,-1.489724
1115,3877712263,-0.963307,0.144280,0.157512,0.162541,1.605189,0.343026,-0.188453
1116,3877745597,-0.964405,0.135983,0.163714,0.156954,1.492410,1.147286,-0.088351
1117,3877778931,-0.964276,0.135816,0.167576,0.153784,1.353794,0.911473,-0.401994
1118,3877812265,-0.963356,0.140499,0.170237,0.152416,1.361648,-0.492522,0.071885
1119,3877845599,-0.962769,0.140875,0.172947,0.152728,1.510995,0.125888,0.014691
1120,3877878933,-0.962254,0.137526,0.176286,0.155187,1.857487,0.525352,-0.201865
1121,3877912267,-0.961456,0.132212,0.180541,0.159789,2.085765,0.136118,-0.084704
1122,3877945601,-0.960230,0.128443,0.184531,0.165576,2.289482,0.580474,-0.485742
1123,3877978935,-0.958429,0.130817,0.186660,0.171651,2.322662,-0.094682,0.063700
1124,3878012269,-0.956460,0.135234,0.188052,0.177592,2.416144,-0.628605,0.041759
1125,3878045603,-0.954696,0.139887,0.188987,0.182422,2.360819,-0.097762,-0.240294
1126,3878078937,-0.953422,0.144938,0.188540,0.185574,2.102414,-0.332647,0.480325
1127,3878112271,-0.953115,0.147966,0.186555,0.186768,2.017410,-1.096470,0.618638
1128,3878145605,-0.953597,0.148217,0.183066,0.187555,1.600832,-0.574739,0.181221
1129,3878178939,-0.953971,0.148683,0.178892,0.189304,1.612620,-0.126877,-0.071685
1130,3878212273,-0.953749,0.151816,0.174288,0.192210,1.189668,0.021469,-0.132030
1131,3878245607,-0.952227,0.160223,0.169631,0.197035,0.832863,-0.143583,-0.014608
1132,3878278941,-0.949845,0.170663,0.164822,0.203734,-0.389597,-1.045419,0.458004
1133,3878312275,-0.947538,0.175547,0.161700,0.212637,-0.574874,-0.029855,0.614068
1134,3878345609,-0.944841,0.180813,0.158078,0.222711,-0.764591,0.058603,0.694563
1135,3878378943,-0.941967,0.186961,0.153576,0.232732,-0.970069,-0.138894,0.607560
1136,3878412277,-0.939511,0.192056,0.148135,0.241858,-1.297328,-0.256110,1.114587
1137,3878445611,-0.938169,0.191376,0.143014,0.250533,-1.638241,-0.401504,1.444163
1138,3878478945,-0.937334,0.186842,0.137914,0.259770,-0.885059,0.317627,0.543191
1139,3878512279,-0.936244,0.183603,0.131870,0.268986,-1.122909,0.037866,0.454089
1140,3878545613,-0.934425,0.183926,0.124748,0.278326,-0.966727,-0.174995,0.433228
1141,3878578947,-0.932046,0.188363,0.115937,0.287009,-0.839110,-1.133425,0.271751
1142,3878612281,-0.931507,0.183234,0.110030,0.294310,-2.193923,-2.867985,0.563466
1143,3878645615,-0.932775,0.171722,0.104487,0.299217,-0.333805,-0.515414,0.492110
1144,3878678949,-0.933319,0.173276,0.092931,0.300435,-1.357871,-1.549270,0.600307
1145,3878712283,-0.934329,0.180651,0.080354,0.296553,-1.475113,-1.518197,0.122159
1146,3878745617,-0.936106,0.190003,0.068518,0.287951,-0.858304,-0.515369,0.183959
1147,3878778951,-0.938531,0.198508,0.059971,0.275977,-0.819507,-0.413308,0.655285
1148,3878812285,-0.941818,0.200401,0.057721,0.263614,-0.510763,0.442120,0.223751
1149,3878845619,-0.944902,0.200142,0.058441,0.252375,-0.187741,0.958481,-0.358124
1150,3878878953,-0.946917,0.203087,0.059701,0.241961,-0.301691,1.046456,-0.669035
1151,3878912287,-0.946873,0.212605,0.060816,0.233533,0.007970,1.655944,-0.701210
1152,3878945621,-0.944782,0.227800,0.061876,0.227311,-0.197758,1.445167,-1.306702
1153,3878978955,-0.941246,0.245745,0.063948,0.222669,-0.051476,0.717684,-1.245043
1154,3879012289,-0.938499,0.257271,0.067652,0.220136,0.393583,0.965285,-0.294735
1155,3879045623,-0.936401,0.264293,0.070729,0.219783,0.820939,1.586981,-0.453588
1156,3879078957,-0.934076,0.270853,0.072050,0.221258,0.839872,1.205581,0.223690
1157,3879112291,-0.931076,0.278763,0.071635,0.224193,1.170309,1.188419,-0.018333
1158,3879145625,-0.926802,0.291057,0.069288,0.226999,1.196552,0.460578,0.639835
1159,3879178959,-0.922849,0.302109,0.066490,0.229487,1.151255,-0.036147,0.950476
1160,3879212293,-0.920980,0.306997,0.064550,0.231061,0.864130,-0.620052,1.378139
1161,3879245627,-0.921685,0.304637,0.064307,0.231439,1.490102,-0.237043,0.509665
1162,3879278961,-0.924654,0.296549,0.064652,0.229999,1.254204,-0.648762,1.193638
1163,3879312295,-0.929154,0.283501,0.065331,0.228116,1.761179,-0.277645,0.368696
1164,3879345629,-0.933210,0.270923,0.064076,0.227200,1.600000,0.114575,-0.271805
1165,3879378963,-0.936596,0.258833,0.062471,0.227807,1.579032,0.383295,-0.729537
1166,3879412297,-0.938372,0.250577,0.059134,0.230603,2.097169,1.163103,-1.146121
1167,3879445631,-0.937100,0.252530,0.051473,0.235433,1.204304,0.472368,-0.264342
1168,3879478965,-0.934745,0.253776,0.044222,0.244745,0.127105,0.573351,0.222419
1169,3879512299,-0.931046,0.255016,0.037800,0.258256,0.437976,1.234939,-0.335938
1170,3879545633,-0.924422,0.263446,0.028893,0.274247,0.088962,1.248263,-0.127467
1171,3879578967,-0.915599,0.276430,0.018548,0.291423,-0.125528,0.695287,0.567544
1172,3879612301,-0.906892,0.285536,0.009740,0.309722,0.114070,0.539915,0.883412
1173,3879645635,-0.899253,0.289147,0.003367,0.328226,0.202664,0.448371,0.168489
1174,3879678969,-0.891348,0.292848,-0.002353,0.346034,0.238267,0.262503,0.186033
1175,3879712303,-0.883972,0.291803,-0.004679,0.365279,0.446896,0.346724,-0.267408
1176,3879745637,-0.876748,0.286534,-0.003495,0.386270,0.481249,0.181563,-0.584995
1177,3879778971,-0.867459,0.284231,-0.001985,0.408325,0.460304,-0.002993,-0.924414
1178,3879812305,-0.856105,0.284306,-0.000619,0.431578,0.825149,0.132989,-0.754992
1179,3879845639,-0.843122,0.286299,0.000914,0.455173,0.691544,-0.352388,-0.503719
1180,3879878973,-0.829915,0.287915,0.003825,0.477847,0.350537,-0.565135,-0.329098
1181,3879912307,-0.816712,0.288007,0.007625,0.499981,0.463711,-0.375095,-0.044205
1182,3879945641,-0.803345,0.286065,0.012882,0.522153,0.615589,-0.069574,-0.164568
1183,3879978975,-0.789455,0.282904,0.020200,0.544356,0.656291,0.022956,-0.350093
1184,3880012309,-0.774798,0.277607,0.031111,0.567151,0.823719,-0.195360,-0.424273
1185,3880045643,-0.757194,0.277161,0.039617,0.590149,0.915237,-0.491737,-0.500801
1186,3880078977,-0.736403,0.281400,0.046078,0.613520,0.511257,-0.671413,-0.221178
1187,3880112311,-0.714514,0.285084,0.053998,0.636622,0.289884,-0.726346,0.005861
1188,3880145645,-0.692515,0.286614,0.064023,0.658925,-0.006190,-0.566600,0.024397
1189,3880178979,-0.670524,0.285997,0.077529,0.680146,-0.027367,-0.334486,0.280944
1190,3880212313,-0.649766,0.282373,0.095802,0.699212,-0.310477,-0.168472,0.880426
1191,3880245647,-0.630341,0.278013,0.114704,0.715701,-0.310555,-0.033478,0.995101
1192,3880278981,-0.612079,0.275190,0.129635,0.729952,-0.506795,0.273849,1.546855
1193,3880312315,-0.596156,0.272517,0.140670,0.741991,-1.151533,0.637160,1.615052
1194,3880345649,-0.582256,0.269597,0.149268,0.752343,-1.047168,0.787667,1.425979
1195,3880378983,-0.570375,0.266728,0.155481,0.761157,-1.304046,0.781679,1.301296
1196,3880412317,-0.561053,0.263847,0.160011,0.768119,-1.235219,0.426717,0.971168
1197,3880445651,-0.554749,0.260824,0.161910,0.773314,-1.326714,0.285672,0.402598
1198,3880478985,-0.550495,0.259574,0.160989,0.776959,-1.086576,0.198170,0.096794
1199,3880512319,-0.548220,0.259937,0.158622,0.778930,-1.056848,0.188359,-0.313018
1200,3880545653,-0.547661,0.260115,0.157587,0.779474,-1.280110,-0.029790,-0.672149
1201,3880578987,-0.548240,0.257953,0.161270,0.779033,-1.163762,-0.025515,-0.937668
1202,3880612321,-0.549878,0.252163,0.176160,0.776544,-2.690316,0.772403,0.040517
1203,3880645655,-0.552269,0.237718,0.211833,0.770468,-2.463409,0.766867,-0.409679
1204,3880678989,-0.553739,0.214840,0.261590,0.760785,-1.374609,0.288848,-2.112625
1205,3880712323,-0.553531,0.205015,0.296705,0.750696,-0.460422,-0.657813,-0.169594
1206,3880745657,-0.551527,0.205183,0.315999,0.744224,-0.496810,-1.110900,-0.555850
1207,3880778991,-0.549488,0.206807,0.329732,0.739308,-1.393721,-0.422512,-0.331319
1208,3880812325,-0.549477,0.206182,0.342341,0.733739,-1.174015,0.135787,0.387321
1209,3880845659,-0.552945,0.206551,0.349231,0.727758,-1.440865,0.712942,1.098754
1210,3880878993,-0.560416,0.208597,0.348919,0.721584,-1.644628,1.048469,1.501255
1211,3880912327,-0.571192,0.211279,0.342557,0.715375,-2.440877,1.646747,2.045497
1212,3880945661,-0.585640,0.213103,0.331640,0.708261,-2.649468,2.569577,2.697411
1213,3880978995,-0.604225,0.213761,0.314723,0.700124,-2.670818,2.773777,3.288508
1214,3881012329,-0.626811,0.213610,0.290612,0.690673,-3.333190,2.358708,3.214646
1215,3881045663,-0.653384,0.209785,0.263043,0.678154,-3.423806,2.128267,3.580959
1216,3881078997,-0.683261,0.201685,0.232889,0.662001,-3.304892,1.469633,3.418324
1217,3881112331,-0.715494,0.189191,0.200973,0.641787,-3.415459,0.483655,3.520162
1218,3881145665,-0.748688,0.172877,0.167141,0.617779,-2.833894,-0.444432,2.945735
1219,3881178999,-0.781475,0.157815,0.129361,0.589629,-2.758971,-1.120190,2.167928
1220,3881212333,-0.813006,0.143815,0.090323,0.556944,-2.634132,-2.037905,1.908486
1221,3881245667,-0.842840,0.125371,0.055406,0.520423,-2.416428,-2.324468,1.176409
1222,3881279001,-0.870177,0.104517,0.024523,0.480908,-1.904327,-2.492232,0.948582
1223,3881312335,-0.894112,0.082570,-0.003840,0.440157,-0.956133,-2.849967,0.854676
1224,3881345669,-0.914193,0.062434,-0.031297,0.399223,-0.773106,-2.697613,0.100883
1225,3881379003,-0.930700,0.043507,-0.056548,0.358766,-0.104976,-2.665052,-0.085669
1226,3881412337,-0.943754,0.025069,-0.078308,0.320272,0.595244,-2.126746,-0.871687
1227,3881445671,-0.953654,0.007176,-0.094960,0.285448,0.690490,-1.704502,-1.394508
1228,3881479005,-0.960745,-0.013166,-0.103278,0.257168,0.728019,-1.428290,-2.129064
1229,3881512339,-0.965704,-0.036083,-0.103600,0.235344,1.228932,-0.592385,-2.522308
1230,3881545673,-0.968858,-0.057503,-0.100117,0.219068,1.557381,-0.669698,-3.016630
1231,3881579007,-0.969988,-0.080704,-0.093312,0.209546,1.648007,0.097106,-3.390528
1232,3881612341,-0.969422,-0.101247,-0.085187,0.206687,1.790944,1.213151,-3.857534
1233,3881645675,-0.968605,-0.114951,-0.075921,0.206962,2.795196,1.094114,-3.723415
1234,3881679009,-0.968012,-0.121605,-0.066981,0.209007,2.903392,1.524846,-3.444551
1235,3881712343,-0.967984,-0.121661,-0.057359,0.211947,2.829996,0.570301,-3.245339
1236,3881745677,-0.967618,-0.123289,-0.045966,0.215425,2.930898,0.603825,-2.588253
1237,3881779011,-0.967106,-0.125687,-0.033371,0.218632,2.891386,0.532392,-2.004621
1238,3881812345,-0.966565,-0.129750,-0.021173,0.220168,2.960380,0.474509,-0.344332
1239,3881845679,-0.965987,-0.136191,-0.012671,0.219469,2.466217,0.829522,0.388623
1240,3881879013,-0.966014,-0.140900,-0.008256,0.216567,2.071666,0.490196,0.741346
1241,3881912347,-0.966031,-0.146586,-0.005755,0.212766,2.170124,1.059637,1.552843
1242,3881945681,-0.966651,-0.147852,-0.006330,0.209027,1.999952,0.598981,2.020493
1243,3881979015,-0.967637,-0.145968,-0.008322,0.205690,0.927355,0.129568,1.894085
1244,3882012349,-0.968280,-0.145076,-0.009695,0.203221,0.659150,-0.367649,1.450255
1245,3882045683,-0.968588,-0.145014,-0.011065,0.201722,0.526846,0.050645,0.957206
1246,3882079017,-0.968703,-0.145666,-0.013373,0.200558,0.770800,0.122058,0.731468
1247,3882112351,-0.969288,-0.143442,-0.018008,0.198964,0.522574,-0.119209,0.191861
1248,3882145685,-0.969729,-0.141126,-0.024028,0.197832,0.454348,-0.289023,0.466474
1249,3882179019,-0.969858,-0.139035,-0.032511,0.197467,0.682353,-0.246029,0.750420
1250,3882212353,-0.970211,-0.133115,-0.042696,0.197875,0.395416,0.186394,0.099234
1251,3882245687,-0.970449,-0.126023,-0.053070,0.198840,0.123229,-0.270842,-0.010024
1252,3882279021,-0.970440,-0.119231,-0.063025,0.200161,-0.089773,-0.322803,-0.196196
1253,3882312355,-0.970140,-0.113456,-0.071494,0.202115,-0.662592,-0.449421,-0.494242
1254,3882345689,-0.969510,-0.109593,-0.078210,0.204764,-0.756722,-0.530815,-0.447361
1255,3882379023,-0.968514,-0.107330,-0.083058,0.208730,-1.070332,-0.389409,-0.248330
1256,3882412357,-0.967104,-0.108276,-0.085251,0.213833,-1.438772,-0.566923,-0.339179
1257,3882445691,-0.965485,-0.112117,-0.085439,0.219030,-1.504260,-0.643413,-0.157590
1258,3882479025,-0.963889,-0.117834,-0.084472,0.223392,-1.521661,-0.438173,-0.123211
1259,3882512359,-0.962450,-0.123803,-0.083290,0.226785,-1.540595,-0.380340,-0.211823
1260,3882545693,-0.961450,-0.128248,-0.082590,0.228804,-1.476657,-0.303782,-0.241350
1261,3882579027,-0.961076,-0.130272,-0.082344,0.229320,-1.684062,-0.305986,-0.113489
1262,3882612361,-0.960955,-0.132564,-0.081074,0.228967,-1.619994,-0.643856,0.013601
1263,3882645695,-0.960862,-0.136451,-0.078366,0.228015,-1.710691,-0.579216,-0.082967
1264,3882679029,-0.960767,-0.141948,-0.073927,0.226537,-1.502825,-0.395625,-0.217389
1265,3882712363,-0.960461,-0.150150,-0.068322,0.224292,-1.300341,-0.718106,0.016891
1266,3882745697,-0.959813,-0.160664,-0.062897,0.221351,-0.854584,-0.546957,0.360709
1267,3882779031,-0.959209,-0.170364,-0.058586,0.217870,-0.830643,-0.393061,0.212225
1268,3882812365,-0.958620,-0.179405,-0.054808,0.214157,-0.608069,-0.667247,0.052768
1269,3882845699,-0.957647,-0.189568,-0.051198,0.210619,-0.462230,-0.393276,0.066694
1270,3882879033,-0.956949,-0.198104,-0.048335,0.206574,-0.417951,-0.139823,-0.026705
1271,3882912367,-0.956868,-0.204705,-0.045377,0.201110,-0.442357,-0.502396,0.026533
1272,3882945701,-0.956934,-0.211006,-0.042161,0.194890,-0.195633,-0.381378,-0.007010
1273,3882979035,-0.957755,-0.215164,-0.038751,0.186852,-0.025484,-0.135671,-0.437428
1274,3883012369,-0.959132,-0.218262,-0.033889,0.176876,0.004719,-0.126815,-0.788153
1275,3883045703,-0.960496,-0.222690,-0.026835,0.164746,0.105853,-0.193385,-0.563500
1276,3883079037,-0.961684,-0.227824,-0.018781,0.151373,0.551253,0.055821,-0.318521
1277,3883112371,-0.962769,-0.232059,-0.010022,0.138310,0.771629,0.084944,-0.631898
1278,3883145705,-0.964236,-0.232996,-0.001875,0.126352,1.208839,-0.168721,-0.841205
1279,3883179039,-0.965127,-0.234113,0.004759,0.117063,1.091828,-0.254069,-0.711969
1280,3883212373,-0.964811,-0.238823,0.010350,0.109556,1.404612,0.316758,-0.665001
1281,3883245707,-0.964287,-0.243425,0.015675,0.103221,1.643084,1.496672,-0.407784
1282,3883279041,-0.963842,-0.246966,0.021333,0.097809,1.839574,1.329370,0.129259
1283,3883312375,-0.963075,-0.251060,0.026986,0.093451,1.901850,1.977760,0.458806
1284,3883345709,-0.961743,-0.256193,0.033063,0.091255,2.495684,1.299529,0.660434
1285,3883379043,-0.960433,-0.260672,0.039408,0.089843,2.586073,1.690091,1.942282
1286,3883412377,-0.959627,-0.262824,0.044912,0.089602,2.642485,1.383219,2.083729
1287,3883445711,-0.959819,-0.261192,0.046653,0.091406,2.823553,1.789216,2.612412
1288,3883479045,-0.960546,-0.257076,0.042931,0.097092,2.859519,1.974095,2.536964
1289,3883512379,-0.962258,-0.247955,0.033511,0.107058,3.113747,1.963496,1.529369
1290,3883545713,-0.964797,-0.233040,0.017459,0.120667,3.307450,1.530492,1.025190
1291,3883579047,-0.967472,-0.213535,-0.000730,0.135669,3.057336,2.030745,0.568358
1292,3883612381,-0.969509,-0.191074,-0.020350,0.152100,2.809934,0.358758,0.520321
1293,3883645715,-0.969144,-0.172774,-0.039916,0.171238,2.800957,1.571194,-0.429085
1294,3883679049,-0.967919,-0.150645,-0.059165,0.192211,2.604972,1.299545,-1.654377
1295,3883712383,-0.964629,-0.133090,-0.075345,0.214727,2.377740,0.112025,-1.936838
1296,3883745717,-0.958867,-0.122769,-0.087521,0.240514,2.410057,0.435941,-2.450152
1297,3883779051,-0.951598,-0.113017,-0.097053,0.268842,2.460339,0.773920,-2.872073
1298,3883812385,-0.942770,-0.102712,-0.103926,0.299735,1.880623,-0.099321,-3.386559
1299,3883845719,-0.931787,-0.094254,-0.107046,0.333822,1.782284,-0.433882,-3.848714
1300,3883879053,-0.918978,-0.085007,-0.107327,0.369783,2.035216,-0.817847,-4.439404
1301,3883912387,-0.905008,-0.070554,-0.106628,0.405733,0.943854,-0.627826,-3.844796
1302,3883945721,-0.889831,-0.053055,-0.102572,0.441442,0.714292,-1.855580,-3.315061
1303,3883979055,-0.872803,-0.035789,-0.094448,0.477515,0.774765,-2.189480,-2.721574
1304,3884012389,-0.854104,-0.018435,-0.082857,0.513135,-0.797121,-2.482979,-1.624231
1305,3884045723,-0.833230,-0.004870,-0.066601,0.548885,-0.958397,-2.555622,-0.690430
1306,3884079057,-0.810395,0.008540,-0.049223,0.583755,-1.315349,-2.535762,-0.402275
1307,3884112391,-0.785524,0.024052,-0.034311,0.617416,-2.245207,-2.696092,-0.651776
1308,3884145725,-0.758972,0.042374,-0.021903,0.649378,-2.443206,-1.838342,-0.587379
1309,3884179059,-0.731258,0.063578,-0.011617,0.679036,-2.921221,-1.817447,-0.073230
1310,3884212393,-0.702705,0.082741,0.002005,0.706655,-3.456276,-1.434196,-0.169052
1311,3884245727,-0.674898,0.099206,0.021558,0.730898,-3.684826,-0.913298,0.274126
1312,3884279061,-0.648549,0.113525,0.046230,0.751242,-3.753217,-0.757422,0.691236
1313,3884312395,-0.624908,0.123624,0.077743,0.766922,-3.669708,-0.339552,0.431779
1314,3884345729,-0.604749,0.133314,0.113777,0.776896,-3.641107,0.375406,1.502130
1315,3884379063,-0.588768,0.136835,0.163717,0.779635,-4.469117,1.274522,1.904573
1316,3884412397,-0.576187,0.130183,0.227923,0.774027,-4.400053,2.222482,2.373538
1317,3884445731,-0.568063,0.116919,0.296769,0.758662,-2.712077,1.768787,1.780966
1318,3884479065,-0.564210,0.105182,0.355739,0.737604,-1.135640,0.968354,2.313127
1319,3884512399,-0.562407,0.097153,0.399346,0.717487,0.186607,1.019859,2.360138
1320,3884545733,-0.561579,0.096753,0.425744,0.702862,0.852627,1.783971,2.880505
1321,3884579067,-0.561354,0.102732,0.438462,0.694324,-0.535682,2.463627,3.157244
1322,3884612401,-0.562319,0.108813,0.444122,0.688999,-1.747660,2.889896,2.970901
1323,3884645735,-0.564270,0.111723,0.446580,0.685339,-1.793754,2.991905,3.002978
1324,3884679069,-0.567490,0.112274,0.445193,0.683490,-2.002775,2.955863,3.159896
1325,3884712403,-0.572949,0.111417,0.438557,0.683366,-2.432322,2.857988,3.101164
1326,3884745737,-0.582145,0.109660,0.425210,0.684313,-2.759818,2.694659,3.540084
1327,3884779071,-0.596747,0.107406,0.402860,0.685614,-2.990095,2.533323,4.207394
1328,3884812405,-0.616865,0.104719,0.370818,0.686303,-3.438645,2.334361,4.706516
1329,3884845739,-0.641091,0.098534,0.332881,0.684463,-4.294963,1.720853,5.093605
1330,3884879073,-0.668166,0.086805,0.292363,0.678638,-4.395318,0.875055,4.686871
1331,3884912407,-0.697417,0.070973,0.249236,0.668176,-4.168768,-0.447418,4.141057
1332,3884945741,-0.728062,0.052933,0.204102,0.652282,-4.565336,-1.696196,3.168804
1333,3884979075,-0.759203,0.033377,0.158830,0.630298,-4.037520,-2.937287,2.225111
1334,3885012409,-0.790128,0.013914,0.113880,0.602114,-3.515671,-3.714628,0.935967
1335,3885045743,-0.819815,-0.004013,0.070667,0.568243,-2.618651,-4.490918,-0.242912
1336,3885079077,-0.847031,-0.022179,0.032370,0.530099,-1.732668,-4.363501,-1.501195
1337,3885112411,-0.871303,-0.042381,0.000872,0.488917,-1.187404,-4.457597,-2.695408
1338,3885145745,-0.892256,-0.064019,-0.024352,0.446312,-0.077345,-3.515466,-3.518994
1339,3885179079,-0.909574,-0.083936,-0.045189,0.404467,0.899942,-2.520804,-4.100204
1340,3885212413,-0.923222,-0.102047,-0.060903,0.365438,1.128663,-1.758112,-4.444427
1341,3885245747,-0.933264,-0.119454,-0.070726,0.331288,1.650127,-0.810337,-4.040654
1342,3885279081,-0.940243,-0.136105,-0.074954,0.302995,2.108240,-0.550843,-3.554971
1343,3885312415,-0.944558,-0.152613,-0.074077,0.281137,2.061378,0.167724,-3.705781
1344,3885345749,-0.946749,-0.169177,-0.069435,0.265010,2.453007,1.204429,-3.242136
1345,3885379083,-0.948082,-0.182029,-0.063408,0.252966,3.022058,1.776782,-2.412611
1346,3885412417,-0.949434,-0.188376,-0.058123,0.244369,2.985032,1.846913,-1.818953
1347,3885445751,-0.950204,-0.190894,-0.052239,0.240726,2.802169,1.803144,-1.601451
1348,3885479085,-0.949359,-0.196144,-0.044549,0.241385,2.731196,2.209314,-1.670359
1349,3885512419,-0.947261,-0.202259,-0.035069,0.246097,2.834000,2.416373,-1.477374
1350,3885545753,-0.945110,-0.205187,-0.024374,0.253136,3.029206,1.740403,-0.874938
1351,3885579087,-0.943134,-0.204469,-0.013548,0.261750,2.940304,0.766802,-0.375371
1352,3885612421,-0.941299,-0.202042,-0.002793,0.270433,2.990450,0.415777,0.426223
1353,3885645755,-0.940227,-0.197640,0.005071,0.277295,2.935547,0.129031,1.226477
1354,3885679089,-0.940390,-0.192064,0.009385,0.280528,2.234775,-0.888569,0.840225
1355,3885712423,-0.940680,-0.188210,0.010893,0.282109,2.108166,-0.408108,1.407866
1356,3885745757,-0.941118,-0.186899,0.010739,0.281524,1.466971,-1.101811,1.431056
1357,3885779091,-0.941227,-0.188483,0.010717,0.280102,1.512488,-0.390928,1.549461
1358,3885812425,-0.942198,-0.186004,0.008166,0.278576,1.895465,0.189601,1.660973
1359,3885845759,-0.944235,-0.178742,0.002079,0.276538,1.198216,-0.476538,0.946799
1360,3885879093,-0.945810,-0.170300,-0.007236,0.276395,0.983755,-0.452337,0.661394
1361,3885912427,-0.945675,-0.168942,-0.015811,0.277334,0.840226,-0.778907,0.951181
1362,3885945761,-0.946234,-0.165483,-0.026414,0.276702,1.158966,-0.172090,1.255620
1363,3885979095,-0.947140,-0.159462,-0.038760,0.275684,0.801652,-0.625914,0.453727
1364,3886012429,-0.946667,-0.158101,-0.049751,0.276327,0.787529,0.273617,0.067281
1365,3886045763,-0.944846,-0.160629,-0.058686,0.279332,0.703087,0.225399,-0.322414
1366,3886079097,-0.942240,-0.164802,-0.065655,0.284110,0.833829,0.337454,-0.722726
1367,3886112431,-0.939166,-0.169220,-0.070978,0.290343,0.698500,0.697387,-0.618444
1368,3886145765,-0.935616,-0.172668,-0.074722,0.298716,0.353982,0.707152,-1.022383
1369,3886179099,-0.931687,-0.173860,-0.077552,0.309392,0.036242,0.837821,-1.154522
1370,3886212433,-0.927162,-0.173705,-0.079286,0.322361,-0.317694,0.795073,-1.166922
1371,3886245767,-0.922121,-0.174044,-0.079206,0.336353,-0.744662,0.782042,-0.881148
1372,3886279101,-0.916770,-0.174961,-0.077114,0.350687,-1.221224,0.850777,-0.833085
1373,3886312435,-0.911264,-0.176700,-0.073273,0.364708,-1.393328,0.967204,-0.473686
1374,3886345769,-0.905674,-0.178339,-0.068638,0.378475,-1.382595,0.893612,-0.418436
1375,3886379103,-0.900333,-0.178819,-0.064158,0.391554,-1.554295,0.786906,-0.292718
1376,3886412437,-0.895661,-0.176266,-0.061093,0.403726,-1.773045,0.572336,-0.267629
1377,3886445771,-0.891751,-0.171043,-0.059303,0.414744,-1.972887,0.603503,-0.299450
1378,3886479105,-0.888112,-0.164762,-0.057484,0.425220,-2.123463,0.319775,-0.169334
1379,3886512439,-0.884791,-0.157730,-0.056432,0.434842,-2.099834,0.173258,-0.083060
1380,3886545773,-0.882416,-0.148633,-0.057201,0.442702,-2.159984,-0.257472,0.134315
1381,3886579107,-0.881493,-0.137415,-0.059601,0.447818,-2.275774,-0.781922,0.201014
1382,3886612441,-0.881738,-0.126954,-0.062808,0.449979,-2.460835,-0.932537,0.204428
1383,3886645775,-0.883419,-0.117206,-0.066851,0.448742,-2.305292,-0.929624,0.220613
1384,3886679109,-0.886574,-0.107874,-0.071652,0.444097,-1.889531,-1.003677,0.287796
1385,3886712443,-0.891090,-0.099212,-0.076440,0.436209,-1.700498,-1.024711,0.003642
1386,3886745777,-0.896606,-0.092068,-0.079749,0.425754,-1.677406,-1.233098,-0.088408
1387,3886779111,-0.902593,-0.088796,-0.080195,0.413541,-1.486044,-1.290861,-0.424252
1388,3886812445,-0.908122,-0.090218,-0.077044,0.401555,-0.490726,-0.789807,-0.515199
1389,3886845779,-0.912618,-0.095838,-0.070291,0.391164,0.033595,-0.817795,-0.475402
1390,3886879113,-0.916056,-0.103906,-0.061365,0.382473,0.566005,-0.420166,-0.374486
1391,3886912447,-0.918622,-0.110387,-0.051151,0.375948,0.959580,0.027455,-0.405863
1392,3886945781,-0.920714,-0.114236,-0.041093,0.370881,1.610432,0.437281,-0.516963
1393,3886979115,-0.922894,-0.113140,-0.032301,0.366646,1.915041,0.599228,-0.667523
1394,3887012449,-0.924665,-0.111267,-0.024255,0.363362,1.786454,-0.426075,-0.135885
1395,3887045783,-0.924925,-0.114893,-0.017473,0.361959,2.586636,0.289486,1.035830
1396,3887079117,-0.924822,-0.118593,-0.014177,0.361171,2.995112,0.213434,1.890287
1397,3887112451,-0.926296,-0.114565,-0.015249,0.358643,1.899004,-0.141214,1.947432
1398,3887145785,-0.928098,-0.112059,-0.016107,0.354716,1.513788,-0.385481,1.936717
1399,3887179119,-0.929341,-0.111622,-0.017704,0.351509,2.425429,0.667512,1.920454
1400,3887212453,-0.930311,-0.110968,-0.021106,0.348953,1.710969,0.069016,1.115688
1401,3887245787,-0.930192,-0.112679,-0.025260,0.348445,1.978880,0.492431,0.593024
1402,3887279121,-0.929936,-0.112484,-0.032278,0.348612,2.306124,0.566066,0.332650
1403,3887312455,-0.929985,-0.106811,-0.043269,0.349074,2.328502,0.485885,0.349095
1404,3887345789,-0.930698,-0.094860,-0.057925,0.348501,1.361833,-1.068708,0.131138
1405,3887379123,-0.930777,-0.088036,-0.071145,0.347632,1.671553,-0.615243,-0.508780
1406,3887412457,-0.932106,-0.076815,-0.085346,0.343512,1.292744,-0.555312,-1.370747
1407,3887445791,-0.933086,-0.065539,-0.097878,0.339824,0.664306,-0.655201,-1.983800
1408,3887479125,-0.932569,-0.059513,-0.105611,0.340036,0.884717,0.101433,-2.681715
1409,3887512459,-0.930694,-0.056230,-0.108246,0.344870,0.418320,0.839526,-2.621339
1410,3887545793,-0.927166,-0.054335,-0.105601,0.355337,0.823542,0.628639,-2.812572
1411,3887579127,-0.921783,-0.052566,-0.098662,0.371247,1.043189,0.940188,-3.129107
1412,3887612461,-0.914765,-0.048066,-0.089383,0.391038,0.942621,0.782021,-2.979863
1413,3887645795,-0.905569,-0.039705,-0.079141,0.414863,1.071371,0.552661,-2.703509
1414,3887679129,-0.893127,-0.027551,-0.068397,0.443727,1.595585,0.027451,-3.159698
1415,3887712463,-0.877066,-0.009784,-0.058111,0.476749,1.463339,-0.370008,-3.182618
1416,3887745797,-0.857026,0.014046,-0.048600,0.512790,1.161488,-1.181118,-2.271949
1417,3887779131,-0.832206,0.040638,-0.036667,0.551763,0.305904,-1.795302,-2.064778
1418,3887812465,-0.802877,0.069599,-0.021322,0.591689,0.011962,-2.688687,-1.596700
1419,3887845799,-0.770067,0.098845,-0.000541,0.630263,-1.433742,-2.601111,-0.284379
1420,3887879133,-0.735229,0.121384,0.030580,0.666165,-2.518569,-2.985376,0.889370
1421,3887912467,-0.700620,0.136000,0.071028,0.696848,-2.798661,-2.485206,1.337372
1422,3887945801,-0.668081,0.146892,0.114019,0.720483,-4.168142,-1.610147,2.126561
1423,3887979135,-0.639365,0.155262,0.157677,0.736377,-4.336515,-0.261334,2.696414
1424,3888012469,-0.615508,0.159084,0.205024,0.744186,-4.751741,1.082685,3.281997
1425,3888045803,-0.596262,0.159023,0.254479,0.744600,-4.538376,1.766974,2.823253
1426,3888079137,-0.582409,0.155396,0.303393,0.737977,-4.004863,2.085326,2.608091
1427,3888112471,-0.572643,0.151764,0.344398,0.728316,-1.559518,2.255678,3.093143
1428,3888145805,-0.565115,0.154858,0.368114,0.721915,-1.133128,2.551137,3.556882
1429,3888179139,-0.562029,0.162016,0.375627,0.718877,-2.902845,3.688879,4.058479
1430,3888212473,-0.564476,0.167392,0.373274,0.716952,-2.822818,3.750250,4.194124
1431,3888245807,-0.573814,0.168380,0.364490,0.713820,-3.355525,3.622740,4.170005
1432,3888279141,-0.590274,0.164815,0.349596,0.708661,-3.074449,2.978834,4.419735
1433,3888312475,-0.613196,0.159322,0.326255,0.701549,-3.315366,2.173190,4.151230
1434,3888345809,-0.641416,0.151237,0.296732,0.691136,-3.290254,1.295355,4.009171
1435,3888379143,-0.673628,0.139387,0.263695,0.676215,-3.129911,0.342127,3.319611
1436,3888412477,-0.707647,0.124688,0.229370,0.656570,-2.762803,-0.208355,2.648359
1437,3888445811,-0.741917,0.106719,0.195627,0.632381,-2.687847,-0.790555,2.118706
1438,3888479145,-0.774985,0.085203,0.163687,0.604442,-2.738036,-1.272469,1.916709
1439,3888512479,-0.805816,0.060879,0.133334,0.573744,-2.163050,-1.835433,1.289288
1440,3888545813,-0.834314,0.039254,0.101453,0.540455,-2.112997,-2.166553,0.411815
1441,3888579147,-0.860554,0.023559,0.068162,0.504234,-1.691989,-2.390441,0.096674
1442,3888612481,-0.883995,0.010559,0.037005,0.465917,-1.789757,-2.589390,-0.088681
1443,3888645815,-0.904236,-0.005982,0.011403,0.426846,-1.076311,-2.514757,-0.392297
1444,3888679149,-0.921414,-0.024954,-0.010222,0.387652,-0.244914,-2.404196,-0.561724
1445,3888712483,-0.935697,-0.043627,-0.029341,0.348874,0.620123,-2.096217,-0.931777
1446,3888745817,-0.947109,-0.060133,-0.046643,0.311768,0.791592,-1.321862,-1.707448
1447,3888779151,-0.955563,-0.074432,-0.061081,0.278630,0.660253,-0.797654,-2.386842
1448,3888812485,-0.961327,-0.088410,-0.071053,0.250980,1.046109,-0.193281,-2.687032
1449,3888845819,-0.964761,-0.102112,-0.076455,0.230154,0.933619,0.132766,-2.787995
1450,3888879153,-0.966232,-0.116100,-0.075966,0.217146,0.876493,0.726671,-2.944226
1451,3888912487,-0.966432,-0.128144,-0.070817,0.211139,1.563321,1.407134,-3.171056
1452,3888945821,-0.965559,-0.140823,-0.062387,0.209709,1.755655,1.454732,-2.828437
1453,3888979155,-0.964000,-0.152700,-0.051216,0.211590,2.404305,1.221158,-2.783203
1454,3889012489,-0.961605,-0.163541,-0.039312,0.216866,3.115133,1.552202,-2.162841
1455,3889045823,-0.958393,-0.173709,-0.026923,0.224921,3.336477,1.229154,-1.657022
1456,3889079157,-0.954555,-0.182591,-0.015133,0.235078,3.566814,1.490902,-0.951512
1457,3889112491,-0.951305,-0.186372,-0.005024,0.245490,3.297015,1.838051,-0.873725
1458,3889145825,-0.949345,-0.184607,0.003947,0.254274,3.345961,1.406996,-0.041780
1459,3889179159,-0.947780,-0.182687,0.011429,0.261178,3.199700,0.310160,0.623481
1460,3889212493,-0.947561,-0.178577,0.015892,0.264559,3.382718,0.699234,2.013711
1461,3889245827,-0.949672,-0.164171,0.015421,0.266343,2.619421,0.211217,1.847959
