sep=,
DeviceTag:,D_Wrist
FirmwareVersion:,2.2.1
AppVersion:,2023.6.0
SyncStatus:,Synced
OutputRate:,30Hz
FilterProfile:,General
Measurement Mode:,Sensor fusion Mode - Complete(Quaternion)
StartTime: ,2026-09-07_16:57:39_799 AEST
© Movella Technologies B. V. 2005-2026

PacketCounter,SampleTimeFine,Quat_W,Quat_X,Quat_Y,Quat_Z,FreeAcc_X,FreeAcc_Y,FreeAcc_Z
1,2857395160,-0.111535,0.482446,0.004687,0.868785,0.394464,-0.264452,0.020532
2,2857428494,-0.117726,0.477010,0.005715,0.870961,0.272363,-0.113169,-0.007044
3,2857461828,-0.123513,0.472110,0.007269,0.872816,0.360509,0.107164,0.145614
4,2857495162,-0.128089,0.467955,0.007633,0.874389,0.476913,0.491484,0.084960
5,2857528496,-0.131751,0.464763,0.007052,0.875552,0.449545,-0.035293,0.058702
6,2857561830,-0.134945,0.462116,0.005761,0.876475,0.436162,0.089240,0.117732
7,2857595164,-0.138600,0.459502,0.005651,0.877279,0.117064,-0.871937,-0.159405
8,2857628498,-0.142177,0.456805,0.005849,0.878114,0.474756,-0.469938,0.128457
9,2857661832,-0.143486,0.453580,0.005438,0.879574,1.084932,-0.160934,0.253743
10,2857695166,-0.141674,0.450633,0.004403,0.881387,0.845823,0.034217,0.172412
11,2857728500,-0.137280,0.449264,0.003605,0.882783,0.692090,-0.012982,0.285783
12,2857761834,-0.132014,0.448772,0.004161,0.883834,0.854111,-0.247523,0.116276
13,2857795168,-0.128579,0.448901,0.006471,0.884261,0.790111,-0.314096,-0.061643
14,2857828502,-0.126985,0.448749,0.010754,0.884526,0.941326,-0.810695,0.402028
15,2857861836,-0.125449,0.449161,0.014199,0.884488,0.349032,0.357385,-0.060504
16,2857895170,-0.123285,0.449090,0.019594,0.884725,0.555133,-0.821531,0.049284
17,2857928504,-0.116771,0.448692,0.022209,0.885748,0.414317,-0.153868,0.243620
18,2857961838,-0.108189,0.449136,0.025660,0.886519,-0.094987,0.732544,-0.355392
19,2857995172,-0.098757,0.449872,0.032482,0.887023,0.041170,0.261302,-0.139618
20,2858028506,-0.086418,0.451937,0.037247,0.887075,-0.831977,1.094105,-0.255776
21,2858061840,-0.074310,0.456459,0.044191,0.885536,0.087536,0.384419,0.621422
22,2858095174,-0.061719,0.462812,0.050302,0.882875,0.613602,0.171663,0.840481
23,2858128508,-0.050076,0.471720,0.055524,0.878575,-0.069302,-0.013307,0.068415
24,2858161842,-0.041907,0.481163,0.063866,0.873299,0.552357,-0.239619,0.397192
25,2858195176,-0.039141,0.489346,0.077388,0.867769,-0.358376,-0.247707,-0.439529
26,2858228510,-0.037014,0.497037,0.088108,0.862453,-0.983865,0.050543,-0.292809
27,2858261844,-0.033063,0.503555,0.094413,0.858154,-1.150059,-0.217553,-0.417980
28,2858295178,-0.027434,0.508605,0.095369,0.855264,-0.465022,-0.090316,-0.450626
29,2858328512,-0.022623,0.511936,0.096082,0.853335,0.203391,-0.768603,-0.349248
30,2858361846,-0.019683,0.514030,0.097579,0.851979,0.169745,0.189501,0.515102
31,2858395180,-0.015636,0.514798,0.096761,0.851692,0.166226,0.101680,0.378717
32,2858428514,-0.010843,0.514241,0.093871,0.852426,0.946134,-0.248796,0.254196
33,2858461848,-0.006262,0.512939,0.091793,0.853482,0.196461,-0.164569,-0.181302
34,2858495182,-0.001574,0.511471,0.090097,0.854565,0.724823,0.630548,0.681500
35,2858528516,0.002488,0.510227,0.090368,0.855277,0.416472,-0.177708,0.125701
36,2858561850,0.005367,0.509070,0.092025,0.855776,0.960262,-0.188340,0.452012
37,2858595184,0.007195,0.507588,0.094893,0.856330,0.226421,-0.336427,-0.131733
38,2858628518,0.008546,0.506421,0.097161,0.856755,0.456078,-0.316354,0.377289
39,2858661852,0.010389,0.504273,0.096455,0.858080,0.054726,-0.601683,-0.492076
40,2858695186,0.010687,0.501503,0.095147,0.859844,0.594058,-0.619067,0.124552
41,2858728520,0.009685,0.498437,0.094084,0.861753,0.262644,-0.139894,-0.481720
42,2858761854,0.007777,0.494746,0.093085,0.864005,0.803552,-0.314422,0.362611
43,2858795188,0.004989,0.490458,0.091791,0.866605,0.572595,0.018994,0.014071
44,2858828522,0.001250,0.485103,0.090574,0.869754,1.297525,0.028955,0.523087
45,2858861856,-0.002162,0.478530,0.088878,0.873561,0.671801,0.070848,0.186579
46,2858895190,-0.006001,0.472019,0.085720,0.877392,0.132228,0.678919,0.050133
47,2858928524,-0.008971,0.464737,0.079978,0.881786,0.094937,-0.223652,0.256232
48,2858961858,-0.010391,0.459069,0.071890,0.885428,-0.447210,0.747643,-0.108368
49,2858995192,-0.012801,0.457676,0.066233,0.886558,-0.616514,-0.025594,1.004128
50,2859028526,-0.017934,0.458458,0.065208,0.886141,-0.690187,0.958977,0.493587
51,2859061860,-0.026475,0.459978,0.070089,0.884766,0.358300,-0.321138,0.740428
52,2859095194,-0.036113,0.460148,0.076997,0.883762,-0.319629,-0.507879,-0.608976
53,2859128528,-0.045544,0.459984,0.081170,0.883038,-1.139650,0.287516,0.140762
54,2859161862,-0.050721,0.458523,0.079302,0.883685,-1.598250,0.629519,-0.226460
55,2859195196,-0.053055,0.458007,0.075003,0.884190,-0.514431,0.196109,0.101719
56,2859228530,-0.053541,0.457779,0.072066,0.884524,0.705478,-0.345277,0.315032
57,2859261864,-0.055642,0.458066,0.070516,0.884370,0.397321,1.304482,0.026146
58,2859295198,-0.057594,0.458193,0.070048,0.884216,0.237441,0.183100,0.266917
59,2859328532,-0.058531,0.458169,0.069070,0.884244,-0.005013,0.443169,-0.113401
60,2859361866,-0.058359,0.457695,0.068567,0.884540,0.091323,0.298065,-0.057735
61,2859395200,-0.057867,0.457493,0.069307,0.884619,0.067507,0.117735,-0.091522
62,2859428534,-0.056843,0.455758,0.069655,0.885554,0.488526,-0.602135,0.422250
63,2859461868,-0.057450,0.454536,0.072509,0.885913,-0.271715,0.102347,-0.171971
64,2859495202,-0.057948,0.451694,0.074742,0.887148,0.397704,0.176409,0.415852
65,2859528536,-0.059785,0.447101,0.077142,0.889145,0.161721,-0.022928,-0.185241
66,2859561870,-0.061888,0.442439,0.077607,0.891290,0.667319,-1.563478,1.136895
67,2859595204,-0.068682,0.440050,0.085662,0.891237,-0.756485,1.261695,1.034376
68,2859628538,-0.076025,0.440156,0.095791,0.889556,-0.154912,-0.241468,1.335930
69,2859661872,-0.080888,0.441918,0.105076,0.887203,0.736199,1.006686,0.318872
70,2859695206,-0.086313,0.446354,0.118890,0.882716,0.319301,0.934267,-0.702691
71,2859728540,-0.085244,0.453791,0.128596,0.877652,0.556331,1.795442,-0.151891
72,2859761874,-0.079003,0.461844,0.134590,0.873125,-0.195351,0.529766,-0.707882
73,2859795208,-0.072306,0.468150,0.139384,0.869588,-0.393825,0.253662,0.539366
74,2859828542,-0.065310,0.471984,0.143143,0.867455,-0.895086,-0.144310,0.397491
75,2859861876,-0.060219,0.476088,0.149456,0.864512,-0.849161,0.019613,0.404847
76,2859895210,-0.054898,0.478829,0.152919,0.862744,-0.753272,0.072206,0.286006
77,2859928544,-0.050298,0.481612,0.152024,0.861633,-1.676798,-0.210828,-0.321160
78,2859961878,-0.049029,0.484117,0.148589,0.860902,-0.558891,0.914488,1.066598
79,2859995212,-0.048703,0.484063,0.141622,0.862124,0.534040,0.283668,0.827519
80,2860028546,-0.050393,0.482335,0.134351,0.864157,0.961356,-1.011018,0.099247
81,2860061880,-0.051722,0.479764,0.127718,0.866512,0.533753,-0.796603,-0.888907
82,2860095214,-0.051774,0.477664,0.121451,0.868567,1.088039,-0.749642,-0.651483
83,2860128548,-0.051818,0.475143,0.116783,0.870585,0.839527,-0.915864,-0.537883
84,2860161882,-0.054158,0.472051,0.112668,0.872665,0.739434,0.402860,-0.040201
85,2860195216,-0.059649,0.468204,0.109183,0.874820,-0.135594,-0.243064,-0.388732
86,2860228550,-0.064649,0.464079,0.103022,0.877406,3.110102,-5.435863,1.479658
87,2860261884,-0.057473,0.454802,0.081851,0.884961,1.739907,1.226256,-1.474411
88,2860295218,-0.065931,0.449431,0.079237,0.887350,-0.565665,-0.162810,-2.378218
89,2860328552,-0.071630,0.444221,0.068067,0.890453,-0.495260,-0.483088,-0.309789
90,2860361886,-0.076467,0.441224,0.053358,0.892542,-0.811635,0.666383,0.979731
91,2860395220,-0.084206,0.440694,0.041313,0.892746,-0.167928,1.797026,2.151213
92,2860428554,-0.095145,0.441302,0.034248,0.891645,0.640944,2.647455,2.197932
93,2860461888,-0.105614,0.442110,0.033160,0.890106,-0.736977,1.424493,-0.264635
94,2860495222,-0.116581,0.443155,0.039097,0.887974,-1.063841,0.123534,0.190818
95,2860528556,-0.124080,0.444742,0.039211,0.886157,-2.575304,1.198689,-0.513263
96,2860561890,-0.122081,0.445740,0.026260,0.886412,-0.733294,-0.625558,0.656221
97,2860595224,-0.115138,0.445909,0.009890,0.887589,0.340905,0.954831,0.307372
98,2860628558,-0.106890,0.445924,-0.003290,0.888661,0.792257,0.209349,-0.636168
99,2860661892,-0.103100,0.445534,-0.005081,0.889296,0.643016,-0.599781,-1.021937
100,2860695226,-0.104327,0.444668,0.002438,0.889598,-0.447607,-1.023952,-0.775463
101,2860728560,-0.106626,0.443880,0.009593,0.889670,-0.847580,-0.540068,0.162416
102,2860761894,-0.106484,0.442586,0.013266,0.890284,-0.140275,-0.218306,-0.261017
103,2860795228,-0.102034,0.440601,0.014807,0.891765,0.128227,0.781270,0.275481
104,2860828562,-0.096316,0.438543,0.016154,0.893390,-0.136249,1.168892,-0.071488
105,2860861896,-0.089365,0.436805,0.016891,0.894949,0.577879,2.000359,0.942203
106,2860895230,-0.081658,0.435042,0.020446,0.896469,-0.511079,-0.844081,0.336716
107,2860928564,-0.073087,0.434309,0.022463,0.897515,0.317029,0.954868,1.259964
108,2860961898,-0.064148,0.433032,0.025156,0.898743,0.395834,1.442496,0.449938
109,2860995232,-0.053586,0.432273,0.029234,0.899676,-0.702358,-0.516931,-0.710704
110,2861028566,-0.040321,0.434748,0.030570,0.899131,-1.144333,0.818045,1.061267
111,2861061900,-0.026943,0.440041,0.025862,0.897202,0.272040,1.897601,0.974125
112,2861095234,-0.016565,0.444162,0.024052,0.895472,1.341251,-1.095391,-0.181947
113,2861128568,-0.011353,0.446654,0.032932,0.894030,-0.054187,-1.286980,-1.155905
114,2861161902,-0.011261,0.449749,0.047932,0.891799,-1.297270,-1.298684,-0.661977
115,2861195236,-0.013116,0.452666,0.062627,0.889383,-1.606275,-0.446935,0.016553
116,2861228570,-0.014103,0.454475,0.072444,0.887699,-0.758673,-0.159735,0.047965
117,2861261904,-0.012988,0.455980,0.077259,0.886537,-0.829302,0.037998,-1.356157
118,2861295238,-0.014933,0.459190,0.081817,0.884438,0.454538,0.999477,-0.559468
119,2861328572,-0.022645,0.462606,0.094690,0.881204,0.206459,-1.017826,0.337705
120,2861361906,-0.034240,0.465967,0.107054,0.877636,0.718909,-1.945923,0.377041
121,2861395240,-0.043686,0.466891,0.114869,0.875735,0.917463,-2.473061,0.674972
122,2861428574,-0.050565,0.466834,0.116073,0.875237,-0.327447,-0.318218,-0.104800
123,2861461908,-0.054732,0.465243,0.112940,0.876243,-0.106316,-0.710117,-0.798607
124,2861495242,-0.060622,0.463260,0.111632,0.877073,0.094681,0.160993,-0.781556
125,2861528576,-0.069082,0.459996,0.115478,0.877667,0.117354,-0.843767,-0.731794
126,2861561910,-0.079176,0.456829,0.118476,0.878069,-0.061769,0.943944,0.384149
127,2861595244,-0.090126,0.452427,0.118436,0.879297,-0.043080,-0.323776,-0.743921
128,2861628578,-0.098576,0.448024,0.113640,0.881276,0.087963,0.227425,0.079486
129,2861661912,-0.106400,0.443804,0.106178,0.883429,0.191702,-0.565868,0.154031
130,2861695246,-0.112249,0.440351,0.097482,0.885433,-0.416286,0.145195,0.514038
131,2861728580,-0.116531,0.438481,0.085867,0.887009,-0.784036,0.584594,1.408394
132,2861761914,-0.118248,0.439885,0.067631,0.887664,-1.021312,1.476307,3.096027
133,2861795248,-0.118631,0.442164,0.048530,0.887731,0.793591,0.356039,1.720740
134,2861828582,-0.122863,0.442198,0.040421,0.887544,0.911745,-0.492183,-0.773686
135,2861861916,-0.131701,0.441331,0.044670,0.886504,-0.801426,-1.358493,-1.556560
136,2861895250,-0.136184,0.439608,0.047722,0.886524,-0.838574,-2.220186,-0.511065
137,2861928584,-0.133573,0.438203,0.042326,0.887890,-1.947067,0.280735,0.095850
138,2861961918,-0.126481,0.438202,0.033444,0.889307,-1.835729,0.374741,0.919967
139,2861995252,-0.118425,0.439847,0.024928,0.889884,0.103619,2.316170,0.932487
140,2862028586,-0.115412,0.441308,0.024531,0.889567,1.570181,1.962927,0.047403
141,2862061920,-0.114360,0.443014,0.026372,0.888802,1.162621,-0.087733,-0.149414
142,2862095254,-0.111566,0.444521,0.028087,0.888352,-0.168450,-1.121813,-0.411687
143,2862128588,-0.108234,0.446296,0.028893,0.887848,-0.332138,-0.300191,-0.014626
144,2862161922,-0.104782,0.448221,0.030426,0.887241,-0.186745,0.078248,-0.045317
145,2862195256,-0.101383,0.450189,0.030194,0.886647,0.209156,0.398539,-0.138718
146,2862228590,-0.097201,0.452307,0.026560,0.886154,0.883193,0.895268,0.171360
147,2862261924,-0.093456,0.454462,0.025932,0.885472,-0.082057,-1.075495,-0.266631
148,2862295258,-0.088684,0.457754,0.022681,0.884356,0.513147,-0.303703,0.755535
149,2862328592,-0.081361,0.461359,0.015819,0.883336,-0.401197,-0.088697,0.030403
150,2862361926,-0.072723,0.465508,0.007107,0.882024,0.090454,-0.142300,0.781198
151,2862395260,-0.063970,0.470066,0.001656,0.880310,0.019708,0.809072,0.864262
152,2862428594,-0.052797,0.473592,-0.003484,0.879155,-0.403634,-0.570632,0.210551
153,2862461928,-0.038708,0.477747,-0.010021,0.877589,-0.982555,-0.518162,0.422274
154,2862495262,-0.021274,0.482613,-0.021734,0.875307,-0.342064,1.678698,0.399601
155,2862528596,-0.000250,0.487904,-0.036411,0.872140,0.419564,1.397059,0.646124
156,2862561930,0.018673,0.493388,-0.047881,0.868292,1.576379,0.837850,-0.036249
157,2862595264,0.030589,0.496937,-0.047651,0.865939,1.356584,-1.706333,-0.241284
158,2862628598,0.037955,0.498773,-0.040279,0.864966,-0.298675,-2.135454,-0.578519
159,2862661932,0.041813,0.499427,-0.034531,0.864659,-0.150755,0.136346,-0.739923
160,2862695266,0.043887,0.498706,-0.028558,0.865190,0.457153,-0.821477,0.722661
161,2862728600,0.048920,0.498160,-0.024822,0.865350,-0.991270,0.355279,-0.177603
162,2862761934,0.056554,0.496976,-0.021279,0.865660,-0.202312,-0.627413,0.032217
163,2862795268,0.065396,0.496370,-0.021185,0.865387,-0.678645,0.233136,-0.920623
164,2862828602,0.071286,0.496303,-0.021707,0.864947,-0.266217,-1.211292,-0.001019
165,2862861936,0.075305,0.496137,-0.022561,0.864680,-0.694923,-1.277941,-0.318494
166,2862895270,0.080759,0.494257,-0.031640,0.864980,-1.237441,-0.895536,-0.265816
167,2862928604,0.088796,0.490266,-0.051629,0.865501,0.274691,-0.452585,-0.686127
168,2862961938,0.093254,0.486825,-0.067371,0.865893,0.762028,0.091304,0.425629
169,2862995272,0.095223,0.483251,-0.079090,0.866689,-0.060828,-0.144964,-0.170564
170,2863028606,0.095874,0.479614,-0.088699,0.867707,-0.187776,-0.302411,0.018365
171,2863061940,0.094788,0.475405,-0.098400,0.869095,0.226460,0.608095,-0.235765
172,2863095274,0.092508,0.470468,-0.105755,0.871161,0.240676,0.442603,-0.082341
173,2863128608,0.090780,0.465146,-0.113363,0.873242,-0.440690,0.513101,0.023534
174,2863161942,0.090842,0.459013,-0.122302,0.875271,0.054289,-0.359330,0.397803
175,2863195276,0.091449,0.453898,-0.131153,0.876593,0.718427,1.079759,1.231797
176,2863228610,0.093006,0.450777,-0.139725,0.876715,1.660818,0.790243,2.302279
177,2863261944,0.093741,0.449922,-0.146389,0.875989,0.830589,0.117711,0.974185
178,2863295278,0.090872,0.451797,-0.147786,0.875091,-0.206524,-0.491259,0.613217
179,2863328612,0.084553,0.453868,-0.142718,0.875494,-0.795393,-0.696325,-1.121420
180,2863361946,0.077907,0.455732,-0.133954,0.876526,-0.658110,0.375365,-0.480536
181,2863395280,0.075251,0.455512,-0.129782,0.877500,-0.613297,1.338660,-0.149253
182,2863428614,0.078067,0.453801,-0.130481,0.878036,0.409996,0.813164,-0.765125
183,2863461948,0.082915,0.452775,-0.128820,0.878367,0.598860,1.264281,1.037495
184,2863495282,0.087306,0.452689,-0.126366,0.878342,-0.135388,0.833969,0.278461
185,2863528616,0.089064,0.453514,-0.119772,0.878664,-0.035432,-1.347189,-0.082051
186,2863561950,0.091103,0.454592,-0.113414,0.878742,-1.113467,-1.136340,0.351072
187,2863595284,0.093552,0.454849,-0.109684,0.878825,-0.521468,-0.364684,0.186332
188,2863628618,0.096822,0.455030,-0.106334,0.878789,-0.096378,0.130139,0.155650
189,2863661952,0.100950,0.454430,-0.105003,0.878795,0.120539,-0.019588,-0.405087
190,2863695286,0.107072,0.453500,-0.104376,0.878625,0.065387,-0.555776,-0.116337
191,2863728620,0.113246,0.453541,-0.104830,0.877776,1.073455,0.789923,0.822937
192,2863761954,0.119427,0.453756,-0.102841,0.877080,0.802770,-0.690976,0.631724
193,2863795288,0.125295,0.454586,-0.099612,0.876204,-0.049819,-0.031741,0.077327
194,2863828622,0.131554,0.455588,-0.096061,0.875162,-1.018363,-1.065025,0.440852
195,2863861956,0.140633,0.455432,-0.098084,0.873606,-0.783878,0.384343,-0.261371
196,2863895290,0.148268,0.455820,-0.099990,0.871923,-0.061522,-0.012423,-0.116997
197,2863928624,0.157565,0.456485,-0.100124,0.869927,-0.047201,0.074931,0.554740
198,2863961958,0.168919,0.457545,-0.102958,0.866904,0.156030,1.676182,-0.067458
199,2863995292,0.178810,0.461766,-0.104432,0.862494,0.920540,1.974704,0.592851
200,2864028626,0.187116,0.468862,-0.102814,0.857082,1.093058,0.163323,1.711830
201,2864061960,0.194036,0.475428,-0.102370,0.851964,-0.728225,-0.641025,0.407514
202,2864095294,0.198797,0.481247,-0.103025,0.847508,-1.177154,-0.278498,-1.343257
203,2864128628,0.198401,0.488290,-0.097305,0.844242,-0.664338,-0.286339,-1.064141
204,2864161962,0.198311,0.493864,-0.089879,0.841841,-0.854341,-0.615245,-0.290267
205,2864195296,0.204066,0.495418,-0.089222,0.839619,-0.563839,0.746827,-0.130152
206,2864228630,0.212722,0.494429,-0.092763,0.837668,0.179062,1.297414,0.141768
207,2864261964,0.221828,0.493246,-0.097177,0.835500,-0.080391,-0.358184,-0.020809
208,2864295298,0.230403,0.493013,-0.101324,0.832820,-0.049678,-0.793222,0.398106
209,2864328632,0.235967,0.493330,-0.105114,0.830602,0.072872,-1.176972,-0.163325
210,2864361966,0.238040,0.493376,-0.108489,0.829548,0.463579,-1.030829,0.313564
211,2864395300,0.238950,0.492055,-0.111715,0.829644,-0.691713,-0.680160,-0.238385
212,2864428634,0.239686,0.489342,-0.117084,0.830295,-0.727114,-1.294657,-0.102337
213,2864461968,0.244115,0.483445,-0.126165,0.831129,-0.056101,0.048136,-0.552111
214,2864495302,0.250370,0.475662,-0.136990,0.832044,0.040477,-0.209334,-0.454097
215,2864528636,0.255627,0.467600,-0.146576,0.833381,1.193873,0.371993,-0.042524
216,2864561970,0.257994,0.459822,-0.153869,0.835662,-0.276915,-0.755120,0.301442
217,2864595304,0.258094,0.451210,-0.163029,0.838584,0.475101,-0.246437,-0.137966
218,2864628638,0.257061,0.443632,-0.170517,0.841450,0.626154,-0.327010,0.640663
219,2864661972,0.256316,0.436867,-0.178005,0.843663,0.023268,0.540410,-0.034576
220,2864695306,0.254907,0.431691,-0.184344,0.845391,0.888939,0.320525,0.723795
221,2864728640,0.253732,0.427392,-0.190431,0.846579,0.569982,0.451958,1.330483
222,2864761974,0.252204,0.424523,-0.196532,0.847084,0.261555,0.220828,0.950702
223,2864795308,0.249427,0.424026,-0.201072,0.847090,0.112679,-0.164740,-0.318718
224,2864828642,0.243843,0.425184,-0.201393,0.848059,-0.735230,0.036866,-0.100709
225,2864861976,0.236249,0.427518,-0.197042,0.850055,-0.502010,0.582618,-0.419141
226,2864895310,0.227622,0.429353,-0.191772,0.852685,-0.054604,1.234032,0.134622
227,2864928644,0.222818,0.429030,-0.189429,0.854638,-0.036281,1.631021,-0.193926
228,2864961978,0.221888,0.428722,-0.185996,0.855788,0.684165,1.563745,0.207053
229,2864995312,0.224137,0.429488,-0.180391,0.856017,0.559528,0.869205,-0.117693
230,2865028646,0.225239,0.432061,-0.172447,0.856070,0.694815,0.761560,0.289833
231,2865061980,0.223443,0.436027,-0.160995,0.856760,-0.766459,-0.784882,-0.524243
232,2865095314,0.219318,0.439211,-0.149612,0.858262,0.277871,-1.011814,0.314364
233,2865128648,0.216294,0.440238,-0.140773,0.859996,-0.644154,-0.833878,-0.160533
234,2865161982,0.214340,0.439569,-0.133876,0.861927,-0.350142,-0.994906,-0.036001
235,2865195316,0.214328,0.437844,-0.131646,0.863150,0.334363,0.031614,0.638192
236,2865228650,0.216708,0.434620,-0.133207,0.863946,1.095092,0.125978,0.664672
237,2865261984,0.221459,0.431230,-0.135645,0.864061,-0.334526,-0.288785,0.163958
238,2865295318,0.225649,0.429420,-0.139004,0.863343,0.103882,0.185577,-0.638130
239,2865328652,0.228524,0.429209,-0.140073,0.862520,0.674024,-0.432927,0.091697
240,2865361986,0.230836,0.430854,-0.138430,0.861348,0.141377,-0.276436,0.832896
241,2865395320,0.233699,0.432615,-0.139278,0.859554,1.068081,0.471259,0.432271
242,2865428654,0.237555,0.434720,-0.137676,0.857692,-0.236319,-0.389392,0.786393
243,2865461988,0.243045,0.436569,-0.138669,0.855050,-0.303554,0.164488,0.069834
244,2865495322,0.251107,0.437650,-0.141785,0.851650,0.719968,-0.284596,0.424835
245,2865528656,0.261305,0.439170,-0.147314,0.846848,1.025510,1.162987,1.164942
246,2865561990,0.270696,0.442156,-0.153019,0.841315,0.249503,0.485739,-0.210229
247,2865595324,0.276544,0.446501,-0.154165,0.836897,0.174755,-0.705069,-0.591311
248,2865628658,0.281274,0.450854,-0.154857,0.832850,-0.863172,0.114150,-0.791101
249,2865661992,0.285323,0.453505,-0.156361,0.829746,-0.729689,0.102257,-0.072145
250,2865695326,0.288700,0.454702,-0.158162,0.827578,-0.807216,0.687278,0.077476
251,2865728660,0.292198,0.455147,-0.160526,0.825649,-0.750329,0.114514,-0.287961
252,2865761994,0.296854,0.454596,-0.164274,0.823552,0.060488,0.327653,-0.025824
253,2865795328,0.300469,0.454973,-0.167370,0.821407,0.471905,-0.442266,0.091888
254,2865828662,0.301702,0.456646,-0.168554,0.819782,0.495345,-0.619505,0.311336
255,2865861996,0.300081,0.459351,-0.167786,0.819023,-0.012552,-0.589134,1.111178
256,2865895330,0.297838,0.461590,-0.167759,0.818589,-0.130615,-0.068491,0.281695
257,2865928664,0.296943,0.462278,-0.169286,0.818211,-0.214678,0.476927,0.067641
258,2865961998,0.297232,0.461746,-0.173512,0.817521,-0.952633,0.171709,0.046793
259,2865995332,0.297936,0.460351,-0.178731,0.816927,0.404399,1.097251,-0.675797
260,2866028666,0.296538,0.458894,-0.183196,0.817266,-0.214887,-0.157827,-0.405550
261,2866062000,0.292519,0.457392,-0.184910,0.819168,0.203162,-0.705242,0.628949
262,2866095334,0.287818,0.453996,-0.188517,0.821896,1.286614,0.129832,-0.235589
263,2866128668,0.282632,0.449715,-0.190649,0.825550,0.596421,-0.713991,0.368349
264,2866162002,0.278421,0.443987,-0.196287,0.828753,0.370684,-0.147562,0.428345
265,2866195336,0.275822,0.437905,-0.203823,0.831036,0.617621,-0.136865,0.217078
266,2866228670,0.273332,0.433621,-0.208924,0.832836,-0.684640,-0.460020,0.754890
267,2866262004,0.272117,0.430644,-0.214988,0.833236,-0.534254,0.380236,0.470634
268,2866295338,0.272162,0.429607,-0.219545,0.832568,0.262477,-0.416154,1.157454
269,2866328672,0.271063,0.429096,-0.222799,0.832325,-0.209059,-0.374193,0.630495
270,2866362006,0.267550,0.429229,-0.223607,0.833176,-0.301098,0.524155,-0.941839
271,2866395340,0.261528,0.430852,-0.218974,0.835478,-0.922675,0.702099,-0.485650
272,2866428674,0.256266,0.432541,-0.213203,0.837726,-0.233925,1.400181,-0.707305
273,2866462008,0.254799,0.432925,-0.209835,0.838824,0.217621,0.888254,-0.068480
274,2866495342,0.257829,0.431479,-0.209535,0.838718,0.294646,1.136250,-0.322741
275,2866528676,0.262844,0.429796,-0.209469,0.838042,0.760786,0.029809,0.033070
276,2866562010,0.266954,0.429388,-0.207942,0.837332,-0.133302,0.427930,0.230666
277,2866595344,0.268873,0.429821,-0.205928,0.836994,0.182767,-0.363989,0.993770
278,2866628678,0.270522,0.430718,-0.203661,0.836556,-1.066318,0.163224,0.048904
279,2866662012,0.271566,0.431191,-0.202264,0.836313,-0.713112,0.152732,0.012730
280,2866695346,0.272614,0.431237,-0.203271,0.835704,1.295785,0.701467,-0.685165
281,2866728680,0.273075,0.431866,-0.201168,0.835737,0.200984,-0.487814,-0.131537
282,2866762014,0.275217,0.432716,-0.199195,0.835067,-0.150851,-0.331162,0.193556
283,2866795348,0.279607,0.433116,-0.197633,0.833772,-0.326812,-1.159018,0.527633
284,2866828682,0.285886,0.431758,-0.198141,0.832225,0.899564,-0.425556,1.125633
285,2866862016,0.294328,0.429155,-0.199795,0.830230,0.414370,-0.090185,0.279657
286,2866895350,0.303548,0.426864,-0.201327,0.827718,0.758317,0.082010,0.050625
287,2866928684,0.313142,0.425952,-0.200997,0.824688,-0.693684,-0.252766,-0.029716
288,2866962018,0.321585,0.426758,-0.199862,0.821291,-0.171633,0.219063,-0.245512
289,2866995352,0.329273,0.428036,-0.198896,0.817807,0.672984,0.002871,-0.085390
290,2867028686,0.335822,0.431829,-0.195600,0.813936,0.686336,0.168299,1.712461
291,2867062020,0.346653,0.434735,-0.196395,0.807632,0.630340,0.761409,1.484632
292,2867095354,0.357401,0.438616,-0.196750,0.800733,0.373603,0.719112,-0.239355
293,2867128688,0.364341,0.446248,-0.190091,0.794977,-1.839296,0.276890,-1.113264
294,2867162022,0.367573,0.453611,-0.184146,0.790709,-1.361707,1.392179,-0.794726
295,2867195356,0.370298,0.457638,-0.180316,0.787996,-0.253044,-0.696252,0.484515
296,2867228690,0.374683,0.458865,-0.180196,0.785231,-0.185382,0.829419,-0.531148
297,2867262024,0.380268,0.458165,-0.182972,0.782308,1.088605,0.335221,-0.194272
298,2867295358,0.383999,0.458519,-0.184573,0.779898,0.073040,0.003407,0.210038
299,2867328692,0.383449,0.461668,-0.183264,0.778618,0.258868,-0.906382,0.402168
300,2867362026,0.380933,0.465668,-0.180316,0.778160,-0.818754,-0.321841,0.116612
301,2867395360,0.378726,0.468348,-0.178916,0.777952,0.380281,-0.411297,0.181545
302,2867428694,0.377395,0.469822,-0.178529,0.777798,-0.051283,-0.443400,0.263862
303,2867462028,0.377631,0.469615,-0.179806,0.777515,1.127077,0.033129,-0.185956
304,2867495362,0.376577,0.469928,-0.179234,0.777969,-0.196002,-0.353764,0.021034
305,2867528696,0.374491,0.469345,-0.179404,0.779288,0.074952,0.176662,-0.473633
306,2867562030,0.372186,0.465925,-0.181505,0.781953,-0.221051,-0.944886,0.293226
307,2867595364,0.371604,0.459523,-0.186372,0.784868,0.524910,0.629559,0.713821
308,2867628698,0.372267,0.450853,-0.192755,0.788034,-0.359673,0.567460,-0.102479
309,2867662032,0.373173,0.441713,-0.198872,0.791255,0.514326,0.262864,-0.563985
310,2867695366,0.371421,0.434795,-0.204085,0.794577,-0.124190,-0.337487,-0.141267
311,2867728700,0.368996,0.428290,-0.209335,0.797867,0.469149,-0.912951,0.182545
312,2867762034,0.365101,0.422577,-0.214301,0.801379,0.693201,0.233087,0.320771
313,2867795368,0.362320,0.416920,-0.220385,0.803950,-0.022277,-0.350037,0.461324
314,2867828702,0.360838,0.413196,-0.226093,0.804954,1.104934,0.592658,0.336534
315,2867862036,0.356795,0.412857,-0.227939,0.806408,-0.156145,0.304061,-0.009197
316,2867895370,0.348365,0.415926,-0.224202,0.809558,0.674515,0.205646,0.751712
317,2867928704,0.338174,0.419415,-0.217041,0.814019,-0.466668,-0.182542,0.107761
318,2867962038,0.331220,0.420608,-0.211306,0.817763,-0.539166,0.207209,-0.275369
319,2867995372,0.329332,0.419084,-0.208157,0.820112,0.974793,0.596579,0.696987
320,2868028706,0.331409,0.416687,-0.207533,0.820654,1.381422,1.994583,0.046534
321,2868062040,0.334752,0.416120,-0.205386,0.820125,0.092388,0.644204,-0.444993
322,2868095374,0.337146,0.416219,-0.203914,0.819462,-0.110623,1.023343,-0.394268
323,2868128708,0.338371,0.416423,-0.202002,0.819326,-0.568068,-0.087871,-0.883013
324,2868162042,0.339475,0.416472,-0.200010,0.819333,-0.462826,0.098865,-0.493800
325,2868195376,0.341182,0.415827,-0.199242,0.819139,-1.024007,-0.257140,0.192528
326,2868228710,0.344623,0.413565,-0.200801,0.818463,-0.500978,-0.149281,0.100902
327,2868262044,0.350080,0.411124,-0.203198,0.816783,-0.792436,-1.165960,0.353616
328,2868295378,0.355655,0.408938,-0.207012,0.814511,1.080369,-0.592765,1.281645
329,2868328712,0.361663,0.405567,-0.210582,0.812634,-0.046084,-0.498713,0.106607
330,2868362046,0.369083,0.402256,-0.215737,0.809586,-0.397767,0.644024,-0.395471
331,2868395380,0.376120,0.400762,-0.219924,0.805953,0.145023,0.381664,0.250743
332,2868428714,0.382362,0.401081,-0.221656,0.802375,0.362728,0.298373,0.334279
333,2868462048,0.389546,0.401025,-0.223528,0.798418,-0.084939,0.181441,-0.057346
334,2868495382,0.396931,0.401764,-0.225486,0.793846,-0.561656,0.155030,-0.155968
335,2868528716,0.403907,0.403802,-0.228105,0.788527,0.412134,0.186596,0.706848
336,2868562050,0.411361,0.405871,-0.232304,0.782361,0.802206,-0.078307,0.897649
337,2868595384,0.417751,0.409193,-0.236007,0.776112,0.746584,0.229610,-0.086874
338,2868628718,0.422705,0.413863,-0.237179,0.770576,-0.363241,0.199334,-0.267586
339,2868662052,0.428130,0.416182,-0.238803,0.765815,-1.552951,0.724779,-0.607467
340,2868695386,0.432337,0.416965,-0.242657,0.761805,-0.617617,0.983539,0.049250
341,2868728720,0.437359,0.415725,-0.248135,0.757841,-0.971510,0.289649,0.307467
342,2868762054,0.443902,0.413594,-0.254055,0.753227,-0.399924,-0.480900,-0.583338
343,2868795388,0.449947,0.412596,-0.257673,0.748946,-0.217128,-0.629768,0.267410
344,2868828722,0.453337,0.413424,-0.257725,0.746423,-0.141501,-0.703236,-0.026586
345,2868862056,0.453540,0.416663,-0.253221,0.746040,-0.272811,-1.310155,0.267272
346,2868895390,0.453935,0.418611,-0.248315,0.746358,-1.081424,-0.588684,-0.066960
347,2868928724,0.454327,0.418775,-0.244578,0.747261,-0.666759,-0.234818,0.894272
348,2868962058,0.454500,0.417498,-0.242151,0.748660,-0.145928,0.148435,-0.223884
349,2868995392,0.452584,0.417313,-0.237459,0.751422,-0.706281,-0.829569,-1.114335
350,2869028726,0.451371,0.417474,-0.232268,0.753681,-0.708294,-0.854415,0.288762
351,2869062060,0.454273,0.411418,-0.233914,0.754758,-0.812252,-0.136642,-0.208028
352,2869095394,0.460160,0.401356,-0.240517,0.754534,-0.452167,0.629390,0.297451
353,2869128728,0.465867,0.390365,-0.247865,0.754420,-0.086391,1.923589,0.087804
354,2869162062,0.469762,0.378705,-0.255721,0.755325,-1.127142,1.372096,0.352263
355,2869195396,0.473978,0.363914,-0.269286,0.755248,0.244330,0.605578,0.774957
356,2869228730,0.478255,0.347531,-0.283736,0.754978,0.940815,-0.182870,0.309568
357,2869262064,0.483201,0.333522,-0.296928,0.753072,0.095619,-0.026549,0.577265
358,2869295398,0.488327,0.323757,-0.309906,0.748785,1.283100,0.742544,0.074361
359,2869328732,0.489615,0.320384,-0.319264,0.745457,1.188214,-0.487167,1.394371
360,2869362066,0.488162,0.319906,-0.324932,0.744165,-0.149020,-0.264178,-0.322728
361,2869395400,0.485538,0.320285,-0.328440,0.744178,-1.539925,0.339943,-0.340596
362,2869428734,0.485107,0.317416,-0.332871,0.743720,-0.362550,1.395512,-0.514964
363,2869462068,0.487913,0.312016,-0.338877,0.741454,0.386373,1.568465,-0.222059
364,2869495402,0.496245,0.305652,-0.344840,0.735803,-1.067304,1.244577,-0.684903
365,2869528736,0.505856,0.300375,-0.348759,0.729558,0.559240,-0.772970,1.490837
366,2869562070,0.514451,0.296827,-0.352085,0.723377,1.541072,-0.019280,-0.766278
367,2869595404,0.520750,0.296778,-0.351670,0.719078,-1.475721,-1.237449,0.909981
368,2869628738,0.527377,0.294075,-0.354486,0.713959,-0.272084,0.382723,0.185555
369,2869662072,0.534698,0.290486,-0.358212,0.708099,1.307067,0.413404,-0.064006
370,2869695406,0.541352,0.287055,-0.360845,0.703088,-0.162442,0.662568,-0.758057
371,2869728740,0.549163,0.283062,-0.364351,0.696812,-0.250534,0.382610,0.173732
372,2869762074,0.558255,0.276471,-0.370369,0.689017,-0.027434,0.650564,0.508598
373,2869795408,0.566909,0.269732,-0.376515,0.681247,-0.645852,0.615472,0.202862
374,2869828742,0.574190,0.264307,-0.381780,0.674311,0.264012,0.052847,0.334819
375,2869862076,0.581523,0.260872,-0.384510,0.667782,-0.231501,-0.386539,1.164371
376,2869895410,0.589300,0.259229,-0.385245,0.661147,0.575224,0.239187,0.552823
377,2869928744,0.597346,0.258018,-0.385744,0.654071,-0.085973,0.456385,0.042277
378,2869962078,0.606867,0.255005,-0.388257,0.644938,-0.993949,0.507886,0.322330
379,2869995412,0.616150,0.255023,-0.387951,0.636254,1.146823,0.151005,-0.238897
380,2870028746,0.623946,0.259872,-0.384177,0.628943,-0.491288,0.101646,-0.163009
381,2870062080,0.635241,0.262367,-0.383233,0.617064,-0.290673,0.211381,1.448254
382,2870095414,0.647779,0.262686,-0.384794,0.602757,0.900993,0.051443,0.247626
383,2870128748,0.658896,0.262228,-0.389316,0.587817,0.957054,-1.522239,0.515820
384,2870162082,0.670065,0.259367,-0.393762,0.573320,-1.532598,-0.250472,-0.785096
385,2870195416,0.681261,0.256542,-0.396304,0.559479,-1.282359,0.098586,0.111177
386,2870228750,0.690176,0.253545,-0.398637,0.548146,-0.256336,1.009506,-0.011032
387,2870262084,0.697028,0.248828,-0.402683,0.538596,0.239789,0.802692,-0.479525
388,2870295418,0.703411,0.244321,-0.406993,0.529038,-0.069498,-0.097280,-0.518919
389,2870328752,0.708558,0.240868,-0.411100,0.520508,-1.005238,0.691351,-1.209963
390,2870362086,0.712388,0.237262,-0.416162,0.512857,0.673753,-1.668185,0.721203
391,2870395420,0.713981,0.237470,-0.418453,0.508665,-0.008062,0.129425,0.071900
392,2870428754,0.714663,0.235951,-0.421016,0.506293,-0.988680,0.028917,1.088723
393,2870462088,0.717835,0.228514,-0.424835,0.502008,0.641229,-0.003489,0.085487
394,2870495422,0.722443,0.218485,-0.429579,0.495788,-0.171692,-0.340947,0.095496
395,2870528756,0.728090,0.206246,-0.432839,0.489900,0.197761,-0.998922,-0.373373
396,2870562090,0.732394,0.192787,-0.435157,0.486903,-0.749869,-0.812316,0.234633
397,2870595424,0.736292,0.178662,-0.435755,0.485877,-0.740508,0.180985,-0.074491
398,2870628758,0.739104,0.165477,-0.434716,0.487204,-0.320550,-1.216567,-0.478806
399,2870662092,0.740635,0.156236,-0.431237,0.491008,-0.481362,-0.307270,-0.378938
400,2870695426,0.741169,0.149494,-0.427011,0.495969,0.462532,0.260850,0.307421
401,2870728760,0.740466,0.145428,-0.422660,0.501919,0.932243,-1.117160,-0.403921
402,2870762094,0.738396,0.150966,-0.414903,0.509745,0.565478,-0.585222,0.494187
403,2870795428,0.734766,0.164007,-0.404830,0.518977,0.945005,-0.888899,0.696920
404,2870828762,0.730218,0.175345,-0.399739,0.525593,0.619934,-0.628434,1.862727
405,2870862096,0.726632,0.181820,-0.397540,0.530013,0.033844,-0.677772,0.212478
406,2870895430,0.723477,0.188564,-0.394420,0.534286,-0.971233,2.111957,-0.992880
407,2870928764,0.720384,0.194115,-0.392634,0.537781,2.182204,1.681742,-0.595862
408,2870962098,0.718918,0.197640,-0.390258,0.540182,0.686799,2.621604,-0.377941
409,2870995432,0.721291,0.193552,-0.392335,0.536985,0.378469,1.255198,-0.782715
410,2871028766,0.724996,0.185729,-0.396659,0.531555,0.227059,-0.437819,-0.304866
411,2871062100,0.727840,0.180802,-0.399102,0.527522,-0.033366,-1.373811,-0.022905
412,2871095434,0.728560,0.181772,-0.398139,0.526923,-0.411461,-1.134536,1.534864
413,2871128768,0.729408,0.182617,-0.396714,0.526532,-0.397599,-0.223662,0.624244
414,2871162102,0.731231,0.181396,-0.397152,0.524090,-0.240307,0.291772,-0.320086
415,2871195436,0.735110,0.178594,-0.397865,0.519060,-0.730073,1.712067,0.055058
416,2871228770,0.740282,0.170366,-0.402265,0.511022,1.261222,0.141244,-0.441091
417,2871262104,0.745452,0.162455,-0.406315,0.502813,-0.417240,-0.169587,-0.009966
418,2871295438,0.751729,0.154446,-0.408444,0.494193,-0.577434,-0.430655,-0.291278
419,2871328772,0.755895,0.149799,-0.409696,0.488195,-0.225939,-0.609542,-0.428704
420,2871362106,0.760607,0.148016,-0.408649,0.482264,-0.930124,-0.356492,0.647390
421,2871395440,0.766793,0.145274,-0.407289,0.474386,0.380736,0.741800,-0.004893
422,2871428774,0.771991,0.145985,-0.405464,0.467248,0.895864,0.230258,1.021605
423,2871462108,0.777511,0.146879,-0.404449,0.458615,0.883703,-0.109837,0.487991
424,2871495442,0.782698,0.147545,-0.405688,0.448368,0.941091,0.544500,-0.298150
425,2871528776,0.786425,0.151196,-0.409652,0.436880,1.384129,-0.311955,1.011075
426,2871562110,0.787995,0.161146,-0.413200,0.427041,0.619889,-1.211631,1.455408
427,2871595444,0.788029,0.174619,-0.414172,0.420693,-0.697947,-0.583146,-0.624909
428,2871628778,0.788293,0.187796,-0.413245,0.415402,-0.396144,1.237943,-0.559206
429,2871662112,0.789433,0.196336,-0.413080,0.409408,0.665517,2.024448,-0.411471
430,2871695446,0.792385,0.196733,-0.415502,0.400980,0.951095,1.531659,-0.559170
431,2871728780,0.796296,0.191884,-0.419492,0.391310,-0.150712,1.325420,-1.049062
432,2871762114,0.800261,0.186424,-0.423995,0.380868,-0.469436,0.591062,0.074612
433,2871795448,0.803824,0.178776,-0.429703,0.370492,-0.317790,-0.791690,0.453784
434,2871828782,0.806794,0.168982,-0.435557,0.361694,-0.818873,-1.826571,0.889158
435,2871862116,0.809365,0.160876,-0.439675,0.354593,-1.489729,-0.285386,0.318898
436,2871895450,0.811067,0.151726,-0.445013,0.348019,-0.394535,0.358977,-0.547532
437,2871928784,0.812329,0.143681,-0.449587,0.342567,-0.068010,0.873677,-0.853587
438,2871962118,0.813211,0.138149,-0.452716,0.338607,0.161586,0.542977,0.215983
439,2871995452,0.814749,0.132723,-0.454414,0.334782,-0.106550,0.783865,0.031609
440,2872028786,0.816861,0.126531,-0.454904,0.331351,0.066504,0.220764,0.410975
441,2872062120,0.819363,0.117861,-0.454806,0.328495,-0.059448,0.802554,-0.261866
442,2872095454,0.821758,0.108865,-0.454882,0.325496,-0.647878,-0.134013,0.498724
443,2872128788,0.823878,0.100164,-0.454478,0.323489,0.027400,-1.105200,0.293188
444,2872162122,0.824585,0.094154,-0.454086,0.324043,-1.080101,-0.938244,-0.128567
445,2872195456,0.825243,0.089203,-0.452506,0.325973,-1.817230,0.188101,0.427454
446,2872228790,0.825752,0.084246,-0.451968,0.326747,0.506328,0.774860,0.604087
447,2872262124,0.825468,0.078788,-0.454320,0.325564,0.880333,0.821094,1.400590
448,2872295458,0.825905,0.071405,-0.459133,0.319347,1.013115,-0.780617,1.448765
449,2872328792,0.825540,0.063754,-0.465337,0.312866,1.184317,-0.121740,0.193057
450,2872362126,0.824021,0.059333,-0.470861,0.309456,1.083138,0.036344,0.007445
451,2872395460,0.822395,0.056241,-0.474638,0.308585,2.253873,0.950523,-1.264981
452,2872428794,0.821905,0.054008,-0.475606,0.308800,1.114185,1.003681,-0.343012
453,2872462128,0.823296,0.047263,-0.475682,0.306072,2.024072,-0.357253,-0.321211
454,2872495462,0.826023,0.042240,-0.474235,0.301673,0.155773,0.302023,-0.026503
455,2872528796,0.829056,0.039450,-0.472869,0.295819,-0.481012,-0.246733,1.385579
456,2872562130,0.832549,0.037369,-0.470890,0.289365,-0.657567,-0.367278,0.810941
457,2872595464,0.836093,0.034841,-0.468609,0.283096,-0.245793,0.156657,0.392717
458,2872628798,0.839505,0.030463,-0.466418,0.277056,0.052944,-0.023705,0.217416
459,2872662132,0.843181,0.024677,-0.463899,0.270625,0.130027,0.222446,-0.161966
460,2872695466,0.846602,0.018842,-0.461266,0.264854,0.264525,0.049686,-0.782470
461,2872728800,0.849304,0.016860,-0.458292,0.261475,-1.109592,-0.541341,0.345765
462,2872762134,0.851874,0.017355,-0.455056,0.258722,-0.528538,-0.528237,-0.379283
463,2872795468,0.854327,0.017892,-0.451896,0.256123,-1.188237,0.251951,-0.425970
464,2872828802,0.857085,0.018626,-0.448586,0.252653,-0.924205,-0.298903,1.558401
465,2872862136,0.859673,0.019347,-0.446529,0.247394,0.546265,0.470893,0.014356
466,2872895470,0.862165,0.022360,-0.444501,0.242062,-0.543429,-0.411337,0.170815
467,2872928804,0.864314,0.025066,-0.443108,0.236626,-0.732219,-0.683228,-0.221361
468,2872962138,0.865340,0.029886,-0.442965,0.232549,0.345161,-0.595486,-0.328552
469,2872995472,0.865799,0.037615,-0.443417,0.228826,-0.262738,-0.187948,0.430790
470,2873028806,0.866049,0.044050,-0.445123,0.223356,0.350264,0.513250,0.662690
471,2873062140,0.865986,0.048201,-0.448920,0.214988,1.663297,-0.334009,0.407832
472,2873095474,0.865031,0.050191,-0.455214,0.204905,0.755986,-0.922292,1.168617
473,2873128808,0.863166,0.051951,-0.462237,0.196433,0.349817,-0.650787,-0.063084
474,2873162142,0.861024,0.056108,-0.467896,0.191221,0.414004,0.676032,-0.706298
475,2873195476,0.858830,0.060134,-0.473056,0.187127,1.630470,0.339837,-0.569806
476,2873228810,0.857334,0.062930,-0.476737,0.183696,1.079927,0.536121,-0.411793
477,2873262144,0.858456,0.059497,-0.478027,0.176089,0.662117,0.813413,-0.804846
478,2873295478,0.861011,0.051949,-0.478121,0.165422,1.148112,0.209933,0.141087
479,2873328812,0.863428,0.046440,-0.477584,0.155729,0.386871,1.076571,-0.754999
480,2873362146,0.864913,0.044492,-0.477401,0.148452,-0.731313,-0.163309,0.843839
481,2873395480,0.865499,0.042908,-0.477540,0.145017,-1.231343,-1.335418,0.690452
482,2873428814,0.865934,0.041129,-0.477241,0.143913,-0.867826,-0.459244,0.187466
483,2873462148,0.866240,0.037269,-0.477568,0.142027,0.205818,-0.561602,-0.645511
484,2873495482,0.866599,0.033943,-0.477520,0.140826,0.162675,-0.486157,0.012811
485,2873528816,0.866958,0.032060,-0.476922,0.141082,0.571700,0.171980,-0.105195
486,2873562150,0.868308,0.030105,-0.474625,0.140960,-0.370146,1.299624,1.085052
487,2873595484,0.870178,0.025043,-0.471816,0.139840,-0.457384,0.427444,-1.036994
488,2873628818,0.871736,0.026542,-0.467718,0.143579,-0.212789,-0.332891,-0.726925
489,2873662152,0.872932,0.032511,-0.463178,0.149674,-0.085136,0.735555,0.716437
490,2873695486,0.874487,0.031934,-0.459133,0.153144,0.104460,-0.736234,0.557877
491,2873728820,0.876408,0.027518,-0.455176,0.154825,0.298277,-0.431997,1.014097
492,2873762154,0.877826,0.020073,-0.453003,0.154303,0.018846,0.406650,0.654119
493,2873795488,0.879056,0.011887,-0.451718,0.151898,0.106119,-0.792264,1.071252
494,2873828822,0.879258,0.005548,-0.452232,0.149547,0.396448,-1.245487,0.171637
495,2873862156,0.878404,0.003592,-0.453519,0.150723,0.592930,-1.498206,0.105779
496,2873895490,0.877026,0.005829,-0.454937,0.154360,1.701495,-0.849336,-0.670205
497,2873928824,0.876481,0.009544,-0.454575,0.158285,0.386868,-1.332124,-0.587742
498,2873962158,0.877388,0.013927,-0.452525,0.158810,1.233533,0.293317,-0.788775
499,2873995492,0.879137,0.018021,-0.449570,0.157112,1.052995,-0.249284,-0.058848
500,2874028826,0.879895,0.025974,-0.447235,0.158415,1.345532,-2.083263,0.368052
501,2874062160,0.878851,0.042374,-0.445128,0.166401,-0.663563,0.015010,0.714530
502,2874095494,0.877748,0.057578,-0.443049,0.173071,-1.465775,0.438722,0.795440
503,2874128828,0.876422,0.070534,-0.441965,0.177705,-0.361032,0.011191,0.146134
504,2874162162,0.875017,0.081143,-0.441677,0.180790,0.174393,-0.261642,-0.388936
505,2874195496,0.875082,0.085302,-0.440594,0.181207,-0.850405,-0.196264,0.419058
506,2874228830,0.875106,0.088430,-0.440610,0.179546,0.669949,1.213424,-0.707654
507,2874262164,0.876209,0.089941,-0.439414,0.176313,-0.632133,-0.103872,-0.192765
508,2874295498,0.877883,0.090464,-0.437583,0.172230,-0.343533,0.008000,0.211331
509,2874328832,0.880170,0.088117,-0.435516,0.166928,-0.473341,-0.656932,0.224693
510,2874362166,0.882293,0.086770,-0.433368,0.161945,-0.512055,0.176683,0.698596
511,2874395500,0.884252,0.084497,-0.431801,0.156555,-0.483105,0.145837,0.722304
512,2874428834,0.886089,0.080935,-0.431536,0.148580,0.144144,-0.180996,0.292560
513,2874462168,0.886891,0.077997,-0.433521,0.139301,0.628818,-1.237159,0.516394
514,2874495502,0.887095,0.074716,-0.436694,0.129546,0.475247,-1.906518,0.982161
515,2874528836,0.886725,0.070863,-0.441319,0.118061,-0.201731,-1.226626,1.273898
516,2874562170,0.885747,0.067942,-0.446632,0.106580,0.468193,-0.555399,0.526519
517,2874595504,0.884587,0.068088,-0.450711,0.098656,0.446677,0.186330,-0.543898
518,2874628838,0.883361,0.071644,-0.453583,0.093840,1.005614,0.045042,-1.125698
519,2874662172,0.881955,0.079392,-0.455436,0.091836,1.846562,1.088135,-1.209877
520,2874695506,0.881249,0.085101,-0.456322,0.089059,1.297269,0.358740,-0.755356
521,2874728840,0.881195,0.086862,-0.456897,0.084843,0.554663,1.403431,-0.193736
522,2874762174,0.881711,0.083361,-0.457657,0.078675,0.476776,-1.315542,-0.690473
523,2874795508,0.880812,0.084281,-0.459430,0.077429,-0.996034,0.093220,0.749090
524,2874828842,0.879371,0.085281,-0.461582,0.079874,-1.401144,-0.789807,-0.027049
525,2874862176,0.877113,0.088427,-0.464243,0.085653,-1.742295,0.254845,0.487643
526,2874895510,0.874860,0.091585,-0.466470,0.092957,-0.560067,-0.438053,-0.417923
527,2874928844,0.872892,0.092963,-0.468727,0.098574,-0.240352,-0.533042,0.028438
528,2874962178,0.871596,0.092408,-0.470280,0.103063,-0.188457,0.323514,-0.102352
529,2874995512,0.871306,0.091158,-0.470166,0.107065,0.355876,0.243829,-0.506122
530,2875028846,0.871206,0.087799,-0.469930,0.111628,-0.248424,-0.737636,0.228106
531,2875062180,0.872352,0.082563,-0.467818,0.115476,-0.070260,0.329954,-0.273955
532,2875095514,0.873333,0.077174,-0.465684,0.120310,0.018765,-0.957580,-0.294178
533,2875128848,0.874084,0.075296,-0.463013,0.126211,-0.670469,0.618114,0.971803
534,2875162182,0.874405,0.074018,-0.460619,0.133310,-0.610477,0.215024,0.621922
535,2875195516,0.874937,0.070296,-0.458398,0.139353,0.125283,-0.296099,0.295204
536,2875228850,0.875171,0.064678,-0.456760,0.145827,-0.106706,-0.612395,0.542309
537,2875262184,0.875355,0.056541,-0.456158,0.149932,1.000577,-1.207057,1.352613
538,2875295518,0.874365,0.049231,-0.458277,0.151818,0.687997,-0.694043,1.129864
539,2875328852,0.872863,0.044413,-0.460891,0.154016,-0.048460,0.052476,-0.857752
540,2875362186,0.870348,0.042361,-0.463391,0.161160,0.490175,-1.088010,-0.212825
541,2875395520,0.867902,0.043392,-0.465249,0.168552,1.077483,-0.567866,-1.292038
542,2875428854,0.866339,0.047287,-0.465199,0.175541,0.907940,0.793414,-0.716965
543,2875462188,0.866595,0.046817,-0.464446,0.176394,1.250759,-1.464883,-0.006740
544,2875495522,0.867619,0.043733,-0.463400,0.174896,-0.215722,-0.697218,0.224591
545,2875528856,0.869211,0.041379,-0.462069,0.171046,-0.273254,0.104341,0.663604
546,2875562190,0.869649,0.042761,-0.461282,0.170602,-0.590544,-1.392777,0.122158
547,2875595524,0.869444,0.049111,-0.459927,0.173568,-0.035581,-0.104516,-0.263198
548,2875628858,0.869208,0.054804,-0.458219,0.177518,-0.173480,0.074886,-0.333261
549,2875662192,0.870194,0.058567,-0.455388,0.178766,0.190771,1.107092,-0.231688
550,2875695526,0.871960,0.060171,-0.452648,0.176574,-0.052377,0.630156,0.191233
551,2875728860,0.875019,0.058214,-0.448821,0.171802,-0.067518,-0.487453,-0.046484
552,2875762194,0.878057,0.056589,-0.444934,0.166883,-0.399116,0.935938,-0.245596
553,2875795528,0.880452,0.055346,-0.441838,0.162860,-0.056690,-0.987499,0.169413
554,2875828862,0.882344,0.054586,-0.439135,0.160165,-0.139266,-1.202438,-0.265762
555,2875862196,0.883718,0.056096,-0.436886,0.158210,-0.260277,-0.671589,0.116781
556,2875895530,0.885031,0.058475,-0.434858,0.155569,0.645111,-0.074497,0.472833
557,2875928864,0.885862,0.060575,-0.434313,0.151511,0.602085,0.197443,0.083810
558,2875962198,0.885851,0.063556,-0.435641,0.146455,0.525197,-0.691902,0.443219
559,2875995532,0.885134,0.065282,-0.438619,0.141040,0.436850,-1.791311,0.435598
560,2876028866,0.883102,0.069737,-0.443450,0.136466,0.642005,-0.064505,0.610675
561,2876062200,0.879974,0.074886,-0.449743,0.133311,0.412078,0.202004,0.434272
562,2876095534,0.877438,0.080048,-0.454585,0.130578,0.158263,1.262733,-0.261684
563,2876128868,0.875514,0.083436,-0.458241,0.128575,0.902775,0.489959,-0.955244
564,2876162202,0.874118,0.085933,-0.460587,0.128048,1.376876,0.647377,-0.845181
565,2876195536,0.872845,0.086347,-0.462844,0.128316,0.916034,-0.015161,-0.834925
566,2876228870,0.871766,0.086247,-0.464966,0.128046,0.408464,-0.189794,-0.160563
567,2876262204,0.871005,0.084790,-0.466974,0.126883,0.166546,-0.979357,-0.341485
568,2876295538,0.869746,0.086378,-0.468875,0.127436,-0.553338,0.627745,0.880592
569,2876328872,0.868562,0.088391,-0.470580,0.127847,-0.308618,0.848220,0.483994
570,2876362206,0.867366,0.091401,-0.471469,0.130551,-0.482206,0.362925,0.381281
571,2876395540,0.867117,0.091239,-0.471154,0.133418,-0.358208,-0.586786,-0.108132
572,2876428874,0.867754,0.087181,-0.470356,0.134801,0.134923,-0.325794,-0.518867
573,2876462208,0.868867,0.081728,-0.468940,0.135978,-0.102870,0.232180,-0.107888
574,2876495542,0.869997,0.077944,-0.466834,0.138199,-0.600908,-0.237282,0.973610
575,2876528876,0.871221,0.075385,-0.463756,0.142213,-1.207087,-0.861686,0.509612
576,2876562210,0.872232,0.074877,-0.459593,0.149608,-0.580513,0.292041,0.009985
577,2876595544,0.873041,0.074820,-0.455075,0.158470,-1.082687,0.601390,1.061306
578,2876628878,0.874233,0.071739,-0.450710,0.165629,0.443366,-0.326580,-0.046374
579,2876662212,0.875915,0.063821,-0.446810,0.170482,0.448649,-0.348437,-0.952737
580,2876695546,0.877247,0.055265,-0.443629,0.174873,0.517189,0.298898,0.159308
581,2876728880,0.878201,0.044632,-0.441446,0.178603,1.204634,-1.540842,0.067748
582,2876762214,0.878341,0.035209,-0.440763,0.181687,0.674032,-0.794213,-0.186102
583,2876795548,0.878152,0.029633,-0.440778,0.183547,-0.174285,-0.845595,0.767781
584,2876828882,0.876754,0.028159,-0.442260,0.186867,0.297622,-0.881149,1.229733
585,2876862216,0.875105,0.030139,-0.443249,0.191877,0.896572,0.001208,0.421792
586,2876895550,0.873399,0.034608,-0.443711,0.197740,0.999424,-0.186474,-0.088187
587,2876928884,0.872316,0.041158,-0.443130,0.202507,1.190413,-0.260784,-0.091897
588,2876962218,0.872024,0.045880,-0.441915,0.205388,1.426308,-0.821436,0.007651
589,2876995552,0.872474,0.047995,-0.440492,0.206047,0.344754,-0.430961,-0.301342
590,2877028886,0.872815,0.050245,-0.439391,0.206420,0.326247,-0.869134,0.650296
591,2877062220,0.872082,0.053904,-0.439259,0.208858,-0.666198,-0.566395,0.690108
592,2877095554,0.870719,0.058371,-0.439861,0.212056,-1.231342,-0.190346,0.342042
593,2877128888,0.869495,0.061426,-0.440704,0.214452,-0.393562,0.001336,-0.145465
594,2877162222,0.868426,0.063319,-0.441928,0.215707,0.073162,-0.015502,-0.309460
595,2877195556,0.868540,0.064010,-0.442354,0.214165,-0.274638,-0.153525,-0.795268
596,2877228890,0.869358,0.065498,-0.441698,0.211739,-0.830140,0.822417,0.272980
597,2877262224,0.870516,0.064891,-0.441537,0.207459,0.251693,-0.384280,-0.232817
598,2877295558,0.871814,0.065413,-0.440896,0.203163,-0.837762,0.494001,0.130558
599,2877328892,0.873002,0.065288,-0.440766,0.198327,-0.028684,0.378898,0.477450
600,2877362226,0.873926,0.064075,-0.441328,0.193342,0.222562,-0.980234,0.629446
601,2877395560,0.875081,0.061268,-0.442510,0.186193,0.503545,0.246594,-0.425649
602,2877428894,0.876193,0.055321,-0.444957,0.176753,1.220162,-0.284224,-0.813311
603,2877462228,0.876397,0.050468,-0.448196,0.168835,0.661518,-1.196654,0.098878
604,2877495562,0.876272,0.049125,-0.450842,0.162726,0.395473,-0.032498,0.295296
605,2877528896,0.875125,0.049022,-0.455443,0.155977,0.124013,0.026599,0.613620
606,2877562230,0.872918,0.049691,-0.461945,0.148843,-0.171656,-1.906437,0.951160
607,2877595564,0.870846,0.053328,-0.467132,0.143441,-0.983735,-0.439565,0.859881
608,2877628898,0.868551,0.059418,-0.471841,0.139491,0.167210,0.033589,-0.535090
609,2877662232,0.866552,0.066880,-0.475099,0.137475,0.562142,1.504263,-0.547325
610,2877695566,0.864997,0.070823,-0.477350,0.137491,0.435389,-0.881120,0.112440
611,2877728900,0.865071,0.070303,-0.477849,0.135547,-0.063043,0.052100,-0.164207
612,2877762234,0.865907,0.068029,-0.477499,0.132569,-0.236315,-0.080125,-0.072263
613,2877795568,0.866585,0.065679,-0.477456,0.129446,-0.058035,-1.305621,0.655657
614,2877828902,0.867311,0.065022,-0.476710,0.127647,-0.637018,0.593743,0.281244
615,2877862236,0.867644,0.065475,-0.476369,0.126421,-0.193602,0.768958,-0.084957
616,2877895570,0.867468,0.067070,-0.476265,0.127187,-0.095369,0.517759,-0.176360
617,2877928904,0.867791,0.066605,-0.475249,0.129009,0.200896,-0.399021,-0.316365
618,2877962238,0.868478,0.063645,-0.473697,0.131564,0.394390,0.328841,-0.323428
619,2877995572,0.869684,0.057667,-0.472188,0.131779,0.411762,-0.071777,-0.162052
620,2878028906,0.871193,0.049641,-0.470518,0.131052,0.363656,0.956017,-0.538977
621,2878062240,0.874001,0.037854,-0.467183,0.128193,-0.079089,1.218976,-0.252393
622,2878095574,0.876438,0.021860,-0.464525,0.124895,-0.473296,-0.728947,0.243752
623,2878128908,0.878252,0.009925,-0.460644,0.128002,-1.438106,0.358006,1.062737
624,2878162242,0.880053,-0.001663,-0.456175,0.131951,-0.520227,0.657504,0.587210
625,2878195576,0.881651,-0.014106,-0.451957,0.135021,0.193863,-1.117013,0.127705
626,2878228910,0.882632,-0.025158,-0.448749,0.137677,0.250340,-1.838434,0.106181
627,2878262244,0.882401,-0.033228,-0.447938,0.140073,0.531335,-1.219031,-0.012330
628,2878295578,0.880698,-0.038217,-0.450126,0.142480,-0.822971,-0.629316,1.944996
629,2878328912,0.877750,-0.039442,-0.454453,0.146548,-1.515204,-1.660077,2.316253
630,2878362246,0.874869,-0.038115,-0.458041,0.152820,0.479565,0.250956,-1.388008
631,2878395580,0.872750,-0.031175,-0.459677,0.161358,0.974051,1.320521,-0.176350
632,2878428914,0.871776,-0.030310,-0.460254,0.165101,1.591066,-0.224884,-0.322932
633,2878462248,0.872357,-0.031983,-0.459487,0.163844,0.745939,-1.011602,-0.149718
634,2878495582,0.873859,-0.035273,-0.457865,0.159656,0.445332,-1.540062,-0.164587
635,2878528916,0.875219,-0.035976,-0.456832,0.154938,0.189803,-0.527961,-0.694231
636,2878562250,0.875029,-0.031237,-0.457838,0.154068,-0.072081,-0.045093,0.093254
637,2878595584,0.875188,-0.023698,-0.457741,0.154794,-1.167429,2.302997,1.281852
638,2878628918,0.874971,-0.024178,-0.458805,0.152784,0.082791,-0.503464,0.658718
639,2878662252,0.875132,-0.025587,-0.459135,0.150625,0.186708,-0.880699,-0.471185
640,2878695586,0.875759,-0.025964,-0.458703,0.148210,-0.597934,0.110037,-0.622447
641,2878728920,0.876628,-0.026163,-0.457982,0.145241,0.073593,-0.453492,0.383772
642,2878762254,0.877579,-0.027040,-0.457259,0.141571,0.222451,-0.179809,-0.358618
643,2878795588,0.878505,-0.026547,-0.456242,0.139178,-0.511994,0.467772,0.555328
644,2878828922,0.879857,-0.026108,-0.454664,0.135843,-0.242102,-0.340618,-0.030491
645,2878862256,0.881060,-0.024392,-0.453522,0.132136,0.361902,0.632151,0.538128
646,2878895590,0.882430,-0.024448,-0.452743,0.125483,0.114734,-0.081028,0.153444
647,2878928924,0.883918,-0.027091,-0.452122,0.116380,0.489253,-0.818254,0.089785
648,2878962258,0.884590,-0.028561,-0.452793,0.108019,-0.225036,-0.701166,0.360045
649,2878995592,0.883992,-0.027746,-0.455954,0.099486,0.211482,-0.623996,0.814185
650,2879028926,0.882094,-0.023546,-0.461259,0.092736,-0.344367,-0.848200,0.912739
651,2879062260,0.878935,-0.012680,-0.468246,0.089790,-1.090929,-0.301514,1.899261
652,2879095594,0.875535,-0.002037,-0.474878,0.089040,1.229035,0.359007,-1.227642
653,2879128928,0.872922,0.009861,-0.479516,0.089314,-0.327764,1.499490,-1.525251
654,2879162262,0.871572,0.020177,-0.481811,0.088415,0.150943,0.070199,0.250421
655,2879195596,0.870883,0.027267,-0.483041,0.086572,1.794351,-0.649920,-1.399661
656,2879228930,0.870827,0.028537,-0.483546,0.083866,0.759570,0.779333,-0.631577
657,2879262264,0.870658,0.024949,-0.484841,0.079151,-0.374987,-1.132406,0.007255
658,2879295598,0.870801,0.022577,-0.485366,0.074955,-1.224756,-0.167640,0.471669
659,2879328932,0.870285,0.025713,-0.486118,0.075064,-0.327066,0.794741,1.126298
660,2879362266,0.869986,0.027796,-0.486454,0.075618,-0.536022,1.143340,0.366260
661,2879395600,0.869750,0.025199,-0.487028,0.075544,0.163417,-0.476036,-0.658377
662,2879428934,0.870325,0.021133,-0.486329,0.074668,0.222952,0.006674,-1.118463
663,2879462268,0.870988,0.021057,-0.484863,0.076474,-0.468423,0.142718,1.146610
664,2879495602,0.872277,0.020093,-0.482200,0.078840,-0.078698,-1.322810,-0.039674
665,2879528936,0.873673,0.023705,-0.478615,0.084056,-1.216102,0.195788,0.954905
666,2879562270,0.875101,0.027105,-0.474634,0.090502,-0.083147,0.526585,-0.277817
667,2879595604,0.876529,0.035257,-0.469526,0.100015,-0.981027,0.682468,1.367698
668,2879628938,0.877491,0.043733,-0.464493,0.111115,-0.448891,-2.038759,-0.876839
669,2879662272,0.876304,0.059177,-0.461141,0.126257,-0.394780,-0.138861,0.590999
670,2879695606,0.875163,0.070874,-0.457881,0.139337,-0.486326,-0.478513,-0.475505
671,2879728940,0.873121,0.081480,-0.456355,0.150880,0.139022,-1.213053,0.642436
672,2879762274,0.871250,0.086087,-0.456400,0.158795,0.914970,-0.938534,0.403416
673,2879795608,0.867232,0.092534,-0.459806,0.167116,0.316591,-0.069431,1.249508
674,2879828942,0.862548,0.103871,-0.462080,0.178065,-0.025590,0.361753,0.239979
675,2879862276,0.857233,0.118117,-0.463769,0.190058,1.169398,-0.476747,-1.325916
676,2879895610,0.852907,0.130558,-0.464511,0.199342,1.730090,0.509264,-0.667478
677,2879928944,0.851701,0.130666,-0.466229,0.200417,2.661552,-0.135969,0.669497
678,2879962278,0.856002,0.111879,-0.467904,0.189242,0.747308,0.255486,1.795015
679,2879995612,0.861593,0.082861,-0.470351,0.171944,0.905513,-0.713923,0.336466
680,2880028946,0.864408,0.060159,-0.473182,0.159007,-0.630051,0.752390,0.038792
681,2880062280,0.866358,0.047976,-0.473471,0.151494,-0.955544,-1.336528,-0.670794
682,2880095614,0.866918,0.042027,-0.473922,0.148622,0.519264,0.758219,-0.908996
683,2880128948,0.868679,0.033781,-0.472815,0.143896,1.184148,-0.347286,-0.995556
684,2880162282,0.870198,0.029098,-0.471524,0.139920,-0.128572,0.049060,-0.002637
685,2880195616,0.871831,0.024516,-0.470339,0.134514,0.153269,-0.292457,-0.630129
686,2880228950,0.873775,0.020361,-0.468738,0.128025,-1.143365,-0.568043,0.343795
687,2880262284,0.875776,0.016767,-0.466893,0.121447,-0.541694,-1.082716,0.854842
688,2880295618,0.877470,0.014056,-0.465404,0.115114,-0.243740,-0.832397,0.696864
689,2880328952,0.879134,0.012776,-0.464019,0.107933,0.106078,0.336026,0.533108
690,2880362286,0.880249,0.009939,-0.463911,0.099262,0.638851,-1.421418,0.118895
691,2880395620,0.881630,0.003259,-0.463768,0.087407,0.152263,-1.006607,0.367243
692,2880428954,0.881995,0.000011,-0.465182,0.075451,0.181039,-0.465587,0.796882
693,2880462288,0.880252,0.001397,-0.469882,0.066097,0.202337,-0.606042,0.823181
694,2880495622,0.877822,-0.000385,-0.475813,0.055087,-0.521841,-0.260789,0.460024
695,2880528956,0.875762,-0.000887,-0.480602,0.045451,-1.042689,1.112840,-0.325525
696,2880562290,0.874546,0.002593,-0.483413,0.038458,0.401118,1.518424,-0.752436
697,2880595624,0.874294,0.003206,-0.484418,0.030701,1.028203,0.759786,-0.288385
698,2880628958,0.874621,-0.003616,-0.484376,0.020205,1.629581,0.012101,-0.241474
699,2880662292,0.875207,-0.014845,-0.483452,0.008310,0.790179,-0.823498,-0.711036
700,2880695626,0.875201,-0.022753,-0.483225,-0.001486,0.084945,0.019357,-0.316102
701,2880728960,0.875160,-0.028014,-0.482949,-0.008633,-0.471229,1.008722,0.566534
702,2880762294,0.874760,-0.028633,-0.483553,-0.012429,-0.879329,-0.284962,1.400778
703,2880795628,0.874659,-0.027504,-0.483798,-0.012573,0.089820,-1.124555,-0.093137
704,2880828962,0.874566,-0.029037,-0.483893,-0.011893,0.745473,-0.470076,-0.877173
705,2880862296,0.874663,-0.031594,-0.483572,-0.011295,0.943838,-0.044920,-0.682635
706,2880895630,0.874780,-0.031920,-0.483397,-0.008474,0.081364,0.858818,0.451994
707,2880928964,0.875354,-0.033371,-0.482304,-0.005224,0.016683,-0.189153,0.455541
708,2880962298,0.876933,-0.037471,-0.479149,-0.002146,-0.375389,-0.077520,0.190629
709,2880995632,0.878630,-0.043311,-0.475537,0.000755,-0.045556,0.582496,-0.399118
710,2881028966,0.879943,-0.047697,-0.472665,0.004115,0.042107,0.790043,0.717738
711,2881062300,0.881275,-0.052622,-0.469622,0.006634,-0.211129,0.214277,0.200838
712,2881095634,0.882183,-0.058004,-0.467250,0.008392,-0.869944,-1.728429,-0.185260
713,2881128968,0.882815,-0.063818,-0.465258,0.010170,0.194444,-1.219737,-0.053507
714,2881162302,0.882991,-0.072384,-0.463677,0.009752,-0.903019,-0.115549,0.040359
715,2881195636,0.882345,-0.082560,-0.463250,0.007383,-0.279275,-0.895004,0.422676
716,2881228970,0.880901,-0.088268,-0.464949,0.006969,0.915421,-0.606574,-0.133537
717,2881262304,0.879401,-0.084655,-0.468310,0.013314,0.897595,0.057074,-0.865903
718,2881295638,0.878358,-0.075952,-0.471367,0.023124,1.005165,-0.273934,-0.396170
719,2881328972,0.878680,-0.066696,-0.471707,0.031114,0.569350,-0.242038,0.006248
720,2881362306,0.879363,-0.061486,-0.470986,0.033400,0.197167,-1.659791,0.943905
721,2881395640,0.880628,-0.058467,-0.469098,0.032038,-0.391325,0.101941,0.860287
722,2881428974,0.881401,-0.056325,-0.467979,0.030966,-0.501489,-0.706828,0.139633
723,2881462308,0.881257,-0.051379,-0.468736,0.032191,0.271516,1.924420,0.231048
724,2881495642,0.880999,-0.051855,-0.469254,0.030928,0.248182,-0.253979,0.194757
725,2881528976,0.880397,-0.054667,-0.470202,0.028724,1.126523,0.095359,-0.295140
726,2881562310,0.880362,-0.061192,-0.469756,0.023483,0.492846,-0.681486,-0.162753
727,2881595644,0.880992,-0.068953,-0.467816,0.015824,0.735886,-0.128773,-0.456271
728,2881628978,0.881534,-0.077007,-0.465756,0.006544,0.668773,-0.190109,-0.463500
729,2881662312,0.882323,-0.084188,-0.463048,-0.002758,0.045443,1.151467,0.566566
730,2881695646,0.883012,-0.092242,-0.460011,-0.013243,-0.394504,-0.839980,0.818626
731,2881728980,0.883541,-0.096777,-0.457634,-0.023755,-0.400817,0.094451,0.787829
732,2881762314,0.883913,-0.099416,-0.455629,-0.034922,0.194215,-0.382405,0.125241
733,2881795648,0.883816,-0.101369,-0.454367,-0.046344,0.373608,0.877043,0.030286
734,2881828982,0.883049,-0.105281,-0.453383,-0.059896,0.927567,-0.672386,-0.397690
735,2881862316,0.881377,-0.109893,-0.453478,-0.073884,0.765864,-0.006404,0.245374
736,2881895650,0.878410,-0.118038,-0.454079,-0.090983,0.754265,-0.145660,0.369813
737,2881928984,0.873646,-0.128427,-0.456141,-0.110400,0.203900,-0.271833,1.183960
738,2881962318,0.868146,-0.137264,-0.459421,-0.128124,-0.958234,-0.767537,0.096416
739,2881995652,0.863218,-0.141792,-0.462968,-0.142876,1.041832,0.310849,-0.734060
740,2882028986,0.858518,-0.147259,-0.465673,-0.156251,2.032037,0.169739,-0.471731
741,2882062320,0.853506,-0.156875,-0.466481,-0.171221,1.525486,0.310671,0.084926
742,2882095654,0.848129,-0.170066,-0.465126,-0.188190,-0.201545,-0.754033,0.282534
743,2882128988,0.843573,-0.179539,-0.464347,-0.201335,0.134236,0.214314,-0.235277
744,2882162322,0.839644,-0.185021,-0.464871,-0.211339,-0.188580,0.310198,0.318016
745,2882195656,0.836202,-0.189340,-0.466079,-0.218381,-0.242926,0.615803,0.234062
746,2882228990,0.833597,-0.191831,-0.467187,-0.223735,-0.549024,0.396336,0.009325
747,2882262324,0.831956,-0.192671,-0.467392,-0.228639,0.288495,-0.303481,-0.355499
748,2882295658,0.830464,-0.194612,-0.466502,-0.234167,0.472709,-0.207981,-0.373518
749,2882328992,0.829123,-0.198399,-0.464537,-0.239584,0.525220,-0.590691,-0.581864
750,2882362326,0.828008,-0.200847,-0.463546,-0.243296,1.081820,0.135280,-0.269672
751,2882395660,0.827375,-0.201194,-0.463170,-0.245864,0.607376,1.316844,0.341154
752,2882428994,0.827187,-0.203022,-0.461398,-0.248312,-0.093771,0.643857,0.631432
753,2882462328,0.827016,-0.205883,-0.459136,-0.250708,0.165574,0.433972,0.513181
754,2882495662,0.827523,-0.208694,-0.455881,-0.252643,-0.352762,0.283892,0.601667
755,2882528996,0.827277,-0.213476,-0.452059,-0.256295,0.658233,0.074731,0.514814
756,2882562330,0.827337,-0.220677,-0.446272,-0.260114,-0.097111,0.045542,1.006651
757,2882595664,0.827127,-0.227705,-0.440517,-0.264499,0.496740,1.129930,1.086267
758,2882628998,0.826165,-0.237113,-0.433518,-0.270730,-1.328551,-0.684230,0.769526
759,2882662332,0.823212,-0.248639,-0.426757,-0.279969,-1.075464,-0.446545,1.132476
760,2882695666,0.818289,-0.261262,-0.420835,-0.291628,-0.298212,0.163799,1.339962
761,2882729000,0.812477,-0.274003,-0.415659,-0.303373,0.514773,0.270056,0.075648
762,2882762334,0.806954,-0.287704,-0.408809,-0.314531,0.042355,0.306527,-1.071245
763,2882795668,0.803471,-0.297625,-0.402312,-0.322494,-0.497156,-0.115801,-0.957396
764,2882829002,0.802119,-0.303177,-0.396172,-0.328238,-0.259709,-1.509423,-0.470542
765,2882862336,0.800252,-0.309332,-0.388454,-0.336180,0.134249,-2.861341,0.375201
766,2882895670,0.797677,-0.313060,-0.382036,-0.346059,0.049291,-1.687384,-0.162814
767,2882929004,0.794665,-0.313121,-0.378257,-0.356913,-0.458589,0.099935,0.921775
768,2882962338,0.790987,-0.314127,-0.374271,-0.368222,-0.267748,0.154505,0.769234
769,2882995672,0.786378,-0.317145,-0.370118,-0.379531,0.571471,-0.110067,0.381031
770,2883029006,0.782146,-0.320415,-0.366719,-0.388718,-0.348391,-0.778644,-0.056632
771,2883062340,0.778859,-0.322178,-0.364369,-0.396003,0.243243,-0.422482,-0.751604
772,2883095674,0.776404,-0.323050,-0.362189,-0.402066,0.220140,0.012431,-0.457622
773,2883129008,0.773606,-0.324647,-0.359321,-0.408694,-0.517813,0.049055,-0.781070
774,2883162342,0.770814,-0.325874,-0.356678,-0.415255,0.263070,0.822153,0.207272
775,2883195676,0.768444,-0.325895,-0.355384,-0.420704,-0.998794,0.202321,1.111739
776,2883229010,0.767197,-0.324161,-0.355804,-0.423952,-2.398234,-0.351754,0.473873
777,2883262344,0.766575,-0.320344,-0.359401,-0.424943,0.652895,-1.583687,0.384902
778,2883295678,0.764410,-0.318567,-0.362450,-0.427582,0.405898,-1.037694,-0.158907
779,2883329012,0.760853,-0.317086,-0.364975,-0.432846,0.413640,-0.375272,0.283477
780,2883362346,0.755802,-0.316522,-0.366047,-0.441123,-0.854162,-0.145591,-0.199860
781,2883395680,0.750025,-0.314902,-0.368598,-0.449931,-0.064340,0.019194,-0.018984
782,2883429014,0.742756,-0.315678,-0.370070,-0.460122,-0.597377,0.402383,1.183507
783,2883462348,0.733158,-0.320576,-0.368514,-0.473193,1.084222,1.111031,1.120555
784,2883495682,0.723814,-0.324231,-0.365607,-0.487138,0.616259,2.149856,1.091543
785,2883529016,0.714783,-0.328225,-0.360263,-0.501565,0.318826,0.044890,-0.016231
786,2883562350,0.708413,-0.329726,-0.357733,-0.511333,-0.815494,-1.245378,-1.168640
787,2883595684,0.705429,-0.328589,-0.358905,-0.515355,0.187937,-1.109811,-0.363366
788,2883629018,0.702283,-0.328435,-0.358005,-0.520350,-0.866859,-1.194539,-0.858408
789,2883662352,0.699015,-0.328234,-0.356964,-0.525567,1.406560,-0.658281,-0.368660
790,2883695686,0.695023,-0.328723,-0.354637,-0.532091,-0.205584,-0.247771,-0.154963
791,2883729020,0.691440,-0.329762,-0.352638,-0.537418,0.192605,0.434021,0.735869
792,2883762354,0.689237,-0.331378,-0.349158,-0.541509,0.132192,0.808358,0.557295
793,2883795688,0.688372,-0.333329,-0.345567,-0.543712,-0.095478,0.257297,-0.266807
794,2883829022,0.688802,-0.335339,-0.341836,-0.544289,-0.228838,0.292887,-0.197771
795,2883862356,0.688948,-0.336464,-0.339365,-0.544957,0.546556,-0.169263,-0.258728
796,2883895690,0.689695,-0.337508,-0.336891,-0.544901,-0.554572,0.350096,0.306430
797,2883929024,0.689889,-0.339931,-0.332841,-0.545638,-1.211053,0.917703,-0.248122
798,2883962358,0.690316,-0.343114,-0.327819,-0.546145,0.560767,1.179136,0.234625
799,2883995692,0.690701,-0.346993,-0.321171,-0.547157,0.006685,0.306502,0.402221
800,2884029026,0.691647,-0.349762,-0.314823,-0.547888,-0.013972,0.409919,0.706933
801,2884062360,0.693214,-0.352256,-0.308923,-0.547668,-0.809600,0.655146,-0.057747
802,2884095694,0.696099,-0.353325,-0.304937,-0.545549,-1.008988,0.619588,0.150628
803,2884129028,0.699331,-0.354700,-0.301156,-0.542616,-1.008116,0.301060,0.174321
804,2884162362,0.702044,-0.355832,-0.297193,-0.540553,-0.348469,0.558271,-0.465775
805,2884195696,0.705024,-0.356483,-0.295434,-0.537199,-0.104591,0.653747,0.471477
806,2884229030,0.706715,-0.357329,-0.295357,-0.534451,-0.878558,0.189983,0.607002
807,2884262364,0.707676,-0.356482,-0.297638,-0.532475,0.873551,0.386395,1.795731
808,2884295698,0.708529,-0.356115,-0.300074,-0.530215,-1.391207,-1.269955,-0.450191
809,2884329032,0.711985,-0.351537,-0.306361,-0.525019,-0.245535,-1.220120,-0.484961
810,2884362366,0.717152,-0.345032,-0.310853,-0.519634,-0.035155,-0.736945,-0.273173
811,2884395700,0.719825,-0.341828,-0.310966,-0.517985,-0.648127,-1.360850,-0.082533
812,2884429034,0.720358,-0.340870,-0.308306,-0.519463,-1.050687,-0.825769,0.150001
813,2884462368,0.719997,-0.340691,-0.306019,-0.521430,-0.434961,-0.481201,0.600777
814,2884495702,0.720665,-0.337853,-0.308383,-0.520961,0.217012,-0.044159,-0.134941
815,2884529036,0.722096,-0.332968,-0.313146,-0.519281,-0.418572,-0.012478,0.760308
816,2884562370,0.723673,-0.328787,-0.316054,-0.517986,0.597179,-0.428112,-0.062044
817,2884595704,0.724674,-0.327161,-0.316366,-0.517426,-0.510209,-0.445817,-0.091069
818,2884629038,0.724556,-0.327178,-0.314917,-0.518464,-0.533316,-0.726416,-0.159598
819,2884662372,0.724169,-0.327462,-0.312634,-0.520204,0.179894,0.587266,0.435545
820,2884695706,0.723042,-0.327931,-0.310005,-0.523041,-0.381099,0.005109,0.048946
821,2884729040,0.722763,-0.326404,-0.309575,-0.524634,-0.116965,0.629737,0.692569
822,2884762374,0.722856,-0.324263,-0.309128,-0.526095,-0.083057,0.591242,0.932434
823,2884795708,0.721859,-0.322102,-0.309273,-0.528700,-0.420438,-0.529989,0.173738
824,2884829042,0.719919,-0.319692,-0.309237,-0.532813,-0.129485,-0.365607,-0.035917
825,2884862376,0.716482,-0.319539,-0.307103,-0.538738,-0.653516,-0.584032,-0.114018
826,2884895710,0.712435,-0.320290,-0.305332,-0.544635,-0.071218,-0.463537,-0.194048
827,2884929044,0.707627,-0.321793,-0.304432,-0.550489,0.230936,-0.193319,0.180307
828,2884962378,0.702780,-0.323829,-0.306162,-0.554529,-0.787003,0.162985,1.001593
829,2884995712,0.697472,-0.325441,-0.311382,-0.557374,-0.477162,0.751298,1.447299
830,2885029046,0.692892,-0.324501,-0.320028,-0.558736,0.489637,-0.085283,-0.272086
831,2885062380,0.689898,-0.322346,-0.328498,-0.558772,1.083777,-0.912153,-0.851172
832,2885095714,0.686682,-0.322274,-0.332914,-0.560160,-0.215420,-1.375627,-0.845613
833,2885129048,0.683995,-0.323464,-0.334195,-0.561995,0.292010,-1.655250,-0.264719
834,2885162382,0.680482,-0.327052,-0.330861,-0.566141,1.642459,-0.439014,-0.180602
835,2885195716,0.675974,-0.333004,-0.326806,-0.570411,-1.128595,0.113612,0.192138
836,2885229050,0.674671,-0.335947,-0.326116,-0.570623,-0.294651,1.033985,0.752778
837,2885262384,0.674441,-0.337047,-0.327753,-0.569307,0.652929,1.138921,0.204314
838,2885295718,0.674771,-0.336459,-0.330596,-0.567617,0.601362,0.874868,-0.235488
839,2885329052,0.675799,-0.335583,-0.332150,-0.566003,0.516310,0.035958,0.077041
840,2885362386,0.676950,-0.337468,-0.330186,-0.564655,-0.749503,-0.530592,-0.476233
841,2885395720,0.678490,-0.340336,-0.327250,-0.562791,-0.074444,-0.721689,-0.489161
842,2885429054,0.679900,-0.342522,-0.324083,-0.561594,0.797618,0.233868,0.233121
843,2885462388,0.681533,-0.343691,-0.321392,-0.560446,-0.749608,0.780379,0.179542
844,2885495722,0.683976,-0.342989,-0.318676,-0.559451,0.673658,0.156290,-0.061677
845,2885529056,0.687777,-0.340875,-0.315796,-0.557713,0.250166,0.550170,-0.140025
846,2885562390,0.691630,-0.337874,-0.311343,-0.557277,0.627828,0.454313,0.897041
847,2885595724,0.694174,-0.338346,-0.302938,-0.558459,-0.513471,-0.174728,0.146673
848,2885629058,0.696188,-0.339996,-0.293863,-0.559798,-0.492398,-0.425566,0.516181
849,2885662392,0.698737,-0.341790,-0.286128,-0.559536,0.911315,-0.719325,0.207917
850,2885695726,0.699750,-0.345630,-0.278476,-0.559771,-0.840569,-0.243286,1.162053
851,2885729060,0.700524,-0.350270,-0.274240,-0.558008,-0.278455,-0.526186,1.591166
852,2885762394,0.701669,-0.353094,-0.273935,-0.554932,-0.851331,0.992962,1.832026
853,2885795728,0.704682,-0.353655,-0.277232,-0.549088,-0.608434,-0.451124,-0.230500
854,2885829062,0.709153,-0.350049,-0.283056,-0.542633,0.481992,-0.332740,0.118053
855,2885862396,0.711926,-0.347324,-0.286039,-0.539178,-0.502971,-1.152316,-0.388147
856,2885895730,0.711632,-0.348341,-0.284633,-0.539654,-0.664021,-1.627755,-0.458298
857,2885929064,0.708274,-0.351613,-0.280480,-0.544104,-1.912123,-0.793113,-0.029433
858,2885962398,0.704512,-0.351703,-0.279622,-0.549348,-0.727076,0.037560,-0.372792
859,2885995732,0.702891,-0.348431,-0.283025,-0.551761,-0.245306,0.589182,0.849195
860,2886029066,0.701842,-0.345135,-0.286424,-0.553412,-0.173030,-0.087362,0.479524
861,2886062400,0.700343,-0.343616,-0.288271,-0.555294,0.643413,-0.196754,-0.720888
862,2886095734,0.698870,-0.341500,-0.290052,-0.557523,1.219228,-0.724293,-0.004421
863,2886129068,0.697060,-0.339033,-0.292329,-0.560099,0.523695,-0.609905,0.333923
864,2886162402,0.694937,-0.336854,-0.294318,-0.563003,-1.905450,0.889442,0.825999
865,2886195736,0.692020,-0.334226,-0.295626,-0.567460,0.404035,0.249610,0.082153
866,2886229070,0.688437,-0.333064,-0.295278,-0.572659,0.409368,0.631730,0.196074
867,2886262404,0.683629,-0.332720,-0.293452,-0.579516,-0.760378,0.458861,-0.768274
868,2886295738,0.680709,-0.330603,-0.292797,-0.584474,-0.328712,0.374405,0.197948
869,2886329072,0.676565,-0.330462,-0.290570,-0.590447,-0.277911,-0.453252,-0.435812
870,2886362406,0.671927,-0.330709,-0.288992,-0.596349,0.767742,0.292884,0.368293
871,2886395740,0.665045,-0.331467,-0.288081,-0.604034,0.834631,0.123825,1.083876
872,2886429074,0.657024,-0.333768,-0.288532,-0.611287,-2.372388,0.240133,-0.096650
873,2886462408,0.650485,-0.334443,-0.291464,-0.616498,-0.782071,0.646378,0.937449
874,2886495742,0.643602,-0.335827,-0.296770,-0.620425,-2.405784,0.132105,0.798540
875,2886529076,0.637419,-0.334775,-0.305160,-0.623301,-0.666994,0.379884,0.366521
876,2886562410,0.632831,-0.331767,-0.313998,-0.625192,-0.291966,-0.501205,-0.799655
877,2886595744,0.629238,-0.329366,-0.320441,-0.626816,0.391837,-1.798758,-1.333670
878,2886629078,0.626510,-0.327570,-0.325166,-0.628055,1.345501,-1.851868,-0.404279
879,2886662412,0.622158,-0.330148,-0.322864,-0.632206,-0.326548,-1.262316,-0.790657
880,2886695746,0.616063,-0.335744,-0.317968,-0.637686,0.214658,-1.094555,-0.519073
881,2886729080,0.609920,-0.341408,-0.312522,-0.643251,0.230006,1.021040,0.715745
882,2886762414,0.607275,-0.343576,-0.312171,-0.644768,0.866251,1.820542,0.986924
883,2886795748,0.606514,-0.345073,-0.311445,-0.645036,-0.166653,1.109790,0.107495
884,2886829082,0.607655,-0.346375,-0.310974,-0.643489,1.066029,0.489640,0.088353
885,2886862416,0.608765,-0.348587,-0.308430,-0.642469,0.272220,0.311058,-0.478460
886,2886895750,0.610398,-0.351229,-0.305304,-0.640972,-0.304139,0.709616,0.406414
887,2886929084,0.612993,-0.353372,-0.302288,-0.638744,-0.848769,0.718311,-0.716452
888,2886962418,0.615917,-0.354955,-0.299002,-0.636596,1.149475,1.421512,0.097939
889,2886995752,0.619217,-0.356804,-0.294494,-0.634459,-0.075906,0.835886,0.087189
890,2887029086,0.624324,-0.357186,-0.289934,-0.631331,0.030970,1.831964,2.071242
891,2887062420,0.628388,-0.358014,-0.282763,-0.630082,-0.750261,-0.030823,0.225381
892,2887095754,0.631217,-0.359930,-0.273851,-0.630099,-0.812315,-0.807476,-0.503846
893,2887129088,0.632286,-0.363984,-0.263845,-0.630967,-0.832651,-0.828983,-0.709261
894,2887162422,0.631144,-0.369614,-0.254163,-0.632809,-1.202271,-0.363473,1.057740
895,2887195756,0.628742,-0.376092,-0.248010,-0.633824,-1.320382,0.010716,1.494084
896,2887229090,0.628706,-0.379031,-0.248863,-0.631771,-0.532762,0.602078,0.427591
897,2887262424,0.632755,-0.377520,-0.254282,-0.626454,1.252346,-0.410923,-1.988632
898,2887295758,0.639411,-0.373968,-0.261192,-0.618937,0.577385,-1.695003,-1.575679
899,2887329092,0.645076,-0.369340,-0.265850,-0.613835,-0.124087,-1.018221,-0.982503
900,2887362426,0.647517,-0.366507,-0.265455,-0.613133,-0.911003,-0.821999,0.239916
901,2887395760,0.645746,-0.366636,-0.261405,-0.616653,-2.331386,-0.964683,0.435876
902,2887429094,0.645604,-0.364255,-0.263511,-0.617315,-1.870968,0.318891,0.521453
903,2887462428,0.649437,-0.355714,-0.275066,-0.613222,0.869344,1.045706,0.571864
904,2887495762,0.653274,-0.348601,-0.285296,-0.608540,1.340463,0.859242,1.093534
905,2887529096,0.655156,-0.346119,-0.289428,-0.605976,0.330055,-0.570761,0.173368
906,2887562430,0.656228,-0.345769,-0.288916,-0.605259,-1.440752,0.183976,-0.527694
907,2887595764,0.656288,-0.343498,-0.290094,-0.605924,0.392556,-0.718587,-0.498184
908,2887629098,0.655723,-0.341405,-0.288968,-0.608252,-0.975859,0.026340,-0.587868
909,2887662432,0.654878,-0.339689,-0.287622,-0.610756,0.181298,-0.052996,0.051326
910,2887695766,0.653123,-0.338483,-0.285726,-0.614185,0.684141,0.461227,0.178362
911,2887729100,0.650007,-0.337635,-0.284227,-0.618637,0.615828,0.434883,0.437306
912,2887762434,0.645413,-0.336671,-0.283193,-0.624419,2.044953,-0.540353,1.618793
913,2887795768,0.638025,-0.340003,-0.279864,-0.631666,-1.280462,-0.260917,0.247204
914,2887829102,0.628220,-0.346654,-0.273441,-0.640628,0.434923,-0.605063,0.836710
915,2887862436,0.616160,-0.355986,-0.268177,-0.649388,-2.084524,-1.033330,0.414885
916,2887895770,0.606479,-0.362269,-0.269901,-0.654294,-1.232598,0.710485,1.527974
917,2887929104,0.598962,-0.364825,-0.273269,-0.658388,0.410493,0.167791,-1.177733
918,2887962438,0.593182,-0.364912,-0.277701,-0.661710,0.233155,-0.677716,0.074399
919,2887995772,0.586707,-0.366654,-0.278379,-0.666219,0.011038,-2.503397,-0.679703
920,2888029106,0.580900,-0.368573,-0.276837,-0.670876,0.329191,-0.931706,-0.014968
921,2888062440,0.575709,-0.371300,-0.273976,-0.675008,-0.113967,-0.622200,-0.137162
922,2888095774,0.571724,-0.373325,-0.273233,-0.677575,0.142946,0.675533,-0.358063
923,2888129108,0.569839,-0.373991,-0.276032,-0.677661,0.753820,0.775447,0.703641
924,2888162442,0.570037,-0.374231,-0.280233,-0.675634,-0.992097,0.839041,0.339531
925,2888195776,0.571075,-0.373635,-0.284067,-0.673483,0.847957,0.582932,0.329816
926,2888229110,0.571227,-0.374060,-0.286712,-0.671996,0.007236,-0.055008,-0.598996
927,2888262444,0.570485,-0.375964,-0.286944,-0.671465,0.721172,-0.285679,-0.016161
928,2888295778,0.569281,-0.378516,-0.286219,-0.671362,-0.496450,-0.195421,0.020675
929,2888329112,0.569519,-0.381018,-0.284536,-0.670460,0.342057,1.080558,0.364648
930,2888362446,0.570230,-0.382672,-0.281724,-0.670101,0.003686,1.055912,-0.458690
931,2888395780,0.572088,-0.383569,-0.278233,-0.669463,-0.297180,0.527098,-1.126571
932,2888429114,0.575038,-0.384486,-0.272952,-0.668583,-1.061781,1.112518,-0.122326
933,2888462448,0.577109,-0.385519,-0.266550,-0.668786,0.779468,-0.254819,0.182652
934,2888495782,0.578338,-0.387139,-0.259979,-0.669375,0.728888,-0.507071,0.429532
935,2888529116,0.580662,-0.389012,-0.251856,-0.669383,-0.934776,0.284509,0.033879
936,2888562450,0.583541,-0.391241,-0.244361,-0.668357,-0.813817,-0.248768,0.243898
937,2888595784,0.586858,-0.393963,-0.238451,-0.665984,-0.239833,0.049976,0.414462
938,2888629118,0.588485,-0.397857,-0.233868,-0.663855,-0.913010,-0.490348,0.360623
939,2888662452,0.589832,-0.401090,-0.233560,-0.660816,-0.997994,-0.715229,0.250910
940,2888695786,0.593515,-0.401140,-0.238643,-0.655653,-0.413849,-0.641978,0.706517
941,2888729120,0.598794,-0.399185,-0.245871,-0.649344,-1.071646,0.678339,-0.152466
942,2888762454,0.604186,-0.394827,-0.254500,-0.643665,-0.580810,-0.555122,0.118229
943,2888795788,0.606933,-0.391802,-0.258896,-0.641171,-0.057789,-0.551002,-0.145223
944,2888829122,0.606538,-0.390797,-0.259544,-0.641895,-0.482100,-0.631059,-0.113038
945,2888862456,0.605377,-0.390148,-0.259274,-0.643493,0.656831,-0.316306,0.641614
946,2888895790,0.604169,-0.390745,-0.259786,-0.644060,-0.677579,-0.156452,-0.360471
947,2888929124,0.604329,-0.388694,-0.263219,-0.643756,1.134923,0.147529,-0.689274
948,2888962458,0.603922,-0.387687,-0.264331,-0.644289,-0.766969,-0.485134,-0.030124
949,2888995792,0.603676,-0.387535,-0.264408,-0.644581,-0.349749,-0.616607,-0.640177
950,2889029126,0.602110,-0.387412,-0.262650,-0.646834,-0.115160,-0.026482,-0.656863
951,2889062460,0.600159,-0.386719,-0.261070,-0.649695,0.079922,-0.039525,0.044056
952,2889095794,0.597977,-0.386139,-0.258562,-0.653046,-0.126428,0.204407,0.336049
953,2889129128,0.594922,-0.386031,-0.255335,-0.657158,0.382116,-0.285524,0.176586
954,2889162462,0.591319,-0.385383,-0.254400,-0.661140,0.352800,-0.075351,0.501390
955,2889195796,0.587073,-0.385346,-0.252634,-0.665607,-1.327353,0.498682,-0.249661
956,2889229130,0.583699,-0.384306,-0.252357,-0.669271,0.154308,0.625819,0.540394
957,2889262464,0.580045,-0.384804,-0.250847,-0.672720,-0.060650,0.111502,0.152820
958,2889295798,0.575468,-0.384861,-0.250108,-0.676881,0.847440,0.208420,1.134392
959,2889329132,0.570111,-0.387015,-0.249689,-0.680332,-0.771774,0.066160,0.620063
960,2889362466,0.563327,-0.389371,-0.249900,-0.684548,0.036495,0.413261,1.292091
961,2889395800,0.555477,-0.393013,-0.252379,-0.687964,-0.956085,0.550550,1.162096
962,2889429134,0.548131,-0.395144,-0.257998,-0.690546,0.168151,0.677012,0.574249
963,2889462468,0.543085,-0.394613,-0.266452,-0.691626,0.389873,-0.729710,-0.530701
964,2889495802,0.539589,-0.394185,-0.272967,-0.692065,-0.496103,-1.290180,-1.156443
965,2889529136,0.536481,-0.394703,-0.275943,-0.693006,0.649619,-1.690849,-0.964498
966,2889562470,0.532462,-0.396908,-0.275990,-0.694824,0.884309,-2.187283,0.342342
967,2889595804,0.524020,-0.403116,-0.268866,-0.700439,-1.668195,-0.368248,-0.257154
968,2889629138,0.513525,-0.408706,-0.261416,-0.707754,1.076296,-0.163514,0.244813
969,2889662472,0.504570,-0.413905,-0.256118,-0.713091,-0.884558,1.207786,0.677783
970,2889695806,0.499828,-0.416398,-0.254546,-0.715538,-0.237430,1.252902,0.304301
971,2889729140,0.497911,-0.417901,-0.253643,-0.716318,0.741520,-0.431641,0.539845
972,2889762474,0.496907,-0.417895,-0.252348,-0.717476,0.166242,-0.664594,0.225556
973,2889795808,0.497224,-0.417821,-0.250556,-0.717927,-0.798773,-0.428055,-0.728595
974,2889829142,0.497885,-0.417241,-0.248612,-0.718481,0.272904,-0.782863,-0.328179
975,2889862476,0.501122,-0.414704,-0.248717,-0.717663,0.421077,0.353678,-0.044504
976,2889895810,0.508211,-0.409008,-0.252223,-0.714718,0.359757,1.057663,0.021243
977,2889929144,0.518115,-0.398750,-0.259128,-0.710922,2.295285,0.951331,0.139635
978,2889962478,0.528878,-0.385296,-0.268810,-0.706809,0.460405,0.383292,-0.088374
979,2889995812,0.542060,-0.370079,-0.281597,-0.699942,-0.532283,-1.110622,-1.228667
980,2890029146,0.554066,-0.356782,-0.296217,-0.691359,-0.501694,-1.332007,-1.297106
981,2890062480,0.563497,-0.346898,-0.308376,-0.683403,-1.050824,-0.951658,-0.681773
982,2890095814,0.568340,-0.343040,-0.314073,-0.678730,-0.591090,-0.548944,1.419249
983,2890129148,0.566918,-0.347776,-0.311387,-0.678747,-0.631918,-0.809281,2.317958
984,2890162482,0.561100,-0.358596,-0.301018,-0.682618,-0.486846,0.211855,1.712959
985,2890195816,0.555361,-0.370043,-0.290706,-0.685665,0.700675,0.293215,0.429620
986,2890229150,0.552872,-0.379222,-0.282448,-0.686112,-0.640215,-0.108107,-0.563600
987,2890262484,0.552868,-0.385339,-0.275043,-0.685715,0.309920,-0.119996,-0.040836
988,2890295818,0.551845,-0.389793,-0.266421,-0.687424,-0.106079,-0.700590,0.219124
989,2890329152,0.547982,-0.395468,-0.253447,-0.692162,-0.869721,-0.779810,0.003508
990,2890362486,0.540039,-0.400728,-0.241992,-0.699441,-0.454636,-0.661799,0.312037
991,2890395820,0.532965,-0.403635,-0.236865,-0.704929,-1.381455,0.533691,0.455827
992,2890429154,0.528289,-0.403416,-0.237736,-0.708274,-0.016434,0.747842,0.410837
993,2890462488,0.525249,-0.402320,-0.239944,-0.710410,-0.561941,0.192467,-0.199129
994,2890495822,0.522434,-0.400689,-0.241404,-0.712909,-0.185977,-0.250862,-0.264925
995,2890529156,0.519318,-0.398423,-0.240258,-0.716831,-0.681145,0.552389,0.434856
996,2890562490,0.514827,-0.397006,-0.235796,-0.722318,-0.849045,-0.175520,-0.226658
997,2890595824,0.508061,-0.397075,-0.228419,-0.729406,-0.029697,0.065082,0.180366
998,2890629158,0.499260,-0.397925,-0.220851,-0.737308,-0.505254,0.588975,0.515882
999,2890662492,0.490618,-0.398950,-0.215002,-0.744251,0.683065,0.247877,0.766098
1000,2890695826,0.483231,-0.399968,-0.213303,-0.749012,-0.381518,0.827172,0.642416
1001,2890729160,0.477258,-0.400548,-0.213447,-0.752483,0.366958,0.439912,0.026679
1002,2890762494,0.472623,-0.401181,-0.215001,-0.754626,-0.817038,0.457397,-0.248634
1003,2890795828,0.465816,-0.402841,-0.214922,-0.757989,-0.225185,-0.714378,-0.189668
1004,2890829162,0.456760,-0.405372,-0.212150,-0.762916,0.208709,-1.124884,-0.030868
1005,2890862496,0.444956,-0.409526,-0.205147,-0.769559,-0.436655,-1.192083,-0.202179
1006,2890895830,0.430210,-0.415852,-0.193685,-0.777481,0.085173,-1.074327,0.070142
1007,2890929164,0.412428,-0.423377,-0.179287,-0.786457,-0.298192,0.866141,0.928391
1008,2890962498,0.391505,-0.431772,-0.165193,-0.795620,-0.242184,1.968237,1.681049
1009,2890995832,0.374485,-0.436893,-0.161419,-0.801768,0.337312,1.962408,0.926587
1010,2891029166,0.362708,-0.439461,-0.166465,-0.804742,0.346360,0.695614,-0.017444
1011,2891062500,0.354247,-0.438664,-0.176912,-0.806715,0.981836,-1.826201,-0.213290
1012,2891095834,0.347582,-0.437221,-0.186034,-0.808344,-1.294948,-0.930547,-1.042105
1013,2891129168,0.340080,-0.436219,-0.191318,-0.810839,-0.844655,-1.711698,-0.351630
1014,2891162502,0.332697,-0.434483,-0.195628,-0.813800,-0.350454,-1.743537,-1.402853
1015,2891195836,0.326053,-0.433150,-0.200881,-0.815917,0.247772,-1.275309,-0.800287
1016,2891229170,0.320893,-0.434770,-0.201250,-0.817009,-0.771688,0.406693,-0.541737
1017,2891262504,0.319194,-0.437238,-0.199725,-0.816732,0.012627,-0.090597,0.506025
1018,2891295838,0.321411,-0.438679,-0.201241,-0.814715,-0.443031,0.019375,0.802683
1019,2891329172,0.325174,-0.440203,-0.204044,-0.811698,-0.278904,0.049869,0.545719
1020,2891362506,0.326724,-0.441868,-0.204392,-0.810081,-1.303584,-0.141313,-1.044091
1021,2891395840,0.326565,-0.444971,-0.201646,-0.809134,0.404190,-1.676150,0.633818
1022,2891429174,0.324714,-0.448275,-0.192370,-0.810314,-0.019587,0.074728,-0.051991
1023,2891462508,0.324171,-0.449599,-0.181333,-0.812339,1.387104,0.154584,0.048735
1024,2891495842,0.326440,-0.449205,-0.170833,-0.813923,0.752973,0.719917,0.365790
1025,2891529176,0.330285,-0.448543,-0.159862,-0.814965,-0.361068,0.091441,0.421469
1026,2891562510,0.334275,-0.449112,-0.148258,-0.815219,0.187661,0.335047,-0.228705
1027,2891595844,0.340148,-0.450282,-0.139262,-0.813729,0.536484,0.635724,-0.128723
1028,2891629178,0.347833,-0.450630,-0.133039,-0.811326,-0.055314,-0.131344,0.494927
1029,2891662512,0.353943,-0.451682,-0.124864,-0.809395,-0.908814,0.366054,0.745180
1030,2891695846,0.357453,-0.452566,-0.116263,-0.808640,-0.318855,0.188851,1.028804
1031,2891729180,0.357626,-0.454634,-0.107878,-0.808565,-0.775818,0.680807,0.383162
1032,2891762514,0.356737,-0.458009,-0.100477,-0.808006,-0.907864,0.547020,-0.558406
1033,2891795848,0.357272,-0.459585,-0.097601,-0.807227,0.369747,-0.447405,0.161418
1034,2891829182,0.359297,-0.459555,-0.094160,-0.806754,-1.225294,0.255388,0.120324
1035,2891862516,0.361579,-0.458457,-0.090709,-0.806755,-1.279507,0.300921,-0.507153
1036,2891895850,0.361347,-0.455920,-0.085296,-0.808884,-0.967119,-0.441368,-0.319241
1037,2891929184,0.358533,-0.453985,-0.076600,-0.812088,-0.075706,0.242080,0.615367
1038,2891962518,0.354488,-0.453132,-0.067406,-0.815150,-0.879828,0.006115,0.001643
1039,2891995852,0.353204,-0.452583,-0.063451,-0.816329,-0.260802,0.152758,0.741209
1040,2892029186,0.353551,-0.452791,-0.061606,-0.816205,0.274512,0.361651,0.805309
1041,2892062520,0.353902,-0.453584,-0.058629,-0.815832,-0.755454,-0.490646,-0.390051
1042,2892095854,0.353423,-0.454744,-0.054942,-0.815650,0.200481,-0.446569,-0.150793
1043,2892129188,0.351159,-0.456186,-0.050121,-0.816133,-0.599852,0.596412,0.073810
1044,2892162522,0.347582,-0.456369,-0.046777,-0.817759,0.133806,1.614528,0.008763
1045,2892195856,0.343794,-0.455847,-0.044368,-0.819783,0.322891,0.296460,0.105741
1046,2892229190,0.341848,-0.453270,-0.045409,-0.821966,1.181972,-0.482538,1.017884
1047,2892262524,0.338578,-0.451660,-0.045601,-0.824192,0.007253,0.462559,0.211471
1048,2892295858,0.336510,-0.449000,-0.048835,-0.826304,0.138179,0.674902,0.812118
1049,2892329192,0.336149,-0.445868,-0.054704,-0.827778,0.072493,0.959074,0.435739
1050,2892362526,0.336140,-0.442382,-0.061222,-0.829195,-0.456939,0.305587,0.573047
1051,2892395860,0.334567,-0.438799,-0.067843,-0.831217,-0.218380,-0.164131,0.433540
1052,2892429194,0.331493,-0.435695,-0.072936,-0.833646,-1.466297,-0.142376,-1.010590
1053,2892462528,0.329225,-0.432521,-0.082035,-0.835350,0.473515,-0.433806,0.595787
1054,2892495862,0.324734,-0.431288,-0.088532,-0.837081,-0.691046,1.423971,0.216214
1055,2892529196,0.319067,-0.432115,-0.094981,-0.838126,0.428089,-0.529562,1.923146
1056,2892562530,0.312871,-0.433245,-0.098497,-0.839472,0.313920,-0.160854,1.246938
1057,2892595864,0.305989,-0.433836,-0.100800,-0.841427,-0.643805,-2.050486,-1.543000
1058,2892629198,0.298338,-0.435806,-0.099516,-0.843307,-1.577925,-1.647433,-1.295642
1059,2892662532,0.287995,-0.438270,-0.092480,-0.846421,-1.405165,-1.421185,-0.454042
1060,2892695866,0.277562,-0.442216,-0.084206,-0.848715,-1.262556,-0.899179,-0.407741
1061,2892729200,0.267110,-0.446642,-0.077151,-0.850420,-0.055348,-0.798294,0.061999
1062,2892762534,0.258260,-0.451401,-0.071993,-0.851093,0.816565,0.448355,0.694420
1063,2892795868,0.249831,-0.455645,-0.068008,-0.851676,0.274011,-0.719506,0.130476
1064,2892829202,0.240335,-0.459011,-0.063944,-0.852914,0.199896,-1.272622,0.040079
1065,2892862536,0.229166,-0.462114,-0.057158,-0.854793,-0.603468,-1.014114,-0.524138
1066,2892895870,0.218794,-0.464893,-0.050519,-0.856420,-0.590625,-0.160831,-0.287586
1067,2892929204,0.212145,-0.466104,-0.046757,-0.857647,0.001968,-1.024816,-0.379771
1068,2892962538,0.206700,-0.467312,-0.041516,-0.858589,0.134449,-0.678756,0.105971
1069,2892995872,0.203095,-0.467775,-0.036370,-0.859430,-0.075826,0.504091,0.386189
1070,2893029206,0.201877,-0.467051,-0.032490,-0.860266,0.626389,-0.119489,0.071115
1071,2893062540,0.201040,-0.465993,-0.026955,-0.861226,0.424809,0.271104,-0.092220
1072,2893095874,0.201530,-0.463640,-0.017299,-0.862628,-0.068255,0.038185,0.021664
1073,2893129208,0.200786,-0.461656,-0.004638,-0.864026,-0.251423,-1.285299,0.241076
1074,2893162542,0.199043,-0.459053,0.010829,-0.865759,0.008209,-0.087217,0.488637
1075,2893195876,0.196070,-0.457021,0.029911,-0.867063,-0.278392,2.391869,-0.446978
1076,2893229210,0.195453,-0.453995,0.046127,-0.868080,-0.201996,0.186056,0.366742
1077,2893262544,0.190732,-0.452233,0.063893,-0.868924,-1.383982,0.353931,0.083127
1078,2893295878,0.183335,-0.452760,0.077043,-0.869175,-0.156240,1.148678,1.181874
1079,2893329212,0.175994,-0.453872,0.083646,-0.869501,1.159047,0.985013,1.971769
1080,2893362546,0.170016,-0.455815,0.088661,-0.869178,-0.105342,1.214420,-0.291493
1081,2893395880,0.169308,-0.456958,0.088113,-0.868771,-0.292345,-0.682996,-0.217394
1082,2893429214,0.167204,-0.456567,0.089354,-0.869258,-1.517069,-1.506268,-0.126891
1083,2893462548,0.159900,-0.455609,0.094959,-0.870539,-1.312775,-0.388163,0.378507
1084,2893495882,0.147792,-0.454043,0.104329,-0.872423,-0.751548,1.428276,0.534627
1085,2893529216,0.135102,-0.452289,0.110705,-0.874603,0.005233,1.007876,0.025170
1086,2893562550,0.123272,-0.451065,0.114280,-0.876520,0.245411,-0.422461,0.566880
1087,2893595884,0.112445,-0.449829,0.120244,-0.877812,0.104431,0.290515,-0.187538
1088,2893629218,0.103309,-0.448870,0.126137,-0.878599,-0.422150,0.807643,-0.517009
1089,2893662552,0.096758,-0.447877,0.129779,-0.879321,-0.660886,0.025810,-0.275075
1090,2893695886,0.088639,-0.446464,0.134837,-0.880134,-0.477552,0.198684,-0.453021
1091,2893729220,0.076892,-0.443982,0.142729,-0.881249,-0.706810,-0.594773,-0.155457
1092,2893762554,0.064153,-0.442204,0.150794,-0.881819,-0.200201,1.270117,-0.154712
1093,2893795888,0.050659,-0.440916,0.157543,-0.882162,0.077538,-1.340974,0.940126
1094,2893829222,0.034054,-0.439758,0.168379,-0.881536,0.675262,-0.513058,1.001375
1095,2893862556,0.014376,-0.437777,0.181599,-0.880437,1.336462,1.279324,1.053532
1096,2893895890,-0.005264,-0.434988,0.192801,-0.879539,-0.314286,-0.793613,-0.110309
1097,2893929224,-0.026584,-0.431958,0.202652,-0.878431,-0.223403,0.689601,0.020470
1098,2893962558,-0.049347,-0.430220,0.211565,-0.876196,-0.620236,1.656259,-0.080444
1099,2893995892,-0.068030,-0.431627,0.216895,-0.872944,-0.007026,1.693269,1.279502
1100,2894029226,-0.078089,-0.435430,0.215001,-0.870678,-1.143230,0.916471,1.260440
1101,2894062560,-0.078341,-0.441350,0.209847,-0.868931,-1.738899,1.974415,-1.183302
1102,2894095894,-0.072201,-0.449762,0.199928,-0.867487,-1.600581,1.689444,-1.493362
1103,2894129228,-0.067656,-0.457310,0.189310,-0.866289,-1.359807,-1.604542,-2.028272
1104,2894162562,-0.075082,-0.460651,0.188070,-0.864174,1.670541,-2.537503,0.125929
1105,2894195896,-0.087791,-0.459771,0.188500,-0.863351,3.473977,-1.587131,1.607991
1106,2894229230,-0.098800,-0.456428,0.193700,-0.862784,0.690222,-0.382182,1.116511
1107,2894262564,-0.102437,-0.454941,0.194629,-0.862936,-0.724151,-1.596474,1.156587
1108,2894295898,-0.101630,-0.454396,0.193072,-0.863668,0.055938,-1.954239,0.518516
1109,2894329232,-0.098963,-0.453304,0.190603,-0.865099,0.527137,-0.828799,0.030858
1110,2894362566,-0.095997,-0.451372,0.188252,-0.866956,0.302855,-0.190412,-0.734885
1111,2894395900,-0.094467,-0.447948,0.187703,-0.869016,-0.295537,-0.373491,-0.204958
1112,2894429234,-0.094494,-0.443611,0.190276,-0.870677,-0.075821,0.714758,-0.226521
1113,2894462568,-0.095591,-0.436470,0.192698,-0.873629,-0.689670,-0.433023,0.089270
1114,2894495902,-0.097279,-0.427899,0.196619,-0.876803,-0.147262,-0.271023,-0.062295
1115,2894529236,-0.101042,-0.418643,0.202705,-0.879456,0.063637,0.064947,0.600163
1116,2894562570,-0.104199,-0.411744,0.208819,-0.880913,-0.577988,0.734644,0.704154
1117,2894595904,-0.105432,-0.408452,0.213958,-0.881066,1.016280,0.777926,1.044822
1118,2894629238,-0.104843,-0.408205,0.215904,-0.880776,-0.198259,1.504280,0.209167
1119,2894662572,-0.101249,-0.410177,0.215142,-0.880466,0.238588,1.146025,0.224574
1120,2894695906,-0.097583,-0.412343,0.213595,-0.880245,-0.356483,0.635601,-0.291733
1121,2894729240,-0.095883,-0.413907,0.212156,-0.880046,-1.874896,0.698320,-0.643258
1122,2894762574,-0.095012,-0.415305,0.210765,-0.879816,-0.477626,0.960527,-0.584595
1123,2894795908,-0.095250,-0.415264,0.211762,-0.879570,0.409090,0.243751,0.623434
1124,2894829242,-0.095961,-0.415011,0.211891,-0.879581,0.173512,0.277249,0.147266
1125,2894862576,-0.097535,-0.416552,0.208694,-0.879444,0.197557,0.520586,0.612511
1126,2894895910,-0.098685,-0.418820,0.205761,-0.878930,0.427508,-0.038574,0.877217
1127,2894929244,-0.099770,-0.420570,0.203309,-0.878542,0.049436,-0.576804,-0.106188
1128,2894962578,-0.100075,-0.423089,0.199243,-0.878229,-0.719528,0.041265,0.030658
1129,2894995912,-0.100206,-0.425086,0.196170,-0.877942,0.058208,0.511961,-0.108950
1130,2895029246,-0.102084,-0.425839,0.193306,-0.877995,-0.199786,-0.272855,-0.627133
1131,2895062580,-0.105659,-0.425916,0.191078,-0.878023,-0.015373,-0.099138,0.444670
1132,2895095914,-0.111874,-0.424614,0.191444,-0.877804,0.684216,0.289429,0.686905
1133,2895129248,-0.119101,-0.423326,0.191706,-0.877418,-0.070766,0.165841,0.223481
1134,2895162582,-0.125178,-0.423064,0.189777,-0.877118,0.328227,-0.659691,0.657891
1135,2895195916,-0.131219,-0.423991,0.186972,-0.876389,-0.461020,-0.636183,1.195015
1136,2895229250,-0.139800,-0.425519,0.184558,-0.874832,-1.444662,-0.885836,0.487225
1137,2895262584,-0.148307,-0.427801,0.180613,-0.873140,0.146407,0.563313,0.222575
1138,2895295918,-0.156886,-0.432086,0.178388,-0.869982,-0.091982,1.917790,0.290433
1139,2895329252,-0.171038,-0.433543,0.182587,-0.865709,0.330274,1.094173,0.155159
1140,2895362586,-0.189543,-0.433681,0.190755,-0.860006,0.720726,1.051340,0.576436
1141,2895395920,-0.207401,-0.433165,0.195510,-0.855062,0.649130,-0.201485,0.988859
1142,2895429254,-0.216476,-0.434030,0.197011,-0.852025,-4.112348,2.752649,0.720116
1143,2895462588,-0.220509,-0.439399,0.196756,-0.848289,-1.411628,1.520162,-1.474253
1144,2895495922,-0.220261,-0.445447,0.190149,-0.846705,3.166164,-0.291965,0.917028
1145,2895529256,-0.218274,-0.448065,0.182727,-0.847471,-2.129154,1.400288,0.230876
1146,2895562590,-0.216206,-0.450091,0.174148,-0.848734,-0.762225,1.351476,-1.383957
1147,2895595924,-0.214000,-0.453725,0.170384,-0.848122,1.277428,1.211160,-0.436153
1148,2895629258,-0.209633,-0.458205,0.169724,-0.846935,-1.651379,-0.099196,0.264511
1149,2895662592,-0.206214,-0.462824,0.172728,-0.844653,0.095216,0.673642,-0.064267
1150,2895695926,-0.201117,-0.468121,0.175312,-0.842428,-0.031953,0.315467,-0.099423
1151,2895729260,-0.193592,-0.473645,0.174048,-0.841364,-0.051485,0.343347,0.366476
1152,2895762594,-0.188947,-0.474473,0.169844,-0.842812,3.328888,-10.457418,0.647874
1153,2895795928,-0.184862,-0.474402,0.176813,-0.842324,-2.257601,7.405734,5.200242
1154,2895829262,-0.175166,-0.478467,0.177028,-0.842052,-0.572853,1.350379,-1.294450
1155,2895862596,-0.165192,-0.482383,0.180052,-0.841191,0.749994,-0.749903,1.235471
1156,2895895930,-0.156309,-0.485187,0.185204,-0.840157,-3.068665,0.906061,-0.322746
1157,2895929264,-0.146959,-0.490440,0.190018,-0.837716,0.046487,1.388364,0.387313
1158,2895962598,-0.137670,-0.494593,0.195796,-0.835519,-1.020671,0.287113,1.240134
1159,2895995932,-0.129132,-0.499477,0.202609,-0.832346,-0.050502,0.318117,0.322556
1160,2896029266,-0.122692,-0.503827,0.209379,-0.829017,0.311048,-0.656330,1.246673
1161,2896062600,-0.119986,-0.503310,0.216860,-0.827803,0.580873,-0.673949,0.419477
1162,2896095934,-0.119075,-0.499090,0.218387,-0.830085,0.251928,-0.407448,-0.906922
1163,2896129268,-0.117622,-0.494457,0.213048,-0.834441,0.055528,-0.919111,0.136334
1164,2896162602,-0.115599,-0.491701,0.206290,-0.838042,-0.973902,2.818046,0.368692
1165,2896195936,-0.117404,-0.487988,0.207249,-0.839723,-1.047739,0.449175,-0.020963
1166,2896229270,-0.122364,-0.484674,0.211715,-0.839820,0.355970,1.023817,0.358410
1167,2896262604,-0.128911,-0.481207,0.218650,-0.839058,-0.781253,0.613365,-0.201006
1168,2896295938,-0.132835,-0.480412,0.223742,-0.837557,-1.120290,2.844317,-0.397523
1169,2896329272,-0.134303,-0.481022,0.232593,-0.834557,-0.042100,2.122861,-1.389616
1170,2896362606,-0.135778,-0.482682,0.242922,-0.830406,0.442168,0.827512,0.659979
1171,2896395940,-0.140852,-0.480255,0.253477,-0.827810,0.276151,-0.009971,-0.354137
1172,2896429274,-0.146229,-0.476716,0.264602,-0.825438,0.258518,0.408502,-0.150401
1173,2896462608,-0.150385,-0.473360,0.277287,-0.822454,0.366660,-0.965288,1.654636
1174,2896495942,-0.152855,-0.470174,0.289657,-0.819557,0.114676,-1.074459,0.650373
1175,2896529276,-0.150904,-0.469441,0.299449,-0.816815,0.109976,-1.451042,-1.424190
1176,2896562610,-0.143788,-0.471289,0.301522,-0.816272,0.349709,-0.344421,0.436161
1177,2896595944,-0.134697,-0.473039,0.301811,-0.816703,0.324865,0.344646,0.359437
1178,2896629278,-0.124579,-0.474125,0.303722,-0.816971,-0.153075,1.036184,0.578182
1179,2896662612,-0.114935,-0.475335,0.305439,-0.817042,-0.262574,-0.850031,-0.191748
1180,2896695946,-0.107862,-0.475459,0.305351,-0.817966,0.949316,-0.978439,0.583612
1181,2896729280,-0.104908,-0.473706,0.305888,-0.819166,1.033803,-0.488571,0.201474
1182,2896762614,-0.102529,-0.471075,0.305475,-0.821136,0.412301,0.121075,0.476037
1183,2896795948,-0.097292,-0.469443,0.304360,-0.823120,0.424931,1.143137,-0.312924
1184,2896829282,-0.090235,-0.469124,0.303217,-0.824526,0.503050,0.419030,0.389715
1185,2896862616,-0.084457,-0.468180,0.300386,-0.826708,0.679970,0.128554,0.992427
1186,2896895950,-0.082007,-0.465983,0.299462,-0.828529,0.221413,0.033813,0.743002
1187,2896929284,-0.081661,-0.463845,0.298687,-0.830042,0.025104,-0.293044,0.102979
1188,2896962618,-0.080376,-0.463673,0.296362,-0.831096,0.181168,0.582319,-0.211364
1189,2896995952,-0.076584,-0.464642,0.293729,-0.831847,0.802200,0.368606,0.542195
1190,2897029286,-0.072051,-0.465228,0.291450,-0.832725,0.314163,-0.161213,0.249454
1191,2897062620,-0.067091,-0.465590,0.288850,-0.833843,0.968661,0.265174,-0.306287
1192,2897095954,-0.062256,-0.465010,0.284287,-0.836107,0.877560,-0.023678,-0.008579
1193,2897129288,-0.058452,-0.463457,0.278030,-0.839341,0.709335,0.092887,0.156704
1194,2897162622,-0.056543,-0.460607,0.271816,-0.843068,1.006796,-0.110710,0.388396
1195,2897195956,-0.057128,-0.456857,0.264978,-0.847236,0.899569,0.205971,0.981371
1196,2897229290,-0.060437,-0.452141,0.259925,-0.851092,1.226761,0.799374,0.121819
1197,2897262624,-0.063288,-0.446806,0.255734,-0.854963,0.769088,-0.215318,0.185380
1198,2897295958,-0.066082,-0.441506,0.250263,-0.859114,0.811414,0.335908,-0.125701
1199,2897329292,-0.067462,-0.436291,0.244378,-0.863355,0.710000,0.634111,0.156564
1200,2897362626,-0.068531,-0.431227,0.238885,-0.867343,0.991992,0.604583,0.267570
1201,2897395960,-0.068017,-0.426341,0.232301,-0.871577,0.590763,0.295223,0.019288
1202,2897429294,-0.067138,-0.421810,0.225750,-0.875562,0.228541,0.228332,0.057407
1203,2897462628,-0.066844,-0.417446,0.219894,-0.879159,0.145818,-0.204007,0.034412
1204,2897495962,-0.067533,-0.413751,0.215039,-0.882049,0.489194,0.178923,0.431170
1205,2897529296,-0.068505,-0.410534,0.211119,-0.884421,0.321032,0.011389,0.384525
1206,2897562630,-0.069663,-0.408720,0.207331,-0.886066,-0.182625,0.307592,-0.073550
1207,2897595964,-0.069526,-0.408875,0.201736,-0.887295,0.775182,-0.043346,0.057983
1208,2897629298,-0.068696,-0.410594,0.196339,-0.887777,0.475601,-0.234052,-0.216049
1209,2897662632,-0.067310,-0.413232,0.190814,-0.887864,0.873453,-0.237829,0.244109
1210,2897695966,-0.067941,-0.415543,0.183778,-0.888221,-0.008970,-0.450792,0.496899
1211,2897729300,-0.070374,-0.417348,0.178427,-0.888277,0.912858,0.967450,0.020616
1212,2897762634,-0.072759,-0.419009,0.172345,-0.888503,0.302644,-0.072200,-0.123405
1213,2897795968,-0.073326,-0.420472,0.167384,-0.888714,-0.351258,-0.345362,-0.390950
1214,2897829302,-0.071462,-0.421171,0.163407,-0.889275,0.371972,-1.222110,0.267016
1215,2897862636,-0.067493,-0.421401,0.158435,-0.890375,-0.378982,1.201787,0.077893
1216,2897895970,-0.062927,-0.422338,0.150391,-0.891660,-0.095729,0.779692,0.099009
1217,2897929304,-0.059914,-0.425074,0.138021,-0.892567,-0.402199,1.706430,0.342357
1218,2897962638,-0.061641,-0.426687,0.125639,-0.893508,-0.180163,0.505439,1.014502
1219,2897995972,-0.068861,-0.427528,0.116210,-0.893855,-0.532466,1.461088,0.694124
1220,2898029306,-0.080287,-0.428236,0.113396,-0.892924,-0.107440,0.261929,0.247140
1221,2898062640,-0.091346,-0.428746,0.115940,-0.891288,-0.483145,0.452078,-0.268202
1222,2898095974,-0.096711,-0.428193,0.118757,-0.890617,-0.156713,-2.532957,-0.097145
1223,2898129308,-0.095414,-0.426358,0.119133,-0.891586,0.239853,-0.236440,0.294017
1224,2898162642,-0.092306,-0.423197,0.120930,-0.893176,-0.427328,0.136960,-0.676468
1225,2898195976,-0.090062,-0.419921,0.124634,-0.894441,-1.263257,-0.027046,-0.777523
1226,2898229310,-0.075552,-0.418902,0.125300,-0.896167,1.780179,6.237774,1.449406
1227,2898262644,-0.064013,-0.416815,0.131584,-0.897138,-1.430750,2.622127,-0.389980
1228,2898295978,-0.057231,-0.413773,0.141780,-0.897451,-0.443059,-1.956690,-1.046210
1229,2898329312,-0.053656,-0.410007,0.153314,-0.897504,0.753254,-0.891899,0.886007
1230,2898362646,-0.050882,-0.407325,0.164544,-0.896898,0.213335,0.601242,-0.249612
1231,2898395980,-0.044130,-0.406358,0.170526,-0.896577,0.841284,0.176407,0.539777
1232,2898429314,-0.036284,-0.406160,0.173379,-0.896471,-0.259275,1.151544,-0.509730
1233,2898462648,-0.030060,-0.406637,0.174421,-0.896283,0.154032,0.621009,0.490586
1234,2898495982,-0.027624,-0.404674,0.177767,-0.896592,-0.223446,-0.691640,0.176090
1235,2898529316,-0.029593,-0.401801,0.183846,-0.896596,-0.583363,-0.964827,0.197825
1236,2898562650,-0.033440,-0.400262,0.189277,-0.896019,0.569851,0.233553,0.824133
1237,2898595984,-0.035898,-0.399994,0.191447,-0.895582,0.381733,0.262737,0.951556
1238,2898629318,-0.038116,-0.401017,0.192524,-0.894802,0.292272,0.936300,0.820191
1239,2898662652,-0.041383,-0.401836,0.193018,-0.894183,0.483921,-0.434372,-0.071605
1240,2898695986,-0.046665,-0.403334,0.192479,-0.893364,-0.526179,-0.139273,0.310954
1241,2898729320,-0.054207,-0.404556,0.193735,-0.892114,0.107144,0.586938,0.389839
1242,2898762654,-0.062624,-0.405817,0.194947,-0.890725,-0.398290,-0.357823,-0.119325
1243,2898795988,-0.071558,-0.407898,0.194149,-0.889274,-0.337618,-0.650762,0.425570
1244,2898829322,-0.081882,-0.410464,0.191679,-0.887737,-0.638639,-0.051484,0.322159
1245,2898862656,-0.092841,-0.412895,0.186072,-0.886724,0.039664,-0.397597,0.336132
1246,2898895990,-0.106977,-0.414226,0.181140,-0.885531,0.075109,0.190080,-0.362317
1247,2898929324,-0.122866,-0.416996,0.177540,-0.882893,0.633078,1.420820,-0.132825
1248,2898962658,-0.140030,-0.420176,0.179287,-0.878467,2.315006,0.987792,2.303424
1249,2898995992,-0.158752,-0.419675,0.187868,-0.873716,1.415864,0.328982,0.234643
1250,2899029326,-0.176457,-0.418014,0.195438,-0.869445,0.538581,-0.561239,-1.975116
1251,2899062660,-0.187126,-0.418749,0.195676,-0.866803,-1.403146,-1.731800,-0.208059
1252,2899095994,-0.197669,-0.417069,0.196518,-0.865081,0.364205,-0.541531,1.006225
1253,2899129328,-0.210448,-0.412356,0.199668,-0.863603,-0.441565,-0.618650,-0.254460
1254,2899162662,-0.222385,-0.407173,0.203052,-0.862281,0.454269,0.007371,-0.069120
1255,2899195996,-0.232392,-0.403291,0.205135,-0.860972,0.986961,0.138093,0.466136
1256,2899229330,-0.238216,-0.401829,0.203880,-0.860362,0.328077,0.183839,0.035193
1257,2899262664,-0.240696,-0.401909,0.200041,-0.860536,-0.188809,-0.568879,-0.342343
1258,2899295998,-0.239916,-0.402924,0.194936,-0.861450,0.134799,-0.332486,-0.178246
1259,2899329332,-0.237354,-0.403399,0.189914,-0.863057,-1.013143,-0.848078,-0.468226
1260,2899362666,-0.233851,-0.402784,0.186956,-0.864945,1.217314,0.623603,0.114214
1261,2899396000,-0.230426,-0.400223,0.185334,-0.867399,-0.073666,-0.132392,-0.452436
1262,2899429334,-0.226617,-0.395547,0.185695,-0.870464,0.260895,-0.841053,-0.279791
1263,2899462668,-0.220959,-0.392072,0.185668,-0.873492,0.008663,0.794830,0.609836
1264,2899496002,-0.213213,-0.389380,0.184036,-0.876959,0.006016,-1.272658,0.437249
1265,2899529336,-0.204473,-0.386415,0.183368,-0.880485,-0.122465,0.629770,-0.318303
1266,2899562670,-0.194532,-0.383437,0.182786,-0.884153,0.392910,-0.913863,-0.192431
1267,2899596004,-0.185501,-0.381293,0.183471,-0.886875,-0.818573,-0.485479,-0.122674
1268,2899629338,-0.178311,-0.381045,0.184260,-0.888291,0.651434,-0.032771,1.541675
1269,2899662672,-0.172463,-0.381928,0.184361,-0.889045,0.819481,0.687557,0.512935
1270,2899696006,-0.163993,-0.384043,0.181934,-0.890236,-0.138828,0.615314,-0.161294
1271,2899729340,-0.153611,-0.385364,0.177928,-0.892325,-0.416950,0.309461,-0.105414
1272,2899762674,-0.145794,-0.384908,0.174233,-0.894559,-0.545954,0.177228,0.350801
1273,2899796008,-0.139615,-0.382568,0.172182,-0.896943,-0.496855,0.211536,0.326694
1274,2899829342,-0.138002,-0.379541,0.175730,-0.897790,-0.227557,0.727192,0.067265
1275,2899862676,-0.141369,-0.372504,0.194113,-0.896426,1.451096,1.215719,1.227776
1276,2899896010,-0.143454,-0.369104,0.206470,-0.894739,0.715159,2.111932,-0.637918
1277,2899929344,-0.142669,-0.368868,0.209792,-0.894188,-0.387294,-0.363128,-1.171638
1278,2899962678,-0.142351,-0.369032,0.214073,-0.893156,1.232425,0.764715,0.462428
1279,2899996012,-0.140998,-0.369058,0.214705,-0.893208,-0.038279,-0.431399,0.219140
1280,2900029346,-0.143977,-0.366577,0.221721,-0.892040,-0.269317,0.220146,-0.359857
1281,2900062680,-0.147557,-0.364030,0.226905,-0.891194,-0.467886,-0.038815,-0.154311
1282,2900096014,-0.151631,-0.361938,0.231859,-0.890086,-0.372236,0.775306,0.079191
1283,2900129348,-0.154621,-0.361724,0.228976,-0.890406,0.117237,-0.607033,0.536636
1284,2900162682,-0.159185,-0.361278,0.227065,-0.890272,0.706562,-0.224781,0.946351
1285,2900196016,-0.164923,-0.362116,0.226303,-0.889080,0.533549,0.820467,1.039196
1286,2900229350,-0.170482,-0.365179,0.223709,-0.887433,0.451072,1.061147,0.741871
1287,2900262684,-0.176692,-0.369733,0.229607,-0.882814,0.860402,2.067050,1.237171
1288,2900296018,-0.180419,-0.376694,0.233031,-0.878209,0.539659,1.082569,-0.199284
1289,2900329352,-0.178676,-0.387095,0.226335,-0.875790,0.190730,-0.761090,-0.313316
1290,2900362686,-0.176432,-0.394220,0.218633,-0.875023,-0.100246,-1.697088,-0.757257
1291,2900396020,-0.176062,-0.397184,0.217231,-0.874106,0.001580,-0.841545,-0.684933
1292,2900429354,-0.178625,-0.396944,0.220986,-0.872752,-0.969568,-0.669548,-0.250778
1293,2900462688,-0.183331,-0.393825,0.229223,-0.871064,0.533849,2.033085,-0.291000
1294,2900496022,-0.184223,-0.392874,0.232154,-0.870528,0.154025,1.532231,0.211864
1295,2900529356,-0.184451,-0.391187,0.234522,-0.870606,-0.482701,-0.193848,0.162801
1296,2900562690,-0.182996,-0.391072,0.236792,-0.870350,0.440660,-0.145031,-1.050915
1297,2900596024,-0.175635,-0.394124,0.231771,-0.871840,1.481051,-0.909794,0.484075
1298,2900629358,-0.163944,-0.398814,0.222935,-0.874284,1.707724,0.019214,0.222188
1299,2900662692,-0.147665,-0.403643,0.209591,-0.878261,0.175844,-1.132024,0.067638
1300,2900696026,-0.131513,-0.405989,0.195347,-0.883018,0.329511,-1.004359,0.503095
1301,2900729360,-0.118792,-0.406682,0.189976,-0.885670,-0.005068,1.497432,0.628172
1302,2900762694,-0.105878,-0.406073,0.187588,-0.888093,-0.214682,0.527930,0.340389
1303,2900796028,-0.092913,-0.405673,0.185051,-0.890256,-0.308542,0.372196,-0.311949
1304,2900829362,-0.079357,-0.405122,0.179704,-0.892910,0.706979,0.221260,-0.369324
1305,2900862696,-0.064571,-0.403832,0.173400,-0.895927,0.140820,0.134439,-0.300998
1306,2900896030,-0.049468,-0.401811,0.169160,-0.898604,-0.370306,1.260369,-0.448915
1307,2900929364,-0.033167,-0.402206,0.163422,-0.900237,-0.562205,1.121450,0.750673
1308,2900962698,-0.016790,-0.407050,0.153672,-0.900232,-0.487657,0.643040,0.754786
1309,2900996032,0.000197,-0.413101,0.141466,-0.899632,0.849933,-1.075322,1.172034
1310,2901029366,0.012914,-0.417041,0.134835,-0.898740,-0.272543,-0.183602,0.147064
1311,2901062700,0.026322,-0.420161,0.124738,-0.898452,-0.402891,0.028553,-0.728443
1312,2901096034,0.040135,-0.422552,0.113061,-0.898365,-0.479778,1.226907,0.523777
1313,2901129368,0.050191,-0.423658,0.105937,-0.898207,-0.624607,0.601116,0.216612
1314,2901162702,0.051285,-0.424554,0.107205,-0.897571,-0.570624,-0.214519,-0.308308
1315,2901196036,0.045973,-0.425335,0.114307,-0.896613,0.187115,0.984472,-0.029428
1316,2901229370,0.043701,-0.426486,0.117655,-0.895746,1.060872,0.378542,-0.018099
1317,2901262704,0.046773,-0.427874,0.114230,-0.895372,1.561585,1.181591,1.033026
1318,2901296038,0.052572,-0.428396,0.107766,-0.895602,0.361043,-0.983840,-0.363854
1319,2901329372,0.056379,-0.429131,0.102527,-0.895633,0.215537,0.184400,-0.008665
1320,2901362706,0.059402,-0.429522,0.094534,-0.896130,0.223863,0.251537,-0.052709
1321,2901396040,0.061715,-0.428927,0.083971,-0.897310,-0.153431,0.571768,-0.313241
1322,2901429374,0.062888,-0.427889,0.073973,-0.898603,-0.174263,-0.676710,0.053837
1323,2901462708,0.060538,-0.426542,0.066823,-0.899964,-0.521932,0.204390,0.047715
1324,2901496042,0.057781,-0.425407,0.057669,-0.901314,0.442420,0.272319,1.061346
1325,2901529376,0.052963,-0.424335,0.049042,-0.902626,-0.156130,1.047925,1.166540
1326,2901562710,0.048193,-0.425652,0.039015,-0.902762,-0.575210,1.333793,1.330144
1327,2901596044,0.044888,-0.430381,0.027012,-0.901128,-0.426260,2.532923,1.022937
1328,2901629378,0.044943,-0.437923,0.012867,-0.897798,-0.092772,0.268278,-0.321585
1329,2901662712,0.047968,-0.443203,-0.001902,-0.895137,0.925576,-1.468553,0.208968
1330,2901696046,0.051846,-0.445997,-0.016225,-0.893386,-0.478021,-1.505310,-1.221992
1331,2901729380,0.056371,-0.447261,-0.028382,-0.892176,-1.004823,-0.554421,-0.596765
1332,2901762714,0.059563,-0.448521,-0.037668,-0.890992,-1.536963,0.073325,-0.789678
1333,2901796048,0.059323,-0.448896,-0.043661,-0.890545,-0.762993,0.413004,0.142360
1334,2901829382,0.055028,-0.448812,-0.043882,-0.890852,-0.560056,0.100176,-0.026156
1335,2901862716,0.050792,-0.449588,-0.040817,-0.890858,-0.389020,0.294098,-0.746055
1336,2901896050,0.051961,-0.451473,-0.038581,-0.889937,0.793650,-0.316894,0.349718
1337,2901929384,0.058701,-0.453309,-0.037065,-0.888648,0.578227,-1.266681,-0.332003
1338,2901962718,0.069124,-0.455147,-0.038362,-0.886902,0.834695,-1.249155,0.456544
1339,2901996052,0.079889,-0.455451,-0.036780,-0.885908,0.228890,-0.451850,0.449592
1340,2902029386,0.089777,-0.455432,-0.030398,-0.885213,-0.178939,0.445374,0.491664
1341,2902062720,0.098434,-0.455074,-0.020941,-0.884751,0.044115,0.960196,-0.518993
1342,2902096054,0.107842,-0.454153,-0.014402,-0.884257,0.382237,0.935158,-0.612318
1343,2902129388,0.118026,-0.453020,-0.009771,-0.883601,0.560164,0.232252,-0.008945
1344,2902162722,0.129466,-0.450418,-0.007463,-0.883352,0.738500,0.150604,0.202488
1345,2902196056,0.142582,-0.446639,-0.003617,-0.883275,0.890498,1.159965,0.651039
1346,2902229390,0.155759,-0.441803,0.000202,-0.883489,0.279624,-1.126602,-0.550391
1347,2902262724,0.168783,-0.438979,0.003809,-0.882496,-0.128568,0.793266,0.684235
1348,2902296058,0.177862,-0.438228,0.006478,-0.881069,0.801343,1.913572,1.192821
1349,2902329392,0.189031,-0.439032,0.000415,-0.878363,1.327371,1.748438,1.865264
1350,2902362726,0.202104,-0.439481,-0.011434,-0.875148,0.650854,0.688314,0.779873
1351,2902396060,0.217723,-0.437000,-0.027333,-0.872287,0.545572,0.353072,0.060807
1352,2902429394,0.232963,-0.433620,-0.043768,-0.869362,-0.935451,1.126873,-0.113508
1353,2902462728,0.243618,-0.430031,-0.055537,-0.867550,-1.025072,-0.078797,0.789287
1354,2902496062,0.249446,-0.427978,-0.062170,-0.866459,-1.360435,0.627248,0.070716
1355,2902529396,0.250981,-0.426582,-0.066061,-0.866415,-0.251612,-0.400201,0.930768
1356,2902562730,0.246887,-0.425675,-0.063386,-0.868236,-1.318101,0.138572,-1.575716
1357,2902596064,0.243614,-0.423950,-0.064254,-0.869939,-0.779126,0.717627,-1.371138
1358,2902629398,0.241370,-0.421651,-0.070489,-0.871198,-0.156864,-0.106579,-0.785857
1359,2902662732,0.240578,-0.417951,-0.080558,-0.872326,0.213416,0.203023,-0.165487
1360,2902696066,0.240010,-0.415127,-0.091207,-0.872782,-0.916367,0.249378,0.695240
1361,2902729400,0.239632,-0.412988,-0.100378,-0.872895,-0.016214,0.097717,1.836178
1362,2902762734,0.237425,-0.411082,-0.105772,-0.873760,-0.028112,0.568507,1.554379
1363,2902796068,0.233777,-0.409469,-0.111658,-0.874768,-0.080625,-0.087970,0.684603
1364,2902829402,0.230586,-0.408166,-0.118973,-0.875260,-1.443354,1.228296,-0.409597
1365,2902862736,0.227882,-0.407513,-0.126842,-0.875167,-1.044858,0.317856,-0.333283
1366,2902896070,0.224955,-0.408184,-0.133837,-0.874570,-0.796946,0.523144,-0.202434
1367,2902929404,0.221337,-0.408955,-0.139891,-0.874185,-0.537106,0.170785,0.073299
1368,2902962738,0.217292,-0.411759,-0.143004,-0.873380,-0.684888,-0.307354,0.483765
1369,2902996072,0.211277,-0.417500,-0.143140,-0.872107,-0.793256,-0.312508,1.685704
1370,2903029406,0.207629,-0.424499,-0.143055,-0.869615,0.840779,0.543033,-0.010054
1371,2903062740,0.211291,-0.428543,-0.153936,-0.864878,1.135428,-0.087462,-1.259731
1372,2903096074,0.217361,-0.431073,-0.167484,-0.859583,-0.727327,-2.623274,-0.778421
1373,2903129408,0.221450,-0.434451,-0.174526,-0.855428,-1.652135,-1.376841,-0.815815
1374,2903162742,0.222125,-0.438009,-0.174367,-0.853468,-1.183741,-0.164608,-0.679523
1375,2903196076,0.219346,-0.441550,-0.168525,-0.853536,0.108308,0.680306,0.344258
1376,2903229410,0.217868,-0.443942,-0.163493,-0.853652,0.729112,0.914819,-0.138738
1377,2903262744,0.221863,-0.445204,-0.163982,-0.851871,1.063890,0.131608,0.130207
1378,2903296078,0.231031,-0.445423,-0.167407,-0.848647,1.564617,0.047178,0.061735
1379,2903329412,0.242328,-0.444160,-0.170690,-0.845498,0.994685,-0.634765,0.198925
1380,2903362746,0.254129,-0.443030,-0.172024,-0.842350,0.162611,0.158674,0.105875
1381,2903396080,0.265544,-0.441726,-0.171440,-0.839628,0.390387,0.316361,0.653782
1382,2903429414,0.277313,-0.439873,-0.169805,-0.837125,0.386819,0.459246,-0.094406
1383,2903462748,0.291686,-0.436373,-0.172140,-0.833588,0.630224,1.472073,0.152750
1384,2903496082,0.306177,-0.430070,-0.177497,-0.830539,0.917408,0.513372,-0.118512
1385,2903529416,0.320345,-0.422576,-0.184682,-0.827469,0.049728,-0.180647,-0.020411
1386,2903562750,0.332613,-0.414304,-0.188496,-0.825950,-0.056653,-0.590306,-0.428982
1387,2903596084,0.344195,-0.408507,-0.189726,-0.823808,-1.271614,0.335206,0.490987
1388,2903629418,0.351104,-0.406301,-0.186101,-0.822809,-0.387800,-0.993513,1.034158
1389,2903662752,0.353965,-0.409369,-0.178041,-0.821846,-1.164437,1.925548,0.937530
1390,2903696086,0.356222,-0.412080,-0.174895,-0.820190,0.780587,0.128530,0.628514
1391,2903729420,0.359762,-0.414196,-0.173120,-0.817952,-1.106980,0.233885,-1.183509
1392,2903762754,0.365463,-0.415174,-0.175004,-0.814521,-1.045459,-0.519656,-0.936967
1393,2903796088,0.370754,-0.414726,-0.180787,-0.811088,-0.979277,-1.189877,0.476263
1394,2903829422,0.370925,-0.417771,-0.182728,-0.809009,-2.913878,1.362779,0.338961
1395,2903862756,0.367047,-0.421488,-0.183591,-0.808654,0.368234,0.121041,1.219966
1396,2903896090,0.360683,-0.426629,-0.182527,-0.809063,-0.976064,1.720103,0.286180
1397,2903929424,0.358282,-0.430008,-0.189231,-0.806798,-0.153625,0.205662,-0.004638
1398,2903962758,0.361409,-0.432447,-0.202226,-0.800925,-0.080908,-1.237970,-0.639805
1399,2903996092,0.368538,-0.436014,-0.215494,-0.792236,0.226466,-0.581735,0.493728
1400,2904029426,0.374852,-0.441978,-0.223987,-0.783566,-1.473743,-0.292532,-0.406518
1401,2904062760,0.379725,-0.449932,-0.233927,-0.773726,0.515284,-0.345287,0.824167
1402,2904096094,0.378981,-0.459640,-0.238366,-0.767000,-0.347011,0.109786,0.001199
1403,2904129428,0.376559,-0.468579,-0.245184,-0.760608,0.198346,-0.319949,0.214133
1404,2904162762,0.373774,-0.475239,-0.254380,-0.754808,-0.068378,1.073847,0.221166
1405,2904196096,0.370291,-0.478354,-0.265323,-0.750780,0.129059,0.094942,-0.062237
1406,2904229430,0.364597,-0.479893,-0.275133,-0.749051,-0.215604,-0.356382,0.017223
1407,2904262764,0.355251,-0.482730,-0.280384,-0.749771,-0.359529,0.249104,0.802199
1408,2904296098,0.344095,-0.486327,-0.282231,-0.751953,0.148257,1.028107,1.230059
1409,2904329432,0.334665,-0.488401,-0.284375,-0.754055,0.653221,0.568443,0.588408
1410,2904362766,0.327663,-0.487655,-0.288316,-0.756113,0.503569,-0.654417,-0.540076
1411,2904396100,0.323357,-0.485705,-0.292691,-0.757540,-0.963899,-0.271864,-1.366175
1412,2904429434,0.320312,-0.484412,-0.297432,-0.757814,-0.062453,-1.024171,-0.414851
1413,2904462768,0.315173,-0.482922,-0.298636,-0.760442,-0.219850,0.137420,0.420734
1414,2904496102,0.311316,-0.480631,-0.300818,-0.762619,-1.366184,0.215816,-0.513174
1415,2904529436,0.309066,-0.477228,-0.305092,-0.763972,-0.358012,-0.001014,-0.389707
1416,2904562770,0.310199,-0.473290,-0.312818,-0.762838,0.170426,0.268533,-0.146973
1417,2904596104,0.312805,-0.470395,-0.317858,-0.761480,0.513048,-0.934275,-0.449906
1418,2904629438,0.317867,-0.468193,-0.319652,-0.759988,0.093644,-0.801537,-0.886034
1419,2904662772,0.324787,-0.466320,-0.321399,-0.757473,0.738819,-0.275387,-0.101940
1420,2904696106,0.333512,-0.463053,-0.324572,-0.754327,0.934475,-0.169176,0.070685
1421,2904729440,0.342324,-0.458753,-0.325907,-0.752428,1.928160,-0.218182,0.000874
1422,2904762774,0.346981,-0.453496,-0.324786,-0.753965,2.018235,0.840419,0.317115
1423,2904796108,0.349815,-0.447369,-0.321667,-0.757643,1.326080,0.660206,0.267514
1424,2904829442,0.352426,-0.440889,-0.315293,-0.762893,-1.632886,0.695462,-0.826381
1425,2904862776,0.359326,-0.432878,-0.310763,-0.766114,-2.044092,0.131552,1.097609
1426,2904896110,0.364214,-0.426679,-0.299223,-0.771856,-3.307133,-0.762814,1.265209
1427,2904929444,0.364569,-0.423086,-0.282476,-0.779935,-1.861897,-1.082144,1.562074
1428,2904962778,0.361793,-0.422199,-0.262774,-0.788547,-0.717987,0.198620,0.202866
1429,2904996112,0.360060,-0.421584,-0.247090,-0.794716,1.178937,0.008377,0.039875
1430,2905029446,0.360856,-0.419974,-0.237244,-0.798200,-0.238125,0.284077,-0.451404
1431,2905062780,0.363824,-0.416746,-0.232721,-0.799874,-0.926441,-0.249871,0.233498
1432,2905096114,0.366392,-0.413428,-0.228161,-0.801736,-1.329277,-0.023460,0.468693
1433,2905129448,0.367099,-0.411048,-0.220851,-0.804677,-1.348105,-0.222331,1.405879
1434,2905162782,0.364008,-0.410856,-0.208565,-0.809444,-1.819385,0.092225,0.480986
1435,2905196116,0.358770,-0.411009,-0.195387,-0.814974,-0.358006,-0.152423,0.090586
1436,2905229450,0.352951,-0.412914,-0.179827,-0.820118,-0.334598,0.697887,-0.523643
1437,2905262784,0.348703,-0.414901,-0.166210,-0.823797,1.367804,0.172125,-0.161962
1438,2905296118,0.344256,-0.417458,-0.152783,-0.826969,1.298536,0.351568,-0.582464
1439,2905329452,0.340259,-0.419002,-0.144257,-0.829370,2.120010,-0.036765,-0.085310
1440,2905362786,0.337189,-0.418834,-0.139551,-0.831511,1.146216,1.433317,-0.353712
1441,2905396120,0.337028,-0.417878,-0.139916,-0.831995,0.678446,0.175563,0.136964
1442,2905429454,0.336841,-0.417347,-0.140696,-0.832206,0.455529,0.396273,0.668414
1443,2905462788,0.335791,-0.415950,-0.142606,-0.833005,0.951856,-0.772301,0.355352
1444,2905496122,0.333041,-0.415158,-0.143912,-0.834278,-0.106899,0.487907,1.037545
1445,2905529456,0.329197,-0.415203,-0.144551,-0.835670,-0.662073,0.238041,0.548063
1446,2905562790,0.325538,-0.416469,-0.144585,-0.836467,-0.741073,-0.926448,-0.023469
1447,2905596124,0.321183,-0.419253,-0.143768,-0.836901,-0.717460,-0.780446,-0.263927
1448,2905629458,0.316678,-0.423752,-0.143579,-0.836384,-0.401624,-0.099917,-0.128210
1449,2905662792,0.311380,-0.429756,-0.144103,-0.835219,-0.193210,0.289261,0.403578
1450,2905696126,0.304793,-0.437740,-0.143358,-0.833629,-0.320411,1.086770,0.886155
1451,2905729460,0.298279,-0.444942,-0.144386,-0.831993,0.656954,0.488711,0.904794
1452,2905762794,0.293108,-0.449668,-0.147788,-0.830691,0.621010,-0.330127,-0.415454
1453,2905796128,0.289539,-0.452345,-0.152491,-0.829639,-0.499506,-0.386843,-0.953889
1454,2905829462,0.288841,-0.453390,-0.159224,-0.828045,-0.942530,-0.776938,-0.927097
1455,2905862796,0.287907,-0.454021,-0.163804,-0.827132,-0.131693,-1.494240,-1.003504
1456,2905896130,0.283724,-0.454709,-0.164514,-0.828057,0.139320,-0.759160,-0.074279
1457,2905929464,0.278826,-0.455063,-0.163356,-0.829754,-0.171823,-0.262731,-0.516202
1458,2905962798,0.276970,-0.455699,-0.164751,-0.829751,0.740167,0.297777,0.216333
1459,2905996132,0.280732,-0.454303,-0.171062,-0.827973,1.357618,0.264484,0.843914
1460,2906029466,0.289315,-0.451224,-0.181484,-0.824476,1.096031,0.231561,-0.083832
1461,2906062800,0.302136,-0.445273,-0.194858,-0.820049,1.197755,0.377415,0.063581
1462,2906096134,0.314568,-0.438194,-0.205218,-0.816653,0.584947,-0.094912,-0.502912
1463,2906129468,0.324879,-0.431198,-0.214267,-0.814012,0.662292,-0.852564,-0.058039
1464,2906162802,0.331553,-0.425941,-0.218787,-0.812885,-1.111136,0.863321,-0.476891
