sep=,
DeviceTag:,23_Right
FirmwareVersion:,2.2.1
AppVersion:,2023.6.0
SyncStatus:,Synced
OutputRate:,30Hz
FilterProfile:,General
Measurement Mode:,Sensor fusion Mode - Complete(Quaternion)
StartTime: ,2026-05-01_14:48:48_522 AEST
© Movella Technologies B. V. 2005-2026

PacketCounter,SampleTimeFine,Quat_W,Quat_X,Quat_Y,Quat_Z,FreeAcc_X,FreeAcc_Y,FreeAcc_Z
1,2750921186,0.100990,0.129072,0.657473,-0.735438,1.127510,0.677200,2.950760
2,2750954520,0.073283,0.110395,0.673346,-0.727356,2.145102,0.292301,2.476640
3,2750987854,0.048642,0.100529,0.685085,-0.719850,2.723355,0.013375,1.597408
4,2751021188,0.026928,0.100623,0.692159,-0.714188,3.325872,-0.114189,0.939553
5,2751054522,0.008732,0.107296,0.694856,-0.711046,3.858746,-0.375860,0.341374
6,2751087856,-0.005317,0.115972,0.694711,-0.709858,4.058123,-0.642546,-0.099821
7,2751121190,-0.014995,0.123717,0.693269,-0.709822,4.065559,-0.791608,-0.485910
8,2751154524,-0.020892,0.129902,0.691357,-0.710432,4.014133,-0.791194,-0.777216
9,2751187858,-0.022806,0.134280,0.689290,-0.711567,3.984429,-0.787687,-0.866196
10,2751221192,-0.020222,0.137260,0.686912,-0.713374,3.756776,-0.658756,-0.693246
11,2751254526,-0.013575,0.140638,0.683706,-0.715949,3.379786,-0.425187,-0.277794
12,2751287860,-0.003673,0.145990,0.679267,-0.719214,3.001476,-0.296010,0.244863
13,2751321194,0.009310,0.153521,0.673650,-0.722869,2.553729,-0.145889,0.705813
14,2751354528,0.025551,0.162937,0.666756,-0.726797,1.805802,0.100312,0.977891
15,2751387862,0.044001,0.175343,0.658213,-0.730803,0.804344,0.429264,1.219269
16,2751421196,0.064427,0.190307,0.648350,-0.734353,0.061148,0.381756,0.878613
17,2751454530,0.088036,0.204177,0.638455,-0.736841,-0.368381,0.332869,0.572209
18,2751487864,0.115798,0.212000,0.629720,-0.738308,-0.743204,0.208839,0.478810
19,2751521198,0.146229,0.212021,0.622519,-0.739008,-1.438963,0.099121,0.117479
20,2751554532,0.175898,0.206786,0.616945,-0.738699,-2.132537,0.022025,-0.358748
21,2751587866,0.201099,0.200003,0.612873,-0.737525,-2.507945,-0.061720,-0.806808
22,2751621200,0.220089,0.193379,0.610254,-0.736040,-2.540264,-0.198821,-1.166907
23,2751654534,0.232914,0.186707,0.609129,-0.734746,-2.453403,-0.320917,-1.243554
24,2751687868,0.240292,0.179611,0.609442,-0.733879,-2.415291,-0.331569,-1.222878
25,2751721202,0.242473,0.172864,0.611186,-0.733331,-2.449282,-0.277827,-1.060573
26,2751754536,0.239457,0.167457,0.614387,-0.732902,-2.255447,-0.239454,-0.843371
27,2751787870,0.232243,0.162273,0.619022,-0.732489,-1.777137,-0.275507,-0.564190
28,2751821204,0.222370,0.155762,0.624730,-0.732121,-1.449945,-0.174232,-0.378378
29,2751854538,0.210560,0.148173,0.631185,-0.731651,-1.166257,-0.129140,-0.108415
30,2751887872,0.197369,0.140137,0.638102,-0.730911,-0.761198,-0.139341,0.171813
31,2751921206,0.183390,0.132218,0.645102,-0.729883,-0.356564,-0.086002,0.418831
32,2751954540,0.169069,0.125599,0.651636,-0.728704,0.015314,-0.081261,0.484303
33,2751987874,0.155024,0.121392,0.657253,-0.727495,0.398927,-0.012593,0.491354
34,2752021208,0.141892,0.119703,0.661720,-0.726405,0.750167,0.017840,0.450446
35,2752054542,0.129985,0.120115,0.665027,-0.725544,1.063678,-0.000599,0.361644
36,2752087876,0.119460,0.121966,0.667449,-0.724820,1.280528,0.007802,0.255019
37,2752121210,0.110054,0.124731,0.669292,-0.724139,1.373371,0.040884,0.103234
38,2752154544,0.101385,0.127151,0.671091,-0.723318,1.821161,-0.128720,-0.141976
39,2752187878,0.094320,0.127711,0.672955,-0.722443,1.853477,0.206430,-0.482980
40,2752221212,0.086387,0.128445,0.675319,-0.721098,2.138259,-0.052066,-0.865169
41,2752254546,0.076063,0.131178,0.678947,-0.718357,3.208489,-0.411904,-0.371218
42,2752287880,0.068915,0.131377,0.682729,-0.715451,4.359511,-0.169162,0.125449
43,2752321214,0.072186,0.122905,0.685591,-0.713896,4.778587,0.115306,0.859429
44,2752354548,0.085593,0.108196,0.686269,-0.714144,3.953415,0.380611,1.405788
45,2752387882,0.103922,0.096525,0.683649,-0.715895,2.821153,0.285990,1.882825
46,2752421216,0.122646,0.095001,0.677078,-0.719373,1.704929,0.450302,1.895493
47,2752454550,0.139953,0.104819,0.666823,-0.724412,0.812667,0.474801,1.700972
48,2752487884,0.156507,0.122491,0.653659,-0.730226,0.170828,0.472011,1.276048
49,2752521218,0.173539,0.143382,0.638376,-0.736071,-0.498985,0.512911,0.667298
50,2752554552,0.191193,0.163768,0.621861,-0.741561,-1.261677,0.656829,0.130132
51,2752587886,0.208176,0.181496,0.605328,-0.746524,-2.070321,0.783164,-0.316656
52,2752621220,0.222253,0.196096,0.590392,-0.750724,-2.640689,0.796920,-0.938829
53,2752654554,0.231572,0.207907,0.578767,-0.753775,-2.717137,0.776352,-1.831992
54,2752687888,0.235731,0.216938,0.571582,-0.755421,-2.541244,0.639848,-2.479362
55,2752721222,0.235250,0.222228,0.569024,-0.755965,-2.400617,0.475087,-2.488269
56,2752754556,0.230697,0.222433,0.570400,-0.756270,-2.317813,0.305027,-2.267236
57,2752787890,0.222417,0.217456,0.574883,-0.756803,-2.409133,0.159127,-1.625546
58,2752821224,0.209505,0.209116,0.581616,-0.757694,-2.596736,0.100499,-0.981953
59,2752854558,0.191473,0.200383,0.590517,-0.757941,-2.664109,-0.596582,0.183177
60,2752887892,0.164535,0.198327,0.598621,-0.758450,-4.216949,0.186916,-0.585714
61,2752921226,0.125817,0.211204,0.605619,-0.756828,-2.979899,-0.255525,-0.067350
62,2752954560,0.083039,0.227823,0.612160,-0.752635,-1.282663,-1.654476,1.236563
63,2752987894,0.045217,0.232479,0.619452,-0.748457,-0.270922,-1.787784,2.096827
64,2753021228,0.013609,0.224700,0.627289,-0.745541,-0.101273,-1.842465,1.859892
65,2753054562,-0.016301,0.214880,0.633084,-0.743481,0.430317,-1.614076,1.561182
66,2753087896,-0.045204,0.208681,0.634795,-0.742592,1.458892,-1.170780,1.267928
67,2753121230,-0.070440,0.205481,0.632664,-0.743337,2.373510,-1.086671,1.015017
68,2753154564,-0.091837,0.205453,0.627302,-0.745551,2.971034,-0.932443,0.446667
69,2753187898,-0.110070,0.209616,0.619307,-0.748601,3.366333,-0.494989,-0.242397
70,2753221232,-0.124420,0.216763,0.609600,-0.752277,3.715122,-0.112652,-0.689086
71,2753254566,-0.133705,0.224500,0.599831,-0.756257,3.985879,0.196231,-1.040320
72,2753287900,-0.136853,0.230938,0.591847,-0.760036,4.045255,0.350393,-1.248832
73,2753321234,-0.133169,0.235441,0.587116,-0.762973,3.910495,0.441925,-1.348497
74,2753354568,-0.122335,0.237822,0.586311,-0.764666,3.629756,0.619040,-1.239539
75,2753387902,-0.105038,0.238147,0.589131,-0.764969,3.247783,0.873913,-0.847814
76,2753421236,-0.082318,0.236609,0.594457,-0.764108,2.740161,0.991883,-0.390382
77,2753454570,-0.054861,0.232994,0.601309,-0.762319,2.242447,0.961719,0.222387
78,2753487904,-0.022864,0.226885,0.608969,-0.759708,1.694234,0.862894,0.759917
79,2753521238,0.014121,0.217520,0.616921,-0.756236,1.096996,0.670325,1.272484
80,2753554572,0.055869,0.204566,0.624201,-0.751933,0.407998,0.447367,1.576644
81,2753587906,0.101694,0.188565,0.629596,-0.746799,-0.398130,0.212450,1.656310
82,2753621240,0.149898,0.171312,0.631761,-0.740986,-1.398625,-0.031137,1.521182
83,2753654574,0.197209,0.155243,0.630139,-0.734801,-2.364089,-0.365749,1.032783
84,2753687908,0.239525,0.142743,0.625574,-0.728635,-2.984209,-0.862817,0.269940
85,2753721242,0.273423,0.135308,0.619941,-0.722914,-3.188746,-1.284113,-0.561842
86,2753754576,0.297271,0.133021,0.614963,-0.718161,-3.159452,-1.480843,-1.286804
87,2753787910,0.311238,0.134427,0.611621,-0.714828,-3.005104,-1.478630,-1.701361
88,2753821244,0.316438,0.137379,0.610246,-0.713157,-2.793001,-1.371282,-1.871007
89,2753854578,0.314382,0.139460,0.610850,-0.713145,-2.759985,-1.300967,-1.775826
90,2753887912,0.306003,0.140198,0.613720,-0.714181,-2.606605,-1.109194,-1.391647
91,2753921246,0.292229,0.139297,0.618678,-0.715845,-2.419616,-0.933229,-1.050372
92,2753954580,0.273919,0.136894,0.625283,-0.717808,-2.106489,-0.716663,-0.649704
93,2753987914,0.252000,0.133025,0.632832,-0.719947,-1.782740,-0.567352,-0.176631
94,2754021248,0.227088,0.128236,0.640745,-0.722102,-1.339342,-0.344462,0.369273
95,2754054582,0.200037,0.123053,0.648428,-0.724143,-0.791620,-0.172971,0.755370
96,2754087916,0.171741,0.118609,0.655266,-0.725990,-0.193428,0.085329,1.019381
97,2754121250,0.143274,0.116257,0.660722,-0.727600,0.406402,0.309666,1.111440
98,2754154584,0.115513,0.117228,0.664475,-0.728963,0.990028,0.452740,1.019029
99,2754187918,0.089211,0.122120,0.666440,-0.730058,1.595594,0.487870,0.844646
100,2754221252,0.065513,0.129918,0.666696,-0.730989,2.135895,0.554029,0.530607
101,2754254586,0.045691,0.138735,0.665664,-0.731817,2.501840,0.519851,0.194692
102,2754287920,0.030332,0.147070,0.664093,-0.732414,2.710361,0.466612,-0.083421
103,2754321254,0.019588,0.153755,0.662855,-0.732528,2.860402,0.364618,-0.295736
104,2754354588,0.013715,0.157652,0.662590,-0.732073,2.958947,0.243013,-0.383998
105,2754387922,0.012824,0.158364,0.663402,-0.731200,2.957777,0.162522,-0.392602
106,2754421256,0.016440,0.156898,0.664876,-0.730103,2.804844,0.003629,-0.265661
107,2754454590,0.023929,0.154820,0.666261,-0.729077,2.532922,0.008991,-0.062757
108,2754487924,0.034447,0.153825,0.666838,-0.728339,2.189087,-0.066621,0.146779
109,2754521258,0.047380,0.154742,0.666390,-0.727828,1.900565,-0.162242,0.289227
110,2754554592,0.062917,0.156729,0.665083,-0.727421,1.583806,-0.215452,0.481298
111,2754587926,0.081549,0.158349,0.663027,-0.727096,1.178024,-0.244921,0.627929
112,2754621260,0.103586,0.158450,0.660362,-0.726694,0.689410,-0.254012,0.770512
113,2754654594,0.128705,0.156178,0.657055,-0.726169,0.090551,-0.263740,0.756101
114,2754687928,0.155342,0.151985,0.653069,-0.725444,-0.529395,-0.331282,0.576352
115,2754721262,0.181286,0.147091,0.648465,-0.724563,-1.094561,-0.415842,0.237944
116,2754754596,0.204178,0.142771,0.643548,-0.723721,-1.472899,-0.545044,-0.241989
117,2754787930,0.221917,0.140236,0.638850,-0.723157,-1.675508,-0.568938,-0.613796
118,2754821264,0.234060,0.139327,0.634683,-0.723173,-1.723696,-0.513818,-0.783636
119,2754854598,0.241482,0.138830,0.631137,-0.723932,-1.746199,-0.417452,-0.864270
120,2754887932,0.244550,0.138355,0.628488,-0.725296,-1.847941,-0.229904,-0.843918
121,2754921266,0.243452,0.138312,0.626951,-0.727002,-1.969531,0.061831,-0.660924
122,2754954600,0.238485,0.139083,0.626683,-0.728731,-1.935158,0.350647,-0.581674
123,2754987934,0.230357,0.140745,0.627891,-0.729985,-1.666486,0.558679,-0.608364
124,2755021268,0.220397,0.142296,0.630690,-0.730347,-1.278505,0.626998,-0.659869
125,2755054602,0.209748,0.142010,0.635005,-0.729799,-0.939482,0.740034,-0.656339
126,2755087936,0.199079,0.138679,0.640740,-0.728414,-0.642094,0.744987,-0.640514
127,2755121270,0.188390,0.131843,0.648016,-0.726086,-0.356915,0.722048,-0.359665
128,2755154604,0.177406,0.121186,0.656708,-0.722894,-0.017150,0.673237,-0.006523
129,2755187938,0.165790,0.107356,0.666297,-0.719052,0.389663,0.594273,0.276816
130,2755221272,0.153328,0.092473,0.676334,-0.714500,0.967336,0.484176,0.500656
131,2755254606,0.140634,0.078245,0.686058,-0.709524,1.660555,0.354162,0.560079
132,2755287940,0.129162,0.065807,0.694784,-0.704457,2.248439,0.242268,0.547573
133,2755321274,0.120427,0.055872,0.701912,-0.699782,2.757493,0.207098,0.590582
134,2755354608,0.115318,0.048811,0.706975,-0.696064,3.056369,0.129493,0.588030
135,2755387942,0.113840,0.045088,0.709900,-0.693576,3.057216,-0.014375,0.480589
136,2755421276,0.114852,0.045010,0.710711,-0.692583,2.876866,-0.115850,0.547663
137,2755454610,0.117049,0.048381,0.709378,-0.693354,2.563101,-0.152390,0.623761
138,2755487944,0.119652,0.055236,0.706156,-0.695683,2.224807,-0.120117,0.495429
139,2755521278,0.122752,0.065242,0.701522,-0.698957,1.978462,-0.022730,0.382212
140,2755554612,0.126973,0.076929,0.695945,-0.702580,1.700179,-0.013120,0.427453
141,2755587946,0.132989,0.088274,0.689936,-0.706051,1.481612,-0.092695,-0.030872
142,2755621280,0.140784,0.098437,0.683948,-0.709016,1.141429,-0.117005,-0.304438
143,2755654614,0.149942,0.106513,0.678162,-0.711525,0.782038,-0.130958,-0.299431
144,2755687948,0.160010,0.110865,0.672898,-0.713661,0.563044,-0.201060,-0.230933
145,2755721282,0.169839,0.111153,0.668314,-0.715650,0.197464,-0.155025,-0.120446
146,2755754616,0.178427,0.108553,0.664391,-0.717610,-0.075410,-0.162200,-0.041963
147,2755787950,0.185043,0.105444,0.660721,-0.719782,-0.260892,-0.095236,-0.060177
148,2755821284,0.189477,0.104251,0.657034,-0.722175,-0.354708,0.002040,-0.104622
149,2755854618,0.192318,0.105489,0.653354,-0.724579,-0.273057,0.107329,-0.025515
150,2755887952,0.195209,0.106416,0.649936,-0.726740,-0.212374,0.214893,0.082764
151,2755921286,0.198854,0.104991,0.646855,-0.728706,-0.329229,0.150084,0.134475
152,2755954620,0.202850,0.101900,0.643915,-0.730644,-0.499738,0.163517,0.122969
153,2755987954,0.206299,0.099414,0.640599,-0.732932,-0.794778,0.180553,0.021563
154,2756021288,0.207761,0.100520,0.636858,-0.735624,-0.964394,0.155494,-0.191927
155,2756054622,0.206899,0.105811,0.633049,-0.738407,-1.028791,0.191924,-0.118787
156,2756087956,0.204466,0.113151,0.629302,-0.741193,-1.078088,0.354160,0.039322
157,2756121290,0.201721,0.120230,0.626166,-0.743484,-1.081868,0.161530,0.241945
158,2756154624,0.199607,0.125538,0.623628,-0.745308,-1.181501,0.120339,0.231131
159,2756187958,0.198028,0.129334,0.621397,-0.746942,-1.284447,-0.154164,0.019918
160,2756221292,0.196105,0.133231,0.619824,-0.748071,-1.269316,-0.529971,-0.296847
161,2756254626,0.192927,0.136814,0.619651,-0.748394,-1.103845,-0.953641,-0.590886
162,2756287960,0.188473,0.137646,0.620838,-0.748392,-0.957082,-1.248287,-0.512726
163,2756321294,0.181538,0.135469,0.622738,-0.748925,-0.883745,-1.209791,-0.550446
164,2756354628,0.171906,0.131541,0.624913,-0.750086,-0.549283,-1.172504,-0.348742
165,2756387962,0.160567,0.126562,0.627060,-0.751661,-0.160744,-0.937417,-0.205890
166,2756421296,0.148740,0.120347,0.628971,-0.753517,0.251465,-0.522372,-0.177701
167,2756454630,0.137537,0.112858,0.630593,-0.755446,0.529748,-0.116960,-0.015991
168,2756487964,0.127419,0.104726,0.632111,-0.757120,0.771868,0.194659,0.141378
169,2756521298,0.118604,0.097114,0.633469,-0.758431,0.943989,0.561538,0.155934
170,2756554632,0.111262,0.092400,0.634323,-0.759419,1.019572,0.814832,0.029206
171,2756587966,0.105851,0.091851,0.634487,-0.760121,1.187325,0.994480,-0.085166
172,2756621300,0.103028,0.094720,0.634154,-0.760434,1.286935,1.101058,-0.300412
173,2756654634,0.103229,0.099355,0.633961,-0.759977,1.253870,1.063312,-0.430820
174,2756687968,0.106543,0.103702,0.634625,-0.758383,1.194586,0.834575,-0.308352
175,2756721302,0.112343,0.106517,0.636363,-0.755694,0.896674,0.638035,-0.284488
176,2756754636,0.119292,0.108702,0.638958,-0.752120,0.745934,0.360829,-0.116104
177,2756787970,0.127567,0.109548,0.642274,-0.747803,0.798438,-0.036360,0.388010
178,2756821304,0.138381,0.107039,0.645807,-0.743186,0.746669,-0.442856,0.747501
179,2756854638,0.151787,0.101822,0.648404,-0.739029,0.353352,-0.720596,0.640919
180,2756887972,0.165684,0.097729,0.649171,-0.735917,-0.225288,-1.022338,0.577543
181,2756921306,0.177198,0.097990,0.647766,-0.734437,-0.680643,-1.071482,0.336910
182,2756954640,0.186041,0.101946,0.644381,-0.734689,-0.701528,-0.903429,0.190085
183,2756987974,0.193254,0.105968,0.639741,-0.736311,-0.608922,-0.832947,0.251199
184,2757021308,0.199237,0.107551,0.634249,-0.739232,-1.436326,-0.810563,-0.213849
185,2757054642,0.201424,0.109381,0.629174,-0.742700,-1.055543,-0.264909,-0.538903
186,2757087976,0.201643,0.107248,0.625565,-0.745993,-0.886826,-0.891540,-0.555811
187,2757121310,0.201604,0.099230,0.623335,-0.748973,-0.099511,-0.146351,-0.360275
188,2757154644,0.203675,0.082430,0.622703,-0.750974,-0.265283,-0.044162,-0.457047
189,2757187978,0.202977,0.065570,0.623715,-0.751983,0.027947,0.380593,-0.756618
190,2757221312,0.201830,0.047690,0.627281,-0.750672,0.332445,-0.172087,0.102056
191,2757254646,0.198849,0.032351,0.630471,-0.749612,0.367697,0.008769,0.043578
192,2757287980,0.196391,0.018879,0.634899,-0.746979,1.455371,0.475301,0.323506
193,2757321314,0.196759,0.003547,0.639221,-0.743417,1.656439,0.850612,-0.168175
194,2757354648,0.200270,-0.011927,0.643574,-0.738621,1.075717,1.235902,-0.504756
195,2757387982,0.208809,-0.028737,0.647578,-0.732267,0.766197,0.990705,-0.100858
196,2757421316,0.219290,-0.043919,0.650557,-0.725781,0.810804,1.001399,0.020474
197,2757454650,0.229025,-0.055179,0.652521,-0.720221,0.412134,0.149545,0.296643
198,2757487984,0.234736,-0.057440,0.655016,-0.715927,0.257648,-0.172492,0.221148
199,2757521318,0.236019,-0.050939,0.659167,-0.712179,0.323988,-0.410975,0.128366
200,2757554652,0.234125,-0.038282,0.664510,-0.708623,0.306692,-0.294534,0.102839
201,2757587986,0.234673,-0.028843,0.667807,-0.705783,0.530207,0.654482,0.432000
202,2757621320,0.242936,-0.032724,0.665607,-0.704895,0.030560,0.040911,0.394269
203,2757654654,0.250742,-0.039049,0.658987,-0.708052,-0.775392,-1.557283,0.344017
204,2757687988,0.250139,-0.036441,0.655931,-0.711236,0.086221,-1.617905,0.316861
205,2757721322,0.245739,-0.030169,0.657687,-0.711441,0.264580,-0.786601,0.413566
206,2757754656,0.242715,-0.026461,0.660603,-0.709924,0.011500,-0.628328,0.293784
207,2757787990,0.239341,-0.022279,0.663417,-0.708587,-0.379537,-0.443023,0.058470
208,2757821324,0.234583,-0.016275,0.665426,-0.708458,-0.109360,0.243144,0.287437
209,2757854658,0.230336,-0.011075,0.663642,-0.711619,-0.397887,0.486712,-0.017093
210,2757887992,0.225267,-0.003255,0.659320,-0.717314,-0.577455,0.448749,-0.009368
211,2757921326,0.218618,0.009128,0.653865,-0.724280,-0.304739,0.488703,0.122799
212,2757954660,0.210063,0.024955,0.648400,-0.731319,0.068645,0.671068,0.142807
213,2757987994,0.201101,0.040888,0.643744,-0.737210,0.244216,0.898661,0.067929
214,2758021328,0.193284,0.053979,0.639664,-0.741995,-0.008294,1.078972,-0.158267
215,2758054662,0.186801,0.064532,0.635927,-0.746014,-0.184988,1.158632,-0.355284
216,2758087996,0.180972,0.073426,0.632715,-0.749352,-0.300997,0.963315,-0.473341
217,2758121330,0.174938,0.081813,0.630726,-0.751589,-0.212224,0.758200,-0.503169
218,2758154664,0.168573,0.089354,0.630081,-0.752726,-0.189424,0.642152,-0.429152
219,2758187998,0.161666,0.095970,0.630508,-0.753069,-0.277304,0.414307,-0.286506
220,2758221332,0.153663,0.102240,0.631470,-0.753113,-0.288396,0.046962,-0.105447
221,2758254666,0.143823,0.109333,0.632406,-0.753275,-0.283595,-0.208974,-0.123033
222,2758288000,0.132244,0.118111,0.633394,-0.753241,-0.035575,-0.501062,-0.066118
223,2758321334,0.120369,0.126824,0.634420,-0.752952,0.276146,-0.650811,0.181503
224,2758354668,0.110434,0.131349,0.635844,-0.752498,0.652262,-0.997436,0.643557
225,2758388002,0.103968,0.128850,0.638121,-0.751924,0.858307,-1.392681,0.938009
226,2758421336,0.100452,0.120476,0.640524,-0.751747,0.774725,-1.273733,0.629224
227,2758454670,0.097623,0.111545,0.641755,-0.752447,0.432092,-0.897614,0.292292
228,2758488004,0.093983,0.106108,0.641055,-0.754292,0.460305,-0.544327,0.209965
229,2758521338,0.089930,0.103789,0.638585,-0.757198,0.741211,-0.248844,0.162377
230,2758554672,0.086349,0.103200,0.635101,-0.760618,0.896605,0.031287,-0.044930
231,2758588006,0.084032,0.103996,0.631291,-0.763933,0.891706,0.298580,-0.281720
232,2758621340,0.083437,0.106024,0.627630,-0.766731,0.847630,0.442740,-0.437939
233,2758654674,0.084831,0.108695,0.624400,-0.768838,0.761504,0.487765,-0.509345
234,2758688008,0.088011,0.111781,0.621766,-0.770172,0.578789,0.507452,-0.557536
235,2758721342,0.092609,0.115302,0.620006,-0.770532,0.428440,0.392782,-0.589562
236,2758754676,0.098251,0.118880,0.619275,-0.769878,0.296419,0.238159,-0.594234
237,2758788010,0.104581,0.121760,0.619561,-0.768362,0.191061,0.063659,-0.490954
238,2758821344,0.111613,0.123065,0.620834,-0.766135,0.199847,-0.212374,-0.404762
239,2758854678,0.119749,0.122194,0.623016,-0.763268,0.163852,-0.489299,-0.347949
240,2758888012,0.129236,0.118980,0.625969,-0.759805,0.112192,-0.759193,0.056130
241,2758921346,0.140058,0.113119,0.629087,-0.756199,0.010085,-0.928619,0.391177
242,2758954680,0.151482,0.105933,0.631609,-0.752928,-0.312395,-0.942096,0.463121
243,2758988014,0.161953,0.099538,0.633254,-0.750234,-0.508115,-0.999913,0.906664
244,2759021348,0.170446,0.094300,0.633435,-0.748876,-0.539007,-0.723875,0.614080
245,2759054682,0.176987,0.091394,0.631972,-0.748954,-0.661170,-0.436991,-0.191335
246,2759088016,0.181390,0.092802,0.629560,-0.749759,-0.702307,-0.182611,-0.551311
247,2759121350,0.183743,0.097215,0.627257,-0.750556,-0.638729,0.046634,-0.317861
248,2759154684,0.184825,0.100849,0.625737,-0.751080,-0.574727,0.271695,-0.033155
249,2759188018,0.185065,0.102172,0.625290,-0.751215,-0.610925,0.407520,-0.243670
250,2759221352,0.184422,0.102756,0.626081,-0.750634,-0.497396,0.400200,-0.578092
251,2759254686,0.183095,0.103563,0.628079,-0.749177,-0.283492,0.458980,-0.763204
252,2759288020,0.181870,0.103459,0.631168,-0.746890,-0.124797,0.558829,-0.654679
253,2759321354,0.181092,0.100872,0.635333,-0.743897,-0.112675,0.558446,-0.470605
254,2759354688,0.179999,0.096235,0.640664,-0.740194,-0.103887,0.497040,-0.343816
255,2759388022,0.177869,0.090699,0.647132,-0.735768,0.128051,0.414626,-0.343548
256,2759421356,0.174793,0.084709,0.654431,-0.730747,0.412230,0.374396,-0.247205
257,2759454690,0.171522,0.077744,0.662169,-0.725305,0.809283,0.275195,-0.096918
258,2759488024,0.168893,0.069224,0.670007,-0.719565,1.113885,0.196894,0.095764
259,2759521358,0.167522,0.058979,0.677589,-0.713674,1.439073,0.130106,0.400998
260,2759554692,0.167650,0.047458,0.684464,-0.707918,1.636207,-0.009027,0.564771
261,2759588026,0.168986,0.036132,0.690190,-0.702691,1.839736,-0.030147,0.722526
262,2759621360,0.171616,0.025868,0.694206,-0.698538,2.079618,-0.154362,0.900863
263,2759654694,0.175613,0.017587,0.696075,-0.695937,2.082716,-0.129284,0.854803
264,2759688028,0.180538,0.013208,0.695638,-0.695211,1.814621,-0.096977,0.883860
265,2759721362,0.185551,0.014554,0.692991,-0.696506,1.458516,-0.049068,0.969580
266,2759754696,0.190227,0.021242,0.688579,-0.699442,1.245195,0.032771,0.965665
267,2759788030,0.194784,0.031324,0.682757,-0.703506,0.899833,0.123738,0.783932
268,2759821364,0.199296,0.043425,0.676036,-0.708075,0.502517,0.243687,0.564107
269,2759854698,0.203782,0.056352,0.668891,-0.712657,0.276311,0.268646,0.220982
270,2759888032,0.208403,0.068331,0.661950,-0.716743,0.050152,0.336660,-0.106668
271,2759921366,0.213178,0.078042,0.655660,-0.720121,-0.179172,0.353800,-0.441372
272,2759954700,0.217790,0.084945,0.650482,-0.722651,-0.304340,0.345606,-0.759994
273,2759988034,0.222172,0.088587,0.646642,-0.724324,-0.390448,0.337009,-0.907330
274,2760021368,0.226101,0.088851,0.644165,-0.725282,-0.510867,0.373360,-0.838906
275,2760054702,0.229252,0.086225,0.642941,-0.725696,-0.618990,0.382116,-0.630844
276,2760088036,0.231422,0.081903,0.642845,-0.725592,-0.666992,0.402743,-0.402810
277,2760121370,0.232723,0.077151,0.643707,-0.724934,-0.614903,0.400842,-0.212951
278,2760154704,0.233506,0.072920,0.645229,-0.723765,-0.516785,0.422274,-0.250852
279,2760188038,0.234925,0.068756,0.647291,-0.721869,-0.157574,0.381729,-0.154638
280,2760221372,0.238613,0.062042,0.649548,-0.719236,-0.000083,0.347381,0.004429
281,2760254706,0.245101,0.051630,0.651777,-0.715853,0.059399,0.122863,0.085620
282,2760288040,0.253170,0.039781,0.653937,-0.711820,-0.224282,-0.027685,0.065164
283,2760321374,0.260990,0.028583,0.654440,-0.709066,-0.528736,-0.834210,0.747274
284,2760354708,0.264180,0.022956,0.652016,-0.710321,-1.755137,-0.360128,-0.603197
285,2760388042,0.253918,0.036696,0.648846,-0.716364,-0.716828,-0.939570,-0.574186
286,2760421376,0.236733,0.062238,0.648119,-0.721127,0.377353,-0.501676,-0.249618
287,2760454710,0.221852,0.083284,0.650241,-0.721825,0.921585,-0.025077,0.172830
288,2760488044,0.214830,0.089873,0.653505,-0.720209,0.866564,0.067588,0.353083
289,2760521378,0.216857,0.081311,0.656427,-0.717959,0.550130,0.194928,0.363705
290,2760554712,0.223907,0.064042,0.658487,-0.715653,0.066769,-0.024845,0.218066
291,2760588046,0.230331,0.047304,0.659632,-0.713859,-0.425421,-0.421781,0.114298
292,2760621380,0.231572,0.039298,0.660264,-0.713358,-0.713994,-0.537966,-0.030473
293,2760654714,0.226589,0.042452,0.660525,-0.714535,-0.523104,-0.210522,-0.083046
294,2760688048,0.217692,0.052944,0.660352,-0.716758,-0.019180,-0.042529,-0.016321
295,2760721382,0.208054,0.064640,0.659878,-0.719093,0.364332,0.052324,-0.135870
296,2760754716,0.199941,0.073571,0.659889,-0.720525,0.681202,0.238587,-0.151296
297,2760788050,0.194731,0.076891,0.660390,-0.721146,0.678650,0.067513,-0.074011
298,2760821384,0.191937,0.075445,0.661022,-0.721469,0.558298,-0.069076,-0.017860
299,2760854718,0.189680,0.073108,0.661896,-0.721505,0.494387,-0.055125,-0.038416
300,2760888052,0.187108,0.071532,0.663065,-0.721261,0.475129,0.047521,0.056356
301,2760921386,0.183702,0.070688,0.664219,-0.721158,0.605473,-0.061708,0.071401
302,2760954720,0.179416,0.070235,0.665334,-0.721253,0.908462,-0.099707,-0.134877
303,2760988054,0.175505,0.069555,0.666346,-0.721348,1.182808,-0.062187,-0.166130
304,2761021388,0.173684,0.067741,0.666978,-0.721377,1.339480,-0.004142,0.076967
305,2761054722,0.174913,0.064704,0.666909,-0.721423,1.202387,0.011513,0.327619
306,2761088056,0.178490,0.062321,0.665843,-0.721741,0.827993,0.072219,0.410698
307,2761121390,0.182993,0.062824,0.663698,-0.722544,0.517498,0.084912,0.359396
308,2761154724,0.187421,0.066405,0.660799,-0.723745,0.374529,0.081342,0.282939
309,2761188058,0.191790,0.071510,0.657475,-0.725141,0.190874,0.127876,0.155711
310,2761221392,0.196150,0.077260,0.654073,-0.726460,0.016811,0.092286,-0.009313
311,2761254726,0.200219,0.083303,0.650920,-0.727513,-0.047279,-0.041343,-0.006345
312,2761288060,0.204410,0.088373,0.648419,-0.727982,-0.276616,0.297970,-0.108686
313,2761321394,0.209441,0.091615,0.646033,-0.728273,-0.583613,0.245390,-0.154543
314,2761354728,0.214196,0.094129,0.643592,-0.728730,-0.767955,0.092075,-0.178447
315,2761388062,0.218065,0.096451,0.641454,-0.729165,-0.966885,0.008932,-0.209057
316,2761421396,0.220450,0.098763,0.639915,-0.729490,-1.024574,-0.054541,-0.276859
317,2761454730,0.220949,0.100961,0.639190,-0.729674,-1.040410,-0.146111,-0.357273
318,2761488064,0.219295,0.102692,0.639260,-0.729870,-0.969555,-0.191290,-0.390538
319,2761521398,0.215544,0.103670,0.639989,-0.730209,-0.858834,-0.220963,-0.400243
320,2761554732,0.209901,0.104126,0.641272,-0.730663,-0.727254,-0.164048,-0.298633
321,2761588066,0.202787,0.103975,0.643004,-0.731171,-0.531827,-0.163880,-0.089128
322,2761621400,0.194523,0.103267,0.644999,-0.731760,-0.339741,-0.177729,-0.028437
323,2761654734,0.185273,0.102840,0.646985,-0.732467,-0.209865,-0.117485,0.003946
324,2761688068,0.175231,0.103351,0.648677,-0.733369,0.002158,-0.039000,0.114758
325,2761721402,0.165037,0.104495,0.650019,-0.734382,0.203400,0.017538,0.144613
326,2761754736,0.154947,0.106193,0.651145,-0.735339,0.381704,0.141331,0.135648
327,2761788070,0.145189,0.107819,0.652144,-0.736208,0.623191,0.193247,0.105392
328,2761821404,0.136372,0.108791,0.653080,-0.736921,0.859100,0.240294,0.062271
329,2761854738,0.129120,0.108888,0.654002,-0.737395,1.018283,0.309010,0.128538
330,2761888072,0.123890,0.108284,0.654823,-0.737653,1.046522,0.300780,0.203135
331,2761921406,0.120399,0.108273,0.655400,-0.737720,1.000636,0.246395,0.207505
332,2761954740,0.118378,0.109630,0.655515,-0.737744,0.969170,0.221902,0.154715
333,2761988074,0.117932,0.111779,0.655235,-0.737742,0.937888,0.096001,0.121571
334,2762021408,0.119075,0.114092,0.654711,-0.737670,0.796475,0.055833,0.030070
335,2762054742,0.121598,0.116304,0.654027,-0.737520,0.650663,-0.045210,0.050325
336,2762088076,0.125220,0.118425,0.653112,-0.737386,0.460709,-0.111217,0.032289
337,2762121410,0.129595,0.120554,0.651977,-0.737290,0.266284,-0.162681,0.142083
338,2762154744,0.134419,0.122483,0.650685,-0.737250,0.100314,-0.222343,0.152838
339,2762188078,0.139454,0.124211,0.649209,-0.737327,-0.084023,-0.301468,0.042456
340,2762221412,0.144051,0.126592,0.647427,-0.737605,-0.350657,-0.369481,-0.026138
341,2762254746,0.147272,0.130141,0.645347,-0.738174,-0.483578,-0.367994,-0.008263
342,2762288080,0.149198,0.133657,0.643277,-0.738966,-0.505430,-0.383783,0.005906
343,2762321414,0.150245,0.136242,0.641449,-0.739870,-0.592049,-0.365426,-0.074657
344,2762354748,0.150465,0.138230,0.639821,-0.740865,-0.686751,-0.321614,-0.144009
345,2762388082,0.149565,0.140117,0.638421,-0.741900,-0.781020,-0.317810,-0.081677
346,2762421416,0.147216,0.141935,0.637272,-0.743011,-0.787416,-0.286800,0.009911
347,2762454750,0.143303,0.143578,0.636407,-0.744200,-0.726152,-0.269366,-0.027456
348,2762488084,0.138082,0.145252,0.635618,-0.745536,-0.596195,-0.183209,-0.042039
349,2762521418,0.132073,0.146590,0.634934,-0.746944,-0.427238,-0.174414,0.012669
350,2762554752,0.125645,0.147275,0.634482,-0.748302,-0.327568,-0.113263,-0.015688
351,2762588086,0.118849,0.147939,0.634156,-0.749556,-0.247788,-0.095462,-0.051688
352,2762621420,0.111675,0.149312,0.633847,-0.750647,-0.219931,-0.206079,0.113976
353,2762654754,0.103647,0.151780,0.633289,-0.751774,-0.150193,-0.297331,0.113286
354,2762688088,0.094713,0.155425,0.632354,-0.752994,0.046540,-0.287782,-0.056863
355,2762721422,0.085788,0.159316,0.631388,-0.754060,0.363542,-0.305970,-0.146813
356,2762754756,0.078066,0.161776,0.630882,-0.754799,0.562449,-0.288487,-0.262304
357,2762788090,0.072060,0.162168,0.631088,-0.755140,0.699715,-0.276605,-0.348192
358,2762821424,0.067733,0.160888,0.632013,-0.755040,0.703505,-0.312263,-0.313935
359,2762854758,0.064220,0.159197,0.633290,-0.754636,0.687366,-0.318777,-0.246367
360,2762888092,0.061108,0.158151,0.634536,-0.754067,0.823808,-0.318795,-0.179832
361,2762921426,0.058825,0.157848,0.635598,-0.753418,0.924338,-0.269254,-0.155720
362,2762954760,0.058362,0.157671,0.636671,-0.752584,1.105626,-0.297915,-0.084001
363,2762988094,0.060527,0.156755,0.638011,-0.751469,1.087851,-0.280319,-0.072059
364,2763021428,0.065311,0.155299,0.639612,-0.750007,0.906729,-0.451431,-0.065205
365,2763054762,0.071774,0.154040,0.641135,-0.748375,0.759754,-0.466139,0.035014
366,2763088096,0.079653,0.152353,0.642508,-0.746744,0.665354,-0.588612,0.252535
367,2763121430,0.088904,0.149861,0.643754,-0.745129,0.464090,-0.609283,0.462297
368,2763154764,0.099251,0.146976,0.644453,-0.743792,0.241123,-0.613997,0.439782
369,2763188098,0.109959,0.144948,0.644283,-0.742831,-0.010858,-0.553980,0.309589
370,2763221432,0.120624,0.143734,0.643434,-0.742147,-0.063978,-0.471562,0.121449
371,2763254766,0.131257,0.142244,0.642222,-0.741679,-0.205300,-0.319973,-0.104387
372,2763288100,0.141635,0.140173,0.641063,-0.741167,-0.334677,-0.201568,-0.186667
373,2763321434,0.151499,0.136818,0.640310,-0.740494,-0.446279,-0.072533,-0.106387
374,2763354768,0.160713,0.131884,0.640096,-0.739631,-0.506482,0.025476,-0.156294
375,2763388102,0.169028,0.126097,0.640289,-0.738618,-0.537597,0.128260,-0.263844
376,2763421436,0.176336,0.120139,0.640745,-0.737507,-0.496794,0.193173,-0.259738
377,2763454770,0.182571,0.113967,0.641334,-0.736457,-0.501724,0.230370,-0.168034
378,2763488104,0.187530,0.107970,0.641995,-0.735538,-0.532852,0.328243,-0.120040
379,2763521438,0.190874,0.103313,0.642704,-0.734727,-0.496476,0.397738,-0.106305
380,2763554772,0.192689,0.100445,0.643522,-0.733935,-0.372857,0.467547,-0.119326
381,2763588106,0.193759,0.098758,0.644588,-0.732946,-0.236111,0.526511,-0.108125
382,2763621440,0.195011,0.097017,0.645967,-0.731631,-0.096540,0.590107,-0.077091
383,2763654774,0.196986,0.094268,0.647776,-0.729860,-0.016071,0.509726,-0.115040
384,2763688108,0.199556,0.090351,0.650037,-0.727643,0.009750,0.443738,-0.134711
385,2763721442,0.202175,0.085400,0.652690,-0.725139,0.087297,0.349575,-0.027887
386,2763754776,0.204670,0.079630,0.655614,-0.722453,0.212246,0.279239,0.155503
387,2763788110,0.207069,0.073530,0.658434,-0.719847,0.267818,0.201737,0.231438
388,2763821444,0.209272,0.068207,0.660860,-0.717507,0.296595,0.163683,0.325164
389,2763854778,0.211263,0.064334,0.662713,-0.715569,0.349731,0.135242,0.349021
390,2763888112,0.213212,0.061721,0.663986,-0.714040,0.446646,0.089356,0.156777
391,2763921446,0.215284,0.059981,0.664666,-0.712932,0.422354,0.084725,-0.046925
392,2763954780,0.217294,0.058500,0.664804,-0.712317,0.327212,0.132806,0.040019
393,2763988114,0.218551,0.056734,0.664565,-0.712299,0.178962,0.216800,0.012900
394,2764021448,0.218433,0.055232,0.664433,-0.712576,0.171314,0.355335,-0.062600
395,2764054782,0.217123,0.054239,0.664418,-0.713066,0.263091,0.473112,-0.066257
396,2764088116,0.215157,0.053491,0.664305,-0.713823,0.344987,0.551320,0.012171
397,2764121450,0.213059,0.052857,0.664020,-0.714764,0.452251,0.648791,-0.086769
398,2764154784,0.211335,0.052414,0.663434,-0.715853,0.545747,0.637956,-0.226694
399,2764188118,0.209875,0.052827,0.662266,-0.717332,0.397594,0.674571,-0.005290
400,2764221452,0.207818,0.054468,0.660375,-0.719547,0.189385,0.709144,0.417850
401,2764254786,0.203948,0.058363,0.658046,-0.722477,-0.146595,0.975663,0.572390
402,2764288120,0.197749,0.065574,0.655852,-0.725570,-0.095777,1.154624,0.497909
403,2764321454,0.190525,0.075406,0.654381,-0.727872,0.129166,1.219041,0.048513
404,2764354788,0.184227,0.085999,0.653989,-0.728671,0.459642,0.981448,-0.491766
405,2764388122,0.181397,0.093794,0.654690,-0.727790,0.811245,0.783098,-0.917066
406,2764421456,0.183184,0.095309,0.656460,-0.725548,0.761878,0.547927,-0.830230
407,2764454790,0.187919,0.089803,0.659208,-0.722541,0.379179,0.288050,-0.415032
408,2764488124,0.192399,0.080214,0.662788,-0.719208,0.119721,0.109819,-0.010545
409,2764521458,0.194512,0.070868,0.666640,-0.716054,0.169165,-0.102404,0.241549
410,2764554792,0.194136,0.065124,0.669970,-0.713589,0.445796,-0.147203,0.279087
411,2764588126,0.193496,0.063787,0.672204,-0.711781,0.808862,-0.139079,0.357065
412,2764621460,0.195556,0.064077,0.673526,-0.709939,1.006666,-0.314111,0.604755
413,2764654794,0.201347,0.062820,0.674063,-0.707921,0.775832,-0.565491,0.634377
414,2764688128,0.209550,0.059906,0.673766,-0.706073,0.452109,-0.764051,0.464207
415,2764721462,0.217918,0.056894,0.672602,-0.704897,0.157059,-0.905226,0.180626
416,2764754796,0.224660,0.055305,0.670771,-0.704652,-0.019697,-0.900741,-0.085226
417,2764788130,0.229309,0.055349,0.668459,-0.705348,-0.060204,-0.741760,-0.235068
418,2764821464,0.232418,0.055886,0.665760,-0.706839,-0.125389,-0.606745,-0.215440
419,2764854798,0.234062,0.056480,0.662919,-0.708916,-0.284855,-0.471609,-0.202261
420,2764888132,0.233973,0.057656,0.660171,-0.711411,-0.386675,-0.312495,-0.160427
421,2764921466,0.232189,0.060020,0.657508,-0.714261,-0.413782,-0.106880,-0.172793
422,2764954800,0.229261,0.063583,0.654915,-0.717274,-0.390249,0.092901,-0.225799
423,2764988134,0.225822,0.067785,0.652644,-0.720045,-0.324628,0.260978,-0.203479
424,2765021468,0.222714,0.071148,0.650956,-0.722213,-0.253059,0.365557,-0.171680
425,2765054802,0.220275,0.072842,0.649968,-0.723680,-0.273367,0.369424,-0.167578
426,2765088136,0.218216,0.073584,0.649571,-0.724585,-0.328746,0.348705,-0.158893
427,2765121470,0.216075,0.074359,0.649708,-0.725024,-0.286604,0.292842,-0.140452
428,2765154804,0.213799,0.075279,0.650294,-0.725079,-0.183360,0.235960,-0.068955
429,2765188138,0.211556,0.075915,0.651238,-0.724823,-0.113322,0.161308,-0.047595
430,2765221472,0.209474,0.076308,0.652466,-0.724283,-0.020484,0.065187,-0.088118
431,2765254806,0.207569,0.076605,0.653916,-0.723491,0.067935,-0.065132,-0.066586
432,2765288140,0.205859,0.076695,0.655471,-0.722563,0.135081,-0.197585,-0.004593
433,2765321474,0.204238,0.076553,0.656994,-0.721654,0.205427,-0.310485,0.006818
434,2765354808,0.202684,0.076265,0.658390,-0.720850,0.287154,-0.394329,0.046596
435,2765388142,0.201325,0.075892,0.659623,-0.720143,0.360410,-0.463389,0.086761
436,2765421476,0.200272,0.075534,0.660588,-0.719589,0.416401,-0.512852,0.087059
437,2765454810,0.199553,0.075291,0.661189,-0.719262,0.441793,-0.533487,0.093127
438,2765488144,0.199125,0.075026,0.661383,-0.719230,0.474516,-0.570595,0.120133
439,2765521478,0.198819,0.074757,0.661147,-0.719560,0.424767,-0.530894,0.125132
440,2765554812,0.198582,0.074690,0.660509,-0.720218,0.422515,-0.393259,0.124884
441,2765588146,0.198602,0.074751,0.659521,-0.721111,0.356327,-0.291271,0.098048
442,2765621480,0.198957,0.074941,0.658296,-0.722112,0.244626,-0.152977,0.096416
443,2765654814,0.199471,0.075372,0.656968,-0.723134,0.182655,-0.071284,0.012985
444,2765688148,0.200048,0.076165,0.655693,-0.724047,0.120853,0.020638,-0.064308
445,2765721482,0.200643,0.076982,0.654552,-0.724829,0.030088,0.075041,-0.108094
446,2765754816,0.201139,0.077699,0.653726,-0.725360,0.018325,0.151690,-0.160897
447,2765788150,0.201700,0.077983,0.653264,-0.725590,0.002393,0.140179,-0.169942
448,2765821484,0.202424,0.077688,0.653155,-0.725518,0.010225,0.136013,-0.104985
449,2765854818,0.203266,0.076982,0.653275,-0.725249,-0.028057,0.116448,-0.044170
450,2765888152,0.203991,0.076586,0.653508,-0.724878,-0.059682,0.086014,0.001250
451,2765921486,0.204550,0.076647,0.653778,-0.724470,-0.011290,0.039919,0.001531
452,2765954820,0.204997,0.076823,0.654070,-0.724062,-0.016291,0.007420,-0.052534
453,2765988154,0.205315,0.076923,0.654447,-0.723621,-0.014116,-0.025849,-0.040035
454,2766021488,0.205474,0.076771,0.654926,-0.723158,-0.003919,-0.075117,-0.039077
455,2766054822,0.205411,0.076519,0.655438,-0.722739,0.018572,-0.099987,-0.007387
456,2766088156,0.205218,0.076316,0.655916,-0.722381,0.051462,-0.079688,0.000497
457,2766121490,0.204987,0.076054,0.656461,-0.721980,0.093969,-0.087400,0.019339
458,2766154824,0.204768,0.075567,0.657074,-0.721535,0.149082,-0.112032,0.001370
459,2766188158,0.204466,0.075025,0.657700,-0.721107,0.194748,-0.104228,-0.074933
460,2766221492,0.204026,0.074679,0.658349,-0.720675,0.291982,-0.139996,-0.045791
461,2766254826,0.203794,0.073763,0.659316,-0.719951,0.307834,-0.010946,-0.061314
462,2766288160,0.203952,0.072244,0.660299,-0.719158,0.327201,-0.028472,0.000421
463,2766321494,0.204339,0.070582,0.661189,-0.718396,0.427167,0.001095,0.060106
464,2766354828,0.204971,0.068944,0.662080,-0.717553,0.320061,0.054219,-0.025344
465,2766388162,0.205913,0.067546,0.662851,-0.716704,0.385599,0.095803,0.018337
466,2766421496,0.207363,0.065912,0.663451,-0.715883,0.403556,0.043077,-0.000693
467,2766454830,0.209117,0.064451,0.663938,-0.715053,0.374944,0.042072,-0.001820
468,2766488164,0.211242,0.063044,0.664407,-0.714118,0.385524,0.039364,0.027870
469,2766521498,0.213835,0.061333,0.664890,-0.713045,0.220171,-0.067183,-0.019276
470,2766554832,0.216701,0.059523,0.665406,-0.711851,0.286574,-0.014859,0.016757
471,2766588166,0.220000,0.057127,0.665928,-0.710546,0.189875,-0.077389,0.047948
472,2766621500,0.223404,0.054636,0.666478,-0.709162,0.188713,-0.136799,0.004428
473,2766654834,0.226858,0.052188,0.667003,-0.707756,0.215939,-0.176254,0.045919
474,2766688168,0.230447,0.049441,0.667465,-0.706356,0.238693,-0.236486,0.025153
475,2766721502,0.234080,0.046309,0.667915,-0.704948,0.256193,-0.262806,0.030545
476,2766754836,0.237850,0.042698,0.668285,-0.703561,0.302893,-0.292859,0.048338
477,2766788170,0.241766,0.038619,0.668458,-0.702296,0.307985,-0.297328,0.050317
478,2766821504,0.245800,0.034349,0.668341,-0.701229,0.311312,-0.252171,0.103798
479,2766854838,0.249872,0.030153,0.667859,-0.700441,0.332222,-0.164638,0.119991
480,2766888172,0.254116,0.026692,0.667126,-0.699753,0.679810,-0.008222,0.685969
481,2766921506,0.257446,0.030639,0.666272,-0.699188,0.782905,-0.065747,1.183043
482,2766954840,0.258793,0.047469,0.664397,-0.699535,1.620730,0.388078,2.065055
483,2766988174,0.261138,0.077369,0.660117,-0.700046,2.251108,0.279439,3.348742
484,2767021508,0.265997,0.125872,0.650563,-0.700120,2.176444,1.065268,5.007426
485,2767054842,0.277229,0.194035,0.632129,-0.697070,2.296871,1.566553,6.993452
486,2767088176,0.300319,0.269736,0.602183,-0.688786,1.773160,0.663779,7.843925
487,2767121510,0.336804,0.337327,0.563689,-0.674557,0.242930,-0.027690,6.898350
488,2767154844,0.384050,0.393073,0.517141,-0.656173,-1.163459,-0.177788,5.685873
489,2767188178,0.436758,0.439793,0.461159,-0.634946,-2.646945,-0.884202,3.093021
490,2767221512,0.491316,0.478487,0.397474,-0.609649,-3.708561,-0.726569,2.208441
491,2767254846,0.546904,0.502171,0.325801,-0.585297,-4.431690,-0.722766,0.729780
492,2767288180,0.601327,0.511440,0.246998,-0.561984,-4.570674,-0.346128,-1.865306
493,2767321514,0.648353,0.513755,0.167058,-0.536456,-3.753967,0.342286,-3.976402
494,2767354848,0.686565,0.513819,0.092960,-0.505940,-2.274399,0.712421,-5.295371
495,2767388182,0.716553,0.514950,0.028612,-0.469636,-0.280385,0.368631,-6.000480
496,2767421516,0.739515,0.516145,-0.022243,-0.431528,0.372698,0.364603,-5.282372
497,2767454850,0.756940,0.510139,-0.066615,-0.402941,0.473171,0.643234,-4.911570
498,2767488184,0.769291,0.501145,-0.104619,-0.382229,1.210189,0.662244,-4.438582
499,2767521518,0.779315,0.491869,-0.133739,-0.364481,1.425997,0.514916,-3.862404
500,2767554852,0.787395,0.484487,-0.154865,-0.348279,1.489418,-0.155582,-2.857098
501,2767588186,0.793197,0.479203,-0.169561,-0.335338,1.134067,-0.231997,-2.151088
502,2767621520,0.797049,0.473303,-0.180972,-0.328552,0.722234,0.003620,-1.516685
503,2767654854,0.799560,0.468557,-0.188721,-0.324871,1.160275,-0.021313,-1.166801
504,2767688188,0.799637,0.467300,-0.194959,-0.322803,0.540852,-0.437352,-0.535986
505,2767721522,0.797103,0.469542,-0.200043,-0.322704,0.359715,-0.434295,-0.189395
506,2767754856,0.793978,0.472241,-0.205463,-0.323064,0.228291,-0.524732,0.097570
507,2767788190,0.791548,0.476671,-0.208115,-0.320818,-0.300541,-0.127827,0.320478
508,2767821524,0.788753,0.481039,-0.211032,-0.319272,-0.819390,0.006847,0.339940
509,2767854858,0.786448,0.484258,-0.215030,-0.317418,-0.395655,-0.140115,0.317762
510,2767888192,0.785542,0.485600,-0.219595,-0.314474,0.318274,-0.443460,0.184705
511,2767921526,0.785440,0.485721,-0.223235,-0.311967,-0.021836,-0.250073,0.198905
512,2767954860,0.785139,0.485847,-0.226200,-0.310389,-0.084083,0.286981,-0.016906
513,2767988194,0.784277,0.485956,-0.230664,-0.309112,-0.271678,0.084536,0.207756
514,2768021528,0.784177,0.484238,-0.235152,-0.308679,0.116560,-0.043672,0.071222
515,2768054862,0.784294,0.481724,-0.239574,-0.308914,0.506234,0.307519,-0.292166
516,2768088196,0.784277,0.480825,-0.242622,-0.307977,0.219312,0.381096,-0.448215
517,2768121530,0.784998,0.481382,-0.241827,-0.305889,-0.280080,0.661179,-0.225979
518,2768154864,0.786707,0.480566,-0.239689,-0.304460,0.188562,0.242135,-0.162360
519,2768188198,0.789142,0.478614,-0.237070,-0.303283,0.501104,-0.043882,-0.205969
520,2768221532,0.791631,0.477213,-0.233609,-0.301684,0.101747,-0.078896,0.004052
521,2768254866,0.793518,0.476935,-0.230221,-0.299765,-0.178807,-0.281570,0.366442
522,2768288200,0.795009,0.477321,-0.227331,-0.297398,0.114188,-0.323577,0.304555
523,2768321534,0.795979,0.478716,-0.224536,-0.294671,0.631032,-0.114806,0.215734
524,2768354868,0.796195,0.481772,-0.221522,-0.291369,0.584229,0.252474,-0.068682
525,2768388202,0.796223,0.486319,-0.217269,-0.286905,0.418627,0.357060,-0.116229
526,2768421536,0.796607,0.491386,-0.211794,-0.281245,0.182914,0.228712,-0.388820
527,2768454870,0.797404,0.496603,-0.205085,-0.274721,0.795199,-0.095884,-0.779980
528,2768488204,0.797663,0.503829,-0.196311,-0.267116,1.064573,0.061199,-1.039324
529,2768521538,0.796668,0.513191,-0.184852,-0.260354,0.874092,0.131412,-1.355392
530,2768554872,0.794535,0.523736,-0.170327,-0.255737,0.261720,0.324718,-0.995394
531,2768588206,0.792472,0.532116,-0.154306,-0.255009,-0.226094,0.564884,-0.408669
532,2768621540,0.790877,0.537564,-0.138182,-0.257764,-0.356664,0.869125,0.129718
533,2768654874,0.789873,0.541399,-0.121580,-0.261160,-0.028000,1.084017,0.465419
534,2768688208,0.789551,0.543705,-0.105364,-0.264370,-0.627085,0.792476,1.287013
535,2768721542,0.790301,0.542376,-0.091671,-0.269905,-0.710502,0.534817,1.620119
536,2768754876,0.792422,0.537767,-0.079967,-0.276548,-0.000687,1.033498,1.405720
537,2768788210,0.796320,0.531869,-0.070504,-0.279318,-0.616989,0.786459,1.325656
538,2768821544,0.801527,0.525397,-0.064291,-0.278171,-0.770886,-0.308292,1.531115
539,2768854878,0.807321,0.518393,-0.060171,-0.275461,-0.042012,-0.431640,1.147746
540,2768888212,0.811290,0.514112,-0.057456,-0.272387,0.284328,-0.215398,0.578755
541,2768921546,0.813238,0.512160,-0.056867,-0.270372,0.252302,-0.230850,0.525167
542,2768954880,0.814235,0.510882,-0.058640,-0.269411,0.169045,-0.232596,0.233503
543,2768988214,0.814372,0.509372,-0.063399,-0.270772,0.429255,-0.034606,-0.165201
544,2769021548,0.814107,0.508704,-0.067307,-0.271878,0.628545,0.047694,-0.534107
545,2769054882,0.813649,0.509052,-0.068975,-0.272179,0.355159,0.121800,-0.727704
546,2769088216,0.813007,0.508477,-0.070440,-0.274788,0.171640,0.075995,-0.697002
547,2769121550,0.812774,0.506682,-0.069559,-0.278982,0.063080,0.083278,-0.404333
548,2769154884,0.812961,0.504297,-0.067806,-0.283162,-0.181914,0.131187,0.079393
549,2769188218,0.813400,0.501579,-0.067192,-0.286851,-0.350336,0.318530,0.963394
550,2769221552,0.813783,0.499274,-0.068195,-0.289536,-0.166184,0.205040,1.007393
551,2769254886,0.813679,0.498241,-0.070640,-0.291019,0.032926,-0.079525,0.946755
552,2769288220,0.813497,0.496822,-0.073957,-0.293120,0.271853,-0.196719,0.328668
553,2769321554,0.813245,0.494460,-0.077975,-0.296749,0.296828,-0.046679,-0.205050
554,2769354888,0.813370,0.492399,-0.079979,-0.299292,-0.284837,0.178809,-0.296319
555,2769388222,0.814401,0.489012,-0.082010,-0.301481,-0.696194,0.226742,-0.012267
556,2769421556,0.815320,0.486262,-0.083410,-0.303058,-0.323570,-0.124267,-0.299973
557,2769454890,0.815079,0.484062,-0.085572,-0.306605,0.233855,-0.815885,-0.607833
558,2769488224,0.813853,0.483685,-0.084790,-0.310647,0.122628,-0.704787,-0.488190
559,2769521558,0.811934,0.483898,-0.083027,-0.315771,-0.288264,-0.002259,-0.116628
560,2769554892,0.810315,0.484149,-0.079417,-0.320440,0.273254,0.372968,-0.341072
561,2769588226,0.809700,0.485495,-0.070426,-0.322055,0.485336,0.023850,-0.349244
562,2769621560,0.809635,0.484434,-0.061206,-0.325681,0.252640,-0.147628,-0.619658
563,2769654894,0.808361,0.480030,-0.055516,-0.336215,0.536152,-0.346825,-1.314697
564,2769688228,0.806024,0.473503,-0.049536,-0.351661,0.484648,-0.089926,-1.924961
565,2769721562,0.801724,0.468728,-0.037566,-0.368945,1.045447,-0.308910,-3.245982
566,2769754896,0.794575,0.466435,-0.017389,-0.388311,1.666081,-1.101087,-4.197716
567,2769788230,0.783658,0.462634,0.010286,-0.414420,0.308081,-0.825478,-4.332613
568,2769821564,0.766896,0.456890,0.046645,-0.448269,-0.122872,-0.256408,-4.473313
569,2769854898,0.743153,0.451886,0.092251,-0.484779,-0.369292,-0.436045,-5.394990
570,2769888232,0.713132,0.444116,0.142143,-0.523449,-3.149308,-0.229267,-3.197108
571,2769921566,0.677603,0.426663,0.192267,-0.567314,-3.371104,0.087942,-2.859109
572,2769954900,0.635830,0.408624,0.245046,-0.607205,-3.258793,0.299512,-4.324331
573,2769988234,0.588045,0.396534,0.303556,-0.636252,-4.648835,0.011759,0.471440
574,2770021568,0.539714,0.374023,0.359545,-0.662980,-3.501835,-0.941561,3.057870
575,2770054902,0.496836,0.335077,0.406640,-0.689580,-3.060561,0.109433,2.338616
576,2770088236,0.452214,0.302038,0.448661,-0.709210,-3.142091,-0.707503,0.754558
577,2770121570,0.402097,0.277713,0.489038,-0.722520,-2.588700,-0.661004,2.173967
578,2770154904,0.347893,0.250744,0.526969,-0.733758,-2.030120,-1.607961,2.972420
579,2770188238,0.292873,0.212595,0.562944,-0.743049,-2.415526,-1.212467,3.727338
580,2770221572,0.237998,0.164963,0.595985,-0.748963,-2.089268,-0.064184,5.689283
581,2770254906,0.184352,0.115349,0.625306,-0.749466,0.224027,-0.329073,7.130463
582,2770288240,0.135422,0.072915,0.651161,-0.743191,2.574507,-0.664876,6.902781
583,2770321574,0.095231,0.044810,0.670382,-0.734513,3.429101,-0.296189,4.763889
584,2770354908,0.064760,0.035721,0.680287,-0.729204,3.388861,0.612453,2.177247
585,2770388242,0.043337,0.042416,0.682518,-0.728348,4.070794,0.686020,0.902208
586,2770421576,0.028747,0.056877,0.678572,-0.731763,4.255085,0.434466,0.158778
587,2770454910,0.018547,0.073716,0.670776,-0.737754,4.077966,0.432958,-0.795424
588,2770488244,0.010736,0.091171,0.661904,-0.743946,4.017616,0.496853,-1.386381
589,2770521578,0.005719,0.106183,0.654615,-0.748446,4.184258,0.308714,-1.323275
590,2770554912,0.005741,0.114669,0.650633,-0.750662,4.296531,0.187369,-1.114968
591,2770588246,0.012049,0.116917,0.649524,-0.751201,3.960467,0.557008,-0.761119
592,2770621580,0.024623,0.116358,0.649626,-0.750893,3.573419,0.851964,-0.078858
593,2770654914,0.043467,0.114976,0.649481,-0.750376,3.100313,0.866849,0.617014
594,2770688248,0.067926,0.114292,0.648394,-0.749605,2.313194,0.888154,1.152219
595,2770721582,0.096958,0.115130,0.645934,-0.748407,1.461296,0.795722,1.474474
596,2770754916,0.129695,0.116955,0.641898,-0.746637,0.609335,0.644114,1.642386
597,2770788250,0.165260,0.118652,0.636229,-0.744193,-0.322704,0.453877,1.558057
598,2770821584,0.202426,0.119481,0.628923,-0.741083,-1.237133,0.275273,1.234967
599,2770854918,0.239284,0.119332,0.620359,-0.737331,-1.998582,-0.005363,0.748244
600,2770888252,0.273557,0.118529,0.611257,-0.733131,-2.583420,-0.316712,0.116808
601,2770921586,0.303068,0.117696,0.602624,-0.728794,-2.975984,-0.586149,-0.556337
602,2770954920,0.326290,0.117538,0.595455,-0.724674,-3.141709,-0.767691,-1.174991
603,2770988254,0.342664,0.117844,0.590464,-0.721142,-3.094185,-0.859756,-1.632339
604,2771021588,0.352530,0.117633,0.587879,-0.718528,-3.028866,-0.895828,-1.855005
605,2771054922,0.356361,0.116012,0.587779,-0.716982,-2.911888,-0.915005,-1.888277
606,2771088256,0.354642,0.112428,0.590316,-0.716320,-2.717861,-0.883561,-1.732346
607,2771121590,0.347877,0.106701,0.595352,-0.716346,-2.513005,-0.850017,-1.441769
608,2771154924,0.336673,0.098626,0.602432,-0.716937,-2.251346,-0.707404,-1.024971
609,2771188258,0.321706,0.088368,0.611011,-0.717886,-1.940530,-0.599741,-0.539587
610,2771221592,0.303602,0.076718,0.620514,-0.718958,-1.555346,-0.439542,-0.038483
611,2771254926,0.282996,0.064867,0.630345,-0.719979,-1.068134,-0.196092,0.455021
612,2771288260,0.260754,0.053794,0.639851,-0.720904,-0.492404,0.014377,0.854821
613,2771321594,0.238004,0.044364,0.648519,-0.721670,0.175687,0.136634,1.024524
614,2771354928,0.215564,0.037913,0.655925,-0.722396,0.708758,0.327969,1.053409
615,2771388262,0.194053,0.035443,0.661751,-0.723306,1.191913,0.541580,1.030562
616,2771421596,0.174112,0.036853,0.665800,-0.724594,1.737740,0.639737,0.903032
617,2771454930,0.156690,0.040861,0.668309,-0.726045,2.188101,0.689577,0.648627
618,2771488264,0.142624,0.046030,0.669571,-0.727471,2.458655,0.732487,0.352507
619,2771521598,0.132285,0.051475,0.669930,-0.728727,2.588247,0.692484,0.039627
620,2771554932,0.125733,0.056445,0.669792,-0.729645,2.662127,0.684853,-0.176327
621,2771588266,0.123107,0.059912,0.669478,-0.730105,2.706566,0.622570,-0.209119
622,2771621600,0.124553,0.061309,0.669105,-0.730085,2.515096,0.527627,-0.040231
623,2771654934,0.128943,0.062632,0.668212,-0.730030,2.036453,0.511879,0.162886
624,2771688268,0.135049,0.066764,0.666242,-0.730360,1.568268,0.463100,0.372527
625,2771721602,0.141721,0.075867,0.662732,-0.731399,0.899143,0.413167,0.445774
626,2771754936,0.148281,0.090598,0.658006,-0.732688,0.631355,0.412618,0.291536
627,2771788270,0.156232,0.106992,0.652739,-0.733536,0.538995,0.254051,0.204546
628,2771821604,0.167294,0.120050,0.647750,-0.733498,0.227145,0.259136,0.175668
629,2771854938,0.181391,0.127633,0.643481,-0.732624,-0.295052,0.118722,0.099730
630,2771888272,0.196463,0.131167,0.640245,-0.730947,-0.826161,-0.132246,0.200758
631,2771921606,0.210687,0.132722,0.637740,-0.728891,-1.352126,-0.199282,0.115177
632,2771954940,0.222986,0.134297,0.635529,-0.726872,-1.630481,-0.345059,0.074977
633,2771988274,0.233691,0.136107,0.633648,-0.724812,-1.833798,-0.553645,-0.021816
634,2772021608,0.242199,0.138739,0.631885,-0.723057,-2.053019,-0.539572,-0.495574
635,2772054942,0.247662,0.141799,0.631009,-0.721376,-2.002889,-0.677904,-0.674342
636,2772088276,0.249865,0.143006,0.631688,-0.719782,-1.881824,-0.702168,-0.686675
637,2772121610,0.248132,0.141688,0.633977,-0.718628,-2.282109,-0.209081,-0.572308
638,2772154944,0.243168,0.138067,0.638139,-0.717345,-1.602708,-0.131034,0.010625
639,2772188278,0.237974,0.130611,0.643457,-0.715731,-0.900213,0.278818,0.346670
640,2772221612,0.235548,0.120645,0.649293,-0.713008,-0.612520,0.264563,0.640934
641,2772254946,0.235533,0.110282,0.654898,-0.709556,-0.193220,0.292118,1.158461
642,2772288280,0.236708,0.100022,0.659661,-0.706265,0.028944,0.357032,1.190460
643,2772321614,0.238026,0.093168,0.663687,-0.702981,-0.016571,0.157691,1.278605
644,2772354948,0.237209,0.092700,0.667067,-0.700114,0.069387,-0.050383,1.460318
645,2772388282,0.232682,0.099076,0.669940,-0.698013,0.337905,0.423415,1.101629
646,2772421616,0.225533,0.111553,0.672198,-0.696304,0.272322,0.411189,0.381034
647,2772454950,0.215913,0.130577,0.674650,-0.693669,0.977498,0.143216,0.278966
648,2772488284,0.206162,0.150532,0.677017,-0.690278,1.395900,0.281766,0.354439
649,2772521618,0.198115,0.163628,0.678346,-0.688347,1.449207,-0.102125,-0.518323
650,2772554952,0.191494,0.171358,0.678031,-0.688650,1.268670,-0.852535,-1.164351
651,2772588286,0.186121,0.175274,0.677256,-0.689900,0.687543,-0.697713,-1.361967
652,2772621620,0.175172,0.185528,0.677898,-0.689454,0.243868,-0.890440,-0.734130
653,2772654954,0.162670,0.198068,0.679307,-0.687640,1.079031,-0.949962,-0.452878
654,2772688288,0.156081,0.202199,0.680948,-0.686341,0.474314,-0.855594,-0.065207
655,2772721622,0.150124,0.205480,0.682715,-0.684938,-0.867754,-0.149238,-0.171243
656,2772754956,0.139347,0.221719,0.685910,-0.678932,-0.764234,0.007230,-0.170095
657,2772788290,0.129083,0.237479,0.691045,-0.670371,0.677963,-0.835016,0.195165
658,2772821624,0.123814,0.243457,0.697399,-0.662595,0.125993,0.979799,-0.284244
659,2772854958,0.118897,0.245291,0.699698,-0.660392,-1.099884,-0.537862,-1.359515
660,2772888292,0.108947,0.254356,0.700104,-0.658246,0.460319,-0.558004,-0.967980
661,2772921626,0.091300,0.266117,0.699533,-0.656886,1.020158,0.230690,0.285237
662,2772954960,0.075672,0.274166,0.697944,-0.657252,0.849024,1.322910,-0.355673
663,2772988294,0.065253,0.286008,0.695708,-0.655692,0.508122,1.386585,-1.461720
664,2773021628,0.057080,0.302848,0.693284,-0.651445,0.479268,0.703066,-1.984058
665,2773054962,0.050890,0.318918,0.691453,-0.646215,0.526862,0.882778,-1.092492
666,2773088296,0.047012,0.338365,0.688409,-0.639838,-0.859146,1.759192,-1.175369
667,2773121630,0.037072,0.369948,0.682978,-0.628732,1.888124,1.355990,-0.089826
668,2773154964,0.038335,0.389032,0.679050,-0.621349,2.664120,0.235637,1.749337
669,2773188298,0.044909,0.392231,0.677660,-0.620414,-2.193669,0.166653,0.243614
670,2773221632,0.040821,0.402348,0.675598,-0.616454,-2.052777,0.171829,1.305332
671,2773254966,0.036096,0.416399,0.670088,-0.613425,-1.630698,-0.109028,1.349672
672,2773288300,0.031368,0.434121,0.659053,-0.613355,0.252891,-0.384027,0.936023
673,2773321634,0.016997,0.459438,0.643045,-0.612470,0.674125,1.234428,-0.698874
674,2773354968,-0.012888,0.497553,0.619871,-0.606657,3.278416,-2.697031,0.461876
675,2773388302,-0.019233,0.515186,0.604621,-0.607162,2.011351,-2.068489,-0.736971
676,2773421636,-0.011505,0.516904,0.599125,-0.611332,-0.611811,1.564394,-0.977674
677,2773454970,-0.002057,0.513114,0.592337,-0.621165,-2.729368,-0.658200,-1.318233
678,2773488304,-0.002353,0.513045,0.589122,-0.624271,-0.631983,-1.310492,0.885728
679,2773521638,0.003875,0.510596,0.589306,-0.626094,0.894950,-1.380091,1.111039
680,2773554972,0.013862,0.504891,0.590622,-0.629331,-0.276774,-0.246928,-0.130343
681,2773588306,0.024531,0.498509,0.592861,-0.631983,-0.239193,-0.890984,-0.920345
682,2773621640,0.039430,0.486318,0.598765,-0.635153,0.995902,-0.437698,0.077401
683,2773654974,0.065754,0.462313,0.609344,-0.640813,1.782414,0.438976,0.580579
684,2773688308,0.102774,0.429767,0.623370,-0.645094,2.052167,0.151889,1.299553
685,2773721642,0.153652,0.384895,0.641200,-0.645839,2.190983,1.574103,1.204555
686,2773754976,0.188216,0.357204,0.655332,-0.638372,-3.319214,-0.955370,-2.068039
687,2773788310,0.197731,0.348853,0.659463,-0.635854,-1.752321,-2.366567,-1.917946
688,2773821644,0.199553,0.342756,0.658792,-0.639287,-1.875952,-0.766120,-2.657976
689,2773854978,0.199092,0.344430,0.657911,-0.639440,-0.786990,0.786887,-0.938348
690,2773888312,0.199399,0.353409,0.657620,-0.634725,0.628109,-0.370861,1.034351
691,2773921646,0.193513,0.365403,0.656249,-0.631166,0.975695,-0.449360,1.095199
692,2773954980,0.187143,0.382338,0.651167,-0.628312,-0.162182,-0.590248,-1.324718
693,2773988314,0.178496,0.404381,0.645109,-0.623256,0.954114,1.038301,0.133489
694,2774021648,0.174047,0.416641,0.642658,-0.618957,-1.083824,3.333392,-1.120212
695,2774054982,0.168967,0.426809,0.642952,-0.613103,0.143132,0.721388,0.093806
696,2774088316,0.166034,0.433224,0.644683,-0.607563,0.008509,-0.994263,1.848763
697,2774121650,0.163732,0.437316,0.644304,-0.605655,0.117660,-0.667389,1.120404
698,2774154984,0.166872,0.431870,0.644308,-0.608693,0.192258,-0.026927,-0.196744
699,2774188318,0.176436,0.413231,0.648483,-0.614475,2.244305,-0.462459,1.380978
700,2774221652,0.202172,0.374997,0.655350,-0.623715,0.422364,1.861501,0.716376
701,2774254986,0.215068,0.349865,0.658348,-0.630807,-1.547727,-1.280958,-1.497381
702,2774288320,0.216770,0.341965,0.655389,-0.637601,0.264764,-2.690451,0.693845
703,2774321654,0.219215,0.334485,0.651761,-0.644415,-0.617602,0.017286,-0.998753
704,2774354988,0.220707,0.329997,0.650553,-0.647433,-0.111880,0.850485,-0.199124
705,2774388322,0.218100,0.332434,0.651980,-0.645632,-0.538886,0.054458,-1.073623
706,2774421656,0.197845,0.355269,0.654526,-0.637367,0.067981,0.015402,-1.437985
707,2774454990,0.174219,0.380938,0.654993,-0.628902,1.602726,1.004271,-0.366640
708,2774488324,0.165082,0.393617,0.654809,-0.623729,0.464934,1.940233,-0.709447
709,2774521658,0.161206,0.405178,0.656105,-0.615928,-1.631420,1.309860,-1.058580
710,2774554992,0.152765,0.418889,0.657304,-0.607573,-1.596111,-0.871302,0.936172
711,2774588326,0.146370,0.423087,0.655491,-0.608197,-0.234614,-1.563406,2.690182
712,2774621660,0.158623,0.403092,0.654690,-0.619464,2.670169,-0.157491,0.900217
713,2774654994,0.164999,0.386955,0.655943,-0.626721,-1.184901,-0.737649,-2.738991
714,2774688328,0.162735,0.381800,0.656246,-0.630148,2.734549,-2.626747,2.352398
715,2774721662,0.171586,0.371330,0.655399,-0.634919,1.248383,-0.064422,0.692766
716,2774754996,0.184945,0.360003,0.656342,-0.636716,0.417960,0.647827,-1.680313
717,2774788330,0.186667,0.364206,0.661422,-0.628514,0.246997,1.367902,-1.941630
718,2774821664,0.178125,0.379796,0.668917,-0.613658,2.509537,0.640762,-0.162474
719,2774854998,0.179643,0.385420,0.674992,-0.602963,0.887568,1.455175,-1.125831
720,2774888332,0.186745,0.386371,0.681694,-0.592567,0.777266,-0.483190,0.411732
721,2774921666,0.195804,0.380004,0.688345,-0.586037,0.581833,-2.152239,0.949205
722,2774955000,0.206976,0.365935,0.695282,-0.582953,0.456991,-1.006798,0.642487
723,2774988334,0.222213,0.346779,0.703376,-0.579333,0.712419,0.774709,0.226133
724,2775021668,0.240200,0.325995,0.713135,-0.572249,0.194730,1.065117,-0.467621
725,2775055002,0.258321,0.300637,0.722746,-0.566150,0.952704,0.479897,0.936415
726,2775088336,0.279119,0.269871,0.730854,-0.561349,-0.342527,0.438877,-0.676931
727,2775121670,0.295592,0.242009,0.738519,-0.555559,-0.831265,0.208435,-1.201311
728,2775155004,0.307744,0.217918,0.747194,-0.547271,-0.008497,0.099682,0.251583
729,2775188338,0.321160,0.194254,0.754783,-0.537980,-0.068577,0.021107,0.290359
730,2775221672,0.334558,0.173409,0.761553,-0.527292,-0.413293,0.332145,-0.609498
731,2775255006,0.343543,0.157987,0.768295,-0.516469,-0.500241,1.195217,-0.432102
732,2775288340,0.351693,0.142863,0.772807,-0.508597,-0.981246,0.767406,-0.538234
733,2775321674,0.359564,0.127926,0.775144,-0.503486,-0.694673,0.443605,0.786398
734,2775355008,0.367699,0.113953,0.774880,-0.501371,-1.101713,-0.329867,0.403423
735,2775388342,0.373772,0.103802,0.775323,-0.498390,-1.776972,-1.056066,-0.015232
736,2775421676,0.379614,0.095731,0.775243,-0.495707,-1.110627,-1.146321,-0.367036
737,2775455010,0.383319,0.088617,0.776070,-0.492877,-0.958697,-0.427481,-0.242102
738,2775488344,0.386492,0.082324,0.776732,-0.490442,-0.601218,0.046544,-0.063100
739,2775521678,0.390123,0.077034,0.776567,-0.488685,-0.526957,0.033299,-0.283121
740,2775555012,0.392678,0.074248,0.776045,-0.487898,-0.666387,-0.092735,-0.383163
741,2775588346,0.391965,0.075317,0.775850,-0.488617,-0.690962,0.138165,0.009890
742,2775621680,0.389748,0.078933,0.775210,-0.490831,-0.897223,0.212836,0.067061
743,2775655014,0.385987,0.085334,0.774267,-0.494209,-0.779925,0.219179,0.114464
744,2775688348,0.381001,0.093679,0.773043,-0.498464,-0.352748,0.011660,0.036912
745,2775721682,0.375138,0.103004,0.771635,-0.503229,-0.240821,0.047454,-0.075096
746,2775755016,0.368902,0.112460,0.770151,-0.508066,-0.066952,0.144777,-0.226069
747,2775788350,0.363098,0.121311,0.768579,-0.512571,0.131258,0.164420,-0.228951
748,2775821684,0.357894,0.129318,0.766932,-0.516723,0.072731,0.221274,-0.194039
749,2775855018,0.352993,0.137358,0.765097,-0.520724,0.022662,0.321987,-0.187206
750,2775888352,0.348110,0.145381,0.763117,-0.524724,-0.338895,0.306639,-0.129766
751,2775921686,0.342704,0.154061,0.760822,-0.529120,-0.290284,-0.041669,-0.191999
752,2775955020,0.336127,0.164407,0.758076,-0.534142,-0.068269,0.030579,0.010399
753,2775988354,0.329167,0.175561,0.754685,-0.539701,-0.158689,0.424295,-0.023238
754,2776021688,0.322011,0.186718,0.750978,-0.545414,-0.300648,0.450991,-0.266945
755,2776055022,0.314060,0.198503,0.746867,-0.551499,-0.225359,0.129811,-0.191530
756,2776088356,0.305269,0.210921,0.742242,-0.558031,0.002334,0.022184,0.127292
757,2776121690,0.297216,0.221934,0.737104,-0.564875,0.026450,0.418206,0.096395
758,2776155024,0.289691,0.232324,0.731741,-0.571540,-0.093774,0.311594,0.221340
759,2776188358,0.281480,0.243814,0.726116,-0.577995,-0.220020,0.028061,-0.157542
760,2776221692,0.272380,0.255762,0.720559,-0.584113,-0.222958,0.073326,-0.576992
761,2776255026,0.262481,0.268061,0.715102,-0.589810,0.183596,0.178561,-0.450375
762,2776288360,0.252522,0.280299,0.709467,-0.595249,0.455193,0.262039,-0.218814
763,2776321694,0.243090,0.292199,0.703399,-0.600629,0.549064,0.083360,0.005953
764,2776355028,0.234434,0.303678,0.696445,-0.606452,0.381042,0.132337,0.000280
765,2776388362,0.226327,0.314962,0.688729,-0.612557,0.177761,0.162816,-0.025253
766,2776421696,0.218857,0.325027,0.680588,-0.619079,-0.062904,0.135797,-0.126722
767,2776455030,0.211171,0.334712,0.672094,-0.625830,-0.501339,0.508918,-0.330544
768,2776488364,0.202121,0.345851,0.663508,-0.631894,-0.528495,0.414190,-0.330273
769,2776521698,0.192026,0.358065,0.654859,-0.637239,-0.353757,0.166531,-0.171728
770,2776555032,0.180941,0.371219,0.646026,-0.641956,-0.091260,0.596935,-0.148025
771,2776588366,0.169384,0.384870,0.637032,-0.646045,0.186616,0.505034,-0.142536
772,2776621700,0.158284,0.398102,0.627928,-0.649744,0.179885,0.185574,-0.069601
773,2776655034,0.147362,0.410752,0.618669,-0.653311,0.099755,0.056515,-0.116851
774,2776688368,0.136259,0.422997,0.609335,-0.656671,0.144039,0.142833,0.079791
775,2776721702,0.125422,0.434361,0.599898,-0.660092,-0.016851,0.223930,-0.125203
776,2776755036,0.114059,0.446062,0.590202,-0.663084,0.007179,0.199997,-0.208287
777,2776788370,0.101920,0.458048,0.580123,-0.665778,0.005692,0.184805,-0.130787
778,2776821704,0.088938,0.470121,0.569628,-0.668280,-0.010923,0.162910,-0.138437
779,2776855038,0.075549,0.481965,0.558955,-0.670500,-0.026233,0.133740,-0.200954
780,2776888372,0.062100,0.493641,0.548245,-0.672227,0.193871,-0.012828,-0.052662
781,2776921706,0.049264,0.504707,0.537623,-0.673650,0.419035,-0.107445,-0.053009
782,2776955040,0.037528,0.514766,0.527102,-0.675107,0.361208,-0.257544,0.029301
783,2776988374,0.026397,0.524251,0.516473,-0.676550,0.251738,-0.020683,-0.178038
784,2777021708,0.015341,0.533315,0.505972,-0.677740,0.186349,-0.128236,-0.259309
785,2777055042,0.004218,0.542105,0.495614,-0.678579,0.198890,-0.337103,-0.150343
786,2777088376,-0.006605,0.550304,0.485501,-0.679271,0.345533,-0.281304,-0.101321
787,2777121710,-0.016416,0.557454,0.476187,-0.679867,0.320257,-0.500754,-0.113194
788,2777155044,-0.024973,0.563691,0.467716,-0.680345,0.352960,-0.616107,-0.116308
789,2777188378,-0.032201,0.569007,0.460330,-0.680653,0.369242,-0.832756,0.039081
790,2777221712,-0.037527,0.572806,0.454364,-0.681203,0.291070,-0.868434,0.049186
791,2777255046,-0.040824,0.574978,0.450075,-0.682030,0.156790,-0.711957,-0.123105
792,2777288380,-0.042565,0.575913,0.447527,-0.682811,0.160796,-0.606009,-0.219392
793,2777321714,-0.042825,0.576030,0.446637,-0.683279,0.166018,-0.694693,-0.111632
794,2777355048,-0.041617,0.575008,0.447358,-0.683742,0.185990,-0.604624,-0.155512
795,2777388382,-0.039071,0.573151,0.449492,-0.684052,0.313297,-0.620143,-0.032876
796,2777421716,-0.034849,0.570164,0.452994,-0.684466,0.303117,-0.496963,-0.049513
797,2777455050,-0.029362,0.566281,0.457638,-0.684857,0.136736,-0.343639,-0.107976
798,2777488384,-0.023155,0.561837,0.463104,-0.685082,0.121377,-0.234154,-0.146652
799,2777521718,-0.016328,0.556962,0.469209,-0.685105,0.102903,-0.143754,-0.161219
800,2777555052,-0.009316,0.551990,0.475692,-0.684789,0.137242,-0.190016,-0.187104
801,2777588386,-0.001922,0.546909,0.482489,-0.684171,0.428655,-0.338066,-0.203858
802,2777621720,0.006803,0.540866,0.489849,-0.683714,0.621169,-0.344236,0.102036
803,2777655054,0.016927,0.533338,0.497736,-0.683756,0.145046,-0.132765,-0.073080
804,2777688388,0.027250,0.525626,0.505869,-0.683425,-0.064957,0.108113,-0.338840
805,2777721722,0.037416,0.518240,0.514315,-0.682281,0.183430,0.086978,-0.104326
806,2777755056,0.047934,0.510431,0.522958,-0.680938,0.386646,-0.086881,0.035471
807,2777788390,0.059196,0.501678,0.531885,-0.679641,0.326734,-0.079781,-0.051854
808,2777821724,0.070940,0.492097,0.541141,-0.678213,0.124331,0.063787,-0.220757
809,2777855058,0.082902,0.482119,0.550618,-0.676393,0.044573,0.098620,-0.172521
810,2777888392,0.094874,0.471765,0.560204,-0.674245,0.035603,0.202326,-0.076215
811,2777921726,0.106761,0.460994,0.569819,-0.671857,-0.043359,0.176621,-0.140329
812,2777955060,0.118543,0.449762,0.579414,-0.669283,-0.000209,0.195273,-0.061495
813,2777988394,0.130088,0.438255,0.588752,-0.666618,-0.142273,0.333774,-0.073605
814,2778021728,0.140972,0.427040,0.597710,-0.663706,-0.251780,0.317243,-0.095291
815,2778055062,0.151272,0.416089,0.606174,-0.660711,-0.296887,0.132035,-0.123832
816,2778088396,0.160788,0.405586,0.614015,-0.657747,-0.254241,0.232987,-0.107581
817,2778121730,0.169586,0.395561,0.621196,-0.654894,-0.280990,0.267201,-0.093061
818,2778155064,0.177684,0.386140,0.627763,-0.652102,-0.366684,0.198107,-0.072092
819,2778188398,0.185068,0.377414,0.633564,-0.649541,-0.444081,0.242167,-0.003855
820,2778221732,0.191605,0.369627,0.638607,-0.647181,-0.454852,0.233490,-0.059697
821,2778255066,0.197272,0.362682,0.642997,-0.645058,-0.486044,0.200351,-0.069798
822,2778288400,0.202142,0.356494,0.646762,-0.643232,-0.580675,0.181249,-0.090753
823,2778321734,0.206078,0.351430,0.649817,-0.641690,-0.555972,0.058930,-0.123608
824,2778355068,0.208995,0.347644,0.652053,-0.640539,-0.439199,0.147643,-0.138383
825,2778388402,0.211200,0.344904,0.653521,-0.639801,-0.222876,0.231482,-0.039536
826,2778421736,0.212749,0.343256,0.654155,-0.639526,-0.212961,0.277197,-0.110931
827,2778455070,0.213334,0.342846,0.654106,-0.639601,-0.243702,0.210486,-0.163559
828,2778488404,0.213194,0.343119,0.653595,-0.640024,-0.342821,0.243823,-0.002625
829,2778521738,0.212514,0.343601,0.652675,-0.640929,-0.405017,0.145753,0.185564
830,2778555072,0.211448,0.344137,0.651390,-0.642300,-0.322703,0.213324,0.194255
831,2778588406,0.210030,0.344715,0.650163,-0.643697,-0.572783,0.053591,0.561805
832,2778621740,0.208003,0.345134,0.648721,-0.645583,-0.480432,0.078932,0.472725
833,2778655074,0.204855,0.345893,0.647413,-0.647494,-0.437616,0.034453,0.264359
834,2778688408,0.201328,0.346343,0.646563,-0.649207,-0.174989,-0.494997,0.519397
835,2778721742,0.200605,0.343571,0.646283,-0.651179,-0.056893,-0.568575,1.044239
836,2778755076,0.201050,0.339026,0.646184,-0.653518,-0.956744,-0.073413,0.257952
837,2778788410,0.199124,0.335857,0.646181,-0.655742,-0.707337,0.074467,0.324377
838,2778821744,0.197153,0.331609,0.647100,-0.657592,-0.515915,-0.014934,0.247484
839,2778855078,0.196360,0.326157,0.649025,-0.658658,-0.035361,0.108186,0.463336
840,2778888412,0.196704,0.320636,0.650409,-0.659900,0.343741,0.087249,0.622827
841,2778921746,0.197762,0.315760,0.650922,-0.661427,0.552238,-0.432409,0.778179
842,2778955080,0.197978,0.313601,0.649865,-0.663425,0.513781,-0.660241,0.736820
843,2778988414,0.197353,0.313656,0.646386,-0.666975,0.654926,-1.335322,1.133142
844,2779021748,0.198117,0.311221,0.640713,-0.673333,0.446512,-1.016000,0.591444
845,2779055082,0.198116,0.309112,0.633483,-0.681100,-0.165252,-0.399753,-1.201618
846,2779088416,0.194668,0.313349,0.625326,-0.687665,0.227872,0.013452,-1.658749
847,2779121750,0.188368,0.321959,0.617908,-0.692133,1.114139,0.471754,-1.640097
848,2779155084,0.183685,0.328486,0.612244,-0.695351,1.607099,1.231533,-0.960846
849,2779188418,0.183585,0.328045,0.607895,-0.699389,0.516730,0.411167,-1.615647
850,2779221752,0.184895,0.329189,0.604141,-0.701755,-0.643469,-0.017694,-2.481323
851,2779255086,0.177802,0.340123,0.601920,-0.700282,0.282914,0.361006,-1.341128
852,2779288420,0.169509,0.354104,0.599429,-0.697539,0.888493,0.511649,-1.310251
853,2779321754,0.162308,0.368837,0.598677,-0.692243,1.557199,0.795625,-0.651605
854,2779355088,0.161496,0.370314,0.600839,-0.689767,1.710825,1.142188,0.179693
855,2779388422,0.165452,0.364398,0.605023,-0.688321,-0.374625,0.704429,-0.182290
856,2779421756,0.166839,0.360137,0.609496,-0.686279,-0.862302,0.466784,-0.256790
857,2779455090,0.163760,0.363456,0.612702,-0.682406,-1.106936,-0.014223,0.479835
858,2779488424,0.157210,0.369989,0.613336,-0.679861,-0.952409,-1.262379,0.235953
859,2779521758,0.147202,0.377640,0.609537,-0.681310,-1.194377,-1.792774,-0.785113
860,2779555092,0.133869,0.389087,0.603135,-0.683314,-0.320144,-0.674410,-0.835929
861,2779588426,0.122340,0.398254,0.596802,-0.685750,1.249025,1.404782,-1.070398
862,2779621760,0.116273,0.398553,0.593516,-0.689474,1.758054,1.300405,-0.891586
863,2779655094,0.118553,0.385420,0.594539,-0.695643,1.601271,-0.579467,-0.750875
864,2779688428,0.126854,0.362956,0.598554,-0.702782,-0.281979,0.530746,-0.304098
865,2779721762,0.127133,0.352178,0.602418,-0.704911,-1.010053,0.731940,-0.767711
866,2779755096,0.122605,0.352336,0.605112,-0.703324,0.218763,0.031152,0.640268
867,2779788430,0.120855,0.349379,0.606619,-0.703804,1.292048,-1.255359,1.977866
868,2779821764,0.123148,0.342691,0.606455,-0.706830,1.556489,-0.695529,-0.369628
869,2779855098,0.129381,0.333525,0.604901,-0.711417,2.026407,0.275814,-2.074836
870,2779888432,0.138679,0.318928,0.603587,-0.717450,2.544974,0.780588,-2.182959
871,2779921766,0.147189,0.302809,0.602443,-0.723674,2.111588,-1.075393,-1.493088
872,2779955100,0.156506,0.288416,0.600407,-0.729268,1.966895,-1.325028,-0.448424
873,2779988434,0.163170,0.280717,0.597819,-0.732929,0.978034,-0.013073,-1.432530
874,2780021768,0.163476,0.279810,0.596108,-0.734599,0.485159,1.117387,-1.683609
875,2780055102,0.160812,0.277186,0.596067,-0.736213,0.477103,1.277434,-0.597190
876,2780088436,0.160954,0.261384,0.597127,-0.741088,0.258068,0.921179,1.267390
877,2780121770,0.167017,0.226698,0.598678,-0.749865,-0.057650,0.772169,3.127355
878,2780155104,0.183101,0.173424,0.601639,-0.757910,-0.285781,0.763432,4.256536
879,2780188438,0.214044,0.110689,0.606820,-0.757431,-0.900807,0.431632,4.449598
880,2780221772,0.258527,0.056425,0.609825,-0.747056,-3.061892,0.337286,3.255918
881,2780255106,0.306865,0.024844,0.607466,-0.732257,-4.534577,-0.144201,1.391402
882,2780288440,0.347040,0.017463,0.602290,-0.718682,-4.259040,-1.556897,0.066346
883,2780321774,0.372787,0.029127,0.597231,-0.709575,-3.409154,-2.107329,-0.872037
884,2780355108,0.383815,0.052106,0.593663,-0.705361,-2.894104,-1.936987,-1.829576
885,2780388442,0.382788,0.079722,0.592586,-0.704243,-2.751992,-1.677385,-2.426208
886,2780421776,0.372795,0.106708,0.594827,-0.704143,-2.564417,-1.504816,-2.327314
887,2780455110,0.356843,0.127592,0.600614,-0.704021,-2.052515,-1.529189,-1.681419
888,2780488444,0.338859,0.136365,0.609132,-0.703943,-1.449869,-1.497461,-1.182428
889,2780521778,0.321972,0.130580,0.618964,-0.704390,-1.161471,-1.184077,-0.860608
890,2780555112,0.307125,0.112157,0.628895,-0.705398,-1.295509,-1.013041,-0.376300
891,2780588446,0.292630,0.086085,0.638651,-0.706457,-1.383066,-0.911489,0.495883
892,2780621780,0.276245,0.057897,0.647979,-0.707432,-1.172801,-0.778519,1.294798
893,2780655114,0.255868,0.034292,0.656560,-0.708720,-0.901499,-0.457614,1.436335
894,2780688448,0.230384,0.022019,0.664101,-0.710920,-0.411239,-0.066031,1.042880
895,2780721782,0.201338,0.022572,0.670087,-0.714097,0.247303,0.516827,0.716535
896,2780755116,0.171180,0.031591,0.674455,-0.717502,1.689939,0.759237,0.678595
897,2780788450,0.143982,0.039490,0.677509,-0.720202,3.084013,0.859649,0.466094
898,2780821784,0.123751,0.039568,0.679908,-0.721695,3.623123,1.048478,0.234776
899,2780855118,0.111381,0.033058,0.681846,-0.722209,3.547132,1.043422,-0.024891
900,2780888452,0.104400,0.026819,0.683136,-0.722292,3.268588,1.111705,-0.178249
901,2780921786,0.100937,0.026002,0.683518,-0.722452,3.096961,1.157730,-0.120276
902,2780955120,0.100769,0.031026,0.682957,-0.722808,3.024185,1.233873,-0.163892
903,2780988454,0.104329,0.039167,0.681971,-0.722839,2.953591,1.174375,-0.173798
904,2781021788,0.112451,0.046663,0.681280,-0.721827,2.762817,1.070799,-0.168678
905,2781055122,0.125645,0.050801,0.681299,-0.719349,2.492877,0.920694,-0.088225
906,2781088456,0.143290,0.050760,0.681807,-0.715562,2.008230,0.704076,0.050968
907,2781121790,0.163841,0.047459,0.682324,-0.710870,1.552742,0.482987,0.259760
908,2781155124,0.185793,0.041858,0.682278,-0.705850,1.121246,0.281218,0.452711
909,2781188458,0.207907,0.034919,0.681259,-0.701028,0.753836,0.117821,0.594193
910,2781221792,0.229263,0.027715,0.679123,-0.696751,0.397986,-0.045155,0.707707
911,2781255126,0.249492,0.021311,0.675817,-0.693231,0.090337,-0.172606,0.658109
912,2781288460,0.268300,0.017102,0.671422,-0.690590,-0.286309,-0.272102,0.498618
913,2781321794,0.285011,0.016519,0.666240,-0.688926,-0.658952,-0.394186,0.301382
914,2781355128,0.299046,0.019980,0.660797,-0.688127,-0.937501,-0.427880,0.067502
915,2781388462,0.310505,0.026111,0.655437,-0.687972,-1.173350,-0.446858,-0.078347
916,2781421796,0.319130,0.033227,0.650435,-0.688466,-1.505651,-0.432539,-0.161465
917,2781455130,0.324299,0.039838,0.646328,-0.689567,-1.705960,-0.427490,-0.168215
918,2781488464,0.325806,0.044993,0.643534,-0.691150,-1.689955,-0.372134,-0.433659
919,2781521798,0.324116,0.048524,0.642490,-0.692676,-1.479020,-0.288242,-0.808705
920,2781555132,0.320383,0.050255,0.643222,-0.693609,-1.135731,-0.208425,-1.089232
921,2781588466,0.315964,0.048937,0.645332,-0.693770,-0.833758,-0.120302,-1.102430
922,2781621800,0.311567,0.042856,0.648289,-0.693405,-0.690854,-0.119550,-0.717010
923,2781655134,0.306513,0.032139,0.651739,-0.693002,-0.675323,-0.213133,-0.386268
924,2781688468,0.299085,0.019462,0.655863,-0.692829,-0.590482,-0.186096,-0.127043
925,2781721802,0.286388,0.010799,0.661242,-0.693270,-0.385265,-0.078242,0.302542
926,2781755136,0.267718,0.011280,0.667789,-0.694447,0.477281,0.194180,0.779160
927,2781788470,0.246836,0.018914,0.674028,-0.695988,2.634152,0.476280,1.279897
928,2781821804,0.233543,0.024176,0.676801,-0.697719,4.570478,1.405747,2.059673
929,2781855138,0.232133,0.025322,0.673053,-0.701763,4.094121,1.443391,1.198096
930,2781888472,0.238759,0.030005,0.664940,-0.707070,2.602835,0.756280,0.739681
931,2781921806,0.251016,0.037576,0.654051,-0.712598,2.745940,0.847017,0.965754
932,2781955140,0.269630,0.040050,0.640339,-0.718095,2.225432,0.888838,0.803485
933,2781988474,0.295847,0.031713,0.624941,-0.721745,1.482290,0.320923,0.812379
934,2782021808,0.324301,0.018193,0.608321,-0.724185,-0.480769,-1.070630,0.722888
935,2782055142,0.345692,0.011512,0.592610,-0.727445,-2.174141,-1.041572,0.275405
936,2782088476,0.358061,0.011375,0.573747,-0.736529,-1.665171,0.100207,0.863374
937,2782121810,0.368264,-0.000236,0.549316,-0.750088,-2.537592,-1.029162,-0.714145
938,2782155144,0.370050,-0.011405,0.527491,-0.764648,-2.456378,-1.942087,-1.356581
939,2782188478,0.359740,-0.014462,0.517917,-0.775976,-2.480390,-2.033035,-1.779982
940,2782221812,0.341172,-0.008662,0.518910,-0.783746,-2.801512,0.300576,-2.597849
941,2782255146,0.318897,0.007478,0.527827,-0.787176,-1.818202,0.122665,-1.659714
942,2782288480,0.300581,0.031452,0.541924,-0.784206,-1.832417,0.795405,-2.108967
943,2782321814,0.279541,0.074737,0.560548,-0.775923,-2.180608,1.507200,-2.170246
944,2782355148,0.246825,0.138030,0.574500,-0.768097,-0.008390,2.418276,-0.426470
945,2782388482,0.215924,0.194444,0.579938,-0.761078,1.581388,2.805882,0.146219
946,2782421816,0.194347,0.232058,0.579929,-0.756347,1.807111,1.994846,0.396577
947,2782455150,0.181683,0.251499,0.578461,-0.754401,1.207221,0.561326,0.278357
948,2782488484,0.173868,0.259622,0.577225,-0.754438,0.015155,-0.822723,0.591683
949,2782521818,0.167757,0.260534,0.576411,-0.756128,-0.415056,-1.454383,-0.072881
950,2782555152,0.162069,0.255582,0.580461,-0.755959,-0.231544,-1.335727,-0.967374
951,2782588486,0.158240,0.242977,0.591403,-0.752439,0.261036,-1.376835,-0.791360
952,2782621820,0.160049,0.217196,0.607617,-0.747001,0.506774,-1.444407,0.068785
953,2782655154,0.169382,0.175396,0.625739,-0.740943,0.674058,-1.513892,0.764668
954,2782688488,0.182760,0.123414,0.641895,-0.734396,-0.008832,-1.375404,0.895956
955,2782721822,0.191468,0.076446,0.653654,-0.728170,-1.013073,-1.275007,0.693736
956,2782755156,0.189738,0.048333,0.661105,-0.724295,-1.099313,-1.308589,0.555248
957,2782788490,0.178420,0.042603,0.665248,-0.723737,-0.295077,-0.891675,0.639524
958,2782821824,0.162608,0.052069,0.666527,-0.725664,1.061090,-0.357550,0.889641
959,2782855158,0.148366,0.064774,0.665376,-0.728743,1.946206,0.062195,0.760866
960,2782888492,0.139144,0.073141,0.662986,-0.731941,2.133539,0.307965,0.548924
961,2782921826,0.135577,0.075140,0.660516,-0.734636,2.145538,0.346566,0.397168
962,2782955160,0.136477,0.072945,0.658373,-0.736612,1.815782,0.426721,0.073199
963,2782988494,0.140163,0.071104,0.656355,-0.737900,1.337808,0.629028,-0.105039
964,2783021828,0.145912,0.071413,0.654105,-0.738753,1.138219,0.751798,-0.003761
965,2783055162,0.153618,0.072788,0.651432,-0.739418,0.891509,0.785831,0.132507
966,2783088496,0.162744,0.074635,0.648481,-0.739875,0.518128,0.725708,0.169774
967,2783121830,0.172394,0.077589,0.645551,-0.739948,0.218156,0.640869,0.135530
968,2783155164,0.182106,0.081721,0.642806,-0.739567,-0.019426,0.596751,0.031882
969,2783188498,0.191862,0.086472,0.640291,-0.738741,-0.252067,0.512065,-0.095465
970,2783221832,0.201558,0.091005,0.638106,-0.737504,-0.448084,0.378226,-0.204138
971,2783255166,0.210806,0.094535,0.636491,-0.735868,-0.626235,0.239048,-0.302686
972,2783288500,0.219171,0.096637,0.635706,-0.733827,-0.747582,0.056531,-0.323566
973,2783321834,0.226350,0.097030,0.635953,-0.731377,-0.811505,-0.131890,-0.326140
974,2783355168,0.232402,0.095151,0.637164,-0.728668,-0.745620,-0.304005,-0.268065
975,2783388502,0.237474,0.090828,0.638969,-0.725999,-0.759649,-0.450728,-0.218983
976,2783421836,0.241415,0.084932,0.640928,-0.723682,-0.777997,-0.573056,-0.173480
977,2783455170,0.243390,0.079244,0.642834,-0.721973,-0.790488,-0.674053,-0.089124
978,2783488504,0.242604,0.075296,0.644627,-0.721061,-0.711306,-0.710748,0.047490
979,2783521838,0.239081,0.073611,0.646112,-0.721083,-0.576140,-0.622088,0.059338
980,2783555172,0.233553,0.073659,0.647193,-0.721919,-0.364348,-0.495964,0.064095
981,2783588506,0.226915,0.074503,0.647905,-0.723310,-0.176718,-0.333373,0.075200
982,2783621840,0.219940,0.075357,0.648380,-0.724949,-0.032639,-0.205292,0.060099
983,2783655174,0.213099,0.076096,0.648625,-0.726693,-0.024567,-0.000772,0.046532
984,2783688508,0.205905,0.077548,0.648750,-0.728499,-0.062171,0.094669,-0.001484
985,2783721842,0.197731,0.080087,0.649032,-0.730236,0.112314,0.185155,-0.103422
986,2783755176,0.188922,0.083208,0.649636,-0.731681,0.322961,0.320451,-0.209764
987,2783788510,0.180356,0.085891,0.650649,-0.732631,0.569238,0.387422,-0.167100
988,2783821844,0.173002,0.086644,0.652139,-0.732992,0.856306,0.406708,-0.066748
989,2783855178,0.167893,0.084830,0.654100,-0.732644,0.923914,0.449865,0.143126
990,2783888512,0.164981,0.081690,0.656423,-0.731585,0.892487,0.455322,0.164666
991,2783921846,0.164126,0.078294,0.659214,-0.729636,1.147999,0.219212,0.066165
992,2783955180,0.165652,0.074447,0.662055,-0.727117,1.295098,0.101826,-0.107988
993,2783988514,0.169309,0.070379,0.664222,-0.724699,1.133574,0.040337,-0.134542
994,2784021848,0.173878,0.066839,0.665586,-0.722699,1.085802,-0.144035,-0.052502
995,2784055182,0.178275,0.065017,0.666277,-0.721155,0.817060,-0.058023,0.082842
996,2784088516,0.182369,0.065833,0.666563,-0.719792,0.876007,0.021726,0.295205
997,2784121850,0.188004,0.066859,0.666547,-0.718260,0.908017,0.029593,0.410141
998,2784155184,0.196357,0.066193,0.666284,-0.716328,0.687070,-0.051283,0.354546
999,2784188518,0.206945,0.064204,0.665772,-0.714002,0.475639,-0.229042,0.207029
1000,2784221852,0.218553,0.061674,0.664747,-0.711718,0.055503,-0.282018,0.126727
1001,2784255186,0.229378,0.060017,0.663316,-0.709785,-0.361792,-0.294009,0.047046
1002,2784288520,0.238037,0.059294,0.662118,-0.708111,-0.219715,-0.373847,-0.185282
1003,2784321854,0.245159,0.056734,0.661492,-0.706474,-0.084134,-0.259456,-0.318811
1004,2784355188,0.250628,0.052439,0.661305,-0.705060,-0.436498,-0.005161,-0.119653
1005,2784388522,0.255278,0.046342,0.661807,-0.703347,0.161904,-0.208228,0.084392
1006,2784421856,0.261001,0.037355,0.662251,-0.701360,0.160674,-0.035428,-0.115806
1007,2784455190,0.266975,0.028338,0.662059,-0.699713,-0.413877,0.066339,0.177657
1008,2784488524,0.271693,0.021063,0.661769,-0.698426,0.099612,-0.131497,0.336810
1009,2784521858,0.276108,0.014361,0.661294,-0.697314,0.193555,-0.012151,0.059298
1010,2784555192,0.280216,0.010307,0.660115,-0.696864,-0.130445,0.007683,-0.206384
1011,2784588526,0.283511,0.010476,0.658132,-0.697404,-0.023639,0.011358,-0.082137
1012,2784621860,0.286059,0.013522,0.655476,-0.698812,-0.543019,0.041436,-0.047173
1013,2784655194,0.286658,0.020432,0.653151,-0.700573,-0.838898,0.076786,-0.108205
1014,2784688528,0.285435,0.030459,0.651587,-0.702162,-0.783741,0.173592,-0.054837
1015,2784721862,0.283907,0.040509,0.650385,-0.703387,-0.927929,0.249375,-0.123275
1016,2784755196,0.282654,0.049080,0.649523,-0.704143,-0.974815,0.172206,-0.239345
1017,2784788530,0.281539,0.055148,0.649409,-0.704246,-0.894133,0.029999,-0.411851
1018,2784821864,0.279960,0.058330,0.650168,-0.703918,-0.969944,-0.097789,-0.641868
1019,2784855198,0.276610,0.059912,0.651844,-0.703559,-0.990972,-0.162337,-0.660783
1020,2784888532,0.270938,0.060324,0.654474,-0.703290,-0.729902,-0.227142,-0.513996
1021,2784921866,0.263443,0.059064,0.657684,-0.703250,-0.744218,-0.135966,-0.203312
1022,2784955200,0.253410,0.058007,0.661604,-0.703348,-0.739815,-0.109482,0.271117
1023,2784988534,0.241667,0.057290,0.666293,-0.703113,-0.013774,-0.098130,0.283011
1024,2785021868,0.230860,0.055089,0.671147,-0.702303,0.486617,-0.093099,0.154448
1025,2785055202,0.222603,0.051019,0.675513,-0.701090,0.885239,-0.194452,0.147651
1026,2785088536,0.217468,0.045134,0.678756,-0.699971,1.018801,-0.247690,0.152209
1027,2785121870,0.214278,0.039365,0.680736,-0.699380,0.793080,-0.310427,0.214967
1028,2785155204,0.210470,0.037017,0.681912,-0.699519,0.735962,-0.368115,0.314198
1029,2785188538,0.205403,0.038162,0.682495,-0.700394,0.975228,-0.191375,0.254775
1030,2785221872,0.200252,0.040780,0.682238,-0.701988,1.082522,-0.083411,0.167065
1031,2785255206,0.195736,0.044145,0.681343,-0.703924,1.169708,0.012558,0.047379
1032,2785288540,0.192531,0.047524,0.680061,-0.705825,1.247024,0.071946,-0.021016
1033,2785321874,0.191086,0.050487,0.678450,-0.707560,1.132112,0.153310,-0.040258
1034,2785355208,0.191216,0.053286,0.676463,-0.709221,1.033999,0.131051,-0.041726
1035,2785388542,0.192581,0.056082,0.674052,-0.710930,0.811899,0.148041,-0.025945
1036,2785421876,0.194485,0.059402,0.671274,-0.712767,0.548036,0.194910,0.015361
1037,2785455210,0.196395,0.063592,0.668316,-0.714659,0.396981,0.221963,-0.009692
1038,2785488544,0.198483,0.067951,0.665306,-0.716488,0.290216,0.282099,0.004745
1039,2785521878,0.200734,0.071433,0.662269,-0.718333,0.025960,0.363239,0.212683
1040,2785555212,0.202523,0.073729,0.659371,-0.720262,-0.142849,0.364769,0.264830
1041,2785588546,0.203119,0.075649,0.656856,-0.722190,-0.339859,0.454643,0.197803
1042,2785621880,0.202092,0.078396,0.654807,-0.724044,-0.401870,0.461574,0.201535
1043,2785655214,0.199507,0.082138,0.653055,-0.725926,-0.353568,0.424559,0.122081
1044,2785688548,0.195644,0.086967,0.651406,-0.727894,-0.315721,0.397260,-0.206293
1045,2785721882,0.190439,0.093065,0.649797,-0.729955,-0.285701,0.392469,-0.390437
1046,2785755216,0.183916,0.099330,0.648347,-0.732088,-0.245967,0.423184,-0.313054
1047,2785788550,0.176172,0.104132,0.647407,-0.734154,-0.176528,0.490717,-0.084371
1048,2785821884,0.167138,0.106908,0.646978,-0.736243,-0.135489,0.542347,0.088680
1049,2785855218,0.156920,0.108915,0.646829,-0.738326,0.023776,0.532284,0.057730
1050,2785888552,0.146076,0.111548,0.646388,-0.740540,0.258370,0.535384,0.236597
1051,2785921886,0.135219,0.115369,0.644991,-0.743230,0.314248,0.557313,0.321362
1052,2785955220,0.124077,0.121376,0.642356,-0.746492,0.254251,0.603664,0.258621
1053,2785988554,0.111920,0.130547,0.638572,-0.750104,0.260193,0.782548,0.111700
1054,2786021888,0.098733,0.142420,0.634078,-0.753600,0.351440,0.914388,-0.164248
1055,2786055222,0.085365,0.155486,0.629692,-0.756323,0.521630,0.977646,-0.451985
1056,2786088556,0.072913,0.167823,0.626072,-0.757992,0.672512,0.809514,-0.579179
1057,2786121890,0.061793,0.178313,0.623541,-0.758671,0.603226,0.624071,-0.447001
1058,2786155224,0.051583,0.187093,0.621933,-0.758639,0.571443,0.291154,-0.180183
1059,2786188558,0.041709,0.195591,0.620263,-0.758471,0.266003,0.061705,0.009976
1060,2786221892,0.030491,0.207074,0.616986,-0.758629,0.025631,0.078311,0.024544
1061,2786255226,0.018048,0.222525,0.611882,-0.758786,0.156680,-0.220379,0.223025
1062,2786288560,0.006449,0.238984,0.605569,-0.759032,-0.054126,-0.392397,0.341417
1063,2786321894,-0.005095,0.256302,0.597549,-0.759748,-0.573109,-0.102028,0.258841
1064,2786355228,-0.017949,0.275996,0.588074,-0.760047,-0.658073,-0.366729,0.272368
1065,2786388562,-0.029941,0.294671,0.578944,-0.759668,-0.638642,-0.639244,0.294938
1066,2786421896,-0.040249,0.309508,0.571008,-0.759298,-0.923617,-0.593749,0.017898
1067,2786455230,-0.049188,0.320585,0.564844,-0.758786,-1.023279,-0.911242,-0.158986
1068,2786488564,-0.057067,0.327279,0.561051,-0.758190,-1.060843,-0.868795,-0.408243
1069,2786521898,-0.064911,0.329953,0.559608,-0.757466,-1.011427,-0.804743,-0.545753
1070,2786555232,-0.073418,0.329749,0.560289,-0.756274,-0.703192,-0.669671,-0.514356
1071,2786588566,-0.081924,0.327177,0.563021,-0.754486,-0.292145,-0.564684,-0.280636
1072,2786621900,-0.088928,0.322146,0.567764,-0.752301,0.083038,-0.501190,-0.194337
1073,2786655234,-0.093780,0.315358,0.573938,-0.749899,0.315857,-0.501939,-0.150308
1074,2786688568,-0.096545,0.308124,0.580654,-0.747381,0.485225,-0.576437,-0.096287