sep=,
DeviceTag:,D_Leg
FirmwareVersion:,2.2.1
AppVersion:,2023.6.0
SyncStatus:,Synced
OutputRate:,30Hz
FilterProfile:,General
Measurement Mode:,Sensor fusion Mode - Complete(Quaternion)
StartTime: ,2026-08-21_20:45:13_204 AEST
© Movella Technologies B. V. 2005-2026

PacketCounter,SampleTimeFine,Quat_W,Quat_X,Quat_Y,Quat_Z,FreeAcc_X,FreeAcc_Y,FreeAcc_Z
1,452047622,0.360908,-0.556542,-0.503637,-0.553510,-0.028540,0.177799,0.115004
2,452080956,0.360074,-0.557234,-0.502538,-0.554355,-0.026288,0.245212,0.084857
3,452114290,0.359383,-0.557666,-0.501466,-0.555339,0.067730,0.188854,0.155535
4,452147624,0.358812,-0.557787,-0.500603,-0.556365,0.145406,0.155797,0.141042
5,452180958,0.358268,-0.557766,-0.499762,-0.557491,0.075547,0.134431,0.107228
6,452214292,0.357838,-0.557491,-0.498996,-0.558728,0.043616,0.096152,0.089617
7,452247626,0.357055,-0.557154,-0.498064,-0.560395,-0.053465,0.368189,0.150926
8,452280960,0.356544,-0.556788,-0.497546,-0.561542,-0.300892,0.143328,0.085424
9,452314294,0.355519,-0.556524,-0.496639,-0.563253,-0.225691,0.256728,0.135759
10,452347628,0.354878,-0.555812,-0.496063,-0.564866,-0.307028,0.382269,0.122331
11,452380962,0.354925,-0.554740,-0.495944,-0.565993,-0.366716,0.394378,0.113668
12,452414296,0.355110,-0.553389,-0.496149,-0.567020,-0.363104,0.285923,0.104331
13,452447630,0.355411,-0.552017,-0.496988,-0.567434,-0.439025,0.105468,0.078060
14,452480964,0.355987,-0.550623,-0.498310,-0.567268,-0.425530,-0.082208,0.110093
15,452514298,0.356633,-0.549068,-0.499877,-0.566991,-0.238157,-0.191611,0.088794
16,452547632,0.357049,-0.547688,-0.501437,-0.566686,-0.035590,-0.167136,0.105538
17,452580966,0.356953,-0.546691,-0.502619,-0.566661,0.010497,-0.077247,0.127004
18,452614300,0.356507,-0.545939,-0.503284,-0.567077,0.103655,-0.000519,0.153225
19,452647634,0.355834,-0.545295,-0.503172,-0.568218,0.163473,0.007462,0.167182
20,452680968,0.354641,-0.544938,-0.502241,-0.570127,0.127498,0.057496,0.201427
21,452714302,0.353397,-0.544715,-0.500977,-0.572220,0.023040,0.089552,0.101133
22,452747636,0.352176,-0.544438,-0.499388,-0.574621,0.105499,0.126320,0.132969
23,452780970,0.350931,-0.544079,-0.497630,-0.577242,0.153205,0.142937,0.213974
24,452814304,0.350063,-0.543354,-0.495779,-0.580037,0.125448,0.234492,0.110497
25,452847638,0.349847,-0.541563,-0.493393,-0.583864,0.065590,0.083381,0.358550
26,452880972,0.349232,-0.539228,-0.490002,-0.589225,0.457530,0.180474,0.137912
27,452914306,0.348090,-0.537208,-0.485703,-0.595273,0.211247,0.265734,0.220574
28,452947640,0.346689,-0.535897,-0.481897,-0.600345,0.117371,0.121354,0.194958
29,452980974,0.345445,-0.534844,-0.478324,-0.604841,0.008477,0.186005,-0.039311
30,453014308,0.344194,-0.534323,-0.475096,-0.608548,-0.032115,0.158202,-0.143749
31,453047642,0.343498,-0.533568,-0.472361,-0.611725,-0.118576,0.056128,0.066228
32,453080976,0.343347,-0.532335,-0.469735,-0.614898,-0.055741,0.063533,0.041931
33,453114310,0.344167,-0.529995,-0.466905,-0.618605,0.134642,0.166420,-0.060863
34,453147644,0.344835,-0.528306,-0.463888,-0.621939,-0.044028,-0.057697,0.140453
35,453180978,0.343970,-0.528047,-0.460781,-0.624939,-0.303486,-0.248742,0.220304
36,453214312,0.342532,-0.528276,-0.458004,-0.627572,-0.369095,-0.076115,-0.036622
37,453247646,0.341205,-0.529174,-0.455952,-0.629031,-0.438600,-0.070489,-0.136916
38,453280980,0.339455,-0.530808,-0.453887,-0.630093,-0.427089,0.010992,-0.042329
39,453314314,0.337990,-0.532075,-0.452367,-0.630905,-0.370884,0.106994,-0.029942
40,453347648,0.337154,-0.532784,-0.451816,-0.631149,-0.063888,0.180467,0.149588
41,453380982,0.336315,-0.533487,-0.451537,-0.631202,0.162278,0.258109,0.199619
42,453414316,0.335581,-0.534174,-0.450989,-0.631403,0.231313,0.247292,0.178486
43,453447650,0.335090,-0.534614,-0.449973,-0.632017,0.254490,0.209761,0.160374
44,453480984,0.334639,-0.534806,-0.448502,-0.633137,0.247854,0.307880,0.220108
45,453514318,0.334436,-0.534700,-0.446932,-0.634443,0.132605,0.433462,0.256473
46,453547652,0.335086,-0.534059,-0.445902,-0.635364,0.031918,0.224572,0.110953
47,453580986,0.336564,-0.532923,-0.445451,-0.635853,-0.268019,0.099711,0.230662
48,453614320,0.338298,-0.531474,-0.445999,-0.635761,-0.488792,0.018759,0.204329
49,453647654,0.340840,-0.529174,-0.447540,-0.635239,-0.222086,-0.139339,0.196743
50,453680988,0.344760,-0.524711,-0.448990,-0.635803,0.047409,-0.334795,0.505954
51,453714322,0.348618,-0.517207,-0.448427,-0.640230,0.661839,-0.691614,0.684430
52,453747656,0.350842,-0.509528,-0.446378,-0.646572,0.505862,0.154996,0.697314
53,453780990,0.351987,-0.502672,-0.446397,-0.651286,-0.156658,0.301590,-1.244695
54,453814324,0.347338,-0.505976,-0.445418,-0.651894,-2.754001,-0.161613,-1.499837
55,453847658,0.343779,-0.508827,-0.446310,-0.650950,-1.614069,-0.463420,-0.409041
56,453880992,0.350642,-0.502458,-0.452802,-0.647745,0.850163,0.010179,0.203701
57,453914326,0.352673,-0.501248,-0.455471,-0.645706,0.637964,-0.685960,-0.225363
58,453947660,0.342752,-0.511349,-0.449026,-0.647640,0.510526,-1.858918,1.235806
59,453980994,0.328439,-0.520956,-0.439727,-0.653751,1.891004,-2.431168,0.979730
60,454014328,0.312279,-0.528984,-0.430690,-0.661197,1.349886,0.183117,-0.027913
61,454047662,0.296328,-0.539214,-0.420411,-0.666866,-0.226218,1.292140,-0.330596
62,454080996,0.282401,-0.549279,-0.409328,-0.671574,-1.063754,1.235603,-0.399557
63,454114330,0.273006,-0.556064,-0.401381,-0.674663,-1.621595,1.306690,-0.631989
64,454147664,0.267900,-0.559856,-0.396621,-0.676388,-1.109346,3.498514,0.028704
65,454180998,0.272226,-0.559824,-0.399136,-0.673200,-0.096585,1.626036,0.598053
66,454214332,0.279414,-0.557750,-0.405798,-0.667974,1.036891,-0.647063,0.523607
67,454247666,0.284920,-0.556564,-0.411535,-0.663109,0.786186,-0.595024,-0.124560
68,454281000,0.287696,-0.557373,-0.414420,-0.659424,0.604878,-1.213035,0.460534
69,454314334,0.287257,-0.559031,-0.413258,-0.658941,0.708428,-0.656744,0.207411
70,454347668,0.284390,-0.563359,-0.409902,-0.658595,0.094608,0.585685,0.057611
71,454381002,0.281187,-0.567953,-0.406346,-0.658229,-0.155851,0.741487,0.136046
72,454414336,0.279822,-0.571011,-0.404297,-0.657425,-0.289937,0.612503,0.014405
73,454447670,0.281373,-0.572358,-0.404730,-0.655322,-0.193963,0.441044,-0.037165
74,454481004,0.284469,-0.573459,-0.406999,-0.651607,-0.099762,0.166855,-0.204863
75,454514338,0.287068,-0.576050,-0.410053,-0.646246,-0.075494,-0.042474,-0.032254
76,454547672,0.288551,-0.579791,-0.413137,-0.640247,-0.063627,0.172012,0.060428
77,454581006,0.289899,-0.583465,-0.416371,-0.634177,-0.081718,0.306357,0.162322
78,454614340,0.292126,-0.586100,-0.420154,-0.628203,0.054374,0.300454,0.245993
79,454647674,0.295097,-0.588020,-0.424073,-0.622358,0.287016,0.162937,0.178944
80,454681008,0.298127,-0.589552,-0.427559,-0.617058,0.238910,0.130262,0.272902
81,454714342,0.300428,-0.591327,-0.429998,-0.612531,0.264304,-0.162016,0.189404
82,454747676,0.301276,-0.593883,-0.430808,-0.609063,0.351694,-0.041112,0.096916
83,454781010,0.301341,-0.597308,-0.430975,-0.605554,0.167794,0.122718,0.081938
84,454814344,0.301487,-0.600706,-0.431364,-0.601832,0.048465,0.448863,0.129518
85,454847678,0.302753,-0.603088,-0.432652,-0.597876,0.163959,0.400366,0.208822
86,454881012,0.305025,-0.604416,-0.434772,-0.593829,0.412823,0.419808,0.172049
87,454914346,0.307785,-0.605261,-0.437091,-0.589828,0.455142,0.218768,0.200392
88,454947680,0.309887,-0.606550,-0.438754,-0.586157,0.274463,-0.046888,0.108725
89,454981014,0.311458,-0.608141,-0.439772,-0.582903,0.046802,-0.152943,0.112730
90,455014348,0.313217,-0.609551,-0.440416,-0.579995,-0.089260,0.024469,0.151073
91,455047682,0.315024,-0.610645,-0.441038,-0.577387,-0.202036,0.054811,0.010649
92,455081016,0.317002,-0.611740,-0.441951,-0.574440,-0.343705,-0.044009,0.051477
93,455114350,0.318956,-0.612930,-0.442971,-0.571295,-0.262565,-0.133733,-0.026953
94,455147684,0.320576,-0.614356,-0.443934,-0.568100,-0.119174,-0.082139,0.065256
95,455181018,0.321824,-0.616211,-0.444779,-0.564714,-0.123465,-0.001220,0.162210
96,455214352,0.322917,-0.618266,-0.445360,-0.561377,-0.151385,0.105218,0.054807
97,455247686,0.324804,-0.619529,-0.446461,-0.558012,-0.061559,-0.037760,0.053681
98,455281020,0.327498,-0.620193,-0.448119,-0.554357,-0.138924,0.025932,0.100307
99,455314354,0.330194,-0.620805,-0.449765,-0.550729,-0.316579,0.044453,0.144003
100,455347688,0.333093,-0.621164,-0.451349,-0.547272,-0.200064,0.072043,0.146250
101,455381022,0.335816,-0.621246,-0.452684,-0.544404,-0.170684,0.128728,0.119878
102,455414356,0.338397,-0.621259,-0.453889,-0.541782,-0.328670,0.100504,0.113173
103,455447690,0.340410,-0.621490,-0.454757,-0.539523,-0.491666,-0.168311,0.034609
104,455481024,0.341529,-0.622296,-0.455300,-0.537424,-0.765571,0.043627,0.135347
105,455514358,0.342723,-0.622920,-0.455836,-0.535483,-0.291294,0.237405,0.157097
106,455547692,0.344184,-0.623195,-0.456726,-0.533465,0.244827,0.549686,0.227612
107,455581026,0.345779,-0.623352,-0.457413,-0.531658,0.532347,0.378158,0.163672
108,455614360,0.346345,-0.624157,-0.457351,-0.530398,0.286909,0.323361,0.399152
109,455647694,0.345726,-0.625572,-0.455991,-0.530304,0.214688,0.244816,0.153643
110,455681028,0.344833,-0.626965,-0.454521,-0.530503,0.178352,0.310083,0.224571
111,455714362,0.343894,-0.628163,-0.453108,-0.530904,-0.166822,0.278945,0.068541
112,455747696,0.343135,-0.629139,-0.452006,-0.531179,-0.239634,0.000042,0.024946
113,455781030,0.342252,-0.630051,-0.451079,-0.531455,-0.187532,-0.060415,0.129659
114,455814364,0.340522,-0.631440,-0.449759,-0.532037,-0.139980,-0.101819,0.158565
115,455847698,0.338139,-0.633111,-0.448005,-0.533049,0.010156,0.015094,0.180374
116,455881032,0.334750,-0.635463,-0.445449,-0.534530,0.140965,0.178748,0.244294
117,455914366,0.330230,-0.638461,-0.441557,-0.536992,0.477170,0.327118,0.150459
118,455947700,0.324846,-0.641637,-0.437456,-0.539840,0.490055,0.580346,0.167787
119,455981034,0.319257,-0.644693,-0.433903,-0.542395,0.193138,0.742369,0.136359
120,456014368,0.314410,-0.647027,-0.430721,-0.544977,0.312734,0.450618,0.300406
121,456047702,0.309038,-0.649319,-0.426442,-0.548676,0.416956,-0.161955,0.187340
122,456081036,0.303161,-0.652067,-0.421209,-0.552723,0.131210,0.054648,0.179966
123,456114370,0.296100,-0.655149,-0.415120,-0.557493,-0.033330,0.693194,0.012254
124,456147704,0.287752,-0.658096,-0.408568,-0.563203,-0.115848,0.785414,0.297773
125,456181038,0.280966,-0.659580,-0.402860,-0.568977,0.111592,0.389834,0.174264
126,456214372,0.275731,-0.659962,-0.398386,-0.574220,0.030027,-0.122515,0.102939
127,456247706,0.271048,-0.660095,-0.394665,-0.578848,-0.138932,-0.271175,0.073274
128,456281040,0.265968,-0.660465,-0.391065,-0.583210,-0.385447,-0.074401,0.067034
129,456314374,0.260671,-0.660949,-0.387470,-0.587437,-0.514845,0.135781,0.044415
130,456347708,0.254767,-0.661459,-0.383388,-0.592113,-0.378010,0.195272,0.142995
131,456381042,0.248604,-0.661742,-0.379142,-0.597129,-0.236392,-0.080501,0.053039
132,456414376,0.243519,-0.661561,-0.375762,-0.601544,-0.347186,-0.296611,0.081084
133,456447710,0.238618,-0.661036,-0.372767,-0.605934,-0.605759,-0.231701,-0.016409
134,456481044,0.232894,-0.660894,-0.369402,-0.610360,-0.654824,0.051977,-0.002361
135,456514378,0.226796,-0.661262,-0.365510,-0.614586,-0.802376,0.201091,0.106331
136,456547712,0.220755,-0.661652,-0.361581,-0.618677,-0.689631,0.016310,0.011093
137,456581046,0.215470,-0.661727,-0.358343,-0.622333,-0.487268,-0.173147,-0.001719
138,456614380,0.210929,-0.661406,-0.355781,-0.625691,-0.240138,-0.211929,0.109858
139,456647714,0.206670,-0.661274,-0.353113,-0.628755,-0.140436,-0.103013,0.025748
140,456681048,0.200848,-0.661472,-0.348407,-0.633045,-0.069612,0.140286,-0.002296
141,456714382,0.194383,-0.661853,-0.342680,-0.637774,0.140903,0.074331,0.317019
142,456747716,0.188349,-0.662178,-0.337178,-0.642163,0.177174,0.041243,0.340491
143,456781050,0.182948,-0.662083,-0.331978,-0.646518,0.121533,0.099209,0.132441
144,456814384,0.179297,-0.661354,-0.328045,-0.650283,0.118229,0.099169,-0.085394
145,456847718,0.177126,-0.660237,-0.324994,-0.653537,-0.054977,0.027271,-0.026108
146,456881052,0.175305,-0.658885,-0.322074,-0.656830,-0.149501,0.236216,-0.017397
147,456914386,0.174586,-0.657001,-0.319955,-0.659936,-0.345879,0.310066,0.097972
148,456947720,0.175220,-0.654952,-0.318956,-0.662285,-0.742659,0.130779,0.485678
149,456981054,0.174997,-0.653719,-0.318082,-0.663980,-0.915631,-0.142491,0.298087
150,457014388,0.172390,-0.653841,-0.317019,-0.665049,-0.672065,0.058903,-0.293321
151,457047722,0.169265,-0.655624,-0.315938,-0.664611,0.189043,0.144141,-0.459307
152,457081056,0.166981,-0.658572,-0.315200,-0.662621,1.125954,0.286924,0.088190
153,457114390,0.166964,-0.660098,-0.316097,-0.660677,1.028171,0.648770,0.397731
154,457147724,0.171774,-0.658280,-0.319741,-0.659504,0.727282,0.849008,0.530708
155,457181058,0.177229,-0.655394,-0.323080,-0.659307,1.331176,0.196093,0.176674
156,457214392,0.177010,-0.654820,-0.323058,-0.659947,1.573458,-1.070230,-0.107542
157,457247726,0.172616,-0.656747,-0.320388,-0.660497,0.919609,-1.326969,-0.056986
158,457281060,0.166390,-0.659492,-0.315641,-0.661645,0.065462,-1.525011,0.029243
159,457314394,0.157127,-0.663484,-0.309270,-0.662925,-0.639373,-0.591810,-0.487347
160,457347728,0.148683,-0.667660,-0.304488,-0.662894,-0.852854,0.170821,-0.284574
161,457381062,0.142838,-0.671075,-0.300899,-0.662369,0.586209,1.918273,0.690676
162,457414396,0.146717,-0.671792,-0.302559,-0.660034,0.590397,1.469850,0.847621
163,457447730,0.147578,-0.671976,-0.302766,-0.659561,0.916075,0.036635,0.552982
164,457481064,0.148805,-0.670860,-0.304074,-0.659818,0.956223,-0.534695,-0.011228
165,457514398,0.151100,-0.669299,-0.304699,-0.660594,0.513532,-0.752134,0.036833
166,457547732,0.152730,-0.667853,-0.303189,-0.662375,0.462766,-0.345356,0.068767
167,457581066,0.153004,-0.667370,-0.300245,-0.664137,-0.150014,0.036533,-0.012622
168,457614400,0.150759,-0.667668,-0.295033,-0.666683,-0.698682,0.459934,0.054860
169,457647734,0.148213,-0.667879,-0.290435,-0.669056,-0.868081,0.953966,-0.008481
170,457681068,0.148659,-0.667617,-0.288664,-0.669985,-1.098970,0.907169,-0.137751
171,457714402,0.150386,-0.667803,-0.288702,-0.669397,-1.112148,0.411608,-0.308288
172,457747736,0.151775,-0.669234,-0.289482,-0.667315,-0.929283,0.213086,-0.201661
173,457781070,0.151816,-0.672417,-0.290056,-0.663847,-0.891539,0.145638,-0.099573
174,457814404,0.151061,-0.677410,-0.291201,-0.658420,-0.974873,0.117345,0.035166
175,457847738,0.150939,-0.683312,-0.293864,-0.651125,-0.748291,0.161879,-0.055761
176,457881072,0.151654,-0.688874,-0.297522,-0.643391,-0.030326,0.150564,-0.071626
177,457914406,0.153057,-0.692885,-0.301245,-0.636987,1.239083,0.213303,0.316349
178,457947740,0.154809,-0.694665,-0.303858,-0.633374,2.347199,0.007466,0.763254
179,457981074,0.156285,-0.694875,-0.304859,-0.632300,2.609799,-0.017832,0.643720
180,458014408,0.156523,-0.695197,-0.304135,-0.632236,1.473900,-0.013031,0.392631
181,458047742,0.155268,-0.696030,-0.301825,-0.632735,-0.020776,0.152811,0.079337
182,458081076,0.154118,-0.696615,-0.299757,-0.633355,-0.816410,0.473599,-0.028760
183,458114410,0.155017,-0.696408,-0.299960,-0.633267,-0.995821,0.580440,-0.082376
184,458147744,0.157514,-0.695914,-0.301896,-0.632274,-0.742746,0.482489,-0.039181
185,458181078,0.159751,-0.695766,-0.303861,-0.630932,-0.320805,0.127412,0.088329
186,458214412,0.160834,-0.696024,-0.304770,-0.629933,0.124048,-0.102653,0.152757
187,458247746,0.160936,-0.696446,-0.304212,-0.629710,0.508765,-0.141035,0.184738
188,458281080,0.160102,-0.697004,-0.302392,-0.630183,0.433858,-0.027244,0.223287
189,458314414,0.158818,-0.697567,-0.300143,-0.630959,0.030133,0.215511,0.123141
190,458347748,0.157649,-0.697964,-0.297911,-0.631870,-0.235551,0.350787,0.083785
191,458381082,0.156912,-0.698170,-0.295966,-0.632739,-0.314207,0.256051,0.111173
192,458414416,0.156426,-0.698291,-0.294329,-0.633490,-0.223918,0.169667,0.028963
193,458447750,0.155895,-0.698740,-0.292748,-0.633858,-0.114363,0.116463,0.016097
194,458481084,0.155122,-0.699502,-0.290957,-0.634031,0.167048,0.094040,0.099463
195,458514418,0.154103,-0.700252,-0.288897,-0.634394,0.464577,0.189167,0.185792
196,458547752,0.152950,-0.700865,-0.286894,-0.634904,0.657087,0.238535,0.158700
197,458581086,0.151769,-0.701606,-0.285366,-0.635058,0.431591,0.294854,0.159052
198,458614420,0.150739,-0.702294,-0.284354,-0.634997,0.193060,0.317548,0.126787
199,458647754,0.149997,-0.702582,-0.283544,-0.635216,0.086200,0.194470,0.167937
200,458681088,0.149504,-0.702596,-0.282870,-0.635618,-0.052947,0.064507,-0.006330
201,458714422,0.149226,-0.703063,-0.282645,-0.635267,-0.110069,0.114854,0.075253
202,458747756,0.149149,-0.703902,-0.283059,-0.634170,0.184472,0.378543,-0.047914
203,458781090,0.149270,-0.704749,-0.284104,-0.632732,0.468595,0.409340,0.100730
204,458814424,0.149677,-0.705354,-0.285798,-0.631197,0.582571,0.305576,0.241167
205,458847758,0.150039,-0.705862,-0.287362,-0.629832,0.434412,0.223961,0.094625
206,458881092,0.149980,-0.706430,-0.288249,-0.628803,0.220601,0.024935,0.177979
207,458914426,0.149290,-0.706949,-0.288578,-0.628233,0.163076,0.012623,0.078662
208,458947760,0.148415,-0.707445,-0.288736,-0.627809,0.164587,0.186645,0.165174
209,458981094,0.147891,-0.707547,-0.288941,-0.627723,0.326466,0.181582,0.160263
210,459014428,0.147997,-0.706950,-0.289432,-0.628144,0.658554,0.296930,0.245683
211,459047762,0.148834,-0.705657,-0.290087,-0.629098,0.706846,0.155676,0.182998
212,459081096,0.149487,-0.704158,-0.290426,-0.630465,0.578028,0.118849,0.207097
213,459114430,0.149985,-0.702336,-0.290168,-0.632494,0.479531,-0.007667,0.083613
214,459147764,0.149493,-0.700533,-0.289145,-0.635073,0.333827,0.005126,0.114279
215,459181098,0.149011,-0.698774,-0.288216,-0.637542,0.112332,0.101384,0.078967
216,459214432,0.148715,-0.697009,-0.287383,-0.639915,0.080764,0.332667,0.138440
217,459247766,0.149010,-0.695041,-0.286835,-0.642229,-0.014073,0.381379,0.100947
218,459281100,0.149697,-0.692688,-0.286520,-0.644747,-0.070346,0.340793,0.185511
219,459314434,0.151379,-0.689457,-0.286649,-0.647752,-0.092036,0.241739,0.248206
220,459347768,0.153679,-0.685807,-0.286766,-0.651026,0.073973,0.072593,0.037995
221,459381102,0.155213,-0.681802,-0.285881,-0.655244,0.018153,0.169114,0.108658
222,459414436,0.156345,-0.676130,-0.284744,-0.661319,-0.126408,-0.413229,0.059885
223,459447770,0.155361,-0.672887,-0.283720,-0.665287,-1.273548,-0.149682,0.007742
224,459481104,0.155031,-0.670548,-0.282925,-0.668058,-1.412977,-0.209366,0.069134
225,459514438,0.154110,-0.669163,-0.281808,-0.670129,-1.484574,0.094922,0.096680
226,459547772,0.152238,-0.669281,-0.280545,-0.670969,-1.399303,0.332368,-0.087717
227,459581106,0.150989,-0.670178,-0.280241,-0.670483,-1.442538,0.637458,-0.050415
228,459614440,0.150478,-0.671745,-0.280645,-0.668858,-1.181554,0.358473,0.010548
229,459647774,0.150389,-0.673939,-0.281568,-0.666278,-0.917427,0.479749,-0.005835
230,459681108,0.150710,-0.676142,-0.282967,-0.663375,-0.719438,0.010895,0.155548
231,459714442,0.151152,-0.678435,-0.284824,-0.660130,-0.442422,-0.264892,0.036047
232,459747776,0.151143,-0.681572,-0.286625,-0.656109,-0.245778,-0.018295,-0.051790
233,459781110,0.150668,-0.685745,-0.288239,-0.651145,-0.144245,0.160252,-0.051513
234,459814444,0.150473,-0.690721,-0.290597,-0.644852,0.011666,0.227101,0.011060
235,459847778,0.150648,-0.696304,-0.293818,-0.637302,0.088040,0.524966,-0.277524
236,459881112,0.151162,-0.701852,-0.297498,-0.629339,-0.170955,0.473901,0.030659
237,459914446,0.154019,-0.704991,-0.302292,-0.622819,0.371046,0.182200,0.520184
238,459947780,0.158112,-0.705665,-0.306920,-0.618753,1.848321,0.002345,0.440334
239,459981114,0.161702,-0.704321,-0.309688,-0.617977,2.802926,-0.174306,0.514375
240,460014448,0.163366,-0.702715,-0.310111,-0.619154,2.266894,-0.243539,0.541096
241,460047782,0.161341,-0.702599,-0.307837,-0.620949,1.023534,-0.090779,0.178994
242,460081116,0.157571,-0.703285,-0.304296,-0.622883,0.017376,0.180374,0.004724
243,460114450,0.155196,-0.703573,-0.302229,-0.624160,-0.344871,0.617678,-0.051706
244,460147784,0.155845,-0.703146,-0.303250,-0.623984,-0.436724,0.797623,-0.063745
245,460181118,0.158486,-0.702197,-0.306223,-0.622934,-0.369059,0.491736,0.033630
246,460214452,0.160923,-0.701473,-0.308916,-0.621794,-0.097694,-0.032346,0.143674
247,460247786,0.161525,-0.701272,-0.309900,-0.621375,0.371739,-0.276631,0.144365
248,460281120,0.160643,-0.701505,-0.309627,-0.621477,0.617731,-0.176090,0.144672
249,460314454,0.160217,-0.701655,-0.309555,-0.621453,0.481788,0.172645,0.237671
250,460347788,0.160322,-0.701002,-0.309705,-0.622088,0.447283,0.416128,0.171514
251,460381122,0.160968,-0.699918,-0.310202,-0.622894,0.246034,0.370315,0.149199
252,460414456,0.161905,-0.698591,-0.310765,-0.623859,0.258224,0.155882,0.231527
253,460447790,0.162793,-0.696962,-0.311156,-0.625253,0.318900,-0.063313,0.138322
254,460481124,0.163461,-0.695465,-0.311399,-0.626624,0.209695,-0.051751,0.070786
255,460514458,0.163848,-0.694079,-0.311121,-0.628195,0.127612,-0.003762,0.081585
256,460547792,0.163473,-0.692935,-0.310182,-0.630018,0.025064,0.109507,0.084114
257,460581126,0.163096,-0.691980,-0.309222,-0.631635,-0.170939,0.140683,0.042882
258,460614460,0.162783,-0.690952,-0.308448,-0.633218,-0.200431,0.156085,0.084208
259,460647794,0.163071,-0.689774,-0.308148,-0.634573,-0.247193,0.154063,0.090330
260,460681128,0.163304,-0.688857,-0.307907,-0.635625,-0.300186,0.139168,0.091833
261,460714462,0.163560,-0.688186,-0.307759,-0.636357,-0.298913,0.123998,0.055394
262,460747796,0.163778,-0.687473,-0.307619,-0.637139,-0.192452,0.116002,0.053866
263,460781130,0.164005,-0.686977,-0.307723,-0.637565,-0.272363,0.083486,0.092939
264,460814464,0.164071,-0.686847,-0.307804,-0.637649,-0.379789,0.083073,0.100798
265,460847798,0.163913,-0.686956,-0.307685,-0.637630,-0.330358,0.074524,0.053049
266,460881132,0.163540,-0.687268,-0.307486,-0.637486,-0.230714,0.101991,0.085299
267,460914466,0.163266,-0.687801,-0.307549,-0.636950,-0.287727,0.210553,0.108942
268,460947800,0.163200,-0.688411,-0.307859,-0.636158,-0.197801,0.223460,0.078279
269,460981134,0.163152,-0.689067,-0.308264,-0.635263,-0.087878,0.126617,0.103891
270,461014468,0.163140,-0.689714,-0.308802,-0.634302,-0.090656,0.107131,0.123613
271,461047802,0.163222,-0.690332,-0.309405,-0.633314,-0.011970,0.090030,0.100143
272,461081136,0.163143,-0.690998,-0.309795,-0.632417,0.032499,0.072764,0.123038
273,461114470,0.162747,-0.691602,-0.309768,-0.631872,0.101032,0.080354,0.123525
274,461147804,0.162232,-0.692128,-0.309480,-0.631569,0.098766,0.113782,0.131430
275,461181138,0.161541,-0.692642,-0.308953,-0.631441,0.046247,0.082004,0.142771
276,461214472,0.160873,-0.693117,-0.308402,-0.631359,0.027370,0.172657,0.081639
277,461247806,0.160537,-0.693408,-0.308045,-0.631300,0.032492,0.259020,0.113383
278,461281140,0.160584,-0.693499,-0.308011,-0.631204,0.018655,0.214912,0.090346
279,461314474,0.160791,-0.693475,-0.308109,-0.631130,0.035132,0.119162,0.136311
280,461347808,0.160924,-0.693461,-0.308189,-0.631073,0.037779,0.125741,0.079309
281,461381142,0.160815,-0.693470,-0.307990,-0.631187,0.048672,0.172807,0.175095
282,461414476,0.160516,-0.693390,-0.307545,-0.631569,0.177725,0.161779,0.100859
283,461447810,0.160123,-0.693217,-0.306978,-0.632134,0.240574,0.209578,0.164017
284,461481144,0.159775,-0.692685,-0.306282,-0.633142,0.268511,0.272101,0.205534
285,461514478,0.159946,-0.688080,-0.304886,-0.638769,-0.623344,0.720874,1.356027
286,461547812,0.160979,-0.678793,-0.303366,-0.649086,1.153038,-0.653350,0.210058
287,461581146,0.161841,-0.672026,-0.301509,-0.656734,2.216072,0.675244,-0.062963
288,461614480,0.160534,-0.667914,-0.300154,-0.661850,-0.536725,-0.196379,-0.417798
289,461647814,0.156391,-0.667615,-0.297063,-0.664533,-1.563281,-0.106822,-0.276684
290,461681148,0.153763,-0.668534,-0.295167,-0.665067,-1.389880,0.821786,-0.115691
291,461714482,0.151447,-0.669485,-0.294535,-0.664922,-0.911200,0.329597,0.082118
292,461747816,0.151186,-0.670032,-0.295687,-0.663918,-0.257007,0.369954,-0.017951
293,461781150,0.152349,-0.670288,-0.297704,-0.662491,0.300229,0.222592,0.167758
294,461814484,0.153005,-0.670224,-0.299175,-0.661741,0.760629,-0.131680,0.129132
295,461847818,0.152093,-0.670145,-0.299055,-0.662085,0.989871,-0.036838,0.316664
296,461881152,0.150064,-0.669781,-0.297526,-0.663604,0.957004,0.132974,0.286932
297,461914486,0.148038,-0.668769,-0.295566,-0.665952,0.729213,0.256670,0.111823
298,461947820,0.146176,-0.667311,-0.293469,-0.668747,0.367030,0.276623,0.193087
299,461981154,0.144378,-0.666072,-0.291208,-0.671356,-0.126147,0.269886,0.045356
300,462014488,0.142505,-0.665030,-0.289320,-0.673602,-0.226109,0.184867,-0.030822
301,462047822,0.140841,-0.664050,-0.288131,-0.675426,0.022880,0.162401,0.099473
302,462081156,0.139037,-0.663360,-0.286993,-0.676960,-0.047424,0.246430,0.107899
303,462114490,0.137192,-0.662922,-0.285756,-0.678288,0.061194,0.457271,0.072855
304,462147824,0.135330,-0.662622,-0.284685,-0.679404,0.090572,0.320345,0.093494
305,462181158,0.133434,-0.662350,-0.283785,-0.680420,0.039323,0.251535,0.079431
306,462214492,0.131973,-0.661948,-0.283205,-0.681337,0.156038,0.157056,0.067562
307,462247826,0.130574,-0.661464,-0.282835,-0.682231,0.209514,0.246371,0.080803
308,462281160,0.129466,-0.660877,-0.282793,-0.683028,0.227863,0.236360,0.082582
309,462314494,0.128569,-0.660253,-0.282875,-0.683766,0.242678,0.192471,0.093964
310,462347828,0.127475,-0.659650,-0.282861,-0.684557,0.212999,0.158503,0.122895
311,462381162,0.126007,-0.659216,-0.282620,-0.685347,0.068856,0.279161,0.162096
312,462414496,0.124657,-0.658862,-0.282456,-0.686002,0.113339,0.363801,0.069889
313,462447830,0.124086,-0.658237,-0.282817,-0.686556,0.184845,0.401258,0.119724
314,462481164,0.124146,-0.657243,-0.283522,-0.687207,0.132643,0.258917,0.120395
315,462514498,0.124600,-0.656155,-0.284273,-0.687853,0.171202,0.097750,0.147415
316,462547832,0.124399,-0.655168,-0.284300,-0.688819,0.139328,-0.104401,0.129687
317,462581166,0.123144,-0.654490,-0.283499,-0.690018,0.051807,0.047013,0.071504
318,462614500,0.121549,-0.653897,-0.282408,-0.691310,0.003881,0.245327,0.062321
319,462647834,0.120432,-0.653289,-0.281841,-0.692311,-0.082982,0.187876,0.061582
320,462681168,0.119725,-0.652712,-0.281761,-0.693009,-0.038026,0.162249,0.157294
321,462714502,0.118764,-0.652190,-0.281425,-0.693802,0.072472,0.052205,0.082083
322,462747836,0.117495,-0.651898,-0.280679,-0.694594,0.122532,0.042862,0.064581
323,462781170,0.115818,-0.651606,-0.279584,-0.695591,0.083101,0.141670,0.178686
324,462814504,0.114239,-0.651249,-0.278351,-0.696680,0.172713,0.273567,0.095216
325,462847838,0.112747,-0.651016,-0.277149,-0.697620,0.124737,0.145161,0.064601
326,462881172,0.111310,-0.650748,-0.276050,-0.698536,0.071973,0.249036,0.091963
327,462914506,0.110324,-0.650425,-0.275208,-0.699324,0.107543,0.386260,0.117285
328,462947840,0.109888,-0.649942,-0.274903,-0.699961,0.049802,0.213575,0.092815
329,462981174,0.109613,-0.649443,-0.274772,-0.700519,0.156541,0.020744,0.107388
330,463014508,0.108785,-0.649175,-0.274139,-0.701144,0.020116,0.108974,0.145676
331,463047842,0.107876,-0.648934,-0.273361,-0.701811,0.057998,0.216576,0.094412
332,463081176,0.107212,-0.648696,-0.272744,-0.702373,0.093504,0.244854,0.126419
333,463114510,0.106894,-0.648312,-0.272429,-0.702898,0.038493,0.298960,0.153350
334,463147844,0.107064,-0.647873,-0.272609,-0.703207,0.198451,0.315999,0.114208
335,463181178,0.107705,-0.647343,-0.273126,-0.703398,0.176800,0.233075,0.118886
336,463214512,0.108679,-0.646652,-0.273800,-0.703620,0.153082,0.221237,0.082576
337,463247846,0.109883,-0.645862,-0.274512,-0.703882,0.131291,0.114887,0.116852
338,463281180,0.110976,-0.645079,-0.275188,-0.704164,0.088255,0.122614,0.014608
339,463314514,0.112215,-0.644279,-0.275952,-0.704401,0.036299,0.181415,0.093802
340,463347848,0.113378,-0.643552,-0.276774,-0.704557,0.004849,0.091999,0.092809
341,463381182,0.114606,-0.642733,-0.277663,-0.704756,0.025165,0.212817,0.149914
342,463414516,0.116086,-0.641828,-0.278542,-0.704992,0.109667,0.166729,0.156174
343,463447850,0.117671,-0.641021,-0.279411,-0.705120,0.192312,0.196741,0.191139
344,463481184,0.119603,-0.640040,-0.280609,-0.705209,0.131077,0.132249,0.167893
345,463514518,0.121675,-0.638946,-0.281952,-0.705312,0.058009,0.181828,0.090421
346,463547852,0.124218,-0.637755,-0.283592,-0.705289,0.269477,0.246922,0.220154
347,463581186,0.126870,-0.636562,-0.285223,-0.705236,0.332544,0.087786,0.177266
348,463614520,0.129170,-0.635551,-0.286522,-0.705204,0.224302,0.202469,0.023540
349,463647854,0.131872,-0.634449,-0.288051,-0.705074,0.227744,0.189802,-0.177461
350,463681188,0.135136,-0.633083,-0.289963,-0.704900,0.205003,0.065745,-0.072223
351,463714522,0.138347,-0.631742,-0.292051,-0.704619,0.124440,-0.000646,0.079860
352,463747856,0.140704,-0.630538,-0.293577,-0.704595,-0.082857,0.010683,-0.087279
353,463781190,0.142441,-0.629475,-0.294390,-0.704858,-0.137520,0.184697,-0.020164
354,463814524,0.143940,-0.628572,-0.294807,-0.705185,-0.292396,0.076386,0.243122
355,463847858,0.144804,-0.628196,-0.294933,-0.705290,-0.139217,0.126996,0.047662
356,463881192,0.145505,-0.628098,-0.295178,-0.705130,0.067459,0.167315,0.109019
357,463914526,0.146007,-0.627906,-0.295563,-0.705037,0.170325,0.077968,0.105489
358,463947860,0.146445,-0.627731,-0.295535,-0.705113,0.120710,0.200529,0.143275
359,463981194,0.146674,-0.627725,-0.295156,-0.705230,0.151720,0.347499,-0.008001
360,464014528,0.147228,-0.627630,-0.295076,-0.705233,0.210662,0.310327,0.106030
361,464047862,0.148263,-0.627228,-0.295457,-0.705214,0.200524,0.168125,0.197916
362,464081196,0.149462,-0.626781,-0.295969,-0.705143,0.066819,0.133428,0.064921
363,464114530,0.150432,-0.626556,-0.296187,-0.705046,0.041196,0.053889,0.082947
364,464147864,0.150913,-0.626433,-0.296097,-0.705090,0.030335,0.007827,0.203320
365,464181198,0.151377,-0.626307,-0.295891,-0.705188,0.140456,-0.300970,0.333576
366,464214532,0.151321,-0.626159,-0.295065,-0.705679,0.144324,-0.731803,0.455539
367,464247866,0.150189,-0.625925,-0.293401,-0.706821,0.228552,-1.504714,0.655649
368,464281200,0.147307,-0.625389,-0.290842,-0.708956,1.063702,-0.819877,0.564618
369,464314534,0.141152,-0.625824,-0.286941,-0.711410,-0.594259,0.145125,0.237259
370,464347868,0.134550,-0.627936,-0.282628,-0.712554,-0.600473,0.493953,-0.523026
371,464381202,0.131908,-0.629169,-0.281018,-0.712597,-0.215090,1.702669,-0.629601
372,464414536,0.132671,-0.628946,-0.283517,-0.711661,-0.522645,0.756480,-0.773215
373,464447870,0.136264,-0.628271,-0.290030,-0.708949,-0.112579,0.459684,-0.377542
374,464481204,0.141018,-0.628096,-0.297314,-0.705147,0.457400,0.312450,-0.081600
375,464514538,0.143841,-0.630212,-0.301190,-0.701031,0.705502,0.038514,-0.042977
376,464547872,0.144422,-0.634220,-0.301905,-0.696979,-0.556861,0.228610,-0.039654
377,464581206,0.143621,-0.639287,-0.300923,-0.692928,-1.502947,0.580190,-0.361337
378,464614540,0.145797,-0.643753,-0.300642,-0.688446,-1.530651,0.396572,-0.289867
379,464647874,0.148959,-0.648382,-0.300181,-0.683609,-0.332243,-0.607431,0.520496
380,464681208,0.153465,-0.649931,-0.300672,-0.680921,2.660972,-2.086227,1.048872
381,464714542,0.156242,-0.650003,-0.304252,-0.678627,1.125277,-0.284576,0.582943
382,464747876,0.162481,-0.650921,-0.309388,-0.673943,0.217994,1.507309,0.500132
383,464781210,0.167748,-0.652640,-0.309382,-0.670987,-0.156402,0.330161,-0.184374
384,464814544,0.174011,-0.653298,-0.310531,-0.668214,0.287624,-0.612558,-0.180819
385,464847878,0.180820,-0.653533,-0.314405,-0.664354,0.444107,-0.152839,0.021912
386,464881212,0.189629,-0.653746,-0.319590,-0.659195,0.521348,0.035497,0.259190
387,464914546,0.198429,-0.653504,-0.323771,-0.654789,0.481374,0.366368,0.218149
388,464947880,0.205422,-0.653368,-0.325581,-0.651865,0.352747,0.286577,0.213798
389,464981214,0.210301,-0.653478,-0.325075,-0.650449,0.537493,-0.400825,0.067295
390,465014548,0.212629,-0.654586,-0.323076,-0.649574,0.033136,0.534861,0.308872
391,465047882,0.216261,-0.655395,-0.321760,-0.648211,-0.079942,0.704067,-0.018261
392,465081216,0.221033,-0.655511,-0.322064,-0.646330,-0.205293,0.391728,0.169505
393,465114550,0.226126,-0.655829,-0.323742,-0.643401,-0.516391,0.567536,0.226077
394,465147884,0.231664,-0.656348,-0.326274,-0.639611,-0.659111,0.383886,0.034299
395,465181218,0.237188,-0.657228,-0.329134,-0.635202,-0.204958,0.012154,-0.080376
396,465214552,0.241462,-0.658373,-0.332006,-0.630897,0.204627,0.390117,0.228050
397,465247886,0.245927,-0.659338,-0.335095,-0.626516,0.312747,0.883906,0.191149
398,465281220,0.250990,-0.659468,-0.338060,-0.622767,0.210741,0.700651,0.142980
399,465314554,0.256387,-0.658462,-0.340689,-0.620196,0.452262,0.173370,0.123483
400,465347888,0.260665,-0.657627,-0.342857,-0.618100,0.191901,0.288807,0.165095
401,465381222,0.264851,-0.656662,-0.344974,-0.616166,-0.203168,0.438207,0.162003
402,465414556,0.269351,-0.655525,-0.347589,-0.613952,-0.359870,0.028684,0.121992
403,465447890,0.273202,-0.654953,-0.350651,-0.611114,-0.389600,0.280652,-0.014703
404,465481224,0.277550,-0.654215,-0.354432,-0.607754,-0.458957,0.153584,0.077705
405,465514558,0.282273,-0.653344,-0.358756,-0.603967,-0.027156,0.056414,0.031248
406,465547892,0.286469,-0.652627,-0.363021,-0.600206,0.235149,0.308754,0.238150
407,465581226,0.290526,-0.651393,-0.366706,-0.597349,0.426068,0.230838,0.291786
408,465614560,0.294336,-0.649561,-0.369621,-0.595680,0.780983,0.080326,0.258662
409,465647894,0.297268,-0.647190,-0.371295,-0.595764,0.981713,-0.028981,0.207766
410,465681228,0.299548,-0.644972,-0.372348,-0.596370,0.818159,0.103257,0.180408
411,465714562,0.300452,-0.643281,-0.372491,-0.597651,0.205959,0.330679,0.175379
412,465747896,0.301430,-0.641581,-0.372501,-0.598978,0.021424,0.323669,0.165841
413,465781230,0.302435,-0.639877,-0.372675,-0.600186,-0.202442,0.212907,0.081213
414,465814564,0.303623,-0.638287,-0.373623,-0.600688,-0.531810,0.068171,0.086289
415,465847898,0.305161,-0.636944,-0.375274,-0.600306,-0.740795,-0.000254,0.010139
416,465881232,0.306869,-0.635838,-0.377289,-0.599343,-0.460850,0.069381,0.004301
417,465914566,0.308386,-0.634689,-0.379251,-0.598544,0.071143,0.156963,0.161935
418,465947900,0.309699,-0.633427,-0.381294,-0.597905,0.206206,-0.002888,0.196705
419,465981234,0.310574,-0.632453,-0.383518,-0.597059,-0.013817,0.095910,0.128661
420,466014568,0.311229,-0.631539,-0.385490,-0.596416,0.122441,-0.006984,0.176393
421,466047902,0.311028,-0.631300,-0.386817,-0.595913,0.076210,0.178310,0.122989
422,466081236,0.310155,-0.631571,-0.387547,-0.595608,0.209136,0.202212,0.121810
423,466114570,0.308611,-0.632094,-0.388043,-0.595531,0.020802,0.245749,0.107107
424,466147904,0.306921,-0.632604,-0.388899,-0.595305,-0.034172,0.255978,0.099321
425,466181238,0.305705,-0.632838,-0.390623,-0.594553,-0.325511,0.324677,0.153437
426,466214572,0.305428,-0.632561,-0.393277,-0.593239,-0.269370,0.418250,0.132579
427,466247906,0.305829,-0.631809,-0.396436,-0.591729,-0.138804,0.326088,0.194183
428,466281240,0.305697,-0.631082,-0.398707,-0.591047,0.066705,-0.006198,0.276147
429,466314574,0.304440,-0.630388,-0.399864,-0.591654,-0.013058,0.050038,0.305436
430,466347908,0.302209,-0.630061,-0.400425,-0.592766,-0.045552,0.520607,0.008765
431,466381242,0.298911,-0.629977,-0.400397,-0.594544,-0.235771,0.832208,0.180120
432,466414576,0.295440,-0.629466,-0.399543,-0.597387,-0.064881,0.535303,0.308205
433,466447910,0.292030,-0.628193,-0.398525,-0.601073,0.221336,0.093289,0.117365
434,466481244,0.289112,-0.626462,-0.398469,-0.604318,0.050859,0.211447,0.072766
435,466514578,0.286605,-0.624638,-0.398769,-0.607196,-0.155766,0.315761,0.143100
436,466547912,0.283408,-0.622996,-0.398357,-0.610645,-0.222803,0.254094,0.098051
437,466581246,0.279295,-0.621241,-0.396750,-0.615355,-0.034927,0.055942,0.197906
438,466614580,0.274641,-0.619138,-0.394380,-0.621066,0.223837,0.017448,0.142247
439,466647914,0.270140,-0.617019,-0.392137,-0.626545,0.287097,0.053818,0.148300
440,466681248,0.266024,-0.614515,-0.389806,-0.632197,0.244478,-0.007339,0.151687
441,466714582,0.261539,-0.611853,-0.387016,-0.638334,0.208591,0.011867,0.182896
442,466747916,0.256216,-0.609055,-0.383257,-0.645398,0.217367,-0.031871,0.172476
443,466781250,0.250712,-0.606554,-0.379462,-0.652122,0.182591,-0.038516,0.130727
444,466814584,0.245676,-0.604287,-0.376224,-0.657993,-0.075227,0.023491,-0.026293
445,466847918,0.241030,-0.602405,-0.373255,-0.663108,-0.189290,-0.004447,0.060763
446,466881252,0.236437,-0.600637,-0.370831,-0.667709,-0.335700,-0.054305,0.033172
447,466914586,0.232207,-0.598753,-0.368534,-0.672143,-0.251618,-0.184526,0.036301
448,466947920,0.228266,-0.597297,-0.366271,-0.676014,-0.045127,-0.216589,0.047410
449,466981254,0.223559,-0.596625,-0.363500,-0.679666,0.103466,0.001121,0.106691
450,467014588,0.218598,-0.596487,-0.360215,-0.683141,0.107232,0.088379,0.162917
451,467047922,0.214508,-0.595823,-0.357340,-0.686518,0.442164,-0.174017,0.450825
452,467081256,0.211334,-0.594219,-0.355470,-0.689856,0.584534,0.120160,0.297492
453,467114590,0.208635,-0.592990,-0.354229,-0.692369,0.202268,0.149933,0.144323
454,467147924,0.206623,-0.591794,-0.352948,-0.694646,0.157998,0.016861,0.090691
455,467181258,0.204162,-0.591244,-0.350500,-0.697078,0.145922,0.127455,-0.101911
456,467214592,0.200941,-0.592272,-0.346799,-0.698989,-0.166770,0.262104,-0.215733
457,467247926,0.197957,-0.593834,-0.342646,-0.700561,-0.221167,0.083916,-0.166116
458,467281260,0.195425,-0.595250,-0.338532,-0.702069,-0.050906,-0.057944,-0.191934
459,467314594,0.192487,-0.596874,-0.334444,-0.703460,0.118179,-0.106169,0.075714
460,467347928,0.189996,-0.597642,-0.332003,-0.704641,0.294104,-0.202553,0.116601
461,467381262,0.188668,-0.597418,-0.331515,-0.705417,0.455744,-0.382375,0.271054
462,467414596,0.187457,-0.597224,-0.331172,-0.706065,0.428000,0.005305,0.152439
463,467447930,0.185802,-0.597621,-0.329941,-0.706742,0.167666,0.157512,0.158072
464,467481264,0.183943,-0.598425,-0.327744,-0.707570,0.141432,0.497769,0.029678
465,467514598,0.182826,-0.599464,-0.326377,-0.707612,-0.172336,0.165722,-0.021519
466,467547932,0.181716,-0.600309,-0.325654,-0.707515,-0.061283,-0.202566,0.054882
467,467581266,0.181567,-0.600302,-0.325758,-0.707511,0.262321,-0.023939,0.060249
468,467614600,0.182087,-0.600102,-0.326254,-0.707318,0.273201,0.107988,-0.013393
469,467647934,0.182294,-0.600257,-0.326352,-0.707088,0.045055,-0.049522,0.128860
470,467681268,0.181417,-0.601039,-0.325180,-0.707190,-0.000195,-0.064804,0.046168
471,467714602,0.180058,-0.602102,-0.323337,-0.707477,0.105432,0.043337,0.012895
472,467747936,0.179214,-0.602971,-0.321943,-0.707587,0.128374,0.176620,0.026268
473,467781270,0.179270,-0.603647,-0.321605,-0.707151,-0.049704,0.151275,0.024929
474,467814604,0.180170,-0.604018,-0.321954,-0.706446,-0.019298,-0.010605,-0.056852
475,467847938,0.180652,-0.604557,-0.321998,-0.705841,0.173666,-0.219706,0.198237
476,467881272,0.180477,-0.605923,-0.321453,-0.704962,-0.105082,0.246690,-0.037363
477,467914606,0.180397,-0.607964,-0.321032,-0.703416,-0.038846,0.140893,0.171890
478,467947940,0.181540,-0.609375,-0.321059,-0.701887,0.208211,0.178107,0.142181
479,467981274,0.182753,-0.610784,-0.321145,-0.700307,0.331571,0.055607,0.158386
480,468014608,0.184634,-0.611907,-0.321910,-0.698479,0.303851,0.008876,0.144021
481,468047942,0.186577,-0.613192,-0.322667,-0.696483,0.167418,-0.024674,0.086987
482,468081276,0.188237,-0.615058,-0.322786,-0.694333,0.172343,0.092392,0.071510
483,468114610,0.189897,-0.617108,-0.322738,-0.692080,0.148607,0.314501,0.169904
484,468147944,0.192232,-0.619021,-0.323155,-0.689528,0.089538,0.116213,0.059609
485,468181278,0.195202,-0.620808,-0.324253,-0.686566,0.177936,0.261896,0.140631
486,468214612,0.198741,-0.622562,-0.326049,-0.683103,0.097800,0.107278,0.053010
487,468247946,0.202585,-0.624394,-0.328086,-0.679316,0.112185,0.060834,0.097411
488,468281280,0.205966,-0.626292,-0.329499,-0.675859,0.229341,0.073388,0.116376
489,468314614,0.208721,-0.628581,-0.330346,-0.672467,0.235601,-0.037402,0.123801
490,468347948,0.210884,-0.631305,-0.330758,-0.669029,0.330753,0.120304,0.234796
491,468381282,0.213266,-0.634120,-0.331075,-0.665445,0.220948,0.101280,0.155330
492,468414616,0.215791,-0.636627,-0.331273,-0.662131,0.233482,0.165955,0.195235
493,468447950,0.218513,-0.638410,-0.331452,-0.659426,0.267031,0.149400,0.158428
494,468481284,0.220738,-0.640398,-0.331220,-0.656870,0.156913,0.227541,0.113674
495,468514618,0.223163,-0.642170,-0.331103,-0.654374,-0.040681,-0.069851,0.000260
496,468547952,0.224420,-0.644725,-0.330434,-0.651765,-0.343275,-0.006420,0.011076
497,468581286,0.225501,-0.647417,-0.329821,-0.649028,-0.468066,0.274062,0.021673
498,468614620,0.226760,-0.650072,-0.329315,-0.646186,-0.185486,0.288924,0.152122
499,468647954,0.227899,-0.652871,-0.328839,-0.643199,-0.011224,0.214975,0.150921
500,468681288,0.229117,-0.655670,-0.328572,-0.640048,0.035609,0.202530,0.091091
501,468714622,0.230277,-0.658815,-0.328589,-0.636383,-0.218539,0.265760,0.176083
502,468747956,0.231929,-0.661541,-0.328628,-0.632925,0.022062,0.305253,0.198123
503,468781290,0.233504,-0.663380,-0.328560,-0.630452,0.040291,0.298146,0.102398
504,468814624,0.235318,-0.664904,-0.328817,-0.628033,-0.144184,0.187427,0.008701
505,468847958,0.237343,-0.666424,-0.329359,-0.625371,-0.096859,0.089731,0.177186
506,468881292,0.239078,-0.667633,-0.329496,-0.623345,0.044025,0.032213,0.122822
507,468914626,0.240365,-0.669004,-0.329223,-0.621522,0.027093,0.052517,0.044999
508,468947960,0.241379,-0.670363,-0.328598,-0.619994,0.004896,0.292813,0.216368
509,468981294,0.242505,-0.671766,-0.328042,-0.618327,-0.218615,0.331320,0.199928
510,469014628,0.244264,-0.672805,-0.328012,-0.616519,-0.137578,0.138992,0.075870
511,469047962,0.246278,-0.673295,-0.328448,-0.614949,0.069820,0.078064,0.128286
512,469081296,0.248117,-0.673995,-0.329020,-0.613134,-0.031475,0.015685,0.135618
513,469114630,0.249578,-0.675049,-0.329379,-0.611186,0.018658,-0.020887,0.111900
514,469147964,0.250713,-0.676163,-0.329493,-0.609425,0.041897,0.006614,0.087717
515,469181298,0.251768,-0.676934,-0.329246,-0.608267,0.154173,0.248867,0.264722
516,469214632,0.252935,-0.677814,-0.328917,-0.606979,-0.002400,0.596055,0.185247
517,469247966,0.254644,-0.678104,-0.329027,-0.605880,0.015169,0.053307,0.163692
518,469281300,0.256158,-0.678216,-0.329439,-0.604892,0.007024,-0.060585,0.148030
519,469314634,0.257208,-0.678295,-0.329207,-0.604485,0.170569,-0.120137,0.100302
520,469347968,0.257236,-0.678826,-0.328382,-0.604325,0.042566,-0.091404,0.105406
521,469381302,0.256518,-0.679475,-0.327298,-0.604489,0.037969,0.061969,0.220271
522,469414636,0.255825,-0.680267,-0.326135,-0.604521,-0.165357,0.287264,0.105881
523,469447970,0.255439,-0.681076,-0.325150,-0.604303,-0.277875,0.298692,0.089866
524,469481304,0.254886,-0.681665,-0.324693,-0.604119,-0.228827,0.273976,0.173805
525,469514638,0.253862,-0.682833,-0.324670,-0.603242,-0.355536,-0.035387,0.200144
526,469547972,0.253177,-0.683694,-0.324740,-0.602517,-0.087903,0.061812,0.174530
527,469581306,0.252255,-0.684441,-0.324527,-0.602170,0.045746,0.193898,0.152166
528,469614640,0.250582,-0.685346,-0.323988,-0.602128,-0.061555,0.326229,0.156136
529,469647974,0.249056,-0.685984,-0.323686,-0.602198,-0.147106,0.296793,0.139198
530,469681308,0.248133,-0.686061,-0.323840,-0.602409,-0.106208,0.172917,0.217240
531,469714642,0.247384,-0.685905,-0.324017,-0.602800,-0.043987,0.053640,0.059582
532,469747976,0.246287,-0.685937,-0.324346,-0.603035,0.062612,0.121047,0.155449
533,469781310,0.244893,-0.686432,-0.324867,-0.602759,-0.035169,0.133827,0.095026
534,469814644,0.242613,-0.687258,-0.325134,-0.602595,-0.006262,0.170150,0.152002
535,469847978,0.240034,-0.688276,-0.325718,-0.602151,-0.021505,0.285181,0.041306
536,469881312,0.236963,-0.689962,-0.326573,-0.600973,-0.111545,0.400081,0.111534
537,469914646,0.234542,-0.691161,-0.327420,-0.600085,0.596407,0.580430,0.412172
538,469947980,0.231773,-0.691376,-0.327254,-0.601002,1.022512,0.334811,0.108731
539,469981314,0.229330,-0.691284,-0.327232,-0.602057,0.718921,0.360873,0.157942
540,470014648,0.226500,-0.691379,-0.326913,-0.603190,-0.001738,0.563893,0.141559
541,470047982,0.223143,-0.690979,-0.326178,-0.605295,-0.250368,0.494192,0.025180
542,470081316,0.220272,-0.689924,-0.326099,-0.607588,-0.382713,0.243125,0.076637
543,470114650,0.218570,-0.688400,-0.327270,-0.609299,-0.621787,0.124741,0.048531
544,470147984,0.218383,-0.686718,-0.329910,-0.609840,-0.530365,0.096044,0.051842
545,470181318,0.217720,-0.685544,-0.332497,-0.609992,-0.036578,0.178740,0.054544
546,470214652,0.215989,-0.684437,-0.334615,-0.610693,0.369920,0.362374,0.097482
547,470247986,0.215197,-0.682680,-0.337090,-0.611577,0.711486,0.492296,0.225217
548,470281320,0.215122,-0.680221,-0.340037,-0.612712,0.765723,0.240975,0.235044
549,470314654,0.215875,-0.677069,-0.343670,-0.613910,0.578694,0.130759,0.095075
550,470347988,0.217402,-0.673376,-0.347749,-0.615135,0.390476,0.212848,0.176979
551,470381322,0.218911,-0.669245,-0.351258,-0.617111,0.401541,0.204529,0.101645
552,470414656,0.220291,-0.664707,-0.354212,-0.619830,0.414444,0.153883,0.178016
553,470447990,0.221974,-0.659636,-0.356908,-0.623092,0.371024,0.093714,0.103466
554,470481324,0.224292,-0.653745,-0.359419,-0.627015,0.482173,0.014157,0.110603
555,470514658,0.226454,-0.647097,-0.361445,-0.631949,0.589022,-0.113004,0.506742
556,470547992,0.228153,-0.639619,-0.362946,-0.638062,0.548819,-0.303024,0.482671
557,470581326,0.230638,-0.631464,-0.364574,-0.644332,0.491007,-0.196050,0.117846
558,470614660,0.235322,-0.622234,-0.367503,-0.649930,0.867243,-0.085463,-0.080671
559,470647994,0.241863,-0.611942,-0.370057,-0.655825,0.738972,0.097976,0.091841
560,470681328,0.246629,-0.601839,-0.370553,-0.663079,0.552428,-0.258157,0.656832
561,470714662,0.253535,-0.589734,-0.372305,-0.670330,0.539870,0.217267,1.185978
562,470747996,0.262502,-0.576603,-0.375877,-0.676281,0.195789,0.016401,0.843394
563,470781330,0.270534,-0.563956,-0.380219,-0.681334,-0.918813,0.131849,0.557520
564,470814664,0.277489,-0.551950,-0.383221,-0.686668,-2.220602,-0.797344,-0.365956
565,470847998,0.283764,-0.543668,-0.384713,-0.689867,-2.603794,-0.768998,-1.101530
566,470881332,0.287475,-0.539669,-0.385481,-0.691041,-3.561703,-1.309089,-1.800113
567,470914666,0.287421,-0.539866,-0.386050,-0.690593,-3.350209,-1.249067,-1.799870
568,470948000,0.285509,-0.542037,-0.387773,-0.688717,-2.996811,0.528488,-1.366305
569,470981334,0.283171,-0.546927,-0.389946,-0.684577,-2.915455,0.288435,-0.921038
570,471014668,0.283107,-0.553064,-0.391844,-0.678564,-0.428703,0.727962,0.029523
571,471048002,0.295519,-0.550847,-0.392682,-0.674578,6.038834,5.696069,1.753018
572,471081336,0.301961,-0.553603,-0.401311,-0.664313,-0.789172,-7.586496,1.225269
573,471114670,0.297666,-0.554266,-0.410140,-0.660294,3.827251,0.709018,-0.148124
574,471148004,0.293233,-0.558981,-0.414360,-0.655652,-0.436876,-0.489057,0.532319
575,471181338,0.287658,-0.566740,-0.409845,-0.654297,-0.315265,0.443639,-0.211829
576,471214672,0.284816,-0.570583,-0.406553,-0.654254,0.937968,1.300969,-0.317843
577,471248006,0.283624,-0.573015,-0.407999,-0.651742,1.066922,0.056160,0.559055
578,471281340,0.286553,-0.572752,-0.412709,-0.647713,0.653470,0.564704,0.306069
579,471314674,0.289853,-0.571946,-0.416514,-0.644514,0.201337,0.523526,-0.066705
580,471348008,0.292167,-0.571979,-0.417662,-0.642694,0.040034,-0.007219,0.059605
581,471381342,0.292482,-0.572748,-0.416901,-0.642360,0.142530,-0.416503,0.310285
582,471414676,0.292080,-0.573682,-0.416988,-0.641654,-0.006929,0.042550,0.036245
583,471448010,0.292727,-0.573989,-0.418448,-0.640131,-0.144041,0.342083,0.099433
584,471481344,0.294690,-0.573795,-0.420535,-0.638032,-0.001261,0.349091,0.154876
585,471514678,0.296631,-0.573620,-0.421955,-0.636352,0.150262,0.247118,0.143228
586,471548012,0.297956,-0.573725,-0.422637,-0.635184,0.385558,-0.072468,0.040504
587,471581346,0.298224,-0.574249,-0.422502,-0.634674,0.244638,0.213031,0.124182
588,471614680,0.298648,-0.574631,-0.422245,-0.634301,-0.126719,0.438403,0.136654
589,471648014,0.299514,-0.574899,-0.421976,-0.633828,-0.128657,0.190237,0.109228
590,471681348,0.300231,-0.575205,-0.421931,-0.633241,0.001125,0.019673,0.107341
591,471714682,0.300876,-0.575440,-0.422064,-0.632632,-0.141876,0.036288,0.177583
592,471748016,0.301195,-0.575983,-0.421954,-0.632059,-0.173350,0.053209,0.078321
593,471781350,0.300982,-0.576982,-0.421288,-0.631694,-0.382815,0.106446,0.178475
594,471814684,0.300513,-0.578359,-0.420954,-0.630880,-0.526204,0.147955,0.037572
595,471848018,0.300783,-0.579554,-0.422384,-0.628695,-0.554762,-0.050093,0.035979
596,471881352,0.302062,-0.580251,-0.425635,-0.625237,-0.303478,-0.094931,0.080521
597,471914686,0.303233,-0.580984,-0.428945,-0.621718,0.026323,-0.122826,0.087485
598,471948020,0.303683,-0.582035,-0.431249,-0.618915,0.404261,0.010131,0.159742
599,471981354,0.302790,-0.583665,-0.431942,-0.617332,0.616177,0.295780,0.115726
600,472014688,0.301557,-0.585387,-0.431473,-0.616633,0.797439,0.513643,0.209477
601,472048022,0.300194,-0.586847,-0.430388,-0.616668,0.584083,0.395478,0.278331
602,472081356,0.299131,-0.587999,-0.429534,-0.616682,-0.128440,0.320568,0.079063
603,472114690,0.298754,-0.588958,-0.429451,-0.616007,-0.382442,0.182844,0.063895
604,472148024,0.298287,-0.590057,-0.430035,-0.614773,-0.489682,0.008154,0.001213
605,472181358,0.298006,-0.591169,-0.430974,-0.613182,-0.328037,-0.020215,0.011254
606,472214692,0.298087,-0.592247,-0.432327,-0.611146,0.004884,0.027564,0.119107
607,472248026,0.297623,-0.593434,-0.433404,-0.609456,0.049614,0.142376,0.178207
608,472281360,0.297042,-0.594348,-0.433746,-0.608605,0.006689,0.155563,0.132137
609,472314694,0.296526,-0.595017,-0.433751,-0.608199,0.145409,0.249590,0.078477
610,472348028,0.296062,-0.595449,-0.433768,-0.607990,0.187776,0.308129,0.135396
611,472381362,0.296143,-0.595431,-0.433955,-0.607835,0.247879,0.313988,0.124670
612,472414696,0.296473,-0.595156,-0.434239,-0.607741,0.166292,0.252080,0.183638
613,472448030,0.296626,-0.594895,-0.434309,-0.607871,0.149805,0.197193,0.078808
614,472481364,0.296671,-0.594651,-0.434093,-0.608243,0.224837,0.222774,0.109296
615,472514698,0.296939,-0.594128,-0.433816,-0.608820,0.113669,0.127411,0.173511
616,472548032,0.297224,-0.593647,-0.433505,-0.609371,0.006307,0.111936,0.071024
617,472581366,0.297320,-0.593261,-0.433084,-0.610000,0.017476,0.111910,0.077807
618,472614700,0.297266,-0.593068,-0.432615,-0.610546,-0.288750,-0.017312,0.238937
619,472648034,0.297171,-0.593122,-0.432396,-0.610695,-0.375357,-0.021531,-0.033394
620,472681368,0.297208,-0.593147,-0.432487,-0.610588,-0.193119,0.028204,0.094410
621,472714702,0.297708,-0.592885,-0.432743,-0.610417,-0.001558,0.054807,0.094023
622,472748036,0.298375,-0.592614,-0.432937,-0.610217,0.152921,0.100111,0.147808
623,472781370,0.298461,-0.592574,-0.432578,-0.610469,0.149087,0.040240,0.079979
624,472814704,0.298430,-0.592653,-0.432074,-0.610765,0.088059,0.145564,0.225247
625,472848038,0.298357,-0.592696,-0.431724,-0.611006,-0.099977,0.031806,0.084202
626,472881372,0.298280,-0.592741,-0.431532,-0.611135,-0.247709,0.049073,0.027646
627,472914706,0.298419,-0.592776,-0.431678,-0.610930,-0.204092,-0.001567,0.059039
628,472948040,0.298530,-0.592931,-0.431998,-0.610499,-0.080701,0.034208,0.099499
629,472981374,0.298444,-0.593329,-0.432136,-0.610057,0.083272,0.043678,0.102065
630,473014708,0.297797,-0.594002,-0.431785,-0.609967,0.265114,0.135956,0.149359
631,473048042,0.296957,-0.594761,-0.431119,-0.610108,0.245213,0.223217,0.152761
632,473081376,0.296109,-0.595513,-0.430268,-0.610386,0.211633,0.237319,0.085062
633,473114710,0.295499,-0.596106,-0.429583,-0.610586,0.303350,0.355806,0.067640
634,473148044,0.295154,-0.596495,-0.429180,-0.610656,0.212067,0.338829,0.215217
635,473181378,0.294843,-0.596769,-0.428865,-0.610760,0.061696,0.137245,0.070160
636,473214712,0.294360,-0.597103,-0.428494,-0.610928,0.006905,0.028471,0.099034
637,473248046,0.293858,-0.597477,-0.428048,-0.611116,-0.073821,0.133342,0.121719
638,473281380,0.293581,-0.597886,-0.427833,-0.610999,-0.027034,0.202399,0.085084
639,473314714,0.293694,-0.598306,-0.428222,-0.610262,0.075965,0.145734,0.044788
640,473348048,0.294245,-0.598968,-0.429045,-0.608766,0.253279,0.178025,0.001623
641,473381382,0.295206,-0.600364,-0.430342,-0.606005,0.474256,0.156149,-0.084038
642,473414716,0.296839,-0.601850,-0.432482,-0.602197,0.520681,0.148669,0.096198
643,473448050,0.297585,-0.602603,-0.433884,-0.600064,-0.189833,0.277681,0.453062
644,473481384,0.297781,-0.601573,-0.433494,-0.601280,-0.145098,-0.183914,0.354325
645,473514718,0.298659,-0.600587,-0.433825,-0.601592,-0.203297,0.133408,-0.055120
646,473548052,0.299076,-0.600282,-0.434584,-0.601141,-0.324703,-0.010629,0.081283
647,473581386,0.299492,-0.599547,-0.435351,-0.601113,-0.555276,-0.091655,0.186496
648,473614720,0.300077,-0.598969,-0.436510,-0.600557,-0.232427,-0.097462,-0.042587
649,473648054,0.300523,-0.599131,-0.438295,-0.598869,-0.166811,-0.051968,-0.052890
650,473681388,0.300610,-0.599884,-0.439991,-0.596825,-0.110066,-0.077104,0.112411
651,473714722,0.300532,-0.600620,-0.441389,-0.595089,0.009532,0.056367,0.165281
652,473748056,0.300273,-0.601614,-0.442730,-0.593216,0.051653,0.097126,0.048769
653,473781390,0.300037,-0.602800,-0.444156,-0.591062,0.024240,0.157546,0.090027
654,473814724,0.300130,-0.603760,-0.445634,-0.588919,0.120420,0.160704,0.102351
655,473848058,0.300287,-0.604379,-0.447026,-0.587147,0.108726,0.167704,0.190508
656,473881392,0.300640,-0.604809,-0.448474,-0.585416,0.057965,0.052028,0.118267
657,473914726,0.300880,-0.605345,-0.449747,-0.583759,0.095954,0.058808,0.133320
658,473948060,0.301129,-0.605740,-0.450696,-0.582488,0.129885,0.125414,0.160331
659,473981394,0.301282,-0.606032,-0.451393,-0.581565,0.123311,0.031773,0.150474
660,474014728,0.301088,-0.606378,-0.451877,-0.580928,0.052654,-0.025352,0.110527
661,474048062,0.300882,-0.606822,-0.452103,-0.580395,-0.046026,-0.034688,0.120185
662,474081396,0.300591,-0.607307,-0.452025,-0.580100,-0.104074,-0.020276,0.142292
663,474114730,0.300180,-0.607837,-0.451816,-0.579921,-0.116158,-0.028140,0.081197
664,474148064,0.299703,-0.608485,-0.451689,-0.579586,-0.097310,0.021342,0.117328
665,474181398,0.299497,-0.609042,-0.451676,-0.579117,-0.126145,0.009634,0.097664
666,474214732,0.299294,-0.609422,-0.451520,-0.578944,-0.004544,-0.003252,0.110717
667,474248066,0.299003,-0.609860,-0.451319,-0.578790,-0.011115,-0.017208,0.167127
668,474281400,0.298610,-0.610399,-0.451004,-0.578670,-0.026094,-0.037904,0.106465
669,474314734,0.297931,-0.611082,-0.450353,-0.578806,-0.024291,-0.028708,0.110720
670,474348068,0.297197,-0.611736,-0.449610,-0.579071,-0.041024,0.012222,0.070016
671,474381402,0.296495,-0.612390,-0.448959,-0.579245,-0.065208,0.028309,0.144256
672,474414736,0.295875,-0.613074,-0.448497,-0.579195,-0.090546,0.041739,0.084314
673,474448070,0.295219,-0.613762,-0.448009,-0.579180,-0.078841,0.056706,0.052796
674,474481404,0.294644,-0.614342,-0.447616,-0.579161,-0.038671,0.081358,0.132764
675,474514738,0.294322,-0.614826,-0.447444,-0.578944,-0.041819,0.076737,0.091247
676,474548072,0.294045,-0.615384,-0.447374,-0.578546,-0.097361,0.072834,0.113457
677,474581406,0.293731,-0.616034,-0.447407,-0.577987,-0.114509,0.104164,0.092718
678,474614740,0.293430,-0.616662,-0.447540,-0.577368,-0.036375,0.107503,0.086971
679,474648074,0.293264,-0.617162,-0.447879,-0.576655,0.058842,0.098414,0.188697
680,474681408,0.293406,-0.617335,-0.448308,-0.576064,0.179783,0.119930,0.164597
681,474714742,0.293618,-0.617425,-0.448570,-0.575656,0.191725,0.138669,0.126287
682,474748076,0.293477,-0.617579,-0.448461,-0.575647,0.159950,0.098107,0.128345
683,474781410,0.293291,-0.617696,-0.448261,-0.575771,0.030297,0.076237,0.118855
684,474814744,0.293206,-0.617691,-0.448105,-0.575942,-0.049487,0.043908,0.095431
685,474848078,0.293252,-0.617637,-0.448072,-0.576002,-0.125457,0.075042,0.136877
686,474881412,0.293357,-0.617606,-0.448156,-0.575917,-0.143616,0.120908,0.012061
687,474914746,0.293285,-0.617624,-0.448233,-0.575873,-0.048691,0.126591,0.086693
688,474948080,0.293201,-0.617673,-0.448461,-0.575687,-0.038695,0.127358,0.149731
689,474981414,0.293207,-0.617632,-0.448714,-0.575530,0.030505,0.170587,0.117963
690,475014748,0.293256,-0.617409,-0.448870,-0.575622,0.150768,0.138135,0.233304
691,475048082,0.293415,-0.617057,-0.448948,-0.575858,0.040855,0.057622,-0.034974
692,475081416,0.293233,-0.616882,-0.448759,-0.576286,-0.048616,-0.057693,0.102129
693,475114750,0.293022,-0.616804,-0.448761,-0.576476,-0.233594,-0.048604,0.079385
694,475148084,0.292847,-0.616787,-0.448871,-0.576496,-0.323615,-0.057556,0.089721
695,475181418,0.292909,-0.616763,-0.449082,-0.576326,-0.198005,-0.134389,0.149592
696,475214752,0.292831,-0.616862,-0.449018,-0.576310,-0.156293,-0.328955,-0.119766
697,475248086,0.292494,-0.617401,-0.448883,-0.576009,-0.221642,-0.358417,0.150072
698,475281420,0.292026,-0.618234,-0.448808,-0.575411,-0.173475,-0.146026,0.082577
699,475314754,0.291402,-0.619234,-0.448783,-0.574672,0.021940,0.023921,0.209963
700,475348088,0.291398,-0.619691,-0.448989,-0.574020,0.310347,0.366745,0.173224
701,475381422,0.292065,-0.619592,-0.449465,-0.573414,0.420508,0.426831,0.141184
702,475414756,0.292608,-0.619500,-0.449933,-0.572869,0.412429,0.148237,0.065020
703,475448090,0.292975,-0.619340,-0.450245,-0.572610,0.344743,0.169474,0.257839
704,475481424,0.293607,-0.618835,-0.450495,-0.572635,0.159580,0.160733,0.233693
705,475514758,0.294072,-0.618362,-0.450497,-0.572907,0.012444,0.069328,0.175166
706,475548092,0.294349,-0.617947,-0.450293,-0.573372,-0.061340,0.007625,0.022120
707,475581426,0.294834,-0.617339,-0.450255,-0.573807,-0.093586,0.077375,0.014394
708,475614760,0.296010,-0.616438,-0.450729,-0.573798,-0.142747,0.149507,0.065449
709,475648094,0.297317,-0.615445,-0.451387,-0.573671,-0.144008,0.034575,0.073159
710,475681428,0.298285,-0.614726,-0.452165,-0.573328,-0.216610,-0.058996,0.097409
711,475714762,0.299051,-0.614220,-0.452911,-0.572881,-0.187250,-0.177734,0.108407
712,475748096,0.299547,-0.614106,-0.453641,-0.572166,-0.122256,-0.134606,0.080406
713,475781430,0.299712,-0.614315,-0.454185,-0.571423,-0.058733,0.061662,0.011043
714,475814764,0.299688,-0.614594,-0.454821,-0.570630,0.031025,0.267808,0.058910
715,475848098,0.299505,-0.614839,-0.455586,-0.569852,0.017522,0.299629,0.104098
716,475881432,0.299404,-0.614903,-0.456373,-0.569206,0.126652,0.167217,0.232378
717,475914766,0.299486,-0.614705,-0.456968,-0.568899,0.185078,0.042102,0.151303
718,475948100,0.299473,-0.614484,-0.457344,-0.568843,0.036476,-0.060198,0.117817
719,475981434,0.299634,-0.614253,-0.457848,-0.568601,-0.103488,-0.083095,0.094861
720,476014768,0.300010,-0.613980,-0.458569,-0.568116,-0.136094,-0.051694,0.043853
721,476048102,0.300521,-0.613613,-0.459490,-0.567499,-0.064036,0.037258,0.116513
722,476081436,0.301375,-0.613004,-0.460746,-0.566684,0.009603,0.059941,0.144301
723,476114770,0.302502,-0.612317,-0.462123,-0.565706,-0.008700,-0.060963,0.062803
724,476148104,0.303367,-0.611787,-0.463234,-0.564906,-0.011910,-0.117936,0.111932
725,476181438,0.303848,-0.611532,-0.463992,-0.564301,-0.014828,0.009291,0.164229
726,476214772,0.304195,-0.611329,-0.464520,-0.563900,0.051683,0.031272,0.106683
727,476248106,0.304437,-0.611204,-0.465001,-0.563507,0.073780,-0.006795,0.076461
728,476281440,0.304598,-0.611148,-0.465188,-0.563327,0.153674,0.040402,0.203074
729,476314774,0.304586,-0.611140,-0.465064,-0.563445,0.186748,0.036785,0.128088
730,476348108,0.304188,-0.611359,-0.464575,-0.563825,0.081031,0.073516,0.096492
731,476381442,0.303696,-0.611635,-0.463934,-0.564320,0.020243,0.135298,0.128091
732,476414776,0.303410,-0.611687,-0.463388,-0.564865,0.046161,0.081631,0.111031
733,476448110,0.303094,-0.611705,-0.462943,-0.565380,0.007983,0.039755,0.080507
734,476481444,0.302859,-0.611756,-0.462666,-0.565678,0.006609,0.052655,0.120666
735,476514778,0.302522,-0.611866,-0.462283,-0.566051,0.077990,0.049286,0.155788
736,476548112,0.302037,-0.611936,-0.461773,-0.566651,0.079213,0.063485,0.119050
737,476581446,0.301538,-0.612045,-0.461067,-0.567373,0.008831,0.048128,0.110706
738,476614780,0.300996,-0.612173,-0.460172,-0.568248,-0.002971,0.015726,0.102943
739,476648114,0.300380,-0.612245,-0.459226,-0.569262,-0.060455,-0.064581,0.088892
740,476681448,0.299954,-0.612299,-0.458428,-0.570071,-0.151173,-0.057142,0.130585
741,476714782,0.299372,-0.612473,-0.457593,-0.570860,-0.075378,-0.085011,0.086477
742,476748116,0.298824,-0.612700,-0.456910,-0.571451,-0.094563,-0.061263,0.104569
743,476781450,0.298548,-0.612776,-0.456311,-0.571991,-0.018037,-0.010521,0.107800
744,476814784,0.298236,-0.612790,-0.455579,-0.572722,0.091903,0.026218,0.168887
745,476848118,0.297969,-0.612696,-0.454897,-0.573503,0.053522,0.024084,0.135910
746,476881452,0.297823,-0.612557,-0.454144,-0.574324,0.022323,0.026225,0.083039
747,476914786,0.297486,-0.612520,-0.453157,-0.575317,0.020216,0.031380,0.172527
748,476948120,0.297172,-0.612447,-0.452171,-0.576332,-0.073137,0.020080,0.105039
749,476981454,0.296957,-0.612331,-0.451331,-0.577223,-0.038974,0.004489,0.117815
750,477014788,0.296848,-0.612062,-0.450619,-0.578121,-0.020836,-0.024314,0.086259
751,477048122,0.296719,-0.611826,-0.449946,-0.578961,-0.042682,-0.026187,0.091904
752,477081456,0.296699,-0.611607,-0.449339,-0.579673,-0.046349,0.041382,0.132222
753,477114790,0.296672,-0.611401,-0.448661,-0.580428,-0.081091,0.013948,0.110056
754,477148124,0.296631,-0.611148,-0.448057,-0.581182,-0.072523,0.004141,0.099696
755,477181458,0.296748,-0.610796,-0.447649,-0.581806,-0.099102,-0.013692,0.054063
756,477214792,0.296866,-0.610508,-0.447188,-0.582403,-0.135241,-0.039958,0.048122
757,477248126,0.296927,-0.610296,-0.446760,-0.582923,-0.150995,-0.030862,0.072391
758,477281460,0.297038,-0.610061,-0.446320,-0.583449,-0.091404,0.002035,0.143098
759,477314794,0.297120,-0.609864,-0.446000,-0.583857,-0.115682,-0.056998,0.146124
760,477348128,0.297201,-0.609673,-0.445837,-0.584140,-0.123383,-0.039826,0.128478
761,477381462,0.297294,-0.609470,-0.445634,-0.584459,-0.094989,-0.011993,0.094706
762,477414796,0.297625,-0.609122,-0.445432,-0.584807,-0.031593,0.056469,0.087748
763,477448130,0.297981,-0.608774,-0.445132,-0.585217,-0.044696,0.037806,0.092658
764,477481464,0.298170,-0.608506,-0.444730,-0.585704,-0.064231,-0.008873,0.143509
765,477514798,0.298566,-0.608102,-0.444410,-0.586165,-0.066008,0.021760,0.119743
766,477548132,0.299080,-0.607651,-0.444122,-0.586590,-0.093446,0.004505,0.165616
767,477581466,0.299518,-0.607254,-0.443861,-0.586974,-0.126454,-0.031839,0.123542
768,477614800,0.299728,-0.606976,-0.443529,-0.587406,-0.222216,-0.076685,0.053110
769,477648134,0.299924,-0.606806,-0.443247,-0.587694,-0.260722,-0.104772,0.068406
770,477681468,0.299873,-0.606924,-0.442986,-0.587794,-0.300781,-0.155070,0.066561
771,477714802,0.299577,-0.607392,-0.442755,-0.587636,-0.361169,-0.180497,0.062765
772,477748136,0.299167,-0.608015,-0.442742,-0.587210,-0.333763,-0.223732,0.075851
773,477781470,0.298706,-0.608658,-0.442927,-0.586639,-0.147984,-0.164532,0.179842
774,477814804,0.298495,-0.609133,-0.443345,-0.585937,0.011903,0.073294,0.129850
775,477848138,0.298994,-0.609367,-0.444089,-0.584875,-0.018595,0.171818,0.087262
776,477881472,0.299014,-0.609761,-0.444388,-0.584226,-0.002872,0.050073,0.057983
777,477914806,0.298865,-0.610232,-0.444593,-0.583655,0.000756,0.029734,0.129062
778,477948140,0.298638,-0.610842,-0.444894,-0.582903,-0.077324,0.035440,0.106825
779,477981474,0.298813,-0.611381,-0.445603,-0.581706,-0.102641,0.072917,0.153371
780,478014808,0.299157,-0.611559,-0.446269,-0.580831,0.062647,0.090843,0.149464
781,478048142,0.299283,-0.611655,-0.446824,-0.580239,0.098184,-0.010225,0.117374
782,478081476,0.299288,-0.611951,-0.447247,-0.579597,0.084799,-0.003046,0.137238
783,478114810,0.298935,-0.612462,-0.447277,-0.579216,0.123167,0.037442,0.101517
784,478148144,0.298593,-0.612838,-0.447255,-0.579011,0.190203,0.168787,0.134170
785,478181478,0.298479,-0.612975,-0.447364,-0.578840,0.167450,0.208518,0.099618
786,478214812,0.298615,-0.613001,-0.447598,-0.578563,0.109198,0.043744,0.130614
787,478248146,0.298510,-0.613150,-0.447687,-0.578390,-0.000250,-0.052371,0.076884
788,478281480,0.298151,-0.613538,-0.447728,-0.578132,-0.092770,-0.078263,0.074339
789,478314814,0.297467,-0.614232,-0.447765,-0.577718,-0.169353,-0.074477,0.056370
790,478348148,0.296742,-0.615039,-0.447914,-0.577118,-0.194981,-0.044165,0.055096
791,478381482,0.296359,-0.615724,-0.448321,-0.576267,-0.163948,-0.089044,0.041185
792,478414816,0.296081,-0.616460,-0.448929,-0.575148,-0.034133,-0.075139,0.138027
793,478448150,0.295832,-0.617216,-0.449599,-0.573941,0.177134,0.143377,0.158073
794,478481484,0.296032,-0.617513,-0.450431,-0.572865,0.479983,0.350212,0.164806
795,478514818,0.296464,-0.617432,-0.451204,-0.572119,0.586263,0.332614,0.140963
796,478548152,0.296738,-0.617327,-0.451548,-0.571819,0.505781,0.197149,0.155599
797,478581486,0.296734,-0.617188,-0.451469,-0.572034,0.340245,0.134508,0.185563
798,478614820,0.296865,-0.616836,-0.451351,-0.572439,0.218492,0.166268,0.185973
799,478648154,0.297486,-0.616107,-0.451309,-0.572935,0.153417,0.174942,0.118155
800,478681488,0.298031,-0.615315,-0.451103,-0.573665,0.056624,-0.050302,0.073874
801,478714822,0.298267,-0.614712,-0.450744,-0.574469,-0.063851,-0.107909,0.069664
802,478748156,0.298224,-0.614483,-0.450294,-0.575090,-0.201628,-0.125734,0.054344
803,478781490,0.297948,-0.614530,-0.449983,-0.575425,-0.278442,-0.084374,0.010008
804,478814824,0.297706,-0.614681,-0.450071,-0.575321,-0.317101,-0.031232,0.043946
805,478848158,0.297747,-0.614801,-0.450562,-0.574786,-0.222518,-0.006139,0.080091
806,478881492,0.297779,-0.615019,-0.451283,-0.573970,-0.132657,-0.094558,0.077500
807,478914826,0.297624,-0.615383,-0.452019,-0.573081,-0.016907,-0.110666,0.136946
808,478948160,0.297463,-0.615755,-0.452646,-0.572270,0.030132,-0.046668,0.088772
809,478981494,0.297516,-0.615947,-0.453157,-0.571631,0.176145,0.025560,0.206774
810,479014828,0.297763,-0.615813,-0.453521,-0.571358,0.290464,0.115203,0.145860
811,479048162,0.298096,-0.615647,-0.453764,-0.571170,0.159782,0.044994,0.126926
812,479081496,0.298561,-0.615338,-0.453931,-0.571127,0.187899,0.069146,0.169113
813,479114830,0.299134,-0.614786,-0.453915,-0.571434,0.228526,0.171298,0.113618
814,479148164,0.299795,-0.614109,-0.453847,-0.571870,0.096310,0.127554,0.128947
815,479181498,0.300290,-0.613425,-0.453599,-0.572541,-0.016108,-0.032699,0.136302
816,479214832,0.300497,-0.612957,-0.453155,-0.573284,-0.182678,-0.137270,0.075781
817,479248166,0.300485,-0.612740,-0.452693,-0.573888,-0.240955,-0.117593,0.058465
818,479281500,0.300475,-0.612609,-0.452497,-0.574187,-0.331045,-0.106509,0.052342
819,479314834,0.300527,-0.612529,-0.452539,-0.574212,-0.263363,-0.091622,0.074142
820,479348168,0.300747,-0.612429,-0.452689,-0.574086,-0.069963,-0.045235,0.119703
821,479381502,0.301091,-0.612227,-0.452785,-0.574045,0.075542,-0.003442,0.156909
822,479414836,0.301367,-0.612032,-0.452833,-0.574070,0.066386,-0.012651,0.085055
823,479448170,0.301617,-0.611913,-0.452757,-0.574125,0.127679,0.040992,0.149311
824,479481504,0.301551,-0.611832,-0.452322,-0.574589,0.101207,0.051630,0.090044
825,479514838,0.301690,-0.611584,-0.452065,-0.574982,0.084763,0.085720,0.171096
826,479548172,0.301727,-0.611397,-0.451690,-0.575456,0.075708,0.065827,0.132850
827,479581506,0.301512,-0.611391,-0.451068,-0.576064,0.020685,-0.015571,0.110685
828,479614840,0.301411,-0.611221,-0.450565,-0.576690,0.004523,-0.033393,0.115050
829,479648174,0.301302,-0.611035,-0.450103,-0.577304,-0.055483,-0.020808,0.084265
830,479681508,0.301187,-0.610967,-0.449651,-0.577788,-0.077931,-0.007254,0.078651
831,479714842,0.300936,-0.610984,-0.449347,-0.578138,-0.090024,-0.016213,0.047565
832,479748176,0.301063,-0.610961,-0.449622,-0.577882,-0.114391,-0.031721,0.150842
833,479781510,0.300907,-0.611027,-0.449509,-0.577981,-0.086185,-0.025126,0.071315
834,479814844,0.300769,-0.611110,-0.449501,-0.577972,-0.057191,-0.043190,0.094898
835,479848178,0.300757,-0.611179,-0.449533,-0.577879,-0.011569,-0.014427,0.086251
836,479881512,0.300759,-0.611253,-0.449650,-0.577709,0.023474,-0.007045,0.122253
837,479914846,0.300657,-0.611306,-0.449717,-0.577654,0.058505,0.043598,0.123015
838,479948180,0.300762,-0.611181,-0.449887,-0.577600,0.115098,0.057327,0.094018
839,479981514,0.300763,-0.611129,-0.449946,-0.577608,0.076125,0.014844,0.136936
840,480014848,0.300646,-0.611121,-0.449947,-0.577677,0.056850,-0.001920,0.116325
841,480048182,0.300473,-0.611172,-0.449878,-0.577766,0.020682,0.000569,0.126423
842,480081516,0.300544,-0.611026,-0.449961,-0.577820,0.010734,0.022492,0.128225
843,480114850,0.300830,-0.610714,-0.450242,-0.577783,0.031734,0.024579,0.128257
844,480148184,0.301124,-0.610376,-0.450485,-0.577796,0.035818,-0.004989,0.122312
845,480181518,0.301324,-0.610052,-0.450513,-0.578013,0.061222,-0.035344,0.078593
846,480214852,0.301518,-0.609723,-0.450492,-0.578275,0.027467,0.002487,0.111389
847,480248186,0.301722,-0.609398,-0.450351,-0.578620,0.026398,0.017662,0.133232
848,480281520,0.302047,-0.608970,-0.450281,-0.578956,-0.000823,0.035886,0.115476
849,480314854,0.302368,-0.608580,-0.450291,-0.579191,-0.054051,-0.047701,0.091728
850,480348188,0.302562,-0.608298,-0.450200,-0.579456,-0.071351,-0.085435,0.098031
851,480381522,0.302646,-0.608102,-0.450035,-0.579746,-0.060167,-0.071240,0.067291
852,480414856,0.302642,-0.608007,-0.449945,-0.579917,-0.107120,-0.062223,0.112368
853,480448190,0.302579,-0.608016,-0.449913,-0.579966,-0.143321,-0.065562,0.097947
854,480481524,0.302516,-0.608091,-0.449924,-0.579912,-0.163326,-0.077825,0.079162
855,480514858,0.302407,-0.608248,-0.449935,-0.579796,-0.119760,-0.073367,0.072934
856,480548192,0.302263,-0.608455,-0.450021,-0.579587,-0.082005,-0.039064,0.081821
857,480581526,0.302124,-0.608689,-0.450147,-0.579315,-0.020510,-0.038060,0.163464
858,480614860,0.302056,-0.608879,-0.450244,-0.579077,0.070358,-0.000844,0.121301
859,480648194,0.302160,-0.608893,-0.450334,-0.578936,0.108812,0.023856,0.110172
860,480681528,0.302195,-0.608906,-0.450316,-0.578918,0.062548,0.059457,0.193221
861,480714862,0.302118,-0.608799,-0.450116,-0.579228,0.160039,0.045295,0.147105
862,480748196,0.301867,-0.608752,-0.449737,-0.579702,0.136459,-0.033860,0.121031
863,480781530,0.302005,-0.608572,-0.449570,-0.579949,0.046382,0.051381,0.063161
864,480814864,0.301788,-0.608571,-0.449225,-0.580329,-0.057579,-0.032917,0.102158
865,480848198,0.301762,-0.608463,-0.449002,-0.580629,-0.132784,-0.011838,0.085822
866,480881532,0.301843,-0.608316,-0.448969,-0.580765,-0.139311,-0.060349,0.082856
867,480914866,0.301934,-0.608241,-0.448989,-0.580782,-0.113801,-0.046752,0.086484
868,480948200,0.301828,-0.608255,-0.448930,-0.580868,-0.080780,-0.008186,0.105617
869,480981534,0.301762,-0.608321,-0.449046,-0.580743,-0.037576,0.018064,0.139907
870,481014868,0.301777,-0.608300,-0.449276,-0.580579,0.048128,0.032333,0.073811
871,481048202,0.301705,-0.608274,-0.449409,-0.580542,0.069394,0.055908,0.117242
872,481081536,0.301682,-0.608143,-0.449533,-0.580594,0.076368,0.062854,0.138167
873,481114870,0.301548,-0.608010,-0.449530,-0.580805,0.061780,0.049032,0.152761
874,481148204,0.301343,-0.607857,-0.449464,-0.581123,0.024335,0.031573,0.101462
875,481181538,0.301067,-0.607709,-0.449350,-0.581509,-0.009478,0.025224,0.144266
876,481214872,0.300815,-0.607457,-0.449163,-0.582046,-0.010956,0.019181,0.124766
877,481248206,0.300542,-0.607183,-0.448953,-0.582636,-0.016322,0.055094,0.088754
878,481281540,0.300174,-0.606950,-0.448630,-0.583317,-0.082564,0.024756,0.116641
879,481314874,0.299913,-0.606649,-0.448420,-0.583926,-0.066762,0.019466,0.118649
880,481348208,0.299755,-0.606268,-0.448226,-0.584550,-0.063999,0.037554,0.073219
881,481381542,0.299644,-0.605869,-0.448174,-0.585061,-0.063253,-0.014474,0.102545
882,481414876,0.299522,-0.605506,-0.448236,-0.585452,-0.100234,0.004436,0.132956
883,481448210,0.299309,-0.605132,-0.448241,-0.585944,-0.011530,0.052997,0.104363
884,481481544,0.299225,-0.604623,-0.448425,-0.586371,0.096141,0.122612,0.101871
885,481514878,0.299124,-0.604096,-0.448713,-0.586745,0.072806,0.112235,0.123819
886,481548212,0.298912,-0.603610,-0.448829,-0.587264,0.082976,0.113718,0.131825
887,481581546,0.298573,-0.603056,-0.448657,-0.588137,0.082843,0.059897,0.124248
888,481614880,0.298030,-0.602518,-0.448340,-0.589203,0.121667,0.008515,0.120002
889,481648214,0.297680,-0.601857,-0.448104,-0.590235,0.058853,0.136611,0.103745
890,481681548,0.297365,-0.601072,-0.447751,-0.591460,0.110576,0.114062,0.110668
891,481714882,0.296888,-0.600280,-0.447314,-0.592833,0.069560,0.133409,0.119214
892,481748216,0.296568,-0.599319,-0.447124,-0.594108,-0.037457,0.128921,0.097945
893,481781550,0.296399,-0.598323,-0.447125,-0.595194,-0.033014,0.004831,0.169941
894,481814884,0.296123,-0.597328,-0.447082,-0.596363,-0.040875,-0.001086,0.051647
895,481848218,0.295656,-0.596369,-0.446848,-0.597728,-0.040698,-0.027429,0.079143
896,481881552,0.295174,-0.595382,-0.446602,-0.599131,-0.004291,0.033815,0.163683
897,481914886,0.294542,-0.594425,-0.446314,-0.600606,-0.087795,0.047763,0.102612
898,481948220,0.294186,-0.593375,-0.446173,-0.601922,-0.109258,0.009965,0.078728
899,481981554,0.293717,-0.592372,-0.445914,-0.603330,-0.079103,-0.062863,0.113152
900,482014888,0.293102,-0.591438,-0.445586,-0.604785,-0.107339,-0.011111,0.092243
901,482048222,0.292450,-0.590488,-0.445249,-0.606276,-0.086273,-0.031687,0.137004
902,482081556,0.291749,-0.589536,-0.444893,-0.607799,-0.032383,-0.020512,0.066381
903,482114890,0.290666,-0.588839,-0.444125,-0.609553,-0.095339,-0.011538,0.071321
904,482148224,0.289584,-0.588223,-0.443218,-0.611321,-0.099605,0.034988,0.099977
905,482181558,0.288601,-0.587538,-0.442337,-0.613080,-0.040955,0.036350,0.098869
906,482214892,0.287654,-0.586796,-0.441537,-0.614809,0.040167,0.095144,0.100554
907,482248226,0.286917,-0.586020,-0.440926,-0.616331,0.026862,0.067699,0.112336
908,482281560,0.286170,-0.585298,-0.440174,-0.617899,-0.023453,-0.025455,0.137378
909,482314894,0.285109,-0.584700,-0.439146,-0.619685,0.055552,-0.063694,0.167783
910,482348228,0.283781,-0.584163,-0.437849,-0.621715,0.113836,-0.064398,0.192640
911,482381562,0.282475,-0.583584,-0.436361,-0.623896,0.184464,-0.051890,0.168611
912,482414896,0.281264,-0.582915,-0.434669,-0.626246,0.261568,-0.031768,0.099270
913,482448230,0.279984,-0.582187,-0.432603,-0.628921,0.360765,0.000423,0.189018
914,482481564,0.278851,-0.581011,-0.430177,-0.632168,0.443332,0.064210,0.049136
915,482514898,0.278116,-0.579262,-0.427233,-0.636081,0.531711,0.050203,0.107148
916,482548232,0.277588,-0.577004,-0.423431,-0.640889,0.526795,0.048395,0.202122
917,482581566,0.276914,-0.574710,-0.418596,-0.646393,0.333758,0.037125,0.216798
918,482614900,0.276160,-0.572833,-0.412884,-0.652031,0.046482,0.207421,0.255564
919,482648234,0.275784,-0.571342,-0.406804,-0.657299,-0.132572,0.150666,0.171368
920,482681568,0.275896,-0.569757,-0.400780,-0.662310,-0.248273,0.038015,0.134994
921,482714902,0.276221,-0.568381,-0.394864,-0.666894,-0.409529,-0.072743,-0.028655
922,482748236,0.276051,-0.567977,-0.388886,-0.670810,-0.655055,-0.152896,-0.141400
923,482781570,0.275981,-0.568547,-0.383247,-0.673595,-0.693253,-0.130035,-0.136528
924,482814904,0.275977,-0.569478,-0.378656,-0.675404,-0.609779,-0.448254,-0.156208
925,482848238,0.274438,-0.571547,-0.374131,-0.676804,-0.459740,-0.490756,-0.088270
926,482881572,0.271455,-0.574619,-0.369663,-0.677860,-0.236633,-0.375218,0.094626
927,482914906,0.268520,-0.577672,-0.365914,-0.678468,-0.023088,-0.326120,0.253292
928,482948240,0.265915,-0.579977,-0.363672,-0.678733,0.236430,-0.455062,0.338880
929,482981574,0.263629,-0.581177,-0.362804,-0.679062,0.444023,-0.479560,0.287127
930,483014908,0.261596,-0.581929,-0.362983,-0.679110,0.340178,-0.136301,0.250925
931,483048242,0.260451,-0.581771,-0.364850,-0.678684,0.394232,-0.145313,0.274343
932,483081576,0.260953,-0.578655,-0.367781,-0.679573,0.729800,0.222837,0.018658
933,483114910,0.260806,-0.574732,-0.370132,-0.681679,0.551156,-0.392845,0.160424
934,483148244,0.259991,-0.569333,-0.371669,-0.685673,1.062644,0.128478,0.169428
935,483181578,0.258790,-0.564677,-0.373915,-0.688749,-0.039796,-0.269162,-0.059666
936,483214912,0.254223,-0.561909,-0.374127,-0.692588,-0.037137,-0.522114,0.013211
937,483248246,0.247785,-0.559199,-0.372762,-0.697831,-0.119912,-0.284551,-0.244041
938,483281580,0.239979,-0.558649,-0.372022,-0.701385,-0.775347,-0.520913,-0.408559
939,483314914,0.232069,-0.560011,-0.372735,-0.702581,-0.844161,-0.001642,-0.282928
940,483348248,0.225257,-0.561871,-0.374536,-0.702355,-0.498055,0.589852,-0.209781
941,483381582,0.219268,-0.564893,-0.376421,-0.700818,-0.445580,0.653053,-0.263837
942,483414916,0.214598,-0.568904,-0.378006,-0.698160,-0.187811,0.740737,-0.325626
943,483448250,0.211671,-0.574222,-0.378811,-0.694253,-0.168210,1.099841,-0.304362
944,483481584,0.212285,-0.579325,-0.379347,-0.689517,-0.397169,0.946515,0.055814
945,483514918,0.212130,-0.584853,-0.376941,-0.686209,0.124911,-0.187348,0.127044
946,483548252,0.212661,-0.589011,-0.371274,-0.685578,1.530851,0.486560,0.067702
947,483581586,0.212637,-0.594395,-0.364462,-0.684592,-0.054520,-1.660862,0.239101
948,483614920,0.207822,-0.601247,-0.356918,-0.684062,0.034168,-1.273352,0.880722
949,483648254,0.206595,-0.604912,-0.355811,-0.681776,0.250744,-2.764317,0.570146
950,483681588,0.203425,-0.607059,-0.357493,-0.679939,0.666451,-1.606284,0.216228
951,483714922,0.199518,-0.611762,-0.358502,-0.676341,0.149653,1.830920,0.020315
952,483748256,0.197715,-0.620616,-0.354417,-0.670934,-0.819209,3.265045,0.370217
953,483781590,0.201025,-0.626685,-0.350516,-0.666343,-0.385939,0.574055,0.089651
954,483814924,0.206068,-0.629843,-0.350908,-0.661602,0.440903,-0.545644,-0.202827
955,483848258,0.209778,-0.634231,-0.353840,-0.654646,0.271620,-0.705176,-0.160626
956,483881592,0.216703,-0.639120,-0.359566,-0.644435,-0.247231,-0.014903,0.162801
957,483914926,0.226098,-0.643433,-0.365537,-0.633464,-0.281863,-0.053620,0.142976
958,483948260,0.233819,-0.647284,-0.369967,-0.624096,-0.017828,-0.546890,-0.021751
959,483981594,0.238601,-0.651974,-0.372411,-0.615898,0.562953,-0.678010,-0.037000
960,484014928,0.241197,-0.658776,-0.373506,-0.606920,0.702417,-0.347551,0.007926
961,484048262,0.243790,-0.665699,-0.374407,-0.597705,0.340400,-0.238291,0.217245
962,484081596,0.245523,-0.670721,-0.373857,-0.591695,-0.075578,0.584675,0.277081
963,484114930,0.248214,-0.674410,-0.373248,-0.586743,-0.029882,0.870182,0.206617
964,484148264,0.252075,-0.676741,-0.373271,-0.582383,0.440915,0.925040,0.317084
965,484181598,0.257111,-0.677899,-0.373385,-0.578750,0.764242,0.584372,0.228199
966,484214932,0.260936,-0.679137,-0.372534,-0.576129,0.626860,0.277195,0.314793
967,484248266,0.262964,-0.680643,-0.370366,-0.574825,0.198551,0.334909,0.200788
968,484281600,0.264006,-0.682471,-0.367626,-0.573939,-0.143865,0.422758,0.023428
969,484314934,0.265455,-0.683993,-0.365645,-0.572723,-0.220411,0.598456,0.149206
970,484348268,0.267712,-0.684784,-0.364623,-0.571377,-0.024504,0.262963,0.014804
971,484381602,0.269673,-0.685598,-0.364007,-0.569869,-0.120346,0.228980,0.147336
972,484414936,0.271480,-0.686179,-0.363408,-0.568693,0.116851,0.305260,0.117171
973,484448270,0.272819,-0.686902,-0.363032,-0.567418,0.062103,0.142805,0.052938
974,484481604,0.274278,-0.687612,-0.363049,-0.565842,0.001811,0.375382,0.289505
975,484514938,0.276344,-0.687744,-0.363286,-0.564522,0.156728,0.171778,0.122107
976,484548272,0.277999,-0.687758,-0.363496,-0.563557,-0.119364,0.170337,0.239604
977,484581606,0.279714,-0.687503,-0.363884,-0.562769,0.062414,0.068472,0.041862
978,484614940,0.281100,-0.687416,-0.364447,-0.561818,-0.043814,0.089559,0.114041
979,484648274,0.282303,-0.687193,-0.364918,-0.561183,0.045578,0.213793,0.142306
980,484681608,0.283335,-0.687007,-0.365697,-0.560383,-0.120145,0.005747,0.085137
981,484714942,0.284611,-0.686736,-0.366826,-0.559328,-0.034054,0.105023,0.178882
982,484748276,0.286092,-0.686059,-0.367972,-0.558652,0.201382,0.159609,0.160498
983,484781610,0.287367,-0.685455,-0.369546,-0.557698,0.128677,0.043279,0.052080
984,484814944,0.288572,-0.684977,-0.371176,-0.556580,0.051886,0.169085,0.215892
985,484848278,0.289827,-0.684262,-0.372783,-0.555733,0.049461,0.092409,0.102654
986,484881612,0.290784,-0.683698,-0.374529,-0.554753,0.036688,-0.011773,0.094870
987,484914946,0.291706,-0.682936,-0.376110,-0.554137,0.157361,0.096839,0.224461
988,484948280,0.292449,-0.682103,-0.377753,-0.553654,0.137211,-0.039568,0.035011
989,484981614,0.292733,-0.681433,-0.379414,-0.553192,0.097953,0.028754,0.144374
990,485014948,0.293402,-0.680509,-0.381495,-0.552543,0.001198,0.179334,0.098844
991,485048282,0.293995,-0.679594,-0.383924,-0.551672,-0.165381,-0.039897,0.081225
992,485081616,0.294366,-0.678640,-0.386192,-0.551066,-0.055683,0.134538,0.182662
993,485114950,0.294504,-0.677817,-0.388375,-0.550469,-0.013500,0.235022,0.099299
994,485148284,0.294000,-0.677194,-0.390462,-0.550029,0.024865,0.308066,0.141354
995,485181618,0.293203,-0.676606,-0.392506,-0.549723,0.031268,0.410894,0.249588
996,485214952,0.292143,-0.676003,-0.394390,-0.549682,0.081795,0.272836,0.183971
997,485248286,0.290547,-0.675696,-0.395941,-0.549789,0.179383,0.328953,0.150762
998,485281620,0.288472,-0.675397,-0.397256,-0.550301,0.356278,0.370271,0.198559
999,485314954,0.285990,-0.674915,-0.398484,-0.551298,0.223581,0.246504,0.110742
1000,485348288,0.282866,-0.674681,-0.399392,-0.552538,0.015120,0.137424,0.102690
1001,485381622,0.279440,-0.674405,-0.400326,-0.553941,-0.036044,0.192284,0.089294
1002,485414956,0.276563,-0.673741,-0.402022,-0.554964,-0.138696,0.176201,-0.008218
1003,485448290,0.273710,-0.672869,-0.404068,-0.555949,-0.139831,0.198403,0.098722
1004,485481624,0.271203,-0.671656,-0.406508,-0.556866,-0.194714,0.131054,0.084647
1005,485514958,0.268321,-0.670449,-0.408777,-0.558054,-0.197085,0.009020,0.111283
1006,485548292,0.265061,-0.669397,-0.410362,-0.559709,-0.044064,0.009929,0.149173
1007,485581626,0.261679,-0.668266,-0.411235,-0.562006,0.179380,-0.127947,0.139485
1008,485614960,0.258137,-0.666985,-0.411753,-0.564780,0.221204,-0.131841,0.081139
1009,485648294,0.254121,-0.665785,-0.411754,-0.568007,0.161608,-0.112232,0.019926
1010,485681628,0.249118,-0.664984,-0.411023,-0.571680,-0.026362,-0.163436,0.037714
1011,485714962,0.243797,-0.664339,-0.409985,-0.575456,0.007917,-0.112002,0.228291
1012,485748296,0.239142,-0.663279,-0.409370,-0.579059,-0.034542,-0.050854,0.092139
1013,485781630,0.235035,-0.662008,-0.409267,-0.582258,-0.057707,-0.043339,0.173148
1014,485814964,0.232024,-0.660246,-0.409709,-0.585149,0.009243,0.033296,0.224136
1015,485848298,0.229378,-0.658108,-0.409900,-0.588457,0.159342,-0.068032,0.282046
1016,485881632,0.226877,-0.655710,-0.409810,-0.592155,0.418915,-0.137175,0.146271
1017,485914966,0.224725,-0.653280,-0.409951,-0.595553,0.353392,-0.241815,0.229387
1018,485948300,0.222868,-0.650616,-0.410086,-0.599065,0.276858,-0.257930,0.367778
1019,485981634,0.221809,-0.647097,-0.410521,-0.602959,0.209787,-0.147182,0.165136
1020,486014968,0.221212,-0.643360,-0.411048,-0.606805,0.182138,-0.075790,-0.056219
1021,486048302,0.220667,-0.640041,-0.411622,-0.610116,-0.077622,-0.066604,-0.017666
1022,486081636,0.219881,-0.637249,-0.411940,-0.613100,-0.456563,-0.145088,-0.214234
1023,486114970,0.219352,-0.634718,-0.412440,-0.615574,-0.521501,-0.205651,0.053777
1024,486148304,0.219275,-0.631880,-0.413505,-0.617803,-0.263091,-0.401264,0.173668
1025,486181638,0.219701,-0.628749,-0.415011,-0.619833,-0.060515,-0.172118,0.063921
1026,486214972,0.220391,-0.626017,-0.416755,-0.621182,-0.069314,-0.221061,0.094887
1027,486248306,0.220585,-0.623781,-0.418029,-0.622504,0.089587,-0.304609,0.052458
1028,486281640,0.219905,-0.622058,-0.418259,-0.624312,0.265382,-0.186396,-0.068044
1029,486314974,0.219314,-0.620597,-0.417980,-0.626158,0.239237,0.109801,-0.046191
1030,486348308,0.219559,-0.619066,-0.417735,-0.627750,0.148102,0.026583,0.079940
1031,486381642,0.219667,-0.617712,-0.417522,-0.629186,0.053366,-0.047085,0.178821
1032,486414976,0.220170,-0.616180,-0.417679,-0.630406,0.010688,-0.187271,0.148308
1033,486448310,0.221342,-0.614354,-0.418476,-0.631249,0.034868,-0.362683,0.127154
1034,486481644,0.222396,-0.612679,-0.419466,-0.631849,-0.012801,-0.415074,0.069796
1035,486514978,0.223085,-0.611299,-0.420271,-0.632408,-0.072420,-0.323477,0.029591
1036,486548312,0.223261,-0.610273,-0.420649,-0.633085,-0.050759,-0.279616,0.060346
1037,486581646,0.223133,-0.609683,-0.420713,-0.633655,-0.103746,-0.143277,-0.045132
1038,486614980,0.222997,-0.609316,-0.420574,-0.634149,-0.104864,-0.123446,-0.042275
1039,486648314,0.222866,-0.609147,-0.420267,-0.634560,-0.088447,-0.176540,0.074014
1040,486681648,0.222689,-0.609128,-0.419800,-0.634950,-0.020216,-0.187593,0.044849
1041,486714982,0.222204,-0.609490,-0.419082,-0.635245,0.029497,-0.216525,0.156532
1042,486748316,0.221603,-0.609921,-0.418191,-0.635629,0.097914,-0.235179,-0.010037
1043,486781650,0.221111,-0.610380,-0.417244,-0.635983,0.121707,-0.169810,0.021975
1044,486814984,0.220533,-0.610957,-0.416101,-0.636378,0.045138,-0.175570,0.023951
1045,486848318,0.220033,-0.611664,-0.414866,-0.636678,-0.078190,-0.050509,0.061284
1046,486881652,0.219869,-0.612296,-0.413753,-0.636852,-0.106298,-0.069966,0.063448
1047,486914986,0.219688,-0.613010,-0.412560,-0.637001,-0.106312,-0.183314,0.036654
1048,486948320,0.219296,-0.613976,-0.411425,-0.636941,-0.109852,-0.211350,0.130618
1049,486981654,0.219019,-0.615126,-0.410551,-0.636490,-0.055403,-0.095520,0.067012
1050,487014988,0.218691,-0.616517,-0.409637,-0.635845,-0.060866,-0.073241,0.017416
1051,487048322,0.218241,-0.618160,-0.408417,-0.635189,-0.050018,-0.124432,0.041811
1052,487081656,0.217855,-0.619910,-0.407108,-0.634456,0.009967,-0.107617,-0.016641
1053,487114990,0.217527,-0.621818,-0.405789,-0.633545,0.033110,-0.098034,0.001643
1054,487148324,0.217193,-0.623870,-0.404487,-0.632475,-0.001042,-0.160536,0.029138
1055,487181658,0.216792,-0.626057,-0.403166,-0.631293,-0.101301,-0.183877,0.158998
1056,487214992,0.216154,-0.628376,-0.401868,-0.630035,-0.186470,-0.233647,0.134332
1057,487248326,0.215544,-0.631040,-0.400935,-0.628173,-0.195227,-0.023448,0.034214
1058,487281660,0.215426,-0.634202,-0.400181,-0.625503,-0.389290,0.128085,-0.145653
1059,487314994,0.215297,-0.637952,-0.399276,-0.622305,-0.442705,-0.015465,0.040360
1060,487348328,0.214961,-0.642133,-0.398540,-0.618581,-0.436034,-0.200605,0.055934
1061,487381662,0.214903,-0.646347,-0.398469,-0.614243,-0.299140,-0.148864,0.020666
1062,487414996,0.216257,-0.650134,-0.399503,-0.609078,-0.154378,-0.249738,0.087432
1063,487448330,0.217617,-0.653982,-0.400830,-0.603577,0.039336,-0.497873,0.276252
1064,487481664,0.218238,-0.658152,-0.402200,-0.597883,0.240260,-0.237103,0.169390
1065,487514998,0.219630,-0.662038,-0.403455,-0.592210,0.365216,0.094441,0.145514
1066,487548332,0.221220,-0.665403,-0.403532,-0.587778,0.647450,0.114771,0.348880
1067,487581666,0.223129,-0.667743,-0.403286,-0.584562,0.891015,0.036142,0.272551
1068,487615000,0.225729,-0.669357,-0.403441,-0.581604,0.752823,0.030557,0.254948
1069,487648334,0.229441,-0.670394,-0.404038,-0.578535,0.442698,-0.167983,0.088167
1070,487681668,0.232916,-0.671288,-0.404002,-0.576130,0.146299,-0.178375,-0.029122
1071,487715002,0.236086,-0.672298,-0.403782,-0.573811,-0.120601,0.111187,0.186635
1072,487748336,0.239499,-0.673501,-0.403280,-0.571334,-0.327019,0.084957,0.092546
1073,487781670,0.241927,-0.674730,-0.402153,-0.569653,-0.099059,-0.032627,-0.061769
1074,487815004,0.245340,-0.675645,-0.401919,-0.567269,-0.034906,0.168774,0.244374
1075,487848338,0.248740,-0.676323,-0.401267,-0.565439,0.420146,0.214516,0.122863
1076,487881672,0.251845,-0.676901,-0.400432,-0.563963,0.382470,0.209763,0.086849
1077,487915006,0.254349,-0.677627,-0.399212,-0.562831,0.119354,0.293367,0.135878
1078,487948340,0.256305,-0.678523,-0.397644,-0.561974,-0.015074,0.177018,0.091270
1079,487981674,0.257619,-0.679434,-0.395859,-0.561532,0.012614,0.205595,0.035572
1080,488015008,0.259473,-0.680027,-0.394771,-0.560726,-0.015240,0.453009,0.287892
1081,488048342,0.262297,-0.679926,-0.394390,-0.559802,0.023993,0.246289,0.044311
1082,488081676,0.265147,-0.679592,-0.394623,-0.558700,-0.015709,0.062603,0.080504
1083,488115010,0.267874,-0.679212,-0.394925,-0.557646,0.106953,0.257461,0.208254
1084,488148344,0.269852,-0.678945,-0.394517,-0.557306,0.232645,0.170960,0.135647
1085,488181678,0.270576,-0.679145,-0.393394,-0.557507,0.163501,0.120902,0.082422
1086,488215012,0.270641,-0.679563,-0.392133,-0.557853,0.013710,0.211996,0.149076
1087,488248346,0.270656,-0.679872,-0.391198,-0.558125,-0.084416,0.356791,0.096118
1088,488281680,0.270716,-0.680032,-0.390623,-0.558304,-0.086015,0.315517,0.104283
1089,488315014,0.270910,-0.679926,-0.390434,-0.558471,0.100839,0.124212,0.118210
1090,488348348,0.271015,-0.679744,-0.390518,-0.558584,0.211352,0.069028,0.150666
1091,488381682,0.270703,-0.679690,-0.390439,-0.558856,0.246029,0.256927,0.154156
1092,488415016,0.269858,-0.679685,-0.390205,-0.559434,0.116256,0.285655,0.169440
1093,488448350,0.269019,-0.679446,-0.390116,-0.560189,-0.015686,0.218008,0.097583
1094,488481684,0.268214,-0.679068,-0.390301,-0.560905,-0.093351,0.161071,0.102345
1095,488515018,0.267082,-0.678693,-0.390548,-0.561726,-0.113405,0.076441,0.085343
1096,488548352,0.265707,-0.678400,-0.390923,-0.562471,-0.088900,0.171446,0.110629
1097,488581686,0.264203,-0.678013,-0.391402,-0.563312,0.016646,0.112761,0.126084
1098,488615020,0.262686,-0.677482,-0.392077,-0.564190,0.062240,0.147683,0.087661
1099,488648354,0.261015,-0.676888,-0.392814,-0.565166,0.029772,0.158710,0.133593
1100,488681688,0.259121,-0.676227,-0.393452,-0.566383,0.036448,0.096033,0.129157
1101,488715022,0.256892,-0.675530,-0.394022,-0.567832,0.022857,0.100728,0.065781
1102,488748356,0.254624,-0.674768,-0.394757,-0.569248,-0.050889,0.200868,0.144742
1103,488781690,0.252276,-0.673982,-0.395393,-0.570781,-0.080759,0.192279,0.099934
1104,488815024,0.249777,-0.673038,-0.396050,-0.572534,0.005889,0.179490,0.081531
1105,488848358,0.247182,-0.672039,-0.396819,-0.574300,-0.011981,0.187763,0.106361
1106,488881692,0.244783,-0.670927,-0.397545,-0.576122,0.031876,0.301455,0.146115
1107,488915026,0.242536,-0.669512,-0.398158,-0.578291,0.108081,0.228379,0.137793
1108,488948360,0.240632,-0.667634,-0.399091,-0.580611,0.116415,0.050340,0.090335
1109,488981694,0.238968,-0.665483,-0.400286,-0.582939,0.070975,0.012327,0.020465
1110,489015028,0.237395,-0.663278,-0.401463,-0.585281,-0.018244,0.065231,0.148160
1111,489048362,0.235837,-0.661000,-0.402357,-0.587869,-0.021378,0.014223,0.123832
1112,489081696,0.234073,-0.658671,-0.402967,-0.590762,0.022127,-0.019933,0.107194
1113,489115030,0.232494,-0.656310,-0.403656,-0.593537,-0.044516,-0.001255,0.066861
1114,489148364,0.231089,-0.653946,-0.404348,-0.596218,-0.077556,-0.187388,0.059810
1115,489181698,0.229503,-0.651711,-0.405015,-0.598819,-0.096361,-0.302085,0.044608
1116,489215032,0.227432,-0.649675,-0.405476,-0.601504,-0.052576,-0.226952,0.078107
1117,489248366,0.225324,-0.647773,-0.405790,-0.604131,-0.002454,-0.145549,0.079677
1118,489281700,0.223099,-0.645990,-0.405679,-0.606934,0.074070,-0.052417,0.017369
1119,489315034,0.220809,-0.644037,-0.405144,-0.610195,0.144390,0.012940,0.054187
1120,489348368,0.218861,-0.641589,-0.404433,-0.613936,0.073347,0.033908,0.133327
1121,489381702,0.217350,-0.639062,-0.404019,-0.617372,-0.053270,-0.029777,0.258892
1122,489415036,0.216353,-0.636536,-0.404055,-0.620302,-0.137147,0.011575,0.189194
1123,489448370,0.216021,-0.633880,-0.404572,-0.622795,-0.075610,-0.075794,0.094504
1124,489481704,0.216047,-0.631114,-0.405435,-0.625029,0.060646,-0.144507,0.069481
1125,489515038,0.216209,-0.628343,-0.406485,-0.627080,0.103950,-0.115178,0.212198
1126,489548372,0.216552,-0.625582,-0.407517,-0.629049,0.104878,-0.013927,0.349504
1127,489581706,0.217897,-0.622369,-0.408602,-0.631065,0.194403,-0.036994,0.377579
1128,489615040,0.219386,-0.619143,-0.409173,-0.633348,0.304795,-0.233108,0.236373
1129,489648374,0.220032,-0.614638,-0.408449,-0.637963,0.678127,-0.330245,0.238811
1130,489681708,0.220539,-0.608634,-0.407024,-0.644422,0.559799,-0.247138,0.235051
1131,489715042,0.222357,-0.599782,-0.405656,-0.652903,1.159818,-0.293457,0.101995
1132,489748376,0.223993,-0.593936,-0.405437,-0.657807,-0.474672,-0.560525,-0.291981
1133,489781710,0.222343,-0.592261,-0.403224,-0.661227,-0.670596,0.077941,-0.017107
1134,489815044,0.221778,-0.590673,-0.401053,-0.664152,-0.085501,0.121079,-0.196717
1135,489848378,0.221170,-0.589338,-0.399604,-0.666410,-0.495968,-0.148829,0.006568
1136,489881712,0.221357,-0.588335,-0.399498,-0.667297,-0.407907,-0.306428,-0.098747
1137,489915046,0.222347,-0.587358,-0.400588,-0.667175,-0.282199,-0.337464,-0.012135
1138,489948380,0.222902,-0.586481,-0.401761,-0.667057,0.071569,-0.504896,0.127129
1139,489981714,0.222099,-0.586447,-0.401990,-0.667215,0.107391,-0.476763,0.182415
1140,490015048,0.220058,-0.587066,-0.401055,-0.667910,0.217128,-0.418176,0.223358
1141,490048382,0.217566,-0.587913,-0.399296,-0.669034,0.398974,-0.228536,0.168470
1142,490081716,0.214877,-0.589009,-0.397095,-0.670248,0.440604,-0.137088,0.105322
1143,490115050,0.212244,-0.590197,-0.394772,-0.671414,0.413024,0.032172,0.044603
1144,490148384,0.210769,-0.590851,-0.393014,-0.672334,0.272484,0.041679,0.009749
1145,490181718,0.209830,-0.591393,-0.391634,-0.672956,0.169328,0.032052,-0.080833
1146,490215052,0.209458,-0.591844,-0.390760,-0.673183,0.206147,-0.049146,0.021228
1147,490248386,0.208817,-0.592470,-0.389691,-0.673451,0.104129,-0.255742,0.101554
1148,490281720,0.208009,-0.593373,-0.388324,-0.673696,0.100017,-0.188929,0.103436
1149,490315054,0.207158,-0.594485,-0.386736,-0.673891,0.105411,-0.203152,0.145563
1150,490348388,0.205852,-0.595901,-0.384748,-0.674178,0.071560,-0.120317,0.123209
1151,490381722,0.204948,-0.597317,-0.382977,-0.674210,0.101637,0.078488,0.064372
1152,490415056,0.204785,-0.598681,-0.381705,-0.673771,0.139099,-0.105023,0.116306
1153,490448390,0.204728,-0.600282,-0.380556,-0.673012,0.218131,-0.242113,0.044556
1154,490481724,0.204550,-0.601902,-0.379547,-0.672189,0.141632,-0.213879,0.114908
1155,490515058,0.204449,-0.603748,-0.378652,-0.671069,0.023576,-0.203753,0.094080
1156,490548392,0.204265,-0.605774,-0.377575,-0.669904,0.109054,-0.334583,0.099789
1157,490581726,0.203986,-0.607831,-0.376462,-0.668751,0.063888,-0.231014,0.156151
1158,490615060,0.203539,-0.609890,-0.375350,-0.667637,-0.180253,-0.195558,0.131886
1159,490648394,0.203160,-0.612365,-0.374300,-0.666074,-0.246695,-0.260931,0.077717
1160,490681728,0.202581,-0.615303,-0.373196,-0.664160,-0.084750,0.317675,-0.013196
1161,490715062,0.202688,-0.618518,-0.372302,-0.661638,-0.175165,0.417315,0.071182
1162,490748396,0.203766,-0.621656,-0.371834,-0.658623,-0.025175,0.208474,0.033525
1163,490781730,0.205241,-0.624853,-0.371984,-0.655044,0.207740,-0.012021,0.011622
1164,490815064,0.206500,-0.628551,-0.372421,-0.650849,0.307467,0.046831,0.096106
1165,490848398,0.208293,-0.632007,-0.373198,-0.646472,0.213819,0.113406,0.322656
1166,490881732,0.210221,-0.634418,-0.373687,-0.643196,0.182770,-0.010006,0.046591
1167,490915066,0.211685,-0.637222,-0.373531,-0.640026,0.155515,0.116520,0.075871
1168,490948400,0.212895,-0.640205,-0.373258,-0.636799,-0.063593,0.219178,0.116311
1169,490981734,0.214702,-0.642895,-0.373775,-0.633169,-0.102463,0.288728,-0.095229
1170,491015068,0.217935,-0.645584,-0.375905,-0.628046,-0.220805,0.205227,0.005774
1171,491048402,0.222123,-0.648365,-0.379305,-0.621637,-0.401484,0.128003,0.003702
1172,491081736,0.227314,-0.650962,-0.383914,-0.614173,-0.395965,0.027605,-0.149337
1173,491115070,0.233504,-0.653031,-0.389586,-0.606029,-0.132021,0.002561,-0.022549
1174,491148404,0.241163,-0.653180,-0.395319,-0.599117,0.687507,-0.132881,0.265459
1175,491181738,0.247897,-0.652624,-0.399041,-0.594489,1.057216,-0.205495,0.510129
1176,491215072,0.252904,-0.652647,-0.401252,-0.590855,0.548968,-0.277842,0.277460
1177,491248406,0.256409,-0.652875,-0.401738,-0.588758,0.552049,-0.391827,0.049170
1178,491281740,0.259129,-0.653312,-0.400947,-0.587621,0.311117,0.133159,0.176972
1179,491315074,0.262262,-0.653080,-0.399727,-0.587320,0.130691,0.179622,0.146421
1180,491348408,0.264227,-0.653235,-0.398341,-0.587209,-0.170646,0.416170,0.161621
1181,491381742,0.266118,-0.653876,-0.397361,-0.586304,-0.521616,0.381280,0.132707
1182,491415076,0.268155,-0.653934,-0.396638,-0.585802,-0.225415,0.157189,0.130170
1183,491448410,0.269975,-0.654152,-0.396355,-0.584912,-0.273289,0.089242,0.132895
1184,491481744,0.270668,-0.654907,-0.395557,-0.584288,-0.238764,0.150373,0.057053
1185,491515078,0.271151,-0.655538,-0.395044,-0.583702,0.039192,0.467546,0.121965
1186,491548412,0.271704,-0.656171,-0.394849,-0.582867,-0.001870,0.482506,0.167594
1187,491581746,0.271532,-0.656678,-0.394612,-0.582535,0.028297,0.371163,0.161365
1188,491615080,0.272141,-0.656430,-0.395106,-0.582195,0.044381,0.223711,0.150459
1189,491648414,0.273044,-0.655868,-0.395947,-0.581835,-0.004608,0.255970,0.162079
1190,491681748,0.273164,-0.655474,-0.396390,-0.581921,0.025466,0.220023,0.116604
1191,491715082,0.272395,-0.655266,-0.396514,-0.582430,0.122303,0.224139,0.113437
1192,491748416,0.271423,-0.655064,-0.396742,-0.582956,0.177134,0.455933,0.233262
1193,491781750,0.270907,-0.654383,-0.397219,-0.583635,0.186254,0.431163,0.156816
1194,491815084,0.270674,-0.653257,-0.398160,-0.584364,0.087628,0.213684,0.108698
1195,491848418,0.270394,-0.652041,-0.399280,-0.585087,-0.069904,0.110192,0.065495
1196,491881752,0.269518,-0.651045,-0.399992,-0.586113,-0.055730,0.146716,0.153198
1197,491915086,0.268408,-0.650064,-0.400318,-0.587487,0.084997,0.087611,0.103242
1198,491948420,0.266899,-0.648902,-0.400250,-0.589502,-0.320963,0.144167,0.230250
1199,491981754,0.266816,-0.644179,-0.398853,-0.595635,-0.225842,0.112770,0.684615
1200,492015088,0.265992,-0.638240,-0.395704,-0.604432,0.370615,0.261672,0.356752
1201,492048422,0.266070,-0.631387,-0.393486,-0.612982,1.209053,-0.555618,-0.817976
1202,492081756,0.263002,-0.629613,-0.392519,-0.616740,-0.496752,-0.593071,-0.287869
1203,492115090,0.258472,-0.630172,-0.391117,-0.618970,-0.908245,0.237693,0.153535
1204,492148424,0.254624,-0.630866,-0.390363,-0.620333,-0.293149,0.290577,0.011053
1205,492181758,0.252419,-0.630214,-0.390970,-0.621514,0.287831,0.004475,0.186438
1206,492215092,0.250612,-0.629579,-0.391932,-0.622282,0.310461,0.031310,0.074437
1207,492248426,0.248568,-0.629027,-0.391935,-0.623657,0.429414,0.032826,0.226086
1208,492281760,0.245741,-0.628220,-0.390934,-0.626214,0.430324,-0.182852,0.143913
1209,492315094,0.242109,-0.627714,-0.389246,-0.629181,0.389421,0.084916,0.058201
1210,492348428,0.238028,-0.627417,-0.387235,-0.632266,0.213358,0.035374,0.134830
1211,492381762,0.234425,-0.626783,-0.385700,-0.635173,0.097053,0.090562,0.038241
1212,492415096,0.231722,-0.625794,-0.384751,-0.637712,0.001443,0.275703,0.157645
1213,492448430,0.229619,-0.624594,-0.384142,-0.640011,-0.091765,-0.086561,0.081196
1214,492481764,0.227160,-0.623649,-0.383409,-0.642246,-0.110076,-0.184546,0.047371
1215,492515098,0.224223,-0.623021,-0.382491,-0.644431,-0.077533,-0.006189,0.126232
1216,492548432,0.221165,-0.622549,-0.381487,-0.646535,-0.019004,0.118016,0.094870
1217,492581766,0.218615,-0.621830,-0.380699,-0.648557,0.159378,0.169643,0.102619
1218,492615100,0.216465,-0.620743,-0.380270,-0.650567,0.169903,0.090087,0.141248
1219,492648434,0.214705,-0.619645,-0.380185,-0.652244,0.056972,-0.068803,0.068666
1220,492681768,0.213394,-0.618532,-0.380409,-0.653600,0.047727,-0.041174,0.065661
1221,492715102,0.212016,-0.617364,-0.380453,-0.655124,0.057848,-0.269814,0.071233
1222,492748436,0.210053,-0.616631,-0.380036,-0.656687,0.066672,-0.156281,0.114572
1223,492781770,0.208136,-0.616131,-0.379472,-0.658092,0.142407,-0.067767,0.083107
1224,492815104,0.206775,-0.615435,-0.379165,-0.659348,0.223844,-0.170093,0.091031
1225,492848438,0.205503,-0.614744,-0.378835,-0.660578,0.201009,-0.179114,0.138731
1226,492881772,0.204171,-0.614303,-0.378497,-0.661594,0.195565,-0.195454,0.117250
1227,492915106,0.202989,-0.613998,-0.378137,-0.662447,0.264901,-0.183533,-0.015566
1228,492948440,0.201734,-0.613892,-0.377611,-0.663229,0.212853,-0.144427,0.055895
1229,492981774,0.200706,-0.613733,-0.377169,-0.663939,0.262327,-0.167450,0.014993
1230,493015108,0.199773,-0.613714,-0.376805,-0.664444,0.247988,-0.178251,0.086236
1231,493048442,0.198862,-0.613782,-0.376426,-0.664869,0.156700,-0.100111,0.111403
1232,493081776,0.198130,-0.613918,-0.376053,-0.665174,0.130869,-0.115509,0.081420
1233,493115110,0.197644,-0.614079,-0.375834,-0.665293,0.145179,-0.163319,0.163954
1234,493148444,0.197223,-0.614339,-0.375681,-0.665264,0.109051,-0.227244,0.117633
1235,493181778,0.197041,-0.614677,-0.375527,-0.665093,0.106401,-0.202060,0.065503
1236,493215112,0.197004,-0.614976,-0.375296,-0.664958,0.223340,-0.148059,0.048235
1237,493248446,0.196785,-0.615485,-0.374918,-0.664765,0.242175,-0.116522,0.087255
1238,493281780,0.196781,-0.615989,-0.374564,-0.664499,0.214803,-0.038491,0.062894
1239,493315114,0.197071,-0.616432,-0.374277,-0.664164,0.154381,-0.123282,0.036910
1240,493348448,0.197312,-0.616858,-0.373925,-0.663895,0.069268,-0.126133,0.080284
1241,493381782,0.197740,-0.617215,-0.373723,-0.663550,0.049208,-0.049658,0.085183
1242,493415116,0.198321,-0.617713,-0.373705,-0.662922,0.105231,0.004740,0.116144
1243,493448450,0.199140,-0.618227,-0.373807,-0.662140,0.146119,-0.061692,0.143938
1244,493481784,0.200019,-0.618767,-0.373834,-0.661355,0.273289,-0.032688,0.062635
1245,493515118,0.201033,-0.619288,-0.373835,-0.660558,0.217937,0.009524,0.084485
1246,493548452,0.202366,-0.619745,-0.373972,-0.659644,0.267411,0.027725,0.059380
1247,493581786,0.203631,-0.620259,-0.374127,-0.658684,0.251954,-0.021775,0.087127
1248,493615120,0.205001,-0.620700,-0.374280,-0.657755,0.155900,-0.026158,0.034894
1249,493648454,0.206413,-0.621190,-0.374463,-0.656747,0.127523,0.083170,0.102876
1250,493681788,0.207911,-0.621649,-0.374664,-0.655724,0.097445,0.138029,0.086576
1251,493715122,0.209773,-0.622078,-0.375152,-0.654444,0.118048,0.032494,0.128118
1252,493748456,0.211707,-0.622492,-0.375758,-0.653078,0.118077,0.024427,0.108728
1253,493781790,0.213581,-0.623013,-0.376386,-0.651608,0.090924,0.004465,0.094833
1254,493815124,0.215372,-0.623617,-0.376974,-0.650099,0.096179,0.052380,0.065245
1255,493848458,0.217517,-0.624104,-0.377822,-0.648424,0.169907,0.134207,0.086417
1256,493881792,0.219899,-0.624583,-0.378905,-0.646523,0.155733,0.073934,0.150014
1257,493915126,0.222498,-0.625076,-0.380264,-0.644357,0.198634,0.021929,0.034837
1258,493948460,0.225081,-0.625475,-0.381600,-0.642279,0.173833,0.026942,0.127605
1259,493981794,0.227420,-0.625925,-0.382582,-0.640430,-0.003546,-0.004238,0.078889
1260,494015128,0.229646,-0.626547,-0.383459,-0.638500,-0.073251,-0.056981,0.051299
1261,494048462,0.231666,-0.627380,-0.384313,-0.636435,-0.068428,0.021191,0.033849
1262,494081796,0.233814,-0.628266,-0.385414,-0.634106,0.020872,0.147339,0.081238
1263,494115130,0.236476,-0.628999,-0.387173,-0.631315,0.010964,0.151830,0.043321
1264,494148464,0.239438,-0.629719,-0.389363,-0.628126,0.040917,0.128491,0.083470
1265,494181798,0.242539,-0.630382,-0.391872,-0.624701,0.062324,-0.033081,0.103270
1266,494215132,0.245418,-0.631163,-0.394166,-0.621336,-0.025349,-0.066002,0.173988
1267,494248466,0.248220,-0.632047,-0.396133,-0.618065,0.041515,-0.084869,0.108098
1268,494281800,0.250704,-0.633027,-0.397683,-0.615057,0.087388,-0.064954,0.058648
1269,494315134,0.252941,-0.634228,-0.399105,-0.611975,0.028813,0.030575,0.150659
1270,494348468,0.255417,-0.635398,-0.400718,-0.608670,0.007702,-0.071722,0.059406
1271,494381802,0.258648,-0.635936,-0.402698,-0.605428,0.102311,-0.028825,0.197056
1272,494415136,0.262121,-0.636240,-0.404492,-0.602412,0.025529,-0.069671,0.095474
1273,494448470,0.265073,-0.636767,-0.405838,-0.599651,-0.092295,-0.102217,0.087026
1274,494481804,0.267843,-0.637572,-0.407463,-0.596455,-0.077979,-0.228567,0.034453
1275,494515138,0.270090,-0.638565,-0.408885,-0.593399,-0.004154,-0.256282,0.088965
1276,494548472,0.271324,-0.639973,-0.409465,-0.590913,-0.122563,0.027069,0.117559
1277,494581806,0.272367,-0.641542,-0.409769,-0.588515,-0.024212,0.161833,0.152925
1278,494615140,0.273426,-0.642640,-0.410072,-0.586613,0.150331,0.171117,0.172296
1279,494648474,0.274713,-0.643412,-0.410274,-0.585022,0.062122,0.149366,0.192687
1280,494681808,0.276154,-0.643693,-0.410357,-0.583975,0.175849,0.122485,0.149983
1281,494715142,0.277236,-0.643886,-0.410531,-0.583127,0.084477,0.201309,0.114171
1282,494748476,0.278081,-0.644176,-0.410330,-0.582546,-0.002314,0.173978,0.157254
1283,494781810,0.278696,-0.644283,-0.410051,-0.582330,-0.131085,0.102095,0.108735
1284,494815144,0.279331,-0.644369,-0.410189,-0.581833,-0.227464,0.115877,0.070461
1285,494848478,0.279816,-0.644599,-0.410305,-0.581264,-0.240438,0.203667,0.192402
1286,494881812,0.280354,-0.644574,-0.410205,-0.581102,-0.111947,0.105879,0.103261
1287,494915146,0.280568,-0.644488,-0.410168,-0.581121,-0.029348,0.074136,0.107036
1288,494948480,0.280437,-0.644624,-0.410229,-0.580990,-0.040579,0.097709,0.112274
1289,494981814,0.280126,-0.644596,-0.410018,-0.581320,-0.092454,0.241635,0.220865
1290,495015148,0.279937,-0.644096,-0.409661,-0.582216,0.021098,0.073066,0.040881
1291,495048482,0.279477,-0.643766,-0.409539,-0.582888,0.096638,0.080685,0.108434
1292,495081816,0.279032,-0.643526,-0.409613,-0.583313,0.029271,0.183458,0.194882
1293,495115150,0.278482,-0.642890,-0.409214,-0.584556,0.051603,0.085921,0.171459
1294,495148484,0.277791,-0.642295,-0.408906,-0.585754,0.083098,0.048511,0.053644
1295,495181818,0.276607,-0.641939,-0.408722,-0.586832,-0.053018,0.137943,0.149467
1296,495215152,0.275537,-0.641401,-0.408442,-0.588118,-0.160766,0.094171,0.153823
1297,495248486,0.274563,-0.640729,-0.408085,-0.589551,0.009936,0.054063,0.023229
1298,495281820,0.273346,-0.640144,-0.407957,-0.590838,0.008371,0.198296,0.160164
1299,495315154,0.272368,-0.639056,-0.407511,-0.592773,0.052633,-0.045484,0.159109
1300,495348488,0.271116,-0.637813,-0.406753,-0.595201,0.184440,-0.141803,0.029772
1301,495381822,0.268977,-0.637265,-0.405719,-0.597461,0.079470,0.152793,0.097816
1302,495415156,0.266886,-0.636544,-0.404564,-0.599944,-0.067074,0.153913,0.197214
1303,495448490,0.265282,-0.635309,-0.403633,-0.602586,0.013294,-0.066210,0.133674
1304,495481824,0.263633,-0.634191,-0.402701,-0.605107,-0.001299,-0.175942,0.081524
1305,495515158,0.261698,-0.633204,-0.401497,-0.607774,0.139394,-0.160087,0.112749
1306,495548492,0.259351,-0.632441,-0.399969,-0.610576,-0.033059,-0.018829,0.107827
1307,495581826,0.257415,-0.631477,-0.398804,-0.613150,-0.024092,0.127733,0.108154
1308,495615160,0.255873,-0.630362,-0.397953,-0.615491,0.097732,0.140691,0.094609
1309,495648494,0.254621,-0.629017,-0.397245,-0.617839,0.135168,-0.012577,0.153717
1310,495681828,0.253455,-0.627651,-0.396398,-0.620246,0.133370,-0.191034,0.060850
1311,495715162,0.251473,-0.626903,-0.395187,-0.622578,0.015094,-0.244434,0.020071
1312,495748496,0.248757,-0.626687,-0.393640,-0.624863,-0.008869,-0.099913,0.079451
1313,495781830,0.245767,-0.626714,-0.391790,-0.627177,-0.035602,0.039110,0.055511
1314,495815164,0.243516,-0.626286,-0.390565,-0.629243,0.169886,0.141902,0.119150
1315,495848498,0.241758,-0.625691,-0.390000,-0.630861,0.153495,0.130100,0.095289
1316,495881832,0.240484,-0.624979,-0.389757,-0.632203,0.051644,0.068442,0.071169
1317,495915166,0.239398,-0.624326,-0.389757,-0.633260,0.169433,-0.098937,0.068269
1318,495948500,0.237835,-0.623881,-0.389559,-0.634408,0.035858,-0.074960,0.178869
1319,495981834,0.236712,-0.623295,-0.389428,-0.635483,0.110027,-0.098942,0.070221
1320,496015168,0.235507,-0.622900,-0.389125,-0.636504,0.131399,-0.091450,0.088017
1321,496048502,0.234147,-0.622666,-0.388764,-0.637453,0.110133,-0.108739,0.034808
1322,496081836,0.233101,-0.622354,-0.388481,-0.638314,0.184872,-0.083245,0.135179
1323,496115170,0.232136,-0.622041,-0.388097,-0.639203,0.171844,-0.145600,0.103719
1324,496148504,0.231111,-0.621903,-0.387618,-0.639999,0.135504,-0.075945,0.099021
1325,496181838,0.230114,-0.621862,-0.387089,-0.640719,0.126139,-0.108502,0.062403
1326,496215172,0.229366,-0.621864,-0.386623,-0.641266,0.104086,-0.160532,0.108842
1327,496248506,0.228696,-0.622002,-0.386101,-0.641685,0.124291,-0.097272,0.065748
1328,496281840,0.228248,-0.622120,-0.385761,-0.641934,0.209125,-0.133127,0.053418
1329,496315174,0.227868,-0.622258,-0.385249,-0.642244,0.207857,-0.130302,0.144876
1330,496348508,0.227617,-0.622449,-0.384668,-0.642496,0.156527,-0.137071,0.079364
1331,496381842,0.227107,-0.622892,-0.383933,-0.642686,0.074959,-0.141043,0.051700
1332,496415176,0.226725,-0.623356,-0.383239,-0.642785,0.146901,-0.031630,0.084805
1333,496448510,0.226779,-0.623684,-0.382733,-0.642750,0.200057,-0.035505,0.148360
1334,496481844,0.227002,-0.624070,-0.382259,-0.642579,0.173767,-0.112876,0.076582
1335,496515178,0.227189,-0.624511,-0.381705,-0.642414,0.146802,-0.050457,0.076684
1336,496548512,0.227440,-0.624924,-0.381124,-0.642268,0.120639,-0.014467,0.112894
1337,496581846,0.227881,-0.625432,-0.380619,-0.641917,0.108513,-0.028693,0.043047
1338,496615180,0.228430,-0.625987,-0.380211,-0.641423,0.059475,0.001613,0.055264
1339,496648514,0.229411,-0.626341,-0.380154,-0.640760,0.053583,0.068159,0.104671
1340,496681848,0.230569,-0.626632,-0.380307,-0.639968,0.086071,0.073898,0.052492
1341,496715182,0.231836,-0.626943,-0.380549,-0.639062,0.118942,0.044074,0.112803
1342,496748516,0.233189,-0.627187,-0.380922,-0.638107,0.096974,0.060078,0.114503
1343,496781850,0.234671,-0.627446,-0.381482,-0.636973,0.118276,0.055900,0.089995
1344,496815184,0.236282,-0.627682,-0.382201,-0.635713,0.113771,0.103678,0.104349
1345,496848518,0.238220,-0.627731,-0.383186,-0.634347,0.103689,0.059357,0.067558
1346,496881852,0.240302,-0.627710,-0.384326,-0.632892,0.091330,0.020886,0.124118
1347,496915186,0.242137,-0.627855,-0.385354,-0.631421,0.014300,-0.027313,0.068611
1348,496948520,0.243953,-0.628121,-0.386440,-0.629793,0.035506,0.031058,0.044580
1349,496981854,0.246033,-0.628266,-0.387695,-0.628064,0.082719,0.042635,0.126686
1350,497015188,0.248404,-0.628193,-0.389165,-0.626293,0.092262,0.040659,0.108625
1351,497048522,0.250821,-0.628163,-0.390657,-0.624428,0.108757,-0.007835,0.116847
1352,497081856,0.252948,-0.628203,-0.391984,-0.622696,0.027462,-0.044726,0.098767
1353,497115190,0.255134,-0.628203,-0.393456,-0.620872,0.051644,-0.081345,0.086346
1354,497148524,0.257171,-0.628349,-0.394858,-0.618991,0.115069,-0.077472,0.047082
1355,497181858,0.258645,-0.628776,-0.395928,-0.617258,0.024952,0.085647,0.157023
1356,497215192,0.260210,-0.629129,-0.397189,-0.615427,0.012211,0.155229,0.102299
1357,497248526,0.261896,-0.629458,-0.398486,-0.613535,0.057121,0.058999,0.094266
1358,497281860,0.263211,-0.629807,-0.399656,-0.611850,-0.007685,0.067389,0.194818
1359,497315194,0.264583,-0.630195,-0.400887,-0.610051,-0.092471,0.010355,0.055110
1360,497348528,0.265858,-0.630668,-0.402268,-0.608096,-0.056962,0.090994,0.110035
1361,497381862,0.267038,-0.631169,-0.403549,-0.606208,-0.051122,-0.045240,0.129168
1362,497415196,0.267949,-0.631785,-0.404543,-0.604499,0.116125,0.037117,0.079741
1363,497448530,0.268349,-0.632651,-0.405359,-0.602867,0.009118,0.227183,0.123055
1364,497481864,0.269234,-0.633179,-0.406520,-0.601133,0.038348,0.037018,0.118502
1365,497515198,0.270129,-0.633408,-0.407681,-0.599704,0.125363,0.063634,0.127916
1366,497548532,0.270974,-0.633721,-0.408801,-0.598228,0.036638,0.165742,0.111938
1367,497581866,0.271936,-0.633708,-0.410046,-0.596951,0.016992,0.083668,0.181798
1368,497615200,0.272883,-0.633388,-0.411263,-0.596020,0.045391,-0.009573,0.112063
1369,497648534,0.273389,-0.633184,-0.412105,-0.595423,-0.046492,0.128269,0.127442
1370,497681868,0.273934,-0.632950,-0.412946,-0.594839,-0.116852,0.101588,0.106586
1371,497715202,0.274534,-0.632517,-0.414015,-0.594279,-0.044166,-0.086087,0.058399
1372,497748536,0.275051,-0.632254,-0.415121,-0.593549,-0.026442,0.030278,0.116802
1373,497781870,0.275624,-0.631955,-0.416181,-0.592859,-0.097589,0.024786,0.163909
1374,497815204,0.275893,-0.631459,-0.416893,-0.592761,-0.024572,-0.079348,0.099772
1375,497848538,0.275842,-0.631207,-0.417604,-0.592553,0.053683,-0.095323,0.080232
1376,497881872,0.275657,-0.631059,-0.418236,-0.592351,0.008966,0.074529,0.173818
1377,497915206,0.275544,-0.630733,-0.418810,-0.592345,0.012088,-0.000152,0.100174
1378,497948540,0.275132,-0.630662,-0.419174,-0.592355,0.040636,-0.105780,0.082285
1379,497981874,0.274247,-0.630694,-0.419271,-0.592662,0.015215,0.054507,0.145821
1380,498015208,0.273601,-0.630500,-0.419569,-0.592957,0.023628,0.080360,0.107551
1381,498048542,0.273117,-0.630320,-0.420020,-0.593052,0.022790,-0.020823,0.089057
1382,498081876,0.272343,-0.630089,-0.420226,-0.593508,0.034259,0.008491,0.146748
1383,498115210,0.271455,-0.629908,-0.420322,-0.594037,0.046600,-0.048392,0.088983
1384,498148544,0.270400,-0.629739,-0.420293,-0.594718,0.063616,0.068413,0.150022
1385,498181878,0.269515,-0.629408,-0.420299,-0.595465,-0.011864,0.093495,0.107835
1386,498215212,0.268711,-0.629023,-0.420273,-0.596253,-0.033641,-0.070747,0.164985
1387,498248546,0.267499,-0.628650,-0.419964,-0.597409,-0.018601,-0.038693,0.054236
1388,498281880,0.266193,-0.628543,-0.419741,-0.598260,-0.138888,0.012235,0.129354
1389,498315214,0.265119,-0.628307,-0.419629,-0.599064,-0.163852,-0.002975,0.130427
1390,498348548,0.264369,-0.627823,-0.419641,-0.599894,-0.044317,-0.047131,0.102435
1391,498381882,0.263652,-0.627341,-0.419570,-0.600763,0.027472,-0.173978,0.069924
1392,498415216,0.262783,-0.627083,-0.419543,-0.601432,0.017146,-0.132173,0.089889
1393,498448550,0.261683,-0.626997,-0.419369,-0.602121,0.018265,-0.135047,0.110102
1394,498481884,0.260280,-0.627101,-0.418978,-0.602893,0.006037,-0.084695,0.100930
1395,498515218,0.258757,-0.627310,-0.418514,-0.603653,-0.054507,-0.033261,0.103424
1396,498548552,0.257506,-0.627359,-0.418144,-0.604393,-0.042347,-0.048107,0.083098
1397,498581886,0.256432,-0.627360,-0.417823,-0.605070,0.048962,-0.008555,0.041445
1398,498615220,0.255500,-0.627386,-0.417705,-0.605518,0.094740,0.049405,0.120345
1399,498648554,0.254676,-0.627305,-0.417596,-0.606025,0.064399,-0.067588,0.111527
1400,498681888,0.253743,-0.627391,-0.417314,-0.606520,0.117636,-0.078633,0.056664
1401,498715222,0.252584,-0.627663,-0.416896,-0.607010,0.058265,-0.001950,0.142915
1402,498748556,0.251624,-0.627730,-0.416525,-0.607595,0.043214,-0.055633,0.061975
1403,498781890,0.250893,-0.627891,-0.416420,-0.607802,0.047854,-0.089830,0.072621
1404,498815224,0.250119,-0.628057,-0.416317,-0.608021,0.016932,-0.046071,0.083004
1405,498848558,0.249485,-0.628256,-0.416190,-0.608162,0.035073,-0.048887,0.079295
1406,498881892,0.248836,-0.628567,-0.415962,-0.608263,0.129911,-0.090229,0.078779
1407,498915226,0.248125,-0.628878,-0.415630,-0.608459,0.018378,-0.050723,0.106006
1408,498948560,0.247495,-0.629176,-0.415365,-0.608588,0.003309,-0.037997,0.064807
1409,498981894,0.246863,-0.629567,-0.415161,-0.608579,0.016835,-0.037199,0.103409
1410,499015228,0.246558,-0.629847,-0.415068,-0.608477,0.060682,-0.049857,0.104888
1411,499048562,0.246565,-0.630015,-0.415112,-0.608270,0.056707,-0.079038,0.111363
1412,499081896,0.246335,-0.630373,-0.415006,-0.608064,0.047519,-0.130065,0.084465
1413,499115230,0.246041,-0.630827,-0.414734,-0.607898,0.036993,-0.069839,0.132274
1414,499148564,0.245950,-0.631032,-0.414482,-0.607894,0.031190,-0.131727,0.091064
1415,499181898,0.245932,-0.631438,-0.414328,-0.607586,0.067944,-0.101216,0.087230
1416,499215232,0.246034,-0.631739,-0.414150,-0.607352,0.046986,-0.061623,0.116808
1417,499248566,0.246285,-0.631894,-0.413984,-0.607202,0.033628,-0.105872,0.053089
1418,499281900,0.246536,-0.632275,-0.413810,-0.606823,0.013480,-0.075774,0.084466
1419,499315234,0.246755,-0.632727,-0.413648,-0.606373,-0.048358,-0.068690,0.076898
1420,499348568,0.247179,-0.633175,-0.413655,-0.605728,-0.036469,-0.047626,0.089041
1421,499381902,0.247635,-0.633758,-0.413734,-0.604877,-0.018983,-0.046396,0.043541
1422,499415236,0.248129,-0.634501,-0.413925,-0.603763,0.049388,-0.031906,0.067477
1423,499448570,0.248599,-0.635268,-0.414278,-0.602519,-0.004650,0.021459,0.136327
1424,499481904,0.249465,-0.635875,-0.414885,-0.601102,0.099379,0.005685,0.087042
1425,499515238,0.250462,-0.636314,-0.415488,-0.599806,0.251869,0.024607,0.170610
1426,499548572,0.251286,-0.636491,-0.415874,-0.599006,0.426011,0.093071,0.162743
1427,499581906,0.252167,-0.636645,-0.416281,-0.598188,0.304966,0.073571,0.123671
1428,499615240,0.253194,-0.636575,-0.416670,-0.597558,0.207914,-0.002556,0.145288
1429,499648574,0.254304,-0.636276,-0.416980,-0.597188,0.155503,0.008748,0.162562
1430,499681908,0.255405,-0.635849,-0.417124,-0.597073,0.015135,-0.032315,0.080327
1431,499715242,0.256213,-0.635582,-0.417057,-0.597057,-0.169543,0.020952,0.123998
1432,499748576,0.256546,-0.635484,-0.416578,-0.597353,-0.318360,-0.041460,0.113951
1433,499781910,0.256880,-0.635373,-0.415955,-0.597761,-0.249335,-0.032523,0.115432
1434,499815244,0.257094,-0.635227,-0.415191,-0.598356,-0.176340,0.034991,0.070590
1435,499848578,0.257318,-0.635034,-0.414465,-0.598967,-0.143691,0.026960,0.160310
1436,499881912,0.257618,-0.634565,-0.413687,-0.599872,-0.129613,0.015971,0.106917
1437,499915246,0.257305,-0.634349,-0.412523,-0.601036,-0.168579,-0.013429,0.052398
1438,499948580,0.256624,-0.634240,-0.411031,-0.602463,-0.169682,0.034885,0.046998
1439,499981914,0.255858,-0.633832,-0.409405,-0.604322,-0.193158,0.182817,0.187724
1440,500015248,0.255091,-0.633500,-0.407874,-0.606027,-0.353038,0.162116,0.073334
1441,500048582,0.254231,-0.633320,-0.406477,-0.607514,-0.291867,0.001071,0.002349
1442,500081916,0.253216,-0.633167,-0.405013,-0.609073,-0.164692,0.168232,0.090903
1443,500115250,0.252308,-0.633088,-0.403448,-0.610568,-0.209669,0.090672,0.139984
1444,500148584,0.250968,-0.633429,-0.401965,-0.611744,-0.147200,0.018482,0.084914
1445,500181918,0.249541,-0.633970,-0.400750,-0.612564,-0.060801,-0.103297,0.154029
1446,500215252,0.247790,-0.634438,-0.399399,-0.613672,0.222314,-0.151056,0.101403
1447,500248586,0.245359,-0.635415,-0.397639,-0.614779,0.309690,-0.078589,0.050462
1448,500281920,0.242074,-0.636958,-0.395347,-0.615962,0.244965,-0.027075,0.101012
1449,500315254,0.238400,-0.638627,-0.392700,-0.617358,0.155732,-0.003613,0.101167
1450,500348588,0.235045,-0.640232,-0.390210,-0.618560,0.070148,0.045437,0.064321
1451,500381922,0.232109,-0.641473,-0.387966,-0.619793,0.074428,0.038368,0.101916
1452,500415256,0.229448,-0.642440,-0.385837,-0.621110,0.041899,-0.006545,0.153442
1453,500448590,0.226946,-0.643198,-0.383715,-0.622558,0.133671,-0.093840,0.108614
1454,500481924,0.224641,-0.643853,-0.381511,-0.624070,0.151077,-0.184317,0.055845
1455,500515258,0.222304,-0.644530,-0.379150,-0.625645,0.078393,-0.200025,0.079015
1456,500548592,0.219363,-0.645369,-0.376488,-0.627423,0.002909,-0.101569,0.065413
1457,500581926,0.216497,-0.646554,-0.373997,-0.628687,-0.016794,0.094751,0.074058
1458,500615260,0.214594,-0.647725,-0.372291,-0.629146,0.029805,0.250356,0.031494
1459,500648594,0.213341,-0.648585,-0.371303,-0.629270,0.157828,0.228002,0.013466
1460,500681928,0.212795,-0.649093,-0.371127,-0.629035,0.225948,0.182334,0.079271
1461,500715262,0.212687,-0.649424,-0.371279,-0.628640,0.340825,0.033773,0.114134
1462,500748596,0.212192,-0.649860,-0.371148,-0.628434,0.462480,-0.164005,0.178146
1463,500781930,0.211321,-0.650540,-0.370726,-0.628273,0.414377,-0.080761,0.152560
1464,500815264,0.210315,-0.651436,-0.370354,-0.627901,0.372405,0.133943,0.120015
1465,500848598,0.209775,-0.651798,-0.370366,-0.627700,0.293663,0.145065,0.106457
1466,500881932,0.209523,-0.651836,-0.370744,-0.627521,0.329529,0.131556,0.019190
1467,500915266,0.209637,-0.651773,-0.371530,-0.627084,0.321074,0.099570,0.097356
1468,500948600,0.210024,-0.651683,-0.372716,-0.626343,0.245736,0.059820,0.064528
1469,500981934,0.210571,-0.651882,-0.374285,-0.625016,0.060058,0.062762,0.018847
1470,501015268,0.211028,-0.651961,-0.375842,-0.623844,-0.091970,0.131667,0.235701
1471,501048602,0.211841,-0.651449,-0.377285,-0.623231,-0.030650,-0.010887,0.121623
1472,501081936,0.212809,-0.650837,-0.378682,-0.622693,-0.119806,-0.014696,0.057874
1473,501115270,0.213892,-0.650261,-0.379983,-0.622132,-0.144419,-0.205882,0.082547
1474,501148604,0.214718,-0.649979,-0.381134,-0.621438,-0.041043,-0.213036,0.156157
