sep=,
DeviceTag:,D_Wrist
FirmwareVersion:,2.2.1
AppVersion:,2023.6.0
SyncStatus:,Synced
OutputRate:,30Hz
FilterProfile:,General
Measurement Mode:,Sensor fusion Mode - Complete(Quaternion)
StartTime: ,2026-09-07_16:40:09_676 AEST
© Movella Technologies B. V. 2005-2026

PacketCounter,SampleTimeFine,Quat_W,Quat_X,Quat_Y,Quat_Z,FreeAcc_X,FreeAcc_Y,FreeAcc_Z
1,1807207490,0.425453,0.349470,0.474001,0.687156,1.778332,-1.622488,4.099777
2,1807240824,0.447402,0.334861,0.498042,0.663064,1.223649,-1.406637,3.960217
3,1807274158,0.472976,0.310407,0.515469,0.643609,0.662600,-1.119760,2.518491
4,1807307492,0.499107,0.278123,0.525449,0.630431,-0.789981,-0.661480,0.636010
5,1807340826,0.522463,0.245018,0.531638,0.619968,-2.484206,-0.367663,-2.027441
6,1807374160,0.540080,0.215178,0.533957,0.613924,-1.570141,-0.033183,-3.903551
7,1807407494,0.550183,0.185888,0.525058,0.622140,-2.626841,-1.332169,-5.428186
8,1807440828,0.554485,0.165999,0.507161,0.638575,-0.742576,-1.490319,-7.630106
9,1807474162,0.552146,0.184581,0.514168,0.629838,-0.466648,0.133205,-7.974586
10,1807507496,0.546958,0.233613,0.535802,0.599315,-7.660027,-0.028840,-3.541172
11,1807540830,0.549334,0.275823,0.532124,0.582235,-3.267247,2.600912,-2.637956
12,1807574164,0.552771,0.311819,0.520817,0.570932,-1.418088,1.669319,-2.951741
13,1807607498,0.553781,0.347105,0.511657,0.557720,-1.334330,0.472780,0.949036
14,1807640832,0.554625,0.376644,0.501394,0.546932,1.535698,0.933704,1.302860
15,1807674166,0.554430,0.399868,0.494719,0.536626,1.636016,0.163409,2.438773
16,1807707500,0.554940,0.418769,0.490951,0.525015,0.157824,-0.552615,2.557114
17,1807740834,0.556461,0.434020,0.493829,0.508046,0.698119,-0.317261,3.576133
18,1807774168,0.560374,0.436396,0.502733,0.492747,2.129247,0.028046,5.505915
19,1807807502,0.567627,0.424041,0.513873,0.483656,2.113273,-0.643689,3.266610
20,1807840836,0.575678,0.403650,0.525253,0.479343,2.096275,-0.669375,1.464744
21,1807874170,0.584054,0.377283,0.532846,0.482301,1.615878,-0.946439,-0.406905
22,1807907504,0.589442,0.350133,0.536737,0.491811,1.533256,-1.021083,-1.931753
23,1807940838,0.589417,0.332318,0.541895,0.498501,0.198083,-0.921448,-2.503673
24,1807974172,0.586262,0.324281,0.545819,0.503209,-0.643237,-0.860457,-2.570624
25,1808007506,0.582703,0.324370,0.546042,0.507031,-1.067635,-0.624937,-2.390253
26,1808040840,0.581106,0.329889,0.540688,0.511024,-1.853178,-0.211695,-2.533660
27,1808074174,0.582181,0.341797,0.530434,0.512718,-2.311761,0.079636,-2.764603
28,1808107508,0.586347,0.358250,0.513854,0.513623,-2.385730,0.011280,-2.329070
29,1808140842,0.593136,0.376400,0.490465,0.515711,-2.294000,0.080488,-2.320721
30,1808174176,0.600251,0.395696,0.463587,0.517890,-1.137969,0.367958,-1.795299
31,1808207510,0.605465,0.419173,0.438316,0.515350,-0.780822,0.338137,-0.813118
32,1808240844,0.608348,0.444977,0.415040,0.509558,-0.542065,0.770138,0.705646
33,1808274178,0.611382,0.468195,0.392476,0.502959,-0.155874,0.904813,1.042517
34,1808307512,0.613585,0.492145,0.372298,0.492647,-0.722666,0.905347,-0.086013
35,1808340846,0.617843,0.515868,0.352737,0.477208,-2.756716,1.934260,2.588633
36,1808374180,0.632196,0.526595,0.325711,0.465766,-0.658781,1.640702,1.970648
37,1808407514,0.648200,0.534151,0.300378,0.451987,0.381155,1.453240,0.960092
38,1808440848,0.657889,0.550141,0.281690,0.430323,-0.358273,1.035481,-1.446427
39,1808474182,0.664400,0.569637,0.263850,0.405548,-1.170421,1.812623,0.491355
40,1808507516,0.675894,0.580750,0.239374,0.385483,0.338609,2.065592,-0.532084
41,1808540850,0.688915,0.585914,0.213200,0.369656,1.276814,1.475152,-1.630367
42,1808574184,0.698025,0.592519,0.186522,0.356219,0.465567,1.713982,-1.474804
43,1808607518,0.703091,0.601940,0.156188,0.344873,1.905074,0.475926,-2.484929
44,1808640852,0.709014,0.605987,0.116757,0.341242,1.691007,-0.002639,-2.191553
45,1808674186,0.717102,0.602124,0.064022,0.345129,2.757317,-0.565053,-2.484371
46,1808707520,0.714379,0.606615,0.007647,0.348746,3.731472,0.432380,0.285160
47,1808740854,0.718336,0.594054,-0.056425,0.357645,5.832447,-2.088006,3.926160
48,1808774188,0.724975,0.570876,-0.112153,0.368692,4.059784,-0.682613,3.329405
49,1808807522,0.717138,0.566699,-0.151856,0.376171,4.824486,1.189346,2.338754
50,1808840856,0.714633,0.557655,-0.181677,0.381201,4.889266,0.602246,3.284707
51,1808874190,0.714773,0.548995,-0.198278,0.385214,4.874821,1.019556,0.707624
52,1808907524,0.712102,0.549863,-0.201889,0.387043,4.746895,0.466632,0.912958
53,1808940858,0.706522,0.559119,-0.194466,0.387809,4.467675,0.644892,0.993179
54,1808974192,0.695902,0.575509,-0.179121,0.390417,3.288404,1.610580,0.653908
55,1809007526,0.681503,0.593956,-0.158384,0.397094,3.025114,0.905735,1.163031
56,1809040860,0.659742,0.619066,-0.128723,0.406114,2.059819,1.751961,0.873733
57,1809074194,0.636097,0.642960,-0.095961,0.415662,1.344209,1.559903,1.463728
58,1809107528,0.619249,0.654844,-0.064775,0.428386,1.099693,1.402525,2.664670
59,1809140862,0.613596,0.652009,-0.035600,0.443978,1.775636,1.557527,3.401196
60,1809174196,0.611839,0.642784,-0.000480,0.460957,3.903144,2.154761,2.265841
61,1809207530,0.602282,0.634829,0.048254,0.481581,3.403419,3.105253,1.135679
62,1809240864,0.583295,0.625995,0.106431,0.506528,1.413665,3.007704,0.006076
63,1809274198,0.559781,0.611407,0.164889,0.534452,-0.009585,2.129294,-0.457733
64,1809307532,0.536964,0.586894,0.216158,0.566129,-1.982086,-0.166141,1.042378
65,1809340866,0.515947,0.554538,0.258866,0.599395,0.517600,-0.765469,-1.388342
66,1809374200,0.483572,0.529080,0.310245,0.624484,-0.823616,-0.516217,0.112488
67,1809407534,0.456842,0.495893,0.354742,0.647722,-2.031727,-1.074093,1.440623
68,1809440868,0.438060,0.455025,0.386763,0.671915,-1.730909,-1.328890,0.057327
69,1809474202,0.420480,0.416541,0.414512,0.691281,-1.555726,-1.868553,-1.087139
70,1809507536,0.403889,0.382990,0.438843,0.705414,-1.682747,-1.763460,-0.413586
71,1809540870,0.388984,0.354057,0.456174,0.717802,-2.141191,-1.670694,-1.827684
72,1809574204,0.375026,0.331689,0.467692,0.728424,-2.119863,-1.451507,-2.427042
73,1809607538,0.361398,0.317748,0.477516,0.735123,-1.895142,-0.803125,-3.008437
74,1809640872,0.348734,0.309726,0.483238,0.740902,-2.146708,-0.327809,-2.174068
75,1809674206,0.337621,0.303098,0.479978,0.750843,-2.352765,1.004452,-3.045749
76,1809707540,0.330680,0.306368,0.480865,0.752037,-4.190643,0.073168,-1.225159
77,1809740874,0.333927,0.312930,0.473493,0.752577,-4.535100,-0.207666,1.208563
78,1809774208,0.344534,0.320073,0.459167,0.753668,-1.501632,0.279005,-0.530098
79,1809807542,0.355961,0.331537,0.454734,0.746051,0.058612,-1.068549,0.881091
80,1809840876,0.367025,0.341758,0.454037,0.736441,2.090062,-1.706432,2.017028
81,1809874210,0.372683,0.354818,0.466690,0.719313,1.047899,-3.725806,-0.855405
82,1809907544,0.379918,0.364406,0.478230,0.702970,1.146914,-3.432231,3.204082
83,1809940878,0.391875,0.359332,0.484409,0.694740,3.691473,-1.489513,3.000261
84,1809974212,0.400263,0.347321,0.501101,0.684146,3.070060,-1.096498,2.917173
85,1810007546,0.408465,0.329155,0.523394,0.671470,2.093814,-1.677611,4.109383
86,1810040880,0.420655,0.304435,0.541745,0.660970,2.137399,-1.526574,2.893273
87,1810074214,0.435653,0.276617,0.555788,0.651759,1.499795,-0.965814,2.226542
88,1810107548,0.450300,0.248076,0.565521,0.644883,0.295643,-0.896557,0.836274
89,1810140882,0.462102,0.220188,0.571176,0.641667,-0.918774,-0.689372,-0.651683
90,1810174216,0.470703,0.196764,0.574619,0.639950,-1.144591,-0.863540,-1.870244
91,1810207550,0.477300,0.179606,0.575180,0.639605,-1.900898,-1.137894,-3.479168
92,1810240884,0.483850,0.169292,0.569421,0.642642,-2.612754,-1.048779,-3.613375
93,1810274218,0.493206,0.165450,0.552968,0.650846,-4.342224,-1.675608,-2.873013
94,1810307552,0.509309,0.168099,0.517480,0.666755,-3.881501,0.350103,-3.826259
95,1810340886,0.533866,0.176844,0.468035,0.681658,-2.508184,0.517625,-4.834935
96,1810374220,0.561486,0.206428,0.427409,0.677822,-1.356988,0.668975,-2.917212
97,1810407554,0.586814,0.244870,0.389633,0.666239,-0.862645,0.040940,-0.804120
98,1810440888,0.606908,0.286006,0.359044,0.648807,0.852298,0.193260,-0.204445
99,1810474222,0.620214,0.320224,0.341872,0.629217,1.552973,-0.527017,1.373836
100,1810507556,0.629379,0.341071,0.336513,0.611810,2.035499,-1.043525,3.583063
101,1810540890,0.637271,0.344336,0.339904,0.599820,3.156172,-1.344997,3.417202
102,1810574224,0.640864,0.337912,0.354962,0.590856,1.839880,-1.703153,1.682155
103,1810607558,0.640937,0.327570,0.375987,0.583551,0.695994,-0.965421,1.823952
104,1810640892,0.640071,0.310729,0.396621,0.580042,0.868695,-0.577247,0.956392
105,1810674226,0.637977,0.291152,0.415540,0.579260,0.176737,-0.333748,-0.362237
106,1810707560,0.635609,0.269473,0.427054,0.583962,-1.611494,-1.071770,-1.565973
107,1810740894,0.630142,0.259215,0.437673,0.586661,-0.451057,-0.290760,-2.675237
108,1810774228,0.622431,0.264614,0.453938,0.580087,-0.817943,0.938431,-1.676179
109,1810807562,0.616547,0.275166,0.465434,0.572298,-2.145700,-0.214245,-2.667751
110,1810840896,0.613213,0.293724,0.470842,0.562141,-2.898239,-0.375601,-2.767947
111,1810874230,0.613705,0.312489,0.466501,0.555062,-2.060690,0.495415,-1.565012
112,1810907564,0.618576,0.328006,0.454964,0.550257,-2.822739,0.428715,-1.031493
113,1810940898,0.628513,0.337232,0.435841,0.548897,-2.693612,0.884938,-0.272069
114,1810974232,0.642223,0.341809,0.415306,0.546111,-2.277825,0.628970,-0.402309
115,1811007566,0.657969,0.345640,0.397901,0.537851,-1.644149,0.752944,0.126445
116,1811040900,0.674266,0.347016,0.384033,0.526748,-0.491742,1.477911,0.653019
117,1811074234,0.687267,0.353703,0.379534,0.508441,0.155820,1.055413,-0.029433
118,1811107568,0.696118,0.368590,0.382184,0.483215,-1.280318,1.417022,-0.878957
119,1811140902,0.704617,0.385015,0.381552,0.457926,-0.871071,1.647674,-0.805219
120,1811174236,0.714744,0.397984,0.374322,0.436615,-0.715405,1.791141,0.090939
121,1811207570,0.721946,0.414629,0.365512,0.416267,2.140203,-0.184454,-3.150105
122,1811240904,0.720554,0.444291,0.361562,0.390743,0.758762,0.626501,-2.173996
123,1811274238,0.716244,0.476130,0.352536,0.368799,-0.275697,0.271573,-1.181110
124,1811307572,0.714971,0.504679,0.331732,0.352236,0.499983,0.457116,-1.570276
125,1811340906,0.716770,0.526646,0.301337,0.343630,0.915587,0.341534,-1.534544
126,1811374240,0.719919,0.542690,0.261895,0.344405,0.831362,-0.182071,-3.250177
127,1811407574,0.721065,0.558041,0.212354,0.351515,0.469529,-0.811480,-5.342472
128,1811440908,0.719982,0.569303,0.150578,0.367215,2.493114,0.121320,-0.968236
129,1811474242,0.716552,0.577391,0.080834,0.382933,4.413478,1.752990,2.113900
130,1811507576,0.713363,0.576739,0.001567,0.398100,4.928444,1.216514,3.763263
131,1811540910,0.711404,0.565344,-0.075423,0.410611,5.843538,0.843752,6.750113
132,1811574244,0.714875,0.542354,-0.137576,0.419379,3.733993,0.480329,5.959417
133,1811607578,0.716034,0.523785,-0.179567,0.425089,4.058194,2.144988,4.408888
134,1811640912,0.722856,0.504243,-0.205355,0.425496,3.876214,0.808080,2.530199
135,1811674246,0.734453,0.486049,-0.217749,0.420619,3.257270,1.653186,0.868777
136,1811707580,0.751956,0.463269,-0.223889,0.412089,5.031413,-0.475855,0.917477
137,1811740914,0.760639,0.456964,-0.214857,0.407982,4.714586,-0.239072,-0.262227
138,1811774248,0.759463,0.466310,-0.194618,0.409749,2.847482,0.123603,1.034348
139,1811807582,0.754742,0.479465,-0.168956,0.414647,3.723666,-0.286716,1.376111
140,1811840916,0.743335,0.498113,-0.136643,0.425047,4.126477,0.595135,0.987966
141,1811874250,0.724626,0.521427,-0.097928,0.439820,2.639314,1.675180,1.446878
142,1811907584,0.706172,0.537237,-0.058912,0.457413,2.041468,1.494712,1.163446
143,1811940918,0.687635,0.545663,-0.020424,0.478532,2.463902,1.298763,0.601326
144,1811974252,0.665431,0.551540,0.021184,0.502549,1.482695,1.945263,0.397326
145,1812007586,0.641025,0.551980,0.063836,0.529462,1.036070,2.275037,1.002102
146,1812040920,0.615619,0.546534,0.107952,0.557369,0.530275,2.707618,1.553087
147,1812074254,0.588633,0.538274,0.153991,0.583146,-0.402048,2.821704,0.915656
148,1812107588,0.564338,0.523608,0.195767,0.607481,-1.391093,2.022622,1.427313
149,1812140922,0.544215,0.500766,0.230140,0.632534,-0.615319,1.006120,1.849583
150,1812174256,0.525845,0.473076,0.260011,0.657329,-0.552704,0.059019,0.710206
151,1812207590,0.507037,0.443583,0.288374,0.680433,0.288732,-0.806267,0.437452
152,1812240924,0.488174,0.412757,0.314540,0.701700,0.120080,-1.642168,0.524512
153,1812274258,0.472450,0.378861,0.332760,0.722860,-0.758016,-1.720948,0.190040
154,1812307592,0.456601,0.346157,0.349144,0.741478,-0.294519,-2.051450,-1.084906
155,1812340926,0.441037,0.317293,0.363815,0.756604,-2.064192,-2.073265,0.316840
156,1812374260,0.430992,0.287719,0.367403,0.772321,-2.394288,-2.253015,-0.932906
157,1812407594,0.423764,0.262653,0.365859,0.785866,-2.259252,-1.767719,-2.171730
158,1812440928,0.416547,0.242644,0.362313,0.797710,-1.480145,-1.348771,-3.173069
159,1812474262,0.407926,0.230158,0.359694,0.806997,-1.634810,-0.904082,-3.391307
160,1812507596,0.399205,0.227726,0.359954,0.811917,-2.036149,-0.485871,-2.858373
161,1812540930,0.394611,0.232928,0.357453,0.813790,-2.487643,-0.972460,-2.445903
162,1812574264,0.394833,0.238972,0.349207,0.815509,-1.953173,-0.264907,-0.735757
163,1812607598,0.399352,0.244907,0.337590,0.816438,-0.916915,-1.242707,-0.290209
164,1812640932,0.408038,0.252516,0.319640,0.817050,-0.636977,-1.561161,-0.490287
165,1812674266,0.419996,0.258207,0.301531,0.816095,0.304226,-0.991456,2.705590
166,1812707600,0.433900,0.264989,0.289699,0.810917,2.319139,-0.763133,3.032663
167,1812740934,0.449825,0.268343,0.285044,0.802745,1.288379,-1.269926,5.829933
168,1812774268,0.467619,0.259897,0.284697,0.795446,1.324214,-1.090594,6.073031
169,1812807602,0.484463,0.237514,0.287882,0.791206,2.571213,-0.961350,3.900925
170,1812840936,0.496440,0.210695,0.301037,0.786468,2.450941,-0.920200,2.345116
171,1812874270,0.504804,0.181745,0.319893,0.780903,1.094725,-1.265491,1.472775
172,1812907604,0.511441,0.142805,0.333133,0.779139,-0.218529,-2.259748,-0.185296
173,1812940938,0.515204,0.109131,0.347110,0.775996,0.668498,-3.761673,-3.668333
174,1812974272,0.517784,0.093816,0.371083,0.765111,-1.387659,-2.596266,-4.490760
175,1813007606,0.520880,0.090901,0.394130,0.751720,-1.879368,-2.568525,-5.193226
176,1813040940,0.523979,0.097530,0.411883,0.739112,-2.834638,-1.094234,-5.156160
177,1813074274,0.528767,0.114437,0.426434,0.724889,-3.468392,-0.785744,-5.336842
178,1813107608,0.536923,0.134354,0.430197,0.713158,-4.032172,2.323233,-2.031682
179,1813140942,0.550145,0.148251,0.418448,0.707293,-3.857388,1.964492,-3.198460
180,1813174276,0.568310,0.162995,0.398052,0.701435,-2.288883,1.483654,-2.725736
181,1813207610,0.588338,0.182319,0.376346,0.692085,-0.027637,1.349260,-1.689672
182,1813240944,0.605414,0.206585,0.359447,0.679408,0.207123,0.302063,-0.624331
183,1813274278,0.619327,0.231132,0.342713,0.667502,0.595123,-0.515444,-0.484777
184,1813307612,0.630159,0.253337,0.329242,0.655988,0.768817,-0.190003,1.510045
185,1813340946,0.637755,0.268183,0.320586,0.646971,1.956496,-0.599676,3.170551
186,1813374280,0.641498,0.275340,0.319295,0.640874,2.008945,-0.607146,2.496488
187,1813407614,0.639966,0.281028,0.328068,0.635482,1.791846,-0.487915,1.458973
188,1813440948,0.633413,0.290261,0.345919,0.628393,0.909541,-0.293511,0.390491
189,1813474282,0.622322,0.299100,0.367448,0.623086,-0.466893,-0.107838,-1.042378
190,1813507616,0.609485,0.306630,0.384020,0.622122,-1.298591,-0.525652,-2.505722
191,1813540950,0.598197,0.316573,0.392491,0.622810,-1.914292,0.614547,-2.004481
192,1813574284,0.590918,0.330224,0.390697,0.623798,-1.716642,0.564737,-2.289243
193,1813607618,0.585605,0.350921,0.383845,0.621759,-0.834041,0.931156,-1.061140
194,1813640952,0.582306,0.376647,0.373860,0.615862,-0.696042,0.710605,0.129578
195,1813674286,0.579900,0.401506,0.362835,0.608983,-0.667325,0.668630,1.695049
196,1813707620,0.578499,0.425675,0.353114,0.599543,-1.366669,0.307981,1.053479
197,1813740954,0.581524,0.446057,0.342136,0.588052,-2.007123,0.713226,1.597927
198,1813774288,0.590173,0.456865,0.330897,0.577475,-0.348768,0.672895,2.742095
199,1813807622,0.599061,0.465394,0.326255,0.563997,0.746505,-0.037598,1.810539
200,1813840956,0.604732,0.477224,0.330070,0.545537,0.672774,-0.110603,1.302211
201,1813874290,0.610424,0.488312,0.335441,0.525749,-0.858388,-0.211578,0.767810
202,1813907624,0.619210,0.496595,0.334303,0.508148,-1.161388,-0.051827,-0.712313
203,1813940958,0.629089,0.504237,0.328508,0.492011,-0.371807,0.404777,-0.611362
204,1813974292,0.638077,0.513632,0.320629,0.475645,-0.337248,0.444249,-0.873451
205,1814007626,0.647971,0.522163,0.307709,0.461297,-0.156409,1.086368,-0.869360
206,1814040960,0.658416,0.529058,0.290652,0.449564,1.088140,0.701431,-1.311776
207,1814074294,0.667927,0.534963,0.272052,0.440087,2.177653,0.415540,-0.737452
208,1814107628,0.676546,0.535891,0.252627,0.437363,2.047770,-0.031099,-1.110698
209,1814140962,0.676620,0.540981,0.238810,0.438742,2.917936,-0.005008,-1.285897
210,1814174296,0.662802,0.562826,0.234242,0.434802,0.726804,0.937769,-1.813222
211,1814207630,0.642431,0.594494,0.228317,0.426298,0.597185,1.512259,-0.669245
212,1814240964,0.628224,0.619234,0.209954,0.421668,1.819144,1.358556,-0.585085
213,1814274298,0.626115,0.625930,0.168820,0.433233,2.976277,-0.916657,-5.700835
214,1814307632,0.643746,0.602447,0.092942,0.462613,3.983249,-0.533590,1.701881
215,1814340966,0.655926,0.578878,0.017063,0.484119,1.217455,3.751457,2.161928
216,1814374300,0.670791,0.545246,-0.058604,0.499312,1.151438,1.361127,5.788705
217,1814407634,0.693853,0.493521,-0.134800,0.506788,1.327388,2.063747,2.996446
218,1814440968,0.709575,0.453802,-0.189083,0.504791,3.847752,-0.264178,0.773988
219,1814474302,0.711168,0.444312,-0.210400,0.502552,6.389501,-2.696378,0.593313
220,1814507636,0.702268,0.458801,-0.203836,0.504750,2.511224,-1.396403,2.551617
221,1814540970,0.699124,0.471279,-0.187126,0.504089,1.634924,-0.730251,3.719653
222,1814574304,0.701800,0.481783,-0.160472,0.499611,3.984737,-0.100283,2.851888
223,1814607638,0.702901,0.495598,-0.121238,0.495595,4.990800,0.986167,1.858968
224,1814640972,0.699020,0.510761,-0.074624,0.494899,5.277128,2.053838,-0.277404
225,1814674306,0.686362,0.527689,-0.024952,0.499828,4.587776,1.731998,-1.508599
226,1814707640,0.663848,0.545225,0.026706,0.511197,4.104721,1.847323,-1.090923
227,1814740974,0.632549,0.560461,0.080287,0.528507,3.862122,2.195603,-1.669054
228,1814774308,0.591653,0.573631,0.135801,0.549957,2.877149,2.894327,-3.096316
229,1814807642,0.541788,0.583721,0.189907,0.574170,1.393583,2.907815,-2.304119
230,1814840976,0.488194,0.586919,0.239328,0.599929,-0.804165,2.456053,1.025796
231,1814874310,0.445701,0.572891,0.271130,0.632167,-1.077546,1.412783,3.288816
232,1814907644,0.408823,0.552537,0.296031,0.663274,-1.131950,1.701014,2.856209
233,1814940978,0.372409,0.533193,0.325168,0.686500,-1.970850,0.831690,3.111864
234,1814974312,0.340608,0.510727,0.355059,0.705037,-2.548401,-0.391874,2.824226
235,1815007646,0.315360,0.483779,0.380209,0.722459,-2.468200,-1.169810,1.582399
236,1815040980,0.293617,0.455726,0.402128,0.737832,-2.395614,-1.045702,-0.236305
237,1815074314,0.273839,0.428660,0.422800,0.750002,-2.621897,-1.437089,-0.828408
238,1815107648,0.255353,0.404549,0.443173,0.758111,-2.456501,-1.243973,-1.792241
239,1815140982,0.236855,0.386628,0.465955,0.759805,-2.259309,-0.862525,-3.036391
240,1815174316,0.215534,0.378756,0.497882,0.749802,-1.851934,-1.348068,-3.371472
241,1815207650,0.194387,0.378579,0.527140,0.735537,-2.827453,-2.514130,-1.571348
242,1815240984,0.187253,0.381064,0.522647,0.739302,-2.404253,-2.295176,-0.387588
243,1815274318,0.191212,0.387948,0.499365,0.750712,-1.775531,-1.016608,0.780111
244,1815307652,0.199018,0.394393,0.478597,0.758809,-0.164896,-0.115176,0.369865
245,1815340986,0.205564,0.397997,0.468440,0.761515,0.393616,-1.215212,0.806478
246,1815374320,0.214914,0.396625,0.457449,0.766317,0.606349,-2.063706,1.393610
247,1815407654,0.227656,0.390138,0.445534,0.772958,1.322483,-1.598039,1.676742
248,1815440988,0.239625,0.380500,0.441800,0.776281,1.960949,-1.121084,1.986877
249,1815474322,0.250274,0.368219,0.450379,0.773910,2.285075,-1.196327,2.292344
250,1815507656,0.260027,0.354477,0.468767,0.766153,1.651957,-1.727301,2.016234
251,1815540990,0.272698,0.340566,0.490471,0.754380,0.958707,-2.205129,2.803863
252,1815574324,0.291484,0.323582,0.504167,0.745753,1.532515,-1.658028,3.786527
253,1815607658,0.313708,0.300110,0.506618,0.744889,1.375452,-1.328005,1.269624
254,1815640992,0.334275,0.276622,0.508018,0.744082,0.430606,-1.398858,-0.858636
255,1815674326,0.352425,0.256298,0.510434,0.741327,-0.658758,-1.405545,-1.553002
256,1815707660,0.368599,0.234794,0.505200,0.744164,-0.790357,-0.871770,-3.027753
257,1815740994,0.381046,0.216735,0.495297,0.750008,-0.637391,-0.508055,-4.913556
258,1815774328,0.388143,0.212692,0.493139,0.748947,-1.348327,-0.915704,-5.482195
259,1815807662,0.391983,0.223607,0.493844,0.743281,-2.149001,-1.237322,-5.163415
260,1815840996,0.396013,0.244966,0.487325,0.738701,-3.035175,-0.853639,-3.098366
261,1815874330,0.403944,0.267804,0.465426,0.740600,-2.434688,-0.114056,-1.321228
262,1815907664,0.414445,0.288914,0.436811,0.744285,-1.069172,0.150917,-0.364228
263,1815940998,0.424996,0.309201,0.414700,0.742831,-0.702272,-0.228568,1.452561
264,1815974332,0.435476,0.326130,0.401351,0.736829,0.377704,-0.124458,2.035772
265,1816007666,0.445649,0.337697,0.395912,0.728431,0.580235,-0.425450,2.596148
266,1816041000,0.456844,0.343498,0.394354,0.719575,0.671906,-0.687307,2.739445
267,1816074334,0.470320,0.342102,0.389570,0.714143,0.599101,-1.323750,2.947349
268,1816107668,0.486937,0.332214,0.373497,0.716258,0.552843,-1.064183,2.042659
269,1816141002,0.504078,0.315593,0.349916,0.723785,1.138450,0.273230,1.264438
270,1816174336,0.515438,0.303335,0.337439,0.726944,1.599048,0.827303,0.197639
271,1816207670,0.520352,0.301637,0.346052,0.720068,-0.010574,0.713636,-0.191848
272,1816241004,0.521799,0.307346,0.367695,0.705738,-1.299260,-0.260679,-1.134729
273,1816274338,0.523188,0.315386,0.389378,0.689340,-2.358403,-0.582915,-2.020929
274,1816307672,0.527465,0.321732,0.402676,0.675367,-2.541215,-0.413338,-2.294991
275,1816341006,0.534669,0.327330,0.405556,0.665213,-2.510579,-0.270887,-3.221196
276,1816374340,0.543912,0.335525,0.399321,0.657362,-2.195336,0.246061,-2.774916
277,1816407674,0.555374,0.344591,0.385951,0.651044,-1.037657,0.980676,-2.053924
278,1816441008,0.566380,0.352578,0.368457,0.647412,-0.990236,0.506840,-1.183971
279,1816474342,0.579535,0.354986,0.340261,0.649882,-0.945665,0.259668,-1.022162
280,1816507676,0.592157,0.359934,0.311028,0.650431,0.596822,0.451211,-0.721276
281,1816541010,0.600804,0.371578,0.289903,0.645694,1.399592,0.510957,0.236139
282,1816574344,0.604654,0.388147,0.278422,0.637351,1.093421,0.220811,0.316716
283,1816607678,0.606986,0.405583,0.270414,0.627652,0.214182,0.127240,0.986822
284,1816641012,0.611147,0.417613,0.262248,0.619133,1.035937,-0.101901,2.100803
285,1816674346,0.614793,0.427054,0.259212,0.610298,1.571664,-0.149828,2.114022
286,1816707680,0.616413,0.438491,0.263032,0.598811,0.957033,-0.454318,2.018830
287,1816741014,0.617996,0.448956,0.270171,0.586112,0.203549,-0.483252,2.085387
288,1816774348,0.621721,0.455886,0.276654,0.573667,-0.399851,-0.399550,1.130736
289,1816807682,0.626795,0.462141,0.282585,0.560089,-0.608090,-0.040244,0.378320
290,1816841016,0.632803,0.467987,0.288218,0.545417,-0.208231,0.373036,-0.225449
291,1816874350,0.637830,0.476008,0.294584,0.528970,-1.441800,0.906599,-0.895905
292,1816907684,0.644812,0.483112,0.296558,0.512712,-1.788804,1.086433,-1.716037
293,1816941018,0.654074,0.489487,0.291489,0.497618,-1.579280,1.161894,-2.348889
294,1816974352,0.665071,0.495822,0.279287,0.483570,-1.496181,1.775842,-2.855974
295,1817007686,0.677908,0.500952,0.261519,0.470208,-1.299038,2.089365,-1.489893
296,1817041020,0.690692,0.506637,0.242507,0.455472,0.386196,1.714029,-2.007234
297,1817074354,0.697812,0.519849,0.227294,0.437210,0.685124,0.997038,-1.824100
298,1817107688,0.701606,0.536578,0.211041,0.418683,-0.202564,0.592953,-1.443856
299,1817141022,0.707697,0.547433,0.187169,0.405525,0.251916,0.407655,-1.024281
300,1817174356,0.711919,0.556440,0.160233,0.397330,1.992734,-0.527166,-0.594357
301,1817207690,0.708560,0.573226,0.133083,0.389414,1.240945,0.157748,-0.472893
302,1817241024,0.703146,0.588967,0.101417,0.385251,1.241368,0.717596,0.234385
303,1817274358,0.701054,0.597119,0.062356,0.384816,2.010641,1.328633,0.395731
304,1817307692,0.708243,0.589290,0.014077,0.388499,2.525393,0.667649,0.771059
305,1817341026,0.729864,0.556330,-0.047242,0.394415,2.071684,0.692445,2.370648
306,1817374360,0.764559,0.494183,-0.116715,0.397003,3.257649,-0.342855,2.446743
307,1817407694,0.778014,0.447773,-0.174010,0.404863,6.256033,-3.008436,-1.777946
308,1817441028,0.778112,0.412927,-0.222377,0.417829,3.540339,-0.252326,4.445663
309,1817474362,0.781859,0.377691,-0.256133,0.424786,5.276371,0.548636,2.123883
310,1817507696,0.777222,0.378235,-0.261013,0.429810,4.797335,-1.101449,2.148233
311,1817541030,0.773171,0.388184,-0.249732,0.434917,2.937574,-0.528563,2.855605
312,1817574364,0.768993,0.406271,-0.223757,0.439916,4.262681,-0.611786,2.565243
313,1817607698,0.761812,0.434284,-0.182558,0.444649,5.023458,1.071340,1.689630
314,1817641032,0.749553,0.469039,-0.129472,0.448788,5.185427,2.620761,0.039443
315,1817674366,0.729932,0.505942,-0.069915,0.454239,4.539412,3.271520,-0.255990
316,1817707700,0.705043,0.537263,-0.007716,0.462820,3.657497,3.556883,-0.330769
317,1817741034,0.674404,0.562361,0.056701,0.475094,2.507558,3.256882,0.292125
318,1817774368,0.642034,0.576167,0.119634,0.491439,2.018780,3.589655,0.398954
319,1817807702,0.606352,0.581888,0.183569,0.509948,1.121349,3.524881,-0.440225
320,1817841036,0.570948,0.578231,0.242885,0.529787,-1.553069,2.074568,0.789583
321,1817874370,0.543672,0.561990,0.286949,0.553396,-1.279778,1.066216,0.487879
322,1817907704,0.522769,0.538769,0.315747,0.580297,-1.282585,-1.165620,0.992428
323,1817941038,0.507172,0.508422,0.328510,0.613486,0.258259,-0.899073,0.807590
324,1817974372,0.488086,0.476198,0.336854,0.649259,-0.738412,0.011059,0.798040
325,1818007706,0.464816,0.445885,0.346869,0.681772,-2.409086,-0.093022,-0.084849
326,1818041040,0.439810,0.417099,0.357141,0.710666,-2.586931,0.011530,-0.520559
327,1818074374,0.413778,0.390911,0.367682,0.735382,-2.708782,0.314646,-1.571588
328,1818107708,0.386304,0.369295,0.382672,0.753626,-2.685306,0.472981,-2.126482
329,1818141042,0.358515,0.352931,0.401783,0.765165,-3.057196,0.252532,-1.852643
330,1818174376,0.333420,0.340700,0.418132,0.773253,-3.617572,-0.762115,-1.335960
331,1818207710,0.313828,0.333736,0.428478,0.778806,-3.090166,-0.878570,-1.334998
332,1818241044,0.300095,0.331085,0.432417,0.783161,-2.385832,-1.061415,-1.094412
333,1818274378,0.292380,0.331525,0.429803,0.787321,-1.539761,-1.225001,-0.748079
334,1818307712,0.288962,0.334382,0.422507,0.791314,-1.019274,-1.188659,0.440656
335,1818341046,0.289148,0.335771,0.410187,0.797118,-0.047313,-1.412191,1.040908
336,1818374380,0.290104,0.337012,0.400399,0.801214,-0.002394,-3.194897,1.795247
337,1818407714,0.293891,0.333792,0.389624,0.806476,0.401379,-4.020404,3.587357
338,1818441048,0.304388,0.319430,0.377073,0.814327,0.664661,-3.016663,3.670343
339,1818474382,0.319930,0.297795,0.372455,0.818682,0.708235,-1.869808,2.486332
340,1818507716,0.337712,0.273444,0.375953,0.818437,1.484653,-0.770799,1.500591
341,1818541050,0.355151,0.249004,0.387936,0.813247,2.294201,-0.719599,1.287473
342,1818574384,0.371154,0.224249,0.403412,0.805739,2.587660,-0.680280,1.200150
343,1818607718,0.384894,0.199545,0.419136,0.797724,2.232620,-0.588262,0.742483
344,1818641052,0.396210,0.177212,0.435227,0.788791,1.746142,-0.521372,-0.844463
345,1818674386,0.404159,0.160295,0.453581,0.777962,1.077231,-1.000262,-1.892214
346,1818707720,0.409289,0.148285,0.470874,0.767315,0.195159,-0.692387,-2.100463
347,1818741054,0.412374,0.139268,0.483834,0.759247,-1.291003,-0.919680,-2.356686
348,1818774388,0.414583,0.132498,0.489966,0.755314,-3.171011,-1.806455,-2.764950
349,1818807722,0.419374,0.131515,0.488941,0.753503,-3.005948,-2.455214,-3.990375
350,1818841056,0.427540,0.139439,0.483785,0.750812,-2.845392,-1.868031,-4.032252
351,1818874390,0.438173,0.153448,0.471629,0.749683,-2.345491,-1.272719,-3.769829
352,1818907724,0.449670,0.171813,0.454761,0.749313,-1.600606,-0.234078,-3.415246
353,1818941058,0.459135,0.195897,0.439874,0.746546,-0.670110,-0.391402,-1.978503
354,1818974392,0.465342,0.227665,0.430437,0.739155,-0.146755,-0.065368,-0.814734
355,1819007726,0.468448,0.262963,0.424962,0.728570,-0.499674,-0.879548,1.516938
356,1819041060,0.469846,0.297752,0.421100,0.716424,-0.297170,-0.401180,2.472465
357,1819074394,0.473672,0.325452,0.418026,0.703541,-1.015388,-0.764596,4.820791
358,1819107728,0.482829,0.339408,0.414740,0.692581,0.030054,0.658629,5.053391
359,1819141062,0.494520,0.344009,0.419388,0.679133,1.430556,0.517306,3.661866
360,1819174396,0.505318,0.344843,0.432234,0.662503,1.437986,0.446385,2.992043
361,1819207730,0.514493,0.342980,0.447339,0.646181,0.398677,0.184804,1.279831
362,1819241064,0.521702,0.339635,0.461319,0.632187,-0.423642,0.168203,-0.410954
363,1819274398,0.527098,0.335514,0.471194,0.622554,-0.846423,0.030359,-2.179503
364,1819307732,0.530558,0.336600,0.477033,0.614531,-1.897421,-0.737419,-4.617255
365,1819341066,0.534267,0.344151,0.475837,0.608029,-2.311082,0.199496,-3.425871
366,1819374400,0.538646,0.355772,0.467200,0.604161,-1.377075,0.801644,-3.171655
367,1819407734,0.541925,0.374913,0.454536,0.599295,-1.120065,0.856974,-3.598375
368,1819441068,0.544998,0.398414,0.434811,0.595973,-0.839475,1.241244,-2.662055
369,1819474402,0.551039,0.417652,0.403961,0.598947,-0.528226,1.300123,-0.043383
370,1819507736,0.559896,0.430978,0.366723,0.605218,0.154573,0.847845,0.846265
371,1819541070,0.567032,0.443488,0.333841,0.608558,0.730324,0.045748,0.282631
372,1819574404,0.568919,0.458322,0.311357,0.607724,2.112896,0.170183,1.815739
373,1819607738,0.565252,0.474446,0.302183,0.603387,1.933923,0.103674,2.123511
374,1819641072,0.558857,0.489488,0.301030,0.597881,0.316883,-0.283517,1.605032
375,1819674406,0.555467,0.499928,0.300205,0.592795,0.193858,-0.561543,2.461001
376,1819707740,0.556128,0.505571,0.299458,0.587745,0.295133,-0.733336,2.627318
377,1819741074,0.560127,0.508056,0.299595,0.581704,0.316551,-0.548847,2.595219
378,1819774408,0.566876,0.507454,0.300713,0.575077,-0.027071,-0.485805,1.854113
379,1819807742,0.575904,0.504935,0.302564,0.567301,-0.079000,-0.338711,1.409616
380,1819841076,0.585887,0.501319,0.306456,0.558122,0.184119,-0.011263,0.645702
381,1819874410,0.594705,0.498734,0.314268,0.546649,-0.296793,0.229629,-0.175216
382,1819907744,0.602920,0.497012,0.323025,0.533968,-0.638797,0.496982,-1.242648
383,1819941078,0.610687,0.497353,0.330670,0.519961,-0.967872,0.856858,-1.991689
384,1819974412,0.618409,0.499965,0.335306,0.505149,-1.060197,0.824953,-2.858981
385,1820007746,0.627143,0.504666,0.334948,0.489708,-2.223192,0.800398,-2.464333
386,1820041080,0.638451,0.509102,0.327059,0.475634,-1.965475,0.817001,-2.910327
387,1820074414,0.648892,0.517334,0.313913,0.461263,-2.520108,1.134880,-3.518259
388,1820107748,0.659607,0.524528,0.296213,0.449496,-0.012979,1.805919,-1.164310
389,1820141082,0.665128,0.537124,0.279253,0.437174,0.538241,1.774090,-2.230665
390,1820174416,0.664050,0.558150,0.262398,0.422675,0.523136,1.748702,-1.439672
391,1820207750,0.661730,0.579483,0.240502,0.410452,1.116297,1.693731,-1.167322
392,1820241084,0.661749,0.595327,0.210215,0.404331,1.810786,1.897823,-1.355897
393,1820274418,0.654351,0.617913,0.178328,0.397755,1.144984,1.506522,-1.717477
394,1820307752,0.634967,0.651516,0.146180,0.388555,1.130299,1.619964,0.893650
395,1820341086,0.606388,0.688860,0.115987,0.379884,3.936008,-0.711754,2.060784
396,1820374420,0.594589,0.704428,0.082348,0.378768,4.453237,-3.158394,4.750301
397,1820407754,0.594771,0.706304,0.050472,0.380570,4.627726,-3.202698,2.639709
398,1820441088,0.576214,0.723091,0.035730,0.379263,6.176822,-1.729805,0.081852
399,1820474422,0.564864,0.729195,0.022991,0.385585,3.138601,0.712564,2.746064
400,1820507756,0.575196,0.716530,0.006528,0.394579,2.266195,0.551861,2.175923
401,1820541090,0.596493,0.692862,-0.006885,0.405081,2.875084,-0.634945,1.231201
402,1820574424,0.611560,0.672438,-0.009628,0.416808,3.532845,-1.142152,0.265459
403,1820607758,0.613492,0.663646,0.002688,0.428013,3.109984,-0.225391,0.711939
404,1820641092,0.608768,0.659911,0.024786,0.439666,2.663959,0.640950,0.902050
405,1820674426,0.601159,0.656735,0.052617,0.452259,2.798725,1.617052,0.778553
406,1820707760,0.589561,0.655309,0.085588,0.464395,2.057689,2.153742,0.971911
407,1820741094,0.579243,0.649831,0.119693,0.477359,2.782160,2.114114,1.285242
408,1820774428,0.568529,0.640844,0.157963,0.491062,3.211531,2.597389,0.753994
409,1820807762,0.554090,0.631343,0.200704,0.504092,2.154047,2.751547,0.846396
410,1820841096,0.530350,0.627921,0.252381,0.510634,2.868254,3.019898,-0.680711
411,1820874430,0.469425,0.655299,0.341602,0.483252,0.361290,4.006852,-1.053837
412,1820907764,0.413811,0.663743,0.427896,0.452892,-1.428083,0.976731,5.913865
413,1820941098,0.394019,0.639819,0.488156,0.443941,-1.054074,1.693415,1.855902
414,1820974432,0.392946,0.601136,0.532244,0.448270,-1.330011,1.089353,-0.305290
415,1821007766,0.396258,0.558314,0.566328,0.458845,-0.189653,-0.454379,-1.483153
416,1821041100,0.396080,0.515165,0.590534,0.478535,-0.192676,-0.582998,-1.937229
417,1821074434,0.391394,0.474208,0.603268,0.507942,-1.329779,-0.987297,-2.516502
418,1821107768,0.382318,0.438344,0.606991,0.541525,-1.683829,-1.118180,-2.036859
419,1821141102,0.371787,0.405032,0.599265,0.581897,-1.596721,-0.571598,-2.820401
420,1821174436,0.357716,0.378613,0.584083,0.622526,-1.174368,-0.604282,-3.733667
421,1821207770,0.337128,0.367664,0.573452,0.649863,-3.812571,-0.940355,-4.339128
422,1821241104,0.316000,0.368823,0.564091,0.667769,-4.507222,-2.051546,-1.424769
423,1821274438,0.300636,0.376680,0.551350,0.680987,-3.948636,-2.222424,0.566861
424,1821307772,0.293824,0.382271,0.529112,0.698267,-2.864522,-1.125197,1.325007
425,1821341106,0.290317,0.386718,0.511739,0.710133,-1.464574,-0.569586,1.561587
426,1821374440,0.286092,0.389807,0.503009,0.716369,0.200453,-1.205044,1.755333
427,1821407774,0.284132,0.388886,0.497519,0.721465,1.372574,-1.337597,2.526556
428,1821441108,0.285569,0.383597,0.496749,0.724254,2.207237,-1.588475,3.621282
429,1821474442,0.289561,0.374785,0.503043,0.722937,2.341334,-1.590651,3.849182
430,1821507776,0.298016,0.361360,0.512567,0.719639,1.827142,-1.749163,3.621031
431,1821541110,0.311538,0.343883,0.522931,0.715005,1.343349,-1.704467,3.156730
432,1821574444,0.328246,0.322840,0.532537,0.710234,0.975724,-1.850804,1.955388
433,1821607778,0.346445,0.299311,0.540329,0.705998,0.606660,-1.551812,0.837515
434,1821641112,0.364240,0.272932,0.544908,0.704211,0.462244,-1.160072,-1.881846
435,1821674446,0.381373,0.250513,0.546094,0.702552,-1.374874,-2.452601,-1.739782
436,1821707780,0.396401,0.232854,0.539839,0.705138,-1.234864,-1.557104,-1.744947
437,1821741114,0.408161,0.218696,0.528959,0.711181,-1.383461,-0.471771,-2.093564
438,1821774448,0.415857,0.215800,0.524050,0.711242,-1.409515,-0.571276,-4.110953
439,1821807782,0.420885,0.228093,0.526524,0.702568,-1.657280,-0.338104,-4.575250
440,1821841116,0.426260,0.247606,0.522569,0.695640,-2.815847,-0.401955,-3.527644
441,1821874450,0.433681,0.267287,0.505103,0.696670,-2.188141,0.964452,-2.561415
442,1821907784,0.444962,0.279305,0.469725,0.709476,-2.445145,-0.293923,-1.534622
443,1821941118,0.458389,0.287608,0.427113,0.724387,-1.051173,-0.019017,-0.446050
444,1821974452,0.468787,0.298204,0.398429,0.729772,0.837891,0.652491,2.555840
445,1822007786,0.474787,0.307381,0.382818,0.730441,1.101750,-0.632326,1.413058
446,1822041120,0.479037,0.316859,0.376054,0.727123,0.169421,-1.136731,1.809634
447,1822074454,0.483670,0.325610,0.376661,0.719839,0.883382,-0.644484,3.372141
448,1822107788,0.488027,0.331305,0.384845,0.709902,1.448938,-0.761897,3.542411
449,1822141122,0.491524,0.336850,0.400608,0.696024,0.825876,-1.089294,2.459722
450,1822174456,0.494393,0.343766,0.422790,0.677236,0.105350,-0.940613,2.666041
451,1822207790,0.498684,0.348401,0.444974,0.657214,-0.042606,-0.576358,2.431926
452,1822241124,0.505212,0.347252,0.461875,0.640974,-0.648889,0.147414,1.113055
453,1822274458,0.514333,0.340675,0.471465,0.630177,-1.735480,0.396692,-0.636286
454,1822307792,0.525279,0.332857,0.474902,0.622701,-2.180544,0.521915,-1.807305
455,1822341126,0.537731,0.324281,0.471708,0.619014,-1.879867,0.511700,-2.769585
456,1822374460,0.550616,0.315514,0.460614,0.620570,-1.399130,0.195270,-4.316206
457,1822407794,0.562127,0.311979,0.446237,0.622540,-1.239073,0.557473,-4.536346
458,1822441128,0.571516,0.316177,0.431550,0.622228,-1.407211,0.569594,-4.665874
459,1822474462,0.579276,0.325218,0.414321,0.622102,-1.071042,0.678360,-3.477669
460,1822507796,0.584428,0.337516,0.396996,0.622030,0.047715,0.844568,-2.441425
461,1822541130,0.585936,0.354652,0.382385,0.620229,-0.118239,0.482723,-0.847088
462,1822574464,0.585020,0.374850,0.369733,0.616877,0.421224,0.277176,0.557709
463,1822607798,0.581882,0.396908,0.360629,0.611412,0.898235,0.648784,2.018694
464,1822641132,0.580089,0.413199,0.350466,0.608223,0.865276,0.126121,2.080238
465,1822674466,0.579701,0.426162,0.340712,0.605185,0.127017,-0.188220,2.484981
466,1822707800,0.583530,0.432132,0.330410,0.602979,0.184980,-0.385326,3.178303
467,1822741134,0.590245,0.432296,0.322214,0.600757,0.888671,-0.795848,3.039258
468,1822774468,0.598690,0.427823,0.317149,0.598293,0.930098,-1.017118,2.958580
469,1822807802,0.606798,0.421744,0.316120,0.594976,1.004118,-1.039881,2.039801
470,1822841136,0.613491,0.416000,0.319355,0.590411,0.707569,-1.054246,1.167714
471,1822874470,0.619077,0.411323,0.325253,0.584609,-0.153752,-0.871820,0.377434
472,1822907804,0.624679,0.404896,0.330986,0.579899,0.037159,-0.558683,0.165986
473,1822941138,0.629631,0.399179,0.337589,0.574678,-0.516848,0.065299,-0.832340
474,1822974472,0.633224,0.398111,0.345791,0.566537,-0.780092,0.237824,-1.493100
475,1823007806,0.637489,0.398688,0.351756,0.557605,-1.100053,0.507700,-1.685647
476,1823041140,0.643115,0.400904,0.354098,0.547991,-1.632270,0.513873,-2.386242
477,1823074474,0.650792,0.404985,0.351963,0.537196,-1.590598,1.111197,-3.149148
478,1823107808,0.660137,0.411354,0.345072,0.525293,-1.722081,1.199282,-3.152259
479,1823141142,0.671643,0.417364,0.332797,0.513760,-1.580478,1.417235,-2.436098
480,1823174476,0.682767,0.423997,0.318343,0.502706,-0.063486,1.334544,-2.486349
481,1823207810,0.689427,0.436660,0.309258,0.488240,0.461834,1.816702,-1.756704
482,1823241144,0.689699,0.456158,0.309310,0.469641,0.698501,2.894136,-2.311600
483,1823274478,0.680637,0.481394,0.318670,0.451047,1.771936,1.957349,-2.689212
484,1823307812,0.662631,0.513457,0.331394,0.432966,-0.064586,0.669695,-1.928819
485,1823341146,0.644168,0.546966,0.333032,0.418288,-1.129637,1.159564,-0.599487
486,1823374480,0.629761,0.578960,0.319195,0.407825,-0.883225,0.489020,0.430978
487,1823407814,0.620652,0.606586,0.292015,0.401961,0.310457,0.212610,1.051620
488,1823441148,0.621823,0.620198,0.254075,0.405138,0.925817,0.067468,2.214594
489,1823474482,0.636313,0.614821,0.204273,0.418776,0.650550,-0.458852,0.933291
490,1823507816,0.650525,0.608032,0.151480,0.429149,1.291734,-0.022898,0.892252
491,1823541150,0.662052,0.603277,0.097113,0.433950,1.568900,0.050934,1.461313
492,1823574484,0.685134,0.579726,0.031360,0.439917,3.352380,-0.654915,2.676980
493,1823607818,0.715367,0.538358,-0.037229,0.443886,2.529608,-1.085867,2.504081
494,1823641152,0.733982,0.506205,-0.088237,0.444119,4.678741,-2.431068,2.781132
495,1823674486,0.727381,0.510497,-0.108508,0.445574,5.379377,-1.023121,1.420810
496,1823707820,0.722415,0.509967,-0.120589,0.451119,2.282837,1.170949,2.405084
497,1823741154,0.724265,0.501594,-0.127917,0.455501,3.669774,0.679235,1.103570
498,1823774488,0.724613,0.500639,-0.121699,0.457697,4.770646,-0.173858,1.012321
499,1823807822,0.718486,0.511993,-0.098890,0.460284,4.215410,0.133352,0.755585
500,1823841156,0.708917,0.526963,-0.065797,0.464130,3.811388,0.628482,0.929215
501,1823874490,0.698269,0.539190,-0.027086,0.470065,4.652257,0.693025,0.923253
502,1823907824,0.684237,0.548489,0.018971,0.480229,6.159670,0.866607,0.960216
503,1823941158,0.663275,0.554980,0.074442,0.496510,6.299131,2.250642,0.043333
504,1823974492,0.633563,0.559865,0.136370,0.516288,3.331629,4.186431,-0.254767
505,1824007826,0.602516,0.556732,0.194120,0.537904,1.773215,4.513414,0.279159
506,1824041160,0.572729,0.544011,0.245295,0.562018,0.414814,4.406810,0.972052
507,1824074494,0.544736,0.523426,0.287141,0.588931,-1.061544,4.091370,0.355341
508,1824107828,0.515291,0.500531,0.322380,0.616454,-2.395293,2.871156,-0.014500
509,1824141162,0.486090,0.476528,0.350931,0.643029,-2.873058,1.979440,-0.207582
510,1824174496,0.457964,0.452076,0.372088,0.668915,-3.509686,0.547686,-0.432313
511,1824207830,0.432240,0.428640,0.382277,0.695199,-5.054695,-0.388947,-0.610822
512,1824241164,0.410070,0.407417,0.379593,0.722332,-4.742291,-0.216876,-2.154376
513,1824274498,0.385844,0.392566,0.377655,0.744576,-3.153549,0.218993,-1.870190
514,1824307832,0.357740,0.382913,0.385721,0.759355,-2.685999,0.358842,-0.824480
515,1824341166,0.329487,0.371505,0.397849,0.771452,-2.029294,-0.367981,-0.509963
516,1824374500,0.303535,0.358859,0.409403,0.781969,-2.229693,-1.878190,-1.377151
517,1824407834,0.280571,0.347204,0.421544,0.789322,-2.191264,-2.180646,1.099946
518,1824441168,0.261743,0.336798,0.430765,0.795298,-1.296448,-1.434085,0.521294
519,1824474502,0.246983,0.331235,0.440315,0.797123,-0.905986,-1.983749,0.758865
520,1824507836,0.240728,0.326655,0.439035,0.801620,-0.301548,-1.521664,1.222016
521,1824541170,0.240941,0.322729,0.429704,0.808175,-0.106028,-2.253350,0.899131
522,1824574504,0.243662,0.318003,0.421165,0.813710,1.116797,-1.029840,2.239907
523,1824607838,0.245846,0.307185,0.416166,0.819758,2.027706,-1.479669,1.614972
524,1824641172,0.248128,0.292222,0.417115,0.824048,1.775990,-1.644716,1.605092
525,1824674506,0.250333,0.275482,0.423572,0.825851,1.783193,-1.497710,1.046902
526,1824707840,0.253475,0.258616,0.434033,0.824915,1.693538,-1.726836,1.187820
527,1824741174,0.258060,0.241549,0.448610,0.820858,1.790053,-1.700645,0.992738
528,1824774508,0.263287,0.225295,0.466379,0.813888,1.399370,-1.915453,0.523520
529,1824807842,0.269777,0.211213,0.484372,0.804981,1.238651,-1.959063,0.521582
530,1824841176,0.276329,0.198470,0.501496,0.795458,0.428794,-0.989354,-0.410129
531,1824874510,0.281493,0.186926,0.515597,0.787389,-0.050158,-1.112066,-1.609360
532,1824907844,0.285364,0.179366,0.522635,0.783102,-0.694974,-1.261557,-1.600064
533,1824941178,0.288846,0.177940,0.521912,0.782633,-1.588750,-0.323278,-2.384749
534,1824974512,0.293415,0.184746,0.523893,0.778018,-2.947907,0.516524,-2.961542
535,1825007846,0.300695,0.200518,0.526516,0.769517,-3.442286,-1.365540,-2.043234
536,1825041180,0.314470,0.219416,0.516419,0.765688,-3.712812,-1.406764,-0.480609
537,1825074514,0.335916,0.234518,0.484339,0.773032,-2.904064,-1.374624,-0.936747
538,1825107848,0.361457,0.248331,0.441936,0.782543,-1.783972,-1.757380,-1.305913
539,1825141182,0.387827,0.264102,0.394892,0.789874,-0.081956,-0.081846,0.525492
540,1825174516,0.411182,0.272509,0.349015,0.796779,1.807205,0.039865,1.438685
541,1825207850,0.429056,0.274749,0.310508,0.802501,1.587503,0.169357,-0.046504
542,1825241184,0.441465,0.275218,0.287593,0.804149,1.504502,0.717789,1.173038
543,1825274518,0.448157,0.270606,0.280024,0.804683,1.885648,0.861581,1.529687
544,1825307852,0.448726,0.261196,0.289013,0.804297,1.194659,0.259464,0.308727
545,1825341186,0.444019,0.254365,0.311652,0.800637,-0.031575,-0.695665,-1.384900
546,1825374520,0.435755,0.254089,0.343297,0.792278,-0.988999,-0.551440,-1.970837
547,1825407854,0.425050,0.261852,0.381850,0.777790,-1.236532,-0.609863,-2.691633
548,1825441188,0.412736,0.280253,0.426579,0.754412,-2.316612,-0.971850,-3.004515
549,1825474522,0.402765,0.304422,0.466931,0.726005,-4.033542,-1.423257,-0.890785
550,1825507856,0.402772,0.323529,0.480717,0.708530,-3.796920,-0.963737,0.458117
551,1825541190,0.413831,0.337930,0.466497,0.704932,-2.692779,-0.190376,0.053509
552,1825574524,0.432820,0.353096,0.439096,0.703694,-1.714101,0.691872,0.607785
553,1825607858,0.455588,0.366847,0.407068,0.701540,-0.644352,0.503478,0.918846
554,1825641192,0.478158,0.378427,0.375181,0.698138,-0.216776,0.185723,1.352634
555,1825674526,0.498532,0.386345,0.348873,0.693175,0.893420,0.499992,1.816278
556,1825707860,0.515459,0.389298,0.331679,0.687560,1.104977,0.420454,1.231590
557,1825741194,0.529823,0.389285,0.322934,0.680778,0.610857,0.124433,1.202114
558,1825774528,0.542302,0.387712,0.320251,0.673073,0.611005,-0.309791,0.290445
559,1825807862,0.551967,0.389082,0.323610,0.662740,-0.025265,-0.198483,-0.428302
560,1825841196,0.557818,0.396219,0.334555,0.648014,0.365891,-0.059011,-0.845787
561,1825874530,0.558290,0.410326,0.354942,0.627663,-0.556377,-0.799845,-0.432589
562,1825907864,0.562874,0.416246,0.364332,0.614145,-1.125312,-1.063944,0.000957
563,1825941198,0.570814,0.415462,0.360352,0.609680,-1.570640,-0.965426,-0.480152
564,1825974532,0.580576,0.411114,0.344230,0.612717,0.241857,-0.010082,-1.418878
565,1826007866,0.585869,0.410477,0.326768,0.617648,1.053319,0.016887,-2.170087
566,1826041200,0.585285,0.419828,0.311579,0.619762,-1.220194,0.250569,-1.664270
567,1826074534,0.581239,0.438508,0.296329,0.618112,0.304812,0.920251,-2.397560
568,1826107868,0.570236,0.466030,0.287483,0.612373,-0.502941,1.311005,-0.305860
569,1826141202,0.556288,0.494457,0.284314,0.604337,-0.338872,1.227211,-1.473113
570,1826174536,0.545170,0.520461,0.279925,0.594602,-2.925821,0.960071,0.790281
571,1826207870,0.548740,0.534299,0.264317,0.586128,-2.723261,0.882331,1.886389
572,1826241204,0.560511,0.542514,0.246186,0.575239,-0.869116,0.418910,0.618720
573,1826274538,0.572963,0.551278,0.232386,0.560181,-0.685156,0.087402,0.678597
574,1826307872,0.584215,0.561803,0.220369,0.542686,-1.397431,0.160713,1.095048
575,1826341206,0.598584,0.569202,0.203448,0.525657,-1.313991,1.040816,0.552152
576,1826374540,0.616590,0.572092,0.182839,0.509016,-0.326634,1.331358,0.417372
577,1826407874,0.633986,0.574511,0.161543,0.491837,-0.109099,1.671743,-1.870813
578,1826441208,0.650166,0.576823,0.139558,0.474429,-0.423150,1.908443,0.975231
579,1826474542,0.672906,0.568561,0.115978,0.458786,3.141263,0.653335,1.006594
580,1826507876,0.684102,0.573898,0.104426,0.437882,1.312583,0.922471,-1.071692
581,1826541210,0.682489,0.593441,0.099844,0.414811,0.692954,0.592765,-1.198194
582,1826574544,0.670198,0.621833,0.098106,0.393109,0.735330,0.414999,-1.355668
583,1826607878,0.655669,0.648046,0.093486,0.376025,1.276085,0.064449,-0.563653
584,1826641212,0.643067,0.669021,0.084626,0.362925,1.766387,0.261441,0.001291
585,1826674546,0.634847,0.683444,0.068785,0.353754,2.561056,0.143420,0.728537
586,1826707880,0.641921,0.679701,0.038465,0.352797,3.264298,-0.345610,0.016245
587,1826741214,0.651009,0.669987,0.001613,0.356794,4.462938,-1.315829,-0.024271
588,1826774548,0.662765,0.653066,-0.039235,0.364292,1.315108,1.299759,2.529692
589,1826807882,0.689368,0.618546,-0.086454,0.367014,1.781154,1.456523,3.177281
590,1826841216,0.717070,0.579621,-0.125252,0.366281,3.863088,0.500568,1.054335
591,1826874550,0.730285,0.556986,-0.144602,0.368158,4.826293,-1.557006,-0.257339
592,1826907884,0.732676,0.548788,-0.147650,0.374455,4.119635,-1.195710,0.220007
593,1826941218,0.729603,0.548649,-0.140490,0.383310,3.786356,-1.367393,0.622534
594,1826974552,0.722170,0.553836,-0.124555,0.395250,3.539835,-1.439651,1.445910
595,1827007886,0.710570,0.562487,-0.098662,0.411053,3.276591,-0.708477,1.832891
596,1827041220,0.697047,0.571324,-0.065502,0.428280,2.328618,0.259220,1.444747
597,1827074554,0.681194,0.579751,-0.027543,0.446213,2.064031,0.694276,1.316000
598,1827107888,0.663230,0.587785,0.015806,0.463018,2.016832,1.435410,0.582936
599,1827141222,0.642173,0.596184,0.061937,0.477852,1.004143,1.817954,-0.085201
600,1827174556,0.622240,0.599266,0.104900,0.492641,0.805481,1.935204,0.658077
601,1827207890,0.606225,0.593196,0.141597,0.510451,-0.047430,2.011615,0.709356
602,1827241224,0.596097,0.577818,0.170949,0.530633,-0.829314,1.181798,2.941854
603,1827274558,0.586917,0.561462,0.199593,0.548135,-0.924163,0.404350,0.373174
604,1827307892,0.580707,0.543070,0.224359,0.563487,-1.281093,1.036431,0.551056
605,1827341226,0.579641,0.518270,0.245832,0.578774,-0.394217,1.050515,0.530830
606,1827374560,0.573700,0.498118,0.271727,0.590688,0.700568,0.450105,-0.248612
607,1827407894,0.563366,0.481654,0.300005,0.600521,0.306270,1.495739,-0.582869
608,1827441228,0.553555,0.463384,0.323145,0.611906,0.017813,2.348816,-1.462795
609,1827474562,0.545079,0.443877,0.340107,0.624652,-0.381717,2.376335,-2.281450
610,1827507896,0.536053,0.425186,0.350370,0.639613,-1.075684,2.203687,-2.967278
611,1827541230,0.530489,0.400254,0.347730,0.661409,-3.357771,1.120436,0.222437
612,1827574564,0.531790,0.359434,0.322345,0.695773,-2.482423,1.425579,-0.728044
613,1827607898,0.527556,0.328952,0.302086,0.722647,-0.688099,0.429942,-4.235994
614,1827641232,0.515384,0.319768,0.299438,0.736521,-2.130334,-0.074410,-2.914600
615,1827674566,0.506574,0.311197,0.286809,0.751186,-3.231163,-0.718525,-1.747092
616,1827707900,0.501899,0.300073,0.263022,0.767381,-1.462563,-0.527455,-1.081255
617,1827741234,0.498151,0.292821,0.241813,0.779505,-0.357032,-0.554117,0.487606
618,1827774568,0.492700,0.291168,0.231827,0.786590,0.584627,-0.160658,2.472788
619,1827807902,0.486702,0.290448,0.234420,0.789816,0.817723,-0.814119,3.777979
620,1827841236,0.480094,0.288062,0.247400,0.790774,1.669932,-0.639863,4.238445
621,1827874570,0.473178,0.282360,0.269720,0.789700,1.486319,-0.944714,3.694216
622,1827907904,0.466851,0.273033,0.298473,0.786395,1.375036,-1.108805,3.556167
623,1827941238,0.461139,0.261053,0.331564,0.780556,1.023944,-1.478560,2.277645
624,1827974572,0.455756,0.247145,0.364441,0.773556,0.501087,-1.616818,0.905287
625,1828007906,0.450447,0.232762,0.395654,0.765754,-0.233594,-1.633829,-0.076946
626,1828041240,0.445402,0.217894,0.419626,0.760298,-0.600950,-1.594085,-1.672846
627,1828074574,0.440368,0.201864,0.433496,0.759874,-0.766107,-1.451121,-2.547857
628,1828107908,0.434756,0.187482,0.432671,0.767225,-0.468733,-2.351757,-4.342827
629,1828141242,0.430339,0.187535,0.426250,0.773272,-2.187911,-3.635899,-4.291957
630,1828174576,0.430173,0.195126,0.395694,0.787593,-3.448303,-3.661866,-2.242326
631,1828207910,0.434604,0.198170,0.334335,0.812446,-1.690511,-0.457449,-0.623006
632,1828241244,0.440189,0.202543,0.278434,0.829268,-1.474876,0.032507,1.956726
633,1828274578,0.444553,0.207262,0.244841,0.836342,-0.734917,-0.337093,0.968066
634,1828307912,0.448697,0.209027,0.228353,0.838352,-1.542292,-1.557037,-0.051583
635,1828341246,0.456231,0.206041,0.218669,0.837606,-1.039629,-0.926335,0.100208
636,1828374580,0.465084,0.201901,0.220951,0.833135,-0.007876,-0.932439,0.256122
637,1828407914,0.471373,0.197892,0.235272,0.826616,0.675596,-1.245822,-0.064805
638,1828441248,0.474268,0.197444,0.257937,0.818263,0.075546,-0.807219,-0.751116
639,1828474582,0.475029,0.204093,0.286013,0.806778,-0.661363,-0.842181,-2.119740
640,1828507916,0.474979,0.219437,0.317930,0.790672,-1.428883,-0.806777,-1.604095
641,1828541250,0.476463,0.240918,0.348596,0.770339,-2.281293,-0.877641,-1.583212
642,1828574584,0.481801,0.260648,0.364671,0.752958,-2.778926,-0.434775,-0.899153
643,1828607918,0.494179,0.273154,0.360349,0.742511,-2.505018,0.400106,-0.383144
644,1828641252,0.511762,0.279668,0.341155,0.737224,-2.397407,-0.114918,-1.236517
645,1828674586,0.533700,0.281237,0.309756,0.734930,-2.985501,-0.478230,-0.406999
646,1828707920,0.560281,0.276138,0.263584,0.735090,-2.810480,-0.017441,0.461117
647,1828741254,0.586930,0.268773,0.218711,0.731738,1.165324,1.032754,1.142717
648,1828774588,0.607262,0.271769,0.195240,0.720594,1.295295,0.392431,1.311578
649,1828807922,0.620933,0.282052,0.188763,0.706582,1.289209,0.259752,1.042733
650,1828841256,0.627678,0.300212,0.198289,0.690344,1.749214,-0.200372,1.181441
651,1828874590,0.628020,0.325164,0.219715,0.672001,-0.252265,-0.724475,1.778795
652,1828907924,0.627002,0.344302,0.240466,0.656126,1.234959,-0.295367,1.145937
653,1828941258,0.623392,0.367020,0.269687,0.635569,0.355112,0.091848,1.115533
654,1828974592,0.620631,0.387273,0.297602,0.613409,-0.261268,0.367942,0.735757
655,1829007926,0.620336,0.399633,0.315553,0.596577,0.205055,0.461846,-0.240629
656,1829041260,0.622981,0.405304,0.323145,0.585834,0.400650,0.363416,-2.151712
657,1829074594,0.628760,0.401119,0.317974,0.585369,0.656152,0.589270,-1.863579
658,1829107928,0.634549,0.390780,0.302264,0.594370,1.387827,0.038655,-3.792371
659,1829141262,0.631835,0.395087,0.291294,0.599866,0.633564,0.453061,-1.622595
660,1829174596,0.626874,0.406299,0.281118,0.602431,0.699974,0.563038,0.242324
661,1829207930,0.613788,0.434925,0.281488,0.595709,-1.327639,0.179871,-0.117625
662,1829241264,0.598301,0.469010,0.282126,0.585209,-3.370330,0.965341,-1.713274
663,1829274598,0.597222,0.485026,0.263457,0.581950,-6.124901,1.650494,1.285236
664,1829307932,0.613026,0.482229,0.232784,0.580919,-1.907642,1.307972,0.342743
665,1829341266,0.624613,0.487576,0.216098,0.570465,0.494068,1.193529,-0.691571
666,1829374600,0.630303,0.503943,0.211670,0.551322,-1.250105,0.777406,0.827607
667,1829407934,0.640306,0.515494,0.202813,0.532111,-0.932139,1.495811,0.642355
668,1829441268,0.655982,0.521556,0.187744,0.512268,-1.731337,2.522859,-0.242994
669,1829474602,0.673275,0.527260,0.168824,0.490098,-0.152964,1.838290,-0.296178
670,1829507936,0.691299,0.528515,0.147422,0.470154,2.215550,1.406730,-0.476809
671,1829541270,0.702537,0.535397,0.131345,0.450044,1.267538,1.103260,-0.739361
672,1829574604,0.707409,0.548565,0.116551,0.430191,1.479979,0.914949,-0.731356
673,1829607938,0.708885,0.562382,0.101168,0.413489,1.693102,0.947552,-0.448372
674,1829641272,0.710437,0.571727,0.083438,0.401805,2.056138,-0.003502,-0.977373
675,1829674606,0.712213,0.576108,0.064678,0.395814,3.219552,-0.126335,-0.973033
676,1829707940,0.713217,0.576906,0.044507,0.395628,2.237065,-0.571937,-0.390282
677,1829741274,0.700097,0.595315,0.027626,0.393321,1.042440,-0.291266,-0.996810
678,1829774608,0.674756,0.626946,0.009808,0.389290,2.187263,-1.070284,0.356021
679,1829807942,0.668082,0.632180,-0.026451,0.391555,2.132694,-1.826521,3.563178
680,1829841276,0.688129,0.602467,-0.079298,0.396515,2.104961,-1.025055,2.382334
681,1829874610,0.705112,0.575163,-0.122504,0.396230,3.001488,-0.990298,2.482017
682,1829907944,0.710929,0.561947,-0.145886,0.396879,3.536426,-0.641293,2.049184
683,1829941278,0.708895,0.559979,-0.154030,0.400207,3.479186,0.675412,0.715113
684,1829974612,0.701436,0.566512,-0.152105,0.404864,3.847875,0.386479,0.097307
685,1830007946,0.687894,0.580763,-0.140889,0.411905,3.247823,-0.085186,0.582693
686,1830041280,0.669194,0.599645,-0.121264,0.421783,2.704826,-0.018632,1.417190
687,1830074614,0.648982,0.618981,-0.094588,0.432131,2.216701,0.492448,1.444452
688,1830107948,0.629524,0.637006,-0.062069,0.440534,2.280852,0.803250,0.877862
689,1830141282,0.611672,0.652265,-0.025589,0.446938,1.757250,1.170406,1.103873
690,1830174616,0.597038,0.662170,0.011362,0.452710,1.659282,1.470474,1.011856
691,1830207950,0.584610,0.667047,0.047842,0.459336,1.692859,1.344204,0.802244
692,1830241284,0.573302,0.667895,0.085053,0.466912,1.801709,1.485192,0.671157
693,1830274618,0.564470,0.663522,0.121603,0.475737,1.813091,1.981598,0.235036
694,1830307952,0.556899,0.655262,0.157340,0.485529,2.012536,2.192814,0.147442
695,1830341286,0.548513,0.643648,0.193642,0.497347,2.618701,2.509806,-0.512907
696,1830374620,0.534940,0.631497,0.232062,0.511075,2.095689,2.799587,-0.724345
697,1830407954,0.516944,0.619277,0.270879,0.525251,0.603980,2.322531,-0.150190
698,1830441288,0.499383,0.602990,0.304357,0.542574,0.373997,1.272884,0.067972
699,1830474622,0.482070,0.582345,0.332719,0.563720,0.354903,0.810930,0.345136
700,1830507956,0.462013,0.560359,0.360819,0.585108,-0.345863,0.421677,0.531742
701,1830541290,0.440468,0.536777,0.387882,0.606141,-1.430216,-0.334983,0.428884
702,1830574624,0.418416,0.511298,0.413122,0.626764,-2.188691,-0.572819,0.400681
703,1830607958,0.397018,0.484994,0.437077,0.645074,-2.857722,-0.509174,-0.055798
704,1830641292,0.376073,0.460883,0.462549,0.657423,-3.488786,-0.738572,-0.596911
705,1830674626,0.358121,0.438771,0.486062,0.665562,-4.057330,-1.310499,-0.697856
706,1830707960,0.345197,0.420071,0.504172,0.670962,-4.107368,-1.768149,-1.430728
707,1830741294,0.337107,0.407672,0.515558,0.674064,-4.761513,-2.705450,-2.410704
708,1830774628,0.336402,0.405870,0.514399,0.676386,-5.048860,-3.150179,-1.739849
709,1830807962,0.346773,0.413547,0.489937,0.684609,-3.568509,-1.755175,-1.941173
710,1830841296,0.363561,0.427738,0.451492,0.693555,-0.776042,0.769120,-1.346722
711,1830874630,0.379047,0.441430,0.415252,0.699306,1.383143,0.095746,1.316771
712,1830907964,0.389171,0.448762,0.389116,0.704094,2.225119,-1.089352,1.775343
713,1830941298,0.392354,0.453065,0.378172,0.705533,1.395359,-2.340630,0.419558
714,1830974632,0.392572,0.456348,0.378731,0.702992,0.171151,-2.361825,1.992716
715,1831007966,0.397347,0.452036,0.382649,0.700969,1.496817,-2.201827,3.321589
716,1831041300,0.402451,0.442164,0.396581,0.696597,2.206468,-2.036601,2.776983
717,1831074634,0.405407,0.430522,0.421371,0.687563,1.564444,-1.872106,1.982705
718,1831107968,0.407469,0.419125,0.453063,0.673080,0.369577,-1.806353,1.727929
719,1831141302,0.411984,0.406469,0.483916,0.656413,-0.380423,-1.898974,0.925049
720,1831174636,0.419216,0.391493,0.509035,0.641775,-1.200520,-1.607647,-0.188898
721,1831207970,0.427810,0.375716,0.525947,0.631820,-2.149499,-1.687156,-2.205675
722,1831241304,0.436227,0.364899,0.534008,0.625612,-3.049172,-1.859783,-3.974440
723,1831274638,0.444774,0.362248,0.530342,0.624251,-2.998562,-1.798489,-5.332981
724,1831307972,0.452514,0.370190,0.519211,0.623386,-2.753740,-0.149445,-4.444949
725,1831341306,0.459361,0.387888,0.502689,0.621156,-2.591318,0.636796,-3.361669
726,1831374640,0.465614,0.413583,0.482223,0.616129,-2.564219,0.571979,-1.390773
727,1831407974,0.474062,0.439194,0.455948,0.611953,-1.685741,0.306864,0.233712
728,1831441308,0.484127,0.460511,0.427218,0.609128,-0.134845,0.289172,1.494896
729,1831474642,0.494781,0.476590,0.402610,0.604945,0.036797,-0.484879,2.320658
730,1831507976,0.503989,0.489532,0.387011,0.597140,0.266429,-0.949430,2.551745
731,1831541310,0.512890,0.497399,0.379213,0.587993,0.624173,-1.145332,2.985955
732,1831574644,0.522056,0.500164,0.376823,0.579049,-0.117318,-1.336237,2.488522
733,1831607978,0.532002,0.499190,0.378208,0.569861,-0.145569,-1.231848,2.325006
734,1831641312,0.542006,0.494292,0.382351,0.561883,-0.160722,-0.891200,1.752734
735,1831674646,0.550937,0.486854,0.388760,0.555255,-0.226664,-0.233926,0.246725
736,1831707980,0.556045,0.482719,0.398853,0.546547,-0.627090,-0.083765,-0.732546
737,1831741314,0.558087,0.482194,0.409595,0.536898,-0.776808,0.214258,-1.319377
738,1831774648,0.560659,0.481037,0.415473,0.530704,-1.632351,0.483820,-1.797393
739,1831807982,0.564990,0.478884,0.413561,0.529551,-1.213410,0.360117,-1.983414
740,1831841316,0.570068,0.476808,0.405521,0.532192,-0.495923,0.828211,-1.756478
741,1831874650,0.575446,0.476962,0.391111,0.537030,-0.651404,0.267247,-2.282484
742,1831907984,0.579149,0.484220,0.373703,0.538947,-1.530283,0.798824,-2.240394
743,1831941318,0.584877,0.491679,0.351619,0.540865,-1.930372,1.400389,-0.768620
744,1831974652,0.596324,0.494725,0.325998,0.541637,-2.656040,1.826512,-0.547282
745,1832007986,0.612684,0.494653,0.300964,0.537919,-1.478279,2.235337,-0.975975
746,1832041320,0.626985,0.498803,0.285117,0.526111,-0.616871,1.496971,-1.290718
747,1832074654,0.636254,0.508682,0.278173,0.508963,-0.696684,1.784762,-1.189939
748,1832107988,0.636824,0.527574,0.278855,0.488221,0.642847,1.382210,-2.243677
749,1832141322,0.630931,0.554117,0.282038,0.464042,-0.592781,1.269018,-0.072124
750,1832174656,0.628776,0.575567,0.278296,0.442622,-0.414708,1.622468,-0.374162
751,1832207990,0.631693,0.589982,0.265567,0.427035,-0.729536,1.516703,-0.981893
752,1832241324,0.634237,0.603847,0.248669,0.413855,-0.128573,1.875766,-2.594634
753,1832274658,0.630568,0.622331,0.231405,0.401920,0.843636,0.743684,-3.373659
754,1832307992,0.618205,0.644098,0.215113,0.395837,3.185806,-1.278358,0.586348
755,1832341326,0.597398,0.670813,0.199169,0.391737,1.953915,-0.377265,0.808801
756,1832374660,0.577349,0.693375,0.172784,0.395026,3.004245,-0.931088,-1.499224
757,1832407994,0.575458,0.694036,0.123459,0.414632,2.849346,-1.382587,0.732571
758,1832441328,0.591905,0.671885,0.048113,0.442610,6.135687,-0.666686,2.074093
759,1832474662,0.601962,0.647144,-0.019134,0.467419,4.031597,0.482774,4.426085
760,1832507996,0.612893,0.621876,-0.069493,0.482498,2.610834,1.400507,4.413900
761,1832541330,0.626052,0.600285,-0.102318,0.487081,3.195734,1.996185,2.024723
762,1832574664,0.631534,0.594245,-0.112347,0.485196,3.703591,1.341967,1.237919
763,1832607998,0.630167,0.600779,-0.105228,0.480501,3.543000,1.070639,0.650618
764,1832641332,0.627627,0.608772,-0.090978,0.476659,4.200702,1.160916,-0.135923
765,1832674666,0.620433,0.620693,-0.068334,0.474482,4.326012,1.570400,-0.699505
766,1832708000,0.603559,0.640612,-0.034164,0.473461,3.420143,2.518999,-0.714240
767,1832741334,0.578314,0.664449,0.006958,0.473300,2.595805,2.500826,0.167608
768,1832774668,0.549485,0.685054,0.050223,0.475651,2.521911,2.463779,0.871173
769,1832808002,0.516774,0.701949,0.097024,0.480415,1.576738,2.308345,2.456011
770,1832841336,0.480963,0.718389,0.154136,0.478366,2.495208,2.078934,6.817629
771,1832874670,0.455707,0.722199,0.217412,0.472750,2.159414,2.461694,6.810419
772,1832908004,0.446809,0.703568,0.271045,0.481549,2.757118,2.663641,1.596382
773,1832941338,0.438387,0.673556,0.319771,0.501883,0.077373,0.912197,1.271394
774,1832974672,0.431055,0.633747,0.360842,0.531366,-1.296936,-0.247681,-0.708279
775,1833008006,0.417971,0.592606,0.398315,0.561661,-0.972224,-0.703113,-1.979434
776,1833041340,0.398304,0.553031,0.434831,0.588585,-0.870619,-0.555819,-0.820259
777,1833074674,0.379075,0.508769,0.463943,0.618234,-1.707123,-1.009518,0.032200
778,1833108008,0.359379,0.465074,0.487033,0.646027,-2.690475,-1.688206,-0.389892
779,1833141342,0.339223,0.427408,0.510976,0.664194,-2.658276,-1.530667,-0.454116
780,1833174676,0.321865,0.391555,0.529580,0.680171,-2.119984,-1.981524,-0.729052
781,1833208010,0.306856,0.359145,0.537996,0.698150,-1.946188,-2.295323,-1.871592
782,1833241344,0.292798,0.335395,0.541841,0.712873,-2.787022,-2.299804,-2.257279
783,1833274678,0.280463,0.323524,0.542525,0.722731,-2.600421,-2.326193,-2.765856
784,1833308012,0.272677,0.324605,0.541866,0.725714,-3.733610,-2.487290,-0.416297
785,1833341346,0.277242,0.331001,0.521290,0.736092,-3.281860,-2.321907,1.093704
786,1833374680,0.293209,0.338812,0.481367,0.753339,-2.114679,-1.128000,0.735791
787,1833408014,0.312458,0.349728,0.443552,0.763756,-0.987743,-1.157400,1.946397
788,1833441348,0.334766,0.354907,0.401271,0.775213,-0.983703,-1.956779,1.778943
789,1833474682,0.361927,0.350076,0.357686,0.786458,1.903697,0.606584,3.320853
790,1833508016,0.383139,0.338207,0.338367,0.790144,3.326392,0.921267,3.263002
791,1833541350,0.398605,0.319315,0.338682,0.790219,1.782180,-0.595364,2.594561
792,1833574684,0.411655,0.294160,0.348940,0.788829,0.972337,-1.105931,1.706298
793,1833608018,0.423752,0.265585,0.366431,0.784619,0.440837,-1.441666,0.778397
794,1833641352,0.435495,0.235962,0.386410,0.778044,0.022981,-1.657014,-0.049015
795,1833674686,0.446982,0.207063,0.402293,0.771682,-0.519213,-2.342970,-1.560594
796,1833708020,0.458330,0.180513,0.405450,0.770039,-1.316925,-2.285051,-2.992660
797,1833741354,0.468040,0.154884,0.392718,0.776352,-1.209121,-2.000267,-4.065436
798,1833774688,0.475110,0.139702,0.377618,0.782406,-1.263807,-1.076936,-4.819055
799,1833808022,0.481393,0.141711,0.373323,0.780262,-1.935390,0.121574,-4.481611
800,1833841356,0.487741,0.157164,0.376116,0.771975,-1.800936,0.403664,-4.290072
801,1833874690,0.494976,0.178471,0.377199,0.762147,-2.766485,-0.022135,-2.222563
802,1833908024,0.503147,0.196648,0.367881,0.756859,-0.849304,0.006898,-1.452566
803,1833941358,0.510737,0.215432,0.360483,0.750192,-0.405818,-0.210916,-0.296998
804,1833974692,0.517283,0.231166,0.354286,0.743951,-0.997702,-1.398368,-0.375465
805,1834008026,0.525842,0.238963,0.342557,0.740974,-1.310511,-1.577049,0.878249
806,1834041360,0.536371,0.239403,0.329756,0.739090,0.511275,-0.911686,1.956586
807,1834074694,0.544285,0.237682,0.329109,0.734131,1.662794,-0.395196,1.037406
808,1834108028,0.547259,0.238843,0.345435,0.723972,0.446971,-0.562775,-0.188581
809,1834141362,0.546388,0.243308,0.372334,0.709668,-0.671263,-0.788248,-1.456828
810,1834174696,0.543567,0.252078,0.402850,0.691885,-1.652048,-0.887806,-2.342896
811,1834208030,0.539721,0.263875,0.429763,0.674073,-1.933362,-0.501719,-2.663578
812,1834241364,0.534797,0.279843,0.450404,0.657888,-2.173046,-0.555065,-2.984056
813,1834274698,0.530073,0.302755,0.462219,0.643208,-2.498808,-0.347317,-2.340308
814,1834308032,0.528686,0.327366,0.456709,0.636192,-2.898816,-0.179375,-1.262030
815,1834341366,0.530297,0.353234,0.436242,0.635377,-1.690933,0.867468,-0.495653
816,1834374700,0.533570,0.378794,0.408050,0.636642,-0.153136,2.064283,0.969761
817,1834408034,0.536898,0.403907,0.380650,0.635379,0.468983,1.506785,2.372541
818,1834441368,0.538886,0.428031,0.360466,0.629647,1.093334,1.104397,1.889681
819,1834474702,0.539837,0.449055,0.349098,0.620529,0.438549,-0.000856,3.356294
820,1834508036,0.546119,0.459482,0.337940,0.613536,0.593427,-0.442397,5.299367
821,1834541370,0.556544,0.459793,0.330275,0.608085,1.971241,-0.625339,4.493925
822,1834574704,0.565542,0.456430,0.332600,0.601009,1.739715,-0.074196,3.125401
823,1834608038,0.574267,0.448886,0.339870,0.594313,0.769319,0.308233,1.263415
824,1834641372,0.582861,0.440521,0.347488,0.587764,-0.384565,-0.212047,-0.752106
825,1834674706,0.590492,0.434456,0.352679,0.581537,-0.351132,0.025335,-2.189703
826,1834708040,0.596715,0.431150,0.354970,0.576227,-0.643241,-0.339177,-3.681121
827,1834741374,0.600561,0.434556,0.353705,0.570421,-1.123101,-0.128837,-4.715544
828,1834774708,0.601324,0.446297,0.349481,0.563108,-1.333910,0.382868,-4.126674
829,1834808042,0.600451,0.462820,0.339394,0.556838,-1.612064,0.205668,-3.556889
830,1834841376,0.598886,0.482907,0.323000,0.551187,-1.521994,0.507415,-2.846554
831,1834874710,0.596570,0.505191,0.303429,0.544809,-1.374646,0.779701,-1.181931
832,1834908044,0.593322,0.527158,0.283477,0.538251,-0.989778,1.496555,0.389315
833,1834941378,0.589482,0.547923,0.265657,0.530772,-1.367331,1.775656,0.843961
834,1834974712,0.587963,0.566954,0.248290,0.520782,-1.672324,2.297033,1.092358
835,1835008046,0.590524,0.582800,0.233808,0.506911,-0.063796,2.667475,3.099168
836,1835041380,0.592902,0.599190,0.227268,0.487635,0.816589,1.941205,2.063706
837,1835074714,0.592702,0.617521,0.225813,0.465167,0.924846,1.176301,1.275421
838,1835108048,0.595397,0.629716,0.219385,0.448141,0.120854,0.901234,-0.408227
839,1835141382,0.601582,0.637277,0.202019,0.437226,1.508019,0.206262,-1.203897
840,1835174716,0.609558,0.641426,0.174835,0.431793,1.951019,0.234438,-1.762731
841,1835208050,0.617597,0.642650,0.134961,0.432853,1.414410,-0.613955,-1.843553
842,1835241384,0.635234,0.629891,0.073679,0.440779,3.060701,-1.136445,3.100815
843,1835274718,0.663805,0.596843,-0.005028,0.450685,3.176576,-0.783507,2.823282
844,1835308052,0.689537,0.558534,-0.075308,0.454871,4.332187,-0.009796,2.738610
845,1835341386,0.703015,0.531747,-0.114289,0.458206,5.637787,-0.935505,3.095576
846,1835374720,0.702739,0.528688,-0.121752,0.460242,3.597416,1.755800,1.504543
847,1835408054,0.699579,0.536610,-0.114104,0.457843,3.165165,1.850492,0.854530
848,1835441388,0.698829,0.542645,-0.100262,0.455107,4.517840,1.145163,-0.054931
849,1835474722,0.693581,0.552772,-0.075543,0.455721,4.302478,1.176780,-0.333123
850,1835508056,0.681167,0.568901,-0.040558,0.459040,3.584292,1.513779,-0.554117
851,1835541390,0.664346,0.585580,-0.001617,0.464476,3.418152,1.615003,-0.083360
852,1835574724,0.645381,0.596960,0.036754,0.475155,2.613548,1.302137,-0.171148
853,1835608058,0.626776,0.598318,0.068128,0.494496,2.088713,0.431376,0.019786
854,1835641392,0.607217,0.589862,0.091573,0.524371,2.800517,-0.894970,0.585034
855,1835674726,0.579930,0.579250,0.114907,0.561201,2.813508,0.838273,0.263691
856,1835708060,0.540575,0.575479,0.147237,0.595755,1.009102,2.485351,0.880076
857,1835741394,0.499650,0.569787,0.182192,0.626497,-0.914361,2.645598,2.653957
858,1835774728,0.466118,0.555228,0.212002,0.655371,-1.492727,2.663123,2.020245
859,1835808062,0.436203,0.537954,0.242418,0.679387,-1.137910,2.544372,1.508912
860,1835841396,0.407432,0.520120,0.277148,0.697613,-1.163122,1.847447,1.978579
861,1835874730,0.382504,0.498190,0.309677,0.713861,-1.761437,0.929405,1.159388
862,1835908064,0.360918,0.473796,0.337858,0.728772,-1.801187,0.332740,0.701320
863,1835941398,0.340815,0.449302,0.365204,0.740675,-1.582979,0.304826,0.138649
864,1835974732,0.320168,0.426185,0.394628,0.748417,-1.679987,-0.271668,-0.223577
865,1836008066,0.299210,0.404640,0.425032,0.752388,-1.634485,-0.094290,-1.470087
866,1836041400,0.278658,0.385679,0.456823,0.751607,-2.604038,-1.041762,-1.566545
867,1836074734,0.262408,0.368943,0.482016,0.750123,-2.788430,-1.830338,-1.761314
868,1836108068,0.252546,0.356347,0.495415,0.750867,-2.957687,-2.099837,-1.584955
869,1836141402,0.251949,0.349065,0.490297,0.757815,-2.596757,-2.387462,-1.224333
870,1836174736,0.257833,0.348313,0.473203,0.766993,-2.104507,-2.774261,-0.724130
871,1836208070,0.267487,0.350944,0.452054,0.775201,-0.715300,-2.738884,0.086815
872,1836241404,0.277721,0.350400,0.431804,0.783350,1.710954,-1.498194,1.436467
873,1836274738,0.284845,0.343578,0.419688,0.790367,1.935768,-1.967697,0.440109
874,1836308072,0.291169,0.331768,0.409301,0.798513,0.479964,-2.409019,0.534258
875,1836341406,0.298913,0.316678,0.401260,0.805827,1.147384,-1.660368,1.624072
876,1836374740,0.303213,0.300147,0.406164,0.808087,1.824851,-0.426019,1.355564
877,1836408074,0.302339,0.286227,0.429686,0.801271,1.075311,-0.697688,0.926590
878,1836441408,0.299640,0.276528,0.468826,0.783550,-0.640458,-1.261177,0.580721
879,1836474742,0.298759,0.268482,0.512457,0.758979,-1.657638,-1.974376,0.131473
880,1836508076,0.302436,0.260623,0.545824,0.736672,-2.141778,-2.531389,-1.080493
881,1836541410,0.311124,0.258405,0.560140,0.722960,-4.149316,-4.963709,-2.936625
882,1836574744,0.326660,0.262255,0.545475,0.725929,-2.726639,-0.075115,-3.033495
883,1836608078,0.347368,0.268323,0.508620,0.740705,-2.171754,0.202521,-3.826403
884,1836641412,0.367181,0.286056,0.473982,0.747456,-1.674693,-1.316822,-2.624381
885,1836674746,0.383207,0.309751,0.448175,0.745886,0.066624,-1.464087,-0.959609
886,1836708080,0.394913,0.331396,0.425696,0.743642,0.400284,-2.780970,1.328759
887,1836741414,0.410635,0.341962,0.401197,0.743963,-2.236234,-3.643489,2.154803
888,1836774748,0.432936,0.341152,0.375136,0.745289,-2.647744,-2.231250,3.069460
889,1836808082,0.452479,0.339679,0.367754,0.737996,2.423309,0.405259,1.519546
890,1836841416,0.463344,0.343400,0.385619,0.720199,2.217587,0.111528,0.555529
891,1836874750,0.466288,0.351664,0.418547,0.695505,-0.889308,-0.189763,1.019817
892,1836908084,0.465843,0.358637,0.451160,0.671436,-0.972586,0.482726,-0.311698
893,1836941418,0.464809,0.362992,0.477517,0.651282,-1.682265,1.108609,-0.913388
894,1836974752,0.466500,0.369603,0.493398,0.634295,-3.326543,0.588012,-2.344760
895,1837008086,0.474235,0.380477,0.492034,0.623090,-2.821079,1.266145,-2.260541
896,1837041420,0.492313,0.388910,0.463611,0.625653,-2.840930,0.445288,-2.341531
897,1837074754,0.516359,0.401216,0.418299,0.630416,-3.211894,0.840963,-0.062617
898,1837108088,0.545429,0.409036,0.365007,0.634009,-1.435630,1.633716,2.601932
899,1837141422,0.570498,0.406884,0.320350,0.637459,2.278698,0.333035,-0.271708
900,1837174756,0.587099,0.409687,0.293548,0.633483,2.331536,-0.136519,-1.098673
901,1837208090,0.598651,0.417395,0.288321,0.619895,2.019208,-0.149661,3.652916
902,1837241424,0.607454,0.415577,0.295332,0.609159,2.158920,-0.838462,1.956467
903,1837274758,0.610524,0.413862,0.312501,0.598600,1.170706,-0.374225,0.131315
904,1837308092,0.610688,0.415877,0.334162,0.585186,0.484469,1.215638,-0.012935
905,1837341426,0.613295,0.413404,0.352810,0.573142,-0.564440,1.860600,-2.400297
906,1837374760,0.615895,0.410491,0.367981,0.562816,-1.336937,1.681894,-4.165812
907,1837408094,0.611832,0.423827,0.391763,0.540882,-1.210558,1.347090,-4.846828
908,1837441428,0.608332,0.442507,0.409556,0.516124,-2.517970,0.489007,-3.657560
909,1837474762,0.610771,0.458383,0.409539,0.499121,-1.616166,-0.077670,-3.326359
910,1837508096,0.612224,0.479584,0.400955,0.484166,-0.694911,0.151353,-3.189258
911,1837541430,0.603197,0.516258,0.394363,0.462719,-1.180116,0.317496,-2.855677
912,1837574764,0.570337,0.577096,0.403328,0.423087,-2.180500,1.768701,-1.450268
913,1837608098,0.535158,0.629831,0.404199,0.391845,-1.251525,1.536961,2.962138
914,1837641432,0.518703,0.661898,0.384914,0.380368,-0.823887,1.239066,2.142732
915,1837674766,0.514976,0.684901,0.351779,0.376777,0.724980,1.019514,1.125918
916,1837708100,0.524685,0.697580,0.301897,0.383335,3.033265,0.264786,1.381320
917,1837741434,0.541838,0.702050,0.243508,0.392736,2.034654,0.574326,1.661750
918,1837774768,0.559427,0.701918,0.181249,0.401872,3.030529,0.256174,-0.201470
919,1837808102,0.593339,0.677482,0.102119,0.422539,4.401626,-1.453330,2.819772
920,1837841436,0.651383,0.611029,0.002280,0.449821,3.009400,0.523293,3.720808
921,1837874770,0.700562,0.533220,-0.090342,0.465541,4.833488,1.150860,1.717556
922,1837908104,0.723742,0.484693,-0.147222,0.468610,6.546448,1.663523,3.847598
923,1837941438,0.734627,0.456968,-0.170810,0.471516,7.572721,1.568996,-0.239061
924,1837974772,0.729695,0.465147,-0.160589,0.474758,5.137014,1.127118,0.517758
925,1838008106,0.718165,0.487039,-0.130905,0.479475,4.852275,0.779568,0.634068
926,1838041440,0.700902,0.513180,-0.090597,0.487006,3.710927,1.787074,0.777897
927,1838074774,0.679307,0.538079,-0.045946,0.496892,3.454972,1.981835,0.989366
928,1838108108,0.655159,0.557611,0.001697,0.509738,3.217981,2.571152,0.412170
929,1838141442,0.629718,0.570015,0.049608,0.525430,2.737904,2.904742,0.236985
930,1838174776,0.604939,0.573706,0.095670,0.543836,2.747441,3.287101,0.781380
931,1838208110,0.581557,0.568040,0.137453,0.565887,2.023552,3.381214,0.537313
932,1838241444,0.555779,0.557373,0.176606,0.590979,1.443765,3.611124,-0.434610
933,1838274778,0.521177,0.547417,0.216849,0.617807,-0.137053,3.166320,0.113875
934,1838308112,0.481594,0.535184,0.255656,0.645202,-1.205824,1.792249,0.554172
935,1838341446,0.440084,0.520176,0.291991,0.671181,-1.809135,0.965062,0.815477
936,1838374780,0.401046,0.499609,0.323193,0.696490,-2.235219,-0.854133,1.413401
937,1838408114,0.365916,0.474515,0.348881,0.720571,-1.790330,-1.222401,1.861939
938,1838441448,0.337120,0.446328,0.368152,0.742702,-2.957530,-2.617417,2.127110
939,1838474782,0.313236,0.413612,0.380414,0.765568,-1.797063,-0.923740,0.220656
940,1838508116,0.291343,0.385011,0.399566,0.779252,-2.591958,-2.262504,0.565086
941,1838541450,0.273761,0.357713,0.417228,0.789315,-2.514199,-2.391320,-0.068677
942,1838574784,0.260456,0.333862,0.431549,0.796533,-2.652453,-2.988036,-0.710011
943,1838608118,0.253934,0.314618,0.438979,0.802391,-2.761492,-2.299584,-1.112262
944,1838641452,0.253608,0.302102,0.436939,0.808394,-3.077974,-2.264637,-0.953608
945,1838674786,0.258285,0.298389,0.428534,0.812780,-0.978364,0.574527,-1.589855
946,1838708120,0.263454,0.305339,0.427799,0.808918,-1.673863,-1.707815,-2.332398
947,1838741454,0.273622,0.316249,0.416378,0.807309,-2.487799,-3.211983,-0.392069
948,1838774788,0.286711,0.326168,0.399515,0.807341,-0.318448,-1.603972,-0.717591
949,1838808122,0.298239,0.333901,0.389431,0.804927,0.868850,-1.594851,0.598525
950,1838841456,0.309049,0.334038,0.386488,0.802206,1.266030,-1.458929,2.324690
951,1838874790,0.319682,0.326616,0.391510,0.798652,1.115237,-2.023357,2.075483
952,1838908124,0.330307,0.314492,0.405979,0.791943,1.317810,-2.467764,2.846157
953,1838941458,0.341446,0.296875,0.426407,0.783235,1.122217,-1.866353,2.208771
954,1838974792,0.352924,0.277534,0.451383,0.771151,0.404109,-2.071167,0.845860
955,1839008126,0.364920,0.258102,0.476291,0.757208,-0.447921,-1.489574,-0.525042
956,1839041460,0.376241,0.239759,0.499144,0.742841,-0.992963,-1.097581,-1.607341
957,1839074794,0.385668,0.221775,0.512806,0.734238,-1.495635,-0.854165,-3.168684
958,1839108128,0.393235,0.212637,0.522170,0.726285,-2.098518,-1.663232,-5.143579
959,1839141462,0.400873,0.220913,0.531961,0.712402,-3.035785,-2.326942,-5.711246
960,1839174796,0.411680,0.241397,0.529259,0.701521,-3.367226,-2.306508,-4.075761
961,1839208130,0.427035,0.267281,0.505028,0.700820,-2.493061,-0.615969,-2.161041
962,1839241464,0.445058,0.291560,0.465645,0.707171,-0.537414,0.907935,-0.546323
963,1839274798,0.460519,0.318164,0.430412,0.708124,-0.692569,0.171644,1.567579
964,1839308132,0.475769,0.336996,0.399204,0.707612,1.054001,0.555338,3.108464
965,1839341466,0.486505,0.350450,0.383113,0.702654,1.314119,-0.351336,1.666909
966,1839374800,0.493912,0.361433,0.382661,0.692090,1.126154,-0.247343,3.152992
967,1839408134,0.499690,0.365353,0.390733,0.681289,1.579460,-0.272583,2.795331
968,1839441468,0.502954,0.365583,0.404403,0.670705,0.998361,-0.444197,0.871581
969,1839474802,0.503004,0.368334,0.422824,0.657676,0.305685,-0.032731,0.050514
970,1839508136,0.500024,0.372705,0.443713,0.643573,-0.476478,0.530505,-0.577765
971,1839541470,0.495774,0.377382,0.463701,0.629898,-1.722253,0.604756,-0.645448
972,1839574804,0.493340,0.381441,0.477658,0.618839,-1.637612,0.863093,-1.256646
973,1839608138,0.492609,0.386740,0.487301,0.608528,-2.021343,0.960317,-1.440413
974,1839641472,0.494880,0.394213,0.490164,0.599525,-2.571633,0.805412,-1.973721
975,1839674806,0.501335,0.405432,0.482811,0.592606,-2.721727,-0.200417,-3.288217
976,1839708140,0.514547,0.417766,0.456987,0.593191,-2.219506,0.492788,-1.059600
977,1839741474,0.534191,0.428544,0.416734,0.597765,0.837505,2.365541,0.548380
978,1839774808,0.547914,0.445792,0.381441,0.596291,1.260573,0.197548,0.634847
979,1839808142,0.559923,0.460569,0.349923,0.593226,1.111373,-0.750091,3.765785
980,1839841476,0.570847,0.468317,0.326598,0.590040,0.736091,-1.586811,2.533831
981,1839874810,0.579032,0.471190,0.315450,0.585828,0.825276,-1.607113,1.276850
982,1839908144,0.582568,0.474114,0.317353,0.578894,-0.122224,-1.418786,0.353790
983,1839941478,0.585218,0.475778,0.325713,0.570146,-0.471471,-1.213732,0.590714
984,1839974812,0.588958,0.473691,0.335408,0.562358,0.150229,-1.010328,-0.411294
985,1840008146,0.588582,0.475790,0.349286,0.552444,-0.364991,-0.507627,-1.297399
986,1840041480,0.585395,0.483251,0.363793,0.539847,-0.850666,0.154894,-1.385455
987,1840074814,0.582675,0.492152,0.375399,0.526642,-0.566576,0.400984,-0.901155
988,1840108148,0.582605,0.498641,0.380600,0.516791,-0.937937,0.745175,-1.425866
989,1840141482,0.586573,0.503752,0.379161,0.508334,-1.525632,0.755276,-0.529610
990,1840174816,0.593495,0.507168,0.371641,0.502422,-0.674773,1.232581,-2.009959
991,1840208150,0.595788,0.516347,0.369436,0.491874,-1.152791,2.339876,-1.937776
992,1840241484,0.589709,0.536840,0.376432,0.471535,-1.490384,1.983788,-1.086589
993,1840274818,0.582035,0.559268,0.382878,0.449287,-1.320421,2.777498,-0.848709
994,1840308152,0.581707,0.576062,0.377937,0.432359,-1.411323,1.919078,-1.921544
995,1840341486,0.588824,0.586108,0.360777,0.423797,0.461190,1.596186,-1.492598
996,1840374820,0.597193,0.595047,0.334951,0.420818,-0.070402,0.809863,-2.371130
997,1840408154,0.600455,0.612010,0.302339,0.416520,0.805117,0.760405,-1.552445
998,1840441488,0.599327,0.631270,0.263586,0.415725,1.883080,0.393450,-0.957427
999,1840474822,0.592939,0.650979,0.221458,0.419055,2.041554,0.669999,0.638756
1000,1840508156,0.580102,0.673131,0.181333,0.421301,1.556007,0.507829,2.802707
1001,1840541490,0.565242,0.692035,0.144253,0.425183,2.572391,0.297028,3.281546
1002,1840574824,0.565076,0.696120,0.097915,0.431878,2.602883,-0.271138,3.619145
1003,1840608158,0.595306,0.670439,0.030230,0.441824,3.475029,-0.519036,2.315063
1004,1840641492,0.636395,0.626522,-0.038790,0.448293,4.793187,-2.029154,3.419633
1005,1840674826,0.653607,0.604289,-0.074774,0.449490,5.660246,-1.747631,-0.161086
1006,1840708160,0.639608,0.617038,-0.077836,0.451783,3.746714,0.425957,1.111808
1007,1840741494,0.636218,0.617731,-0.080301,0.455178,2.359900,1.202648,1.417006
1008,1840774828,0.641741,0.611160,-0.081111,0.456151,3.011527,1.390099,0.746329
1009,1840808162,0.647080,0.606037,-0.074924,0.456501,4.046935,0.501502,0.570701
1010,1840841496,0.646610,0.607492,-0.058266,0.457661,4.186496,0.856718,0.611474
1011,1840874830,0.639838,0.614158,-0.033514,0.460754,3.760035,1.438983,0.348551
1012,1840908164,0.626624,0.624365,-0.000981,0.466379,3.153000,1.856838,0.564156
1013,1840941498,0.605032,0.638841,0.039562,0.473555,1.876947,2.430393,0.184590
1014,1840974832,0.579953,0.650399,0.082793,0.483509,1.130120,2.140172,0.950420
1015,1841008166,0.557685,0.652650,0.123982,0.497658,0.541880,1.905846,1.435028
1016,1841041500,0.541470,0.644420,0.161630,0.515179,0.646014,2.008084,0.744431
1017,1841074834,0.524538,0.632942,0.200549,0.532939,0.678321,2.148241,0.095054
1018,1841108168,0.503200,0.621227,0.243748,0.549048,0.331042,1.951310,0.610156
1019,1841141502,0.481675,0.605460,0.287814,0.564420,0.015175,2.100523,0.679909
1020,1841174836,0.459381,0.586206,0.331151,0.579370,-0.314364,1.754314,0.480925
1021,1841208170,0.437837,0.562168,0.371110,0.595436,-0.375023,1.390300,0.521067
1022,1841241504,0.414663,0.536279,0.408718,0.611072,-0.851826,0.394551,0.218342
1023,1841274838,0.392145,0.507662,0.442286,0.626806,-0.744297,0.083729,0.239833
1024,1841308172,0.372497,0.476039,0.469021,0.643935,-1.025666,-0.543386,0.324684
1025,1841341506,0.354285,0.444041,0.490159,0.661101,-0.919330,-0.856456,-0.366026
1026,1841374840,0.335061,0.413142,0.509637,0.676253,-0.848353,-0.737440,-0.160402
1027,1841408174,0.315607,0.383433,0.528453,0.688556,-1.646201,-1.136493,-0.411061
1028,1841441508,0.298239,0.354440,0.542767,0.700592,-1.419072,-0.810358,-0.897869
1029,1841474842,0.281903,0.325222,0.548863,0.716597,-1.602706,-1.020923,-2.436885
1030,1841508176,0.262294,0.304651,0.559017,0.725182,-2.420877,-2.326148,-3.198295
1031,1841541510,0.242357,0.293723,0.573924,0.724984,-2.713520,-2.524381,-2.138659
1032,1841574844,0.225798,0.288212,0.580458,0.727336,-3.185244,-3.072160,-1.597112
1033,1841608178,0.215832,0.287618,0.573674,0.735928,-3.180251,-3.277651,-1.945671
1034,1841641512,0.210663,0.293625,0.561271,0.744568,-1.792763,-1.166498,-1.522890
1035,1841674846,0.208135,0.301843,0.544755,0.754197,-0.607260,-1.082159,0.318108
1036,1841708180,0.207337,0.309574,0.528339,0.762911,0.333944,-1.276756,1.592856
1037,1841741514,0.207052,0.314074,0.514798,0.770370,0.952850,-1.040269,2.716432
1038,1841774848,0.209072,0.309987,0.502614,0.779472,1.086467,-0.812742,4.750222
1039,1841808182,0.214566,0.296745,0.496907,0.786758,0.323604,-1.730197,3.661283
1040,1841841516,0.223018,0.280091,0.498500,0.789500,0.630763,-1.584918,2.766053
1041,1841874850,0.235335,0.260779,0.505480,0.788100,0.917448,-1.177759,1.958019
1042,1841908184,0.248168,0.239471,0.517027,0.783422,1.232869,-0.556201,0.594195
1043,1841941518,0.258033,0.219744,0.533312,0.775055,1.227869,-0.504650,-0.824684
1044,1841974852,0.264435,0.204351,0.553974,0.762514,0.843249,-1.018636,-1.744602
1045,1842008186,0.268194,0.194147,0.574725,0.748378,-0.408978,-2.098795,-2.735363
1046,1842041520,0.271101,0.187724,0.583805,0.741913,-0.886911,-2.347889,-1.866858
1047,1842074854,0.273747,0.184585,0.579995,0.744713,-1.435509,-1.955696,-2.684476
1048,1842108188,0.276431,0.189984,0.573989,0.747013,-2.054367,-2.120677,-2.763493
1049,1842141522,0.281204,0.203711,0.566587,0.747265,-2.015649,-0.255774,-1.573995
1050,1842174856,0.289871,0.218856,0.547207,0.754084,-2.252364,-1.382431,-1.470025
1051,1842208190,0.302248,0.238129,0.521255,0.761731,-1.973047,-1.622805,-0.470246
1052,1842241524,0.316077,0.261520,0.496780,0.764795,-1.093867,-0.901386,-0.759170
1053,1842274858,0.328306,0.284983,0.475327,0.764895,-0.505850,-1.869842,0.758425
1054,1842308192,0.341771,0.301885,0.454874,0.764950,-0.295049,-1.313715,0.918434
1055,1842341526,0.355962,0.311072,0.439180,0.763967,0.959725,-0.237686,0.785029
1056,1842374860,0.363128,0.318421,0.440737,0.756635,3.242006,0.378941,-0.405685
1057,1842408194,0.360138,0.334197,0.468681,0.734133,1.765421,-0.668141,0.247702
1058,1842441528,0.352316,0.353364,0.511684,0.699419,-0.962490,-0.687280,2.554153
1059,1842474862,0.349958,0.365280,0.547294,0.666760,-1.735849,-1.125710,2.764967
1060,1842508196,0.352456,0.371144,0.572960,0.640113,-1.132649,-0.688480,1.198797
1061,1842541530,0.357096,0.372708,0.588572,0.622218,-0.813475,0.135123,-0.515025
1062,1842574864,0.360965,0.371338,0.592329,0.617218,-0.392870,0.468100,-1.876063
1063,1842608198,0.362628,0.370485,0.585139,0.623581,0.369453,0.701355,-4.292270
1064,1842641532,0.362935,0.380163,0.575862,0.626209,-3.975091,0.089653,-0.960101
1065,1842674866,0.372729,0.394206,0.546118,0.638302,-1.923367,-0.301316,-2.864497
1066,1842708200,0.389715,0.412561,0.504185,0.650933,-5.012814,0.587611,-0.334258
1067,1842741534,0.410634,0.428561,0.456195,0.663025,-0.598894,0.993292,-3.304697
1068,1842774868,0.427922,0.442371,0.414953,0.670078,-0.079065,1.193581,-0.724186
1069,1842808202,0.441469,0.454323,0.386390,0.670371,1.914126,1.532213,-0.328349
1070,1842841536,0.449498,0.464543,0.370784,0.666837,1.592639,1.208235,1.419985
1071,1842874870,0.453882,0.476243,0.367406,0.657416,-0.259176,0.322747,2.836587
1072,1842908204,0.461762,0.487073,0.367594,0.643747,-0.198183,-0.333711,3.957151
1073,1842941538,0.475070,0.491695,0.366467,0.631068,0.903642,-0.758006,3.070176
1074,1842974872,0.489819,0.493325,0.367399,0.617840,0.471946,-1.137643,2.639968
1075,1843008206,0.505127,0.493736,0.371494,0.602548,0.221645,-0.656118,1.685110
1076,1843041540,0.519144,0.493475,0.379436,0.585662,0.827215,-0.212905,0.997355
1077,1843074874,0.529214,0.495096,0.393394,0.565734,0.751063,0.236762,-0.210507
1078,1843108208,0.535216,0.499917,0.410427,0.543302,-0.155294,0.255488,-0.863668
1079,1843141542,0.541233,0.504496,0.422011,0.523887,-0.407459,0.584192,-1.647859
1080,1843174876,0.547257,0.509310,0.426305,0.509291,-0.577490,0.997930,-3.612010
1081,1843208210,0.550755,0.517985,0.424537,0.498126,-1.652065,1.201494,-4.132181
1082,1843241544,0.553484,0.532173,0.413302,0.489519,-1.917653,1.539271,-4.306474
1083,1843274878,0.556575,0.551110,0.392397,0.482211,-2.450674,2.152766,-3.704251
1084,1843308212,0.562129,0.571599,0.361181,0.476271,-2.603428,2.548670,-2.540757
1085,1843341546,0.575429,0.587032,0.317360,0.472819,-5.672563,4.036842,-1.020630
1086,1843374880,0.599425,0.590959,0.262526,0.471738,-0.560316,3.307578,0.304543
1087,1843408214,0.610923,0.603024,0.230343,0.458342,5.194329,4.152811,3.801691
1088,1843441548,0.614803,0.621349,0.210780,0.437624,-0.396439,1.534124,1.007352
1089,1843474882,0.616442,0.641910,0.185285,0.416678,2.572376,-0.491888,0.841814
1090,1843508216,0.626906,0.647903,0.146419,0.407151,3.856455,-1.644846,-0.543179
1091,1843541550,0.644436,0.638897,0.096008,0.409017,3.699215,-1.397327,-0.438242
1092,1843574884,0.668787,0.612985,0.033931,0.419312,3.291037,-0.654579,0.050591
1093,1843608218,0.706013,0.556132,-0.044354,0.436230,4.132300,0.081801,0.285675
1094,1843641552,0.734157,0.497210,-0.117750,0.447136,4.929825,-0.787612,2.373422
1095,1843674886,0.751815,0.440524,-0.181765,0.455713,4.533075,-0.379255,1.463994
1096,1843708220,0.759460,0.388784,-0.234864,0.465732,4.817963,-0.978319,2.577276
1097,1843741554,0.754666,0.366444,-0.262170,0.476933,5.401187,-0.796344,1.323951
1098,1843774888,0.739658,0.381800,-0.258134,0.490409,4.598915,0.006564,0.773272
1099,1843808222,0.719064,0.421464,-0.225825,0.504300,4.055638,0.427916,1.497904
1100,1843841556,0.689955,0.477448,-0.168474,0.517322,4.153851,1.732602,0.944383
1101,1843874890,0.657232,0.527940,-0.098213,0.528849,1.706098,2.876635,1.871225
1102,1843908224,0.638671,0.548148,-0.043117,0.538307,2.477422,2.641906,1.966269
1103,1843941558,0.619374,0.560392,0.010981,0.549741,4.303930,2.989329,1.127156
1104,1843974892,0.588696,0.574642,0.075282,0.563522,3.792238,3.568032,0.129715
1105,1844008226,0.543742,0.591299,0.151091,0.576092,1.290599,4.391623,0.335546
1106,1844041560,0.497832,0.595315,0.224295,0.589454,-0.431256,3.908026,1.098967
1107,1844074894,0.454060,0.588527,0.291108,0.602264,-1.683885,3.154249,-0.312002
1108,1844108228,0.418765,0.569525,0.343022,0.618558,-3.725677,1.719442,0.938302
1109,1844141562,0.396153,0.539510,0.372229,0.642990,-4.263111,0.890489,0.298978
1110,1844174896,0.376556,0.509643,0.390596,0.667761,-2.808870,0.847853,-0.255525
1111,1844208230,0.354931,0.481600,0.408146,0.689567,-2.383456,0.306150,-0.285368
1112,1844241564,0.330033,0.457950,0.430640,0.704208,-2.473384,-1.341430,-0.595090
1113,1844274898,0.304907,0.438193,0.455188,0.712617,-1.701313,-2.512159,-0.358169
1114,1844308232,0.280902,0.419002,0.480733,0.717236,-1.276827,-2.614809,0.510925
1115,1844341566,0.260351,0.397194,0.503967,0.721437,-1.367107,-3.022022,0.618917
1116,1844374900,0.244074,0.372924,0.523070,0.726467,-1.230196,-2.326839,-0.469829
1117,1844408234,0.229735,0.348968,0.541729,0.729364,-1.335338,-1.996668,-1.097219
1118,1844441568,0.216742,0.328067,0.563506,0.726537,-1.586380,-1.964014,-0.757776
1119,1844474902,0.206330,0.311288,0.583008,0.721546,-1.748953,-1.971165,-1.262903
1120,1844508236,0.200817,0.300236,0.592154,0.720337,-1.995148,-2.523808,-1.736039
1121,1844541570,0.200360,0.298330,0.590942,0.722248,-1.341195,-2.160185,-2.053847
1122,1844574904,0.204323,0.305882,0.581395,0.725719,-0.723274,-1.864678,-1.392749
1123,1844608238,0.212109,0.320089,0.563164,0.731710,-0.260453,-0.909581,0.066946
1124,1844641572,0.220519,0.335454,0.544952,0.736118,0.565490,-0.410533,0.850768
1125,1844674906,0.225979,0.348219,0.531369,0.738460,0.426581,-1.791236,0.527505
1126,1844708240,0.233495,0.354323,0.509610,0.748487,0.222339,-2.772282,2.200109
1127,1844741574,0.246934,0.351263,0.480951,0.764411,0.961928,-1.288137,1.422620
1128,1844774908,0.261087,0.342656,0.460474,0.776135,1.932750,-0.561174,1.068234
1129,1844808242,0.270674,0.333084,0.459055,0.777855,2.329206,-0.508660,1.480325
1130,1844841576,0.277789,0.323103,0.473261,0.771013,0.930104,-1.722496,1.858327
1131,1844874910,0.286645,0.310438,0.490222,0.762329,0.670303,-1.755025,1.824729
1132,1844908244,0.296089,0.295736,0.507529,0.753184,0.809739,-1.472893,1.091064
1133,1844941578,0.306049,0.282926,0.523123,0.743391,0.526101,-1.709269,0.177882
1134,1844974912,0.317749,0.276975,0.537002,0.730719,0.242658,-2.086145,-0.504788
1135,1845008246,0.329166,0.278636,0.545497,0.718641,-0.418613,-1.992112,-0.415547
1136,1845041580,0.338180,0.284629,0.546362,0.711414,-1.212649,-0.275201,-1.091805
1137,1845074914,0.346785,0.290731,0.537101,0.711855,-2.809798,-0.036725,-1.473510
1138,1845108248,0.357520,0.300722,0.520658,0.714606,-3.570353,-0.639229,-3.114833
1139,1845141582,0.371103,0.316817,0.500672,0.715009,-3.506108,-0.930138,-2.343463
1140,1845174916,0.388375,0.331017,0.471048,0.719519,-2.332686,-0.371692,-2.406533
1141,1845208250,0.405468,0.346045,0.444640,0.719822,-1.261854,0.187268,-1.220270
1142,1845241584,0.423021,0.359335,0.427105,0.713802,-1.246320,-0.722392,1.791973
1143,1845274918,0.442096,0.363758,0.406891,0.711808,0.656360,-1.668152,0.803930
1144,1845308252,0.457190,0.367887,0.398268,0.704996,-0.066682,-0.968908,1.584377
1145,1845341586,0.468560,0.371266,0.399519,0.694980,0.593291,-0.231864,1.576110
1146,1845374920,0.476747,0.371757,0.407149,0.684645,0.544759,-0.240228,0.981923
1147,1845408254,0.482126,0.371013,0.419741,0.673589,-0.723217,-0.035480,-0.504658
1148,1845441588,0.484517,0.372256,0.434103,0.661985,-1.261363,0.105660,-2.096440
1149,1845474922,0.484786,0.378238,0.447368,0.649446,-1.469852,0.319269,-2.323537
1150,1845508256,0.485910,0.387107,0.454200,0.638547,-2.287525,0.263702,-2.827514
1151,1845541590,0.489704,0.400764,0.451396,0.629142,-2.826739,0.697765,-2.908858
1152,1845574924,0.497899,0.419424,0.435503,0.621706,-2.504822,0.878905,-1.815670
1153,1845608258,0.511276,0.441251,0.403367,0.617405,-1.462358,-0.035944,0.602094
1154,1845641592,0.529594,0.460815,0.358500,0.615352,0.897707,-0.473718,4.768746
1155,1845674926,0.546781,0.471733,0.318417,0.614092,1.080408,-1.010994,4.161271
1156,1845708260,0.564374,0.471368,0.288717,0.613136,0.241720,0.168459,3.620749
1157,1845741594,0.583182,0.463635,0.276523,0.607022,2.999634,0.121452,3.442563
1158,1845774928,0.597722,0.450041,0.282639,0.600256,2.416695,-0.110081,1.424967
1159,1845808262,0.608694,0.431960,0.293239,0.597422,1.250125,-0.141488,-0.916348
1160,1845841596,0.612882,0.418674,0.308173,0.595077,1.895764,0.305052,-3.164613
1161,1845874930,0.609861,0.418333,0.329792,0.586775,-1.544448,0.533163,-1.712747
1162,1845908264,0.605744,0.421100,0.349087,0.577829,-0.549538,0.920037,-3.415547
1163,1845941598,0.600275,0.427441,0.364409,0.569359,-1.598911,0.713471,-4.225433
1164,1845974932,0.597304,0.438956,0.369776,0.560188,-1.982029,0.562674,-4.044460
1165,1846008266,0.597203,0.455663,0.365180,0.549877,-1.504450,0.946617,-2.727634
1166,1846041600,0.596202,0.479596,0.357323,0.535586,-0.324661,0.051832,-0.397326
1167,1846074934,0.591643,0.507190,0.353814,0.517236,0.667135,0.609820,1.466225
1168,1846108268,0.585471,0.532400,0.355388,0.497467,-3.073337,0.859131,1.923120
1169,1846141602,0.591652,0.545770,0.344668,0.482999,-3.734685,0.999865,1.011514
1170,1846174936,0.608516,0.550499,0.328961,0.467380,-1.748610,1.728127,1.385728
1171,1846208270,0.624979,0.554819,0.318462,0.447391,-0.218301,1.151603,-0.439590
1172,1846241604,0.638046,0.559364,0.310972,0.428143,-0.347384,0.929075,-0.857738
1173,1846274938,0.646686,0.565909,0.303668,0.411497,0.216417,1.369343,-1.981761
1174,1846308272,0.648298,0.580759,0.295960,0.393492,-0.257978,1.607675,-1.445778
1175,1846341606,0.652744,0.592343,0.279196,0.380927,1.505689,1.765238,-1.099025
1176,1846374940,0.660010,0.599733,0.255571,0.373350,0.702772,1.319827,-1.809013
1177,1846408274,0.672587,0.598054,0.222829,0.374575,0.941883,1.243456,-1.603481
1178,1846441608,0.691686,0.583703,0.178755,0.385886,0.844530,0.385555,-1.686954
1179,1846474942,0.707228,0.570892,0.127018,0.397213,1.801837,-0.520519,-2.341581
1180,1846508276,0.708146,0.575230,0.076545,0.402220,2.298696,-0.703835,-0.898727
1181,1846541610,0.701510,0.584090,0.025615,0.407513,4.344780,-0.291706,1.153799
1182,1846574944,0.705239,0.568327,-0.034919,0.422402,3.897067,-0.357355,3.148463
1183,1846608278,0.729362,0.510467,-0.110024,0.441984,3.070379,-1.093509,5.900249
1184,1846641612,0.730231,0.488546,-0.154772,0.451809,3.522769,0.049716,2.406941
1185,1846674946,0.717837,0.495179,-0.170451,0.458753,2.952302,1.046227,2.673108
1186,1846708280,0.707740,0.505103,-0.172748,0.462746,2.454301,1.812392,1.333900
1187,1846741614,0.701488,0.517500,-0.166083,0.461004,3.300605,0.795837,1.498554
1188,1846774948,0.697055,0.531108,-0.149146,0.458032,4.025107,-0.357100,2.089242
1189,1846808282,0.690255,0.547526,-0.122721,0.456841,4.311541,0.090440,1.551167
1190,1846841616,0.679588,0.565958,-0.090228,0.457942,3.841758,0.833984,0.671597
1191,1846874950,0.664436,0.585227,-0.053459,0.461711,3.256742,1.242799,0.130421
1192,1846908284,0.644747,0.603782,-0.013712,0.468573,2.854516,1.566184,-0.192943
1193,1846941618,0.621059,0.620355,0.027754,0.478200,1.967957,2.297739,-0.616438
1194,1846974952,0.594298,0.633724,0.069546,0.490272,1.718264,2.356660,-0.566788
1195,1847008286,0.564252,0.643943,0.114484,0.503835,1.129799,2.800113,0.036290
1196,1847041620,0.531266,0.649944,0.161950,0.518750,0.974147,2.768065,-0.253579
1197,1847074954,0.495058,0.652357,0.213022,0.532888,-0.267016,2.678569,0.816988
1198,1847108288,0.460936,0.647047,0.262576,0.547651,-0.714946,2.801241,0.795758
1199,1847141622,0.427698,0.635756,0.312250,0.561595,-1.111143,2.249982,1.001354
1200,1847174956,0.397386,0.617542,0.359454,0.575777,-1.105827,1.846995,1.013964
1201,1847208290,0.369378,0.593763,0.403843,0.589844,-0.958168,1.018284,0.749047
1202,1847241624,0.343873,0.565545,0.443317,0.604468,-0.973938,-0.025536,1.031774
1203,1847274958,0.320121,0.534160,0.477856,0.619557,-1.261024,-0.015030,0.592016
1204,1847308292,0.297180,0.502145,0.508702,0.633054,-1.532888,-0.997362,0.713900
1205,1847341626,0.277938,0.468903,0.531926,0.648024,-1.451305,-1.166819,0.516989
1206,1847374960,0.261133,0.435976,0.549832,0.662887,-1.829460,-1.259682,-0.182531
1207,1847408294,0.242955,0.406315,0.568690,0.672661,-2.277792,-2.264223,-1.064963
1208,1847441628,0.221671,0.380923,0.592960,0.673913,-2.627726,-2.348735,-1.689107
1209,1847474962,0.195490,0.357747,0.625800,0.664963,-2.992149,-3.028051,-1.020928
1210,1847508296,0.173930,0.333115,0.650540,0.659986,-2.787784,-2.902692,-1.004936
1211,1847541630,0.162937,0.313426,0.664927,0.658095,-2.192436,-1.786278,-1.712479
1212,1847574964,0.160080,0.303323,0.670677,0.657694,-1.696395,-1.877221,-1.678931
1213,1847608298,0.166744,0.305040,0.661346,0.664657,-1.000331,-0.974006,0.347006
1214,1847641632,0.178479,0.313636,0.639601,0.678740,0.321498,-0.207220,-0.957799
1215,1847674966,0.189615,0.322821,0.616883,0.692307,1.309095,-0.910165,1.688149
1216,1847708300,0.198157,0.324471,0.598326,0.705307,3.166375,-0.016430,2.783417
1217,1847741634,0.201102,0.316102,0.590433,0.714861,2.581812,-1.114952,0.697597
1218,1847774968,0.202197,0.306557,0.598450,0.712038,1.899375,-2.312793,1.480191
1219,1847808302,0.205774,0.294945,0.614431,0.702239,1.676367,-1.677555,3.186609
1220,1847841636,0.211899,0.278099,0.629631,0.693776,0.860483,-2.134802,2.035474
1221,1847874970,0.220487,0.261194,0.645007,0.683469,-0.173642,-2.476696,0.466140
1222,1847908304,0.231808,0.247963,0.658451,0.671730,-0.718850,-3.415844,-0.760572
1223,1847941638,0.244206,0.239390,0.663590,0.665360,-0.742985,-2.772343,-2.097111
1224,1847974972,0.255722,0.233036,0.657664,0.669163,-1.133650,-0.844346,-2.935859
1225,1848008306,0.265505,0.233961,0.643208,0.679009,-2.331477,-2.829513,-3.767064
1226,1848041640,0.278819,0.255653,0.622216,0.685382,-4.312558,-6.124600,-3.651993
1227,1848074974,0.304147,0.298398,0.571930,0.700964,-4.815910,-2.006777,-1.808073
1228,1848108308,0.337003,0.346355,0.501847,0.717368,-1.727172,4.303236,-0.085455
1229,1848141642,0.362593,0.382919,0.447142,0.722471,1.668856,1.978264,1.797404
1230,1848174976,0.375074,0.411041,0.425502,0.713662,-0.835072,-1.485121,0.360389
1231,1848208310,0.387813,0.429331,0.413229,0.703220,-1.656116,-1.112006,2.587191
1232,1848241644,0.406371,0.430317,0.401941,0.698665,1.125328,-0.306580,3.486338
1233,1848274978,0.423820,0.417545,0.399825,0.697261,2.634708,0.151739,1.135747
1234,1848308312,0.432996,0.405466,0.414347,0.690238,1.432695,0.141864,0.029007
1235,1848341646,0.435309,0.399648,0.441334,0.675287,-0.616613,-0.013937,-0.459015
1236,1848374980,0.434389,0.397537,0.469201,0.658120,-1.636007,0.105018,-1.079002
1237,1848408314,0.433240,0.397263,0.488280,0.645033,-2.410813,-0.504888,-1.820846
1238,1848441648,0.435281,0.400154,0.492756,0.638435,-3.161731,-0.577288,-1.784352
1239,1848474982,0.443405,0.407932,0.479948,0.637678,-2.909396,-0.099907,-2.911150
1240,1848508316,0.452391,0.429270,0.460572,0.631620,-2.112213,0.931422,-2.887929
1241,1848541650,0.463884,0.456759,0.430519,0.625169,-0.965156,1.220216,-0.046107
1242,1848574984,0.476651,0.481637,0.395481,0.620020,2.170443,1.451998,0.064626
1243,1848608318,0.482726,0.504127,0.372160,0.611824,0.448039,-0.340271,2.213049
1244,1848641652,0.491351,0.516760,0.355928,0.604027,-0.780191,-1.220242,3.340569
1245,1848674986,0.508806,0.515645,0.341787,0.598672,-0.968222,-1.385888,3.805525
1246,1848708320,0.531960,0.502112,0.332002,0.595547,2.019336,-0.930961,1.642380
1247,1848741654,0.545949,0.491829,0.341504,0.586020,2.989374,-0.383290,-0.406878
1248,1848774988,0.547958,0.491621,0.370626,0.566293,0.422268,-0.266762,-0.924057
1249,1848808322,0.543216,0.497384,0.406667,0.540508,-1.136085,-0.475299,-2.343145
1250,1848841656,0.535676,0.502857,0.439024,0.517150,-1.850970,-1.347291,-1.970449
1251,1848874990,0.530960,0.502653,0.458372,0.505288,-1.588321,-1.162382,-3.421035
1252,1848908324,0.524974,0.505672,0.465377,0.502117,-0.687915,-0.402637,-4.629319
1253,1848941658,0.519008,0.516622,0.457235,0.504647,-2.116292,0.479443,-1.089211
1254,1848974992,0.514794,0.534373,0.434892,0.510196,-1.372587,1.219263,-2.096988
1255,1849008326,0.508192,0.558357,0.409104,0.512457,-1.461509,1.835101,0.208000
1256,1849041660,0.510188,0.573204,0.376305,0.519172,-2.557733,2.506055,0.597597
1257,1849074994,0.524398,0.579691,0.342007,0.521533,-3.434554,2.805370,1.957970
1258,1849108328,0.545174,0.582138,0.313318,0.515491,-1.065714,1.956703,1.813912
1259,1849141662,0.562370,0.586919,0.296579,0.501305,0.506302,2.022384,0.780899
1260,1849174996,0.575444,0.594637,0.287202,0.482479,-0.083406,2.213216,-0.377762
1261,1849208330,0.586129,0.607060,0.275527,0.460452,-4.146812,3.141036,-2.453241
1262,1849241664,0.602558,0.613887,0.252999,0.442785,1.107998,1.823684,-0.005918
1263,1849274998,0.610861,0.623614,0.239422,0.425008,3.633408,1.656257,-3.347592
1264,1849308332,0.600218,0.650050,0.233950,0.403039,-0.205803,1.216914,-1.554732
1265,1849341666,0.583519,0.680912,0.220871,0.383511,1.978091,0.743858,-1.250916
1266,1849375000,0.574782,0.701576,0.191606,0.375106,2.202347,0.415131,-0.530812
1267,1849408334,0.581830,0.703183,0.145022,0.382069,4.018555,-0.024537,-0.345111
1268,1849441668,0.601826,0.687892,0.085113,0.396694,4.153916,-0.479911,1.688303
1269,1849475002,0.644597,0.640937,0.004465,0.416744,4.069481,-0.280967,2.162383
1270,1849508336,0.693859,0.571989,-0.077950,0.430480,5.141482,-0.735242,3.162407
1271,1849541670,0.712136,0.538647,-0.125476,0.432410,5.878698,-1.402655,1.638470
1272,1849575004,0.711818,0.528902,-0.149967,0.437137,5.822550,1.617683,0.385793
1273,1849608338,0.713836,0.517461,-0.164662,0.442220,2.447537,1.932362,2.410612
1274,1849641672,0.713803,0.514389,-0.167526,0.444775,4.015193,1.058519,0.808123
1275,1849675006,0.700031,0.533943,-0.150046,0.449831,4.062847,0.263685,1.244923
1276,1849708340,0.676698,0.564204,-0.116932,0.458345,3.654217,0.857319,1.002576
1277,1849741674,0.647427,0.596134,-0.073664,0.469080,3.181875,1.992877,0.470004
1278,1849775008,0.611168,0.627198,-0.021966,0.482301,2.952100,2.437412,0.465658
1279,1849808342,0.570000,0.652645,0.034896,0.497934,2.207692,2.864099,0.947652
1280,1849841676,0.527856,0.667729,0.091372,0.516873,0.978018,3.117081,1.227851
1281,1849875010,0.489877,0.669349,0.143034,0.539938,1.090709,2.885083,0.860646
1282,1849908344,0.450758,0.663159,0.195795,0.564536,0.402949,3.230775,0.499007
1283,1849941678,0.410170,0.649924,0.248572,0.589551,-1.057649,3.188141,1.017510
1284,1849975012,0.367666,0.631261,0.300403,0.613261,-2.723301,3.221849,0.346676
1285,1850008346,0.324349,0.607833,0.348949,0.635273,-3.945207,2.004436,0.661656
1286,1850041680,0.282709,0.583013,0.394921,0.651313,-3.399202,0.681540,0.576320
1287,1850075014,0.246757,0.557711,0.437102,0.661069,-1.605289,-1.111057,1.522835
1288,1850108348,0.219643,0.527350,0.469044,0.673541,-0.405735,-1.767719,2.141984
1289,1850141682,0.198053,0.493784,0.497044,0.685492,-0.277734,-2.729446,1.919017
1290,1850175016,0.180193,0.457161,0.523759,0.695853,-0.268664,-2.169473,2.094555
1291,1850208350,0.165316,0.417337,0.549795,0.704433,-1.167867,-1.968238,1.151164
1292,1850241684,0.153116,0.377234,0.575241,0.709471,-1.921038,-1.918149,-0.671618
1293,1850275018,0.143569,0.340122,0.595315,0.713656,-1.903285,-2.254874,-1.727287
1294,1850308352,0.135578,0.309567,0.608205,0.718244,-1.898707,-2.091641,-3.362271
1295,1850341686,0.127759,0.289555,0.619391,0.718464,-2.518643,-2.872267,-3.446600
1296,1850375020,0.122893,0.282126,0.620820,0.721030,-2.455559,-2.526253,-2.449557
1297,1850408354,0.124368,0.287331,0.608487,0.729190,-2.917998,-2.269739,-1.798739
1298,1850441688,0.133197,0.302006,0.585024,0.740809,-2.056792,-1.696105,-0.529763
1299,1850475022,0.146632,0.318699,0.558284,0.751830,-0.348996,-0.842787,0.606991
1300,1850508356,0.161173,0.329415,0.531161,0.763791,1.709632,-0.513328,1.333029
1301,1850541690,0.173724,0.329794,0.507245,0.777019,2.543647,-0.380309,2.218202
1302,1850575024,0.182776,0.320945,0.492549,0.788025,2.281782,-0.333455,1.468697
1303,1850608358,0.188614,0.307049,0.489183,0.794258,1.787521,-0.878765,1.030795
1304,1850641692,0.193644,0.290771,0.495928,0.794991,1.369674,-1.182453,0.859150
1305,1850675026,0.198338,0.273551,0.512081,0.789686,1.302660,-1.314019,0.459621
1306,1850708360,0.201966,0.257645,0.536744,0.777647,1.134298,-1.256119,-0.240738
1307,1850741694,0.204804,0.243382,0.565678,0.760808,0.235063,-1.988235,-0.900696
1308,1850775028,0.210912,0.226062,0.580104,0.753586,-1.240245,-3.415251,1.755588
1309,1850808362,0.220584,0.201940,0.565051,0.768947,-0.756728,-1.518502,0.597513
1310,1850841696,0.226540,0.182983,0.557876,0.777156,-0.400134,-0.293126,-2.535181
1311,1850875030,0.233010,0.182079,0.572852,0.764457,-1.555287,-1.940349,-2.693206
1312,1850908364,0.243742,0.193993,0.582862,0.750485,-2.952908,-2.810477,-1.590096
1313,1850941698,0.260588,0.213973,0.568520,0.750396,-3.493680,-3.097104,-1.966833
1314,1850975032,0.282488,0.242215,0.544966,0.751362,-2.421700,-2.124442,-2.233008
1315,1851008366,0.305348,0.270550,0.519171,0.751017,-0.865837,-1.166026,0.006783
1316,1851041700,0.327647,0.286863,0.491466,0.754200,-0.215058,-0.921862,1.339025
1317,1851075034,0.350280,0.288091,0.462967,0.761557,-1.265500,-1.975948,1.051350
1318,1851108368,0.372442,0.282938,0.442089,0.765370,0.022202,-0.316890,0.169251
1319,1851141702,0.386579,0.285547,0.450405,0.752432,1.213971,0.292532,-0.845098
1320,1851175036,0.390651,0.300993,0.487024,0.720835,0.390174,-0.528056,-1.985305
1321,1851208370,0.387202,0.324917,0.536119,0.676078,-1.980904,-1.509287,0.072839
1322,1851241704,0.385701,0.344807,0.570056,0.638262,-2.389207,-0.516282,0.932220
1323,1851275038,0.388318,0.357905,0.585607,0.614961,-1.819384,0.000080,-0.235814
1324,1851308372,0.391483,0.372430,0.591665,0.598306,-2.378122,-0.091493,-1.652594
1325,1851341706,0.393604,0.395023,0.595489,0.578296,-2.151215,0.563438,-2.193013
1326,1851375040,0.389828,0.428550,0.603081,0.548336,-1.331942,0.327915,-2.186960
1327,1851408374,0.383851,0.463145,0.603742,0.523116,-1.028681,1.054103,1.381398
1328,1851441708,0.386372,0.486613,0.590516,0.514990,-2.413243,1.285220,0.915854
1329,1851475042,0.396927,0.505421,0.565026,0.517440,-0.593073,1.986641,-0.881411
1330,1851508376,0.408350,0.524375,0.533922,0.522693,-0.608155,1.585085,-0.436396
1331,1851541710,0.423743,0.542201,0.494646,0.530834,-0.340993,1.491320,1.244355
1332,1851575044,0.445107,0.550817,0.448554,0.545235,2.238483,0.496779,0.870550
1333,1851608378,0.462160,0.556616,0.415181,0.551554,2.266553,0.205689,2.992949
1334,1851641712,0.474931,0.555864,0.391895,0.558457,2.496110,-1.740745,2.238818
1335,1851675046,0.491049,0.547890,0.373274,0.565114,-1.211005,-1.064535,4.970696
1336,1851708380,0.510906,0.536053,0.354697,0.570799,0.617747,-1.454871,-0.010909
1337,1851741714,0.524998,0.530898,0.344367,0.569154,0.504937,0.348407,-0.010156
1338,1851775048,0.533519,0.529109,0.343214,0.563565,0.957702,0.747419,-0.486409
1339,1851808382,0.538764,0.528804,0.347392,0.556255,-0.583171,1.206756,-1.796526
1340,1851841716,0.544384,0.533292,0.349968,0.544765,-3.019517,1.660154,-2.465827
1341,1851875050,0.553351,0.541845,0.347726,0.528482,-1.940391,2.736086,-1.705029
1342,1851908384,0.565183,0.550749,0.342472,0.509860,-1.063407,3.021119,-2.860231
1343,1851941718,0.575256,0.563342,0.335289,0.489190,-1.807936,2.441044,-2.368114
1344,1851975052,0.585891,0.576438,0.321616,0.470122,-1.490628,1.927345,-2.109563
1345,1852008386,0.595098,0.591922,0.303490,0.450978,-1.612606,1.947421,-2.347177
1346,1852041720,0.604465,0.606186,0.280744,0.433986,-0.517226,1.930472,-1.614451
1347,1852075054,0.612782,0.618084,0.254493,0.421550,-0.268176,1.096652,-2.023102
1348,1852108388,0.622543,0.625045,0.217823,0.417507,-1.368901,1.825646,-3.924212
1349,1852141722,0.639055,0.618999,0.164221,0.426005,3.297966,-0.284784,-0.928007
1350,1852175056,0.663164,0.596541,0.097289,0.441461,2.302608,1.178623,2.805186
1351,1852208390,0.679537,0.579031,0.030935,0.449440,3.161161,1.212803,0.267186
1352,1852241724,0.689609,0.562490,-0.033019,0.454924,2.406593,-0.457950,2.325138
1353,1852275058,0.714798,0.511786,-0.115881,0.462287,2.082141,-0.316105,2.614097
1354,1852308392,0.734498,0.452664,-0.200263,0.464223,4.280035,-0.948306,2.157018
1355,1852341726,0.740978,0.406703,-0.265523,0.463726,2.929147,-0.476882,3.533117
1356,1852375060,0.736811,0.391531,-0.297375,0.464093,4.291315,0.348901,0.489648
1357,1852408394,0.729502,0.397963,-0.305090,0.465159,4.021131,0.847180,1.312100
1358,1852441728,0.726924,0.412818,-0.296583,0.461737,3.309279,-0.094429,2.498761
1359,1852475062,0.727521,0.438091,-0.270707,0.453329,3.708434,0.694046,2.487912
1360,1852508396,0.728344,0.469412,-0.235062,0.440356,4.297520,1.133672,1.259501
1361,1852541730,0.729369,0.494976,-0.203654,0.426081,3.076353,-0.878631,1.560687
1362,1852575064,0.731287,0.508039,-0.181074,0.417528,4.452511,-0.831396,0.423173
1363,1852608398,0.727057,0.520535,-0.158277,0.418784,3.409782,0.107828,-0.392476
1364,1852641732,0.718215,0.532190,-0.132327,0.428287,2.788186,0.781577,-0.169953
1365,1852675066,0.704312,0.544005,-0.101458,0.444646,2.488568,1.886703,-0.890922
1366,1852708400,0.684342,0.556840,-0.066162,0.466076,2.110535,2.392159,-1.162379
1367,1852741734,0.657677,0.571120,-0.024657,0.490586,1.603644,2.631623,-0.495934
1368,1852775068,0.624622,0.585566,0.024029,0.516122,1.022537,3.092340,0.398835
1369,1852808402,0.586917,0.598317,0.079320,0.539679,0.452148,3.363909,0.444490
1370,1852841736,0.545231,0.608810,0.140758,0.558803,-0.266198,3.292361,0.712617
1371,1852875070,0.504073,0.613446,0.204075,0.572667,-1.197440,2.716361,0.887293
1372,1852908404,0.468816,0.610102,0.261768,0.582635,-2.515575,1.388469,1.365175
1373,1852941738,0.447703,0.597068,0.303816,0.592256,-3.039547,0.155465,2.223508
1374,1852975072,0.440410,0.575794,0.327847,0.605819,-1.632395,0.032552,1.839011
1375,1853008406,0.436908,0.552312,0.346420,0.619722,-1.038648,0.208722,1.175735
1376,1853041740,0.432483,0.529476,0.367006,0.630809,-1.640218,-0.332051,0.580430
1377,1853075074,0.428830,0.504699,0.387548,0.641242,-1.564431,-0.538793,0.113375
1378,1853108408,0.424614,0.478294,0.409774,0.650402,-0.954984,-0.699002,-0.165857
1379,1853141742,0.419288,0.450545,0.433247,0.658411,-0.870985,-0.807775,-1.127320
1380,1853175076,0.411130,0.424618,0.458052,0.663972,-0.979508,-1.168485,-1.911935
1381,1853208410,0.399293,0.403385,0.484360,0.665763,-1.106052,-1.568483,-2.654744
1382,1853241744,0.384947,0.387684,0.509197,0.665008,-1.587785,-2.003248,-2.760543
1383,1853275078,0.371542,0.377327,0.526816,0.664865,-2.269820,-2.687374,-2.644975
1384,1853308412,0.362534,0.373584,0.532324,0.667559,-3.327802,-3.421489,-2.184665
1385,1853341746,0.359277,0.378828,0.523765,0.673112,-3.016986,-2.883126,-2.321892
1386,1853375080,0.361035,0.390796,0.502735,0.681315,-2.144882,-1.391871,-1.069016
1387,1853408414,0.365684,0.407378,0.476723,0.687789,-1.008529,-0.700996,0.039563
1388,1853441748,0.372657,0.423450,0.449161,0.692872,-0.243322,-1.572394,1.237624
1389,1853475082,0.382143,0.434756,0.422208,0.697635,0.412362,-1.962686,1.876701
1390,1853508416,0.392108,0.441716,0.402640,0.699299,1.101099,-2.101110,2.557189
1391,1853541750,0.403719,0.440971,0.389225,0.700756,0.889962,-2.334885,3.218857
1392,1853575084,0.420362,0.428943,0.377184,0.705008,0.102539,-2.257733,2.631544
1393,1853608418,0.438816,0.409584,0.367769,0.710231,0.619121,-1.744052,1.560229
1394,1853641752,0.455540,0.389141,0.365670,0.712277,0.653842,-1.027655,1.086916
1395,1853675086,0.468307,0.371404,0.375253,0.708472,1.060564,-1.184370,0.103406
1396,1853708420,0.479129,0.357180,0.390822,0.700083,0.049932,-1.724341,-1.150384
1397,1853741754,0.487567,0.348128,0.411182,0.687033,0.255033,-1.401698,-1.630920
1398,1853775088,0.493697,0.342123,0.431903,0.672811,-1.383862,-1.827114,-1.455965
1399,1853808422,0.500444,0.336280,0.441215,0.664681,-3.706882,-2.519637,-2.098249
1400,1853841756,0.515283,0.323095,0.424227,0.670913,-4.456895,-1.870024,-0.768657
1401,1853875090,0.536597,0.310981,0.390810,0.680163,-1.558228,-0.067850,-2.714686
1402,1853908424,0.558165,0.316895,0.364260,0.674792,-2.888475,0.515669,-0.016860
1403,1853941758,0.582114,0.331776,0.338295,0.660776,-2.140854,-0.384922,0.046641
1404,1853975092,0.605013,0.348202,0.313335,0.643845,0.110711,-0.731869,0.588494
1405,1854008426,0.623470,0.366310,0.295743,0.624210,0.039377,-1.866666,-0.201516
1406,1854041760,0.637917,0.385021,0.285278,0.602858,-1.359251,-0.354811,1.316605
1407,1854075094,0.651165,0.398132,0.283057,0.580822,0.146208,-0.186877,3.098655
1408,1854108428,0.659209,0.409341,0.294013,0.558068,0.953484,-0.541522,1.761187
1409,1854141762,0.660216,0.424017,0.316992,0.532767,-0.010521,-0.521698,0.863198
1410,1854175096,0.657482,0.438241,0.342958,0.507978,-0.853820,0.629719,0.636106
1411,1854208430,0.656845,0.444368,0.360901,0.490756,-1.890355,0.487104,-1.495462
1412,1854241764,0.656427,0.446654,0.369840,0.482516,-0.544435,0.237183,-2.045082
1413,1854275098,0.653414,0.452982,0.374281,0.477253,-0.998929,0.651439,-2.315677
1414,1854308432,0.648493,0.469729,0.376554,0.465852,-2.846837,1.857603,-1.434965
1415,1854341766,0.644992,0.492267,0.372797,0.450201,-2.763918,1.911717,-1.434474
1416,1854375100,0.645160,0.513559,0.362217,0.434540,-2.041218,2.687581,-1.221449
1417,1854408434,0.653836,0.525103,0.344083,0.422341,-3.147988,3.405906,-0.441735
1418,1854441768,0.670861,0.530284,0.319367,0.408349,-3.028384,2.685542,-0.532590
1419,1854475102,0.687346,0.538709,0.295693,0.387188,-1.827507,1.422491,-0.991089
1420,1854508436,0.701458,0.549993,0.273352,0.361583,-1.434914,0.949291,-0.758469
1421,1854541770,0.712042,0.565318,0.251800,0.331677,-2.920331,2.133209,-0.100437
1422,1854575104,0.723266,0.579160,0.226276,0.300431,-1.440495,2.482573,0.548197
1423,1854608438,0.735273,0.588751,0.200718,0.269181,-0.569980,1.965733,0.034648
1424,1854641772,0.745520,0.596827,0.177160,0.237933,0.216906,2.015975,-0.021528
1425,1854675106,0.752418,0.606600,0.154140,0.205293,1.108736,1.655797,-0.056147
1426,1854708440,0.759348,0.613517,0.127417,0.175365,0.762358,1.842483,-0.362116
1427,1854741774,0.772583,0.608810,0.092500,0.154630,1.754829,1.312629,-0.446028
1428,1854775108,0.795886,0.585859,0.049958,0.144357,3.445804,-0.190800,-0.372842
1429,1854808442,0.830690,0.538104,0.002024,0.142809,4.276499,-2.292204,-0.631155
1430,1854841776,0.842792,0.519912,-0.039772,0.133462,5.485648,-1.243378,0.310363
1431,1854875110,0.830615,0.537755,-0.072262,0.125203,6.304111,-1.896776,0.097299
1432,1854908444,0.822586,0.546201,-0.098033,0.124123,6.394862,0.016421,1.366195
1433,1854941778,0.823989,0.540276,-0.118010,0.123359,5.858489,0.084829,0.160333
1434,1854975112,0.831415,0.526295,-0.132085,0.119651,6.260340,-1.532527,-0.785653
1435,1855008446,0.836430,0.517314,-0.139428,0.115460,5.635764,-2.298753,-1.095634
1436,1855041780,0.835315,0.518450,-0.142095,0.115180,4.553705,-2.435838,-0.979948
1437,1855075114,0.827865,0.528709,-0.141313,0.123031,2.980252,-1.883115,-0.845495
1438,1855108448,0.813194,0.547109,-0.139561,0.141101,1.939472,-0.493660,-0.357677
1439,1855141782,0.797574,0.563995,-0.135132,0.165905,1.428522,-0.225706,1.228630
1440,1855175116,0.781472,0.579945,-0.126586,0.192201,1.971202,0.110439,0.872658
1441,1855208450,0.765577,0.594576,-0.114753,0.217265,2.810721,0.167670,0.459065
1442,1855241784,0.748341,0.609481,-0.099741,0.242014,3.066363,0.917842,0.441580
1443,1855275118,0.731274,0.622379,-0.082217,0.266690,3.162346,1.653990,0.333604
1444,1855308452,0.713600,0.632639,-0.063418,0.294145,3.543538,1.097119,-0.051545
1445,1855341786,0.691146,0.643960,-0.038782,0.325774,3.643824,1.224318,0.398772
1446,1855375120,0.662565,0.655619,-0.008540,0.362075,2.160847,1.897568,0.642124
1447,1855408454,0.630951,0.664303,0.025615,0.399934,1.545228,2.293397,1.272435
1448,1855441788,0.597516,0.670715,0.066645,0.434366,0.704590,2.272580,3.303903
1449,1855475122,0.568353,0.670708,0.112975,0.462994,-0.097412,2.345587,3.798926
1450,1855508456,0.546036,0.661642,0.160604,0.488141,-1.145704,1.214595,2.901360
1451,1855541790,0.527358,0.646356,0.208265,0.510630,-0.979323,-0.338576,2.432002
1452,1855575124,0.510690,0.624568,0.255618,0.532701,-0.361296,-0.299556,0.995252
1453,1855608458,0.491268,0.601275,0.305352,0.551257,-0.829681,-0.205418,-0.333319
1454,1855641792,0.468672,0.578001,0.357157,0.564535,-2.131890,0.377155,0.372642
1455,1855675126,0.445768,0.553142,0.408098,0.573394,-3.346210,0.672031,-0.122373
1456,1855708460,0.425665,0.527231,0.453519,0.578928,-3.794203,0.565708,-1.246658
1457,1855741794,0.409625,0.501626,0.489246,0.584138,-3.518728,0.513597,-1.760500
1458,1855775128,0.396735,0.480487,0.514345,0.589222,-4.016219,-0.111613,-2.882726
1459,1855808462,0.388385,0.468119,0.526144,0.594302,-4.018232,-0.645574,-2.477474
1460,1855841796,0.386641,0.462197,0.522099,0.603570,-2.076145,0.389507,-1.939404
1461,1855875130,0.389906,0.459197,0.504915,0.618202,-1.416639,0.115061,-1.435691
1462,1855908464,0.393396,0.459747,0.483166,0.632789,-0.645647,-0.341467,-0.018966
1463,1855941798,0.394643,0.461064,0.462423,0.646407,-0.053709,-0.573619,0.281933
1464,1855975132,0.394836,0.457710,0.441374,0.663170,0.998585,-0.908523,1.315930
1465,1856008466,0.392479,0.448582,0.424782,0.681392,1.313019,-1.436877,0.888631
1466,1856041800,0.385220,0.437266,0.418120,0.696836,0.981594,-1.726830,1.938738
1467,1856075134,0.375757,0.423579,0.421596,0.708269,0.663624,-1.947987,2.605529
1468,1856108468,0.367314,0.405689,0.434340,0.715434,0.759234,-1.755368,2.389969
1469,1856141802,0.359966,0.383890,0.454944,0.718386,0.296415,-1.732146,1.379375
1470,1856175136,0.352815,0.361074,0.480577,0.717073,-0.614770,-2.200487,-0.003980
1471,1856208470,0.346354,0.339752,0.509300,0.710789,-1.552470,-2.589337,-0.299102
1472,1856241804,0.343010,0.319568,0.534737,0.703049,-2.414935,-2.878432,-0.760692
1473,1856275138,0.341971,0.303931,0.555989,0.693944,-2.706087,-2.874282,-2.614172
1474,1856308472,0.344607,0.296539,0.574533,0.680605,-3.586185,-2.921221,-0.997623
1475,1856341806,0.353536,0.293936,0.578741,0.673553,-2.563612,-1.029311,-2.017692
1476,1856375140,0.365648,0.296279,0.573007,0.670958,-2.176444,-0.604185,-2.638736
1477,1856408474,0.378518,0.308149,0.564651,0.665536,-2.286138,-2.166366,-2.703748
1478,1856441808,0.392574,0.326950,0.549477,0.661109,-0.968065,-1.080883,-1.660514
1479,1856475142,0.405099,0.347126,0.530009,0.659158,-0.152786,-1.007604,-0.983389
1480,1856508476,0.416182,0.367514,0.507986,0.658541,0.306235,-1.071000,0.329661
1481,1856541810,0.429082,0.382231,0.479936,0.662911,-0.823615,-2.835876,2.126970
1482,1856575144,0.446332,0.391871,0.449195,0.667419,-2.384893,-3.394598,1.802571
1483,1856608478,0.469792,0.396709,0.417621,0.668962,-2.184012,-1.760484,2.128241
1484,1856641812,0.495568,0.397629,0.391004,0.665897,-0.269968,-1.278962,1.812544
1485,1856675146,0.519214,0.397893,0.373316,0.657825,0.786060,-1.458811,1.404657
1486,1856708480,0.538883,0.399224,0.365329,0.645570,0.348488,-1.483708,0.929876
1487,1856741814,0.555213,0.403439,0.363376,0.630026,-0.404338,-1.162463,0.976033
1488,1856775148,0.569472,0.410165,0.364083,0.612299,-1.324142,-0.378725,0.656456
1489,1856808482,0.582515,0.417044,0.365457,0.594299,-1.888023,0.258655,0.506571
1490,1856841816,0.595961,0.422508,0.365076,0.577094,-1.947303,1.288796,-0.084379
1491,1856875150,0.608402,0.429249,0.364118,0.559474,-2.310749,1.503932,-0.997002
1492,1856908484,0.619656,0.438511,0.364028,0.539646,-1.714086,2.393603,-1.266295
1493,1856941818,0.629681,0.450550,0.365944,0.516325,-1.137064,2.534689,-0.836268
1494,1856975152,0.639122,0.462130,0.367869,0.492576,-0.629457,2.621503,-1.068108
1495,1857008486,0.647300,0.473756,0.369624,0.468974,-0.623056,2.388450,-1.791288
1496,1857041820,0.652599,0.489114,0.371042,0.444083,-0.754927,2.700844,-1.591885
1497,1857075154,0.658066,0.503714,0.367214,0.422346,-0.479170,2.777194,-2.444777
