sep=,
DeviceTag:,23_Right
FirmwareVersion:,2.2.1
AppVersion:,2023.6.0
SyncStatus:,Synced
OutputRate:,30Hz
FilterProfile:,General
Measurement Mode:,Sensor fusion Mode - Complete(Quaternion)
StartTime: ,2026-05-01_14:10:45_241 AEST
© Movella Technologies B. V. 2005-2026

PacketCounter,SampleTimeFine,Quat_W,Quat_X,Quat_Y,Quat_Z,FreeAcc_X,FreeAcc_Y,FreeAcc_Z
1,467642188,-0.266426,0.296171,-0.106839,-0.910977,-0.274736,-0.462867,0.477428
2,467675522,-0.266889,0.294350,-0.107865,-0.911311,-0.232390,-0.286280,0.544642
3,467708856,-0.267525,0.291724,-0.109637,-0.911758,-0.156171,-0.179750,0.731250
4,467742190,-0.268131,0.289901,-0.112886,-0.911765,-0.374732,-0.230437,0.697464
5,467775524,-0.268308,0.288856,-0.117401,-0.911474,-0.023377,-0.118373,0.777093
6,467808858,-0.268508,0.287403,-0.122540,-0.911198,-0.007972,-0.234410,0.801172
7,467842192,-0.268890,0.284483,-0.127621,-0.911304,-0.009688,0.145539,0.551102
8,467875526,-0.268633,0.282159,-0.132859,-0.911354,0.102791,-0.246463,0.602930
9,467908860,-0.268411,0.278081,-0.137004,-0.912059,-0.005480,0.139884,0.619461
10,467942194,-0.268466,0.272617,-0.140318,-0.913188,0.013002,-0.427741,0.750023
11,467975528,-0.269172,0.265154,-0.141662,-0.914968,0.069872,-0.333691,0.631285
12,468008862,-0.270550,0.257684,-0.142846,-0.916511,-0.349181,0.360649,0.894085
13,468042196,-0.272619,0.247773,-0.144565,-0.918359,0.125210,0.012678,0.429361
14,468075530,-0.275941,0.238277,-0.147059,-0.919483,-0.423639,0.276719,-0.292808
15,468108864,-0.278517,0.236300,-0.150193,-0.918710,0.203342,-0.063244,-0.277812
16,468142198,-0.281255,0.236971,-0.151737,-0.917448,1.012541,0.278611,-0.810713
17,468175532,-0.280544,0.241459,-0.150008,-0.916780,2.193249,-0.034843,-1.760565
18,468208866,-0.269942,0.255829,-0.143983,-0.917032,4.797608,0.978425,-1.329845
19,468242200,-0.247650,0.263686,-0.136133,-0.922281,2.539084,3.259564,0.452922
20,468275534,-0.212685,0.278969,-0.127606,-0.927714,1.899503,-0.335579,1.174768
21,468308868,-0.177253,0.284577,-0.113414,-0.935270,0.961180,-2.439293,3.889782
22,468342202,-0.150782,0.262276,-0.100247,-0.947851,-2.768740,-1.743388,3.938888
23,468375536,-0.136469,0.227026,-0.102777,-0.958784,-7.960975,-1.038678,5.963419
24,468408870,-0.133387,0.200070,-0.121764,-0.962989,-8.350327,-1.306393,4.745157
25,468442204,-0.143612,0.176549,-0.150091,-0.962119,-4.653556,-1.231059,3.436045
26,468475538,-0.172830,0.137101,-0.178426,-0.958902,-2.809414,-0.965507,1.525036
27,468508872,-0.219745,0.089925,-0.197200,-0.951174,-0.977116,-0.258341,-2.051094
28,468542206,-0.274359,0.054073,-0.208744,-0.937136,-0.573588,6.561154,-4.474661
29,468575540,-0.309911,0.072540,-0.226146,-0.920622,2.708724,6.315155,-7.822887
30,468608874,-0.323754,0.117680,-0.242076,-0.907044,8.768525,1.045843,-8.805869
31,468642208,-0.338708,0.114572,-0.234757,-0.903899,10.487834,0.190419,-6.774522
32,468675542,-0.350635,0.076016,-0.212498,-0.908909,4.600317,3.484984,-6.904451
33,468708876,-0.352284,0.038834,-0.194795,-0.914569,4.436565,4.451506,-0.173820
34,468742210,-0.356772,-0.000607,-0.178089,-0.917057,-4.481652,3.052541,-0.617537
35,468775544,-0.356113,0.007365,-0.165346,-0.919666,-4.871358,0.640106,-0.220020
36,468808878,-0.361779,0.036321,-0.152536,-0.918980,-1.244380,0.085103,2.675628
37,468842212,-0.386678,0.037363,-0.140019,-0.910754,-0.879771,-0.091685,5.582474
38,468875546,-0.424628,0.019247,-0.131702,-0.895528,-1.011867,-0.019792,2.680898
39,468908880,-0.464682,0.014077,-0.137350,-0.874644,0.547745,3.394819,1.943388
40,468942214,-0.491270,0.037441,-0.171059,-0.853221,5.170227,1.647189,2.101371
41,468975548,-0.507265,0.056197,-0.215701,-0.832461,7.239025,-2.913472,-1.201720
42,469008882,-0.526056,0.047906,-0.246517,-0.812524,4.648727,-2.126669,-3.038115
43,469042216,-0.543354,0.037417,-0.271042,-0.793660,4.276485,-1.831668,-3.162409
44,469075550,-0.564460,0.024096,-0.285972,-0.773964,3.654107,-1.714750,-3.559321
45,469108884,-0.589276,0.016439,-0.294111,-0.752315,0.856431,-1.443691,-4.062501
46,469142218,-0.618740,0.019866,-0.294464,-0.728046,0.217598,-1.283563,-3.678668
47,469175552,-0.655419,0.033446,-0.284133,-0.698979,-1.262211,-0.416749,-3.104802
48,469208886,-0.696987,0.058963,-0.264217,-0.664015,-1.460732,0.441460,-3.084288
49,469242220,-0.741194,0.092973,-0.230857,-0.623448,-2.068862,-0.650054,0.723674
50,469275554,-0.781854,0.131886,-0.194759,-0.577386,-0.468390,-0.913395,2.441311
51,469308888,-0.816711,0.163725,-0.157763,-0.530362,-1.100993,-1.595290,5.763825
52,469342222,-0.837972,0.200389,-0.135128,-0.489268,-3.177756,-4.713438,3.126822
53,469375556,-0.851434,0.223798,-0.111505,-0.461017,-2.101803,-4.223957,6.883877
54,469408890,-0.856638,0.240294,-0.107559,-0.443684,-3.130630,-3.122721,6.342667
55,469442224,-0.856924,0.251551,-0.116303,-0.434595,-3.974094,-1.823644,2.986403
56,469475558,-0.853814,0.260384,-0.126922,-0.432536,-4.719774,-1.332769,1.374539
57,469508892,-0.847169,0.269171,-0.136701,-0.437218,-4.085801,-0.738735,0.237024
58,469542226,-0.836320,0.279594,-0.146930,-0.448110,-4.662815,-1.073446,0.501414
59,469575560,-0.821505,0.290259,-0.154332,-0.465891,-4.028852,-1.396277,1.001764
60,469608894,-0.802666,0.299665,-0.159801,-0.490293,-3.035507,-1.373399,1.340611
61,469642228,-0.777869,0.310727,-0.169634,-0.519219,-1.586997,-1.142346,1.483395
62,469675562,-0.746767,0.325275,-0.188794,-0.548531,-0.369901,-0.205734,2.121925
63,469708896,-0.712622,0.336770,-0.205456,-0.580119,-1.468246,-2.652734,3.233287
64,469742230,-0.679493,0.336513,-0.205208,-0.618816,-0.205383,-3.190342,2.086544
65,469775564,-0.644673,0.333984,-0.203130,-0.656951,0.353630,-0.413951,0.376936
66,469808898,-0.606047,0.338507,-0.209254,-0.688715,0.500500,-1.326782,0.416300
67,469842232,-0.569086,0.341023,-0.213518,-0.717112,0.690217,-1.660456,0.106546
68,469875566,-0.534108,0.343126,-0.215304,-0.742046,0.897327,-1.496448,-1.123204
69,469908900,-0.502405,0.343763,-0.212459,-0.764377,1.857782,-2.130097,-0.216008
70,469942234,-0.475282,0.341836,-0.202651,-0.784973,1.590277,-0.708551,-1.613030
71,469975568,-0.448612,0.346760,-0.189803,-0.801545,3.423697,-1.480923,-0.150414
72,470008902,-0.425615,0.346529,-0.169665,-0.818522,3.710661,0.196852,-0.998132
73,470042236,-0.400021,0.354361,-0.151667,-0.831507,3.245044,0.740806,-1.463672
74,470075570,-0.372767,0.361165,-0.134485,-0.844105,4.448812,0.245123,1.623464
75,470108904,-0.342276,0.359303,-0.119967,-0.859855,2.680989,1.260688,1.568667
76,470142238,-0.301893,0.367175,-0.117730,-0.871882,2.458096,-2.322075,2.019750
77,470175572,-0.255942,0.377437,-0.121040,-0.881691,2.949879,-3.799621,1.392195
78,470208906,-0.209050,0.377754,-0.121614,-0.893759,2.855785,-1.047184,1.514490
79,470242240,-0.161435,0.373238,-0.119634,-0.905712,0.100349,3.356559,0.907030
80,470275574,-0.115325,0.368591,-0.116814,-0.914981,-3.174535,4.391657,2.066374
81,470308908,-0.077611,0.347276,-0.111612,-0.927854,-4.221931,4.499009,4.283315
82,470342242,-0.052525,0.312996,-0.107941,-0.942135,-5.580965,2.561161,2.127733
83,470375576,-0.042407,0.279791,-0.111078,-0.952668,-5.734042,2.090155,2.430231
84,470408910,-0.046589,0.248578,-0.123637,-0.959556,-4.882470,1.304400,0.332850
85,470442244,-0.058134,0.229918,-0.140825,-0.961208,-2.188446,1.057079,-0.452365
86,470475578,-0.076287,0.220173,-0.159441,-0.959311,-0.400768,1.966100,-3.086983
87,470508912,-0.093120,0.227234,-0.174635,-0.953515,2.695468,1.732012,-6.128830
88,470542246,-0.100114,0.240916,-0.181225,-0.948203,8.176504,2.744880,-5.891353
89,470575580,-0.098487,0.235480,-0.175819,-0.950753,6.494874,3.596440,-6.628893
90,470608914,-0.083108,0.228702,-0.158319,-0.956932,5.286538,2.352911,-7.417323
91,470642248,-0.060309,0.229802,-0.134460,-0.962013,4.333447,4.958593,-5.813269
92,470675582,-0.044694,0.219219,-0.115466,-0.967785,1.261345,3.756411,-1.434783
93,470708916,-0.040838,0.203829,-0.106323,-0.972356,-2.551861,0.625649,2.125104
94,470742250,-0.053156,0.187139,-0.107521,-0.974981,-5.198123,-1.353826,7.069839
95,470775584,-0.079876,0.171110,-0.120532,-0.974581,-4.928176,-1.250583,8.964081
96,470808918,-0.120188,0.129820,-0.139626,-0.974269,0.509372,-3.855285,5.539483
97,470842252,-0.181192,0.044485,-0.150056,-0.970911,-6.334673,-0.733819,2.755686
98,470875586,-0.244276,-0.018385,-0.156779,-0.956769,-4.673272,2.064470,4.785922
99,470908920,-0.294722,-0.022621,-0.167619,-0.940493,0.599162,4.237139,0.360719
100,470942254,-0.335688,-0.009077,-0.180792,-0.924414,8.313159,2.485048,-3.791251
101,470975588,-0.370084,-0.020667,-0.188088,-0.909521,10.285380,1.781615,-5.355263
102,471008922,-0.395703,-0.040626,-0.197970,-0.895864,7.471565,3.142182,-5.378517
103,471042256,-0.415078,-0.055159,-0.215069,-0.882274,6.822710,2.990694,-4.370437
104,471075590,-0.435443,-0.065275,-0.234296,-0.866735,5.496120,1.881919,-3.624081
105,471108924,-0.459912,-0.067829,-0.249872,-0.849376,3.893701,-0.185142,-1.875237
106,471142258,-0.490498,-0.062527,-0.255333,-0.830844,-1.254062,-0.711261,-2.635553
107,471175592,-0.529060,-0.057222,-0.246880,-0.809856,-0.641714,-1.250639,-1.030430
108,471208926,-0.576966,-0.052894,-0.228511,-0.782362,-1.732108,-0.775014,0.237522
109,471242260,-0.630760,-0.045037,-0.203082,-0.747573,-3.101190,-1.180444,-0.729569
110,471275594,-0.685588,-0.028423,-0.173514,-0.706434,-0.612027,0.078850,1.093925
111,471308928,-0.734749,-0.003154,-0.148630,-0.661845,0.892338,-1.476766,1.302850
112,471342262,-0.775538,0.028617,-0.133450,-0.616367,1.518926,-6.115134,1.565578
113,471375596,-0.809395,0.056764,-0.124639,-0.571067,-1.848518,-2.629252,1.739968
114,471408930,-0.837947,0.085953,-0.116300,-0.526238,-4.104179,-3.094412,-0.234902
115,471442264,-0.855221,0.110929,-0.102203,-0.495824,-3.269187,-4.892671,2.655815
116,471475598,-0.862423,0.130326,-0.097329,-0.479337,-2.824991,-3.131371,3.311611
117,471508932,-0.863335,0.145002,-0.102172,-0.472422,-3.836297,-2.579457,3.359929
118,471542266,-0.860421,0.155828,-0.108021,-0.472991,-3.772518,-0.993636,0.842190
119,471575600,-0.853136,0.168700,-0.117357,-0.479502,-3.257190,-0.457972,0.057329
120,471608934,-0.840190,0.188507,-0.133572,-0.490611,-2.617233,-0.020131,0.530230
121,471642268,-0.815299,0.222087,-0.167376,-0.507882,-3.726346,-2.857792,0.921167
122,471675602,-0.783396,0.252873,-0.191580,-0.534450,-3.409543,-5.026406,3.495664
123,471708936,-0.751662,0.269750,-0.195507,-0.569220,-1.416067,-1.468161,2.086287
124,471742270,-0.715715,0.284786,-0.201039,-0.605168,-1.162548,-0.890306,1.188620
125,471775604,-0.673491,0.308250,-0.219140,-0.635110,-0.608710,0.256676,2.196731
126,471808938,-0.631308,0.330508,-0.238116,-0.659932,-0.706569,-0.006726,1.520636
127,471842272,-0.591638,0.345984,-0.249161,-0.684232,-1.124879,-1.010643,2.550180
128,471875606,-0.558225,0.348702,-0.245469,-0.711710,-0.547744,-0.079806,0.369068
129,471908940,-0.529154,0.348917,-0.234836,-0.736953,0.571889,-0.542722,-2.120968
130,471942274,-0.504057,0.355415,-0.222186,-0.755139,1.259601,0.677702,-2.783721
131,471975608,-0.481309,0.372323,-0.211726,-0.764778,3.068935,0.046732,-1.387751
132,472008942,-0.458720,0.398723,-0.204492,-0.767316,4.761092,0.790414,-0.820933
133,472042276,-0.438140,0.415850,-0.193915,-0.772977,8.255832,-0.110687,4.210637
134,472075610,-0.409361,0.426311,-0.178367,-0.786678,6.058037,-3.545886,-0.576753
135,472108944,-0.365664,0.441699,-0.157744,-0.803930,4.303444,-2.654143,1.721156
136,472142278,-0.314451,0.449072,-0.133767,-0.825564,0.194965,-0.850582,3.913508
137,472175612,-0.262704,0.447506,-0.115390,-0.846998,-3.705457,0.000269,5.662152
138,472208946,-0.218342,0.431688,-0.107663,-0.868548,-5.780191,1.410559,5.396995
139,472242280,-0.185376,0.408559,-0.112822,-0.886556,-6.284735,2.823763,5.403440
140,472275614,-0.170199,0.383035,-0.129727,-0.898600,-5.001720,2.366188,1.056084
141,472308948,-0.170303,0.364693,-0.150743,-0.902922,-1.573866,0.969376,-3.174095
142,472342282,-0.186639,0.341794,-0.164873,-0.906175,0.294047,1.002013,-4.795753
143,472375616,-0.209725,0.330308,-0.173215,-0.903827,1.204254,2.473457,-6.313055
144,472408950,-0.220776,0.343240,-0.180824,-0.894842,6.691556,3.008009,-3.045679
145,472442284,-0.215042,0.360352,-0.181104,-0.889438,9.390269,1.803676,-3.968020
146,472475618,-0.196364,0.358638,-0.161962,-0.898100,8.692780,-1.115123,-2.947579
147,472508952,-0.164834,0.353581,-0.133791,-0.910991,3.174421,0.257788,1.527010
148,472542286,-0.133119,0.348186,-0.113194,-0.920993,-1.156706,-0.007301,4.802949
149,472575620,-0.110723,0.316713,-0.105380,-0.936122,-1.390416,0.594990,6.574121
150,472608954,-0.103128,0.262065,-0.115096,-0.952593,-4.840812,2.084005,4.816619
151,472642288,-0.113706,0.196962,-0.138527,-0.963889,-4.585600,2.302655,0.835760
152,472675622,-0.140312,0.137667,-0.166649,-0.966221,-4.357245,2.329985,-1.389893
153,472708956,-0.173839,0.104074,-0.194327,-0.959781,-2.770673,3.715871,-3.967327
154,472742290,-0.200866,0.107573,-0.219894,-0.948537,0.821014,3.855567,-5.979407
155,472775624,-0.219786,0.135653,-0.240495,-0.935654,3.937829,4.259138,-7.820148
156,472808958,-0.235377,0.158421,-0.251928,-0.925218,6.940922,4.271388,-6.581403
157,472842292,-0.249098,0.163760,-0.257314,-0.919194,6.000122,3.967206,-4.514384
158,472875626,-0.262155,0.162771,-0.265361,-0.913433,5.401604,3.995257,-1.472480
159,472908960,-0.280519,0.154332,-0.279477,-0.905195,4.156750,3.218763,0.045798
160,472942294,-0.306586,0.139102,-0.299094,-0.892857,3.699496,1.190723,1.787467
161,472975628,-0.340599,0.117158,-0.320593,-0.876060,3.588515,-0.135206,2.871006
162,473008962,-0.381026,0.089860,-0.341319,-0.854541,2.896372,-1.591217,2.924087
163,473042296,-0.427059,0.055341,-0.358654,-0.828203,2.762649,-1.585016,0.956374
164,473075630,-0.478927,0.019470,-0.371337,-0.795206,-1.137820,-3.488748,1.024067
165,473108964,-0.537731,-0.016176,-0.370719,-0.757064,-0.528329,-4.014643,-0.551816
166,473142298,-0.603180,-0.053532,-0.352858,-0.713298,-4.012743,-2.476635,-1.943810
167,473175632,-0.667167,-0.079068,-0.321336,-0.667364,-5.640891,-0.369546,-2.508846
168,473208966,-0.722352,-0.081211,-0.287027,-0.623878,-4.409160,0.092742,-2.213627
169,473242300,-0.769806,-0.065399,-0.254151,-0.581828,-4.349114,-0.034245,-0.391279
170,473275634,-0.812167,-0.039605,-0.220212,-0.538811,-6.082317,-0.244184,-2.717100
171,473308968,-0.850642,-0.008428,-0.173812,-0.496106,-5.113249,1.029750,-2.484916
172,473342302,-0.878659,0.036272,-0.131319,-0.457594,-0.806813,-1.497228,1.860945
173,473375636,-0.892354,0.087496,-0.112260,-0.428300,1.318172,-8.399901,6.929127
174,473408970,-0.895582,0.122440,-0.110407,-0.413215,0.794375,-9.066967,5.837551
175,473442304,-0.891186,0.138090,-0.116030,-0.416233,-1.618647,-6.819301,5.165345
176,473475638,-0.881494,0.142503,-0.121762,-0.433395,-3.187192,-2.929567,2.150305
177,473508972,-0.866751,0.148673,-0.130306,-0.457881,-2.701431,-1.584757,0.557473
178,473542306,-0.848201,0.156967,-0.140465,-0.485985,-2.252011,-2.050228,1.213812
179,473575640,-0.826327,0.166767,-0.150866,-0.516340,-1.797968,-1.381139,0.069024
180,473608974,-0.799072,0.181803,-0.166162,-0.548467,-1.368565,-1.618145,0.226187
181,473642308,-0.769238,0.194945,-0.176881,-0.582218,-1.392453,-2.735751,1.006692
182,473675642,-0.737384,0.205955,-0.182801,-0.616787,-0.165640,-1.112871,1.056141
183,473708976,-0.703666,0.217570,-0.188327,-0.649650,0.143212,-1.344280,1.845309
184,473742310,-0.670441,0.225190,-0.189955,-0.680963,0.770326,-0.529142,1.203563
185,473775644,-0.635599,0.234581,-0.193319,-0.709654,2.041592,-0.807777,0.853294
186,473808978,-0.600053,0.245951,-0.195982,-0.735548,2.465046,-0.315185,-0.451880
187,473842312,-0.563176,0.267295,-0.196704,-0.756762,1.557671,-0.417165,-4.209129
188,473875646,-0.522987,0.301067,-0.193681,-0.773515,3.158529,-1.041977,-1.385919
189,473908980,-0.481596,0.334862,-0.185688,-0.788320,5.285255,0.619197,2.027804
190,473942314,-0.437594,0.364312,-0.178610,-0.802422,5.726126,2.041993,1.665401
191,473975648,-0.385422,0.398087,-0.176630,-0.813495,4.040687,0.172837,1.769481
192,474008982,-0.333109,0.419500,-0.165128,-0.828122,2.894355,0.224287,1.509277
193,474042316,-0.286356,0.420646,-0.145220,-0.848506,0.133911,2.798508,1.820542
194,474075650,-0.243222,0.417447,-0.130189,-0.865810,-3.972018,5.671202,0.449505
195,474108984,-0.207452,0.411972,-0.126317,-0.878226,-3.631003,2.871716,5.483941
196,474142318,-0.189189,0.392078,-0.128776,-0.891007,-7.928184,2.338443,3.479736
197,474175652,-0.187608,0.368812,-0.141260,-0.899345,-7.709031,1.438357,5.342743
198,474208986,-0.192981,0.354634,-0.166068,-0.899672,-3.971103,0.927248,3.722445
199,474242320,-0.199984,0.349709,-0.200183,-0.893102,-0.767999,0.531756,0.289141
200,474275654,-0.209548,0.348666,-0.235022,-0.882769,3.318945,-0.456112,-1.492726
201,474308988,-0.215525,0.356025,-0.261842,-0.870763,3.150718,-2.561666,-5.425976
202,474342322,-0.212813,0.370957,-0.268863,-0.863023,5.765476,-3.755740,-4.873827
203,474375656,-0.212244,0.359043,-0.248659,-0.874188,8.505167,-1.714574,-2.074251
204,474408990,-0.206016,0.330072,-0.216659,-0.895357,2.545683,1.842940,-2.980050
205,474442324,-0.190952,0.305089,-0.190240,-0.913379,3.521260,0.223620,2.266479
206,474475658,-0.176075,0.272327,-0.173866,-0.929839,-1.035371,2.375969,1.418999
207,474508992,-0.163194,0.246284,-0.174217,-0.939338,-2.819207,3.087090,2.057166
208,474542326,-0.156439,0.227277,-0.189226,-0.942370,-2.764423,2.559010,0.644570
209,474575660,-0.161505,0.207030,-0.211492,-0.941446,-1.944637,2.106506,-1.361437
210,474608994,-0.182147,0.176900,-0.235104,-0.938216,-1.013696,2.070775,-3.977942
211,474642328,-0.213505,0.145568,-0.255634,-0.931596,-0.312071,3.147085,-5.420255
212,474675662,-0.240558,0.138768,-0.277035,-0.919849,0.891767,3.983207,-7.114588
213,474708996,-0.252860,0.159425,-0.298758,-0.906302,6.582581,1.436656,-4.864246
214,474742330,-0.257484,0.172005,-0.311198,-0.898481,7.649082,3.251308,-4.210788
215,474775664,-0.252746,0.175282,-0.323011,-0.895017,7.972832,3.029363,-1.296573
216,474808998,-0.244955,0.170221,-0.339488,-0.892056,6.167981,2.482927,0.533094
217,474842332,-0.244549,0.156563,-0.360027,-0.886600,3.627860,0.648129,2.695575
218,474875666,-0.257168,0.134594,-0.382363,-0.877236,0.656265,0.278895,1.887037
219,474909000,-0.281215,0.108859,-0.404725,-0.863285,0.145072,-1.349874,3.602648
220,474942334,-0.316781,0.079135,-0.422697,-0.845406,-1.632322,-1.626638,2.702022
221,474975668,-0.359111,0.050225,-0.435692,-0.823823,-1.284500,-1.498745,1.095284
222,475009002,-0.408522,0.021466,-0.442023,-0.798285,-2.539760,-1.425812,1.059731
223,475042336,-0.462648,-0.004179,-0.441481,-0.768784,-2.410457,-0.991496,0.180496
224,475075670,-0.520534,-0.026506,-0.432851,-0.735511,-3.187640,-1.426939,-0.626059
225,475109004,-0.581460,-0.045278,-0.412911,-0.699538,-4.610461,0.033304,-2.041215
226,475142338,-0.642983,-0.055834,-0.380876,-0.662106,-4.439165,0.671082,-1.794270
227,475175672,-0.702918,-0.057059,-0.339627,-0.622334,-2.876295,1.440157,-0.838124
228,475209006,-0.761998,-0.055361,-0.291378,-0.575663,-0.938804,1.312084,-1.325678
229,475242340,-0.810942,-0.040890,-0.248445,-0.528176,-0.791140,-0.281947,-0.948563
230,475275674,-0.850619,-0.022668,-0.200697,-0.485437,-2.935248,-5.389146,1.971673
231,475309008,-0.877630,0.005219,-0.157984,-0.452521,1.019756,-0.681745,-2.008602
232,475342342,-0.887909,0.045764,-0.146370,-0.433698,1.510254,-7.653264,2.342073
233,475375676,-0.889490,0.074483,-0.142863,-0.427604,-1.226811,-7.363444,4.072696
234,475409010,-0.885544,0.093611,-0.142291,-0.432200,-2.005841,-4.740802,3.522402
235,475442344,-0.877604,0.108042,-0.147004,-0.443309,-2.923805,-2.151841,1.394965
236,475475678,-0.865022,0.124086,-0.156970,-0.460103,-3.819056,-2.167879,0.309756
237,475509012,-0.849221,0.139284,-0.162098,-0.482849,-3.477232,-2.751637,0.720753
238,475542346,-0.829700,0.154726,-0.165229,-0.510247,-2.306457,-1.862395,0.575203
239,475575680,-0.804071,0.175053,-0.174626,-0.540673,-1.913910,-1.745163,0.717716
240,475609014,-0.773738,0.196533,-0.184237,-0.573372,-2.221473,-2.827762,1.174349
241,475642348,-0.740003,0.217578,-0.189601,-0.607538,-1.068035,-1.266799,0.664530
242,475675682,-0.704061,0.237993,-0.194247,-0.640250,-0.332261,-2.400266,2.053378
243,475709016,-0.670824,0.250672,-0.190277,-0.671527,0.172418,-0.973121,0.502346
244,475742350,-0.635152,0.271420,-0.190148,-0.697676,0.249827,0.165861,-1.467267
245,475775684,-0.599439,0.294923,-0.188031,-0.719953,1.764203,-1.746678,1.455760
246,475809018,-0.566002,0.315685,-0.176779,-0.740762,2.788124,0.228048,0.072475
247,475842352,-0.530502,0.340457,-0.165776,-0.758399,6.719631,-0.717559,3.484145
248,475875686,-0.491990,0.355577,-0.153130,-0.779780,8.237397,-0.400853,2.204012
249,475909020,-0.444750,0.372624,-0.145014,-0.801446,6.048477,0.215175,-0.129722
250,475942354,-0.380859,0.413896,-0.146965,-0.813654,4.434685,0.739425,-0.849737
251,475975688,-0.312413,0.460397,-0.144250,-0.818303,3.174692,0.975198,0.948659
252,476009022,-0.250952,0.485729,-0.126469,-0.827703,0.399863,2.521904,1.569146
253,476042356,-0.197985,0.488842,-0.100604,-0.843629,-5.445118,3.951088,3.495560
254,476075690,-0.160334,0.461032,-0.074744,-0.869569,-7.738902,2.480017,6.270962
255,476109024,-0.141306,0.417658,-0.063191,-0.895319,-9.965684,2.762490,5.363260
256,476142358,-0.139697,0.390242,-0.073596,-0.907069,-6.655152,1.481508,3.899564
257,476175692,-0.150989,0.371794,-0.099900,-0.910487,-2.334783,1.132346,0.767795
258,476209026,-0.166859,0.364499,-0.135244,-0.906092,0.707046,0.510113,-1.226177
259,476242360,-0.182437,0.364487,-0.170256,-0.897148,3.947710,-0.603864,-2.576500
260,476275694,-0.195634,0.368024,-0.197842,-0.887209,7.220957,0.085425,-4.317777
261,476309028,-0.198810,0.374890,-0.217449,-0.879001,7.023718,-1.514561,-4.593334
262,476342362,-0.195096,0.371263,-0.220663,-0.880570,6.651048,-2.447537,-5.354042
263,476375696,-0.184200,0.359702,-0.208218,-0.890688,5.219138,-2.297220,-3.273674
264,476409030,-0.168563,0.344624,-0.184325,-0.904898,2.238361,-0.619337,-3.528439
265,476442364,-0.149765,0.329681,-0.153076,-0.919480,0.107241,1.554079,-2.017808
266,476475698,-0.132143,0.316437,-0.123711,-0.931180,-1.759272,4.093306,-0.535463
267,476509032,-0.116747,0.310413,-0.102289,-0.937841,-2.589021,5.634809,0.744380
268,476542366,-0.110015,0.301623,-0.093860,-0.942394,-4.345688,6.051913,1.328674
269,476575700,-0.115847,0.294007,-0.097430,-0.943738,-5.254858,3.767259,2.919008
270,476609034,-0.145654,0.272126,-0.111545,-0.944608,-5.759113,2.334749,4.114788
271,476642368,-0.205107,0.222764,-0.128506,-0.944346,-4.117496,0.703005,2.752236
272,476675702,-0.287578,0.148872,-0.133995,-0.936577,-3.916593,1.398173,1.863057
273,476709036,-0.367532,0.097374,-0.132076,-0.915417,0.165305,3.015765,2.951311
274,476742370,-0.431077,0.078161,-0.132853,-0.889049,6.139974,2.142751,2.334244
275,476775704,-0.472498,0.087436,-0.147865,-0.864425,9.868222,0.831893,-1.379671
276,476809038,-0.489556,0.083143,-0.168928,-0.851399,9.385098,-3.457320,-1.421241
277,476842372,-0.497036,0.056001,-0.186785,-0.845533,5.563976,-1.390487,-2.083957
278,476875706,-0.498787,0.028127,-0.207461,-0.841056,4.112114,-0.289687,-3.850614
279,476909040,-0.499959,-0.000983,-0.227061,-0.835750,3.258557,0.363507,-4.330833
280,476942374,-0.500294,-0.027190,-0.245039,-0.830010,2.155838,-0.752387,-3.383125
281,476975708,-0.507136,-0.056330,-0.257315,-0.820624,2.043449,0.153699,-3.281816
282,477009042,-0.523917,-0.086534,-0.265694,-0.804626,1.037672,-0.011711,-3.275340
283,477042376,-0.551235,-0.109106,-0.271099,-0.781496,-0.325204,0.707242,-2.614660
284,477075710,-0.590776,-0.124176,-0.270410,-0.749958,-1.684506,-0.355139,-1.744140
285,477109044,-0.636706,-0.126742,-0.262504,-0.713883,-2.575941,0.518736,-1.816079
286,477142378,-0.683308,-0.115768,-0.248436,-0.676729,-2.926215,-0.816222,-1.000694
287,477175712,-0.727995,-0.096586,-0.226038,-0.639997,-2.234471,-0.258883,0.509692
288,477209046,-0.765060,-0.066166,-0.208845,-0.605544,-2.024942,-2.608232,1.851784
289,477242380,-0.795662,-0.035348,-0.191750,-0.573498,-2.755901,-3.253881,2.516165
290,477275714,-0.822225,-0.010699,-0.169789,-0.543137,-3.580751,-0.948362,1.935277
291,477309048,-0.844175,0.017267,-0.148284,-0.514857,-2.771173,-1.463113,0.359130
292,477342382,-0.860818,0.044221,-0.127476,-0.490696,0.206724,-3.317817,2.496181
293,477375716,-0.870682,0.069415,-0.117722,-0.472474,0.265866,-3.833974,3.016755
294,477409050,-0.873471,0.090916,-0.120912,-0.462773,-0.379918,-4.443633,3.626139
295,477442384,-0.870696,0.106823,-0.131558,-0.461698,-2.159636,-4.147765,1.951510
296,477475718,-0.863773,0.118666,-0.142039,-0.468652,-2.648974,-2.873295,1.450142
297,477509052,-0.852120,0.130736,-0.155156,-0.482411,-2.848105,-2.370982,1.645273
298,477542386,-0.836876,0.141420,-0.165705,-0.502171,-2.485137,-2.251230,1.083861
299,477575720,-0.816543,0.154476,-0.178682,-0.526747,-1.446883,-1.376585,0.585304
300,477609054,-0.790551,0.171813,-0.196690,-0.553911,-1.994871,-2.530571,0.744813
301,477642388,-0.763182,0.185868,-0.207442,-0.583068,-1.341218,-2.391720,0.817465
302,477675722,-0.733304,0.199810,-0.216774,-0.612654,-0.673606,-0.706456,1.020156
303,477709056,-0.699961,0.215290,-0.226857,-0.642056,-0.639306,-1.130926,1.114772
304,477742390,-0.666360,0.229322,-0.232594,-0.670276,-0.776278,0.831425,0.522969
305,477775724,-0.631758,0.248585,-0.238223,-0.694502,-1.075864,0.771929,-0.805281
306,477809058,-0.595268,0.273281,-0.241469,-0.716004,0.634359,-2.489777,1.186204
307,477842392,-0.564475,0.292229,-0.234729,-0.735437,0.577190,0.819881,-1.475961
308,477875726,-0.535768,0.316515,-0.227395,-0.749038,2.139424,0.129832,0.396074
309,477909060,-0.506278,0.341461,-0.220199,-0.760654,4.528111,-0.558760,2.333812
310,477942394,-0.476292,0.358474,-0.206020,-0.776011,4.989516,-1.745365,-0.347818
311,477975728,-0.439289,0.373262,-0.189767,-0.794785,6.018905,0.544568,0.630223
312,478009062,-0.397286,0.390190,-0.178854,-0.811123,1.998228,3.877616,1.129216
313,478042396,-0.358335,0.402674,-0.168177,-0.825325,-1.341297,4.123329,-0.100932
314,478075730,-0.330851,0.404780,-0.160158,-0.837278,-4.072499,3.824238,4.095128
315,478109064,-0.323107,0.392957,-0.160716,-0.845785,-8.020045,5.716598,2.898345
316,478142398,-0.328113,0.389646,-0.177697,-0.841984,-6.511279,3.082141,3.794674
317,478175732,-0.341742,0.385807,-0.200738,-0.833105,-2.714417,0.953995,2.976974
318,478209066,-0.357632,0.381507,-0.226268,-0.821797,-0.698179,-0.387994,2.103093
319,478242400,-0.371186,0.381439,-0.252622,-0.808024,1.565847,-3.981257,1.725733
320,478275734,-0.371543,0.395770,-0.279325,-0.792019,4.383559,-7.380937,3.630639
321,478309068,-0.367439,0.406545,-0.295226,-0.782653,5.202801,-5.089271,2.523855
322,478342402,-0.353788,0.408175,-0.296685,-0.787528,8.336371,-3.454871,-1.531188
323,478375736,-0.326246,0.400628,-0.285601,-0.807148,9.517556,-1.936516,-3.314114
324,478409070,-0.289999,0.381828,-0.265912,-0.836297,4.424783,1.947276,-7.008784
325,478442404,-0.245207,0.370340,-0.247575,-0.861060,3.201855,1.788509,-5.129359
326,478475738,-0.198752,0.360824,-0.227823,-0.882267,1.001844,4.307143,-4.589663
327,478509072,-0.157364,0.346321,-0.210507,-0.900544,-3.090947,7.497905,-2.785987
328,478542406,-0.126266,0.337591,-0.202977,-0.910431,-10.545244,6.354609,-3.100727
329,478575740,-0.118041,0.352158,-0.205179,-0.905510,-9.670630,2.982183,-2.482625
330,478609074,-0.130652,0.368409,-0.212064,-0.895672,-2.865625,3.509620,0.082300
331,478642408,-0.177863,0.348102,-0.209876,-0.896179,-1.387992,1.943371,-1.187767
332,478675742,-0.234552,0.305000,-0.199540,-0.901187,3.224913,2.065517,0.502848
333,478709076,-0.290340,0.259022,-0.186675,-0.902085,3.447290,4.546479,-1.090132
334,478742410,-0.331204,0.241772,-0.190185,-0.892006,4.120196,5.985820,1.871248
335,478775744,-0.351511,0.250131,-0.219826,-0.874955,6.910897,3.682360,0.974306
336,478809078,-0.370926,0.239720,-0.253644,-0.860586,8.214073,-0.643982,0.781748
337,478842412,-0.395437,0.209287,-0.282234,-0.848627,4.833798,-0.321591,-0.811558
338,478875746,-0.417078,0.183616,-0.313619,-0.833048,4.464034,-0.916272,-0.351783
339,478909080,-0.434271,0.167549,-0.346672,-0.814340,3.968902,-2.524151,0.607633
340,478942414,-0.452055,0.152194,-0.375937,-0.794449,1.417543,-2.035168,0.835340
341,478975748,-0.478724,0.126345,-0.395565,-0.773552,-0.101105,-2.387544,-0.247343
342,479009082,-0.516256,0.093536,-0.403038,-0.749857,-3.551592,-2.644382,-0.860224
343,479042416,-0.560652,0.064107,-0.400336,-0.722001,-3.872702,-1.217646,-2.158751
344,479075750,-0.611926,0.041824,-0.387827,-0.688028,-4.540138,0.653313,-3.388386
345,479109084,-0.661541,0.037472,-0.374315,-0.648725,-2.374649,0.575566,-3.379400
346,479142418,-0.700852,0.059191,-0.369258,-0.607409,-1.423444,-0.094418,-3.564072
347,479175752,-0.735373,0.094090,-0.367215,-0.561713,-3.211591,-4.050568,-0.322883
348,479209086,-0.778968,0.116544,-0.338628,-0.514736,-0.996202,-1.913420,0.590772
349,479242420,-0.805083,0.148455,-0.325790,-0.472926,-1.043325,-1.356800,2.454292
350,479275754,-0.824411,0.177069,-0.311233,-0.438317,-2.454476,-6.413956,3.543821
351,479309088,-0.835424,0.200120,-0.296384,-0.417336,-0.805325,-4.076967,2.793478
352,479342422,-0.837343,0.217774,-0.291462,-0.408014,-1.830918,-4.040574,4.118622
353,479375756,-0.834730,0.228777,-0.290381,-0.408118,-3.138135,-1.958017,2.463243
354,479409090,-0.829151,0.237074,-0.289264,-0.415483,-3.984315,-0.989778,1.500768
355,479442424,-0.819975,0.245712,-0.287686,-0.429533,-4.081930,-1.176022,1.522036
356,479475758,-0.805956,0.255841,-0.286927,-0.450164,-3.551584,-1.773010,2.174397
357,479509092,-0.785541,0.267523,-0.289451,-0.477043,-2.866693,-1.871148,2.544216
358,479542426,-0.760241,0.277646,-0.293730,-0.508590,-2.576330,-1.734178,2.184294
359,479575760,-0.730249,0.287231,-0.299893,-0.542489,-2.375169,-1.603709,1.251586
360,479609094,-0.697123,0.296703,-0.305735,-0.576635,-2.188406,-2.260128,1.530469
361,479642428,-0.666258,0.301049,-0.303117,-0.611216,-0.603914,-2.221580,0.996507
362,479675762,-0.637595,0.301801,-0.293897,-0.644987,1.113187,-1.401358,-0.380492
363,479709096,-0.605493,0.312055,-0.287806,-0.673174,1.833652,-0.278121,-2.237963
364,479742430,-0.568831,0.333828,-0.282994,-0.696348,4.829303,-2.212663,1.323612
365,479775764,-0.542167,0.338920,-0.260582,-0.723381,6.985627,0.127609,1.114243
366,479809098,-0.516953,0.336429,-0.237348,-0.750491,7.671714,2.696623,-1.386512
367,479842432,-0.489067,0.336536,-0.225096,-0.772582,3.635799,5.428006,-2.616377
368,479875766,-0.467749,0.340266,-0.221797,-0.785004,0.260973,6.872410,-0.819949
369,479909100,-0.461471,0.340686,-0.227267,-0.786970,-4.574548,5.850750,0.110098
370,479942434,-0.469427,0.343208,-0.244156,-0.776034,-6.466131,2.529766,2.014131
371,479975768,-0.480427,0.349114,-0.270327,-0.757778,-3.134923,-0.511062,5.342595
372,480009102,-0.488859,0.349742,-0.297703,-0.741664,0.384427,-3.165476,4.988193
373,480042436,-0.487516,0.346502,-0.322142,-0.733815,2.624342,-5.593850,2.304063
374,480075770,-0.476777,0.340440,-0.331932,-0.739324,4.151293,-7.909411,0.560069
375,480109104,-0.453305,0.333671,-0.320244,-0.761982,5.786845,-5.642458,-2.643134
376,480142438,-0.413696,0.333095,-0.298099,-0.793118,5.309076,-4.412483,-4.430284
377,480175772,-0.366941,0.336980,-0.268337,-0.824493,3.287786,-1.256730,-2.575274
378,480209106,-0.323056,0.330185,-0.234144,-0.855444,0.252059,2.190903,0.897071
379,480242440,-0.285260,0.319569,-0.211107,-0.878596,-3.626162,5.350492,2.462403
380,480275774,-0.260432,0.303427,-0.203370,-0.893724,-4.847858,4.996843,5.492940
381,480309108,-0.251956,0.277882,-0.207945,-0.903357,-3.993748,5.744726,4.279678
382,480342442,-0.258001,0.251146,-0.221480,-0.906258,-4.826388,1.880466,3.467618
383,480375776,-0.278508,0.228293,-0.234796,-0.902874,-3.281118,0.795307,0.585905
384,480409110,-0.301215,0.224875,-0.250647,-0.892117,1.019180,3.220912,-0.755391
385,480442444,-0.323979,0.226400,-0.268286,-0.878520,4.285940,2.373666,-3.443714
386,480475778,-0.348459,0.211776,-0.272773,-0.871388,5.187946,1.965128,-6.418493
387,480509112,-0.353907,0.214462,-0.276483,-0.867357,6.689334,2.723090,-7.494526
388,480542446,-0.346489,0.213385,-0.278782,-0.869878,7.299943,2.912371,-6.677124
389,480575780,-0.332873,0.202878,-0.281184,-0.876907,6.035703,3.868619,-5.949966
390,480609114,-0.319601,0.186237,-0.286340,-0.883841,5.002369,4.256938,-3.733951
391,480642448,-0.316143,0.161566,-0.295162,-0.887031,1.711937,5.285872,-3.272711
392,480675782,-0.320497,0.144200,-0.310573,-0.883192,0.743878,2.624726,-1.353371
393,480709116,-0.344548,0.120424,-0.320782,-0.874001,-0.136794,0.917522,-1.076933
394,480742450,-0.391612,0.091255,-0.323122,-0.856680,-2.557764,-0.074309,4.022449
395,480775784,-0.441176,0.072596,-0.325773,-0.833043,0.893788,1.019717,3.180809
396,480809118,-0.492723,0.061982,-0.329493,-0.803002,-1.061234,-1.804587,5.004611
397,480842452,-0.540455,0.056383,-0.336860,-0.768928,2.438922,-1.209347,4.327404
398,480875786,-0.585705,0.042423,-0.343998,-0.732673,2.342160,-4.507424,2.183234
399,480909120,-0.633248,0.018274,-0.340915,-0.694575,-0.376317,-1.470463,0.005409
400,480942454,-0.686064,-0.005207,-0.325783,-0.650500,-3.968047,0.176539,-2.985488
401,480975788,-0.737880,-0.016098,-0.302657,-0.603049,-2.700596,-1.067223,-0.917382
402,481009122,-0.785100,-0.018947,-0.272877,-0.555690,-5.061074,-0.223124,-1.907221
403,481042456,-0.826306,-0.011522,-0.237293,-0.510659,-5.117528,0.511763,-1.797350
404,481075790,-0.860548,0.007743,-0.201773,-0.467633,-5.868714,0.113198,-1.195765
405,481109124,-0.886881,0.035181,-0.158251,-0.432614,-2.102108,-3.392378,1.994823
406,481142458,-0.898661,0.072833,-0.137560,-0.410094,1.633134,-6.630081,2.834046
407,481175792,-0.899493,0.103460,-0.137779,-0.401522,1.076348,-9.237211,3.952874
408,481209126,-0.894668,0.115497,-0.141352,-0.407730,-1.563709,-6.812296,2.838202
409,481242460,-0.886673,0.118942,-0.143627,-0.423119,-3.533976,-2.259450,0.186218
410,481275794,-0.873970,0.128141,-0.152269,-0.443357,-3.963783,-1.628666,0.111816
411,481309128,-0.855370,0.144364,-0.166602,-0.468764,-3.552012,-2.212354,0.661913
412,481342462,-0.832998,0.161196,-0.179076,-0.498053,-2.907092,-1.581415,0.484222
413,481375796,-0.806040,0.181006,-0.191845,-0.529837,-3.312779,-1.386851,0.766005
414,481409130,-0.775250,0.200742,-0.201725,-0.563908,-2.248784,-1.616483,2.637639
415,481442464,-0.743376,0.214227,-0.205371,-0.599429,-1.247561,-1.443458,2.550141
416,481475798,-0.710131,0.224225,-0.206263,-0.634734,-0.388104,-0.571187,1.423503
417,481509132,-0.674218,0.238123,-0.210042,-0.666787,-0.076528,-0.299953,0.009225
418,481542466,-0.638311,0.254669,-0.212312,-0.694709,0.961425,-1.133025,-1.645042
419,481575800,-0.606011,0.273804,-0.211667,-0.716223,1.686996,-1.284321,-1.496921
420,481609134,-0.578157,0.291836,-0.204878,-0.733884,4.265736,-1.325247,1.019277
421,481642468,-0.546444,0.319359,-0.206155,-0.746260,6.451707,1.925804,1.492290
422,481675802,-0.509151,0.351591,-0.215574,-0.755428,7.827583,1.946193,0.291559
423,481709136,-0.470975,0.372303,-0.214241,-0.770499,5.668552,-2.064493,-2.127505
424,481742470,-0.425908,0.395418,-0.202045,-0.788302,4.886304,1.053091,-2.333332
425,481775804,-0.382083,0.413138,-0.179300,-0.806955,3.301085,3.037743,-0.367861
426,481809138,-0.340278,0.426931,-0.150496,-0.824188,-0.909133,6.865564,-1.840500
427,481842472,-0.305735,0.441063,-0.122234,-0.834891,-3.105680,7.611294,1.929708
428,481875806,-0.292462,0.439130,-0.096698,-0.843964,-7.271399,6.775388,3.031875
429,481909140,-0.297268,0.443685,-0.089267,-0.840715,-11.323252,3.613933,3.903891
430,481942474,-0.315042,0.456365,-0.103873,-0.825642,-9.055315,-0.218982,5.805755
431,481975808,-0.338551,0.456092,-0.130578,-0.812593,-4.744556,-3.160324,4.384547
432,482009142,-0.359747,0.446913,-0.162782,-0.802712,-1.722393,-3.978588,3.706523
433,482042476,-0.389094,0.422319,-0.187776,-0.796861,-2.043423,-7.162481,2.434222
434,482075810,-0.419569,0.407197,-0.207856,-0.784183,0.436848,-4.308739,-0.545439
435,482109144,-0.429210,0.427396,-0.238324,-0.759150,6.410326,-5.896891,1.430528
436,482142478,-0.422889,0.443152,-0.256259,-0.747735,8.641451,-3.982479,0.280548
437,482175812,-0.402772,0.438062,-0.253757,-0.762548,10.502645,-2.340233,-1.775072
438,482209146,-0.366412,0.426842,-0.242552,-0.790387,7.112223,-0.418604,-4.870166
439,482242480,-0.317904,0.423159,-0.224285,-0.818269,4.105069,-0.612058,-3.187410
440,482275814,-0.268227,0.411683,-0.198016,-0.848149,0.740276,1.010717,0.416501
441,482309148,-0.225196,0.389300,-0.174431,-0.875957,-2.319359,1.763324,0.481233
442,482342482,-0.193280,0.357152,-0.162841,-0.899201,-3.508795,4.622172,4.304205
443,482375816,-0.172881,0.331525,-0.171912,-0.911397,-5.236268,4.141113,2.656133
444,482409150,-0.164305,0.315958,-0.193710,-0.914136,-3.558221,3.277365,-0.585609
445,482442484,-0.167882,0.307381,-0.218862,-0.910729,-2.257621,3.085583,-3.897670
446,482475818,-0.172895,0.316715,-0.241642,-0.900779,1.204791,1.718086,-5.035413
447,482509152,-0.172937,0.334735,-0.255033,-0.890505,4.543452,2.778157,-6.893840
448,482542486,-0.170368,0.346244,-0.260021,-0.885141,4.910488,4.427025,-6.052829
449,482575820,-0.168994,0.341047,-0.260301,-0.887337,4.970099,4.999514,-4.520146
450,482609154,-0.164772,0.330192,-0.262118,-0.891691,4.751463,6.734445,-3.243342
451,482642488,-0.159434,0.312395,-0.268733,-0.897088,4.879767,5.205926,-4.866994
452,482675822,-0.155245,0.299301,-0.279663,-0.898944,5.450084,5.527602,-3.569415
453,482709156,-0.172410,0.279040,-0.293355,-0.897970,1.845904,2.792539,-1.743695
454,482742490,-0.213049,0.267374,-0.307379,-0.888051,-1.628021,2.614024,-0.599953
455,482775824,-0.267668,0.278293,-0.324590,-0.863449,0.186387,0.016471,4.434939
456,482809158,-0.339958,0.277179,-0.336317,-0.833359,1.145425,-1.126369,8.349709
457,482842492,-0.412775,0.264452,-0.346036,-0.799960,0.867446,-3.150042,8.150787
458,482875826,-0.476755,0.242775,-0.357139,-0.765645,0.785373,-3.542622,5.490027
459,482909160,-0.538910,0.208148,-0.363777,-0.730693,-1.088750,-3.311807,1.435991
460,482942494,-0.601919,0.168775,-0.358707,-0.693205,-3.333605,-3.696881,-2.252890
461,482975828,-0.665595,0.132714,-0.339411,-0.651280,-3.697047,-1.145759,-2.490895
462,483009162,-0.724215,0.107722,-0.312821,-0.605018,-4.282007,-1.590197,-3.077139
463,483042496,-0.778646,0.093554,-0.276207,-0.555573,-4.976576,-0.441891,-3.388973
464,483075830,-0.825721,0.092842,-0.233624,-0.504955,-4.127948,0.110876,-2.382702
465,483109164,-0.857453,0.109949,-0.202264,-0.460184,-3.885978,-3.761892,1.929613
466,483142498,-0.876489,0.133590,-0.178131,-0.426832,-2.143601,-4.844741,1.066358
467,483175832,-0.881672,0.158985,-0.172798,-0.409284,-0.174691,-8.875848,3.540126
468,483209166,-0.879935,0.168513,-0.169791,-0.410467,-2.828116,-7.512426,4.809397
469,483242500,-0.872001,0.172327,-0.173111,-0.424199,-3.721294,-2.827027,0.764162
470,483275834,-0.857994,0.181446,-0.182165,-0.444674,-4.142645,-0.897383,-0.548167
471,483309168,-0.838209,0.196194,-0.193371,-0.470654,-4.008825,-1.283340,1.003104
472,483342502,-0.812448,0.214088,-0.204790,-0.502146,-3.654984,-1.697232,1.266804
473,483375836,-0.780484,0.234460,-0.216901,-0.537422,-3.061011,-2.711170,1.746919
474,483409170,-0.746206,0.249237,-0.221794,-0.576072,-2.309275,-2.205188,1.872541
475,483442504,-0.709460,0.262655,-0.227627,-0.613074,-2.484192,-1.992033,0.769300
476,483475838,-0.674481,0.273548,-0.231688,-0.645417,-3.230563,-3.779031,1.782774
477,483509172,-0.638906,0.284663,-0.235820,-0.674648,-1.337087,-4.102092,0.661825
478,483542506,-0.601538,0.296500,-0.236392,-0.703103,-0.092808,-3.863102,-0.386435
479,483575840,-0.565833,0.308581,-0.226241,-0.730357,1.480324,-2.428923,-1.484780
480,483609174,-0.519160,0.347067,-0.221924,-0.748840,5.117865,-0.396662,-0.783620
481,483642508,-0.474607,0.380012,-0.206631,-0.766576,11.194491,0.526504,4.206466
482,483675842,-0.434741,0.388070,-0.183109,-0.791750,13.437211,4.834661,1.449048
483,483709176,-0.382359,0.397826,-0.170968,-0.816272,9.692861,4.345355,-0.581157
484,483742510,-0.324258,0.405614,-0.164066,-0.838696,5.088964,6.107852,-0.234029
485,483775844,-0.271883,0.404781,-0.163341,-0.857640,-1.609202,6.843888,-2.416479
486,483809178,-0.226064,0.414737,-0.172116,-0.864442,-5.868738,5.326028,-2.447210
487,483842512,-0.194689,0.431009,-0.181913,-0.862108,-8.599050,2.746815,-2.059884
488,483875846,-0.182058,0.444061,-0.183588,-0.857878,-9.084377,-0.591284,0.545677
489,483909180,-0.191251,0.452737,-0.181888,-0.851683,-10.238533,-0.357603,3.154046
490,483942514,-0.208966,0.464673,-0.187256,-0.839847,-4.991789,-2.777442,9.069857
491,483975848,-0.230474,0.452321,-0.197232,-0.838679,3.677540,-4.296391,13.108553
492,484009182,-0.243849,0.416070,-0.210619,-0.850328,5.881001,-2.596617,7.104984
493,484042516,-0.238917,0.391594,-0.234582,-0.857053,5.570343,-1.421644,2.391473
494,484075850,-0.223643,0.374464,-0.261401,-0.861061,5.805207,-0.108133,-2.081118
495,484109184,-0.207551,0.354636,-0.282832,-0.866693,5.077900,1.027653,-6.062331
496,484142518,-0.193502,0.329939,-0.295888,-0.875296,5.949262,1.846830,-6.948918
497,484175852,-0.171848,0.320661,-0.300520,-0.881662,1.718962,1.558574,-11.569386
498,484209186,-0.136304,0.338440,-0.294228,-0.883348,2.457574,2.422207,-8.774712
499,484242520,-0.101956,0.352070,-0.273412,-0.889322,2.286567,3.758397,-5.485703
500,484275854,-0.078647,0.349161,-0.246655,-0.900587,-3.150427,6.186896,-3.329454
501,484309188,-0.067471,0.342620,-0.224496,-0.909756,-4.213331,4.106159,-0.835118
502,484342522,-0.073320,0.337383,-0.210713,-0.914545,-7.616413,3.237360,2.004114
503,484375856,-0.101561,0.333016,-0.210666,-0.913455,-7.891603,3.147026,3.831762
504,484409190,-0.151709,0.324090,-0.220079,-0.907475,-4.767148,1.449314,4.423105
505,484442524,-0.212038,0.314588,-0.232514,-0.895548,-2.838951,2.331776,2.662964
506,484475858,-0.270390,0.312534,-0.246159,-0.876705,2.572521,1.211416,3.004671
507,484509192,-0.325941,0.295349,-0.249002,-0.862859,5.662150,0.075550,0.705415
508,484542526,-0.365462,0.276925,-0.249515,-0.852929,8.839444,2.276291,-0.545304
509,484575860,-0.384127,0.260466,-0.262448,-0.846002,8.839019,2.409635,-0.296838
510,484609194,-0.393663,0.233966,-0.280430,-0.843590,8.257706,0.780676,-1.345551
511,484642528,-0.398582,0.200630,-0.301425,-0.842625,6.738581,0.837099,-2.491962
512,484675862,-0.403804,0.164573,-0.326177,-0.838726,5.257447,0.148329,-2.068639
513,484709196,-0.415473,0.126906,-0.351452,-0.829310,3.194143,-1.491189,-1.884096
514,484742530,-0.436183,0.091753,-0.375625,-0.812543,1.277044,-2.935322,-0.300246
515,484775864,-0.464437,0.057776,-0.397854,-0.789092,2.988425,-3.286371,0.021684
516,484809198,-0.505595,0.015955,-0.412508,-0.757596,-2.220579,-4.468141,-0.251424
517,484842532,-0.552124,-0.017817,-0.419169,-0.720509,-5.381171,-3.986197,-0.299276
518,484875866,-0.598986,-0.038216,-0.418436,-0.681661,-2.905255,-3.009670,-0.128873
519,484909200,-0.647655,-0.055395,-0.408109,-0.641028,-4.083467,-3.534430,-0.437128
520,484942534,-0.700950,-0.068299,-0.379153,-0.600201,-8.139912,1.059250,-3.280030
521,484975868,-0.745277,-0.059894,-0.346743,-0.566338,-5.018999,0.455495,-2.274765
522,485009202,-0.790260,-0.041634,-0.304467,-0.530142,-8.297932,3.438917,-3.895391
523,485042536,-0.829193,-0.005312,-0.258086,-0.495780,-6.607071,3.650163,-5.659533
524,485075870,-0.860022,0.045452,-0.210373,-0.462638,-1.594133,1.194783,-0.548257
525,485109204,-0.879223,0.100732,-0.174340,-0.431764,-1.660929,-1.468007,5.020473
526,485142538,-0.884359,0.159519,-0.156371,-0.409885,3.377521,-9.575572,7.516642
527,485175872,-0.883478,0.189388,-0.144240,-0.403471,2.695124,-8.582334,10.013384
528,485209206,-0.878278,0.194640,-0.140885,-0.413387,-0.971561,-4.603303,6.108879
529,485242540,-0.868362,0.194223,-0.143440,-0.433179,-3.347670,-1.385500,1.838895
530,485275874,-0.853172,0.196400,-0.148964,-0.459705,-3.411803,-0.873429,0.576507
531,485309208,-0.832566,0.201176,-0.158517,-0.491151,-2.786119,-1.490450,1.629032
532,485342542,-0.806670,0.208647,-0.173736,-0.524940,-2.459500,-1.509472,0.515375
533,485375876,-0.772880,0.222107,-0.197753,-0.560547,-1.936973,-2.718506,2.229179
534,485409210,-0.733929,0.233019,-0.220079,-0.598841,-1.161025,-3.495799,2.436369
535,485442544,-0.694725,0.233429,-0.230094,-0.640250,-0.190996,-3.417017,1.435496
536,485475878,-0.655999,0.226139,-0.230189,-0.682301,0.422896,-2.093815,-0.218495
537,485509212,-0.615359,0.222805,-0.229650,-0.720380,-0.104209,-1.060304,-2.205667
538,485542546,-0.570063,0.238776,-0.235362,-0.750076,-0.312530,-0.458566,-3.589429
539,485575880,-0.527997,0.264264,-0.235757,-0.771879,1.140415,-0.720775,-2.146775
540,485609214,-0.489654,0.298861,-0.230496,-0.785995,2.414960,1.251880,-2.883915
541,485642548,-0.454957,0.335037,-0.219668,-0.795302,6.085645,0.280094,0.897657
542,485675882,-0.421925,0.365945,-0.204659,-0.803849,7.644425,3.111929,0.170251
543,485709216,-0.382526,0.403071,-0.201141,-0.806688,8.138832,4.255582,1.192052
544,485742550,-0.349799,0.417601,-0.197736,-0.814951,4.412396,6.338370,1.186314
545,485775884,-0.315174,0.435169,-0.204300,-0.818260,0.950026,4.285110,0.931227
546,485809218,-0.281560,0.452903,-0.215089,-0.818129,-2.636011,0.194378,2.841043
547,485842552,-0.260007,0.455254,-0.220084,-0.822617,-8.658243,-4.619634,4.888387
548,485875886,-0.245919,0.449663,-0.226290,-0.828321,-8.705208,-5.843826,5.224960
549,485909220,-0.237619,0.433705,-0.233458,-0.837216,-5.197758,-4.697421,3.469789
550,485942554,-0.232580,0.412004,-0.239116,-0.847926,-0.252492,-3.004225,-0.356916
551,485975888,-0.218603,0.403847,-0.237632,-0.855948,4.135241,-3.102525,-3.674591
552,486009222,-0.191902,0.410325,-0.220378,-0.863849,7.588375,5.427195,-1.301333
553,486042556,-0.173382,0.406136,-0.191487,-0.876539,4.397787,6.844897,-5.044373
554,486075890,-0.151291,0.410481,-0.160613,-0.884768,2.939288,6.445000,-3.999125
555,486109224,-0.127924,0.415409,-0.135474,-0.890344,0.401302,6.174423,-2.523626
556,486142558,-0.108742,0.415654,-0.117122,-0.895369,-3.381301,3.992573,0.043428
557,486175892,-0.101627,0.415634,-0.110968,-0.896996,-8.278059,1.739465,3.864689
558,486209226,-0.111530,0.423582,-0.121519,-0.890712,-9.087803,-2.274346,4.695822
559,486242560,-0.132104,0.440833,-0.144327,-0.876002,-4.136893,-4.885743,4.891886
560,486275894,-0.159536,0.443491,-0.170914,-0.865244,1.021991,-2.832804,5.537781
561,486309228,-0.194165,0.421824,-0.197445,-0.863351,2.893718,-0.027886,-0.160461
562,486342562,-0.227873,0.398618,-0.222136,-0.860133,4.170043,0.955122,-4.947448
563,486375896,-0.243985,0.398422,-0.246716,-0.849033,7.889214,1.551833,-4.551750
564,486409230,-0.257577,0.381449,-0.256920,-0.849787,7.659593,1.899579,-6.160233
565,486442564,-0.267187,0.348480,-0.253457,-0.861932,6.528389,3.355998,-7.446893
566,486475898,-0.264337,0.320895,-0.248393,-0.874899,5.725974,5.748213,-5.845173
567,486509232,-0.262157,0.287987,-0.245225,-0.887805,1.834523,4.750374,-3.893430
568,486542566,-0.272548,0.247904,-0.242415,-0.897492,-3.565808,4.876635,-2.618863
569,486575900,-0.290810,0.245457,-0.249550,-0.890449,-8.747495,2.783822,-2.169539
570,486609234,-0.317730,0.290530,-0.264702,-0.862883,-7.965480,-2.235630,0.503763
571,486642568,-0.362997,0.323172,-0.266827,-0.832221,-2.190825,-5.870459,5.942650
572,486675902,-0.420922,0.311084,-0.243627,-0.816512,1.282228,-3.681779,7.623264
573,486709236,-0.473999,0.279108,-0.213662,-0.807321,4.318132,1.890122,4.737769
574,486742570,-0.501182,0.263506,-0.215079,-0.795687,8.934998,1.735151,5.986060
575,486775904,-0.508354,0.247605,-0.242576,-0.788302,8.455672,-0.140806,3.971617
576,486809238,-0.511362,0.211642,-0.270185,-0.787853,7.572148,-0.296552,1.616121
577,486842572,-0.513830,0.167106,-0.299078,-0.786513,5.324389,1.277712,-1.186616
578,486875906,-0.515224,0.125955,-0.332444,-0.779843,3.154126,-0.411224,-1.223242
579,486909240,-0.519579,0.085081,-0.361789,-0.769352,2.671731,-1.348489,-1.484951
580,486942574,-0.522259,0.049279,-0.389766,-0.756898,1.791463,-3.356906,-0.021000
581,486975908,-0.533543,0.002675,-0.407986,-0.740856,-0.144480,-4.731174,0.212045
582,487009242,-0.555463,-0.051193,-0.415773,-0.718309,-4.287236,-3.039825,-1.679740
583,487042576,-0.581177,-0.097128,-0.418477,-0.691138,-5.346869,-3.652097,-1.402270
584,487075910,-0.611875,-0.138558,-0.413231,-0.660034,-5.303295,-1.545481,-2.013649
585,487109244,-0.644840,-0.170783,-0.403473,-0.626274,-7.245922,1.266430,-2.196201
586,487142578,-0.679868,-0.185369,-0.388026,-0.594011,-9.964540,1.986802,-2.233663
587,487175912,-0.719935,-0.181858,-0.361298,-0.563987,-8.045660,3.818037,-3.737821
588,487209246,-0.761450,-0.162410,-0.327445,-0.535342,-5.410104,4.567004,-4.853598
589,487242580,-0.799525,-0.125401,-0.292658,-0.509294,-3.634364,3.158076,-5.917864
590,487275914,-0.833376,-0.076508,-0.255282,-0.484208,0.800207,0.418466,-1.341202
591,487309248,-0.861641,-0.026233,-0.216640,-0.458202,0.331779,-1.662314,1.495703
592,487342582,-0.880076,0.024552,-0.184026,-0.437028,0.560595,-5.029117,5.869148
593,487375916,-0.886282,0.080012,-0.169490,-0.423522,3.663964,-6.905110,0.274734
594,487409250,-0.882985,0.120899,-0.165959,-0.422106,2.948647,-8.530586,6.731342
595,487442584,-0.875794,0.139053,-0.166221,-0.431294,0.713411,-5.723701,6.752623
596,487475918,-0.864649,0.149211,-0.173560,-0.447203,-1.811914,-1.712308,1.236728
597,487509252,-0.848183,0.165012,-0.187901,-0.466953,-2.787278,-1.408158,-0.261986
598,487542586,-0.827927,0.182915,-0.199877,-0.491042,-2.345478,-1.767568,0.702497
599,487575920,-0.803701,0.203415,-0.212056,-0.517411,-1.243721,-0.450436,0.120227
600,487609254,-0.774480,0.229409,-0.231386,-0.542225,-1.074547,-0.213029,0.603596
601,487642588,-0.746735,0.251159,-0.243820,-0.565556,-1.790816,-0.742209,0.508278
602,487675922,-0.718268,0.273686,-0.251751,-0.588051,-1.251799,-1.393789,0.459729
603,487709256,-0.691910,0.288939,-0.249072,-0.612971,-0.345001,-2.452727,2.643495
604,487742590,-0.667506,0.296975,-0.240082,-0.639216,-0.397640,-1.115668,1.081914
605,487775924,-0.636638,0.315429,-0.240182,-0.661441,-1.288964,-0.715190,-1.802129
606,487809258,-0.597464,0.352335,-0.251703,-0.674935,-0.841222,-2.311451,-0.352602
607,487842592,-0.566341,0.379069,-0.247320,-0.688762,0.984258,-1.697533,0.744246
608,487875926,-0.540003,0.401780,-0.235061,-0.701222,2.204141,-0.340153,-1.199970
609,487909260,-0.514624,0.423422,-0.217908,-0.713013,4.813034,-2.262827,0.633791
610,487942594,-0.492217,0.432470,-0.193434,-0.730254,7.584318,-0.270569,3.456944
611,487975928,-0.464491,0.443580,-0.182410,-0.744450,5.725354,3.467518,0.691175
612,488009262,-0.436590,0.457322,-0.180202,-0.753504,3.407915,1.837430,-0.266775
613,488042596,-0.408694,0.466409,-0.175056,-0.764711,2.587905,-0.976661,0.756462
614,488075930,-0.374969,0.477658,-0.165502,-0.777075,0.593465,0.643773,0.291005
615,488109264,-0.338329,0.485948,-0.149087,-0.791932,-0.623498,1.423154,1.600388
616,488142598,-0.302940,0.487026,-0.130598,-0.808686,-3.432342,3.632904,2.861587
617,488175932,-0.273814,0.480963,-0.119404,-0.824281,-5.745079,2.134667,3.624376
618,488209266,-0.256864,0.463326,-0.114878,-0.840327,-6.075207,0.871800,4.212596
619,488242600,-0.250511,0.439774,-0.119870,-0.854090,-5.349152,0.135933,4.696961
620,488275934,-0.253037,0.411091,-0.133078,-0.865599,-3.132476,-0.676507,3.463768
621,488309268,-0.259413,0.385882,-0.150480,-0.872439,-0.320485,-0.471644,1.263116
622,488342602,-0.262807,0.377250,-0.173896,-0.870845,1.480229,0.907256,-1.760298
623,488375936,-0.257978,0.388825,-0.201622,-0.861166,4.897656,0.694420,-3.341111
624,488409270,-0.251602,0.388573,-0.220361,-0.858571,6.903726,-0.413723,-2.306578
625,488442604,-0.242476,0.374315,-0.225692,-0.866113,5.606734,0.472150,-5.401536
626,488475938,-0.223235,0.369379,-0.222180,-0.874275,3.994168,-0.455055,-4.475762
627,488509272,-0.197938,0.366114,-0.205336,-0.885784,3.058732,0.858880,-2.535645
628,488542606,-0.174626,0.347091,-0.176958,-0.904276,1.644941,-0.555307,-0.154741
629,488575940,-0.160560,0.292035,-0.142347,-0.932024,0.660070,-0.328016,2.349848
630,488609274,-0.155410,0.226557,-0.119505,-0.954062,-9.702259,2.136457,3.024555
631,488642608,-0.155347,0.208308,-0.122254,-0.957875,-9.094487,0.715760,4.850014
632,488675942,-0.166240,0.207337,-0.140099,-0.953805,-4.372284,0.629000,3.965043
633,488709276,-0.190572,0.199481,-0.162334,-0.947382,-1.081514,1.955705,0.743073
634,488742610,-0.225530,0.185027,-0.182723,-0.938887,0.334769,2.738667,-2.996281
635,488775944,-0.256938,0.187407,-0.200222,-0.926697,2.393931,2.993645,-5.531525
636,488809278,-0.274908,0.203225,-0.211948,-0.915532,6.622841,2.967604,-6.061193
637,488842612,-0.281167,0.208592,-0.214742,-0.911765,7.993223,3.876455,-5.864161
638,488875946,-0.278445,0.200536,-0.215632,-0.914195,5.121837,5.221583,-6.036267
639,488909280,-0.268009,0.194315,-0.220423,-0.917509,4.334015,4.156014,-4.169390
640,488942614,-0.258216,0.185574,-0.227305,-0.920443,3.640301,3.815568,-2.006416
641,488975948,-0.258100,0.174726,-0.236620,-0.920251,1.747498,3.528912,-0.778959
642,489009282,-0.271832,0.164479,-0.250907,-0.914382,2.767508,2.036764,1.730686
643,489042616,-0.301200,0.149824,-0.266112,-0.903333,0.683623,-0.269816,1.827215
644,489075950,-0.337958,0.139249,-0.282758,-0.886813,1.963174,-0.282396,2.173066
645,489109284,-0.383341,0.127224,-0.299713,-0.864310,0.228761,-3.656321,4.518488
646,489142618,-0.438655,0.106181,-0.309473,-0.836976,-0.461033,-3.227983,1.674334
647,489175952,-0.498403,0.083471,-0.311420,-0.804761,-1.661826,-2.857137,-0.385583
648,489209286,-0.562283,0.061143,-0.299564,-0.768346,-4.020091,-2.849213,-0.067043
649,489242620,-0.627733,0.047595,-0.269662,-0.728673,-5.208453,-3.154314,-3.854184
650,489275954,-0.687515,0.045030,-0.223849,-0.689334,-2.290830,-0.268666,-1.919872
651,489309288,-0.739506,0.048136,-0.169132,-0.649772,-2.001293,-0.175925,-1.237219
652,489342622,-0.777463,0.068525,-0.123560,-0.612849,0.623040,-1.118960,1.022426
653,489375956,-0.805611,0.087638,-0.086567,-0.579493,1.167751,-1.600234,2.389961
654,489409290,-0.826790,0.113385,-0.070594,-0.546419,-1.350684,-1.132364,1.654295
655,489442624,-0.842330,0.139305,-0.060112,-0.517161,-1.734939,-7.401634,4.772035
656,489475958,-0.854056,0.153430,-0.049438,-0.494569,-0.827488,-2.382320,2.492720
657,489509292,-0.860005,0.168339,-0.055787,-0.478474,-2.371620,-3.999345,2.946274
658,489542626,-0.861034,0.177800,-0.065605,-0.471910,-3.489624,-3.701225,2.087663
659,489575960,-0.857245,0.183822,-0.074067,-0.475236,-3.521790,-2.230130,0.146314
660,489609294,-0.848553,0.190667,-0.083530,-0.486437,-3.599812,-2.612025,0.754195
661,489642628,-0.835638,0.197761,-0.092475,-0.504027,-3.344618,-2.213661,0.374606
662,489675962,-0.817398,0.208379,-0.105116,-0.526673,-2.926574,-2.303499,0.484482
663,489709296,-0.794920,0.218941,-0.117097,-0.553579,-2.629153,-3.430435,1.321359
664,489742630,-0.770151,0.224716,-0.122838,-0.584189,-1.479400,-2.556217,0.833642
665,489775964,-0.742861,0.228268,-0.126951,-0.616385,-0.973421,-2.748532,0.997828
666,489809298,-0.714192,0.223476,-0.120784,-0.652223,0.047600,-4.666055,1.451799
667,489842632,-0.684765,0.211499,-0.105754,-0.689331,1.373464,-1.700383,-0.036918
668,489875966,-0.651088,0.205891,-0.096493,-0.724139,2.001457,-0.924972,-0.043217
669,489909300,-0.615041,0.209477,-0.094658,-0.754241,2.417476,-0.398384,-0.088348
670,489942634,-0.578723,0.219387,-0.096205,-0.779544,2.789228,0.013007,-0.113851
671,489975968,-0.541782,0.236338,-0.100174,-0.800361,2.823718,0.951503,-0.568871
672,490009302,-0.502569,0.264204,-0.106713,-0.816228,3.235702,1.287713,-0.607430
673,490042636,-0.464510,0.288720,-0.107411,-0.830259,3.804112,1.401131,-0.048218
674,490075970,-0.432245,0.301500,-0.099606,-0.844000,2.664836,3.621028,-0.319571
675,490109304,-0.407117,0.306940,-0.088607,-0.855680,1.158087,5.283562,0.237701
676,490142638,-0.391245,0.309736,-0.077714,-0.863103,-1.395537,6.835915,-0.185826
677,490175972,-0.389691,0.311024,-0.072452,-0.863800,-4.488047,7.354268,-0.291427
678,490209306,-0.402880,0.315075,-0.075158,-0.856015,-4.644682,4.692421,1.924174
679,490242640,-0.428152,0.310942,-0.078605,-0.844877,-4.594882,3.302204,3.325349
680,490275974,-0.456655,0.305964,-0.088506,-0.830671,-3.208957,0.670170,4.571997
681,490309308,-0.487431,0.291319,-0.097889,-0.817286,-1.575610,-2.180372,4.990687
682,490342642,-0.515218,0.268948,-0.108360,-0.806518,-0.389244,-2.929747,4.385768
683,490375976,-0.533714,0.252817,-0.131624,-0.796180,2.466173,-4.797500,3.460208
684,490409310,-0.544369,0.232170,-0.157846,-0.790468,3.628507,-5.279448,1.530046
685,490442644,-0.545254,0.211524,-0.186529,-0.789404,3.472058,-5.801285,-1.320556
686,490475978,-0.537845,0.194885,-0.212121,-0.792302,3.587347,-5.686677,-3.651090
687,490509312,-0.520890,0.186997,-0.229164,-0.800740,4.045039,-5.404081,-3.910812
688,490542646,-0.495577,0.180953,-0.230587,-0.817609,4.444444,-5.470686,-3.959040
689,490575980,-0.457321,0.180695,-0.223704,-0.841521,3.512296,-3.659083,-3.055723
690,490609314,-0.405084,0.187471,-0.211983,-0.869379,1.919640,-1.876667,-0.583786
691,490642648,-0.343438,0.195449,-0.197406,-0.897149,-1.110470,1.811934,3.573830
692,490675982,-0.278835,0.212903,-0.191035,-0.916746,-3.469217,0.561195,5.963165
693,490709316,-0.227272,0.212732,-0.188234,-0.931481,-2.173800,2.421251,7.693323
694,490742650,-0.192547,0.190923,-0.193367,-0.942909,-1.418993,4.167170,5.204548
695,490775984,-0.173779,0.158941,-0.208908,-0.949153,-2.349119,5.152847,1.794262
696,490809318,-0.164547,0.132803,-0.231196,-0.949648,-1.457970,4.904068,-1.796780
697,490842652,-0.161510,0.115961,-0.252818,-0.946861,0.041399,3.771449,-3.763398
698,490875986,-0.165755,0.100901,-0.269304,-0.943300,2.405211,5.641850,-6.531478
699,490909320,-0.172341,0.085260,-0.286058,-0.938720,1.283930,6.578241,-8.001696
700,490942654,-0.179303,0.080698,-0.307630,-0.930966,1.620849,5.715282,-8.668143
701,490975988,-0.190624,0.082553,-0.328157,-0.921496,1.727086,3.451801,-8.558308
702,491009322,-0.212066,0.083553,-0.340930,-0.912036,1.139917,2.993794,-6.477409
703,491042656,-0.244425,0.090071,-0.339976,-0.903634,-1.776733,-0.508234,-4.873541
704,491075990,-0.280030,0.110465,-0.321882,-0.897646,-0.368893,-0.695180,2.965365
705,491109324,-0.324420,0.113682,-0.283191,-0.895336,-2.741050,-3.228062,8.055067
706,491142658,-0.357542,0.100324,-0.233299,-0.898702,4.722955,-3.971679,6.923143
707,491175992,-0.384629,0.065144,-0.189343,-0.901089,0.871410,3.073404,6.604813
708,491209326,-0.411786,0.035367,-0.170342,-0.894516,-2.245178,3.393543,6.025121
709,491242660,-0.444532,0.014353,-0.170323,-0.879301,-0.821408,1.872401,3.272122
710,491275994,-0.479590,-0.003688,-0.174729,-0.859910,2.785665,0.530080,-0.064465
711,491309328,-0.513489,-0.021965,-0.177446,-0.839258,4.276610,0.911957,-2.290877
712,491342662,-0.543092,-0.034098,-0.183819,-0.818593,4.774084,1.570911,-3.310722
713,491375996,-0.566604,-0.034498,-0.198724,-0.798921,4.734101,0.479225,-4.076617
714,491409330,-0.588189,-0.030059,-0.215603,-0.778872,3.946127,-2.092343,-3.707028
715,491442664,-0.613740,-0.030089,-0.223803,-0.756522,2.635016,-2.369066,-3.168040
716,491475998,-0.640092,-0.024535,-0.229476,-0.732814,1.552841,-1.737298,-2.065836
717,491509332,-0.666304,-0.008817,-0.237659,-0.706735,1.443750,-2.068637,-1.346224
718,491542666,-0.694625,0.005220,-0.245457,-0.676177,0.338643,-3.734760,1.351825
719,491576000,-0.724087,0.019558,-0.250256,-0.642404,-2.877687,-4.638429,1.179577
720,491609334,-0.753160,0.035268,-0.248780,-0.607955,-3.195465,-1.746926,-0.171310
721,491642668,-0.777687,0.057355,-0.248060,-0.574782,-5.448290,-0.766884,0.428867
722,491676002,-0.802267,0.076191,-0.237808,-0.542222,-2.160267,0.762213,4.142157
723,491709336,-0.826613,0.081215,-0.216228,-0.513182,-5.373543,-4.638067,5.218265
724,491742670,-0.844194,0.080212,-0.196872,-0.492077,-4.468736,1.336904,2.916701
725,491776004,-0.853287,0.085863,-0.189931,-0.477966,-2.784739,-2.785533,0.894265
726,491809338,-0.856561,0.089384,-0.184153,-0.473705,-1.732476,-3.003074,0.513288
727,491842672,-0.851710,0.092770,-0.186749,-0.480732,-3.108638,-2.419313,1.131346
728,491876006,-0.843046,0.098674,-0.192162,-0.492550,-2.776713,-1.615772,0.967878
729,491909340,-0.831618,0.105661,-0.197481,-0.508177,-2.670803,-1.320506,0.223030
730,491942674,-0.816374,0.116379,-0.203374,-0.527847,-2.619489,-1.374314,-0.706248
731,491976008,-0.795269,0.134864,-0.213057,-0.551326,-1.999537,-2.905584,0.220048
732,492009342,-0.769786,0.153501,-0.219930,-0.579218,-1.368686,-3.585350,1.249136
733,492042676,-0.738963,0.171738,-0.225749,-0.611123,-0.652168,-2.995825,1.520179
734,492076010,-0.699538,0.191161,-0.236298,-0.646732,0.722476,-3.413435,5.135447
735,492109344,-0.651383,0.204866,-0.250023,-0.686450,2.779424,-3.877845,6.236666
736,492142678,-0.596761,0.210185,-0.265098,-0.727610,2.563365,-1.617032,2.397892
737,492176012,-0.534841,0.216608,-0.282900,-0.766152,1.673749,-0.701490,-0.543647
738,492209346,-0.472388,0.221330,-0.294670,-0.800642,1.129131,-0.889915,-1.902361
739,492242680,-0.414521,0.222893,-0.296668,-0.830948,-0.008929,0.272181,-3.047737
740,492276014,-0.359781,0.230613,-0.292204,-0.855563,-0.260668,0.016650,-3.573966
741,492309348,-0.313713,0.238514,-0.275969,-0.876659,1.170130,-1.109297,-3.765247
742,492342682,-0.281107,0.238677,-0.246856,-0.896141,2.216004,1.410436,-2.552594
743,492376016,-0.256104,0.240910,-0.215847,-0.910922,3.029201,5.150487,-1.289606
744,492409350,-0.241378,0.239174,-0.188576,-0.921394,2.175935,7.435959,-0.349333
745,492442684,-0.232082,0.248152,-0.171873,-0.924669,0.873006,7.299967,-1.111861
746,492476018,-0.231292,0.264576,-0.162685,-0.921972,0.442399,5.928546,-0.426229
747,492509352,-0.247158,0.266713,-0.155624,-0.918452,-3.449400,4.875226,2.226625
748,492542686,-0.279716,0.265700,-0.153211,-0.909772,-5.451464,1.141013,0.992737
749,492576020,-0.318503,0.269343,-0.149750,-0.896426,-5.010048,-1.476190,1.406179
750,492609354,-0.352325,0.270602,-0.144006,-0.884251,-3.678936,-2.221999,4.292275
751,492642688,-0.377879,0.263687,-0.138418,-0.876648,-0.803370,-4.857672,6.236696
752,492676022,-0.397668,0.245229,-0.134275,-0.873893,2.152962,-3.711367,6.448793
753,492709356,-0.405534,0.230220,-0.147246,-0.872270,5.490720,-4.364419,4.844572
754,492742690,-0.400643,0.212761,-0.174240,-0.873987,6.477108,-6.332781,1.983068
755,492776024,-0.383672,0.193854,-0.208372,-0.878518,4.416538,-3.556133,0.318027
756,492809358,-0.356204,0.181146,-0.245174,-0.883284,3.244327,-2.105075,-2.725225
757,492842692,-0.323988,0.175268,-0.277112,-0.887422,2.962206,-1.087806,-4.379612
758,492876026,-0.288573,0.178054,-0.297232,-0.892564,1.563058,-1.097336,-5.417444
759,492909360,-0.242622,0.202844,-0.304093,-0.898616,-0.758497,-0.772236,-6.222845
760,492942694,-0.189216,0.249372,-0.295704,-0.902533,-0.474853,-1.629333,-3.301729
761,492976028,-0.148322,0.277183,-0.268227,-0.910615,1.135509,-0.225418,3.857925
762,493009362,-0.122543,0.267833,-0.234308,-0.926469,-2.477513,2.163412,3.729247
763,493042696,-0.099037,0.254759,-0.210675,-0.938563,-4.387411,4.586141,3.426815
764,493076030,-0.079057,0.254783,-0.201243,-0.942514,-4.975149,5.633889,4.846676
765,493109364,-0.070645,0.251650,-0.203998,-0.943431,-2.490781,4.745597,2.725764
766,493142698,-0.079389,0.232590,-0.216569,-0.944824,-1.143550,4.982771,0.143242
767,493176032,-0.100541,0.211534,-0.235424,-0.943247,-1.484152,5.392444,-3.561162
768,493209366,-0.123786,0.213481,-0.261021,-0.933256,-0.228684,4.900022,-6.273683
769,493242700,-0.143586,0.236378,-0.293649,-0.915027,4.052396,5.724511,-5.244875
770,493276034,-0.166044,0.253104,-0.324874,-0.896002,3.562170,4.157781,-6.472234
771,493309368,-0.191413,0.264200,-0.344961,-0.880089,3.108848,1.742467,-6.463881
772,493342702,-0.223654,0.264270,-0.348305,-0.871103,2.247968,1.127440,-5.889866
773,493376036,-0.258632,0.267029,-0.336380,-0.865245,-0.530443,-1.666400,-2.741519
774,493409370,-0.289206,0.286983,-0.313933,-0.857579,-2.044898,-0.489572,1.450686
775,493442704,-0.319891,0.309732,-0.289972,-0.847141,-0.502604,-2.542587,7.245344
776,493476038,-0.351999,0.314498,-0.267077,-0.840151,-0.720978,-3.042136,8.500082
777,493509372,-0.376043,0.309895,-0.253780,-0.835552,-0.639029,-2.651227,9.101114
778,493542706,-0.395032,0.295211,-0.250689,-0.833037,-0.044968,0.288000,6.185328
779,493576040,-0.406542,0.279061,-0.262664,-0.829368,1.654401,0.978772,2.804665
780,493609374,-0.413993,0.259382,-0.281894,-0.825750,2.895198,0.826932,1.281360
781,493642708,-0.421170,0.233680,-0.299977,-0.823419,2.947152,0.512455,-1.338087
782,493676042,-0.426519,0.208040,-0.315748,-0.821645,3.372920,0.571136,-3.094491
783,493709376,-0.432115,0.183397,-0.328474,-0.819599,3.112756,0.799454,-4.541651
784,493742710,-0.436009,0.167022,-0.339882,-0.816379,2.213817,-0.019975,-5.149305
785,493776044,-0.443704,0.153737,-0.346822,-0.811912,2.953512,-0.248492,-3.316976
786,493809378,-0.461584,0.138411,-0.351131,-0.802798,2.241390,1.264512,-2.146060
787,493842712,-0.486579,0.125922,-0.357041,-0.787339,1.857536,0.235363,-1.910610
788,493876046,-0.519360,0.116455,-0.360402,-0.766035,-0.061237,-1.159000,-0.916740
789,493909380,-0.558680,0.109886,-0.356696,-0.740651,-0.736553,-0.549416,-0.668181
790,493942714,-0.597900,0.111889,-0.348733,-0.713006,-2.017084,-1.086815,-0.795833
791,493976048,-0.641165,0.115642,-0.328367,-0.683889,-3.605776,-0.670979,-1.617508
792,494009382,-0.685913,0.123043,-0.297240,-0.652708,-2.036985,0.959382,-1.576286
793,494042716,-0.726673,0.137821,-0.262834,-0.619568,-2.231133,-0.240808,-0.143119
794,494076050,-0.764189,0.156163,-0.224748,-0.584047,-1.764014,-0.773612,1.089555
795,494109384,-0.794420,0.178024,-0.190218,-0.548650,-2.702163,-2.372455,1.822290
796,494142718,-0.814161,0.204013,-0.168094,-0.516972,-0.522585,-2.005842,2.984878
797,494176052,-0.826072,0.224415,-0.157318,-0.492433,-1.905327,-2.675629,4.953691
798,494209386,-0.831152,0.243570,-0.157417,-0.474420,-3.668534,-3.585149,1.039553
799,494242720,-0.829615,0.258499,-0.157306,-0.469220,-3.214410,-4.669603,3.738141
800,494276054,-0.825212,0.261116,-0.151783,-0.477285,-2.682178,-3.264003,3.262045
801,494309388,-0.814743,0.262919,-0.153222,-0.493545,-3.372675,-2.617587,1.287020
802,494342722,-0.797827,0.268046,-0.160140,-0.515727,-2.966311,-3.038487,0.956963
803,494376056,-0.777384,0.272433,-0.164390,-0.542609,-1.854511,-2.295693,-0.118096
804,494409390,-0.751129,0.280299,-0.170927,-0.572728,-1.501470,-3.477353,0.453023
805,494442724,-0.719279,0.293426,-0.176232,-0.604547,-0.628919,-2.821408,-1.519617
806,494476058,-0.681566,0.312581,-0.181405,-0.636277,0.670707,-1.645045,-0.872326
807,494509392,-0.641653,0.332717,-0.185048,-0.665833,1.589715,-1.142326,-0.173933
808,494542726,-0.602311,0.350294,-0.181978,-0.693827,1.943491,-2.070754,0.341993
809,494576060,-0.562269,0.366235,-0.172524,-0.721080,2.687249,-1.507302,0.771120
810,494609394,-0.521471,0.382798,-0.163686,-0.744806,2.353274,0.441476,1.054885
811,494642728,-0.481700,0.399397,-0.156528,-0.764161,2.007629,0.418431,1.543258
812,494676062,-0.445723,0.412257,-0.148264,-0.780634,1.634768,1.675619,0.343912
813,494709396,-0.415547,0.420330,-0.138728,-0.794603,1.022860,2.683505,-0.300308
814,494742730,-0.392444,0.422554,-0.126795,-0.807065,0.036113,3.637164,-1.603479
815,494776064,-0.374904,0.425313,-0.111123,-0.816213,1.278683,2.636078,-1.367683
816,494809398,-0.368401,0.411943,-0.090156,-0.828523,-0.287858,7.849788,0.100591
817,494842732,-0.371204,0.403942,-0.083438,-0.831909,-1.975121,8.490132,-0.366306
818,494876066,-0.380859,0.409094,-0.089346,-0.824379,-1.999897,6.939850,0.179549
819,494909400,-0.398151,0.417408,-0.101746,-0.810487,-2.938540,5.101392,3.144072
820,494942734,-0.421377,0.417713,-0.115432,-0.796635,-4.410624,1.682202,4.661699
821,494976068,-0.443779,0.415263,-0.128869,-0.783585,-4.344181,-2.144914,5.303188
822,495009402,-0.467444,0.399950,-0.136258,-0.776508,-2.596781,-5.002741,6.429239
823,495042736,-0.489791,0.372482,-0.141611,-0.775438,0.574548,-5.311348,3.982876
824,495076070,-0.505412,0.347663,-0.155276,-0.774321,2.874509,-4.420890,0.393428
825,495109404,-0.510479,0.336165,-0.178960,-0.770955,3.894668,-3.899714,-2.937697
826,495142738,-0.507186,0.339744,-0.207715,-0.764320,3.962419,-2.786563,-6.206016
827,495176072,-0.492933,0.367593,-0.239519,-0.751345,2.985480,-4.963776,-8.662596
828,495209406,-0.477494,0.386039,-0.241421,-0.751455,3.861677,-8.467443,-2.385349
829,495242740,-0.463435,0.376377,-0.203806,-0.775904,5.033489,-4.841112,-0.620313
830,495276074,-0.431197,0.372652,-0.170003,-0.803924,3.252880,-0.526420,1.688276
831,495309408,-0.387152,0.376153,-0.151416,-0.828064,0.774571,-0.754977,4.497820
832,495342742,-0.341821,0.365630,-0.137618,-0.854710,0.201639,0.324599,6.463846
833,495376076,-0.305406,0.336021,-0.130937,-0.881287,-3.658972,3.177243,5.263460
834,495409410,-0.277361,0.306189,-0.132236,-0.901015,-4.244946,3.484530,4.191457
835,495442744,-0.261625,0.275167,-0.137500,-0.914836,-3.327642,4.580854,2.179520
836,495476078,-0.260042,0.233495,-0.144536,-0.925723,-1.813139,4.996315,-0.790963
837,495509412,-0.271379,0.187371,-0.152892,-0.931593,-1.147807,5.734119,-3.076716
838,495542746,-0.286563,0.157424,-0.164102,-0.930680,-0.008702,6.712567,-4.581940
839,495576080,-0.295066,0.154975,-0.180090,-0.925463,1.913611,6.017507,-5.413146
840,495609414,-0.301317,0.156822,-0.193351,-0.920448,3.527523,4.904878,-5.914062
841,495642748,-0.311644,0.147302,-0.200576,-0.917030,3.750101,4.269479,-6.269061
842,495676082,-0.326100,0.135498,-0.203855,-0.913092,0.352874,3.780829,-5.962612
843,495709416,-0.349972,0.124747,-0.202314,-0.906102,0.014868,1.563941,-3.014863
844,495742750,-0.392005,0.096544,-0.185712,-0.895833,-1.559201,-0.311598,-0.555177
845,495776084,-0.443438,0.069931,-0.161278,-0.878895,-1.466248,2.122028,1.564467
846,495809418,-0.487364,0.064952,-0.151339,-0.857525,5.094903,2.187413,4.622377
847,495842752,-0.524248,0.058569,-0.159056,-0.834524,5.824415,1.719096,2.060602
848,495876086,-0.553481,0.058995,-0.181722,-0.810648,5.910368,-0.826318,-0.021037
849,495909420,-0.580726,0.056472,-0.205151,-0.785797,5.474434,-1.664147,-1.706822
850,495942754,-0.608622,0.051819,-0.222689,-0.759801,3.056814,-2.836452,-1.763084
851,495976088,-0.638050,0.048351,-0.233242,-0.732221,1.951179,-2.334047,-2.069639
852,496009422,-0.669558,0.046636,-0.237617,-0.702176,-0.605145,-3.112807,-1.908072
853,496042756,-0.703017,0.050983,-0.235688,-0.669039,-1.250826,-2.545063,-1.872811
854,496076090,-0.737260,0.062150,-0.229291,-0.632460,-2.535467,-2.190600,-1.357245
855,496109424,-0.770949,0.079114,-0.216918,-0.593566,-2.247037,-2.307452,-0.243568
856,496142758,-0.801785,0.100939,-0.200211,-0.553952,-1.110510,-2.844176,1.213767
857,496176092,-0.826913,0.126236,-0.185079,-0.515772,-1.787641,-3.049813,3.804708
858,496209426,-0.843558,0.154894,-0.181495,-0.481117,-2.840164,-2.986596,3.389422
859,496242760,-0.855637,0.181194,-0.183650,-0.448688,-3.846937,-0.203359,0.441802
860,496276094,-0.864992,0.205746,-0.181311,-0.420213,-1.964627,-2.208131,0.109195
861,496309428,-0.870042,0.227097,-0.176716,-0.400274,-3.344293,-3.289625,2.297029
862,496342762,-0.872273,0.243290,-0.171704,-0.387896,-2.040356,-1.908177,3.793451
863,496376096,-0.870240,0.255317,-0.174118,-0.383632,-2.160217,-2.058778,2.892447
864,496409430,-0.863923,0.265245,-0.179270,-0.388765,-3.177622,-1.980235,0.370096
865,496442764,-0.855067,0.273866,-0.179369,-0.402095,-3.126392,-1.850601,1.079359
866,496476098,-0.843454,0.281465,-0.175945,-0.422375,-2.488637,-1.392488,0.932820
867,496509432,-0.826405,0.291997,-0.175921,-0.448151,-2.542906,-2.029540,0.878374
868,496542766,-0.801899,0.308941,-0.181194,-0.478202,-1.444216,-1.058289,0.168399
869,496576100,-0.769115,0.333705,-0.192456,-0.509961,-2.521449,-3.183726,1.434099
870,496609434,-0.737716,0.350478,-0.188966,-0.545186,-1.917977,-1.451330,1.009204
871,496642768,-0.706321,0.362745,-0.182272,-0.579912,-1.533183,-0.585749,0.979087
872,496676102,-0.675834,0.371368,-0.177581,-0.611386,-0.443596,0.267580,1.318136
873,496709436,-0.647896,0.376384,-0.173560,-0.639092,0.332583,0.482287,0.859897
874,496742770,-0.620871,0.383042,-0.170785,-0.662289,0.798686,-0.016236,-0.601026
875,496776104,-0.593986,0.393890,-0.167592,-0.681131,1.422858,-0.749860,-0.316533
876,496809438,-0.569058,0.404560,-0.157316,-0.698391,1.326870,-1.023241,-1.240146
877,496842772,-0.541627,0.424439,-0.145845,-0.710786,1.357210,-2.117968,-0.260157
878,496876106,-0.515995,0.436126,-0.124737,-0.726621,4.070501,-2.079359,3.381917
879,496909440,-0.489140,0.445407,-0.106452,-0.742306,4.834337,-0.903491,0.852241
880,496942774,-0.455657,0.461651,-0.099790,-0.754514,5.103371,1.278852,1.560309
881,496976108,-0.422607,0.475200,-0.099436,-0.765308,3.983337,3.443115,0.509257
882,497009442,-0.393433,0.482391,-0.102401,-0.775899,2.448641,4.488393,0.634942
883,497042776,-0.374638,0.473430,-0.103952,-0.790379,-0.729541,8.619067,-0.585027
884,497076110,-0.371788,0.455766,-0.113254,-0.800762,-3.838934,10.343556,-0.991232
885,497109444,-0.385961,0.444553,-0.129623,-0.797872,-5.217144,8.402145,-1.461032
886,497142778,-0.412794,0.431205,-0.144612,-0.789142,-5.457858,3.467585,2.879661
887,497176112,-0.449556,0.412658,-0.149492,-0.777984,-6.324871,1.367231,2.423342
888,497209446,-0.486281,0.388139,-0.151210,-0.768121,-2.650885,-2.808216,7.788910
889,497242780,-0.516733,0.356299,-0.154752,-0.762945,0.775988,-4.957954,7.512148
890,497276114,-0.526682,0.334524,-0.177449,-0.761056,3.602621,-8.398121,7.828011
891,497309448,-0.522411,0.308041,-0.207321,-0.767601,6.130312,-8.004981,3.376700
892,497342782,-0.505583,0.276294,-0.243203,-0.780318,4.964842,-5.342450,-2.230602
893,497376116,-0.478330,0.250034,-0.279689,-0.794011,3.862930,-4.763620,-4.987848
894,497409450,-0.448789,0.227500,-0.306243,-0.808111,2.766349,-3.346634,-7.458489
895,497442784,-0.414910,0.217088,-0.322611,-0.822581,1.837785,-2.300123,-8.827510
896,497476118,-0.376827,0.221708,-0.325073,-0.838552,1.994170,-0.700665,-9.287949
897,497509452,-0.330629,0.244748,-0.317748,-0.854292,2.606716,-0.265481,-9.062922
898,497542786,-0.282900,0.275276,-0.295232,-0.870071,2.348990,0.040684,-5.498260
899,497576120,-0.241629,0.300235,-0.261955,-0.884788,-2.142063,1.219087,0.606995
900,497609454,-0.207909,0.328299,-0.236063,-0.890653,-7.033294,-2.104811,7.542803
901,497642788,-0.180182,0.343787,-0.219995,-0.894954,-3.857465,-2.885220,10.846375
902,497676122,-0.158417,0.334884,-0.208068,-0.905240,-2.496459,-2.033199,7.819197
903,497709456,-0.141802,0.313547,-0.196579,-0.918114,-2.945910,0.687942,2.670544
904,497742790,-0.131107,0.295685,-0.187587,-0.927463,-1.787517,4.030791,-1.330635
905,497776124,-0.125535,0.292822,-0.183614,-0.929934,-1.096487,5.553071,-4.313641
906,497809458,-0.120898,0.309133,-0.182652,-0.925448,2.746770,5.783219,-4.315248
907,497842792,-0.118786,0.318901,-0.179547,-0.923011,3.925067,5.311559,-3.898139
908,497876126,-0.122144,0.316419,-0.172792,-0.924715,1.921521,5.009150,-5.920994
909,497909460,-0.124794,0.318948,-0.165398,-0.924844,1.762346,4.320995,-5.281991
910,497942794,-0.129765,0.321424,-0.156325,-0.924882,0.811934,2.854916,-3.067153
911,497976128,-0.139964,0.323644,-0.143533,-0.924693,-0.116285,1.999536,-2.198486
912,498009462,-0.156712,0.324626,-0.126315,-0.924175,0.389144,-0.074031,0.445853
913,498042796,-0.180533,0.321416,-0.106691,-0.923424,-0.829393,1.618118,1.380726
914,498076130,-0.207931,0.318362,-0.091694,-0.920325,-1.677670,1.326730,3.999472
915,498109464,-0.239031,0.311587,-0.083524,-0.915858,-1.053398,2.601293,4.245180
916,498142798,-0.274232,0.296299,-0.082116,-0.911184,0.050720,2.105074,5.333606
917,498176132,-0.310313,0.278129,-0.091228,-0.904446,0.584382,3.349697,4.777649
918,498209466,-0.344490,0.256920,-0.111025,-0.896096,2.168071,1.504533,3.759455
919,498242800,-0.378524,0.233570,-0.134408,-0.885491,2.873668,1.466144,0.416683
920,498276134,-0.410367,0.210762,-0.159280,-0.872814,3.651750,1.045248,-0.198857
921,498309468,-0.440924,0.191801,-0.184905,-0.857090,3.253622,-0.414306,0.182594
922,498342802,-0.473199,0.171327,-0.207491,-0.838852,2.951857,-1.313814,-0.926295
923,498376136,-0.504766,0.152604,-0.228220,-0.818434,2.737409,-1.046605,-1.114859
924,498409470,-0.537885,0.134669,-0.245639,-0.795110,1.065400,-1.993466,-1.921549
925,498442804,-0.573087,0.121470,-0.256408,-0.768808,0.232338,-1.857617,-1.580807
926,498476138,-0.606944,0.116396,-0.263787,-0.740596,-0.780152,-2.009912,-1.765369
927,498509472,-0.637165,0.121672,-0.268292,-0.712202,-1.499246,-2.608217,-2.467500
928,498542806,-0.667191,0.129568,-0.264877,-0.684035,-1.002073,-2.404508,-1.490719
929,498576140,-0.697436,0.141300,-0.255803,-0.654352,-1.737176,-1.460862,-2.364780
930,498609474,-0.726220,0.159967,-0.245744,-0.621788,-0.899480,-1.340744,-1.617016
931,498642808,-0.756100,0.177355,-0.227639,-0.587396,-2.052242,-1.590072,-0.643567
932,498676142,-0.789345,0.192244,-0.198228,-0.548340,-1.476435,0.943776,-0.803251
933,498709476,-0.814543,0.219181,-0.182595,-0.505108,-0.688858,0.100695,0.457588
934,498742810,-0.830824,0.251947,-0.181925,-0.461684,-1.448328,-0.437287,1.939195
935,498776144,-0.843368,0.278338,-0.176531,-0.424371,-1.642368,-4.844105,3.505810
936,498809478,-0.850624,0.296371,-0.170710,-0.399318,-1.464422,-4.681719,5.210274
937,498842812,-0.851936,0.305234,-0.167728,-0.391025,-2.845782,-4.646752,4.288458
938,498876146,-0.847697,0.308859,-0.163478,-0.399106,-4.116230,-3.542679,1.853266
939,498909480,-0.838606,0.310725,-0.154530,-0.419888,-3.428924,-2.591276,0.636588
940,498942814,-0.823793,0.314283,-0.147616,-0.448103,-3.035677,-1.915532,0.160709
941,498976148,-0.803376,0.319703,-0.144206,-0.481223,-3.021271,-2.137804,0.565014
942,499009482,-0.777485,0.326924,-0.142319,-0.518053,-2.570379,-2.424834,0.073558
943,499042816,-0.746164,0.335293,-0.140027,-0.557858,-1.808622,-2.731683,0.630824
944,499076150,-0.710923,0.341635,-0.135450,-0.599602,-0.617633,-1.843354,0.724129
945,499109484,-0.672211,0.347957,-0.130888,-0.640252,0.006559,-0.973786,0.348404
946,499142818,-0.631075,0.355063,-0.126638,-0.677962,0.886083,-0.892983,1.114729
947,499176152,-0.590970,0.356696,-0.118760,-0.713732,1.683698,0.170649,0.929226
948,499209486,-0.553034,0.351241,-0.106552,-0.747947,2.370930,-0.093176,0.300738
949,499242820,-0.518045,0.337374,-0.086993,-0.781176,2.674366,0.575670,-0.117878
950,499276154,-0.485218,0.321502,-0.065554,-0.810492,2.533829,2.250593,0.019388
951,499309488,-0.455183,0.309708,-0.048604,-0.833380,2.153118,3.080042,0.184594
952,499342822,-0.431015,0.301605,-0.036501,-0.849660,1.222043,4.311601,-0.567295
953,499376156,-0.415569,0.295201,-0.029074,-0.859831,0.614649,5.030021,0.080810
954,499409490,-0.413306,0.289624,-0.027271,-0.862872,0.144555,6.088161,-2.815077
955,499442824,-0.423266,0.293794,-0.039077,-0.856154,-2.086369,5.542224,3.643812
956,499476158,-0.442046,0.300240,-0.059145,-0.843178,-3.088414,3.735085,2.399288
957,499509492,-0.463442,0.300434,-0.076952,-0.830081,-1.855300,0.176523,3.115275
958,499542826,-0.485950,0.286360,-0.088061,-0.821031,-1.151712,-0.669831,3.085575
959,499576160,-0.505610,0.266731,-0.097503,-0.814679,-0.232992,-2.340744,1.415833
960,499609494,-0.518174,0.255683,-0.110753,-0.808610,1.436827,-3.639235,-0.600232
961,499642828,-0.524106,0.256470,-0.124165,-0.802567,5.408927,-4.887774,-1.666379
962,499676162,-0.527799,0.251652,-0.129777,-0.800783,5.093873,-3.399943,-3.712479
963,499709496,-0.523969,0.250504,-0.130235,-0.803578,4.283653,-3.915754,-5.643615
964,499742830,-0.508883,0.263608,-0.127204,-0.809545,2.904682,-4.117663,-5.396929
965,499776164,-0.486921,0.280467,-0.113789,-0.819325,1.287185,-2.958319,-1.383147
966,499809498,-0.459712,0.297709,-0.096878,-0.831050,-0.773427,-1.888815,1.999778
967,499842832,-0.429796,0.315339,-0.086381,-0.841647,-2.377802,-1.074932,3.826167
968,499876166,-0.402647,0.321754,-0.081114,-0.853092,-3.373081,0.223160,6.927301
969,499909500,-0.380299,0.314211,-0.083300,-0.865852,-4.038483,3.052141,6.174976
970,499942834,-0.359163,0.307063,-0.097459,-0.875906,-3.035889,1.936698,4.292154
971,499976168,-0.340965,0.294014,-0.113538,-0.885665,-1.476690,1.914828,2.323649
972,500009502,-0.324309,0.275673,-0.128317,-0.895744,0.173363,1.543105,-0.010370
973,500042836,-0.307517,0.258062,-0.140986,-0.904962,0.423364,1.133527,-2.618846
974,500076170,-0.288583,0.243090,-0.145150,-0.914633,0.681625,0.846775,-4.409807
975,500109504,-0.266909,0.230852,-0.138103,-0.925413,1.660551,2.278534,-4.336776
976,500142838,-0.246159,0.226011,-0.123644,-0.934362,0.446640,2.189165,-3.917480
977,500176172,-0.234231,0.219905,-0.105782,-0.941054,-0.609682,1.604143,-0.032580
978,500209506,-0.229437,0.217288,-0.094071,-0.944082,-2.326180,-0.505680,4.302850
979,500242840,-0.230611,0.215051,-0.093208,-0.944393,-2.028261,-1.695274,4.643317
980,500276174,-0.235219,0.208965,-0.102751,-0.943633,0.187930,-1.350825,4.627127
981,500309508,-0.240557,0.195294,-0.118374,-0.943385,0.933066,-0.532836,2.498378
982,500342842,-0.246056,0.177756,-0.137394,-0.942856,1.014328,-0.085630,0.541187
983,500376176,-0.251353,0.162984,-0.155938,-0.941242,0.783317,0.355439,-1.215828
984,500409510,-0.253012,0.157451,-0.171260,-0.939074,1.637914,0.734766,-2.968967
985,500442844,-0.253159,0.152224,-0.181464,-0.937979,2.866941,1.414265,-2.944257
986,500476178,-0.254531,0.142113,-0.185394,-0.938425,2.780153,1.929464,-3.858783
987,500509512,-0.255221,0.134402,-0.185151,-0.939422,1.519447,2.965568,-4.686063
988,500542846,-0.254238,0.132183,-0.180841,-0.940841,1.816733,4.536451,-3.593904
989,500576180,-0.255883,0.134050,-0.173663,-0.941483,0.507513,5.470019,-3.784886
990,500609514,-0.262787,0.141817,-0.170400,-0.939037,1.819418,4.723733,-1.383901
991,500642848,-0.280236,0.144959,-0.172631,-0.933085,1.634194,4.161755,0.515997
992,500676182,-0.311503,0.139536,-0.178420,-0.922853,0.660705,2.202418,1.298489
993,500709516,-0.351259,0.138526,-0.189093,-0.906458,1.308336,1.496334,1.301583
994,500742850,-0.395898,0.142566,-0.204675,-0.883767,2.258405,-0.039594,0.969320
995,500776184,-0.444848,0.144827,-0.219938,-0.856013,1.716574,-1.978835,0.930576
996,500809518,-0.495752,0.142893,-0.231208,-0.824833,1.847024,-1.657883,0.375931
997,500842852,-0.545864,0.140039,-0.239731,-0.790535,1.106346,-2.074567,0.952773
998,500876186,-0.593560,0.141276,-0.246127,-0.753090,0.392637,-1.174426,-0.733982
999,500909520,-0.637074,0.143383,-0.252277,-0.714094,1.383341,-2.750826,2.259347
1000,500942854,-0.677146,0.140491,-0.254959,-0.675816,0.175548,-1.638602,1.599299
1001,500976188,-0.714405,0.134533,-0.253967,-0.637983,-1.202547,-1.486981,-0.312223
1002,501009522,-0.747697,0.130263,-0.249132,-0.601589,-2.034458,-2.024929,-0.113283
1003,501042856,-0.776057,0.131650,-0.242171,-0.567232,-2.312019,-1.572867,-0.620580
1004,501076190,-0.801786,0.137848,-0.230200,-0.533986,-3.325841,-1.520622,-0.752468
1005,501109524,-0.825098,0.146661,-0.209938,-0.503612,-2.041622,-1.578674,0.400818
1006,501142858,-0.842068,0.164405,-0.196740,-0.474532,-1.554821,0.090155,-2.092042
1007,501176192,-0.853988,0.186984,-0.187467,-0.447875,-2.486576,-3.410696,1.421107
1008,501209526,-0.864319,0.202349,-0.170964,-0.427521,-1.279845,-1.324511,1.977020
1009,501242860,-0.869949,0.216500,-0.160814,-0.412856,-2.107631,-2.436219,1.579016
1010,501276194,-0.872007,0.227515,-0.152466,-0.405697,-2.207178,-2.775298,1.618793
1011,501309528,-0.870972,0.235158,-0.144232,-0.406572,-2.644533,-2.723384,0.701192
1012,501342862,-0.866011,0.241536,-0.138466,-0.415342,-2.827982,-2.500643,1.161489
1013,501376196,-0.856524,0.248821,-0.136462,-0.431078,-2.894824,-3.024040,0.817513
1014,501409530,-0.842691,0.256749,-0.134776,-0.453633,-2.607139,-3.318450,0.292624
1015,501442864,-0.824003,0.266270,-0.133505,-0.481965,-1.696435,-2.899715,0.255157
1016,501476198,-0.800380,0.277636,-0.133499,-0.514280,-1.412475,-3.204864,1.227815
1017,501509532,-0.772842,0.289444,-0.131404,-0.549241,-0.421211,-2.319749,1.285693
1018,501542866,-0.740206,0.303536,-0.130105,-0.585687,0.297425,-2.238752,1.424581
1019,501576200,-0.702321,0.318038,-0.127466,-0.623975,0.929231,-1.887715,1.296126
1020,501609534,-0.659398,0.333030,-0.124047,-0.662490,1.672866,-0.997401,0.656184
1021,501642868,-0.612987,0.348837,-0.120658,-0.698567,1.876793,-0.325536,0.571010
1022,501676202,-0.568482,0.357932,-0.111646,-0.732286,1.732958,0.362467,0.195917
1023,501709536,-0.523979,0.366737,-0.104370,-0.761612,1.644849,1.695423,1.975718
1024,501742870,-0.482542,0.372290,-0.099144,-0.786587,0.898622,1.686248,0.008142
1025,501776204,-0.444061,0.380288,-0.094463,-0.805769,1.450775,1.215245,-0.147257
1026,501809538,-0.409308,0.386830,-0.088479,-0.821582,1.273440,1.915927,0.224319
1027,501842872,-0.383042,0.383716,-0.079432,-0.836497,0.976236,2.151412,-0.702080
1028,501876206,-0.362345,0.380484,-0.070993,-0.847875,0.347043,2.418705,-1.111542
1029,501909540,-0.346938,0.382527,-0.063489,-0.853974,-0.170950,3.129508,-0.976049
1030,501942874,-0.339413,0.383874,-0.056146,-0.856903,0.022739,4.004672,0.199392
1031,501976208,-0.341464,0.379092,-0.051626,-0.858500,-0.210852,5.654871,0.831774
1032,502009542,-0.350325,0.376623,-0.056251,-0.855721,-1.302946,6.108102,0.317680
1033,502042876,-0.365456,0.377620,-0.070050,-0.847900,-2.743619,4.182714,2.616073
1034,502076210,-0.388017,0.371324,-0.084438,-0.839301,-4.457871,1.496426,3.799449
1035,502109544,-0.413598,0.361551,-0.101580,-0.829394,-3.216713,0.649844,4.997967
1036,502142878,-0.439082,0.343106,-0.121713,-0.821381,-1.506040,-1.663449,2.788071
1037,502176212,-0.459424,0.319707,-0.142154,-0.816398,0.590970,-3.266120,1.551513
1038,502209546,-0.475903,0.294317,-0.159862,-0.813225,1.966994,-3.366574,-0.376480
1039,502242880,-0.488103,0.272281,-0.175687,-0.810400,3.001235,-3.346681,-2.519849
1040,502276214,-0.494832,0.257873,-0.188336,-0.808188,3.975954,-3.537477,-3.788117
1041,502309548,-0.495125,0.248536,-0.194764,-0.809410,4.588699,-3.773003,-3.885309
1042,502342882,-0.489004,0.242037,-0.192281,-0.815669,3.744113,-3.614362,-3.977035
1043,502376216,-0.475343,0.239632,-0.181352,-0.826882,2.649731,-3.016284,-3.442965
1044,502409550,-0.452936,0.243757,-0.164769,-0.841592,2.131059,-2.502676,-1.876961
1045,502442884,-0.427475,0.243795,-0.141174,-0.859008,2.076230,-2.428077,-1.460376
1046,502476218,-0.401298,0.237350,-0.112148,-0.877521,1.753335,-2.326358,-1.680320
1047,502509552,-0.371991,0.241963,-0.088973,-0.891715,-1.166961,0.424856,0.643222
1048,502542886,-0.342179,0.254592,-0.073679,-0.901479,-2.890419,-0.063727,3.059870
1049,502576220,-0.316692,0.259928,-0.062006,-0.910107,-4.087133,-0.174964,3.594851
1050,502609554,-0.295533,0.256848,-0.055690,-0.918468,-4.386353,0.894903,5.754974
1051,502642888,-0.278819,0.247550,-0.055730,-0.926212,-3.718312,2.090904,5.472405
1052,502676222,-0.265051,0.237122,-0.062660,-0.932518,-1.665342,2.981628,3.220540
1053,502709556,-0.253051,0.230535,-0.076138,-0.936492,-1.386142,2.773873,1.420023
1054,502742890,-0.245932,0.222305,-0.091963,-0.938955,-0.136300,3.482346,0.599886
1055,502776224,-0.246069,0.205535,-0.108798,-0.940938,0.423455,2.341410,-0.598337
1056,502809558,-0.248760,0.187418,-0.124174,-0.942109,1.800019,1.565556,-1.763130
1057,502842892,-0.254878,0.171491,-0.137014,-0.941727,0.246394,2.656204,-3.300857
1058,502876226,-0.260788,0.165559,-0.147412,-0.939599,0.814764,2.928894,-3.784454
1059,502909560,-0.266200,0.169211,-0.154641,-0.936262,1.949071,2.828105,-3.814641
1060,502942894,-0.276093,0.167069,-0.154240,-0.933845,0.511152,2.073317,-2.363968
1061,502976228,-0.292807,0.153303,-0.146062,-0.932429,-1.343236,2.053311,0.935718
1062,503009562,-0.316045,0.128938,-0.134340,-0.930290,-2.976505,0.644978,4.191730
1063,503042896,-0.350245,0.077606,-0.118368,-0.925900,-2.068228,-0.876410,5.204909
1064,503076230,-0.392255,0.016551,-0.102093,-0.914021,-2.107151,1.204021,4.857265
1065,503109564,-0.433531,-0.025371,-0.098590,-0.895367,0.076900,1.354069,3.248028
1066,503142898,-0.466067,-0.036506,-0.111966,-0.876874,1.614460,-0.534595,0.334731
1067,503176232,-0.488625,-0.033090,-0.130190,-0.862088,2.517665,-3.037220,-1.818056
1068,503209566,-0.504803,-0.031746,-0.140307,-0.851161,3.197857,-1.826120,-2.269946
1069,503242900,-0.516032,-0.033332,-0.145795,-0.843409,3.885765,-1.525497,-2.792105
1070,503276234,-0.522958,-0.035356,-0.150202,-0.838272,2.688457,0.718335,-4.423994
1071,503309568,-0.525199,-0.030463,-0.159929,-0.835258,2.607628,0.659484,-4.584654
1072,503342902,-0.525829,-0.021825,-0.170241,-0.833092,3.047329,0.106973,-3.312911
1073,503376236,-0.529173,-0.010922,-0.179837,-0.829163,2.776772,2.225948,-3.052269
1074,503409570,-0.533164,0.006381,-0.195255,-0.823144,3.540999,2.228410,-1.800882
1075,503442904,-0.539579,0.028526,-0.215341,-0.813428,2.885709,2.029158,-1.589163
1076,503476238,-0.551915,0.046014,-0.233537,-0.799205,3.059757,1.115521,-0.058578
1077,503509572,-0.570516,0.056915,-0.250656,-0.780025,3.038495,1.080466,0.285038
1078,503542906,-0.592701,0.065050,-0.268610,-0.756517,1.944911,-0.338009,1.920161
1079,503576240,-0.619644,0.069911,-0.282524,-0.728924,1.066554,-1.118824,1.771250
1080,503609574,-0.649643,0.072468,-0.291562,-0.698355,0.673707,-1.039484,1.566566
1081,503642908,-0.682335,0.073488,-0.294881,-0.664875,-0.572588,-1.835417,1.358626
1082,503676242,-0.720095,0.074173,-0.290649,-0.625684,-2.410832,0.152363,-1.271702
1083,503709576,-0.757861,0.084184,-0.284289,-0.581150,-3.528581,0.333469,-2.026996
1084,503742910,-0.796114,0.098445,-0.267281,-0.533918,-5.547843,-0.956233,-2.561118
1085,503776244,-0.833391,0.116342,-0.232613,-0.487659,-2.406894,2.699392,-1.025078
1086,503809578,-0.862286,0.143899,-0.199879,-0.442494,-2.467783,-1.390402,-0.020421
1087,503842912,-0.883896,0.172918,-0.163050,-0.402788,-3.107468,-2.995054,2.231103
1088,503876246,-0.896628,0.203374,-0.128944,-0.371572,-0.942040,-0.693761,2.078317
1089,503909580,-0.900546,0.235659,-0.115113,-0.346738,-1.037497,-5.847438,3.916390
1090,503942914,-0.898359,0.262070,-0.118430,-0.332026,0.188058,-4.302001,4.462443
1091,503976248,-0.892937,0.276600,-0.134747,-0.328627,-3.679358,-5.211770,5.782036
1092,504009582,-0.888339,0.277388,-0.140803,-0.337757,-3.117361,-2.281416,2.020053
1093,504042916,-0.881434,0.275810,-0.144503,-0.355129,-3.681084,-2.222367,0.258319
1094,504076250,-0.872044,0.272281,-0.141456,-0.381299,-3.495198,-2.478745,0.482026
1095,504109584,-0.858350,0.270833,-0.138564,-0.413134,-2.386650,-2.021590,0.657942
1096,504142918,-0.839129,0.273990,-0.141215,-0.448158,-2.184019,-2.463390,0.708095
1097,504176252,-0.814340,0.280204,-0.145658,-0.486944,-1.990344,-3.126775,0.541953
1098,504209586,-0.783572,0.287572,-0.149321,-0.530109,-0.681411,-2.786237,1.422668
1099,504242920,-0.744777,0.296133,-0.158459,-0.576627,0.614092,-2.433012,4.784709
1100,504276254,-0.697215,0.298505,-0.174331,-0.628005,2.585002,-1.803435,6.697422
1101,504309588,-0.642947,0.293715,-0.194268,-0.680152,0.364416,-1.257129,-1.613327
1102,504342922,-0.580159,0.297062,-0.213314,-0.727779,-0.004570,-0.822738,-2.706633
1103,504376256,-0.515778,0.302471,-0.224571,-0.769446,0.786980,-0.269573,-2.029242
1104,504409590,-0.459138,0.300935,-0.221683,-0.805905,-0.461701,0.080763,-4.546971
1105,504442924,-0.411198,0.300246,-0.206210,-0.835608,-0.114061,0.854798,-3.717993
1106,504476258,-0.374377,0.303490,-0.183158,-0.856845,-0.671949,3.988560,-2.720683
1107,504509592,-0.347472,0.319863,-0.161144,-0.866590,1.296881,2.893369,-0.527362
1108,504542926,-0.338063,0.336476,-0.136521,-0.868248,2.396956,5.288613,0.226852
1109,504576260,-0.341284,0.348396,-0.117697,-0.865036,1.683878,6.257540,0.774002
1110,504609594,-0.348254,0.368278,-0.114986,-0.854321,2.973238,7.732187,5.308415
1111,504642928,-0.363787,0.370292,-0.123575,-0.845735,1.758873,4.255854,4.438945
1112,504676262,-0.381471,0.362074,-0.141201,-0.838713,-1.012932,3.788658,4.915335
1113,504709596,-0.402041,0.345539,-0.166471,-0.831414,-1.813461,0.636939,4.730171
1114,504742930,-0.424478,0.320602,-0.191388,-0.824863,-2.390258,-0.388901,2.087605
1115,504776264,-0.436813,0.311460,-0.223809,-0.813690,-2.123442,-1.246760,1.274777
1116,504809598,-0.441490,0.311433,-0.258466,-0.800804,0.520973,-2.307376,-0.004988
1117,504842932,-0.448865,0.301063,-0.283653,-0.792097,1.778439,-3.808878,-1.174841
1118,504876266,-0.460918,0.281235,-0.294982,-0.788316,1.527470,-4.037467,-4.622072
1119,504909600,-0.466533,0.270159,-0.287072,-0.791799,1.639096,-9.631527,-5.231432
1120,504942934,-0.449699,0.293051,-0.250292,-0.805755,1.259457,-5.964970,-7.993910
1121,504976268,-0.422941,0.322236,-0.181745,-0.827193,6.541846,-5.446211,3.367677
1122,505009602,-0.396667,0.298092,-0.097749,-0.862692,6.791610,-4.937356,5.634841
1123,505042936,-0.362140,0.238305,-0.035798,-0.900433,0.801135,2.083828,4.521683
1124,505076270,-0.314636,0.212034,-0.023801,-0.924919,-1.307144,1.388864,3.889420
1125,505109604,-0.266831,0.209141,-0.038518,-0.939986,-1.505650,-0.196471,3.031516
1126,505142938,-0.226188,0.201783,-0.061193,-0.950985,-1.795454,0.903341,-0.337557
1127,505176272,-0.193530,0.199419,-0.088551,-0.956521,-1.080375,1.034959,-4.107044
1128,505209606,-0.166504,0.209168,-0.112767,-0.956977,-0.794032,1.960006,-5.061730
1129,505242940,-0.140959,0.232805,-0.129319,-0.953522,0.313612,3.724175,-4.833877
1130,505276274,-0.119640,0.253488,-0.134002,-0.950510,0.948533,4.362192,-4.598411
1131,505309608,-0.103663,0.262262,-0.126612,-0.951019,-0.840543,5.641974,-2.860197
1132,505342942,-0.096369,0.258984,-0.114062,-0.954267,-1.757316,4.798258,-0.578347
1133,505376276,-0.102896,0.244969,-0.101824,-0.958660,-4.335780,4.303075,1.138775
1134,505409610,-0.124061,0.226538,-0.094213,-0.961462,-5.317290,2.338951,3.724694
1135,505442944,-0.161009,0.204393,-0.091478,-0.961211,-2.970909,0.436364,6.421938
1136,505476278,-0.210312,0.175232,-0.094094,-0.957186,-3.750254,1.382782,5.258116
1137,505509612,-0.260239,0.165851,-0.107598,-0.945086,-0.991457,1.633716,1.945863
1138,505542946,-0.303439,0.169913,-0.129901,-0.928534,4.161628,0.406557,0.392701
1139,505576280,-0.340878,0.161831,-0.151431,-0.913607,5.747884,0.642202,-0.692532
1140,505609614,-0.368053,0.153129,-0.174649,-0.900323,4.911385,0.763590,-3.460003
1141,505642948,-0.376658,0.159136,-0.203046,-0.889703,6.150502,0.118765,-3.944136
1142,505676282,-0.375566,0.157800,-0.225687,-0.884935,4.746020,-0.724109,-4.488989
1143,505709616,-0.369627,0.154115,-0.241487,-0.883914,5.616410,-0.908995,-4.634859
1144,505742950,-0.362284,0.148145,-0.252627,-0.884860,4.025911,-0.531421,-3.759189
1145,505776284,-0.357918,0.142670,-0.262051,-0.884796,1.565037,1.276094,-2.819133
1146,505809618,-0.353361,0.148625,-0.275304,-0.881618,0.537409,-0.026703,-1.262460
1147,505842952,-0.355363,0.157958,-0.289510,-0.874612,0.846784,0.606411,-0.732991
1148,505876286,-0.363247,0.172413,-0.305599,-0.863093,0.735957,-0.092011,1.918631
1149,505909620,-0.377126,0.182823,-0.324138,-0.848105,4.918286,-0.685123,4.421076
1150,505942954,-0.396556,0.174804,-0.342739,-0.833494,6.599321,-0.354464,3.510827
1151,505976288,-0.418642,0.154007,-0.361465,-0.818754,4.749325,-2.375635,2.530209
1152,506009622,-0.446493,0.134768,-0.377069,-0.800185,-3.257625,-2.540406,-0.174453
1153,506042956,-0.483689,0.128605,-0.384352,-0.775741,-8.263720,-0.506880,-1.015441
1154,506076290,-0.533573,0.132209,-0.377751,-0.745064,-9.980930,1.424768,-3.324367
1155,506109624,-0.592378,0.146333,-0.356113,-0.707711,-7.879995,3.287224,-5.218175
1156,506142958,-0.651151,0.170219,-0.324597,-0.664576,-5.371524,1.407125,-5.021599
1157,506176292,-0.705402,0.195628,-0.280964,-0.620639,-2.934874,1.841481,-2.613254
1158,506209626,-0.741147,0.233656,-0.252201,-0.576625,-1.189203,1.375051,1.371147
1159,506242960,-0.768843,0.271195,-0.227990,-0.532306,-1.740314,-3.318604,1.520128
1160,506276294,-0.786632,0.302969,-0.202063,-0.498585,-0.711956,-4.049632,5.610232
1161,506309628,-0.792713,0.327916,-0.186059,-0.479015,-0.530803,-3.307275,7.133678
1162,506342962,-0.792656,0.345078,-0.172606,-0.472039,-1.981777,-4.810052,2.685415
1163,506376296,-0.785263,0.357227,-0.157963,-0.480410,-0.852437,-5.420519,3.978454
1164,506409630,-0.774291,0.359718,-0.142614,-0.500732,-0.990558,-3.531443,2.776917
1165,506442964,-0.758863,0.360225,-0.131768,-0.526306,-1.708977,-3.003295,0.723825
1166,506476298,-0.738144,0.362484,-0.124082,-0.555290,-1.805602,-2.506378,0.555625
1167,506509632,-0.711759,0.367779,-0.119293,-0.586432,-1.826030,-2.604184,-0.067015
1168,506542966,-0.678860,0.376166,-0.114998,-0.620016,-0.784673,-3.107460,1.076923
1169,506576300,-0.641188,0.382450,-0.109438,-0.656223,0.105462,-2.275047,1.212729
1170,506609634,-0.600216,0.386901,-0.106624,-0.691863,0.548312,-2.090555,1.034606
1171,506642968,-0.556769,0.389691,-0.106906,-0.725752,0.852412,-1.303323,0.830813
1172,506676302,-0.513584,0.391353,-0.109413,-0.755710,0.528433,-0.587949,0.453154
1173,506709636,-0.473969,0.394156,-0.113748,-0.779136,0.265838,-0.726951,0.092845
1174,506742970,-0.442361,0.398539,-0.119326,-0.794506,0.039990,0.354500,0.221267
1175,506776304,-0.416808,0.411468,-0.129358,-0.800142,0.820617,0.508658,-2.319519
1176,506809638,-0.394652,0.427995,-0.136417,-0.801533,1.822461,0.792587,-0.492581
1177,506842972,-0.375326,0.434035,-0.134797,-0.807818,3.098823,2.928223,1.822082
1178,506876306,-0.356851,0.430958,-0.127407,-0.818960,3.453105,3.730236,-0.245097
1179,506909640,-0.337632,0.423682,-0.114515,-0.832695,4.202943,3.564322,-0.449649
1180,506942974,-0.319846,0.411617,-0.096652,-0.847894,3.179601,4.687768,-0.604904
1181,506976308,-0.304533,0.402368,-0.080387,-0.859589,0.176564,4.156412,-1.543073
1182,507009642,-0.294331,0.400149,-0.065594,-0.865415,-0.965590,1.683987,-1.896083
1183,507042976,-0.286953,0.408386,-0.052824,-0.864918,-1.440730,-0.687393,-0.994059
1184,507076310,-0.281216,0.418377,-0.040215,-0.862703,-1.087850,-2.617881,1.786196
1185,507109644,-0.274134,0.426960,-0.028666,-0.861238,-0.975549,-4.255287,2.044928
1186,507142978,-0.261607,0.436365,-0.018718,-0.860693,-0.421251,-5.272508,2.892669
1187,507176312,-0.242915,0.437417,-0.010716,-0.865759,-1.041782,-4.695652,4.495233
1188,507209646,-0.218942,0.430729,-0.011191,-0.875447,-2.919864,-2.231308,3.371574
1189,507242980,-0.196840,0.420148,-0.025121,-0.885491,-2.871812,-1.303628,3.103328
1190,507276314,-0.182522,0.402782,-0.049618,-0.895537,-0.992469,-1.003890,2.647320
1191,507309648,-0.172707,0.384185,-0.077649,-0.903626,-0.777151,1.959840,2.397333
1192,507342982,-0.164659,0.367961,-0.108265,-0.908717,-0.933882,4.955830,2.788652
1193,507376316,-0.157691,0.349711,-0.140841,-0.912685,0.887088,5.323322,0.570224
1194,507409650,-0.152830,0.328180,-0.170959,-0.916356,1.154860,4.953708,-1.894623
1195,507442984,-0.150721,0.305774,-0.195061,-0.919637,0.803660,4.322831,-4.500622
1196,507476318,-0.150644,0.291335,-0.210553,-0.920920,1.098808,3.053759,-7.254128
1197,507509652,-0.152792,0.285955,-0.215147,-0.921190,1.761521,2.474272,-7.697834
1198,507542986,-0.159835,0.284777,-0.207538,-0.922105,1.696581,1.026471,-8.057215
1199,507576320,-0.176134,0.280718,-0.185270,-0.925119,1.189400,1.025147,-6.307795
1200,507609654,-0.200073,0.276350,-0.152464,-0.927551,-0.664897,2.131585,-1.729440
1201,507642988,-0.228271,0.279608,-0.117819,-0.925108,-1.739775,1.642574,1.535336
1202,507676322,-0.260513,0.285159,-0.086470,-0.918333,-1.787933,0.698980,3.421554
1203,507709656,-0.294122,0.289411,-0.064636,-0.908598,-2.724261,-0.954548,7.617296
1204,507742990,-0.331193,0.282063,-0.053509,-0.898824,-2.476697,-1.186029,7.688965
1205,507776324,-0.368434,0.266720,-0.052725,-0.889006,-2.441595,-1.403970,4.874851
1206,507809658,-0.400541,0.256866,-0.061125,-0.877408,-0.501945,-1.963402,3.005395
1207,507842992,-0.427087,0.245461,-0.070079,-0.867427,2.141967,-1.055636,1.250076
1208,507876326,-0.448087,0.233153,-0.079629,-0.859367,3.138373,-0.514695,-0.684783
1209,507909660,-0.463389,0.222244,-0.088671,-0.853236,4.020890,0.260373,-1.960886
1210,507942994,-0.472508,0.216929,-0.098138,-0.848553,5.092381,0.372259,-3.250755
1211,507976328,-0.476312,0.212869,-0.105907,-0.846518,4.467488,2.462616,-2.970545
1212,508009662,-0.478066,0.215034,-0.117293,-0.843476,2.876533,0.790150,-2.121082
1213,508042996,-0.483037,0.214999,-0.124251,-0.839647,0.143680,-0.501412,-1.828717
1214,508076330,-0.496688,0.208816,-0.124162,-0.833232,-1.935028,1.274488,-1.234681
1215,508109664,-0.517417,0.203140,-0.127589,-0.821420,-3.053110,0.834424,2.887755
1216,508142998,-0.542870,0.195572,-0.135428,-0.805418,-1.241335,0.860648,4.312113
1217,508176332,-0.567612,0.186935,-0.148700,-0.787880,2.109308,0.710402,4.122689
1218,508209666,-0.589149,0.171220,-0.166614,-0.771895,4.227388,0.984258,3.041884
1219,508243000,-0.605568,0.152551,-0.191367,-0.757225,4.609401,0.049540,1.167615
1220,508276334,-0.620445,0.128601,-0.214046,-0.743430,4.150244,-1.689510,-0.076399
1221,508309668,-0.635877,0.102431,-0.231639,-0.729045,2.884002,-1.754923,-1.637179
1222,508343002,-0.653303,0.076386,-0.243582,-0.712758,0.972852,-0.831688,-4.322591
1223,508376336,-0.671225,0.060182,-0.252203,-0.694423,-0.936033,-0.379425,-4.632864
1224,508409670,-0.690399,0.057049,-0.256992,-0.673829,-2.028322,-1.351175,-4.281273
1225,508443004,-0.714538,0.061140,-0.252897,-0.649411,-2.152874,-0.007817,-3.146241
1226,508476338,-0.742677,0.072291,-0.242344,-0.620056,-1.168459,1.212450,-1.775950
1227,508509672,-0.770874,0.095086,-0.231131,-0.585906,-2.160625,1.025986,-2.604372
1228,508543006,-0.796947,0.129563,-0.217199,-0.548551,-2.298679,0.445398,-2.722788
1229,508576340,-0.824642,0.166775,-0.192274,-0.505152,-2.581579,-0.332902,-2.468048
1230,508609674,-0.848220,0.209218,-0.167358,-0.456878,-2.030784,-1.551831,-2.439085
1231,508643008,-0.860267,0.256734,-0.152844,-0.413112,-0.727047,-4.136501,4.742508
1232,508676342,-0.863273,0.297207,-0.152219,-0.378487,-1.425373,-6.227941,4.930267
1233,508709676,-0.864457,0.316204,-0.143953,-0.363319,-4.272330,-6.811949,8.413517
1234,508743010,-0.861210,0.320952,-0.138105,-0.369092,-4.629490,-3.342790,4.855144
1235,508776344,-0.851597,0.325174,-0.138748,-0.387024,-5.358111,-4.663074,2.352315
1236,508809678,-0.840720,0.320280,-0.128081,-0.417374,-3.259617,-2.004929,3.217986
1237,508843012,-0.825372,0.312525,-0.119799,-0.454678,-2.387339,-1.418434,0.302317
1238,508876346,-0.801770,0.314447,-0.122574,-0.493213,-1.843218,-1.523420,-0.325096
1239,508909680,-0.771135,0.322910,-0.128292,-0.533495,-1.649885,-3.194967,0.153574
1240,508943014,-0.737423,0.327427,-0.122886,-0.577835,0.022234,-2.790836,-0.172798
1241,508976348,-0.700296,0.330051,-0.113680,-0.622674,0.680182,-2.484200,0.687315
1242,509009682,-0.661403,0.329505,-0.100894,-0.666174,1.160759,-2.751219,0.759396
1243,509043016,-0.621369,0.327595,-0.086643,-0.706448,1.792990,0.034932,-0.385576
1244,509076350,-0.580234,0.329585,-0.077669,-0.740719,2.024098,0.034753,0.874685
1245,509109684,-0.540879,0.332200,-0.072979,-0.769261,2.233010,1.430821,1.088280
1246,509143018,-0.505098,0.333722,-0.070870,-0.792766,2.275443,2.388954,0.915876
1247,509176352,-0.473595,0.333575,-0.069077,-0.812194,2.145007,3.175271,0.350160
1248,509209686,-0.447474,0.329861,-0.065582,-0.828646,2.074616,4.216277,0.348306
1249,509243020,-0.428238,0.327046,-0.064972,-0.839897,0.447835,6.344265,0.243314
1250,509276354,-0.417278,0.328864,-0.068395,-0.844420,0.129367,5.588651,0.177731
1251,509309688,-0.417822,0.325265,-0.070745,-0.845351,-1.456126,5.885019,0.536214
1252,509343022,-0.425903,0.319173,-0.075011,-0.843270,-1.771389,4.030048,2.064913
1253,509376356,-0.442888,0.307015,-0.082747,-0.838296,-3.514731,3.313994,3.314123
1254,509409690,-0.465619,0.292907,-0.097937,-0.829342,-2.519340,0.973358,3.407286
1255,509443024,-0.489143,0.275415,-0.119586,-0.818890,-0.428396,-1.680647,3.521844
1256,509476358,-0.508616,0.252787,-0.143871,-0.810373,1.407130,-3.224967,1.957269
1257,509509692,-0.519853,0.230680,-0.168663,-0.805039,2.405129,-4.265921,-0.184713
1258,509543026,-0.524851,0.207735,-0.187974,-0.803765,3.328536,-4.275446,-2.241472
1259,509576360,-0.523115,0.188179,-0.202540,-0.806171,3.298247,-4.306561,-4.730612
1260,509609694,-0.517516,0.175514,-0.208384,-0.811137,4.038533,-3.521317,-6.442064
1261,509643028,-0.508994,0.175481,-0.205828,-0.817167,4.625608,-2.581086,-6.281817
1262,509676362,-0.492129,0.193180,-0.198354,-0.825313,3.610258,-1.864852,-5.167564
1263,509709696,-0.465258,0.228451,-0.188938,-0.834052,2.255084,-2.571343,-2.540537
1264,509743030,-0.435785,0.265719,-0.173318,-0.842283,0.583584,-1.887773,1.004246
1265,509776364,-0.403810,0.304817,-0.159359,-0.847717,-2.621337,-1.286226,2.480628
1266,509809698,-0.372447,0.338086,-0.149794,-0.851197,-3.052349,-1.745177,5.063922
1267,509843032,-0.345245,0.341126,-0.138698,-0.863248,-1.953024,-1.937294,8.416599
1268,509876366,-0.320433,0.318063,-0.132375,-0.882401,-3.580066,1.299327,6.888683
1269,509909700,-0.296745,0.294810,-0.139726,-0.897497,-2.861409,2.322298,4.640389
1270,509943034,-0.272638,0.280487,-0.156340,-0.906945,-0.380153,2.405919,2.008443
1271,509976368,-0.253837,0.264687,-0.172548,-0.914183,-0.560582,3.637143,-0.889689
1272,510009702,-0.240474,0.251326,-0.186710,-0.918772,-0.309317,4.024328,-3.362813
1273,510043036,-0.233098,0.237913,-0.194425,-0.922636,0.983901,4.117416,-4.642835
1274,510076370,-0.232581,0.222432,-0.193351,-0.926844,0.160120,4.624001,-4.300477
1275,510109704,-0.236630,0.212110,-0.187531,-0.929432,0.182982,3.467777,-3.850014
1276,510143038,-0.247030,0.198546,-0.175674,-0.932035,-0.613433,2.504817,-2.390567
1277,510176372,-0.262033,0.185779,-0.161004,-0.933219,-1.260625,1.653720,0.434212
1278,510209706,-0.283690,0.170854,-0.147562,-0.931960,-1.039171,0.268841,3.203217
1279,510243040,-0.311661,0.146857,-0.136109,-0.928854,-0.880495,0.648990,5.189166
1280,510276374,-0.340735,0.118985,-0.133893,-0.922936,-0.334360,0.432879,5.800703
1281,510309708,-0.367583,0.092187,-0.143869,-0.914156,0.470279,-0.029163,4.322107
1282,510343042,-0.391035,0.069146,-0.162365,-0.903296,1.558052,-0.553502,1.751314
1283,510376376,-0.410433,0.050922,-0.183793,-0.891721,1.569218,-0.430419,-1.522825
1284,510409710,-0.423250,0.043648,-0.205559,-0.881303,2.057714,-0.987814,-3.413840
1285,510443044,-0.429552,0.046073,-0.225875,-0.873120,2.185914,0.563190,-5.226218
1286,510476378,-0.427579,0.068074,-0.246996,-0.866908,2.823304,-0.265458,-6.480219
1287,510509712,-0.420183,0.099517,-0.259604,-0.863796,2.222201,-0.689364,-5.702549
1288,510543046,-0.420198,0.116934,-0.256646,-0.862490,1.784817,0.060707,-1.964622
1289,510576380,-0.435387,0.110055,-0.238450,-0.861082,-2.402216,1.487165,1.262662
1290,510609714,-0.459780,0.101777,-0.215970,-0.855334,-4.939084,1.331265,1.643488
1291,510643048,-0.490226,0.094227,-0.192311,-0.844873,-2.016964,0.183491,3.724163
1292,510676382,-0.523183,0.077755,-0.171162,-0.831223,-0.388161,1.409259,4.747124
1293,510709716,-0.553917,0.062460,-0.161953,-0.814273,0.769108,0.962487,3.019803
1294,510743050,-0.580270,0.049228,-0.161115,-0.796807,2.974169,-0.602827,1.762506
1295,510776384,-0.601331,0.036776,-0.165398,-0.780825,3.859419,0.260725,-0.128459
1296,510809718,-0.611992,0.032835,-0.180639,-0.769254,4.429759,-0.619577,-1.636324
1297,510843052,-0.617091,0.027052,-0.199053,-0.760815,4.418126,-1.241086,-2.561078
1298,510876386,-0.621298,0.017395,-0.216304,-0.752924,3.321022,-0.902141,-3.433768
1299,510909720,-0.623179,0.011557,-0.235012,-0.745842,2.505610,-0.388383,-3.508582
1300,510943054,-0.624660,0.008005,-0.253818,-0.738450,1.769859,-0.994206,-2.995670
1301,510976388,-0.631062,0.007157,-0.269446,-0.727395,-0.327121,-2.153791,-2.334343
1302,511009722,-0.644994,0.009784,-0.279146,-0.711308,-0.950294,-1.115805,-2.416427
1303,511043056,-0.665115,0.021476,-0.284481,-0.690092,-1.868182,-0.580327,-2.681086
1304,511076390,-0.693675,0.042929,-0.278152,-0.663023,-3.657527,-0.114812,-3.390120
1305,511109724,-0.726699,0.079776,-0.258061,-0.631620,-4.478474,-0.520956,-1.336010
1306,511143058,-0.753555,0.132860,-0.239556,-0.597588,-1.313744,-0.400858,2.651595
1307,511176392,-0.775789,0.181031,-0.220316,-0.562881,-2.488804,0.198106,3.345438
1308,511209726,-0.793166,0.218765,-0.199824,-0.532067,-2.412699,-1.899547,3.370711
1309,511243060,-0.801301,0.251225,-0.187349,-0.509607,-1.994130,-4.055562,3.144360
1310,511276394,-0.803036,0.269857,-0.170765,-0.503135,-2.169994,-4.559219,6.547478
1311,511309728,-0.799561,0.278268,-0.159289,-0.507830,-2.201052,-2.666440,4.669692
1312,511343062,-0.790276,0.283784,-0.155955,-0.520197,-3.266120,-2.562461,2.056077
1313,511376396,-0.774707,0.289769,-0.154998,-0.540217,-3.157056,-2.329863,0.835823
1314,511409730,-0.753657,0.295520,-0.153611,-0.566628,-2.288721,-2.201793,0.945669
1315,511443064,-0.727554,0.300896,-0.152521,-0.597378,-1.434461,-2.199016,1.455391
1316,511476398,-0.696421,0.306221,-0.153006,-0.630723,-0.494951,-2.377244,1.558182
1317,511509732,-0.660527,0.310665,-0.154097,-0.665913,0.375729,-2.641192,1.464327
1318,511543066,-0.620517,0.313936,-0.154911,-0.701713,1.111216,-1.922704,0.914690
1319,511576400,-0.576789,0.317888,-0.157053,-0.735929,1.420711,-1.005269,0.599935
1320,511609734,-0.531655,0.322629,-0.159115,-0.766767,1.647767,-0.309674,0.557130
1321,511643068,-0.489815,0.322674,-0.158353,-0.794281,1.992997,0.683379,0.308562
1322,511676402,-0.451240,0.320732,-0.156915,-0.817855,2.491720,1.101929,-0.208993
1323,511709736,-0.415968,0.316155,-0.152301,-0.838938,2.941065,1.849375,-0.937996
1324,511743070,-0.385451,0.309358,-0.144145,-0.857288,2.452524,3.151676,-1.656488
1325,511776404,-0.357995,0.308835,-0.136388,-0.870548,1.091493,4.439358,-2.201936
1326,511809738,-0.336034,0.317036,-0.130889,-0.877173,0.247181,5.276854,-1.185948
1327,511843072,-0.326216,0.321049,-0.123899,-0.880429,-0.724012,5.707057,-0.641081
1328,511876406,-0.328035,0.322586,-0.119029,-0.879863,-3.140200,5.255120,0.758205
1329,511909740,-0.340209,0.319125,-0.118063,-0.876626,-4.589462,3.799142,3.672854
1330,511943074,-0.360857,0.305750,-0.122613,-0.872502,-3.887652,1.882129,5.134271
1331,511976408,-0.384578,0.290523,-0.136266,-0.865519,-1.667538,0.021624,3.990444
1332,512009742,-0.408527,0.272264,-0.155595,-0.857183,0.244285,-2.347887,1.378018
1333,512043076,-0.432117,0.248142,-0.171192,-0.849935,1.187174,-3.465725,-1.630093
1334,512076410,-0.455294,0.222121,-0.180223,-0.843140,1.264863,-3.066138,-4.099737
1335,512109744,-0.473421,0.208556,-0.185171,-0.835514,1.959751,-3.765540,-4.209015
1336,512143078,-0.482004,0.215040,-0.188315,-0.828229,4.228497,-3.664887,-3.377929
1337,512176412,-0.480781,0.233968,-0.187520,-0.823978,4.305516,-3.820652,-3.255703
1338,512209746,-0.468413,0.256161,-0.178639,-0.826471,3.855742,-5.099608,-1.007969
1339,512243080,-0.444866,0.277872,-0.163179,-0.835613,0.316729,-4.132954,1.224560
1340,512276414,-0.408276,0.302759,-0.148033,-0.848368,-0.773882,-1.351449,4.225127
1341,512309748,-0.366067,0.307421,-0.143236,-0.866583,-0.713240,-1.140976,9.713737
1342,512343082,-0.323702,0.290107,-0.148696,-0.888223,0.557087,-2.813257,5.762360
1343,512376416,-0.283526,0.267254,-0.159188,-0.907107,-0.566146,1.536919,1.814327
1344,512409750,-0.252289,0.245392,-0.173510,-0.919795,-3.208873,4.442567,-1.136413
1345,512443084,-0.225088,0.236492,-0.190717,-0.925759,-1.211487,3.659283,-2.832182
1346,512476418,-0.207770,0.227070,-0.200407,-0.930109,-0.203828,2.963869,-4.329875
1347,512509752,-0.200246,0.214539,-0.198914,-0.935042,-1.137746,4.263576,-4.697962
1348,512543086,-0.201034,0.206083,-0.190750,-0.938469,-0.702592,5.064312,-2.846160
1349,512576420,-0.214869,0.183457,-0.177179,-0.942750,-0.250491,6.189370,0.085186
1350,512609754,-0.245291,0.130594,-0.163122,-0.946660,1.664327,2.863546,2.735207
1351,512643088,-0.294521,0.042185,-0.141594,-0.944153,-1.226923,0.178690,-1.803725
1352,512676422,-0.349450,-0.032104,-0.116796,-0.929090,-5.887470,4.017188,-0.147302
1353,512709756,-0.394786,-0.054202,-0.108150,-0.910772,-0.299774,4.370331,3.437824
1354,512743090,-0.431649,-0.047666,-0.118179,-0.892993,2.780381,1.402287,3.991976
1355,512776424,-0.464367,-0.036744,-0.134790,-0.874551,3.955359,0.772451,2.073473
1356,512809758,-0.491675,-0.031361,-0.152659,-0.856716,5.559502,0.569270,-0.555660
1357,512843092,-0.514289,-0.030925,-0.171942,-0.839632,4.609259,0.986617,-1.477566
1358,512876426,-0.531137,-0.033005,-0.193033,-0.824341,5.264593,-0.038182,-0.091814
1359,512909760,-0.542993,-0.041126,-0.216661,-0.810260,5.159907,-0.045620,0.269063
1360,512943094,-0.549638,-0.052558,-0.243333,-0.797446,5.948674,-1.425811,-0.654313
1361,512976428,-0.550894,-0.067023,-0.272466,-0.785991,4.549494,-2.943184,-1.156547
1362,513009762,-0.550796,-0.089697,-0.297458,-0.774657,3.860555,-2.468676,-2.745153
1363,513043096,-0.554228,-0.117705,-0.317995,-0.760166,1.120782,-1.891642,-2.819781
1364,513076430,-0.565085,-0.141799,-0.334756,-0.740612,-1.882539,-2.157861,-3.561663
1365,513109764,-0.585164,-0.153812,-0.344910,-0.717605,-3.246535,-2.117384,-4.623232
1366,513143098,-0.613823,-0.147345,-0.346974,-0.693625,-5.829292,-0.382739,-4.433372
1367,513176432,-0.653716,-0.121812,-0.335992,-0.667025,-6.212734,0.696880,-5.269440
1368,513209766,-0.702538,-0.079807,-0.309163,-0.635991,-4.437773,2.163702,-4.044365
1369,513243100,-0.745431,-0.018774,-0.278752,-0.605205,-3.140549,0.203514,-1.797609
1370,513276434,-0.787796,0.039462,-0.230087,-0.569978,-1.116008,-0.825612,1.218598
1371,513309768,-0.821975,0.089422,-0.177918,-0.533574,-1.913868,-0.423414,3.739001
1372,513343102,-0.840192,0.136970,-0.152340,-0.502100,-1.165109,-3.901509,8.632643
1373,513376436,-0.849131,0.176625,-0.140074,-0.477655,-1.558138,-6.020123,2.178733
1374,513409770,-0.850515,0.199186,-0.129856,-0.469129,-1.101747,-5.111819,7.077126
1375,513443104,-0.845487,0.208381,-0.130168,-0.474110,-2.402675,-3.005877,4.718359
1376,513476438,-0.833732,0.219204,-0.142634,-0.486305,-3.071879,-1.468640,0.223404
1377,513509772,-0.817762,0.230705,-0.152233,-0.504839,-3.052650,-2.233637,0.369918
1378,513543106,-0.799973,0.238808,-0.152736,-0.528849,-2.202468,-1.250189,-0.130513
1379,513576440,-0.778071,0.250823,-0.154553,-0.554799,-1.474229,-1.320574,0.163149
1380,513609774,-0.753828,0.263395,-0.155475,-0.581540,-0.811363,-1.357117,0.954794
1381,513643108,-0.727979,0.274806,-0.154911,-0.608708,-0.465816,-1.166382,1.176948
1382,513676442,-0.701743,0.282979,-0.153244,-0.635603,0.222412,0.047160,2.291809
1383,513709776,-0.674523,0.289982,-0.156152,-0.660713,-0.229960,0.420449,2.772822
1384,513743110,-0.647533,0.294669,-0.163475,-0.683479,-0.248947,1.508658,2.719554
1385,513776444,-0.621388,0.298952,-0.177068,-0.702244,0.120335,1.411953,1.786817
1386,513809778,-0.597092,0.300741,-0.190056,-0.718965,0.574309,-0.360594,0.713433
1387,513843112,-0.576263,0.298659,-0.196666,-0.734875,1.574662,-0.069331,-0.345665
1388,513876446,-0.547787,0.306892,-0.210484,-0.749292,4.673582,-0.710119,0.521785
1389,513909780,-0.506958,0.329936,-0.232124,-0.761741,5.083579,-3.889068,-0.021824
1390,513943114,-0.465845,0.339313,-0.234318,-0.782909,5.404836,-4.307978,0.044086
1391,513976448,-0.424909,0.336862,-0.222684,-0.810175,2.483152,1.732505,-1.110492
1392,514009782,-0.385415,0.332186,-0.211695,-0.834439,0.125845,3.989332,1.234745
1393,514043116,-0.359008,0.314534,-0.200092,-0.855652,-3.142240,5.572423,-0.280590
1394,514076450,-0.350662,0.290011,-0.190851,-0.869771,-5.629417,6.894531,0.147251
1395,514109784,-0.360753,0.266323,-0.188604,-0.873701,-6.841548,7.102091,0.719535
1396,514143118,-0.383875,0.251667,-0.191636,-0.867511,-5.629833,4.310416,2.022619
1397,514176452,-0.412012,0.239087,-0.198995,-0.856435,-2.072700,0.611355,7.028830
1398,514209786,-0.445730,0.211188,-0.202078,-0.846100,-1.442275,-4.369528,5.164168
1399,514243120,-0.475943,0.178050,-0.201715,-0.837307,0.485384,-6.669518,3.544564
1400,514276454,-0.500076,0.148048,-0.201139,-0.829183,2.990448,-5.863529,-0.412313
1401,514309788,-0.509538,0.139094,-0.209847,-0.822790,8.040470,-4.816021,-2.082881
1402,514343122,-0.502567,0.135811,-0.224305,-0.823811,9.060338,-5.137365,-4.383587
1403,514376456,-0.480208,0.130212,-0.235079,-0.834973,6.689486,-5.020412,-7.662195
1404,514409790,-0.446649,0.127974,-0.239654,-0.852461,4.384825,-3.749542,-7.177519
1405,514443124,-0.407371,0.130304,-0.235978,-0.872571,2.592925,-0.840418,-4.634405
1406,514476458,-0.364043,0.138874,-0.229529,-0.891907,1.030068,0.223503,-1.466517
1407,514509792,-0.319820,0.149746,-0.222956,-0.908613,0.146261,1.562870,3.588195
1408,514543126,-0.280227,0.150122,-0.215557,-0.923291,-1.848902,0.692355,5.355440
1409,514576460,-0.245976,0.134460,-0.207408,-0.937227,-1.450152,3.290961,6.425428
1410,514609794,-0.216000,0.112317,-0.204253,-0.948159,-2.976526,3.875253,4.923936
1411,514643128,-0.192097,0.090991,-0.206448,-0.955089,-2.105688,4.529311,3.570505
1412,514676462,-0.181519,0.061229,-0.214213,-0.957815,-2.787176,4.730649,2.624082
1413,514709796,-0.182006,0.026949,-0.224369,-0.956975,-3.277609,4.314098,1.342465
1414,514743130,-0.189612,0.000873,-0.237001,-0.952824,-1.928113,4.440804,-0.634679
1415,514776464,-0.205419,-0.020693,-0.252563,-0.945295,-1.133704,4.205650,-2.327211
1416,514809798,-0.230701,-0.049312,-0.267155,-0.934328,0.457727,1.897063,-4.778540
1417,514843132,-0.264584,-0.082571,-0.272711,-0.921304,-1.109576,1.978343,-6.069458
1418,514876466,-0.296664,-0.099962,-0.270663,-0.910349,-2.061994,1.373082,-6.891466
1419,514909800,-0.317802,-0.086427,-0.261069,-0.907398,-0.238745,-0.295482,-6.542326
1420,514943134,-0.343155,-0.078839,-0.241259,-0.904333,2.798665,-0.938847,-3.645394
1421,514976468,-0.378678,-0.093927,-0.216134,-0.895021,1.575961,-1.142064,0.245998
1422,515009802,-0.415419,-0.110859,-0.194246,-0.881704,0.342233,-1.207280,2.124512
1423,515043136,-0.444891,-0.114591,-0.182244,-0.869324,1.607982,-2.274285,2.871084
1424,515076470,-0.467177,-0.111920,-0.181434,-0.858077,2.449111,-2.026503,1.400873
1425,515109804,-0.481736,-0.104985,-0.190833,-0.848815,3.712863,-2.403458,-0.364720
1426,515143138,-0.487171,-0.096365,-0.204276,-0.843591,2.870848,-2.408438,-2.846990
1427,515176472,-0.482655,-0.080884,-0.217658,-0.844466,2.427729,-2.322739,-3.453378
1428,515209806,-0.473661,-0.063073,-0.226663,-0.848697,2.485541,-1.599269,-4.112728
1429,515243140,-0.465186,-0.050371,-0.227289,-0.854050,1.794972,-0.366879,-2.769928
1430,515276474,-0.457724,-0.034773,-0.224523,-0.859572,1.252527,2.096878,-2.160210
1431,515309808,-0.452520,-0.011049,-0.224726,-0.862900,1.336991,1.842741,-0.324000
1432,515343142,-0.456486,0.007982,-0.222749,-0.861357,1.323597,3.038332,0.762118
1433,515376476,-0.468693,0.029243,-0.225807,-0.853510,1.746122,2.810828,0.953412
1434,515409810,-0.489860,0.049357,-0.228542,-0.839860,0.461883,0.040690,0.563580
1435,515443144,-0.512323,0.081577,-0.231458,-0.822978,1.839726,-0.390856,1.899171
1436,515476478,-0.536123,0.112943,-0.232361,-0.803630,2.605827,-0.395153,2.311653
1437,515509812,-0.565390,0.130453,-0.226468,-0.782319,0.244185,1.397096,1.117135
1438,515543146,-0.596738,0.146184,-0.220570,-0.757547,0.673321,1.350232,2.809898
1439,515576480,-0.632839,0.156318,-0.212126,-0.728064,-0.131925,1.646085,2.345933
1440,515609814,-0.671376,0.165831,-0.204273,-0.692837,-1.080323,1.897568,1.784728
1441,515643148,-0.712879,0.172140,-0.191870,-0.652191,-2.205266,1.172944,0.549531
1442,515676482,-0.752993,0.181592,-0.177694,-0.606997,-2.155316,2.006060,0.703818
1443,515709816,-0.788483,0.195896,-0.166119,-0.558856,-2.506326,-1.223270,0.581023
1444,515743150,-0.822003,0.202662,-0.144281,-0.512267,-1.816521,-1.662264,1.669740
1445,515776484,-0.844953,0.217759,-0.132309,-0.470239,-3.563085,-4.504891,1.054463
1446,515809818,-0.859329,0.235287,-0.118289,-0.438404,-0.970531,-5.625495,2.233471
1447,515843152,-0.864658,0.247974,-0.110726,-0.422624,-4.466539,-5.828712,4.075201
1448,515876486,-0.862519,0.255576,-0.108640,-0.423008,-4.808973,-4.609293,2.305387
1449,515909820,-0.853294,0.264432,-0.114342,-0.434611,-4.697614,-3.070358,1.012962
1450,515943154,-0.838955,0.272449,-0.120223,-0.455486,-4.575817,-3.821548,0.826183
1451,515976488,-0.819891,0.280299,-0.126124,-0.483011,-2.732965,-2.749741,1.285468
1452,516009822,-0.791751,0.294426,-0.147348,-0.514517,-1.831009,-3.800369,3.239109
1453,516043156,-0.756653,0.306824,-0.171618,-0.551252,-0.327224,-4.079886,3.053259
1454,516076490,-0.715926,0.316093,-0.192005,-0.592169,0.439324,-3.655583,0.936727
1455,516109824,-0.670469,0.322442,-0.202401,-0.636814,0.921542,-3.663173,0.067062
1456,516143158,-0.620070,0.327692,-0.203422,-0.683189,1.950584,-1.990985,-0.633588
1457,516176492,-0.567758,0.332703,-0.197753,-0.726533,1.762046,-0.655708,-1.342309
1458,516209826,-0.515396,0.338763,-0.188435,-0.764261,1.419707,0.213755,-0.769647
1459,516243160,-0.465228,0.345889,-0.177192,-0.795313,1.563417,0.827855,-0.518352
1460,516276494,-0.419322,0.352050,-0.163768,-0.820613,1.517132,0.900329,-0.429860
1461,516309828,-0.375990,0.360799,-0.150313,-0.840153,1.232315,2.167236,-0.902712
1462,516343162,-0.327736,0.390435,-0.144559,-0.848085,1.476108,3.032354,-0.350324
