sep=,
DeviceTag:,2C_Leg
FirmwareVersion:,2.2.1
AppVersion:,2023.6.0
SyncStatus:,Synced
OutputRate:,30Hz
FilterProfile:,General
Measurement Mode:,Sensor fusion Mode - Complete(Quaternion)
StartTime: ,2026-05-01_14:10:45_226 AEST
© Movella Technologies B. V. 2005-2026

PacketCounter,SampleTimeFine,Quat_W,Quat_X,Quat_Y,Quat_Z,FreeAcc_X,FreeAcc_Y,FreeAcc_Z
1,467642188,0.548995,-0.670616,0.397451,-0.301517,0.058075,-0.096779,0.118487
2,467675522,0.548890,-0.670012,0.398109,-0.302180,-0.019710,-0.092723,0.122906
3,467708856,0.548710,-0.669518,0.398717,-0.302802,-0.079787,-0.021179,0.083582
4,467742190,0.548398,-0.669048,0.399412,-0.303487,-0.061994,0.069823,0.147252
5,467775524,0.547991,-0.668301,0.400467,-0.304478,0.029424,-0.068194,0.115099
6,467808858,0.547390,-0.667391,0.401774,-0.305832,0.077435,-0.065443,0.129777
7,467842192,0.546754,-0.666461,0.403086,-0.307265,0.015658,0.002669,0.112105
8,467875526,0.546173,-0.665488,0.404328,-0.308773,-0.060612,0.067668,0.102180
9,467908860,0.545665,-0.664510,0.405435,-0.310322,-0.031332,0.006756,0.181800
10,467942194,0.544908,-0.663177,0.406993,-0.312458,-0.068219,-0.001948,0.050456
11,467975528,0.544115,-0.661698,0.408672,-0.314773,-0.002567,-0.038062,0.205822
12,468008862,0.543820,-0.660093,0.409954,-0.316980,0.019623,-0.030355,0.161209
13,468042196,0.543733,-0.658463,0.411060,-0.319078,-0.074303,-0.008744,0.154037
14,468075530,0.543446,-0.656423,0.412585,-0.321792,-0.073386,-0.067492,0.184585
15,468108864,0.543268,-0.654197,0.414109,-0.324656,-0.100386,-0.016551,0.073137
16,468142198,0.543001,-0.652312,0.415357,-0.327290,-0.095360,0.072766,0.140516
17,468175532,0.543182,-0.650773,0.415900,-0.329358,-0.094769,0.213200,0.072190
18,468208866,0.543615,-0.649459,0.416101,-0.330978,-0.156038,0.391072,0.091841
19,468242200,0.544184,-0.648682,0.415661,-0.332117,-0.185747,0.437064,0.102662
20,468275534,0.545004,-0.648782,0.414146,-0.332470,-0.185672,0.501856,0.090489
21,468308868,0.546779,-0.650006,0.410937,-0.331146,-0.154609,0.231682,0.309562
22,468342202,0.550184,-0.651400,0.406182,-0.328621,-0.002674,-0.172797,0.371920
23,468375536,0.555361,-0.651330,0.400914,-0.326515,0.422500,-0.470317,0.511668
24,468408870,0.561621,-0.648265,0.396941,-0.326762,0.696919,-1.003132,0.684788
25,468442204,0.566369,-0.641690,0.397279,-0.331105,1.261308,-1.123831,0.480736
26,468475538,0.569010,-0.632422,0.401720,-0.338956,1.587680,-0.594004,0.829661
27,468508872,0.571023,-0.619643,0.408251,-0.351152,1.786827,-0.225502,1.157868
28,468542206,0.573806,-0.605733,0.413410,-0.364590,1.001179,0.321089,0.676091
29,468575540,0.576606,-0.593731,0.416326,-0.376406,0.139465,1.072253,-0.971866
30,468608874,0.577755,-0.585273,0.417454,-0.386508,-2.216958,1.283501,-0.796734
31,468642208,0.579651,-0.581369,0.416353,-0.390725,-2.811551,0.737543,-1.227622
32,468675542,0.578881,-0.582929,0.417593,-0.388210,-2.356383,-0.049044,-1.504600
33,468708876,0.576343,-0.589347,0.417369,-0.382496,-0.645279,-0.715393,-0.577303
34,468742210,0.574312,-0.596965,0.415180,-0.376064,0.588685,-0.620319,-0.075658
35,468775544,0.574213,-0.604431,0.411581,-0.368164,1.072520,-0.863837,0.350662
36,468808878,0.571851,-0.607743,0.412523,-0.365323,0.579171,-2.376412,-0.262863
37,468842212,0.564907,-0.603624,0.422401,-0.371614,-0.009706,-0.882353,0.853487
38,468875546,0.558176,-0.592294,0.438980,-0.380690,-0.445442,-0.275208,0.816669
39,468908880,0.553028,-0.582511,0.452892,-0.386952,0.646055,-1.008135,0.443887
40,468942214,0.546912,-0.574963,0.464287,-0.393375,0.508925,0.096860,0.033763
41,468975548,0.543003,-0.572327,0.470990,-0.394663,-0.203910,1.617762,-0.190710
42,469008882,0.543153,-0.573611,0.473547,-0.389500,-0.178712,0.852664,0.361370
43,469042216,0.544645,-0.573332,0.475654,-0.385237,0.453932,-0.418273,0.354108
44,469075550,0.543718,-0.571197,0.479801,-0.384574,0.984729,-0.518266,0.085923
45,469108884,0.540880,-0.567939,0.486285,-0.385256,0.430013,-0.038856,-0.070563
46,469142218,0.536994,-0.563554,0.494503,-0.386668,-0.241471,0.228346,0.119317
47,469175552,0.533043,-0.557932,0.502900,-0.389448,0.007482,-0.128710,0.211602
48,469208886,0.530185,-0.552126,0.510031,-0.392340,0.094248,-0.025522,0.176416
49,469242220,0.528934,-0.546959,0.515609,-0.393972,-0.001791,-0.007725,0.189160
50,469275554,0.528735,-0.541582,0.520353,-0.395426,-0.294235,0.067691,0.349489
51,469308888,0.529187,-0.535573,0.524578,-0.397418,-0.326972,-0.156662,0.050040
52,469342222,0.528088,-0.528209,0.530437,-0.400944,-0.651023,0.607482,-0.017963
53,469375556,0.526258,-0.522094,0.536004,-0.403944,-0.722547,1.111260,0.016092
54,469408890,0.525608,-0.519157,0.538874,-0.404756,-0.448619,0.843572,0.189480
55,469442224,0.526156,-0.518829,0.539853,-0.403159,-0.272569,0.779252,0.043285
56,469475558,0.526695,-0.519836,0.540582,-0.400169,-0.455931,0.849381,-0.035604
57,469508892,0.527166,-0.522833,0.540160,-0.396193,-0.079528,0.535221,0.079340
58,469542226,0.528081,-0.528112,0.537870,-0.391056,0.403358,0.653360,0.016692
59,469575560,0.529673,-0.534729,0.534061,-0.385088,0.522759,0.750017,0.340255
60,469608894,0.533263,-0.542000,0.528247,-0.377919,0.024246,0.696453,0.223298
61,469642228,0.537451,-0.549750,0.521335,-0.370313,-0.001790,0.536980,0.102650
62,469675562,0.541071,-0.557599,0.514474,-0.362827,-0.233519,0.731646,0.167297
63,469708896,0.545000,-0.566520,0.506749,-0.353889,-0.571785,0.636115,0.030957
64,469742230,0.549032,-0.576439,0.497822,-0.344175,-0.507870,0.228931,0.224047
65,469775564,0.553740,-0.586574,0.487641,-0.333929,-0.373932,-0.128985,0.128528
66,469808898,0.557222,-0.596668,0.478170,-0.323797,-0.192775,-0.113881,0.072404
67,469842232,0.559280,-0.606098,0.469773,-0.314906,-0.427298,-0.062518,0.142278
68,469875566,0.560552,-0.614665,0.462243,-0.307085,-0.335670,0.062083,0.212396
69,469908900,0.561891,-0.621454,0.455361,-0.301200,-0.209652,-0.181014,0.203595
70,469942234,0.563288,-0.626630,0.449156,-0.297156,0.108519,-0.234276,0.077482
71,469975568,0.563112,-0.629711,0.445868,-0.295924,0.361377,-0.412104,0.044866
72,470008902,0.561379,-0.630924,0.445310,-0.297469,-0.012061,0.172549,0.066695
73,470042236,0.559023,-0.632196,0.444923,-0.299777,-0.452619,0.981361,0.131122
74,470075570,0.556707,-0.634735,0.443098,-0.301419,-0.220675,0.551804,0.152966
75,470108904,0.555830,-0.637452,0.439908,-0.301976,-0.031220,0.061516,0.329727
76,470142238,0.556722,-0.639051,0.436241,-0.302275,0.458290,-1.328344,0.593945
77,470175572,0.557447,-0.637261,0.435557,-0.305684,0.897782,-2.220664,0.163363
78,470208906,0.555046,-0.631421,0.441283,-0.313849,0.673563,-1.254148,0.080110
79,470242240,0.551310,-0.624020,0.449154,-0.323910,-0.317838,0.666639,-0.086345
80,470275574,0.548199,-0.619545,0.454179,-0.330702,-0.805146,2.336464,-0.003021
81,470308908,0.548234,-0.620354,0.452300,-0.331702,-0.586428,2.001167,0.127497
82,470342242,0.551488,-0.624978,0.444604,-0.328012,-0.345844,0.844457,0.218663
83,470375576,0.556882,-0.630536,0.434172,-0.322185,-0.176791,-0.540175,0.084012
84,470408910,0.560371,-0.634597,0.426514,-0.318369,0.123820,-1.038473,0.026481
85,470442244,0.560348,-0.635630,0.424181,-0.319463,0.153115,-0.644703,0.052906
86,470475578,0.558384,-0.635513,0.424466,-0.322740,-0.133184,-0.193624,0.125283
87,470508912,0.556892,-0.635608,0.424203,-0.325464,0.022424,0.078601,0.141150
88,470542246,0.556765,-0.637268,0.421515,-0.325927,0.090985,0.271872,0.148565
89,470575580,0.557216,-0.641193,0.416639,-0.323720,0.243793,0.433466,0.058008
90,470608914,0.557871,-0.646050,0.411002,-0.320121,0.436658,0.308911,0.203767
91,470642248,0.558820,-0.650968,0.405149,-0.315936,0.453447,0.043430,0.066557
92,470675582,0.559751,-0.654684,0.400165,-0.312948,0.549296,-0.199166,0.058092
93,470708916,0.560390,-0.656481,0.397285,-0.311709,0.382814,-0.695158,-0.144862
94,470742250,0.560847,-0.656798,0.395762,-0.312154,0.345567,-1.108669,0.393266
95,470775584,0.561916,-0.655240,0.395269,-0.314124,0.084221,-1.187918,0.372599
96,470808918,0.562935,-0.651911,0.396727,-0.317372,-0.121033,-1.684225,0.503659
97,470842252,0.562891,-0.646274,0.401703,-0.322676,-0.053447,-1.818309,0.316277
98,470875586,0.560278,-0.637695,0.411531,-0.331779,-0.354708,-1.354575,-0.090074
99,470908920,0.555558,-0.628337,0.423569,-0.342255,-0.380522,-0.217868,0.029996
100,470942254,0.551292,-0.620353,0.434063,-0.350470,-0.323630,0.664897,0.056687
101,470975588,0.549274,-0.614415,0.441052,-0.355339,0.074504,0.423682,0.221416
102,471008922,0.547816,-0.609446,0.446964,-0.358744,0.332820,0.073885,-0.126357
103,471042256,0.545508,-0.604672,0.453539,-0.362071,0.348914,-0.139998,-0.057976
104,471075590,0.542217,-0.599375,0.461117,-0.366227,0.334386,-0.173068,-0.018830
105,471108924,0.538641,-0.593275,0.469224,-0.371107,0.345217,-0.112828,0.380124
106,471142258,0.536530,-0.586729,0.476383,-0.375426,0.236540,-0.148801,0.506071
107,471175592,0.536610,-0.579681,0.482355,-0.378621,0.062353,-0.678889,0.289484
108,471208926,0.537126,-0.570903,0.488781,-0.382962,-0.456556,-1.374297,-0.061658
109,471242260,0.535578,-0.559916,0.497549,-0.389995,-0.535321,-1.348763,0.092492
110,471275594,0.528886,-0.545450,0.511873,-0.400938,-0.642583,-0.588463,-0.442604
111,471308928,0.518037,-0.529732,0.528807,-0.413988,0.087814,0.993860,0.215810
112,471342262,0.509749,-0.516917,0.541407,-0.424066,0.580755,3.082175,0.234498
113,471375596,0.508261,-0.512054,0.545392,-0.426639,0.812344,3.054526,0.175105
114,471408930,0.513826,-0.514395,0.540780,-0.423012,0.892772,1.995431,0.252558
115,471442264,0.522682,-0.518256,0.532631,-0.417756,0.450199,0.074437,0.194120
116,471475598,0.532086,-0.519443,0.524630,-0.414521,-0.100610,-1.589512,-0.089355
117,471508932,0.537346,-0.514760,0.522697,-0.416015,-0.879149,-1.479466,-0.055252
118,471542266,0.538124,-0.507582,0.525998,-0.419656,-0.972637,0.145309,-0.057873
119,471575600,0.537358,-0.503091,0.529835,-0.421214,-1.015258,1.460292,0.262143
120,471608934,0.536256,-0.502608,0.532463,-0.419879,-1.259328,1.162515,-0.276374
121,471642268,0.537026,-0.507259,0.530966,-0.415171,-0.231354,1.270795,0.314448
122,471675602,0.540646,-0.516865,0.524608,-0.406621,0.105045,0.426766,0.129764
123,471708936,0.545384,-0.527942,0.516389,-0.396456,-0.235521,0.428121,0.197588
124,471742270,0.549453,-0.538324,0.508710,-0.386682,-0.279966,0.301030,0.008398
125,471775604,0.552842,-0.548151,0.501041,-0.377963,-0.083725,0.030997,0.205540
126,471808938,0.555193,-0.557782,0.493724,-0.369970,-0.047269,-0.045567,0.024694
127,471842272,0.556679,-0.567321,0.486519,-0.362706,-0.478095,0.131016,-0.036226
128,471875606,0.557603,-0.576991,0.479317,-0.355551,-0.547173,0.103361,0.109655
129,471908940,0.557709,-0.586810,0.472141,-0.348853,-0.160387,-0.127912,0.204104
130,471942274,0.557619,-0.596182,0.465081,-0.342532,0.054449,-0.249504,0.111912
131,471975608,0.557569,-0.605115,0.458349,-0.335962,0.024224,-0.032355,0.088804
132,472008942,0.556964,-0.613262,0.452513,-0.330052,0.185668,-0.182336,0.014184
133,472042276,0.554570,-0.620100,0.448944,-0.326156,0.168895,-0.192345,-0.063354
134,472075610,0.548133,-0.625188,0.449905,-0.326000,-0.398482,0.132061,-0.259833
135,472108944,0.540422,-0.629623,0.452021,-0.327409,-0.296236,0.569979,0.149675
136,472142278,0.536792,-0.636019,0.448991,-0.325179,0.388048,0.730928,0.361636
137,472175612,0.536995,-0.643658,0.441853,-0.319544,0.860790,0.340597,0.726353
138,472208946,0.539399,-0.648832,0.434659,-0.314862,1.420326,-0.685309,0.529028
139,472242280,0.541722,-0.649757,0.430637,-0.314493,0.476027,-1.262381,0.191233
140,472275614,0.540978,-0.647303,0.431901,-0.319066,-0.190689,-1.530241,0.125256
141,472308948,0.538477,-0.643771,0.435487,-0.325505,-0.541299,-0.060799,0.098740
142,472342282,0.537187,-0.642390,0.436499,-0.328990,-0.489488,1.261084,-0.123181
143,472375616,0.537795,-0.643946,0.433652,-0.328720,-0.231674,0.567596,-0.006652
144,472408950,0.539019,-0.646607,0.429444,-0.327011,0.248539,0.095590,0.242766
145,472442284,0.541494,-0.650015,0.423527,-0.323868,0.408150,0.138103,0.162779
146,472475618,0.544421,-0.653553,0.416889,-0.320435,0.331730,0.149297,0.278390
147,472508952,0.547730,-0.657045,0.409881,-0.316673,0.164260,0.170379,0.223643
148,472542286,0.550586,-0.659456,0.404502,-0.313611,0.053316,-0.490699,0.138138
149,472575620,0.553117,-0.659204,0.401892,-0.313042,0.433789,-1.349620,0.385568
150,472608954,0.555198,-0.657337,0.401256,-0.314100,0.292102,-1.502857,0.233897
151,472642288,0.555980,-0.654345,0.402792,-0.316984,0.001221,-1.158617,0.179412
152,472675622,0.555276,-0.650076,0.406766,-0.321889,-0.330739,-0.128356,0.398856
153,472708956,0.554610,-0.645478,0.411069,-0.326786,-0.290838,0.606613,-0.165231
154,472742290,0.555106,-0.641117,0.414384,-0.330325,0.195612,0.228409,0.212024
155,472775624,0.557168,-0.637498,0.415610,-0.332310,0.529691,-0.039032,-0.004221
156,472808958,0.559385,-0.634113,0.416575,-0.333850,0.388980,-0.613788,0.021465
157,472842292,0.559525,-0.629345,0.420518,-0.337671,-0.110639,-0.839945,0.088080
158,472875626,0.558171,-0.622837,0.427270,-0.343455,-0.322694,-0.789793,-0.040797
159,472908960,0.555000,-0.615469,0.436431,-0.350287,-0.508347,-0.593983,-0.266283
160,472942294,0.551242,-0.609100,0.445296,-0.356149,-0.213585,-0.447758,0.287595
161,472975628,0.547368,-0.602604,0.454361,-0.361683,-0.144800,-0.438735,-0.023812
162,473008962,0.543437,-0.595297,0.463895,-0.367560,-0.122622,-0.223970,0.213996
163,473042296,0.539844,-0.586991,0.473546,-0.373850,-0.082557,-0.436441,0.074960
164,473075630,0.534172,-0.576721,0.485749,-0.382233,-0.045220,-0.342830,0.088953
165,473108964,0.528446,-0.565765,0.497626,-0.391183,0.155074,0.019304,0.356626
166,473142298,0.523427,-0.556662,0.507710,-0.397975,0.049035,0.471030,0.030456
167,473175632,0.517795,-0.548775,0.517518,-0.403623,0.125952,0.405314,0.212367
168,473208966,0.513602,-0.540698,0.525483,-0.409546,0.352298,0.396224,0.105222
169,473242300,0.510736,-0.531732,0.532405,-0.415879,0.193591,1.259589,0.084443
170,473275634,0.510330,-0.525092,0.536359,-0.419715,0.296612,1.137669,0.402743
171,473308968,0.511777,-0.521873,0.537389,-0.420652,-0.068389,0.419414,-0.085526
172,473342302,0.514228,-0.520304,0.536685,-0.420504,-0.053650,0.467147,0.042643
173,473375636,0.517080,-0.520261,0.535149,-0.419015,-0.172293,0.234127,0.070654
174,473408970,0.518912,-0.519727,0.534694,-0.417992,-0.096820,-0.385399,0.214573
175,473442304,0.519417,-0.517390,0.535616,-0.419082,0.019282,-0.144560,-0.204853
176,473475638,0.520083,-0.517084,0.535826,-0.418365,0.017333,1.428831,0.036570
177,473508972,0.522126,-0.521546,0.533221,-0.413583,-0.221573,1.651040,0.007861
178,473542306,0.526095,-0.529312,0.527052,-0.406534,0.096952,0.900891,0.183429
179,473575640,0.531124,-0.538580,0.518955,-0.398154,0.059206,0.488992,0.030156
180,473608974,0.535836,-0.547407,0.511002,-0.390004,-0.225966,0.355485,0.260037
181,473642308,0.540371,-0.556241,0.502764,-0.381869,-0.436030,0.185759,-0.038128
182,473675642,0.544581,-0.565653,0.494008,-0.373396,-0.490860,0.274147,0.141483
183,473708976,0.548826,-0.575462,0.484869,-0.364056,-0.580732,0.104603,0.137511
184,473742310,0.553101,-0.585206,0.475361,-0.354467,-0.462642,-0.289475,0.155531
185,473775644,0.556106,-0.594656,0.466576,-0.345598,-0.222418,-0.762024,0.024887
186,473808978,0.557354,-0.603052,0.459523,-0.338414,-0.139551,-0.552526,0.084305
187,473842312,0.557811,-0.609710,0.454183,-0.332897,-0.059748,-0.379957,0.177366
188,473875646,0.558109,-0.615253,0.449598,-0.328391,0.010989,-0.229411,0.025084
189,473908980,0.557453,-0.620417,0.445862,-0.324865,-0.058036,0.104464,0.068201
190,473942314,0.555643,-0.625341,0.443164,-0.322205,-0.021615,0.101014,0.002885
191,473975648,0.553158,-0.630395,0.440883,-0.319753,-0.087145,-0.019160,0.058715
192,474008982,0.551044,-0.634800,0.438650,-0.317753,-0.072426,-0.193770,0.363397
193,474042316,0.549667,-0.638474,0.436338,-0.315955,0.269625,-0.141578,0.146448
194,474075650,0.548747,-0.641017,0.434485,-0.314957,0.241475,-0.082970,0.241787
195,474108984,0.547671,-0.642177,0.433733,-0.315503,0.205908,-0.051975,0.136439
196,474142318,0.546599,-0.642992,0.433015,-0.316687,0.054315,0.102840,0.267430
197,474175652,0.546643,-0.644477,0.430690,-0.316763,-0.103493,0.052932,0.200164
198,474208986,0.548097,-0.646755,0.426618,-0.315114,0.005321,-0.219217,0.286785
199,474242320,0.550138,-0.648566,0.422670,-0.313148,0.155048,-0.769856,0.204820
200,474275654,0.550655,-0.648652,0.421600,-0.313502,0.277542,-0.736403,0.026398
201,474308988,0.548696,-0.646379,0.424452,-0.317755,0.037089,-0.341464,-0.017175
202,474342322,0.545670,-0.643854,0.428318,-0.322863,-0.148527,0.206993,0.058087
203,474375656,0.543501,-0.642998,0.430087,-0.325863,-0.103771,0.656014,0.135788
204,474408990,0.543913,-0.644076,0.428185,-0.325552,0.140330,0.424056,0.182798
205,474442324,0.545200,-0.646386,0.424644,-0.323452,0.272611,0.029764,0.108399
206,474475658,0.545938,-0.647508,0.422658,-0.322562,0.585673,-0.312577,0.303359
207,474508992,0.546546,-0.647352,0.421908,-0.322826,0.413402,-0.403267,0.265991
208,474542326,0.547430,-0.645879,0.421914,-0.324269,0.238515,-0.312327,0.206110
209,474575660,0.548065,-0.643575,0.422660,-0.326797,0.001884,-0.094870,0.163205
210,474608994,0.548940,-0.641240,0.423214,-0.329190,-0.092367,0.152954,0.109220
211,474642328,0.549739,-0.639270,0.423698,-0.331063,-0.057990,0.079738,0.153459
212,474675662,0.550564,-0.637685,0.424031,-0.332318,0.169248,-0.058544,-0.035439
213,474708996,0.550707,-0.636119,0.425036,-0.333795,0.139955,-0.310216,0.121833
214,474742330,0.550240,-0.633503,0.427472,-0.336422,0.104710,-0.810525,0.183440
215,474775664,0.548986,-0.629848,0.431637,-0.339994,0.172229,-0.946909,-0.062307
216,474808998,0.546487,-0.625018,0.437886,-0.344908,-0.095245,-0.862041,-0.018669
217,474842332,0.542934,-0.619753,0.445405,-0.350348,-0.384402,-0.527375,0.016551
218,474875666,0.538818,-0.614545,0.453367,-0.355624,-0.327255,-0.266839,0.045332
219,474909000,0.534421,-0.609100,0.461553,-0.361055,-0.207917,-0.184076,-0.038365
220,474942334,0.529874,-0.603923,0.469330,-0.366389,-0.141074,0.018114,0.275890
221,474975668,0.526259,-0.599258,0.476108,-0.370491,0.137369,-0.025406,0.186230
222,475009002,0.522510,-0.594322,0.483339,-0.374365,0.205962,-0.197522,0.087917
223,475042336,0.518191,-0.589020,0.491094,-0.378630,0.018141,-0.171750,0.212750
224,475075670,0.514198,-0.583508,0.498444,-0.382979,0.000277,-0.077905,0.131072
225,475109004,0.510542,-0.577543,0.505602,-0.387503,-0.044199,0.023336,0.292519
226,475142338,0.507994,-0.571298,0.511806,-0.391940,-0.050693,-0.107302,0.040560
227,475175672,0.505108,-0.564823,0.518286,-0.396512,-0.267790,0.107376,-0.051527
228,475209006,0.501503,-0.558567,0.524973,-0.401125,-0.479511,0.189835,0.197997
229,475242340,0.498603,-0.552458,0.530553,-0.405831,-0.044533,0.176316,0.096218
230,475275674,0.496787,-0.547737,0.534824,-0.408841,0.212160,1.088817,0.017526
231,475309008,0.495705,-0.545285,0.537356,-0.410112,0.467643,1.144651,0.095759
232,475342342,0.495341,-0.545530,0.537949,-0.409447,0.367279,0.690164,0.096094
233,475375676,0.496512,-0.547947,0.536661,-0.406481,0.048590,0.487712,0.083744
234,475409010,0.498838,-0.551663,0.533817,-0.402330,-0.034487,0.242967,0.098480
235,475442344,0.500927,-0.555863,0.530714,-0.398035,-0.056176,0.263089,0.055902
236,475475678,0.502652,-0.560270,0.527631,-0.393758,-0.008900,0.253251,0.110641
237,475509012,0.504561,-0.565229,0.524026,-0.389014,-0.149927,0.208553,0.098715
238,475542346,0.506664,-0.570674,0.519875,-0.383866,-0.142458,0.292067,0.156076
239,475575680,0.509403,-0.576896,0.514579,-0.378032,-0.081639,0.406016,0.171326
240,475609014,0.512855,-0.583856,0.508139,-0.371331,-0.091113,0.523449,0.149260
241,475642348,0.516538,-0.591085,0.501085,-0.364310,-0.260923,0.413229,0.077047
242,475675682,0.520144,-0.599136,0.493229,-0.356668,-0.440491,0.317162,0.073110
243,475709016,0.524165,-0.608158,0.484178,-0.347803,-0.505142,0.181074,0.119844
244,475742350,0.528393,-0.616789,0.474865,-0.338935,-0.274505,-0.222086,0.276293
245,475775684,0.532681,-0.624178,0.465848,-0.331119,0.250103,-0.488522,0.157497
246,475809018,0.536002,-0.629947,0.458388,-0.325193,0.370967,-0.279331,0.072410
247,475842352,0.537621,-0.633833,0.453600,-0.321664,0.262738,-0.094423,0.104431
248,475875686,0.537732,-0.636432,0.450838,-0.320228,0.133263,0.064877,0.133030
249,475909020,0.537378,-0.638475,0.448536,-0.319986,0.136495,0.298443,0.220524
250,475942354,0.537889,-0.640859,0.445215,-0.318996,0.056097,0.536935,0.156308
251,475975688,0.539254,-0.643880,0.440756,-0.316795,-0.150167,0.370818,-0.070471
252,476009022,0.540128,-0.647336,0.436413,-0.314265,-0.438068,0.025004,0.057139
253,476042356,0.540567,-0.650362,0.432561,-0.312583,-0.417557,-0.198586,0.203098
254,476075690,0.541300,-0.652506,0.429027,-0.311716,-0.250275,-0.527212,0.197184
255,476109024,0.541779,-0.653412,0.426597,-0.312320,-0.134194,-0.914976,0.320951
256,476142358,0.542405,-0.653540,0.424711,-0.313535,-0.066464,-0.660597,0.015827
257,476175692,0.543271,-0.653994,0.422556,-0.314000,0.175250,-0.324118,0.120189
258,476209026,0.542912,-0.654094,0.421858,-0.315349,0.151703,-0.128164,0.029200
259,476242360,0.540532,-0.653038,0.423756,-0.319059,0.158227,0.512132,0.023166
260,476275694,0.538764,-0.652421,0.424902,-0.321776,0.327710,0.353718,0.155680
261,476309028,0.538140,-0.652544,0.424501,-0.323098,0.394368,-0.076289,0.326460
262,476342362,0.538457,-0.652590,0.423470,-0.323828,0.438115,-0.342632,0.239633
263,476375696,0.538710,-0.651559,0.423483,-0.325463,0.376487,-0.503656,0.121305
264,476409030,0.538430,-0.649860,0.424745,-0.327671,0.363973,-0.416833,0.194949
265,476442364,0.538296,-0.648009,0.426150,-0.329725,0.218221,-0.146656,0.300711
266,476475698,0.538853,-0.645965,0.427132,-0.331552,0.105842,-0.136480,0.308518
267,476509032,0.539875,-0.643735,0.427738,-0.333438,-0.070846,0.092046,0.168477
268,476542366,0.541311,-0.641445,0.427934,-0.335267,-0.128019,0.133719,0.034607
269,476575700,0.543068,-0.640101,0.426983,-0.336205,-0.337886,0.231754,0.123171
270,476609034,0.545338,-0.639615,0.424860,-0.336146,-0.560385,0.192244,-0.159229
271,476642368,0.548054,-0.639500,0.422273,-0.335206,-0.459869,-0.517785,-0.029522
272,476675702,0.550062,-0.638898,0.421090,-0.334552,-0.319897,-1.277887,0.174283
273,476709036,0.551182,-0.637246,0.421902,-0.334838,-0.054986,-1.487304,0.126414
274,476742370,0.550794,-0.634007,0.425602,-0.336935,0.032920,-1.446718,0.071486
275,476775704,0.548083,-0.628528,0.432887,-0.342299,0.074774,-0.933221,0.128813
276,476809038,0.544331,-0.622147,0.441532,-0.348838,-0.058493,0.111587,-0.005723
277,476842372,0.540663,-0.616554,0.449550,-0.354189,-0.103347,0.645064,-0.028507
278,476875706,0.536984,-0.611638,0.457201,-0.358491,-0.042537,0.615481,0.101199
279,476909040,0.534603,-0.607828,0.463070,-0.360987,0.307907,0.235875,0.159955
280,476942374,0.533079,-0.604166,0.468185,-0.362786,0.521899,-0.106024,0.222998
281,476975708,0.530950,-0.599283,0.474484,-0.365811,0.465032,-0.347292,0.188878
282,477009042,0.527668,-0.592644,0.482439,-0.370935,0.248096,-0.424204,0.121794
283,477042376,0.524201,-0.585596,0.490488,-0.376448,-0.131936,-0.090647,-0.214667
284,477075710,0.520364,-0.579911,0.498093,-0.380563,-0.495575,0.766798,-0.128818
285,477109044,0.515521,-0.575488,0.505706,-0.383815,-0.461246,0.869178,0.152699
286,477142378,0.511102,-0.571872,0.511885,-0.386926,0.040421,0.771173,0.157170
287,477175712,0.509331,-0.570585,0.514916,-0.387141,0.147316,0.700774,0.319440
288,477209046,0.508784,-0.569342,0.516882,-0.387069,0.155623,-0.093953,0.150678
289,477242380,0.507396,-0.567373,0.519657,-0.388066,0.039421,-0.521476,0.149369
290,477275714,0.505804,-0.565043,0.522749,-0.389388,-0.181883,-0.223480,0.160780
291,477309048,0.504632,-0.562408,0.525394,-0.391159,-0.270655,-0.026527,0.053572
292,477342382,0.503904,-0.560587,0.527261,-0.392199,-0.229213,0.244333,0.100640
293,477375716,0.503710,-0.559515,0.528615,-0.392155,-0.057559,0.372700,0.115137
294,477409050,0.503540,-0.558838,0.529590,-0.392025,0.339974,0.170843,0.076470
295,477442384,0.503248,-0.559295,0.530027,-0.391155,0.300617,0.566705,0.076285
296,477475718,0.503158,-0.560687,0.529858,-0.389504,0.171496,0.730456,0.098196
297,477509052,0.503560,-0.563452,0.528373,-0.387005,0.198988,0.696987,0.209380
298,477542386,0.505816,-0.568238,0.524362,-0.382493,0.229649,0.573958,0.205367
299,477575720,0.509102,-0.573979,0.518924,-0.376937,0.091853,0.342038,0.157561
300,477609054,0.512338,-0.579950,0.513199,-0.371208,-0.029816,0.273046,0.119683
301,477642388,0.515575,-0.586154,0.507012,-0.365440,-0.058107,0.304031,0.153557
302,477675722,0.519036,-0.592909,0.500064,-0.359162,-0.115692,0.404503,0.153557
303,477709056,0.523109,-0.599821,0.492334,-0.352393,-0.233476,-0.067033,0.183023
304,477742390,0.526896,-0.606168,0.484952,-0.346069,-0.196581,-0.329407,0.131584
305,477775724,0.529892,-0.611217,0.478773,-0.341182,-0.069865,-0.072348,0.156114
306,477809058,0.531588,-0.614776,0.474117,-0.338642,0.075199,0.093945,0.040127
307,477842392,0.532685,-0.618674,0.469817,-0.335800,-0.146741,0.293106,0.130798
308,477875726,0.534230,-0.622702,0.465012,-0.332574,-0.070141,0.331251,0.184835
309,477909060,0.535997,-0.626693,0.459801,-0.329464,-0.005638,0.125448,0.071144
310,477942394,0.537941,-0.631361,0.453928,-0.325504,0.039317,-0.067026,0.167519
311,477975728,0.540023,-0.635864,0.448034,-0.321431,0.126337,0.059978,0.161066
312,478009062,0.541616,-0.639125,0.443237,-0.318925,0.087868,-0.141386,0.059670
313,478042396,0.542690,-0.642191,0.438963,-0.316844,-0.112683,0.038632,0.088373
314,478075730,0.543653,-0.644514,0.435327,-0.315491,-0.142013,-0.003812,0.154893
315,478109064,0.544255,-0.645389,0.432721,-0.316248,-0.279938,-0.555130,0.122859
316,478142398,0.543198,-0.645040,0.432107,-0.319599,-0.549160,-0.497700,-0.041688
317,478175732,0.541942,-0.645508,0.431198,-0.322005,-0.663311,0.344021,0.025417
318,478209066,0.542859,-0.648161,0.426933,-0.320812,-0.189998,0.082144,0.192398
319,478242400,0.544680,-0.651342,0.421767,-0.318107,0.336883,-0.680927,0.303408
320,478275734,0.546530,-0.652428,0.418551,-0.316953,0.529054,-1.477546,0.402554
321,478309068,0.547111,-0.649915,0.419692,-0.319594,0.567509,-2.193379,0.225868
322,478342402,0.545028,-0.643973,0.426322,-0.326334,0.590081,-1.918638,0.019762
323,478375736,0.540611,-0.636917,0.435840,-0.334845,0.224393,-0.663528,-0.005461
324,478409070,0.535804,-0.630910,0.444516,-0.342451,-0.119973,0.902811,0.219970
325,478442404,0.532690,-0.626842,0.450329,-0.347153,-0.134772,2.308400,0.286676
326,478475738,0.532133,-0.624394,0.452862,-0.349117,0.388480,2.352296,0.002489
327,478509072,0.533001,-0.623369,0.452779,-0.349733,0.432561,0.972462,0.268376
328,478542406,0.535531,-0.623592,0.450270,-0.348708,0.158015,0.074350,0.134373
329,478575740,0.537899,-0.623610,0.447969,-0.347994,0.137834,-0.498498,0.125863
330,478609074,0.540143,-0.623015,0.446115,-0.347966,-0.221004,-0.677248,0.075623
331,478642408,0.542368,-0.622438,0.444192,-0.347997,-0.346703,-0.535577,0.115769
332,478675742,0.543132,-0.620899,0.444321,-0.349388,-0.252143,-0.484302,0.054568
333,478709076,0.542865,-0.617928,0.446358,-0.352460,-0.166434,-0.671907,0.014508
334,478742410,0.542244,-0.615138,0.448921,-0.355031,0.046597,-0.810332,-0.015427
335,478775744,0.540703,-0.612480,0.452509,-0.357413,-0.131493,-0.638624,-0.095090
336,478809078,0.538143,-0.609784,0.457072,-0.360072,-0.194863,-0.187240,-0.088506
337,478842412,0.535196,-0.606841,0.462294,-0.362760,0.135801,-0.269932,0.327082
338,478875746,0.532635,-0.602910,0.468096,-0.365632,0.170335,-0.726224,-0.102390
339,478909080,0.529079,-0.598117,0.475239,-0.369432,0.113729,-0.679364,0.325458
340,478942414,0.526010,-0.593684,0.481735,-0.372539,0.040896,-0.265487,0.262063
341,478975748,0.523960,-0.590141,0.486742,-0.374544,0.079574,0.411590,-0.151207
342,479009082,0.522580,-0.588307,0.490657,-0.374247,-0.250240,0.844088,-0.241386
343,479042416,0.518425,-0.586069,0.496926,-0.375266,-0.422760,0.585700,0.341451
344,479075750,0.512766,-0.581765,0.504608,-0.379464,0.496636,0.283862,0.303570
345,479109084,0.508942,-0.577612,0.510699,-0.382793,0.621852,-0.186240,0.267704
346,479142418,0.505816,-0.572613,0.516698,-0.386379,0.166344,-0.548006,0.298379
347,479175752,0.502609,-0.566945,0.522945,-0.390495,-0.178927,-0.395188,0.069770
348,479209086,0.499367,-0.560497,0.529328,-0.395334,-0.601654,-0.067140,0.058525
349,479242420,0.497054,-0.554920,0.534417,-0.399249,-0.373935,0.585203,0.015004
350,479275754,0.496009,-0.551841,0.537353,-0.400874,-0.028268,0.924868,-0.111133
351,479309088,0.494874,-0.550776,0.539337,-0.401077,-0.165340,0.722171,-0.017005
352,479342422,0.494352,-0.552091,0.539706,-0.399412,0.062116,0.791266,0.048309
353,479375756,0.495366,-0.555794,0.537677,-0.395739,0.334364,0.996897,0.075373
354,479409090,0.497269,-0.561536,0.533782,-0.390487,0.217861,0.818011,0.167205
355,479442424,0.500147,-0.568540,0.528346,-0.384015,0.025580,0.381926,0.201451
356,479475758,0.503650,-0.575448,0.522213,-0.377480,-0.076027,-0.144226,0.180829
357,479509092,0.506955,-0.581906,0.516164,-0.371426,-0.029064,-0.234411,0.170701
358,479542426,0.510070,-0.587985,0.510228,-0.365746,-0.047844,-0.044690,0.137833
359,479575760,0.513205,-0.594180,0.504117,-0.359775,-0.241646,0.202620,0.257802
360,479609094,0.517477,-0.600604,0.496723,-0.353212,-0.128897,0.276849,0.237100
361,479642428,0.522264,-0.606992,0.488507,-0.346646,-0.180779,0.045546,0.071396
362,479675762,0.526495,-0.613262,0.480754,-0.339986,-0.287714,-0.279325,0.210687
363,479709096,0.529917,-0.617714,0.474658,-0.335139,0.081354,-0.550442,0.115590
364,479742430,0.532149,-0.620450,0.470412,-0.332525,0.270016,-0.358776,0.072696
365,479775764,0.533344,-0.622571,0.467564,-0.330659,0.162896,0.087265,0.084393
366,479809098,0.533170,-0.623553,0.466476,-0.330625,0.172456,0.423301,0.049603
367,479842432,0.532366,-0.624141,0.465960,-0.331538,0.178396,0.502547,0.186076
368,479875766,0.532095,-0.625186,0.464591,-0.331924,0.181685,0.737742,0.007405
369,479909100,0.530804,-0.626482,0.463596,-0.332938,-0.254975,0.751375,0.070366
370,479942434,0.529867,-0.628824,0.461169,-0.333386,-0.448376,0.440084,0.351120
371,479975768,0.532276,-0.632612,0.454931,-0.330943,-0.455027,-0.227156,0.284641
372,480009102,0.536688,-0.636480,0.447450,-0.326572,-0.301398,-1.141422,0.312243
373,480042436,0.539634,-0.637675,0.443353,-0.324968,0.163905,-1.571229,0.064608
374,480075770,0.539332,-0.636042,0.443971,-0.327814,0.373916,-1.165418,-0.015702
375,480109104,0.537020,-0.633223,0.447167,-0.332686,0.096368,-0.453703,0.057529
376,480142438,0.534757,-0.630951,0.450116,-0.336649,-0.244346,0.514617,0.192919
377,480175772,0.534359,-0.630121,0.450529,-0.338278,-0.103745,0.962006,0.181497
378,480209106,0.535677,-0.630914,0.448464,-0.337459,-0.017879,0.615256,0.157678
379,480242440,0.538029,-0.632344,0.445291,-0.335234,0.051990,-0.088099,0.160129
380,480275774,0.540076,-0.633195,0.442483,-0.334053,0.150223,-0.541712,0.145535
381,480309108,0.541820,-0.633489,0.440039,-0.333901,0.001451,-0.353974,0.143058
382,480342442,0.543337,-0.633216,0.438094,-0.334511,-0.024656,-0.117697,0.207348
383,480375776,0.545315,-0.632265,0.436149,-0.335630,-0.231459,-0.134587,0.322591
384,480409110,0.548670,-0.630287,0.433759,-0.336977,0.061299,-0.425026,0.200321
385,480442444,0.552199,-0.627825,0.431812,-0.338305,0.446344,-0.476528,0.066069
386,480475778,0.553889,-0.625210,0.431762,-0.340446,0.556956,-0.458135,0.012427
387,480509112,0.553314,-0.622517,0.433936,-0.343535,0.266155,-0.122468,-0.123711
388,480542446,0.551844,-0.619662,0.437275,-0.346811,0.030039,0.037448,0.046909
389,480575780,0.550327,-0.616140,0.441324,-0.350350,0.116409,-0.229282,0.214020
390,480609114,0.548593,-0.612363,0.445783,-0.354027,0.335592,-0.326648,-0.122138
391,480642448,0.545979,-0.608760,0.451071,-0.357567,0.199354,-0.595267,0.187579
392,480675782,0.542561,-0.604255,0.457681,-0.361985,-0.041919,-0.448738,0.025928
393,480709116,0.537919,-0.598429,0.465845,-0.368123,-0.086530,-0.144625,0.181824
394,480742450,0.533707,-0.592721,0.473383,-0.373831,-0.205717,0.137849,-0.026735
395,480775784,0.530308,-0.588041,0.479625,-0.378076,-0.237745,0.239707,0.149926
396,480809118,0.526866,-0.583319,0.485945,-0.382111,-0.197059,-0.137163,-0.004154
397,480842452,0.523048,-0.578269,0.492582,-0.386509,-0.128225,-0.528782,0.287578
398,480875786,0.519713,-0.573148,0.498847,-0.390580,-0.075690,-0.717270,0.026415
399,480909120,0.515094,-0.567169,0.506433,-0.395631,-0.096075,-0.491520,-0.153480
400,480942454,0.509027,-0.561484,0.514861,-0.400683,-0.096948,0.435775,0.030794
401,480975788,0.502858,-0.556498,0.522874,-0.405028,-0.005900,0.646126,0.196217
402,481009122,0.498503,-0.552554,0.528725,-0.408204,0.299498,0.509806,0.338017
403,481042456,0.497275,-0.550430,0.531417,-0.409074,0.252315,0.473961,0.378824
404,481075790,0.497838,-0.549065,0.532300,-0.409075,0.051831,0.083976,0.228406
405,481109124,0.498460,-0.547276,0.533192,-0.409552,0.008341,-0.128649,0.016400
406,481142458,0.497873,-0.544393,0.535424,-0.411195,-0.107706,-0.228761,0.098825
407,481175792,0.497167,-0.541691,0.537683,-0.412667,-0.015129,-0.405360,0.073259
408,481209126,0.496515,-0.540218,0.539466,-0.413056,0.106315,0.453637,-0.119297
409,481242460,0.496222,-0.540761,0.540134,-0.411823,0.218080,1.257403,-0.076150
410,481275794,0.496882,-0.544866,0.538408,-0.407858,0.104229,1.264681,0.036895
411,481309128,0.499070,-0.552583,0.533949,-0.400600,-0.221906,0.980857,0.207012
412,481342462,0.503274,-0.561867,0.527014,-0.391506,-0.187959,0.343586,0.193373
413,481375796,0.508476,-0.571168,0.518614,-0.382440,0.099293,0.177221,0.151406
414,481409130,0.513263,-0.580198,0.510100,-0.373804,-0.071446,0.189411,0.103346
415,481442464,0.517007,-0.588818,0.502237,-0.365726,-0.333611,0.138576,0.084200
416,481475798,0.520585,-0.597164,0.494235,-0.357937,-0.430401,0.202601,0.199903
417,481509132,0.524885,-0.605609,0.485130,-0.349834,-0.312235,0.186105,0.179646
418,481542466,0.529226,-0.613804,0.475761,-0.341786,-0.100444,0.053496,0.258574
419,481575800,0.533375,-0.620934,0.467036,-0.334412,0.219962,-0.331493,0.295407
420,481609134,0.537122,-0.626215,0.459655,-0.328745,0.484353,-0.547767,0.119290
421,481642468,0.538612,-0.629933,0.455137,-0.325474,0.249987,-0.373299,-0.097385
422,481675802,0.538368,-0.632932,0.452555,-0.323655,0.081439,-0.059654,0.338036
423,481709136,0.539346,-0.635656,0.448985,-0.321655,0.134692,0.373818,0.234502
424,481742470,0.540742,-0.638434,0.445253,-0.318985,0.165121,0.265792,0.174552
425,481775804,0.541615,-0.639923,0.442959,-0.317710,0.032592,-0.181613,-0.018782
426,481809138,0.542015,-0.640253,0.441612,-0.318238,-0.291531,-0.262059,0.102383
427,481842472,0.541147,-0.639198,0.442050,-0.321215,-0.280748,-0.393675,-0.189820
428,481875806,0.536693,-0.636481,0.446328,-0.328092,-0.625526,-0.424343,-0.013123
429,481909140,0.531392,-0.634128,0.450462,-0.335543,-0.982681,0.896806,0.256053
430,481942474,0.532290,-0.636772,0.445978,-0.335103,-0.070367,0.746000,0.411350
431,481975808,0.537977,-0.641163,0.437135,-0.329249,0.398859,-1.468894,0.330100
432,482009142,0.541659,-0.641592,0.433392,-0.327318,0.342943,-2.190274,0.033097
433,482042476,0.540169,-0.637766,0.437174,-0.332193,0.392426,-1.897824,-0.162159
434,482075810,0.533861,-0.631991,0.446306,-0.341163,0.199842,-0.716038,0.275560
435,482109144,0.529406,-0.627043,0.453510,-0.347673,-0.008072,0.529818,0.383073
436,482142478,0.528424,-0.622898,0.457270,-0.351668,0.313892,1.027377,0.168517
437,482175812,0.528052,-0.619978,0.459605,-0.354334,0.354007,1.431094,-0.144784
438,482209146,0.526895,-0.620051,0.460118,-0.355262,0.201488,1.777155,-0.024420
439,482242480,0.527026,-0.623066,0.457208,-0.353545,0.150369,1.567934,0.154986
440,482275814,0.529837,-0.627388,0.451242,-0.349340,-0.083565,0.699444,0.168794
441,482309148,0.532815,-0.630810,0.445843,-0.345560,-0.021553,-0.520561,0.209771
442,482342482,0.534242,-0.632370,0.442986,-0.344176,0.202056,-1.354768,0.085434
443,482375816,0.534806,-0.632897,0.441672,-0.344022,0.021931,-1.239777,0.233033
444,482409150,0.535903,-0.633210,0.440173,-0.343661,-0.218981,-0.378875,0.184554
445,482442484,0.537546,-0.633925,0.437921,-0.342652,-0.230108,0.400669,0.126470
446,482475818,0.540091,-0.635403,0.434349,-0.340452,-0.244382,0.408838,0.183465
447,482509152,0.543625,-0.636653,0.430392,-0.337504,0.173493,-0.355065,0.012766
448,482542486,0.546157,-0.636611,0.428555,-0.335829,0.461035,-1.215720,0.108889
449,482575820,0.546122,-0.634965,0.430346,-0.336710,0.362693,-1.339443,0.087294
450,482609154,0.544140,-0.631741,0.435217,-0.339710,0.260465,-1.073857,0.040709
451,482642488,0.540808,-0.627066,0.442295,-0.344515,0.211528,-0.688882,0.212458
452,482675822,0.537167,-0.621261,0.450454,-0.350113,-0.086026,-0.233397,0.022299
453,482709156,0.533774,-0.615366,0.458543,-0.355175,-0.315246,0.022260,-0.029497
454,482742490,0.530242,-0.609777,0.466508,-0.359703,-0.408977,0.068981,0.025558
455,482775824,0.526267,-0.603710,0.474982,-0.364651,-0.377783,-0.054031,0.033854
456,482809158,0.521132,-0.596651,0.484811,-0.370659,-0.479632,-0.361894,-0.021916
457,482842492,0.515367,-0.590012,0.494511,-0.376488,-0.198216,-0.383536,0.267870
458,482875826,0.511746,-0.585547,0.501193,-0.379548,-0.009429,-0.407270,0.135348
459,482909160,0.510622,-0.582449,0.505577,-0.380016,0.205684,-0.131332,0.128088
460,482942494,0.508284,-0.577988,0.511667,-0.381805,0.174716,0.632946,0.139826
461,482975828,0.503999,-0.571350,0.519455,-0.386927,0.881420,0.665516,0.297666
462,483009162,0.499255,-0.564310,0.527041,-0.393098,0.754503,0.834002,0.270490
463,483042496,0.496941,-0.558817,0.532113,-0.397026,0.077660,0.680777,0.405683
464,483075830,0.497183,-0.554989,0.534393,-0.399025,-0.299652,0.525261,-0.016158
465,483109164,0.497621,-0.552389,0.535926,-0.400030,-0.445347,0.322993,-0.080314
466,483142498,0.497105,-0.550239,0.537885,-0.401004,-0.356285,-0.072843,0.041042
467,483175832,0.496206,-0.548712,0.539614,-0.401887,-0.060893,-0.353547,0.064708
468,483209166,0.496663,-0.548437,0.539845,-0.401387,0.111504,0.016854,0.183200
469,483242500,0.498701,-0.548830,0.538508,-0.400116,0.289378,0.688853,0.217178
470,483275834,0.500648,-0.549640,0.537045,-0.398536,0.200806,0.835120,0.079564
471,483309168,0.502606,-0.551856,0.534733,-0.396111,-0.169262,0.747565,0.105832
472,483342502,0.506135,-0.555894,0.530067,-0.392223,-0.387513,0.647731,0.112330
473,483375836,0.511180,-0.561485,0.523259,-0.386822,-0.574026,0.623962,0.088155
474,483409170,0.516923,-0.568720,0.514862,-0.379825,-0.623418,0.593063,-0.027466
475,483442504,0.522461,-0.576665,0.505795,-0.372377,-0.543746,0.090783,0.088077
476,483475838,0.527397,-0.584281,0.496721,-0.365702,-0.339714,-0.377443,0.189880
477,483509172,0.531947,-0.592046,0.487646,-0.358771,-0.221748,0.149574,-0.042074
478,483542506,0.536255,-0.601163,0.478115,-0.349915,-0.302118,1.490995,0.149117
479,483575840,0.539721,-0.609815,0.469081,-0.341747,0.091781,1.271631,0.086947
480,483609174,0.542323,-0.616407,0.461071,-0.336664,0.274724,0.059763,0.323910
481,483642508,0.545772,-0.623786,0.451615,-0.330256,0.460179,-0.239816,0.142501
482,483675842,0.549267,-0.632245,0.441210,-0.322346,0.422161,-0.164929,0.072555
483,483709176,0.552390,-0.639480,0.431523,-0.315784,0.197925,-0.205615,0.120131
484,483742510,0.554387,-0.644478,0.424141,-0.312104,0.344616,-0.236223,-0.018285
485,483775844,0.555034,-0.648027,0.418950,-0.310612,0.163861,-0.538991,-0.008704
486,483809178,0.554466,-0.651007,0.415242,-0.310375,-0.378430,-0.722047,0.018960
487,483842512,0.553184,-0.653314,0.412569,-0.311378,-0.762072,-0.420516,0.083021
488,483875846,0.551923,-0.655658,0.409708,-0.312466,-0.842545,0.215384,0.107068
489,483909180,0.552340,-0.659467,0.404227,-0.310845,-0.796216,0.221729,0.264763
490,483942514,0.553484,-0.663945,0.397817,-0.307531,-0.099931,-0.835373,0.306120
491,483975848,0.555170,-0.666851,0.392858,-0.304565,0.931069,-1.909068,0.302223
492,484009182,0.556764,-0.667676,0.390241,-0.303211,1.208562,-1.887934,0.175136
493,484042516,0.557120,-0.666902,0.390221,-0.304284,0.393548,-1.405161,0.224156
494,484075850,0.556001,-0.665131,0.392472,-0.307294,0.038017,0.066351,0.088284
495,484109184,0.554041,-0.662646,0.396457,-0.311066,0.189671,0.878987,0.230123
496,484142518,0.553668,-0.659742,0.399380,-0.314147,0.413752,0.639192,0.159525
497,484175852,0.554931,-0.657661,0.400060,-0.315415,0.407829,0.335419,0.272737
498,484209186,0.556938,-0.656800,0.399025,-0.314982,0.465002,0.348934,0.075680
499,484242520,0.558215,-0.656065,0.398452,-0.314980,0.440735,0.103757,0.035934
500,484275854,0.558652,-0.654618,0.399366,-0.316057,0.166710,-0.106633,0.087240
501,484309188,0.558418,-0.651558,0.402242,-0.319131,0.378310,-0.398368,0.201518
502,484342522,0.557628,-0.647549,0.406369,-0.323414,0.317504,-0.393088,0.131987
503,484375856,0.557016,-0.644262,0.409729,-0.326776,-0.049801,-0.358946,0.059165
504,484409190,0.556302,-0.640766,0.413493,-0.330108,-0.358301,-0.387702,0.083031
505,484442524,0.555240,-0.636286,0.418704,-0.333970,-0.182437,-0.655332,0.153399
506,484475858,0.554322,-0.631056,0.424432,-0.338163,0.335140,-0.995143,0.215833
507,484509192,0.552340,-0.624893,0.431705,-0.343600,0.147590,-1.092674,-0.073301
508,484542526,0.547698,-0.617389,0.442084,-0.351311,-0.466258,-0.457378,-0.208361
509,484575860,0.542060,-0.610361,0.452822,-0.358584,-0.408325,0.436030,0.057855
510,484609194,0.538284,-0.605560,0.460477,-0.362642,-0.017392,0.824482,-0.000836
511,484642528,0.536073,-0.602926,0.465541,-0.363839,0.156292,0.533054,0.047720
512,484675862,0.533971,-0.600605,0.470508,-0.364379,0.269490,-0.201574,0.240877
513,484709196,0.531142,-0.596989,0.476828,-0.366235,0.549501,-0.629050,0.205228
514,484742530,0.527990,-0.592039,0.484092,-0.369287,0.301785,-0.676016,0.034522
515,484775864,0.524706,-0.586058,0.491770,-0.373341,-0.307468,-0.676822,0.306053
516,484809198,0.520412,-0.577723,0.501515,-0.379331,-0.282611,-0.633337,-0.005703
517,484842532,0.512842,-0.567137,0.514985,-0.387479,-0.495545,-0.104016,-0.016538
518,484875866,0.503329,-0.556173,0.529077,-0.396749,-0.322602,0.315852,-0.140416
519,484909200,0.494595,-0.547485,0.540696,-0.404084,-0.159363,1.573319,0.040696
520,484942534,0.489195,-0.542556,0.548099,-0.407320,0.110003,1.637613,0.495897
521,484975868,0.487186,-0.540493,0.551318,-0.408126,0.419584,0.458508,0.226651
522,485009202,0.487357,-0.540764,0.552413,-0.406077,-0.011738,0.869441,0.038372
523,485042536,0.488238,-0.541921,0.551916,-0.404147,0.110156,0.991788,0.145673
524,485075870,0.489051,-0.543893,0.550511,-0.402428,-0.004698,0.804798,0.075548
525,485109204,0.491071,-0.546805,0.547958,-0.399495,-0.259230,0.116063,0.158273
526,485142538,0.493501,-0.549698,0.544941,-0.396648,-0.671787,-0.586970,0.078997
527,485175872,0.495966,-0.552771,0.541794,-0.393602,-0.590364,-0.505322,-0.175070
528,485209206,0.496632,-0.555851,0.540071,-0.390782,-0.219923,0.333063,-0.286900
529,485242540,0.495696,-0.560506,0.538591,-0.387347,0.110299,0.786017,0.102661
530,485275874,0.497012,-0.567986,0.533862,-0.381266,0.454870,1.053009,0.491276
531,485309208,0.502101,-0.576659,0.525528,-0.373069,0.719678,0.499968,0.524582
532,485342542,0.507516,-0.583876,0.517406,-0.365798,0.322352,-0.278927,0.107127
533,485375876,0.510661,-0.589380,0.511637,-0.360672,-0.178376,-0.565250,0.115807
534,485409210,0.512717,-0.594327,0.506643,-0.356666,-0.260800,-0.041054,0.101819
535,485442544,0.515485,-0.599608,0.500775,-0.352095,-0.416695,0.475425,0.076052
536,485475878,0.518645,-0.605309,0.494329,-0.346769,-0.521857,0.132625,0.333463
537,485509212,0.522495,-0.610617,0.487422,-0.341418,-0.013685,-0.609161,0.212534
538,485542546,0.525872,-0.614381,0.481666,-0.337628,0.282955,-0.783762,0.111351
539,485575880,0.527529,-0.616157,0.478526,-0.336269,0.190645,-0.455480,-0.011485
540,485609214,0.527234,-0.616231,0.478097,-0.337207,-0.041581,-0.000847,-0.030306
541,485642548,0.526036,-0.615862,0.478504,-0.339168,-0.178840,0.477326,0.097632
542,485675882,0.525851,-0.616809,0.477178,-0.339601,-0.129597,0.841489,0.023314
543,485709216,0.526195,-0.619453,0.474134,-0.338518,0.005578,0.893420,-0.013422
544,485742550,0.526527,-0.623070,0.470190,-0.336862,0.051981,0.756229,0.143641
545,485775884,0.527187,-0.626664,0.465837,-0.335207,0.205457,0.329291,0.167186
546,485809218,0.527966,-0.629490,0.461803,-0.334265,0.308390,-0.246149,0.341142
547,485842552,0.528346,-0.630224,0.459694,-0.335187,0.143936,-0.853692,0.380453
548,485875886,0.527599,-0.628053,0.460544,-0.339248,-0.136848,-1.525639,0.256070
549,485909220,0.526257,-0.624297,0.462916,-0.344987,-0.082168,-1.660568,0.134207
550,485942554,0.526045,-0.620700,0.464571,-0.349547,-0.218865,-1.180979,0.124662
551,485975888,0.526341,-0.618604,0.465388,-0.351723,-0.201176,-0.245608,-0.039738
552,486009222,0.526888,-0.618909,0.464742,-0.351222,-0.086609,1.151041,-0.057828
553,486042556,0.527981,-0.620914,0.462146,-0.349463,0.225187,2.004073,0.082814
554,486075890,0.528325,-0.623524,0.459109,-0.348297,0.421246,1.954254,-0.065449
555,486109224,0.528219,-0.625754,0.456148,-0.348350,0.207505,0.811890,0.100831
556,486142558,0.528134,-0.628499,0.452638,-0.348114,-0.016343,0.278121,-0.092440
557,486175892,0.528958,-0.633641,0.446569,-0.345369,-0.192090,0.074955,0.053856
558,486209226,0.530623,-0.640032,0.438920,-0.340805,-0.431240,-0.294313,0.286580
559,486242560,0.532971,-0.645092,0.431737,-0.336753,-0.300648,-0.905009,0.403275
560,486275894,0.536454,-0.647177,0.426386,-0.334028,0.208952,-2.172767,0.440444
561,486309228,0.538483,-0.646847,0.424541,-0.333753,0.603767,-2.473803,0.236600
562,486342562,0.538474,-0.644392,0.426098,-0.336521,0.364851,-1.453952,0.121252
563,486375896,0.537341,-0.640193,0.430022,-0.341322,-0.038936,0.000865,0.008428
564,486409230,0.536269,-0.635989,0.434079,-0.345702,-0.220548,0.872391,0.092374
565,486442564,0.535380,-0.632706,0.437271,-0.349064,-0.088622,1.025540,0.204363
566,486475898,0.535069,-0.629988,0.439553,-0.351582,0.335698,0.710056,0.073900
567,486509232,0.534928,-0.627482,0.441575,-0.353740,0.698578,-0.368568,0.054346
568,486542566,0.533535,-0.623681,0.445803,-0.357245,0.642007,-1.120795,0.123525
569,486575900,0.530964,-0.618173,0.452033,-0.362775,0.280808,-0.906564,0.143796
570,486609234,0.528329,-0.611814,0.458669,-0.369020,-0.247742,-0.564751,0.273330
571,486642568,0.526293,-0.604593,0.465412,-0.375335,-0.428479,-0.729008,0.267308
572,486675902,0.524655,-0.596094,0.472751,-0.381991,-0.362287,-1.124378,0.384644
573,486709236,0.524646,-0.588285,0.478542,-0.386867,-0.289426,-0.988567,-0.162369
574,486742570,0.525767,-0.582391,0.482553,-0.389272,-0.460330,-0.545477,-0.126583
575,486775904,0.526242,-0.577529,0.486688,-0.390724,-0.489381,0.321777,-0.113904
576,486809238,0.524723,-0.572922,0.492362,-0.392438,-0.041462,0.893750,-0.116194
577,486842572,0.520880,-0.568502,0.499536,-0.394911,0.145927,0.851990,-0.122830
578,486875906,0.516179,-0.564943,0.506625,-0.397154,0.555515,0.711233,0.190051
579,486909240,0.513293,-0.562583,0.511545,-0.397937,0.891590,0.057704,0.285250
580,486942574,0.511401,-0.559376,0.516281,-0.398777,0.518195,-0.669637,0.377346
581,486975908,0.507765,-0.553110,0.523889,-0.402226,0.081019,-0.789322,0.286445
582,487009242,0.502013,-0.544143,0.533927,-0.408429,-0.231057,-0.346287,-0.016026
583,487042576,0.496348,-0.535469,0.543136,-0.414628,0.024654,0.667278,0.037111
584,487075910,0.493605,-0.529646,0.548803,-0.417906,-0.004989,1.149259,0.143603
585,487109244,0.493056,-0.526545,0.551697,-0.418661,-0.004601,1.174209,0.141005
586,487142578,0.494158,-0.526163,0.552236,-0.417128,-0.130140,0.430143,-0.038273
587,487175912,0.495293,-0.526885,0.552132,-0.415005,-0.203202,0.331221,0.296882
588,487209246,0.496938,-0.527009,0.551692,-0.413462,-0.121936,0.323618,0.120729
589,487242580,0.498063,-0.526075,0.551724,-0.413255,-0.004841,0.167649,0.059520
590,487275914,0.498729,-0.525157,0.551879,-0.413413,-0.090092,0.050119,0.161666
591,487309248,0.499934,-0.524577,0.551305,-0.413459,-0.038118,0.077433,-0.006503
592,487342582,0.501575,-0.524858,0.550172,-0.412624,-0.102199,0.306998,0.145958
593,487375916,0.503070,-0.525664,0.548750,-0.411670,-0.187442,0.036320,-0.054762
594,487409250,0.503713,-0.527216,0.547577,-0.410458,-0.260668,-0.197606,0.027946
595,487442584,0.504459,-0.530203,0.546089,-0.407669,-0.088651,0.211731,-0.077662
596,487475918,0.505381,-0.534492,0.544030,-0.403660,0.031947,0.542272,-0.052141
597,487509252,0.505612,-0.540435,0.541486,-0.398850,-0.017859,0.634478,0.128867
598,487542586,0.506568,-0.548374,0.537293,-0.392419,-0.133983,0.481891,0.225101
599,487575920,0.509240,-0.557350,0.531057,-0.384727,-0.098894,0.303905,0.187436
600,487609254,0.512781,-0.566205,0.524031,-0.376642,-0.246552,0.115049,0.102004
601,487642588,0.515301,-0.574247,0.517510,-0.369986,-0.076593,0.121240,0.066857
602,487675922,0.517690,-0.582958,0.510414,-0.362817,-0.393093,0.508473,0.103806
603,487709256,0.521211,-0.592798,0.501589,-0.354033,-0.621987,0.606492,0.295652
604,487742590,0.525710,-0.602290,0.491412,-0.345528,-0.121139,0.281054,0.354650
605,487775924,0.530952,-0.610699,0.480615,-0.337857,0.185447,-0.092431,0.285650
606,487809258,0.535887,-0.617808,0.470651,-0.331099,0.145645,-0.384620,0.128977
607,487842592,0.538928,-0.622777,0.463499,-0.326917,0.045291,-0.626192,0.105000
608,487875926,0.540256,-0.625494,0.459152,-0.325670,-0.026667,-0.531941,0.105936
609,487909260,0.541107,-0.627128,0.455987,-0.325564,-0.021274,-0.107996,0.044477
610,487942594,0.541205,-0.628465,0.453675,-0.326050,0.194531,0.171529,0.090709
611,487975928,0.540530,-0.630068,0.451728,-0.326780,0.262856,0.356521,0.091629
612,488009262,0.540324,-0.632820,0.448594,-0.326120,0.216905,0.384132,0.111545
613,488042596,0.541601,-0.636485,0.443457,-0.323886,0.140376,0.227834,0.316140
614,488075930,0.543590,-0.639709,0.438040,-0.321566,0.080360,-0.160028,0.091764
615,488109264,0.544353,-0.641379,0.434816,-0.321323,0.065729,-0.496191,0.060968
616,488142598,0.544505,-0.642306,0.432653,-0.322133,-0.224380,-0.603476,0.203331
617,488175932,0.543935,-0.642067,0.431860,-0.324628,-0.177714,-0.795123,0.186589
618,488209266,0.541256,-0.639695,0.434140,-0.330691,-0.283884,-0.551608,-0.008711
619,488242600,0.539239,-0.638686,0.435005,-0.334772,-0.585430,-0.003937,0.077819
620,488275934,0.540019,-0.640488,0.431872,-0.334128,-0.369476,-0.311835,0.223693
621,488309268,0.541980,-0.642802,0.427973,-0.331515,0.134871,-0.676574,0.146888
622,488342602,0.543654,-0.643445,0.425888,-0.330212,0.692496,-0.794528,0.116351
623,488375936,0.543050,-0.642120,0.427344,-0.331899,0.781423,-0.590295,0.219440
624,488409270,0.541388,-0.639284,0.430760,-0.335650,0.477367,-0.090139,0.232614
625,488442604,0.540256,-0.636028,0.433822,-0.339694,0.164172,0.309407,0.139722
626,488475938,0.539790,-0.633837,0.435500,-0.342372,0.049530,0.928113,0.070591
627,488509272,0.540393,-0.633630,0.434761,-0.342743,0.249644,1.118231,0.000621
628,488542606,0.541852,-0.635058,0.432117,-0.341135,0.440846,0.406227,0.205128
629,488575940,0.543660,-0.635881,0.429570,-0.339940,0.318485,-0.299999,0.265518
630,488609274,0.545190,-0.635445,0.428200,-0.340033,0.257241,-0.721323,0.170471
631,488642608,0.546501,-0.634139,0.427606,-0.341113,-0.096281,-0.689127,0.198214
632,488675942,0.547619,-0.632216,0.427652,-0.342828,-0.334017,-0.566146,0.103489
633,488709276,0.549154,-0.630912,0.426985,-0.343606,-0.380647,-0.386194,0.042834
634,488742610,0.551811,-0.631178,0.424510,-0.341922,-0.263851,-0.196347,0.108851
635,488775944,0.554724,-0.631863,0.421776,-0.339316,0.065567,-0.224993,-0.008064
636,488809278,0.555888,-0.631562,0.421660,-0.338116,0.557670,-0.540465,-0.075255
637,488842612,0.554302,-0.629242,0.425723,-0.339948,0.371499,-0.359352,-0.064743
638,488875946,0.550645,-0.625094,0.432722,-0.344673,0.407756,0.170153,0.062763
639,488909280,0.547076,-0.620390,0.439864,-0.349779,0.278359,0.287578,0.161313
640,488942614,0.544181,-0.616825,0.445708,-0.353185,0.190127,0.030283,0.088733
641,488975948,0.541360,-0.614470,0.450701,-0.355282,0.191881,-0.259109,0.096913
642,489009282,0.538962,-0.612862,0.454821,-0.356453,-0.014631,-0.328596,0.143545
643,489042616,0.536981,-0.611448,0.458719,-0.356876,-0.124247,-0.423657,0.068584
644,489075950,0.534601,-0.609302,0.463661,-0.357734,-0.014954,-0.542426,0.158775
645,489109284,0.531903,-0.606310,0.469406,-0.359342,0.084058,-0.555450,0.172032
646,489142618,0.529801,-0.602749,0.474981,-0.361107,-0.033875,-0.520877,0.185683
647,489175952,0.528119,-0.598843,0.480639,-0.362579,-0.150196,-0.578002,0.121783
648,489209286,0.525192,-0.593253,0.488128,-0.366001,-0.160211,-0.505599,0.083717
649,489242620,0.520867,-0.585750,0.497412,-0.371721,-0.216799,-0.071724,0.013263
650,489275954,0.515639,-0.577908,0.507078,-0.378169,-0.298389,0.267463,0.062961
651,489309288,0.510688,-0.570860,0.515641,-0.383968,-0.150476,0.657831,0.107166
652,489342622,0.506867,-0.564671,0.523085,-0.388092,-0.359031,0.131813,0.329440
653,489375956,0.503878,-0.558438,0.529740,-0.391956,-0.073520,-0.484610,0.087858
654,489409290,0.501073,-0.552607,0.535838,-0.395512,0.169370,0.180152,-0.019979
655,489442624,0.497228,-0.547294,0.542068,-0.399245,-0.080793,1.165115,0.016080
656,489475958,0.493682,-0.543416,0.546961,-0.402258,-0.098786,1.315390,0.067049
657,489509292,0.493157,-0.543488,0.547858,-0.401584,0.162765,0.980035,0.170010
658,489542626,0.495654,-0.547063,0.545232,-0.397205,0.100333,0.641241,0.119339
659,489575960,0.498380,-0.551381,0.541965,-0.392264,-0.101083,0.352173,-0.013417
660,489609294,0.499836,-0.555932,0.539070,-0.387954,-0.164791,0.348107,-0.008525
661,489642628,0.501236,-0.561660,0.535337,-0.383035,-0.054822,0.515964,0.169856
662,489675962,0.504068,-0.568947,0.529632,-0.376437,-0.104169,0.594438,0.169200
663,489709296,0.508401,-0.577432,0.521908,-0.368392,-0.183472,0.390662,0.223619
664,489742630,0.513175,-0.585811,0.513409,-0.360402,0.034885,0.143689,0.316475
665,489775964,0.517743,-0.593023,0.505129,-0.353712,0.242085,-0.048652,0.119967
666,489809298,0.521439,-0.599697,0.497499,-0.347795,0.067009,-0.059226,0.139765
667,489842632,0.524759,-0.605990,0.490306,-0.342059,-0.172441,-0.009676,0.195935
668,489875966,0.527661,-0.611168,0.483862,-0.337529,-0.042095,-0.008774,0.166286
669,489909300,0.530202,-0.615879,0.477835,-0.333547,0.035032,-0.040634,0.144437
670,489942634,0.532957,-0.620563,0.471669,-0.329223,0.027093,0.221356,0.265428
671,489975968,0.536178,-0.624408,0.465707,-0.325184,-0.057716,0.066975,0.066804
672,490009302,0.538621,-0.628127,0.460086,-0.321973,-0.424101,-0.303149,0.019350
673,490042636,0.539144,-0.631056,0.456437,-0.320559,0.141572,-0.052288,0.166625
674,490075970,0.540014,-0.633079,0.453212,-0.319681,0.340596,-0.052100,0.050014
675,490109304,0.540170,-0.634526,0.450868,-0.319863,-0.062384,0.106732,0.053885
676,490142638,0.539194,-0.635594,0.449493,-0.321320,-0.234082,0.414174,0.092957
677,490175972,0.539151,-0.636912,0.446945,-0.322336,-0.308526,0.331535,0.144029
678,490209306,0.539285,-0.638264,0.443954,-0.323568,-0.244067,-0.043059,-0.031496
679,490242640,0.537078,-0.638504,0.443409,-0.327490,-0.308699,-0.333321,-0.098255
680,490275974,0.533505,-0.638294,0.444109,-0.332749,-0.528891,-0.153925,0.037781
681,490309308,0.531489,-0.639334,0.442680,-0.335866,-0.266097,-0.351677,0.352143
682,490342642,0.532172,-0.642160,0.438182,-0.335292,0.032651,-0.865094,0.228827
683,490375976,0.535051,-0.645108,0.432295,-0.332683,0.307338,-1.401313,0.218754
684,490409310,0.536718,-0.645924,0.429452,-0.332095,0.787489,-1.266254,0.175162
685,490442644,0.535603,-0.644317,0.431003,-0.334996,1.150830,-0.490569,0.174176
686,490475978,0.532967,-0.641237,0.435000,-0.339907,0.798940,0.302173,0.189589
687,490509312,0.530850,-0.638315,0.438426,-0.344291,0.269063,0.819229,0.092052
688,490542646,0.529679,-0.636545,0.440106,-0.347214,-0.106373,0.934565,0.106105
689,490575980,0.529093,-0.635985,0.440322,-0.348858,-0.173155,0.700016,0.046693
690,490609314,0.529025,-0.636303,0.439335,-0.349624,0.061936,0.115441,0.110914
691,490642648,0.528748,-0.636402,0.438570,-0.350820,0.107419,-0.505345,0.171597
692,490675982,0.527532,-0.634922,0.439924,-0.353626,-0.173579,-0.745899,0.081112
693,490709316,0.525599,-0.631432,0.443569,-0.358171,-0.357311,-0.953047,0.263614
694,490742650,0.523876,-0.628634,0.446601,-0.361831,-0.386438,-0.110214,0.004031
695,490775984,0.523029,-0.628824,0.446856,-0.362412,-0.060735,1.239515,0.145964
696,490809318,0.525136,-0.632184,0.442614,-0.358705,0.542713,1.700421,0.216182
697,490842652,0.530001,-0.637329,0.434674,-0.352093,0.610597,1.191154,0.189423
698,490875986,0.534769,-0.641733,0.427020,-0.346203,0.717975,0.185468,0.299690
699,490909320,0.539154,-0.643819,0.421012,-0.342871,0.800608,-0.638838,0.269409
700,490942654,0.542922,-0.643666,0.416962,-0.342159,0.769006,-0.965900,0.289317
701,490975988,0.546319,-0.642110,0.414140,-0.343102,0.495874,-0.674530,0.176117
702,491009322,0.547827,-0.639677,0.413696,-0.345768,-0.038062,-0.590965,-0.091348
703,491042656,0.547802,-0.636491,0.415526,-0.349473,-0.765129,-0.728456,-0.325272
704,491075990,0.547076,-0.633020,0.418950,-0.352811,-0.880136,-1.257762,-0.010739
705,491109324,0.545733,-0.628213,0.424567,-0.356747,-0.439899,-2.247245,0.547359
706,491142658,0.543382,-0.621101,0.432980,-0.362628,-0.169613,-2.791311,0.332787
707,491175992,0.539021,-0.610946,0.445281,-0.371387,-0.356361,-2.671735,0.078163
708,491209326,0.532585,-0.597971,0.460661,-0.382852,-0.659465,-1.190277,0.103074
709,491242660,0.526431,-0.584271,0.475537,-0.394161,-0.538741,0.682873,0.219876
710,491275994,0.522368,-0.572610,0.487448,-0.402051,-0.316099,1.521320,-0.248632
711,491309328,0.517682,-0.563499,0.498121,-0.407861,-0.390138,1.748478,-0.152880
712,491342662,0.513785,-0.557766,0.505946,-0.411026,0.371757,1.586219,0.154303
713,491375996,0.512676,-0.555351,0.509722,-0.411015,0.965256,0.759636,0.041574
714,491409330,0.511591,-0.552972,0.513566,-0.410789,0.691071,0.495099,0.016378
715,491442664,0.508767,-0.549071,0.519011,-0.412681,0.556423,-0.080462,0.127502
716,491475998,0.504607,-0.543752,0.525690,-0.416360,0.526088,-0.069109,0.194815
717,491509332,0.501763,-0.537774,0.531637,-0.419995,0.477023,0.196890,0.326075
718,491542666,0.502661,-0.531577,0.534429,-0.423255,0.915400,-0.097586,0.476294
719,491576000,0.504564,-0.524807,0.536629,-0.426641,0.521109,0.127056,0.149869
720,491609334,0.506202,-0.518963,0.538998,-0.428858,0.155127,-0.329026,0.029614
721,491642668,0.505920,-0.513072,0.542507,-0.431843,-0.564523,-0.139747,-0.329295
722,491676002,0.504098,-0.507797,0.546663,-0.434957,-0.739262,0.316773,0.017702
723,491709336,0.503356,-0.503892,0.548989,-0.437422,-0.035954,0.724759,0.050766
724,491742670,0.504294,-0.502342,0.549300,-0.437734,0.180216,1.149387,0.202892
725,491776004,0.505762,-0.502731,0.548544,-0.436539,-0.301954,0.382035,0.098720
726,491809338,0.506451,-0.502841,0.548192,-0.436057,-0.546146,-0.184492,0.020301
727,491842672,0.507513,-0.503643,0.547438,-0.434841,-0.355076,-0.041272,-0.115960
728,491876006,0.507804,-0.505881,0.546988,-0.432465,-0.331914,0.354684,-0.081573
729,491909340,0.507350,-0.509706,0.546505,-0.429102,-0.212484,0.835362,0.109393
730,491942674,0.508218,-0.515790,0.543798,-0.424217,0.254478,1.079884,0.177255
731,491976008,0.511059,-0.524026,0.538429,-0.417505,0.389684,1.003107,0.178687
732,492009342,0.515790,-0.533739,0.530612,-0.409310,0.356454,0.834866,0.213135
733,492042676,0.521749,-0.543851,0.521140,-0.400521,0.271215,0.745511,0.196660
734,492076010,0.527737,-0.553744,0.511274,-0.391741,-0.108581,0.349069,0.189778
735,492109344,0.532941,-0.562436,0.502237,-0.383924,-0.511566,-0.207226,-0.040217
736,492142678,0.536351,-0.569279,0.495076,-0.378351,-0.482995,-0.419028,0.166265
737,492176012,0.538146,-0.575039,0.489661,-0.374117,-0.530930,-0.340163,-0.024794
738,492209346,0.538330,-0.581923,0.485172,-0.369019,-0.709500,-0.110139,-0.058563
739,492242680,0.538332,-0.590626,0.479913,-0.362001,-0.579671,0.210588,0.186399
740,492276014,0.541351,-0.600118,0.471203,-0.353223,-0.492756,0.049745,0.339927
741,492309348,0.546590,-0.609495,0.460086,-0.343623,-0.047294,-0.263828,0.315674
742,492342682,0.550192,-0.616948,0.451576,-0.335774,0.516627,-1.126675,-0.012570
743,492376016,0.550863,-0.621784,0.447045,-0.331792,0.546348,-1.398533,0.038215
744,492409350,0.550337,-0.624718,0.444493,-0.330581,0.030845,-0.626268,0.074581
745,492442684,0.549023,-0.626550,0.443314,-0.330883,-0.368236,0.441122,0.155676
746,492476018,0.547189,-0.628809,0.442115,-0.331238,-0.364230,0.775353,0.051894
747,492509352,0.545249,-0.632476,0.439705,-0.330664,-0.467799,0.600006,-0.261470
748,492542686,0.543159,-0.638102,0.435851,-0.328389,-0.426534,0.524641,0.194171
749,492576020,0.541671,-0.643565,0.431285,-0.326206,-0.246311,-0.052688,0.349541
750,492609354,0.542180,-0.646826,0.426570,-0.325110,0.316029,-0.926500,0.485530
751,492642688,0.544326,-0.648027,0.422310,-0.324692,0.663112,-1.728822,0.249364
752,492676022,0.545886,-0.648199,0.419320,-0.325606,0.416556,-1.317648,0.251118
753,492709356,0.545491,-0.647170,0.419189,-0.328470,0.062808,-0.556241,0.150358
754,492742690,0.543865,-0.645579,0.420986,-0.331979,-0.208706,0.058191,-0.014855
755,492776024,0.542653,-0.645192,0.421797,-0.333681,-0.146386,0.515215,0.121005
756,492809358,0.543303,-0.646822,0.419720,-0.332083,0.184543,0.327736,0.014176
757,492842692,0.544138,-0.649542,0.416782,-0.329093,0.147632,0.520585,-0.062281
758,492876026,0.543608,-0.652470,0.414791,-0.326683,0.200804,0.687475,0.047268
759,492909360,0.542053,-0.654472,0.413864,-0.326438,0.122553,0.418161,0.259195
760,492942694,0.541058,-0.655695,0.412650,-0.327171,0.089829,0.200561,0.307621
761,492976028,0.542012,-0.656361,0.410115,-0.327443,0.139415,-0.423083,0.259216
762,493009362,0.543074,-0.655837,0.408770,-0.328415,0.226204,-1.221349,0.195456
763,493042696,0.542585,-0.654534,0.409859,-0.330460,0.242095,-1.266223,0.151634
764,493076030,0.540676,-0.652710,0.412704,-0.333640,-0.041083,-0.799631,0.239640
765,493109364,0.539033,-0.650844,0.415180,-0.336857,-0.244525,0.233828,0.131807
766,493142698,0.539581,-0.650751,0.414468,-0.337036,-0.193211,1.116365,0.072883
767,493176032,0.541988,-0.652651,0.410819,-0.333952,0.163852,0.779836,0.014596
768,493209366,0.544085,-0.654433,0.407566,-0.331029,0.378569,0.026669,0.099360
769,493242700,0.544829,-0.654940,0.406298,-0.330360,0.490384,-0.209001,0.180113
770,493276034,0.544725,-0.654627,0.406367,-0.331065,0.170529,-0.004083,-0.036610
771,493309368,0.543853,-0.653061,0.408248,-0.333271,0.146858,-0.505663,0.084993
772,493342702,0.542138,-0.650792,0.411534,-0.336448,0.056809,-0.808610,0.180334
773,493376036,0.540773,-0.648798,0.414523,-0.338818,-0.221829,-0.455417,-0.120197
774,493409370,0.538759,-0.647166,0.418142,-0.340696,-0.239881,-0.289533,-0.044099
775,493442704,0.535759,-0.644700,0.423383,-0.343616,-0.174190,-0.642330,0.502771
776,493476038,0.533799,-0.641335,0.428691,-0.346373,0.108068,-1.283533,0.436291
777,493509372,0.533170,-0.637372,0.433529,-0.348626,0.237079,-1.572104,0.189951
778,493542706,0.531599,-0.632255,0.440054,-0.352149,-0.033555,-1.182725,0.067022
779,493576040,0.528361,-0.626655,0.448197,-0.356732,-0.343168,-0.010957,-0.177290
780,493609374,0.524852,-0.621560,0.456176,-0.360690,-0.161264,0.941734,0.110143
781,493642708,0.522968,-0.617508,0.462177,-0.362743,0.151760,1.036916,0.056353
782,493676042,0.522135,-0.614621,0.466492,-0.363322,0.124726,0.696453,0.148762
783,493709376,0.521810,-0.612214,0.469879,-0.363487,0.424972,0.243302,0.177115
784,493742710,0.521335,-0.609951,0.473224,-0.363634,0.640432,-0.047903,0.058863
785,493776044,0.520188,-0.607393,0.477350,-0.364166,0.430183,-0.104915,0.027448
786,493809378,0.518182,-0.604388,0.482260,-0.365553,0.140868,-0.003866,0.203850
787,493842712,0.516561,-0.601954,0.486483,-0.366268,0.073793,0.255703,0.061978
788,493876046,0.515943,-0.600928,0.489356,-0.364994,0.454353,0.299888,0.081541
789,493909380,0.515219,-0.599602,0.492758,-0.363618,0.365765,-0.395273,0.211043
790,493942714,0.512247,-0.595176,0.499548,-0.365817,0.215382,-0.808402,0.144855
791,493976048,0.507623,-0.587768,0.508746,-0.371519,0.085419,-0.778519,0.171700
792,494009382,0.502505,-0.579644,0.518275,-0.378014,-0.214880,-0.166301,0.028678
793,494042716,0.497360,-0.572361,0.527139,-0.383616,-0.716862,0.828184,0.026254
794,494076050,0.493606,-0.567452,0.533386,-0.387107,-0.509620,1.127721,0.102698
795,494109384,0.492034,-0.565225,0.536590,-0.387938,-0.230477,0.968132,0.192254
796,494142718,0.492307,-0.564659,0.537603,-0.387011,0.006960,0.480880,0.084386
797,494176052,0.492866,-0.564934,0.537772,-0.385662,-0.108783,0.186795,0.046550
798,494209386,0.493180,-0.565474,0.537840,-0.384371,-0.272523,0.158093,0.040368
799,494242720,0.493670,-0.566656,0.537184,-0.382917,-0.127157,0.198418,0.165399
800,494276054,0.495112,-0.568966,0.535267,-0.380305,-0.242967,0.232358,0.147816
801,494309388,0.497298,-0.571738,0.532507,-0.377158,-0.103097,0.258680,0.131575
802,494342722,0.499639,-0.575047,0.529232,-0.373626,-0.085341,0.322484,0.035889
803,494376056,0.501943,-0.578866,0.525484,-0.369911,-0.034750,0.405368,0.015938
804,494409390,0.503943,-0.583514,0.521431,-0.365601,-0.090091,0.676086,0.112020
805,494442724,0.506312,-0.588988,0.516327,-0.360760,0.153956,0.659211,0.187143
806,494476058,0.509501,-0.595259,0.509798,-0.355223,0.222926,0.700143,0.179018
807,494509392,0.513330,-0.602229,0.502156,-0.348787,0.096246,0.314775,0.146312
808,494542726,0.517314,-0.609590,0.493842,-0.341917,0.032130,-0.109279,0.035470
809,494576060,0.520942,-0.617109,0.485506,-0.334786,-0.034942,-0.238370,0.259754
810,494609394,0.524402,-0.623160,0.478052,-0.328848,0.410141,-0.096235,0.275039
811,494642728,0.526787,-0.627830,0.472149,-0.324656,0.577686,0.161382,0.221729
812,494676062,0.529112,-0.632515,0.466250,-0.320277,0.152117,0.170811,0.193196
813,494709396,0.532105,-0.637080,0.459637,-0.315798,-0.492618,-0.007925,0.132124
814,494742730,0.535182,-0.641384,0.452969,-0.311491,-0.601113,-0.233181,0.067893
815,494776064,0.538181,-0.645257,0.446650,-0.307424,-0.518697,-0.634305,0.054389
816,494809398,0.540226,-0.647605,0.442303,-0.305176,-0.281456,-0.643789,0.002420
817,494842732,0.540565,-0.648373,0.440675,-0.305299,0.100699,-0.469694,0.041702
818,494876066,0.539770,-0.648001,0.440894,-0.307175,0.314049,-0.170169,0.085933
819,494909400,0.539044,-0.647565,0.440933,-0.309307,0.407416,0.324554,0.048724
820,494942734,0.537751,-0.646647,0.441413,-0.312773,0.000058,0.407869,0.032700
821,494976068,0.535873,-0.645800,0.442011,-0.316875,-0.531749,0.181893,0.407317
822,495009402,0.536775,-0.646698,0.438930,-0.317798,-0.231601,-0.666214,0.539228
823,495042736,0.541329,-0.648671,0.432825,-0.314409,0.476707,-1.954881,0.275596
824,495076070,0.543975,-0.647171,0.431419,-0.314863,0.654306,-2.361593,0.057700
825,495109404,0.540970,-0.641595,0.437799,-0.322553,0.264385,-0.701998,-0.229312
826,495142738,0.534986,-0.636673,0.446082,-0.330831,-0.162043,1.174924,-0.015603
827,495176072,0.531036,-0.634241,0.450790,-0.335452,-0.219338,2.214915,0.328009
828,495209406,0.530841,-0.633348,0.451092,-0.337041,0.066430,1.964172,0.142606
829,495242740,0.531618,-0.633395,0.449611,-0.337704,0.455366,0.600330,0.124043
830,495276074,0.530780,-0.632948,0.449760,-0.339657,0.592594,-0.616413,0.161994
831,495309408,0.528088,-0.630985,0.452626,-0.343673,0.356559,-1.126077,0.083158
832,495342742,0.524862,-0.628185,0.456527,-0.348552,-0.395284,-1.020649,0.046555
833,495376076,0.522336,-0.626158,0.459327,-0.352296,-0.766127,-0.374056,0.062222
834,495409410,0.520583,-0.625843,0.460278,-0.354203,-0.735799,0.783512,0.042008
835,495442744,0.520474,-0.627933,0.458005,-0.353609,-0.343119,1.622419,-0.000914
836,495476078,0.523311,-0.632327,0.451603,-0.349806,0.295945,1.169666,0.466202
837,495509412,0.529720,-0.638728,0.441085,-0.341859,0.842219,0.310595,0.406002
838,495542746,0.537658,-0.644964,0.429433,-0.332467,1.006099,-1.088351,0.217000
839,495576080,0.543330,-0.646535,0.422871,-0.328581,0.723454,-1.921536,0.167157
840,495609414,0.544688,-0.642797,0.424247,-0.331877,0.487118,-2.001776,0.045665
841,495642748,0.541522,-0.635916,0.432092,-0.340092,-0.084888,-1.080315,-0.145366
842,495676082,0.536925,-0.629046,0.441036,-0.348569,-0.498462,-0.074308,0.069655
843,495709416,0.534193,-0.623876,0.447219,-0.354137,-0.653731,0.562861,-0.168334
844,495742750,0.533016,-0.620519,0.451035,-0.356957,-0.348670,0.291432,0.388083
845,495776084,0.533735,-0.617072,0.453443,-0.358804,-0.060838,-0.972521,0.490964
846,495809418,0.534980,-0.612043,0.456621,-0.361523,0.056698,-1.796057,0.202095
847,495842752,0.536044,-0.605261,0.461450,-0.365213,0.026132,-1.690813,-0.187216
848,495876086,0.534951,-0.597430,0.468628,-0.370532,-0.229343,-0.957577,-0.229539
849,495909420,0.530251,-0.589420,0.478687,-0.377197,-0.545565,0.238805,-0.170592
850,495942754,0.523943,-0.582263,0.489417,-0.383310,-0.786315,1.489201,-0.185695
851,495976088,0.518177,-0.576581,0.498660,-0.387796,-0.267041,1.680749,0.233347
852,496009422,0.514837,-0.573332,0.504434,-0.389592,0.488908,0.818956,0.304328
853,496042756,0.514101,-0.572741,0.506706,-0.388482,0.652039,0.015893,0.070701
854,496076090,0.512172,-0.572166,0.510119,-0.387409,0.115516,-0.167025,-0.063491
855,496109424,0.507604,-0.570782,0.515824,-0.387908,-0.448020,-0.035046,0.005786
856,496142758,0.503097,-0.570759,0.520695,-0.387306,-0.594458,0.223730,-0.049580
857,496176092,0.499042,-0.571900,0.524665,-0.385508,-0.406324,0.289641,0.172718
858,496209426,0.496119,-0.572849,0.527445,-0.384075,0.395760,0.210539,0.384550
859,496242760,0.495268,-0.573417,0.528614,-0.382716,1.296423,0.104200,0.533683
860,496276094,0.493638,-0.571627,0.531288,-0.383796,1.292615,0.353278,0.351997
861,496309428,0.491314,-0.568900,0.534749,-0.386015,0.448755,0.361148,0.114641
862,496342762,0.490267,-0.567668,0.536403,-0.386866,-0.381054,0.250056,0.089446
863,496376096,0.490914,-0.568373,0.535911,-0.385689,-0.567244,0.514613,-0.083447
864,496409430,0.491812,-0.570264,0.534679,-0.383456,-0.123764,0.328101,0.078794
865,496442764,0.493095,-0.573446,0.532268,-0.380407,0.383134,0.291366,0.177015
866,496476098,0.495526,-0.578027,0.528223,-0.375925,0.385686,0.479867,0.226065
867,496509432,0.498040,-0.582537,0.523972,-0.371565,0.018284,0.467644,0.202442
868,496542766,0.501048,-0.587592,0.518758,-0.366847,-0.146075,0.491381,0.125795
869,496576100,0.505082,-0.593752,0.511962,-0.360897,-0.256573,0.487366,0.131888
870,496609434,0.509379,-0.600564,0.504349,-0.354244,-0.203482,0.290727,0.118410
871,496642768,0.513605,-0.607286,0.496480,-0.347739,-0.255555,0.025560,0.047548
872,496676102,0.517470,-0.613481,0.488745,-0.342045,-0.155900,-0.134131,0.056994
873,496709436,0.520700,-0.619552,0.481377,-0.336607,-0.315530,0.041074,0.138630
874,496742770,0.523382,-0.625000,0.474677,-0.331858,-0.122916,0.146836,0.238819
875,496776104,0.526160,-0.629891,0.467876,-0.327851,0.265134,0.247050,0.258672
876,496809438,0.530034,-0.634340,0.460550,-0.323375,0.118374,0.198191,0.209290
877,496842772,0.535070,-0.637958,0.452836,-0.318826,0.051136,-0.362963,0.285872
878,496876106,0.539944,-0.641014,0.445492,-0.314800,-0.364669,-0.835019,0.227597
879,496909440,0.541948,-0.640589,0.443530,-0.314991,-0.075502,-1.761426,0.086758
880,496942774,0.541849,-0.636775,0.445897,-0.319521,0.037743,-1.822444,-0.032497
881,496976108,0.541292,-0.633343,0.448067,-0.324216,-0.116139,-0.636764,-0.085042
882,497009442,0.539830,-0.631232,0.450271,-0.327698,-0.347039,0.878002,-0.056207
883,497042776,0.539078,-0.630839,0.450754,-0.329029,-0.341544,1.574528,0.184348
884,497076110,0.539011,-0.631436,0.449169,-0.330156,-0.206190,0.957442,0.416576
885,497109444,0.537366,-0.630529,0.449497,-0.334102,-0.184002,-0.594554,-0.566670
886,497142778,0.532473,-0.628952,0.452705,-0.340516,-1.306992,-0.449191,-0.573583
887,497176112,0.527983,-0.630447,0.453665,-0.343453,-0.615754,-0.138175,0.434726
888,497209446,0.526636,-0.634393,0.450938,-0.341841,-0.087052,-0.606932,0.448925
889,497242780,0.529250,-0.637867,0.445546,-0.338394,0.726992,-0.654753,0.457507
890,497276114,0.531479,-0.637531,0.443543,-0.338164,1.534168,-0.859469,0.329031
891,497309448,0.529636,-0.633901,0.447161,-0.343080,1.111279,-1.207045,0.157257
892,497342782,0.526743,-0.630101,0.451845,-0.348356,0.524091,-0.028944,0.198317
893,497376116,0.525670,-0.627070,0.454958,-0.351381,0.429827,1.053395,0.164258
894,497409450,0.524896,-0.624248,0.457725,-0.353960,0.288446,1.127337,0.110456
895,497442784,0.523868,-0.622364,0.459911,-0.355962,0.237691,1.187957,0.141129
896,497476118,0.523286,-0.621433,0.460912,-0.357147,-0.011327,0.722319,0.067179
897,497509452,0.522709,-0.621397,0.461177,-0.357711,-0.076210,0.175346,-0.090606
898,497542786,0.521311,-0.621858,0.461632,-0.358364,0.130691,0.365250,-0.015631
899,497576120,0.518430,-0.622224,0.463031,-0.360098,0.243885,0.334062,0.052094
900,497609454,0.515267,-0.622573,0.464452,-0.362198,0.022912,0.086197,0.300467
901,497642788,0.514145,-0.622380,0.464949,-0.363485,-0.227333,-0.953630,0.666287
902,497676122,0.514758,-0.620587,0.465427,-0.365068,-0.164135,-2.124427,0.205674
903,497709456,0.515533,-0.619052,0.465614,-0.366339,-0.201533,-0.794037,-0.088349
904,497742790,0.517468,-0.620312,0.463088,-0.364678,-0.157442,0.779499,-0.102689
905,497776124,0.519992,-0.623454,0.459118,-0.360728,-0.107384,1.300246,0.040666
906,497809458,0.522327,-0.627270,0.454597,-0.356440,0.231742,1.226277,0.191928
907,497842792,0.525048,-0.631096,0.449418,-0.352230,0.311489,0.726397,0.083817
908,497876126,0.528227,-0.634641,0.443728,-0.348301,0.062443,0.121212,0.089996
909,497909460,0.530729,-0.637642,0.438851,-0.345182,-0.085274,-0.408159,0.053470
910,497942794,0.531493,-0.638701,0.436891,-0.344532,-0.054893,-1.030331,0.172763
911,497976128,0.530606,-0.637859,0.437823,-0.346274,-0.038938,-1.213726,0.115581
912,498009462,0.528650,-0.636313,0.440306,-0.348951,-0.162799,-0.913514,0.069129
913,498042796,0.526812,-0.634608,0.442990,-0.351429,-0.246623,-0.430488,0.151625
914,498076130,0.524948,-0.632358,0.446363,-0.353997,-0.129314,-0.505426,0.120884
915,498109464,0.522696,-0.629522,0.450572,-0.357041,0.181942,-0.428852,0.261764
916,498142798,0.520627,-0.626645,0.454700,-0.359879,0.299051,-0.243331,0.253373
917,498176132,0.519375,-0.623672,0.458240,-0.362353,0.219968,-0.033832,0.164610
918,498209466,0.518236,-0.620148,0.462136,-0.365074,0.032252,-0.189624,0.152542
919,498242800,0.516521,-0.616156,0.466856,-0.368246,-0.200551,-0.280520,-0.068816
920,498276134,0.513990,-0.612027,0.472212,-0.371825,-0.378463,-0.146149,0.027312
921,498309468,0.511241,-0.608215,0.477427,-0.375196,-0.327533,0.064469,0.046909
922,498342802,0.508775,-0.605097,0.482030,-0.377696,0.019314,0.096562,0.091349
923,498376136,0.506687,-0.602678,0.486094,-0.379160,0.217954,-0.027240,0.123758
924,498409470,0.505005,-0.600244,0.489847,-0.380431,0.316848,-0.088630,0.173385
925,498442804,0.503218,-0.597416,0.493890,-0.382020,0.234941,-0.161548,0.111290
926,498476138,0.500651,-0.593890,0.498885,-0.384394,0.054409,-0.217770,0.193789
927,498509472,0.497825,-0.589461,0.504348,-0.387737,0.021840,-0.087269,0.211146
928,498542806,0.495414,-0.584766,0.509397,-0.391318,0.005056,0.198740,0.052037
929,498576140,0.492866,-0.581205,0.513743,-0.394147,-0.188573,0.486168,-0.000399
930,498609474,0.490752,-0.579245,0.516991,-0.395422,-0.400184,0.430619,-0.012588
931,498642808,0.488965,-0.577428,0.519884,-0.396500,-0.226602,0.110672,0.147335
932,498676142,0.487080,-0.575133,0.522773,-0.398352,0.209448,-0.262142,0.191478
933,498709476,0.485605,-0.573324,0.525284,-0.399456,0.235046,-0.213035,0.138586
934,498742810,0.484666,-0.571685,0.527317,-0.400267,0.255874,0.101651,0.156282
935,498776144,0.483572,-0.570231,0.529211,-0.401162,0.215846,0.281576,0.051347
936,498809478,0.482716,-0.569889,0.530345,-0.401183,-0.101255,0.421697,-0.006744
937,498842812,0.482970,-0.571473,0.529715,-0.399452,0.019312,0.818620,0.196264
938,498876146,0.484721,-0.574661,0.527044,-0.396279,0.414241,0.518058,0.128383
939,498909480,0.486918,-0.578945,0.523445,-0.392098,0.186541,0.226746,0.091825
940,498942814,0.489453,-0.583590,0.519340,-0.387487,-0.080399,0.167745,0.184904
941,498976148,0.491971,-0.587868,0.515130,-0.383429,-0.058760,0.001020,0.121876
942,499009482,0.494760,-0.592476,0.510518,-0.378889,-0.148661,-0.007297,0.111935
943,499042816,0.498060,-0.597521,0.505301,-0.373600,-0.353446,-0.017623,0.154312
944,499076150,0.501700,-0.602803,0.499500,-0.368003,-0.310098,-0.255788,0.058527
945,499109484,0.504892,-0.607756,0.494097,-0.362748,-0.309313,-0.323115,0.056171
946,499142818,0.507219,-0.611407,0.490019,-0.358877,-0.009593,-0.315222,0.238218
947,499176152,0.508866,-0.613657,0.487015,-0.356788,0.362769,-0.141478,0.150303
948,499209486,0.510943,-0.615995,0.483676,-0.354325,0.031717,-0.023357,0.161589
949,499242820,0.513232,-0.618359,0.480184,-0.351637,-0.446273,0.173699,0.137329
950,499276154,0.515039,-0.619742,0.477462,-0.350265,-0.185277,-0.058322,0.169748
951,499309488,0.517004,-0.621465,0.474173,-0.348781,0.084760,-0.040305,-0.012780
952,499342822,0.518588,-0.623861,0.470823,-0.346685,0.056678,0.276733,0.141232
953,499376156,0.519233,-0.625059,0.469058,-0.345955,0.092694,0.074635,0.079424
954,499409490,0.519600,-0.625598,0.467844,-0.346071,-0.119471,-0.176040,0.113697
955,499442824,0.518727,-0.625304,0.467953,-0.347761,-0.038329,-0.051317,0.085716
956,499476158,0.517071,-0.624043,0.468936,-0.351151,0.003872,-0.001649,0.098742
957,499509492,0.515618,-0.623021,0.469454,-0.354396,-0.189924,0.042564,0.236163
958,499542826,0.515060,-0.622580,0.468866,-0.356755,-0.202986,-0.112634,0.112369
959,499576160,0.514916,-0.622503,0.467813,-0.358475,-0.204548,-0.336945,0.073348
960,499609494,0.515216,-0.623055,0.466230,-0.359147,-0.078550,-0.402659,0.091036
961,499642828,0.515495,-0.624046,0.464533,-0.359224,0.119702,-0.125861,-0.036308
962,499676162,0.515489,-0.625354,0.463018,-0.358915,0.564021,0.161506,0.298013
963,499709496,0.515760,-0.626462,0.461498,-0.358549,0.994843,0.270686,0.252153
964,499742830,0.515891,-0.626772,0.460723,-0.358816,0.972829,-0.061768,0.201856
965,499776164,0.515215,-0.626096,0.461302,-0.360221,0.363008,-0.502663,0.120234
966,499809498,0.513783,-0.624672,0.463121,-0.362397,-0.172890,-0.647408,0.158577
967,499842832,0.512152,-0.622443,0.465794,-0.365105,-0.374563,-0.710140,0.161087
968,499876166,0.510775,-0.619857,0.468644,-0.367777,-0.524673,-0.574427,0.060592
969,499909500,0.509202,-0.617243,0.471622,-0.370538,-0.578440,-0.261093,0.042557
970,499942834,0.507523,-0.614933,0.474274,-0.373286,-0.422324,0.238505,0.035351
971,499976168,0.506559,-0.613693,0.475636,-0.374899,-0.041026,0.984535,0.059530
972,500009502,0.507361,-0.614701,0.474216,-0.373962,0.343134,1.318058,0.168156
973,500042836,0.509364,-0.617445,0.470472,-0.371438,0.414704,0.995805,0.077636
974,500076170,0.511231,-0.620772,0.466242,-0.368653,0.245295,0.594271,0.151330
975,500109504,0.513546,-0.623959,0.461577,-0.365915,0.204140,0.097362,0.215123
976,500142838,0.515796,-0.626875,0.457072,-0.363410,0.224640,-0.162662,0.113423
977,500176172,0.517084,-0.629126,0.453587,-0.362057,0.095777,-0.390719,0.122928
978,500209506,0.517747,-0.630567,0.451018,-0.361813,-0.299382,-0.301273,0.076555
979,500242840,0.518222,-0.631748,0.449002,-0.361578,-0.296571,-0.512246,0.081370
980,500276174,0.519062,-0.632997,0.447065,-0.360588,-0.191415,-0.869657,0.170627
981,500309508,0.520252,-0.634450,0.445135,-0.358703,0.016877,-1.098801,0.151329
982,500342842,0.520459,-0.635098,0.444810,-0.357655,0.219195,-0.792708,0.204094
983,500376176,0.519621,-0.634142,0.446448,-0.358528,0.215698,-0.298915,0.248485
984,500409510,0.518681,-0.632231,0.448769,-0.360362,0.114482,0.012475,0.117777
985,500442844,0.517775,-0.630338,0.451095,-0.362075,0.083436,0.311335,0.126414
986,500476178,0.517010,-0.628609,0.453156,-0.363596,0.059096,0.330992,0.069824
987,500509512,0.516273,-0.626699,0.455281,-0.365282,0.093213,0.070502,0.166092
988,500542846,0.515482,-0.624476,0.457511,-0.367414,0.275222,-0.055173,0.147085
989,500576180,0.514631,-0.622248,0.459667,-0.369688,0.249554,-0.009557,0.232353
990,500609514,0.513438,-0.619720,0.462074,-0.372582,0.050123,0.127766,0.180263
991,500642848,0.512312,-0.616995,0.464488,-0.375639,-0.048955,0.350572,-0.092693
992,500676182,0.511562,-0.614910,0.466448,-0.377647,-0.104351,0.068732,-0.049509
993,500709516,0.511372,-0.613865,0.467551,-0.378241,-0.086403,-0.270980,0.240796
994,500742850,0.511068,-0.612917,0.468934,-0.378476,-0.070798,-0.788312,-0.001229
995,500776184,0.509726,-0.610782,0.472177,-0.379703,-0.086325,-1.012313,0.206059
996,500809518,0.507657,-0.607218,0.476945,-0.382223,0.028341,-1.070997,0.148684
997,500842852,0.504291,-0.602311,0.483424,-0.386282,-0.084144,-0.921528,0.107702
998,500876186,0.500057,-0.597016,0.490814,-0.390663,-0.380196,-0.597837,0.115317
999,500909520,0.495740,-0.592265,0.498102,-0.394156,-0.602767,-0.069427,-0.030313
1000,500942854,0.491594,-0.588047,0.505020,-0.396854,-0.384366,0.385507,0.097313
1001,500976188,0.488291,-0.584268,0.510942,-0.398926,-0.139180,0.303920,-0.032171
1002,501009522,0.485088,-0.580966,0.516367,-0.400667,-0.122604,0.165665,0.135385
1003,501042856,0.482395,-0.578047,0.521131,-0.401970,0.013057,0.353658,0.065876
1004,501076190,0.480431,-0.575602,0.524896,-0.402930,0.350618,0.241864,0.244595
1005,501109524,0.478550,-0.573036,0.528314,-0.404359,0.421447,0.378959,0.263142
1006,501142858,0.477568,-0.570688,0.530906,-0.405444,0.286614,0.164304,0.237112
1007,501176192,0.476928,-0.568605,0.533092,-0.406254,-0.136849,-0.136427,0.016556
1008,501209526,0.476491,-0.567256,0.534872,-0.406313,-0.223357,0.134482,0.001657
1009,501242860,0.476779,-0.567010,0.535423,-0.405592,0.005694,0.294402,0.046097
1010,501276194,0.477244,-0.567520,0.535376,-0.404392,0.254713,0.486777,0.143156
1011,501309528,0.478359,-0.568880,0.534450,-0.402383,0.459562,0.646210,0.254794
1012,501342862,0.480789,-0.571322,0.531915,-0.399375,0.440136,0.502844,0.155135
1013,501376196,0.483810,-0.574845,0.528317,-0.395428,0.244491,0.219601,0.095294
1014,501409530,0.486703,-0.578794,0.524532,-0.391133,-0.215633,0.092444,0.064234
1015,501442864,0.489586,-0.582718,0.520617,-0.386917,-0.308392,-0.097761,0.134796
1016,501476198,0.492673,-0.586673,0.516284,-0.382804,0.006461,0.056253,0.094761
1017,501509532,0.496058,-0.591274,0.511281,-0.378041,0.060021,0.417284,0.064152
1018,501542866,0.499410,-0.596503,0.505782,-0.372773,-0.009810,0.456182,0.252835
1019,501576200,0.503336,-0.601833,0.499491,-0.367369,0.030234,0.419873,0.183244
1020,501609534,0.507767,-0.607547,0.492306,-0.361518,-0.006207,0.304511,0.132970
1021,501642868,0.512441,-0.613842,0.484358,-0.354966,-0.200874,0.218005,0.086359
1022,501676202,0.517057,-0.619864,0.476290,-0.348667,-0.221438,0.185978,0.132345
1023,501709536,0.521666,-0.625349,0.468331,-0.342739,-0.300083,-0.029634,0.134814
1024,501742870,0.526381,-0.630060,0.460695,-0.337208,-0.314324,-0.473721,0.114119
1025,501776204,0.530520,-0.634360,0.453593,-0.332251,-0.078513,-0.580751,0.258218
1026,501809538,0.534014,-0.637297,0.447896,-0.328743,0.163511,-0.605894,0.211873
1027,501842872,0.536557,-0.637823,0.444774,-0.327820,0.333928,-0.860216,0.120129
1028,501876206,0.537279,-0.636871,0.444248,-0.329198,0.075417,-0.819559,0.038950
1029,501909540,0.536625,-0.635049,0.445657,-0.331870,-0.196210,-0.437744,0.009932
1030,501942874,0.536053,-0.632761,0.447509,-0.334662,-0.273477,-0.002204,0.109551
1031,501976208,0.535515,-0.630450,0.449278,-0.337502,-0.176302,0.136338,0.065434
1032,502009542,0.534005,-0.628268,0.451523,-0.340949,-0.018028,0.126735,-0.012586
1033,502042876,0.531760,-0.626430,0.453806,-0.344787,-0.289693,0.161952,0.042413
1034,502076210,0.529997,-0.625111,0.455040,-0.348252,-0.417375,0.475988,0.047074
1035,502109544,0.529523,-0.625041,0.454202,-0.350185,-0.497960,0.430822,0.121277
1036,502142878,0.530411,-0.626531,0.451058,-0.350244,-0.266618,-0.019870,0.132017
1037,502176212,0.533396,-0.629764,0.445342,-0.347213,0.168585,-0.239894,0.267703
1038,502209546,0.537241,-0.633125,0.439155,-0.343030,0.785424,-0.414241,0.244351
1039,502242880,0.538297,-0.633361,0.437451,-0.343115,0.829386,-0.418588,0.070599
1040,502276214,0.536276,-0.631089,0.440173,-0.346965,0.474477,-0.172421,0.171147
1041,502309548,0.534136,-0.628499,0.443268,-0.351001,0.154619,0.187301,0.097028
1042,502342882,0.532932,-0.626608,0.445002,-0.354006,0.047236,0.468944,0.143524
1043,502376216,0.531957,-0.625302,0.446178,-0.356294,0.054199,0.126149,0.051893
1044,502409550,0.530424,-0.623812,0.448036,-0.358850,0.162330,-0.069303,0.045695
1045,502442884,0.528116,-0.622274,0.450585,-0.361722,0.197880,-0.080551,0.095437
1046,502476218,0.525621,-0.620849,0.453166,-0.364570,-0.051420,-0.072264,0.023050
1047,502509552,0.523114,-0.619816,0.455328,-0.367230,-0.245211,0.319842,0.105762
1048,502542886,0.521104,-0.619477,0.456610,-0.369062,-0.150489,0.614987,0.193620
1049,502576220,0.520447,-0.620216,0.455934,-0.369585,0.372119,0.289253,0.243907
1050,502609554,0.520988,-0.622168,0.453585,-0.368430,0.258068,-0.184486,0.362597
1051,502642888,0.522943,-0.624366,0.450029,-0.366297,-0.025615,-0.300209,0.255877
1052,502676222,0.526208,-0.626323,0.445466,-0.363849,-0.204420,-0.024679,0.129148
1053,502709556,0.529824,-0.628568,0.440362,-0.360931,-0.306755,0.248878,-0.073015
1054,502742890,0.532666,-0.631483,0.435587,-0.357437,-0.214228,0.293358,-0.107687
1055,502776224,0.534730,-0.634515,0.431323,-0.354141,0.089043,-0.211892,0.164658
1056,502809558,0.537232,-0.637447,0.426609,-0.350784,0.310017,-0.345620,0.381761
1057,502842892,0.539037,-0.638474,0.423711,-0.349658,0.516595,-0.357806,0.180941
1058,502876226,0.539765,-0.636939,0.423379,-0.351731,0.517604,-0.414317,0.300405
1059,502909560,0.539650,-0.633867,0.424613,-0.355942,0.245975,-0.334112,0.114340
1060,502942894,0.539100,-0.630651,0.426389,-0.360339,-0.211651,0.106497,-0.030249
1061,502976228,0.538613,-0.628210,0.427705,-0.363755,-0.395558,0.150657,-0.124949
1062,503009562,0.538206,-0.626580,0.428669,-0.366026,-0.310947,-0.133596,0.095830
1063,503042896,0.538110,-0.625406,0.429389,-0.367329,-0.221395,-0.796086,0.299265
1064,503076230,0.538488,-0.623665,0.430375,-0.368580,0.018202,-1.206778,0.254849
1065,503109564,0.538409,-0.620990,0.432591,-0.370612,0.000869,-1.105386,0.135277
1066,503142898,0.537363,-0.617775,0.436123,-0.373354,-0.199278,-0.633665,0.034186
1067,503176232,0.535250,-0.614049,0.441040,-0.376743,-0.263469,-0.051837,-0.062467
1068,503209566,0.532705,-0.610272,0.446492,-0.380051,-0.176112,0.179177,0.064156
1069,503242900,0.530683,-0.607279,0.451046,-0.382291,0.043780,0.131651,0.075831
1070,503276234,0.529243,-0.605222,0.454603,-0.383333,0.207334,0.113427,0.171942
1071,503309568,0.528266,-0.603192,0.457821,-0.384051,0.464722,-0.069557,0.224399
1072,503342902,0.527556,-0.600755,0.461075,-0.384954,0.513843,-0.226837,0.157084
1073,503376236,0.526343,-0.597678,0.465176,-0.386465,0.248354,-0.215261,0.054217
1074,503409570,0.524127,-0.593967,0.470556,-0.388680,-0.107915,-0.181943,-0.056381
1075,503442904,0.520581,-0.591110,0.476605,-0.390426,-0.532064,-0.395249,-0.123230
1076,503476238,0.515816,-0.589876,0.482773,-0.391038,-0.732135,0.009558,-0.183850
1077,503509572,0.511847,-0.590636,0.487385,-0.389383,0.131087,0.552832,0.061894
1078,503542906,0.510414,-0.592968,0.489307,-0.385287,0.961502,0.274713,0.305043
1079,503576240,0.509541,-0.594257,0.491423,-0.381746,0.858117,-0.384162,0.373668
1080,503609574,0.506764,-0.591963,0.496828,-0.382012,0.542664,-0.793229,0.256260
1081,503642908,0.502624,-0.586381,0.504620,-0.385858,0.003027,-0.743254,-0.057971
1082,503676242,0.497391,-0.580119,0.513498,-0.390365,-0.726780,-0.086423,-0.186702
1083,503709576,0.491602,-0.574829,0.522072,-0.394132,-0.842815,0.328932,0.184654
1084,503742910,0.487449,-0.571161,0.528368,-0.396228,-0.150956,0.402906,0.198346
1085,503776244,0.485844,-0.568952,0.532310,-0.396101,0.473316,0.006987,0.578621
1086,503809578,0.485147,-0.565762,0.535913,-0.396667,0.702002,-0.659785,0.230783
1087,503842912,0.482978,-0.561096,0.541221,-0.398729,-0.002659,-0.320569,-0.052118
1088,503876246,0.479788,-0.556353,0.547084,-0.401217,-0.386075,0.716863,0.064197
1089,503909580,0.477483,-0.553002,0.551189,-0.402977,-0.291800,1.158287,-0.043904
1090,503942914,0.477268,-0.553180,0.552152,-0.401667,-0.214613,1.257968,0.073423
1091,503976248,0.479912,-0.556784,0.549768,-0.396777,-0.200228,0.847046,0.096100
1092,504009582,0.483091,-0.561320,0.546160,-0.391477,0.119386,0.337327,0.085103
1093,504042916,0.486120,-0.566519,0.541856,-0.386181,0.389927,0.283127,0.187839
1094,504076250,0.489336,-0.572053,0.536998,-0.380709,0.196098,0.371023,0.134405
1095,504109584,0.492552,-0.577845,0.531756,-0.375132,-0.120722,0.317573,0.138865
1096,504142918,0.496478,-0.584518,0.525270,-0.368702,-0.223548,0.290801,0.158278
1097,504176252,0.501104,-0.591336,0.517996,-0.361797,-0.149020,0.133369,0.158736
1098,504209586,0.505211,-0.597574,0.511116,-0.355567,-0.153115,0.028505,0.070979
1099,504242920,0.508956,-0.604041,0.504145,-0.349195,-0.255096,0.133089,0.065735
1100,504276254,0.512814,-0.611188,0.496456,-0.342058,-0.304793,0.509211,0.164050
1101,504309588,0.517090,-0.618785,0.487636,-0.334567,-0.213491,0.759243,0.193198
1102,504342922,0.522272,-0.627316,0.476915,-0.325973,-0.075986,0.561317,0.348675
1103,504376256,0.528503,-0.635949,0.464847,-0.316499,-0.088297,0.031659,0.256373
1104,504409590,0.534354,-0.643287,0.453789,-0.307772,-0.114900,-0.598323,0.092606
1105,504442924,0.538665,-0.648620,0.445358,-0.301313,-0.232990,-1.043616,0.083754
1106,504476258,0.540992,-0.651980,0.439946,-0.297822,-0.075487,-0.856860,0.053246
1107,504509592,0.541589,-0.653352,0.437514,-0.297315,0.152279,-0.313105,0.254810
1108,504542926,0.541803,-0.653069,0.436612,-0.298865,0.003996,0.272864,0.054889
1109,504576260,0.541068,-0.652354,0.436904,-0.301325,-0.118030,0.320043,-0.002222
1110,504609594,0.539747,-0.651701,0.437427,-0.304330,-0.085802,0.213760,0.097924
1111,504642928,0.538948,-0.651437,0.437035,-0.306864,-0.028406,0.159074,0.018175
1112,504676262,0.537610,-0.650795,0.437410,-0.310025,0.182340,-0.378242,0.121198
1113,504709596,0.534498,-0.647695,0.441119,-0.316574,-0.076234,-0.678742,0.144374
1114,504742930,0.530220,-0.642680,0.447018,-0.325584,-0.322146,-0.500251,0.274533
1115,504776264,0.527158,-0.638529,0.450964,-0.333192,-0.137099,-0.152279,0.076219
1116,504809598,0.526134,-0.637178,0.451502,-0.336651,-0.106136,-0.214192,-0.083374
1117,504842932,0.525892,-0.637438,0.450769,-0.337517,-0.519655,-0.459465,0.214396
1118,504876266,0.526029,-0.636821,0.450442,-0.338903,0.098796,-0.409592,0.271045
1119,504909600,0.525596,-0.635069,0.451239,-0.341791,1.038464,0.355388,0.092548
1120,504942934,0.524116,-0.633704,0.452669,-0.344694,0.750400,0.569761,0.052575
1121,504976268,0.522381,-0.631983,0.454609,-0.347918,0.330754,-0.344340,0.722107
1122,505009602,0.520929,-0.627206,0.458359,-0.353771,0.478476,-0.911526,0.070079
1123,505042936,0.517043,-0.619599,0.466157,-0.362578,0.233748,-0.688355,-0.283961
1124,505076270,0.510985,-0.613499,0.474399,-0.370756,-0.168060,-0.096512,0.068354
1125,505109604,0.507964,-0.611886,0.477158,-0.374017,-0.267118,0.877513,0.297813
1126,505142938,0.510448,-0.613857,0.473686,-0.371813,-0.469389,1.073989,0.245100
1127,505176272,0.514071,-0.615724,0.469471,-0.369070,-0.115979,0.482671,0.035656
1128,505209606,0.514881,-0.616177,0.468089,-0.368941,0.449852,0.216251,0.032908
1129,505242940,0.514450,-0.616150,0.467536,-0.370285,0.707202,0.604448,0.226866
1130,505276274,0.516139,-0.617365,0.464164,-0.370154,0.336836,0.778464,0.244320
1131,505309608,0.519477,-0.619547,0.458769,-0.368561,-0.112928,0.514586,-0.002260
1132,505342942,0.522367,-0.621632,0.453814,-0.367098,-0.313714,-0.073208,-0.064197
1133,505376276,0.524207,-0.623522,0.450015,-0.365944,-0.211811,-0.554624,0.015725
1134,505409610,0.525473,-0.625078,0.447001,-0.365165,-0.061314,-0.830284,0.181233
1135,505442944,0.527280,-0.626423,0.443890,-0.364050,0.028124,-1.077227,0.162344
1136,505476278,0.529011,-0.627513,0.441303,-0.362805,0.081398,-1.024000,0.225316
1137,505509612,0.530239,-0.627723,0.440130,-0.362073,-0.152453,-1.091280,0.170428
1138,505542946,0.529732,-0.625942,0.442148,-0.363437,-0.164303,-0.946542,-0.027287
1139,505576280,0.527405,-0.622958,0.446709,-0.366360,-0.014374,-0.238279,0.228592
1140,505609614,0.525599,-0.620205,0.450509,-0.368964,0.179181,0.230616,0.132932
1141,505642948,0.524856,-0.618033,0.452987,-0.370629,0.101682,0.349357,0.129226
1142,505676282,0.524170,-0.615814,0.455653,-0.372020,0.045830,-0.009114,0.113050
1143,505709616,0.522860,-0.613325,0.459086,-0.373752,0.199762,-0.238244,0.125484
1144,505742950,0.521306,-0.610590,0.463001,-0.375566,0.322286,-0.324381,0.064654
1145,505776284,0.520308,-0.607711,0.466575,-0.377195,0.469334,-0.215946,0.596601
1146,505809618,0.520792,-0.604081,0.469521,-0.378700,0.762192,-0.237679,0.307904
1147,505842952,0.521875,-0.599828,0.472653,-0.380070,0.904430,-0.414164,0.047230
1148,505876286,0.521577,-0.595071,0.477473,-0.381927,0.342336,-0.814461,0.125182
1149,505909620,0.519091,-0.588140,0.484989,-0.386551,-0.199097,-0.697165,-0.062416
1150,505942954,0.515698,-0.580067,0.493549,-0.392413,-0.469480,-0.251763,-0.223476
1151,505976288,0.512507,-0.573696,0.501250,-0.396179,-0.572548,0.194546,-0.273435
1152,506009622,0.509573,-0.570552,0.507439,-0.396627,-0.707766,0.630376,-0.262685
1153,506042956,0.506202,-0.570351,0.512233,-0.395068,-0.544689,0.951318,0.019745
1154,506076290,0.502926,-0.571974,0.515900,-0.392122,-0.387321,0.702782,0.218402
1155,506109624,0.500719,-0.574035,0.518516,-0.388467,0.035133,-0.389846,0.370551
1156,506142958,0.499795,-0.574737,0.520665,-0.385735,0.348096,-0.893767,0.376897
1157,506176292,0.500129,-0.573630,0.522689,-0.384209,0.323322,-0.691531,0.290945
1158,506209626,0.499619,-0.570215,0.526226,-0.385128,-0.062082,-0.195321,-0.075785
1159,506242960,0.496623,-0.565817,0.531895,-0.387694,-0.476870,0.415583,-0.044717
1160,506276294,0.493462,-0.562773,0.536770,-0.389437,-0.338662,0.847034,0.169693
1161,506309628,0.492502,-0.562215,0.538730,-0.388750,-0.147101,1.136349,0.085258
1162,506342962,0.493268,-0.564054,0.538342,-0.385640,-0.143732,0.855179,0.038626
1163,506376296,0.494456,-0.567597,0.536626,-0.381289,-0.117248,0.499815,-0.047622
1164,506409630,0.495468,-0.572515,0.534135,-0.376084,-0.183899,0.476949,0.029375
1165,506442964,0.496844,-0.578572,0.530459,-0.370155,0.086947,0.716170,0.223640
1166,506476298,0.499591,-0.585645,0.524683,-0.363507,0.371312,0.933810,0.281898
1167,506509632,0.503987,-0.593767,0.516684,-0.355635,0.378430,0.849976,0.356161
1168,506542966,0.509348,-0.602312,0.507293,-0.347045,0.253176,0.447997,0.269390
1169,506576300,0.514561,-0.610546,0.497686,-0.338778,0.109113,0.080096,0.148551
1170,506609634,0.519154,-0.618437,0.488457,-0.330793,-0.458410,-0.090046,0.050062
1171,506642968,0.522934,-0.625638,0.480054,-0.323521,-0.963964,-0.342480,0.072655
1172,506676302,0.526606,-0.632520,0.471474,-0.316730,-0.616873,-0.429949,0.162839
1173,506709636,0.530980,-0.639092,0.462399,-0.309530,-0.132538,-0.410960,0.154387
1174,506742970,0.535093,-0.644294,0.454621,-0.303120,0.277035,-0.447055,0.424942
1175,506776304,0.539386,-0.646538,0.449161,-0.298841,0.501295,-0.874611,0.185392
1176,506809638,0.541719,-0.646573,0.446979,-0.297818,0.165240,-1.266757,-0.102759
1177,506842972,0.540136,-0.645963,0.448520,-0.299692,0.392412,-0.506448,-0.081471
1178,506876306,0.538381,-0.645295,0.450051,-0.301987,0.131379,0.681903,0.224570
1179,506909640,0.538467,-0.645156,0.449740,-0.302593,-0.534418,1.168699,0.204204
1180,506942974,0.537859,-0.644244,0.450227,-0.304885,-0.231003,0.526810,-0.013288
1181,506976308,0.534752,-0.641852,0.453723,-0.310164,-0.342961,-0.438256,-0.272920
1182,507009642,0.528494,-0.637644,0.460694,-0.319166,-0.288362,-0.167503,0.223895
1183,507042976,0.523792,-0.634424,0.465145,-0.326786,0.309360,0.295468,0.329920
1184,507076310,0.521783,-0.632928,0.466414,-0.331065,0.155236,0.165711,0.173153
1185,507109644,0.521260,-0.632749,0.465999,-0.332810,-0.072766,-0.126741,0.282827
1186,507142978,0.521573,-0.632144,0.465120,-0.334695,0.007873,-0.351725,0.061962
1187,507176312,0.521028,-0.631662,0.464763,-0.336941,0.150970,0.127550,0.017052
1188,507209646,0.519974,-0.631845,0.464499,-0.338587,0.320150,0.335162,0.172372
1189,507242980,0.520887,-0.633522,0.461713,-0.337859,0.160620,0.039669,0.279969
1190,507276314,0.523512,-0.636763,0.456365,-0.334962,-0.071579,-0.134062,0.100187
1191,507309648,0.525331,-0.640205,0.451479,-0.332164,-0.215766,0.019026,0.156145
1192,507342982,0.526133,-0.642694,0.447532,-0.331427,0.039672,0.595313,0.177041
1193,507376316,0.528098,-0.645383,0.442035,-0.330453,0.296834,0.800242,0.138235
1194,507409650,0.531330,-0.648366,0.435471,-0.328140,-0.162283,0.693809,0.034764
1195,507442984,0.534694,-0.650291,0.429685,-0.326489,-0.264316,-0.086241,0.081264
1196,507476318,0.536732,-0.649991,0.426635,-0.327740,-0.064789,-0.833298,0.036532
1197,507509652,0.537016,-0.647842,0.426594,-0.331561,0.205046,-1.012316,-0.058414
1198,507542986,0.534967,-0.645487,0.428966,-0.336372,0.300950,-0.783073,0.073920
1199,507576320,0.532108,-0.643370,0.431926,-0.341141,0.206075,-0.582445,0.246593
1200,507609654,0.529867,-0.640719,0.435004,-0.345677,0.304709,-0.558513,0.246140
1201,507642988,0.527444,-0.636758,0.439451,-0.351035,0.227885,-0.786576,0.291903
1202,507676322,0.524267,-0.631153,0.445644,-0.358040,0.066266,-0.834216,0.182961
1203,507709656,0.520520,-0.624427,0.453003,-0.365977,-0.088701,-0.863696,0.118271
1204,507742990,0.516752,-0.617313,0.460534,-0.373900,-0.419954,-0.803985,0.087969
1205,507776324,0.513497,-0.611492,0.466990,-0.379895,-0.587707,-0.251192,-0.108628
1206,507809658,0.511601,-0.608216,0.471132,-0.382587,-0.510483,0.139311,-0.050207
1207,507842992,0.510914,-0.606743,0.473415,-0.383026,-0.031539,0.511477,0.050736
1208,507876326,0.510918,-0.605852,0.474783,-0.382738,0.602394,0.512692,0.403018
1209,507909660,0.511288,-0.604529,0.475993,-0.382833,0.709657,0.412749,0.176604
1210,507942994,0.511424,-0.601889,0.477998,-0.384310,1.024662,0.332985,0.435163
1211,507976328,0.511401,-0.598040,0.480633,-0.387053,0.986735,0.070698,0.202456
1212,508009662,0.510174,-0.593478,0.484642,-0.390678,0.483216,-0.141030,0.005736
1213,508042996,0.507378,-0.587765,0.490469,-0.395652,0.126720,-0.112027,-0.194449
1214,508076330,0.503262,-0.582072,0.497100,-0.401015,-0.164419,0.136862,0.277892
1215,508109664,0.500499,-0.578100,0.501645,-0.404542,-0.108785,0.395215,0.251452
1216,508142998,0.500332,-0.575574,0.503337,-0.406246,-0.212582,0.246547,-0.043659
1217,508176332,0.502074,-0.574699,0.503030,-0.405714,-0.460299,-0.266662,0.080055
1218,508209666,0.503726,-0.574881,0.502483,-0.404084,-0.478949,-0.720741,-0.077829
1219,508243000,0.503326,-0.573979,0.504372,-0.403509,-0.276716,-0.753809,-0.002562
1220,508276334,0.501235,-0.571545,0.508402,-0.404509,-0.019760,-0.528178,0.091827
1221,508309668,0.498005,-0.568251,0.513553,-0.406629,0.136773,-0.107267,0.008540
1222,508343002,0.494157,-0.565562,0.518737,-0.408486,0.165150,0.742651,0.121184
1223,508376336,0.491996,-0.565028,0.521805,-0.407927,0.151323,1.042864,0.248199
1224,508409670,0.491446,-0.564610,0.523326,-0.407218,0.408558,0.027814,0.251118
1225,508443004,0.490624,-0.562147,0.525732,-0.408517,0.334569,-0.505936,0.076732
1226,508476338,0.489396,-0.558529,0.528891,-0.410869,-0.002209,-0.890946,0.350881
1227,508509672,0.488900,-0.555181,0.531252,-0.412945,-0.469999,-0.467198,-0.118336
1228,508543006,0.489564,-0.553901,0.532190,-0.412671,-0.465620,0.316802,0.084519
1229,508576340,0.490903,-0.553497,0.532299,-0.411478,-0.221467,0.121558,0.083599
1230,508609674,0.492241,-0.552584,0.532704,-0.410583,0.455689,0.068801,0.363790
1231,508643008,0.494343,-0.550756,0.533526,-0.409443,0.884177,-0.227808,0.130377
1232,508676342,0.497598,-0.548914,0.532945,-0.408730,-0.106789,0.443182,-0.046154
1233,508709676,0.497575,-0.548133,0.533881,-0.408585,-0.366453,1.492025,-0.158911
1234,508743010,0.498648,-0.550615,0.532363,-0.405911,-0.652443,1.599456,0.030850
1235,508776344,0.502581,-0.557087,0.526531,-0.399791,-0.509192,1.304469,0.057861
1236,508809678,0.508123,-0.565945,0.517853,-0.391596,-0.234603,0.630365,0.113739
1237,508843012,0.513269,-0.575660,0.508830,-0.382444,-0.121853,-0.238619,0.055541
1238,508876346,0.516547,-0.584987,0.501214,-0.373838,-0.222131,-0.699429,0.023170
1239,508909680,0.517742,-0.592767,0.495621,-0.367331,-0.298390,-0.656052,0.158272
1240,508943014,0.518460,-0.599265,0.490861,-0.362129,-0.306083,-0.056343,0.238439
1241,508976348,0.520349,-0.605120,0.485589,-0.356752,-0.121137,0.227223,0.399014
1242,509009682,0.524287,-0.610467,0.479020,-0.350706,0.252424,-0.263594,0.231297
1243,509043016,0.528243,-0.615197,0.472503,-0.345303,0.092731,-0.481351,0.123054
1244,509076350,0.531058,-0.619043,0.467115,-0.341420,-0.410127,-0.240471,0.152278
1245,509109684,0.533557,-0.622191,0.462535,-0.338021,-0.120350,-0.010394,0.131052
1246,509143018,0.535506,-0.624327,0.458845,-0.336023,0.212423,-0.272737,0.078869
1247,509176352,0.536757,-0.626438,0.455532,-0.334604,0.231188,-0.029640,0.085395
1248,509209686,0.537860,-0.629345,0.452123,-0.331989,-0.104809,0.227124,0.056894
1249,509243020,0.538468,-0.631412,0.449606,-0.330494,-0.252134,-0.028992,0.079543
1250,509276354,0.538154,-0.632445,0.448177,-0.330970,-0.220165,0.113051,-0.239210
1251,509309688,0.536410,-0.634503,0.447007,-0.331446,-0.292157,0.392460,0.011689
1252,509343022,0.535106,-0.638212,0.444290,-0.330083,-0.604849,0.033100,0.123862
1253,509376356,0.533661,-0.641140,0.441694,-0.330232,-0.339742,-0.073217,0.277172
1254,509409690,0.533076,-0.643471,0.438558,-0.330821,0.275594,0.113297,0.344995
1255,509443024,0.534352,-0.646444,0.433718,-0.329344,0.436451,-0.145639,0.125199
1256,509476358,0.535123,-0.648777,0.429743,-0.328717,0.363622,-0.216525,0.272759
1257,509509692,0.536036,-0.650415,0.426137,-0.328685,0.339775,-0.198410,0.205108
1258,509543026,0.536946,-0.651912,0.422821,-0.328517,0.278114,0.074614,0.167352
1259,509576360,0.537993,-0.653299,0.419796,-0.327927,0.277295,0.236707,0.089078
1260,509609694,0.539104,-0.654717,0.416705,-0.327216,0.383678,0.289678,0.053780
1261,509643028,0.540175,-0.656719,0.413150,-0.325944,0.184717,0.319801,0.092611
1262,509676362,0.541300,-0.659267,0.409011,-0.324149,0.080533,0.351926,0.166548
1263,509709696,0.542702,-0.661182,0.404975,-0.322971,0.076368,0.159588,0.145144
1264,509743030,0.544577,-0.663023,0.400684,-0.321387,0.163255,-0.288298,0.037253
1265,509776364,0.545553,-0.664529,0.397779,-0.320229,0.172360,-1.193440,0.126321
1266,509809698,0.544870,-0.664224,0.398157,-0.321552,0.058049,-1.359497,0.285501
1267,509843032,0.543467,-0.661661,0.401195,-0.325411,0.044123,-1.164496,0.295759
1268,509876366,0.541777,-0.657891,0.405549,-0.330436,-0.306916,-0.608451,0.105146
1269,509909700,0.539716,-0.654496,0.409810,-0.335259,-0.284642,0.172714,0.189234
1270,509943034,0.539049,-0.652755,0.411456,-0.337701,-0.180784,0.640174,-0.005457
1271,509976368,0.539181,-0.652157,0.411422,-0.338685,-0.050949,0.837230,-0.021625
1272,510009702,0.539455,-0.652243,0.410552,-0.339140,0.211857,0.863242,0.180814
1273,510043036,0.540555,-0.652963,0.408132,-0.338923,0.374762,0.666643,0.163646
1274,510076370,0.542299,-0.653884,0.404865,-0.338279,0.274223,0.312270,0.179376
1275,510109704,0.543631,-0.653954,0.402494,-0.338834,0.418927,0.037527,0.150748
1276,510143038,0.544559,-0.653463,0.400843,-0.340246,0.339371,-0.194254,0.117897
1277,510176372,0.545673,-0.652749,0.399195,-0.341766,0.023383,-0.360027,0.105607
1278,510209706,0.546775,-0.651391,0.398265,-0.343675,-0.093683,-0.530868,0.191292
1279,510243040,0.547901,-0.649761,0.397816,-0.345483,-0.059551,-0.910657,0.176518
1280,510276374,0.549005,-0.647776,0.397889,-0.347368,-0.314553,-1.161036,0.094599
1281,510309708,0.549613,-0.645818,0.398943,-0.348841,-0.362833,-1.006691,0.174319
1282,510343042,0.548829,-0.643373,0.402209,-0.350837,-0.179294,-0.850990,-0.005636
1283,510376376,0.547112,-0.640487,0.407005,-0.353260,-0.082981,-0.540917,0.172064
1284,510409710,0.545147,-0.637428,0.412356,-0.355618,0.063699,-0.192353,0.101766
1285,510443044,0.542454,-0.633543,0.418910,-0.359001,0.380517,-0.020139,0.093422
1286,510476378,0.538956,-0.628680,0.426728,-0.363583,0.483043,0.059010,0.295104
1287,510509712,0.535290,-0.622891,0.435209,-0.368871,0.725903,0.273732,0.131195
1288,510543046,0.531714,-0.616592,0.443720,-0.374444,0.689812,0.196530,0.126259
1289,510576380,0.527945,-0.610171,0.452170,-0.380142,0.321400,0.098526,0.013266
1290,510609714,0.524040,-0.603477,0.460579,-0.386091,-0.134498,0.094953,0.209517
1291,510643048,0.521438,-0.597175,0.467567,-0.390982,-0.400739,0.052699,0.217456
1292,510676382,0.520671,-0.591953,0.472353,-0.394179,-0.381861,-0.132458,0.125219
1293,510709716,0.520976,-0.587826,0.475624,-0.396015,-0.195824,-0.302364,0.091440
1294,510743050,0.521796,-0.584612,0.478075,-0.396742,-0.189548,-0.239450,0.017781
1295,510776384,0.522199,-0.582085,0.480666,-0.396795,-0.194821,-0.145153,-0.159265
1296,510809718,0.520328,-0.579021,0.485338,-0.398048,-0.256917,-0.029029,-0.081337
1297,510843052,0.516686,-0.575076,0.491369,-0.401098,0.112341,0.413267,0.052014
1298,510876386,0.513189,-0.571930,0.496739,-0.403467,0.349855,0.746397,0.031121
1299,510909720,0.509676,-0.570251,0.501544,-0.404351,0.215076,0.532783,0.154067
1300,510943054,0.506706,-0.569498,0.505241,-0.404541,0.339914,0.532379,0.081910
1301,510976388,0.505190,-0.570906,0.506796,-0.402503,0.072487,0.648317,0.092695
1302,511009722,0.505396,-0.574860,0.505737,-0.397923,-0.176061,0.456150,0.058498
1303,511043056,0.506015,-0.578809,0.504006,-0.393583,0.012224,0.134634,0.050351
1304,511076390,0.506040,-0.581670,0.503115,-0.390461,0.237010,-0.345579,0.126259
1305,511109724,0.504829,-0.583092,0.503750,-0.389087,0.019961,-0.576869,0.123302
1306,511143058,0.502556,-0.583166,0.505817,-0.389237,-0.309986,-0.406479,0.328816
1307,511176392,0.500919,-0.582822,0.507576,-0.389572,-0.288083,-0.113811,0.186497
1308,511209726,0.500455,-0.582884,0.508303,-0.389127,-0.348218,0.246217,0.106247
1309,511243060,0.501222,-0.584263,0.507377,-0.387276,-0.309433,0.319166,0.116006
1310,511276394,0.502774,-0.587522,0.504827,-0.383650,-0.305647,0.371573,-0.065378
1311,511309728,0.504163,-0.592260,0.501652,-0.378674,-0.492930,0.440709,-0.023317
1312,511343062,0.505356,-0.597806,0.498069,-0.373057,-0.311989,0.149852,0.157540
1313,511376396,0.506677,-0.603975,0.493841,-0.366899,0.130162,0.202266,0.153185
1314,511409730,0.508615,-0.610101,0.488989,-0.360526,0.605031,0.344072,0.278214
1315,511443064,0.510843,-0.614821,0.484320,-0.355624,0.464018,0.067640,0.214440
1316,511476398,0.512599,-0.619353,0.479916,-0.351179,-0.019224,0.149746,0.192740
1317,511509732,0.514713,-0.624136,0.474956,-0.346328,-0.280843,0.457417,0.075281
1318,511543066,0.517028,-0.628936,0.469618,-0.341440,-0.508757,0.292719,0.003877
1319,511576400,0.519561,-0.635487,0.462867,-0.334617,-0.517857,-0.164222,0.260988
1320,511609734,0.523664,-0.643051,0.454165,-0.325572,-0.033084,-0.392051,0.190233
1321,511643068,0.528065,-0.648172,0.446771,-0.318459,0.291051,-0.737708,0.256390
1322,511676402,0.529668,-0.649389,0.444257,-0.316833,0.393603,-1.097148,0.127859
1323,511709736,0.528767,-0.648544,0.445261,-0.318653,0.251355,-0.887615,-0.011700
1324,511743070,0.527232,-0.647924,0.446635,-0.320531,-0.338806,0.068471,0.165263
1325,511776404,0.526479,-0.647068,0.447614,-0.322127,-0.462188,0.635170,0.262518
1326,511809738,0.526002,-0.645574,0.448693,-0.324395,-0.049916,0.491655,0.054826
1327,511843072,0.525192,-0.644550,0.449440,-0.326700,0.012263,0.308272,0.021332
1328,511876406,0.524381,-0.643890,0.449663,-0.328991,-0.163822,0.271524,0.054447
1329,511909740,0.523654,-0.643623,0.449303,-0.331155,-0.330199,0.143599,0.201185
1330,511943074,0.523216,-0.642920,0.448747,-0.333955,-0.244919,-0.257908,0.221030
1331,511976408,0.522624,-0.641313,0.448860,-0.337799,-0.329310,-0.470332,0.057372
1332,512009742,0.522390,-0.639603,0.448878,-0.341359,-0.142487,-0.459696,0.151186
1333,512043076,0.522674,-0.639172,0.447864,-0.343058,0.183079,-0.253150,0.086869
1334,512076410,0.523302,-0.639786,0.446077,-0.343286,0.134787,-0.117521,0.060787
1335,512109744,0.523828,-0.639907,0.445001,-0.343654,0.287211,-0.071037,0.199535
1336,512143078,0.523379,-0.638716,0.445637,-0.345725,0.659803,0.096325,0.098587
1337,512176412,0.521404,-0.636426,0.448209,-0.349585,0.481555,0.197071,0.057401
1338,512209746,0.518921,-0.634322,0.451075,-0.353396,0.159822,0.276095,0.192117
1339,512243080,0.517451,-0.632907,0.452643,-0.356075,0.224795,0.297029,0.263879
1340,512276414,0.516692,-0.631426,0.453669,-0.358492,0.221771,-0.171911,0.229348
1341,512309748,0.515928,-0.630196,0.454667,-0.360486,-0.093452,-0.447388,-0.084798
1342,512343082,0.514395,-0.630066,0.455663,-0.361644,-0.406963,-0.134753,0.201001
1343,512376416,0.513872,-0.630655,0.455142,-0.362017,-0.139917,0.481180,0.362211
1344,512409750,0.515573,-0.630991,0.452781,-0.361974,0.257844,0.980997,0.126286
1345,512443084,0.518203,-0.632512,0.449135,-0.360102,0.400793,0.718150,-0.023420
1346,512476418,0.520521,-0.634772,0.445226,-0.357627,0.363622,0.042981,0.177113
1347,512509752,0.523064,-0.636047,0.441400,-0.356393,0.078065,-0.067200,0.210410
1348,512543086,0.525486,-0.636143,0.438417,-0.356341,-0.023890,-0.259554,0.152614
1349,512576420,0.526672,-0.635278,0.437469,-0.357297,0.058387,-0.805641,-0.018927
1350,512609754,0.525921,-0.633053,0.439141,-0.360287,0.040182,-1.052038,0.017158
1351,512643088,0.524158,-0.629972,0.442273,-0.364402,-0.262686,-0.911437,0.076235
1352,512676422,0.522500,-0.626813,0.445695,-0.368044,-0.417781,-0.648323,-0.017263
1353,512709756,0.520527,-0.623364,0.450018,-0.371420,-0.189039,-0.665656,0.150457
1354,512743090,0.518337,-0.620077,0.454590,-0.374406,0.095370,-0.533311,0.292060
1355,512776424,0.517208,-0.617476,0.457972,-0.376141,0.211015,-0.256377,0.050489
1356,512809758,0.515549,-0.614055,0.462333,-0.378675,0.171220,-0.354317,0.140682
1357,512843092,0.512711,-0.608971,0.468697,-0.382892,-0.117466,-0.084407,0.041668
1358,512876426,0.509404,-0.603439,0.475702,-0.387398,0.052769,-0.059417,0.194743
1359,512909760,0.505887,-0.598239,0.482608,-0.391509,0.060326,0.051807,0.006938
1360,512943094,0.502379,-0.593228,0.489499,-0.395079,0.122124,-0.089770,0.297503
1361,512976428,0.497564,-0.586553,0.498603,-0.399728,0.207965,-0.579293,0.146552
1362,513009762,0.489432,-0.577874,0.510893,-0.406826,0.523830,0.082832,-0.242066
1363,513043096,0.480962,-0.570835,0.521993,-0.412731,1.616297,0.946840,0.182709
1364,513076430,0.478238,-0.568403,0.526548,-0.413465,1.198986,1.267698,0.308899
1365,513109764,0.478627,-0.568526,0.527981,-0.411013,0.344921,0.837567,0.351095
1366,513143098,0.479886,-0.567641,0.529215,-0.409178,-0.240441,-0.632368,0.124500
1367,513176432,0.481070,-0.565589,0.531119,-0.408159,-0.696446,-1.395027,-0.066990
1368,513209766,0.479568,-0.561268,0.535646,-0.409971,-0.848505,-0.824425,0.026548
1369,513243100,0.475884,-0.555612,0.541508,-0.414246,-0.247298,0.145051,0.236269
1370,513276434,0.473325,-0.551166,0.545870,-0.417380,-0.207037,1.260930,0.008383
1371,513309768,0.473497,-0.549864,0.547143,-0.417236,-0.370561,1.258413,0.076347
1372,513343102,0.475289,-0.551112,0.546006,-0.415036,-0.611161,0.575050,-0.080533
1373,513376436,0.477391,-0.554004,0.543840,-0.411602,-0.718433,0.265590,0.031272
1374,513409770,0.479405,-0.558045,0.541318,-0.407103,-0.516510,-0.160696,0.021371
1375,513443104,0.480699,-0.562639,0.538900,-0.402435,-0.201099,-0.166674,0.010056
1376,513476438,0.481756,-0.567893,0.536337,-0.397181,-0.123336,0.520894,0.135671
1377,513509772,0.483619,-0.573649,0.532797,-0.391367,0.084917,0.541809,0.224372
1378,513543106,0.486750,-0.580423,0.527631,-0.384435,0.042292,0.255744,0.204291
1379,513576440,0.490901,-0.588477,0.521136,-0.375671,-0.031565,-0.164148,0.282569
1380,513609774,0.495385,-0.595276,0.514551,-0.368075,0.131017,-0.677751,0.271098
1381,513643108,0.498534,-0.599605,0.509953,-0.363162,0.174944,-0.562903,0.156299
1382,513676442,0.499995,-0.601905,0.507482,-0.360804,-0.088791,0.032026,0.075434
1383,513709776,0.500971,-0.603997,0.505242,-0.359093,-0.212686,0.465074,0.021928
1384,513743110,0.503071,-0.607321,0.501271,-0.356103,-0.224428,0.779586,0.118255
1385,513776444,0.506278,-0.611625,0.495808,-0.351816,-0.158920,0.990464,0.161894
1386,513809778,0.509779,-0.616098,0.489681,-0.347507,-0.010802,0.546663,0.270481
1387,513843112,0.513037,-0.620282,0.483546,-0.343842,0.334106,-0.062197,0.239242
1388,513876446,0.515952,-0.623436,0.478708,-0.340531,0.429121,-0.375264,0.327827
1389,513909780,0.518947,-0.624622,0.474990,-0.339009,0.306962,-0.680221,0.273150
1390,513943114,0.521259,-0.625278,0.471695,-0.338852,0.163826,-0.277296,0.031717
1391,513976448,0.521715,-0.625014,0.470624,-0.340125,0.024974,-0.269070,0.138690
1392,514009782,0.521757,-0.622957,0.471312,-0.342871,-0.197512,-0.596687,0.125643
1393,514043116,0.521843,-0.619734,0.472653,-0.346712,-0.554108,-0.681341,-0.059978
1394,514076450,0.520125,-0.616142,0.475528,-0.351729,-0.744226,-0.121104,-0.129019
1395,514109784,0.518454,-0.614645,0.476739,-0.355159,-0.567062,0.547113,-0.089939
1396,514143118,0.517814,-0.616281,0.474935,-0.355674,-0.447769,0.882625,0.003819
1397,514176452,0.518092,-0.619526,0.471356,-0.354389,-0.493703,0.693960,0.145238
1398,514209786,0.518649,-0.622665,0.467475,-0.353212,-0.355254,-0.117116,0.188293
1399,514243120,0.520338,-0.626088,0.462753,-0.350889,0.033310,-1.101097,0.323047
1400,514276454,0.522906,-0.628208,0.458767,-0.348509,0.729035,-1.601059,0.381244
1401,514309788,0.524440,-0.628737,0.456982,-0.347592,1.371071,-0.715638,0.300296
1402,514343122,0.524980,-0.628041,0.456592,-0.348547,1.297134,0.653584,0.109415
1403,514376456,0.524214,-0.625581,0.458261,-0.351918,0.499149,0.932893,0.142737
1404,514409790,0.522544,-0.622193,0.461098,-0.356670,-0.193857,0.861924,0.121305
1405,514443124,0.522600,-0.620515,0.461419,-0.359089,-0.230468,0.528483,-0.003640
1406,514476458,0.523059,-0.620423,0.460428,-0.359848,-0.260725,-0.232955,-0.107957
1407,514509792,0.521561,-0.619928,0.461290,-0.361768,-0.624260,-0.673348,-0.016559
1408,514543126,0.518686,-0.618599,0.463894,-0.364833,-0.316111,-0.982524,0.249187
1409,514576460,0.516691,-0.617816,0.465466,-0.366983,0.161388,-0.122473,0.089456
1410,514609794,0.516683,-0.619192,0.464271,-0.366189,0.397276,0.742113,0.082291
1411,514643128,0.517160,-0.621126,0.462411,-0.364589,0.260253,0.732304,0.415215
1412,514676462,0.518163,-0.622244,0.460221,-0.364029,0.508941,0.474343,0.180318
1413,514709796,0.519771,-0.623506,0.457260,-0.363307,0.260746,0.163614,0.050014
1414,514743130,0.522223,-0.625475,0.453179,-0.361516,-0.052952,-0.098581,0.126611
1415,514776464,0.525025,-0.628068,0.448364,-0.358956,-0.134149,-0.079798,0.085234
1416,514809798,0.527543,-0.630680,0.443889,-0.356236,-0.281435,0.018755,-0.178185
1417,514843132,0.528833,-0.632739,0.440906,-0.354372,-0.289765,-0.018614,0.141044
1418,514876466,0.529150,-0.634488,0.438904,-0.353256,0.025930,-0.042896,0.134352
1419,514909800,0.529020,-0.635346,0.437828,-0.353243,0.299247,-0.152434,0.075090
1420,514943134,0.528054,-0.635473,0.437949,-0.354308,0.151291,-0.216332,0.068384
1421,514976468,0.526641,-0.635339,0.438634,-0.355803,-0.021902,-0.285811,0.332322
1422,515009802,0.525968,-0.634604,0.439219,-0.357384,0.072993,-0.497994,0.314344
1423,515043136,0.526340,-0.633027,0.439771,-0.358951,0.270180,-0.851010,0.236581
1424,515076470,0.527156,-0.631033,0.440407,-0.360481,0.063350,-0.966568,0.250290
1425,515109804,0.527824,-0.629095,0.441363,-0.361718,-0.144142,-0.738355,-0.127520
1426,515143138,0.527290,-0.627463,0.443482,-0.362740,-0.225025,-0.286037,0.000597
1427,515176472,0.526570,-0.626460,0.445499,-0.363049,0.074971,0.288472,0.055180
1428,515209806,0.526802,-0.626368,0.446233,-0.361968,0.358912,0.607177,0.188667
1429,515243140,0.527728,-0.626669,0.446205,-0.360128,0.491942,0.230672,0.327964
1430,515276474,0.528417,-0.625365,0.447340,-0.359974,0.445918,-0.373673,0.072488
1431,515309808,0.527200,-0.621815,0.451573,-0.362614,0.322112,-0.772962,0.272824
1432,515343142,0.524391,-0.616756,0.457982,-0.367261,0.211406,-0.577889,0.046347
1433,515376476,0.521389,-0.611872,0.464358,-0.371671,-0.036208,0.031382,0.122931
1434,515409810,0.519206,-0.608017,0.469586,-0.374474,-0.237297,0.351402,0.014853
1435,515443144,0.517491,-0.604841,0.474096,-0.376304,-0.410396,0.390393,-0.120296
1436,515476478,0.515721,-0.602505,0.478310,-0.377147,-0.272639,-0.044156,0.114460
1437,515509812,0.513761,-0.600359,0.482615,-0.377759,0.043100,-0.548529,0.164557
1438,515543146,0.511719,-0.598292,0.487112,-0.378040,0.274857,-0.759321,0.144707
1439,515576480,0.508386,-0.594750,0.493646,-0.379645,-0.037770,-0.635506,0.048910
1440,515609814,0.503172,-0.589574,0.502122,-0.383528,-0.323155,-0.391806,0.226976
1441,515643148,0.497581,-0.583003,0.510957,-0.389159,-0.419067,0.248228,0.087235
1442,515676482,0.492836,-0.576405,0.518770,-0.394650,-0.145198,0.845557,0.140252
1443,515709816,0.490159,-0.572143,0.523647,-0.397731,0.069378,0.568873,0.062160
1444,515743150,0.488582,-0.569763,0.526675,-0.399090,-0.090505,0.623909,0.067459
1445,515776484,0.487916,-0.568151,0.528483,-0.399812,-0.008511,0.456866,0.130029
1446,515809818,0.487659,-0.567375,0.529631,-0.399708,-0.134420,0.108435,0.111282
1447,515843152,0.488212,-0.567605,0.529662,-0.398665,0.118677,-0.009358,0.207847
1448,515876486,0.489706,-0.568173,0.528698,-0.397301,0.051055,0.009006,0.076116
1449,515909820,0.491974,-0.568995,0.527190,-0.395320,-0.121016,0.277023,0.245963
1450,515943154,0.495525,-0.570210,0.524414,-0.392818,0.253569,0.133796,0.272715
1451,515976488,0.499206,-0.572049,0.520910,-0.390137,0.041225,0.398242,-0.166532
1452,516009822,0.502666,-0.575875,0.516674,-0.385674,-0.408195,0.621999,-0.083156
1453,516043156,0.505897,-0.580957,0.511768,-0.380331,-0.570355,0.496644,0.018966
1454,516076490,0.509532,-0.587342,0.505548,-0.373936,-0.221520,0.496151,-0.058777
1455,516109824,0.512929,-0.595077,0.498483,-0.366474,-0.167776,0.643443,0.110084
1456,516143158,0.516609,-0.603820,0.490230,-0.358041,-0.111975,0.399738,0.111319
1457,516176492,0.520819,-0.612984,0.480752,-0.349108,0.062607,0.054366,0.291142
1458,516209826,0.525272,-0.621379,0.471178,-0.340543,0.111826,-0.179929,0.211370
1459,516243160,0.529031,-0.628447,0.462792,-0.333175,-0.049562,-0.355914,0.171597
1460,516276494,0.531088,-0.634016,0.456513,-0.327973,-0.031580,-0.383253,0.158829
1461,516309828,0.532875,-0.639177,0.450433,-0.323432,0.074991,-0.006175,0.114713
1462,516343162,0.535300,-0.644882,0.443231,-0.318007,-0.172499,0.254350,0.087401
1463,516376496,0.537960,-0.650877,0.435559,-0.311847,-0.468387,0.197770,0.078881
1464,516409830,0.540033,-0.656345,0.428291,-0.306828,-0.062445,0.296076,0.310356
1465,516443164,0.542836,-0.661160,0.420591,-0.302161,0.536956,0.300432,0.310873
1466,516476498,0.545065,-0.663945,0.415201,-0.299484,0.630712,0.016730,0.200529
1467,516509832,0.545100,-0.664054,0.414060,-0.300757,0.379057,-0.574416,0.170042
1468,516543166,0.543678,-0.662180,0.415633,-0.305257,-0.083786,-1.016753,0.023800
1469,516576500,0.541204,-0.658658,0.419258,-0.312237,-0.235863,-0.815257,0.158149
1470,516609834,0.537790,-0.654007,0.424373,-0.320881,-0.386937,-0.451474,0.067632
1471,516643168,0.534361,-0.649686,0.429048,-0.329068,-0.793327,-0.291495,0.154799
1472,516676502,0.533264,-0.646955,0.430639,-0.334110,-0.597345,-0.484564,0.311735
1473,516709836,0.534331,-0.645262,0.430051,-0.336431,-0.073980,-0.923996,0.037395
1474,516743170,0.535584,-0.644205,0.429389,-0.337306,0.308369,-0.846623,0.002626
1475,516776504,0.534612,-0.642723,0.431174,-0.339394,0.428300,-0.166140,0.118127
1476,516809838,0.532577,-0.640174,0.434633,-0.342978,0.741596,0.598218,0.285959
1477,516843172,0.531285,-0.637444,0.437422,-0.346503,0.793672,1.117165,0.168373
1478,516876506,0.531381,-0.636237,0.437819,-0.348067,0.370655,1.192210,0.111798
1479,516909840,0.531691,-0.635661,0.437224,-0.349393,0.208287,0.827183,0.071901
1480,516943174,0.531108,-0.635152,0.437081,-0.351379,-0.008656,0.579627,-0.229199
1481,516976508,0.530163,-0.635775,0.436531,-0.352363,-0.087093,0.468189,0.092160
1482,517009842,0.529999,-0.637275,0.434553,-0.352343,-0.095089,0.026043,0.034565
1483,517043176,0.529477,-0.638364,0.433045,-0.353013,-0.406745,-0.499733,-0.059583
1484,517076510,0.528561,-0.639044,0.432585,-0.353718,-0.525093,-1.140328,0.174013
1485,517109844,0.527405,-0.639539,0.432730,-0.354373,0.036110,-1.146249,0.438874
1486,517143178,0.525582,-0.639351,0.433989,-0.355878,0.624029,-0.000538,0.154644
1487,517176512,0.524996,-0.639820,0.433904,-0.356003,0.706086,0.648657,0.430475
