sep=,
DeviceTag:,2C_Leg
FirmwareVersion:,2.2.1
AppVersion:,2023.6.0
SyncStatus:,Synced
OutputRate:,30Hz
FilterProfile:,General
Measurement Mode:,Sensor fusion Mode - Complete(Quaternion)
StartTime: ,2026-05-01_14:39:22_468 AEST
© Movella Technologies B. V. 2005-2026

PacketCounter,SampleTimeFine,Quat_W,Quat_X,Quat_Y,Quat_Z,FreeAcc_X,FreeAcc_Y,FreeAcc_Z
1,2184876532,0.198977,-0.247805,0.751579,-0.578041,-0.217509,0.344917,0.003466
2,2184909866,0.196486,-0.246792,0.750956,-0.580132,-0.196563,0.443943,0.094114
3,2184943200,0.194117,-0.246269,0.750257,-0.582054,-0.157845,0.342441,0.047860
4,2184976534,0.191487,-0.245337,0.749426,-0.584385,0.072035,0.001911,0.075185
5,2185009868,0.188427,-0.243644,0.748652,-0.587074,0.370497,0.033450,0.389144
6,2185043202,0.186469,-0.241791,0.747038,-0.590510,0.813345,-0.186067,0.424771
7,2185076536,0.186223,-0.239817,0.744099,-0.595086,1.282946,-0.443258,0.493925
8,2185109870,0.187078,-0.236417,0.739373,-0.602028,1.820491,-1.081603,0.925159
9,2185143204,0.190580,-0.232672,0.731162,-0.612329,2.158784,-1.640386,1.037121
10,2185176538,0.197286,-0.229477,0.719305,-0.625317,1.854649,-1.706327,0.776525
11,2185209872,0.205680,-0.227545,0.705858,-0.638502,1.221204,-0.776045,0.359628
12,2185243206,0.214772,-0.227326,0.692527,-0.650080,2.033990,0.926556,0.484799
13,2185276540,0.233452,-0.234436,0.680918,-0.653370,3.114057,3.546840,0.657647
14,2185309874,0.256063,-0.246628,0.671002,-0.650664,-0.371165,3.768128,-0.992383
15,2185343208,0.270887,-0.257280,0.664781,-0.646912,-1.232609,1.439394,-1.153316
16,2185376542,0.287417,-0.269566,0.658258,-0.641423,-0.801534,-0.642747,-0.402824
17,2185409876,0.309346,-0.284388,0.649486,-0.633718,-1.324390,-1.117602,-0.077558
18,2185443210,0.328104,-0.294774,0.641146,-0.628005,-0.434018,-1.194535,0.080464
19,2185476544,0.340603,-0.299719,0.636063,-0.624166,-0.425668,-0.561887,0.396867
20,2185509878,0.353022,-0.303207,0.630224,-0.621499,-0.543280,-0.597035,0.465527
21,2185543212,0.367445,-0.306747,0.621555,-0.620130,-0.704342,-0.860858,-0.148037
22,2185576546,0.380239,-0.308565,0.613224,-0.619810,-0.206294,-0.664564,-0.382966
23,2185609880,0.390824,-0.309927,0.607554,-0.618127,-0.777976,-0.087681,-0.796504
24,2185643214,0.400972,-0.311214,0.602573,-0.615854,-0.090816,-0.336220,-0.262207
25,2185676548,0.412693,-0.313222,0.596736,-0.612768,-0.008582,-0.850719,-0.638108
26,2185709882,0.420797,-0.314379,0.594114,-0.609201,0.449888,-1.757095,-0.366081
27,2185743216,0.425392,-0.314726,0.594860,-0.605089,-0.422217,-1.530570,-0.788484
28,2185776550,0.426771,-0.313908,0.599658,-0.599784,0.682583,-0.046117,-0.543907
29,2185809884,0.426004,-0.314783,0.605846,-0.593620,0.686937,-0.721939,-0.570634
30,2185843218,0.423283,-0.316462,0.612890,-0.587410,0.255820,-0.599480,-0.059321
31,2185876552,0.415845,-0.320923,0.623239,-0.579359,-1.935778,-2.393112,1.893617
32,2185909886,0.415008,-0.327023,0.625090,-0.574534,2.520816,-0.058345,2.433053
33,2185943220,0.415264,-0.332468,0.630466,-0.565275,-0.127328,-1.581053,0.365088
34,2185976554,0.409835,-0.331351,0.639374,-0.559861,-0.369725,-0.876777,-0.647483
35,2186009888,0.404777,-0.329163,0.647520,-0.555453,-0.681330,-0.646937,-0.326984
36,2186043222,0.397361,-0.325594,0.657271,-0.551443,-1.732425,-0.156353,1.571971
37,2186076556,0.383661,-0.319495,0.672587,-0.546219,-2.215876,0.490149,-0.880315
38,2186109890,0.369509,-0.311550,0.687330,-0.542199,-1.705388,0.201277,-0.593003
39,2186143224,0.352953,-0.302229,0.703682,-0.537509,-1.600871,-0.047359,-0.598199
40,2186176558,0.332569,-0.292457,0.720871,-0.533117,-0.396843,1.293143,0.169270
41,2186209892,0.312280,-0.283636,0.736508,-0.528762,0.467120,1.426162,0.626999
42,2186243226,0.293925,-0.274898,0.750133,-0.524730,0.676216,1.252424,0.672724
43,2186276560,0.279163,-0.265542,0.761160,-0.521722,0.981588,1.166820,0.077610
44,2186309894,0.264527,-0.254280,0.771425,-0.519877,0.899175,0.386245,-0.048030
45,2186343228,0.250249,-0.242740,0.780807,-0.518454,0.452989,0.798544,0.585438
46,2186376562,0.239297,-0.234018,0.788328,-0.516250,0.483630,0.941263,-0.059155
47,2186409896,0.229952,-0.229240,0.794137,-0.513730,0.464851,-0.040075,0.066452
48,2186443230,0.220951,-0.225576,0.799183,-0.511474,0.669830,-0.350696,0.309677
49,2186476564,0.207649,-0.218799,0.805617,-0.509894,-0.004349,-0.797444,0.116543
50,2186509898,0.192533,-0.210972,0.811704,-0.509471,1.006471,-0.990902,0.155437
51,2186543232,0.179829,-0.204879,0.815892,-0.509910,1.861901,0.570591,-0.065679
52,2186576566,0.169707,-0.200838,0.818969,-0.510054,1.408140,0.282768,-0.010151
53,2186609900,0.160077,-0.198298,0.821982,-0.509314,0.524643,0.065751,-0.146404
54,2186643234,0.148745,-0.196101,0.825552,-0.507824,0.086238,-0.250158,0.098735
55,2186676568,0.134650,-0.192596,0.829482,-0.506693,0.403896,0.059714,-0.135778
56,2186709902,0.118609,-0.187114,0.833305,-0.506482,1.333627,-0.306366,0.036069
57,2186743236,0.101781,-0.181145,0.836519,-0.507015,2.380360,-0.667466,0.690057
58,2186776570,0.087112,-0.178043,0.837984,-0.508426,3.842740,-1.825584,0.614830
59,2186809904,0.079100,-0.179534,0.836779,-0.511189,4.753690,-1.606644,1.201665
60,2186843238,0.081306,-0.185433,0.830664,-0.518655,5.521705,-3.135242,1.742576
61,2186876572,0.093644,-0.193817,0.817601,-0.534037,5.114882,-6.233027,1.304019
62,2186909906,0.114061,-0.207463,0.788299,-0.567922,4.833341,-6.580052,0.202258
63,2186943240,0.121636,-0.204647,0.762409,-0.601713,2.935114,4.953410,1.201187
64,2186976574,0.138274,-0.196497,0.741141,-0.626882,-0.664788,5.572372,3.730847
65,2187009908,0.165792,-0.193574,0.716115,-0.649786,-1.557724,3.488489,0.674234
66,2187043242,0.190261,-0.186994,0.696413,-0.666217,-0.666561,3.183551,0.073447
67,2187076576,0.213543,-0.179897,0.683315,-0.674625,-2.543570,3.910026,-0.816419
68,2187109910,0.240997,-0.181724,0.672836,-0.675418,-2.320794,3.088034,-1.945769
69,2187143244,0.270420,-0.196716,0.662125,-0.670648,-3.346059,2.769954,-2.601280
70,2187176578,0.298133,-0.211238,0.651574,-0.664792,-3.160638,1.502183,-1.060394
71,2187209912,0.326321,-0.223705,0.642561,-0.656192,-3.776896,0.786949,-0.662221
72,2187243246,0.349457,-0.231136,0.638781,-0.645303,-2.988589,-0.537472,-1.730512
73,2187276580,0.365542,-0.238195,0.638540,-0.633964,-2.467336,-1.201791,-0.920917
74,2187309914,0.380624,-0.247974,0.635256,-0.624569,-1.580477,-2.127388,-1.365588
75,2187343248,0.396062,-0.263521,0.630082,-0.613750,-1.251941,-0.916019,-0.985139
76,2187376582,0.407770,-0.276963,0.625061,-0.605241,-0.295836,-0.757211,-0.107775
77,2187409916,0.412882,-0.289618,0.622377,-0.598580,-0.520654,-2.084234,-0.394515
78,2187443250,0.416507,-0.301703,0.621991,-0.590445,0.930856,-2.779991,0.327122
79,2187476584,0.417381,-0.309290,0.626191,-0.581395,-0.108151,-1.576908,-1.455068
80,2187509918,0.403493,-0.309803,0.643223,-0.572261,-4.793759,-3.258249,0.296069
81,2187543252,0.385406,-0.312890,0.656462,-0.567999,3.887623,-2.546163,7.158068
82,2187576586,0.387995,-0.321471,0.656874,-0.560923,0.501748,-1.784025,2.726862
83,2187609920,0.363663,-0.311095,0.680918,-0.554366,-4.855852,0.762030,-2.673692
84,2187643254,0.338141,-0.292987,0.703207,-0.552559,-2.038406,2.666308,-2.395859
85,2187676588,0.325794,-0.283888,0.716144,-0.548093,0.180802,1.280042,-0.256113
86,2187709922,0.309288,-0.275842,0.731047,-0.542055,-1.610234,2.312313,0.683270
87,2187743256,0.293568,-0.269256,0.744343,-0.535980,0.754703,1.877133,0.689955
88,2187776590,0.281574,-0.262451,0.755213,-0.530557,-0.124762,0.135005,-0.167713
89,2187809924,0.265045,-0.252956,0.766849,-0.526981,0.475356,-0.249378,-0.003437
90,2187843258,0.254634,-0.246381,0.774336,-0.524274,1.143637,0.480049,0.352176
91,2187876592,0.246176,-0.241229,0.779625,-0.522870,0.127289,0.526559,0.075968
92,2187909926,0.235698,-0.236776,0.785668,-0.520683,-0.931060,0.552003,-0.267348
93,2187943260,0.222788,-0.231888,0.792203,-0.518661,-0.195596,-0.072861,-0.329169
94,2187976594,0.209882,-0.227256,0.798206,-0.516888,0.330856,-0.131343,0.154469
95,2188009928,0.196846,-0.223434,0.803447,-0.515561,0.279086,0.220599,0.262922
96,2188043262,0.184082,-0.221801,0.808014,-0.513841,0.262577,0.400752,0.006575
97,2188076596,0.169809,-0.220556,0.812830,-0.511693,0.551882,0.415406,0.628006
98,2188109930,0.152807,-0.217962,0.818232,-0.509550,0.992794,-1.245657,0.665926
99,2188143264,0.135995,-0.215035,0.822584,-0.508549,2.181305,-0.627541,-0.463691
100,2188176598,0.118441,-0.209927,0.826236,-0.509154,3.343115,0.127605,-0.284549
101,2188209932,0.104743,-0.204688,0.828077,-0.511295,3.431597,-1.169426,0.125031
102,2188243266,0.096131,-0.201770,0.827263,-0.515446,5.057234,-2.727431,0.740287
103,2188276600,0.098182,-0.204249,0.820428,-0.524922,6.858651,-3.537596,2.008224
104,2188309934,0.119605,-0.216155,0.798503,-0.548968,9.089689,-8.371290,1.469379
105,2188343268,0.135513,-0.220230,0.768426,-0.585370,2.564058,-0.467564,2.474934
106,2188376602,0.147034,-0.210550,0.742687,-0.618439,-0.749977,5.366285,3.720547
107,2188409936,0.166821,-0.200069,0.720039,-0.643187,-2.858858,3.196889,1.495812
108,2188443270,0.185594,-0.188450,0.700327,-0.663012,-0.738656,3.664235,-0.533573
109,2188476604,0.205198,-0.178455,0.685379,-0.675504,-0.968597,4.279813,-0.255166
110,2188509938,0.233635,-0.175386,0.673780,-0.678731,-1.577290,5.181886,-0.529101
111,2188543272,0.268388,-0.186397,0.659962,-0.676517,-2.526217,3.196607,-1.922457
112,2188576606,0.305957,-0.208983,0.644032,-0.669284,-4.176221,2.874550,-2.310886
113,2188609940,0.339918,-0.231150,0.628529,-0.660287,-4.445939,1.228177,-2.136123
114,2188643274,0.366908,-0.245680,0.618225,-0.650245,-4.200605,-0.018770,-2.011544
115,2188676608,0.385967,-0.253543,0.616692,-0.637525,-3.875668,-0.968826,-2.322280
116,2188709942,0.397539,-0.261394,0.620232,-0.623659,-3.785025,-1.118247,-1.329688
117,2188743276,0.408541,-0.271984,0.620995,-0.611136,-1.512361,-1.393919,-0.721028
118,2188776610,0.420715,-0.286061,0.618684,-0.598666,0.464454,-1.330544,0.608106
119,2188809944,0.427939,-0.295827,0.616547,-0.590954,2.306462,-1.954719,1.419976
120,2188843278,0.435991,-0.307975,0.610127,-0.585500,1.841252,-2.705669,1.099618
121,2188876612,0.443275,-0.318115,0.607640,-0.577135,0.964157,-1.626539,0.333805
122,2188909946,0.447867,-0.325118,0.609147,-0.568028,-1.497889,0.195610,-1.842650
123,2188943280,0.439501,-0.329160,0.622020,-0.558198,-6.407256,-2.739272,-0.841203
124,2188976614,0.423853,-0.337770,0.631880,-0.554066,3.874928,-2.144734,6.371180
125,2189009948,0.430382,-0.353961,0.624769,-0.546945,2.639319,-1.655699,2.796712
126,2189043282,0.420107,-0.357576,0.639352,-0.535612,-3.611537,-0.325282,-1.411651
127,2189076616,0.401354,-0.346205,0.659485,-0.533047,-3.826112,1.219004,-2.938613
128,2189109950,0.388183,-0.341044,0.673508,-0.528575,-0.935918,1.230162,-0.604810
129,2189143284,0.374435,-0.338598,0.688332,-0.520913,-2.042806,-0.216158,0.162115
130,2189176618,0.355120,-0.334439,0.704775,-0.515107,-1.166336,1.277301,0.188739
131,2189209952,0.332536,-0.327188,0.723493,-0.508848,-1.830142,1.981488,-0.146139
132,2189243286,0.306083,-0.317049,0.743420,-0.503112,-0.651318,1.401782,-0.298834
133,2189276620,0.286169,-0.308686,0.758209,-0.497936,1.879548,0.099972,0.478985
134,2189309954,0.274345,-0.302302,0.766481,-0.495839,2.120258,-0.710548,0.757911
135,2189343288,0.266032,-0.298150,0.771809,-0.494617,0.687915,0.415189,-0.016478
136,2189376622,0.255512,-0.292943,0.778036,-0.493518,-0.404056,0.975473,-0.208445
137,2189409956,0.244429,-0.286335,0.784256,-0.493164,0.466564,-0.327209,0.001142
138,2189443290,0.232581,-0.278953,0.790234,-0.493582,0.440320,-0.536702,0.184754
139,2189476624,0.221230,-0.274425,0.794823,-0.493970,1.006185,0.428329,0.021772
140,2189509958,0.209457,-0.272962,0.798775,-0.493538,0.492914,0.680173,0.156103
141,2189543292,0.195560,-0.271846,0.803536,-0.492126,0.525636,-0.566544,0.574667
142,2189576626,0.179566,-0.270268,0.808151,-0.491533,1.825570,-0.593204,-0.022816
143,2189609960,0.162671,-0.266380,0.812292,-0.492710,3.607092,-0.467100,0.056042
144,2189643294,0.150093,-0.260928,0.814000,-0.496784,5.023257,-1.100233,0.421882
145,2189676628,0.145936,-0.256823,0.811370,-0.504406,5.788501,-2.122906,1.375347
146,2189709962,0.153769,-0.258168,0.800038,-0.519274,6.019843,-5.764944,1.620992
147,2189743296,0.168140,-0.262953,0.773619,-0.551453,4.835855,-3.104824,1.103258
148,2189776630,0.173274,-0.254130,0.751341,-0.583851,2.002760,5.077433,2.639348
149,2189809964,0.192937,-0.245380,0.730621,-0.607255,-1.368059,4.566194,2.800289
150,2189843298,0.221641,-0.240582,0.708159,-0.625705,-1.614799,1.910814,0.146730
151,2189876632,0.247852,-0.235887,0.689510,-0.638361,-1.479003,2.383792,-0.246043
152,2189909966,0.274788,-0.233954,0.672922,-0.645705,-2.306634,2.743865,0.224622
153,2189943300,0.303737,-0.234856,0.659404,-0.646354,-2.665441,2.242292,-0.771102
154,2189976634,0.332308,-0.243273,0.645881,-0.642829,-3.306209,1.672167,-1.187273
155,2190009968,0.360998,-0.258519,0.631624,-0.635532,-5.089818,1.036785,-1.863771
156,2190043302,0.385045,-0.270041,0.620051,-0.627979,-5.139410,0.560990,-2.367948
157,2190076636,0.402193,-0.275455,0.615341,-0.619454,-4.222346,-0.260835,-2.090049
158,2190109970,0.415177,-0.281263,0.614698,-0.608824,-3.331973,-0.962156,-2.389112
159,2190143304,0.426738,-0.289807,0.613405,-0.598033,-1.480964,-0.705656,-0.509648
160,2190176638,0.434293,-0.296576,0.612312,-0.590346,0.747046,-2.747277,-0.327221
161,2190209972,0.440852,-0.305695,0.609833,-0.583358,1.569625,-1.623005,0.539298
162,2190243306,0.447567,-0.317005,0.606365,-0.575773,0.333792,-1.462537,0.302600
163,2190276640,0.452961,-0.328642,0.604281,-0.567157,0.504788,-0.490431,-0.130694
164,2190309974,0.454201,-0.335960,0.606691,-0.559249,-1.080682,0.072704,-0.951045
165,2190343308,0.442467,-0.340317,0.619401,-0.552043,-5.347638,-3.462205,0.928668
166,2190376642,0.433752,-0.344975,0.624056,-0.550825,5.040768,-0.680727,5.241812
167,2190409976,0.440518,-0.358967,0.623304,-0.537197,-0.297732,-1.610648,1.644761
168,2190443310,0.427365,-0.357725,0.636324,-0.533372,0.033999,-3.390379,0.040191
169,2190476644,0.410885,-0.348317,0.651194,-0.534600,-2.865423,0.338464,-2.100976
170,2190509978,0.397673,-0.337042,0.664719,-0.535172,-2.012478,1.255778,-1.231728
171,2190543312,0.380519,-0.327980,0.680733,-0.533141,-1.055712,2.008964,0.615952
172,2190576646,0.368263,-0.323215,0.691327,-0.531021,0.245646,2.042479,0.486637
173,2190609980,0.358163,-0.317870,0.701558,-0.527727,-0.569541,1.257001,-0.183427
174,2190643314,0.343420,-0.307615,0.715849,-0.524403,-0.607723,0.975741,-0.433861
175,2190676648,0.326702,-0.295666,0.731440,-0.520426,-1.097968,0.506812,-0.192715
176,2190709982,0.313476,-0.288248,0.744030,-0.514847,-1.743831,-0.165465,-0.156404
177,2190743316,0.301895,-0.286132,0.752928,-0.509990,-0.877816,-0.491619,0.388406
178,2190776650,0.288858,-0.283611,0.760650,-0.507484,-0.083096,-0.102675,0.187925
179,2190809984,0.272953,-0.276716,0.768847,-0.507741,-0.021770,-0.308539,-0.010031
180,2190843318,0.253779,-0.266745,0.777452,-0.509916,1.094323,0.155505,0.255612
181,2190876652,0.237667,-0.258968,0.784175,-0.511392,1.321133,1.567550,0.069736
182,2190909986,0.224582,-0.255258,0.788983,-0.511776,0.905821,0.751995,-0.124158
183,2190943320,0.213093,-0.255581,0.792772,-0.510670,0.051271,0.245639,0.174402
184,2190976654,0.199779,-0.256830,0.797274,-0.508412,0.514116,0.043130,0.171796
185,2191009988,0.183882,-0.255930,0.802172,-0.507159,2.004198,0.073338,0.002435
186,2191043322,0.167220,-0.251534,0.806557,-0.508169,2.868707,-0.327333,0.273413
187,2191076656,0.152871,-0.246626,0.809045,-0.511130,3.305644,-1.261682,0.381681
188,2191109990,0.141627,-0.244382,0.808936,-0.515600,4.877576,-1.086791,0.869046
189,2191143324,0.140142,-0.247155,0.803890,-0.522529,7.354616,-1.333303,0.895150
190,2191176658,0.155859,-0.253511,0.787310,-0.539986,7.757748,-4.708833,1.598585
191,2191209992,0.175302,-0.257654,0.762234,-0.567349,3.155281,-1.502546,1.791545
192,2191243326,0.188536,-0.252265,0.740147,-0.594139,-0.542489,2.889475,1.760529
193,2191276660,0.207584,-0.244196,0.719455,-0.616168,-2.995648,2.348410,2.217891
194,2191309994,0.230539,-0.241054,0.698394,-0.633239,-1.873935,2.259857,0.621662
195,2191343328,0.253219,-0.240221,0.680509,-0.644269,-2.392504,2.210927,0.427593
196,2191376662,0.275433,-0.238402,0.667998,-0.648907,-2.557806,3.449254,-0.578673
197,2191409996,0.299422,-0.239899,0.657471,-0.648482,-2.024940,2.684419,-1.137947
198,2191443330,0.327340,-0.250146,0.646655,-0.641962,-3.648102,2.438450,-1.219704
199,2191476664,0.354993,-0.263059,0.635415,-0.633270,-3.667201,0.843549,-1.782993
200,2191509998,0.379480,-0.272609,0.626146,-0.624197,-3.094378,-0.213864,-1.042307
201,2191543332,0.400461,-0.280391,0.619481,-0.614212,-2.848381,-1.674993,-1.096006
202,2191576666,0.415085,-0.286422,0.616516,-0.604630,-2.268361,-2.742568,-0.823915
203,2191610000,0.426789,-0.291880,0.613739,-0.596643,-1.322383,-1.823856,-0.840230
204,2191643334,0.436624,-0.297982,0.613413,-0.586765,-0.386519,-1.160196,-1.099077
205,2191676668,0.443947,-0.306022,0.612716,-0.577791,0.498284,-0.024774,-0.807248
206,2191710002,0.446052,-0.316382,0.612442,-0.570839,-0.385711,-1.339031,-0.679280
207,2191743336,0.446386,-0.328815,0.611159,-0.564896,0.659042,-1.778903,-0.452880
208,2191776670,0.446598,-0.340821,0.611756,-0.556909,-2.322742,-0.724975,-0.988827
209,2191810004,0.429470,-0.344075,0.628076,-0.550173,-3.818865,-2.740057,2.763442
210,2191843338,0.424829,-0.353106,0.633404,-0.541883,4.064798,-0.508923,5.893663
211,2191876672,0.420489,-0.353427,0.640304,-0.536927,0.897290,-1.611502,1.308613
212,2191910006,0.404077,-0.347989,0.655477,-0.534769,-2.235955,-2.449179,-0.664178
213,2191943340,0.384364,-0.335280,0.672920,-0.535754,-1.261985,0.636695,-1.924450
214,2191976674,0.368444,-0.323473,0.688122,-0.534887,-2.137168,1.466888,-0.457211
215,2192010008,0.351500,-0.311831,0.703418,-0.533305,-0.870571,0.239805,-0.240894
216,2192043342,0.336468,-0.303919,0.716174,-0.530584,-1.077043,1.139422,0.419936
217,2192076676,0.321739,-0.296413,0.727206,-0.528958,-0.389959,1.689418,0.452982
218,2192110010,0.305757,-0.285154,0.739997,-0.526883,-0.218813,1.783221,0.332408
219,2192143344,0.289106,-0.271233,0.752693,-0.525648,-0.123432,0.363406,-0.241156
220,2192176678,0.270648,-0.256054,0.764722,-0.525727,-0.138297,-0.503892,-0.086854
221,2192210012,0.257725,-0.245965,0.773554,-0.524113,-1.286436,1.576337,0.212118
222,2192243346,0.245953,-0.239905,0.781533,-0.520731,-1.949720,1.711015,-0.599834
223,2192276680,0.230946,-0.234625,0.790426,-0.516568,-1.596381,0.594179,-0.333813
224,2192310014,0.216051,-0.229914,0.798668,-0.512438,0.103493,-0.282046,0.435429
225,2192343348,0.200195,-0.222181,0.806353,-0.510249,1.806649,-0.990641,0.394915
226,2192376682,0.184941,-0.212735,0.812193,-0.510770,2.448532,-1.194694,0.292598
227,2192410016,0.170577,-0.204244,0.816107,-0.512991,1.660373,-0.474185,0.445627
228,2192443350,0.157897,-0.198270,0.818812,-0.515079,1.552022,-0.104313,0.040539
229,2192476684,0.146551,-0.192650,0.820785,-0.517419,1.237217,-0.034384,-0.159357
230,2192510018,0.132154,-0.184864,0.823751,-0.519419,0.933778,-0.421941,0.120048
231,2192543352,0.116616,-0.176586,0.826452,-0.521725,1.759443,-1.147983,-0.196692
232,2192576686,0.104922,-0.170642,0.827042,-0.525239,3.812383,-1.630747,-0.172728
233,2192610020,0.099565,-0.166247,0.825394,-0.530259,4.218403,-1.607042,0.619927
234,2192643354,0.101357,-0.166077,0.818105,-0.541157,3.253149,-3.482984,0.749178
235,2192676688,0.108733,-0.168157,0.801683,-0.563210,3.165272,-6.300836,2.890179
236,2192710022,0.111588,-0.165530,0.779700,-0.593479,0.905733,-0.899283,3.065471
237,2192743356,0.110459,-0.156405,0.759003,-0.622297,-0.686630,3.597203,1.729854
238,2192776690,0.116262,-0.149660,0.739349,-0.646103,-0.371247,3.747589,0.431645
239,2192810024,0.129800,-0.149994,0.722261,-0.662567,-0.646261,2.823017,-0.088964
240,2192843358,0.145047,-0.153171,0.709276,-0.672629,-2.196966,2.743710,-0.680275
241,2192876692,0.159874,-0.154997,0.698547,-0.680037,-1.817159,2.473485,-0.613282
242,2192910026,0.175241,-0.156130,0.690919,-0.683774,-1.423907,2.274115,-1.237069
243,2192943360,0.193972,-0.160747,0.685475,-0.683126,-1.303956,2.934275,-0.576650
244,2192976694,0.216511,-0.167342,0.679336,-0.680900,-0.931183,2.311351,-0.153596
245,2193010028,0.240758,-0.173330,0.672013,-0.678522,-0.724279,1.269396,0.014589
246,2193043362,0.266200,-0.180516,0.665589,-0.673457,-1.668885,0.831861,-0.299129
247,2193076696,0.290529,-0.189409,0.660568,-0.665859,-2.033382,0.449885,-0.759660
248,2193110030,0.310419,-0.197658,0.657084,-0.657886,-1.466555,-0.126307,-0.589240
249,2193143364,0.330688,-0.208687,0.653474,-0.648127,-1.713624,0.462677,-1.095896
250,2193176698,0.349859,-0.221561,0.650643,-0.636533,-1.768847,-0.525345,-1.494223
251,2193210032,0.361718,-0.235346,0.649434,-0.626107,-0.583109,-2.047197,-1.634088
252,2193243366,0.370227,-0.253055,0.648359,-0.615246,-0.320796,-1.791789,-0.253204
253,2193276700,0.377874,-0.272062,0.646004,-0.604876,0.344061,-1.614729,-0.742526
254,2193310034,0.384521,-0.289835,0.646888,-0.591336,-2.538971,-0.615113,-1.237273
255,2193343368,0.375489,-0.298165,0.658906,-0.579612,-4.307881,-3.281977,1.400111
256,2193376702,0.370914,-0.307711,0.664035,-0.571661,2.036547,-2.235049,4.334937
257,2193410036,0.359791,-0.308062,0.675160,-0.565517,-1.807309,-0.030826,2.534843
258,2193443370,0.341884,-0.301925,0.691513,-0.560150,-3.096192,0.771296,-1.529234
259,2193476704,0.325931,-0.293910,0.703861,-0.558540,1.137692,1.196411,-1.059308
260,2193510038,0.310109,-0.285737,0.716269,-0.556010,0.073091,-0.665916,0.291306
261,2193543372,0.299418,-0.281190,0.726451,-0.550956,-0.890799,0.553725,0.059449
262,2193576706,0.290124,-0.279054,0.735242,-0.545324,-0.384400,2.212279,0.395581
263,2193610040,0.279872,-0.276816,0.744774,-0.538850,0.088035,2.646285,0.497147
264,2193643374,0.272626,-0.274597,0.753374,-0.531696,0.488657,1.528181,0.262537
265,2193676708,0.264843,-0.268761,0.761204,-0.527443,0.443104,-1.616921,0.253932
266,2193710042,0.257250,-0.261134,0.767613,-0.525742,0.419039,-1.993666,0.616218
267,2193743376,0.253200,-0.256155,0.770557,-0.525850,-0.188440,0.585368,-0.071586
268,2193776710,0.248121,-0.252155,0.773722,-0.525557,-0.382116,1.292088,-0.309023
269,2193810044,0.242457,-0.249118,0.777733,-0.523725,-0.922778,1.055368,-0.356655
270,2193843378,0.234784,-0.246465,0.782306,-0.521661,-0.332488,-0.057087,0.107009
271,2193876712,0.226780,-0.245808,0.786356,-0.519419,0.368592,-0.335685,0.303703
272,2193910046,0.219246,-0.246744,0.789791,-0.516991,0.962947,-0.470595,0.104564
273,2193943380,0.209904,-0.246615,0.793846,-0.514716,1.420678,-0.638631,0.064986
274,2193976714,0.198772,-0.244681,0.797801,-0.513941,1.841940,-0.756852,0.221526
275,2194010048,0.189818,-0.242876,0.799998,-0.514768,2.677618,0.543990,-0.606002
276,2194043382,0.181179,-0.239597,0.802045,-0.516230,2.419729,0.382935,-0.159672
277,2194076716,0.172961,-0.236460,0.804000,-0.517452,1.550051,-0.263667,0.573202
278,2194110050,0.165705,-0.235230,0.804960,-0.518894,1.094777,0.839255,0.575253
279,2194143384,0.160435,-0.233202,0.805361,-0.520839,0.403476,-0.539107,1.724897
280,2194176718,0.156609,-0.230481,0.802697,-0.527287,0.687328,-2.560221,2.634424
281,2194210052,0.154540,-0.230672,0.794071,-0.540704,1.945783,-3.933177,0.609094
282,2194243386,0.158312,-0.233069,0.777243,-0.562594,2.899514,-3.626433,-0.654552
283,2194276720,0.161530,-0.234569,0.757650,-0.587243,1.374879,-0.846299,0.710781
284,2194310054,0.165797,-0.232529,0.738936,-0.610259,0.349879,2.901470,1.233332
285,2194343388,0.179230,-0.233619,0.719874,-0.628556,-0.475142,2.945899,0.272316
286,2194376722,0.197839,-0.237651,0.701975,-0.641572,-1.414599,3.099150,0.106723
287,2194410056,0.213437,-0.241560,0.687274,-0.650960,-2.953732,2.118277,0.594427
288,2194443390,0.225082,-0.244093,0.676082,-0.657778,-2.823200,1.706428,-0.777423
289,2194476724,0.235805,-0.247550,0.668812,-0.660157,-2.147069,1.536373,-1.576725
290,2194510058,0.247716,-0.254536,0.662703,-0.659299,-2.399968,1.513980,-1.451163
291,2194543392,0.260406,-0.262074,0.656507,-0.657652,-1.641394,0.753860,-1.004507
292,2194576726,0.274257,-0.268881,0.650382,-0.655356,-0.704513,0.818379,-0.355033
293,2194610060,0.290770,-0.274467,0.644404,-0.651817,-0.102782,0.648578,0.318497
294,2194643394,0.307865,-0.280590,0.636087,-0.649526,-0.238669,-0.478914,0.101202
295,2194676728,0.322378,-0.289268,0.628722,-0.645838,-1.069249,-0.677744,-0.466452
296,2194710062,0.334205,-0.297876,0.623072,-0.641373,-0.421839,-0.512619,-0.282748
297,2194743396,0.347792,-0.307339,0.615772,-0.636719,0.592335,-0.436917,0.368980
298,2194776730,0.362615,-0.317816,0.608679,-0.630091,-0.160268,-0.422482,-0.214790
299,2194810064,0.372872,-0.325371,0.604015,-0.624714,-0.321685,-0.578706,-0.726514
300,2194843398,0.379627,-0.332874,0.601802,-0.618801,0.097019,-0.407752,-0.708462
301,2194876732,0.385352,-0.341839,0.601442,-0.610671,-0.454078,-0.048114,-0.589755
302,2194910066,0.391134,-0.351916,0.601671,-0.600969,0.123684,0.228180,-0.452828
303,2194943400,0.397410,-0.363658,0.602630,-0.588775,-1.493703,0.760232,-0.846693
304,2194976734,0.393154,-0.376254,0.612052,-0.573809,-2.323905,-1.729110,1.842544
305,2195010068,0.409584,-0.397510,0.601748,-0.558684,3.176291,-1.633639,2.834688
306,2195043402,0.410537,-0.407508,0.602999,-0.549354,-0.238082,-4.424551,2.727421
307,2195076736,0.399599,-0.410802,0.615616,-0.540908,-3.685400,-1.686323,0.807434
308,2195110070,0.387116,-0.408721,0.629683,-0.535341,-0.910832,2.606422,-1.899062
309,2195143404,0.386161,-0.411381,0.635013,-0.527642,-1.140663,1.502376,-0.804420
310,2195176738,0.382935,-0.413881,0.641346,-0.520327,-1.179691,0.249009,-0.303369
311,2195210072,0.382850,-0.421334,0.645759,-0.508823,-1.040934,0.405960,-0.053634
312,2195243406,0.379518,-0.428816,0.651057,-0.498207,-0.830883,0.909702,0.038553
313,2195276740,0.374797,-0.436278,0.655986,-0.488746,-0.122372,0.502697,0.229416
314,2195310074,0.373146,-0.446162,0.658316,-0.477832,0.221933,1.234376,0.229532
315,2195343408,0.371204,-0.453552,0.660792,-0.468886,0.857505,0.534373,0.575277
316,2195376742,0.369060,-0.458968,0.663080,-0.462028,0.794133,0.221747,0.250042
317,2195410076,0.367478,-0.463202,0.664829,-0.456518,0.140235,0.966061,0.454338
318,2195443410,0.367347,-0.466146,0.665738,-0.452282,0.355748,1.087340,0.307869
319,2195476744,0.369451,-0.470746,0.664678,-0.447337,-0.173832,1.254572,-0.183418
320,2195510078,0.372471,-0.476723,0.662606,-0.441537,-0.674725,1.045389,-0.059791
321,2195543412,0.375952,-0.483332,0.660281,-0.434835,-0.742560,-0.021776,0.095078
322,2195576746,0.377144,-0.489759,0.658877,-0.428697,-1.227971,-0.238343,-0.252254
323,2195610080,0.377514,-0.496528,0.657842,-0.422125,-1.203650,0.195699,-0.109713
324,2195643414,0.376180,-0.502248,0.657992,-0.416273,-0.670668,0.044910,0.259716
325,2195676748,0.374388,-0.506992,0.658637,-0.411085,0.398213,-0.275654,0.164415
326,2195710082,0.370523,-0.509503,0.660541,-0.408421,1.224868,-0.181570,0.355701
327,2195743416,0.366725,-0.510605,0.662232,-0.407733,1.845132,0.103873,0.454147
328,2195776750,0.365083,-0.510397,0.662594,-0.408877,2.160426,0.284268,0.454690
329,2195810084,0.365222,-0.509504,0.661544,-0.411558,0.933856,0.837478,0.152584
330,2195843418,0.365711,-0.508389,0.660177,-0.414686,-0.407446,1.385783,-0.178432
331,2195876752,0.364561,-0.506892,0.660032,-0.417750,-0.500351,0.930242,-0.277617
332,2195910086,0.361338,-0.506591,0.660322,-0.420449,-0.706035,0.806094,0.092443
333,2195943420,0.356586,-0.507685,0.660746,-0.422516,-0.873755,1.023036,0.155059
334,2195976754,0.350596,-0.509549,0.661836,-0.423577,-0.758565,1.350924,-0.054543
335,2196010088,0.345433,-0.512365,0.662144,-0.423940,-0.418039,1.478896,0.584128
336,2196043422,0.344442,-0.517737,0.659430,-0.422448,-0.492819,0.174155,0.933022
337,2196076756,0.343691,-0.524021,0.655195,-0.421900,0.088525,-0.409971,0.429430
338,2196110090,0.342954,-0.530349,0.650123,-0.422439,1.280408,0.114043,0.793534
339,2196143424,0.343253,-0.535787,0.643721,-0.425129,2.916976,0.625968,0.853493
340,2196176758,0.348396,-0.542521,0.632851,-0.428711,2.583435,1.147965,0.384180
341,2196210092,0.359616,-0.549812,0.616923,-0.433349,3.071147,1.573609,0.272467
342,2196243426,0.379704,-0.556970,0.592893,-0.440556,4.367553,0.141034,0.400783
343,2196276760,0.406803,-0.562923,0.560274,-0.451357,2.654558,-0.227911,0.926077
344,2196310094,0.426702,-0.564830,0.533747,-0.462609,-0.378159,2.686141,0.658996
345,2196343428,0.442840,-0.561489,0.515451,-0.472159,-2.887558,3.805827,-0.031469
346,2196376762,0.464093,-0.560239,0.498660,-0.471264,-3.365642,3.371461,-0.381683
347,2196410096,0.488400,-0.563733,0.479839,-0.461981,-3.641773,2.297249,-0.389069
348,2196443430,0.511579,-0.570745,0.460915,-0.447322,-4.138336,0.687065,-0.263567
349,2196476764,0.532901,-0.580441,0.442103,-0.428546,-3.210136,0.028654,-0.938709
350,2196510098,0.551914,-0.591618,0.423475,-0.407493,-2.157382,-0.609875,-0.892138
351,2196543432,0.569650,-0.603289,0.404611,-0.384490,-1.903941,-0.828132,-0.539330
352,2196576766,0.587063,-0.614415,0.385613,-0.359381,-1.589708,-0.385185,-0.179823
353,2196610100,0.604471,-0.625696,0.365484,-0.330971,-1.462523,-0.770025,0.082850
354,2196643434,0.620212,-0.635719,0.345442,-0.303101,-0.716443,-1.444992,0.239266
355,2196676768,0.634833,-0.645075,0.322898,-0.276773,0.165624,-1.381803,0.612124
356,2196710102,0.649760,-0.654689,0.295232,-0.249067,0.661480,-1.168517,0.436581
357,2196743436,0.662867,-0.663448,0.266093,-0.222802,0.985400,-1.054560,0.219617
358,2196776770,0.673501,-0.671706,0.236998,-0.197589,0.984402,-0.940219,0.100919
359,2196810104,0.684883,-0.676587,0.207867,-0.173086,0.413453,0.013820,0.101293
360,2196843438,0.694878,-0.680687,0.179559,-0.146869,-0.069993,-0.544189,-0.438398
361,2196876772,0.700024,-0.686026,0.155780,-0.122753,0.269614,-0.614040,-1.048223
362,2196910106,0.700493,-0.691924,0.139773,-0.104956,0.037276,-0.630759,-1.749022
363,2196943440,0.696759,-0.700651,0.126948,-0.086607,-0.140024,-1.182430,-1.541491
364,2196976774,0.689750,-0.710516,0.119421,-0.071786,0.353153,-2.142769,-1.050745
365,2197010108,0.679052,-0.722219,0.114649,-0.064386,2.153402,-1.614721,1.922248
366,2197043442,0.673126,-0.730188,0.103263,-0.055363,2.435606,2.846945,3.796636
367,2197076776,0.664850,-0.738898,0.097798,-0.049414,1.114711,0.962445,1.256925
368,2197110110,0.655022,-0.747552,0.099345,-0.047373,-1.360590,-1.984644,0.196041
369,2197143444,0.646661,-0.753119,0.107873,-0.054836,-1.163193,-1.054573,-1.459130
370,2197176778,0.638541,-0.759753,0.109468,-0.055304,-1.931914,0.233949,0.250076
371,2197210112,0.631932,-0.766759,0.102583,-0.047142,-1.434596,-0.991835,0.747025
372,2197243446,0.626916,-0.772528,0.093904,-0.036899,-1.217944,-0.273774,0.125023
373,2197276780,0.619924,-0.779369,0.086751,-0.027460,-1.517039,-0.919612,-0.083009
374,2197310114,0.612249,-0.786286,0.081111,-0.018108,-1.616435,-0.870122,0.195300
375,2197343448,0.607619,-0.790784,0.073695,-0.005546,-0.754172,0.375697,0.028044
376,2197376782,0.605545,-0.793016,0.066383,0.005943,0.352705,0.417708,0.251107
377,2197410116,0.605433,-0.793291,0.062830,0.013951,-0.032683,-0.990438,-0.173386
378,2197443450,0.603663,-0.794671,0.060886,0.019606,0.639565,-1.543173,-0.403357
379,2197476784,0.600146,-0.797440,0.057930,0.023653,0.821409,-1.552870,0.097119
380,2197510118,0.595473,-0.801164,0.052906,0.027404,0.677406,-0.976226,0.225603
381,2197543452,0.589736,-0.805622,0.047121,0.031086,0.640154,-0.651581,0.220283
382,2197576786,0.582870,-0.810793,0.043031,0.032037,0.979875,-0.394017,0.174920
383,2197610120,0.575775,-0.816022,0.040869,0.030370,-0.065315,-0.287101,0.101305
384,2197643454,0.568433,-0.821302,0.039623,0.027916,-0.383327,-0.330783,0.053366
385,2197676788,0.561466,-0.826219,0.038686,0.024972,-0.271744,-0.476240,0.102292
386,2197710122,0.554305,-0.831194,0.037106,0.022071,0.222624,-0.110802,-0.143654
387,2197743456,0.545947,-0.836869,0.036104,0.017039,-0.307025,-0.035335,0.080253
388,2197776790,0.538264,-0.841987,0.034225,0.012629,-1.103534,0.736219,-0.136212
389,2197810124,0.531917,-0.846153,0.031620,0.009494,-1.143620,1.605545,0.396141
390,2197843458,0.527381,-0.849074,0.030431,0.004309,-0.837232,1.995373,0.245396
391,2197876792,0.525097,-0.850572,0.028324,0.000138,-1.317621,1.372277,0.077126
392,2197910126,0.523452,-0.851680,0.024916,-0.004462,-1.859370,0.462356,0.247273
393,2197943460,0.520874,-0.853339,0.020477,-0.009182,-1.830785,0.682945,0.197927
394,2197976794,0.518979,-0.854590,0.014510,-0.011302,-1.410617,0.051056,0.089373
395,2198010128,0.517760,-0.855366,0.008678,-0.014128,-0.632972,0.365869,-0.081817
396,2198043462,0.515877,-0.856410,0.005959,-0.019961,-0.506982,0.703527,0.466496
397,2198076796,0.516234,-0.856053,0.003801,-0.025765,-1.026905,1.859964,0.546032
398,2198110130,0.520301,-0.853440,0.000829,-0.030470,-2.097073,3.100444,1.119893
399,2198143464,0.528887,-0.848113,-0.004317,-0.031075,-2.098790,3.085002,2.349395
400,2198176798,0.544172,-0.838405,-0.014909,-0.027074,-0.964859,4.113086,1.613240
401,2198210132,0.570221,-0.820605,-0.034393,-0.016557,-0.473873,7.678692,0.242597
402,2198243466,0.602701,-0.796014,-0.055314,-0.007454,-1.894696,4.639253,-0.064522
403,2198276800,0.633339,-0.771414,-0.061385,-0.005906,-3.760245,-1.966653,0.360287
404,2198310134,0.656789,-0.751845,-0.057955,-0.000022,-3.216225,-4.704418,0.747772
405,2198343468,0.674837,-0.735229,-0.060062,0.020684,-1.974597,-4.386173,-0.402473
406,2198376802,0.689091,-0.719780,-0.068910,0.048201,-1.452544,-4.750040,-0.307690
407,2198410136,0.698693,-0.706575,-0.080666,0.077942,-1.046069,-4.747310,-0.555826
408,2198443470,0.701567,-0.697418,-0.095328,0.111025,0.393115,-4.350568,-1.170479
409,2198476804,0.699020,-0.690156,-0.115225,0.147584,1.752760,-3.081803,-1.304254
410,2198510138,0.693349,-0.683660,-0.135821,0.182838,2.379519,-1.974923,-0.620633
411,2198543472,0.686010,-0.679349,-0.149764,0.213184,2.611700,-0.607007,-0.550085
412,2198576806,0.678689,-0.676984,-0.157274,0.237362,2.828656,0.378957,-0.611560
413,2198610140,0.670783,-0.674402,-0.167225,0.259363,2.578217,0.378325,-0.356874
414,2198643474,0.662703,-0.669312,-0.181430,0.282721,1.276729,0.576916,-0.270245
415,2198676808,0.653480,-0.664243,-0.196002,0.305499,1.222944,0.539771,-0.910820
416,2198710142,0.642966,-0.662282,-0.208857,0.323042,1.522416,0.296327,-0.342230
417,2198743476,0.635220,-0.661288,-0.218539,0.333820,0.880749,1.978943,-0.319099
418,2198776810,0.628395,-0.657925,-0.231860,0.344235,0.173434,2.170484,-0.402836
419,2198810144,0.618910,-0.656397,-0.245607,0.354644,-0.110382,0.794657,-0.284926
420,2198843478,0.609521,-0.659201,-0.254245,0.359581,1.752841,-0.361879,-1.090178
421,2198876812,0.600259,-0.670833,-0.257786,0.351027,5.199165,1.730020,0.767792
422,2198910146,0.594125,-0.675043,-0.266649,0.346745,-2.324474,2.484968,4.050023
423,2198943480,0.587445,-0.678218,-0.274102,0.346118,-0.164389,1.954367,1.708995
424,2198976814,0.579157,-0.691116,-0.273125,0.335172,2.356143,0.964645,-0.512033
425,2199010148,0.576665,-0.705847,-0.262901,0.316422,0.813493,-0.228639,-0.854544
426,2199043482,0.572965,-0.718383,-0.254988,0.301031,0.770136,-1.349577,-0.898534
427,2199076816,0.564777,-0.730080,-0.252794,0.290012,0.875116,-1.487491,-0.696631
428,2199110150,0.554925,-0.738626,-0.257257,0.283390,1.650203,-1.574948,0.866306
429,2199143484,0.546159,-0.747905,-0.260750,0.272689,1.293424,-1.806317,0.356147
430,2199176818,0.537494,-0.758404,-0.260191,0.261199,-0.636680,-1.667632,0.748548
431,2199210152,0.531975,-0.767566,-0.253414,0.252246,-2.563033,0.354494,-0.184745
432,2199243486,0.529520,-0.777075,-0.239647,0.241522,-2.029891,1.383434,1.003266
433,2199276820,0.529350,-0.782512,-0.227648,0.235885,-0.706672,-0.285548,0.613861
434,2199310154,0.530055,-0.783563,-0.222993,0.235256,0.092286,-0.167554,-0.446161
435,2199343488,0.529351,-0.785051,-0.221460,0.233320,1.812866,-1.151951,-0.586862
436,2199376822,0.527538,-0.789231,-0.217769,0.226709,1.509386,-0.850399,-0.444230
437,2199410156,0.525370,-0.794857,-0.212537,0.216839,0.100878,0.829485,0.429069
438,2199443490,0.523964,-0.799343,-0.208825,0.207137,-0.889149,0.763624,0.346825
439,2199476824,0.523099,-0.802202,-0.207491,0.199470,-1.843842,-0.016057,-0.100632
440,2199510158,0.521727,-0.804739,-0.207219,0.193023,-0.894381,-0.358666,0.257321
441,2199543492,0.520888,-0.807630,-0.205884,0.184454,-0.287127,0.224800,-0.038587
442,2199576826,0.520802,-0.810677,-0.202950,0.174299,-1.136713,-0.168803,-0.437138
443,2199610160,0.521493,-0.813976,-0.197687,0.162511,-1.095789,-0.065643,0.096747
444,2199643494,0.522173,-0.817352,-0.191894,0.149831,-0.596278,0.082464,-0.269190
445,2199676828,0.522455,-0.820589,-0.187076,0.136668,-1.710215,-0.024680,0.335940
446,2199710162,0.523753,-0.822004,-0.183989,0.127052,-2.179595,-0.167365,0.352666
447,2199743496,0.525545,-0.822591,-0.181475,0.119226,-1.492288,0.473145,1.000645
448,2199776830,0.529024,-0.821962,-0.178654,0.112233,-1.228590,1.726052,2.671109
449,2199810164,0.537048,-0.816989,-0.179541,0.108969,-1.888369,3.252816,2.215158
450,2199843498,0.553035,-0.805655,-0.182744,0.108066,-2.336748,4.545005,0.841734
451,2199876832,0.579075,-0.784904,-0.188757,0.113886,-2.755285,4.376071,-0.962931
452,2199910166,0.607217,-0.763578,-0.187451,0.114456,-1.642074,-0.558374,0.556653
453,2199943500,0.631340,-0.746033,-0.177765,0.115090,-0.005560,-3.823244,1.579222
454,2199976834,0.651465,-0.728962,-0.169764,0.124051,0.085091,-2.831047,-0.000389
455,2200010168,0.665997,-0.714169,-0.165211,0.138266,0.200814,-3.357495,0.164080
456,2200043502,0.674970,-0.701684,-0.165110,0.157468,0.926440,-3.144399,-0.263450
457,2200076836,0.678912,-0.691136,-0.169297,0.180970,1.023966,-2.999064,-0.863379
458,2200110170,0.677533,-0.682627,-0.179174,0.207045,1.624252,-2.122320,-1.286000
459,2200143504,0.672459,-0.674767,-0.192940,0.235083,2.206790,-1.479568,-1.559548
460,2200176838,0.666590,-0.668509,-0.202515,0.260274,2.169008,-0.683857,-0.777022
461,2200210172,0.660742,-0.664081,-0.207370,0.281809,2.336974,-0.181707,-0.646554
462,2200243506,0.653443,-0.663111,-0.210327,0.298430,1.740528,0.397116,0.054783
463,2200276840,0.646222,-0.662491,-0.214544,0.312210,0.606804,0.937336,-0.291925
464,2200310174,0.637945,-0.659979,-0.223759,0.327700,0.293586,1.216501,-0.174381
465,2200343508,0.628585,-0.655628,-0.236148,0.345353,0.626600,0.844922,-0.005652
466,2200376842,0.621050,-0.652365,-0.245624,0.358313,0.500920,1.648283,-0.372213
467,2200410176,0.616171,-0.648708,-0.254176,0.367297,0.204784,2.586194,-0.466396
468,2200443510,0.610776,-0.643993,-0.265708,0.376332,0.509241,2.133332,-0.517418
469,2200476844,0.604300,-0.642451,-0.276041,0.381944,-0.170499,0.708226,0.100781
470,2200510178,0.597096,-0.642000,-0.285913,0.386740,0.647419,-0.091338,-0.502527
471,2200543512,0.589758,-0.646296,-0.292784,0.385702,3.402518,0.473024,-1.568944
472,2200576846,0.584323,-0.661269,-0.294680,0.366681,4.386411,3.413818,2.515093
473,2200610180,0.576925,-0.663404,-0.307251,0.364212,-3.411399,2.615338,4.837759
474,2200643514,0.566814,-0.675012,-0.309548,0.356739,1.823789,0.234617,0.425049
475,2200676848,0.564493,-0.696565,-0.294713,0.330592,2.071299,-0.087464,-1.528143
476,2200710182,0.563231,-0.713458,-0.279959,0.308826,-0.756099,-2.193167,-0.922652
477,2200743516,0.558065,-0.725499,-0.272769,0.296334,0.549068,-1.559405,-0.172755
478,2200776850,0.550151,-0.736127,-0.271067,0.286313,1.077911,-1.546490,0.147069
479,2200810184,0.542808,-0.745988,-0.269703,0.275905,0.620596,-2.072298,0.457377
480,2200843518,0.535963,-0.755214,-0.266276,0.267384,-1.198887,-1.230807,0.710741
481,2200876852,0.530145,-0.764575,-0.258749,0.259657,-1.328304,-0.143721,0.337766
482,2200910186,0.528083,-0.773723,-0.246062,0.248870,-1.053958,2.604881,0.517564
483,2200943520,0.528517,-0.779356,-0.235492,0.240455,-0.422109,1.121736,0.263285
484,2200976854,0.529682,-0.781820,-0.229238,0.235894,0.158311,-1.472638,-0.339987
485,2201010188,0.529599,-0.785525,-0.223614,0.229071,1.038754,-1.966921,-0.789772
486,2201043522,0.526969,-0.790616,-0.219542,0.221435,1.007767,-1.099653,-0.600493
487,2201076856,0.523525,-0.796096,-0.216732,0.212561,-0.388138,0.666690,0.488093
488,2201110190,0.520769,-0.800927,-0.214457,0.203285,-0.924030,0.881296,0.431964
489,2201143524,0.518494,-0.804598,-0.213686,0.195259,-1.330020,0.036207,0.090924
490,2201176858,0.517190,-0.807094,-0.213760,0.188209,-0.891768,0.391924,0.159520
491,2201210192,0.516448,-0.809355,-0.213865,0.180247,-0.004824,0.447387,0.039067
492,2201243526,0.514862,-0.813173,-0.212538,0.168804,0.621800,-0.794569,-0.045127
493,2201276860,0.512919,-0.817780,-0.210143,0.154894,-0.345541,-0.411459,-0.110886
494,2201310194,0.510970,-0.821798,-0.208559,0.141639,-1.322745,-0.573915,0.311631
495,2201343528,0.509547,-0.824817,-0.208070,0.129410,-2.027960,0.394723,0.372579
496,2201376862,0.509247,-0.826553,-0.208663,0.118059,-3.063620,0.765837,0.709455
497,2201410196,0.511116,-0.826511,-0.209295,0.108798,-3.992135,1.212666,1.196817
498,2201443530,0.515979,-0.822689,-0.213123,0.107368,-5.046231,2.512219,1.246598
499,2201476864,0.526985,-0.813482,-0.218680,0.112755,-5.327321,3.617967,1.454150
500,2201510198,0.548678,-0.792816,-0.230450,0.131487,-6.037309,9.669589,-0.224598
501,2201543532,0.583909,-0.763450,-0.236434,0.142464,-2.701450,0.744776,0.876034
502,2201576866,0.616125,-0.741866,-0.221714,0.144460,-0.598279,-6.397686,1.854832
503,2201610200,0.634771,-0.723020,-0.214941,0.167660,0.758553,-4.694394,1.361094
504,2201643534,0.648397,-0.703053,-0.214604,0.198100,0.801985,-3.975481,-0.587714
505,2201676868,0.656041,-0.685458,-0.217946,0.228599,1.810019,-2.914167,-0.131734
506,2201710202,0.658460,-0.670573,-0.223470,0.258507,2.731054,-2.746327,-0.130716
507,2201743536,0.655114,-0.658073,-0.232235,0.289541,3.280638,-2.031508,-0.824331
508,2201776870,0.647974,-0.645738,-0.247004,0.319598,3.768730,-0.824041,-1.320709
509,2201810204,0.641039,-0.634819,-0.259512,0.344570,3.748894,0.414226,-1.567640
510,2201843538,0.634132,-0.627454,-0.265793,0.365423,2.677647,0.385728,-0.960323
511,2201876872,0.626034,-0.623729,-0.268829,0.383115,2.449836,0.482065,-0.648467
512,2201910206,0.616778,-0.620747,-0.275584,0.397887,2.169443,0.792311,-0.738430
513,2201943540,0.607312,-0.616761,-0.284617,0.412036,0.825959,0.585561,-1.033116
514,2201976874,0.596433,-0.614212,-0.294638,0.424501,1.354455,0.841819,-1.385509
515,2202010208,0.587015,-0.614788,-0.302889,0.430940,0.130870,1.688935,-0.661809
516,2202043542,0.579525,-0.614799,-0.312111,0.434466,-1.056608,2.279016,-0.079604
517,2202076876,0.571667,-0.613770,-0.323076,0.438300,-1.278288,1.369299,0.009169
518,2202110210,0.562862,-0.615553,-0.332202,0.440368,0.440226,-0.172490,-0.920074
519,2202143544,0.555867,-0.629609,-0.335101,0.426981,5.271172,2.938851,1.631344
520,2202176878,0.549509,-0.632152,-0.347631,0.421400,-3.722998,1.527381,5.763474
521,2202210212,0.544041,-0.634073,-0.353209,0.420970,-1.195608,0.918296,1.825703
522,2202243546,0.534063,-0.654513,-0.352557,0.402609,4.034305,0.329613,-1.804705
523,2202276880,0.529464,-0.672308,-0.347033,0.383718,1.672169,-1.538054,-1.574956
524,2202310214,0.522104,-0.681371,-0.349164,0.375802,0.562171,-0.441178,-0.641452
525,2202343548,0.511871,-0.693313,-0.351792,0.365445,3.304795,-0.136908,-0.684087
526,2202376882,0.503497,-0.708002,-0.351553,0.348763,1.889516,-1.755526,0.599665
527,2202410216,0.496838,-0.720542,-0.350062,0.333809,0.142870,-0.848035,0.998505
528,2202443550,0.493231,-0.733509,-0.343243,0.317607,-0.663730,0.630216,0.505608
529,2202476884,0.494655,-0.748489,-0.327499,0.296354,-1.711004,1.511486,0.190839
530,2202510218,0.497751,-0.759275,-0.311463,0.280602,-0.554949,-0.378234,0.594761
531,2202543552,0.502032,-0.766686,-0.297563,0.267610,0.624190,-0.931846,-0.211885
532,2202576886,0.505024,-0.773078,-0.286836,0.255006,1.182450,-1.182061,-0.532379
533,2202610220,0.506386,-0.779765,-0.277929,0.241447,1.570565,-0.934684,-0.202093
534,2202643554,0.506764,-0.787039,-0.269836,0.225720,0.768793,0.007626,-0.183228
535,2202676888,0.506683,-0.793109,-0.264413,0.210566,-0.610723,0.283122,0.186005
536,2202710222,0.506841,-0.797353,-0.261610,0.197236,-1.846088,-0.484923,0.142273
537,2202743556,0.506880,-0.800745,-0.260177,0.184904,-1.337435,-0.050910,0.487488
538,2202776890,0.507428,-0.804061,-0.258437,0.170924,-0.801567,0.605325,0.223757
539,2202810224,0.509152,-0.807344,-0.254979,0.154751,-2.367078,-0.553539,-0.337257
540,2202843558,0.512295,-0.809825,-0.249707,0.139230,-3.399636,0.108122,-0.312134
541,2202876892,0.517644,-0.810422,-0.243853,0.125686,-3.773698,1.003026,0.040265
542,2202910226,0.524564,-0.808378,-0.240182,0.116927,-5.287078,2.043300,0.811206
543,2202943560,0.536144,-0.800461,-0.240785,0.117626,-5.614257,3.050903,1.314502
544,2202976894,0.554226,-0.784597,-0.246237,0.128882,-5.755486,2.686261,2.568463
545,2203010228,0.577988,-0.763506,-0.249362,0.144250,-3.853533,-1.863572,2.531455
546,2203043562,0.599685,-0.742831,-0.249633,0.162066,0.695438,-2.596792,1.079243
547,2203076896,0.617561,-0.724230,-0.247533,0.181214,1.625905,-2.216995,0.361282
548,2203110230,0.630225,-0.708554,-0.246169,0.200422,1.140023,-1.778340,-0.093757
549,2203143564,0.637509,-0.695747,-0.246077,0.221283,2.418121,-1.770610,0.120199
550,2203176898,0.641941,-0.682797,-0.247636,0.245718,1.905426,-2.353180,0.350129
551,2203210232,0.641890,-0.670105,-0.252136,0.274527,2.150909,-2.100473,-0.057192
552,2203243566,0.638882,-0.656363,-0.260925,0.304855,3.161227,-1.501732,-0.047953
553,2203276900,0.634982,-0.641868,-0.270267,0.334307,3.367372,-0.644245,-0.877096
554,2203310234,0.630873,-0.628519,-0.277781,0.360281,2.723777,0.163941,-1.109515
555,2203343568,0.624672,-0.619161,-0.282973,0.382560,2.900851,0.421096,-1.138038
556,2203376902,0.617861,-0.614138,-0.285448,0.399503,2.706456,0.609977,-1.413042
557,2203410236,0.609527,-0.610244,-0.291911,0.413362,2.585064,0.365477,-1.995209
558,2203443570,0.599165,-0.605746,-0.301738,0.427819,1.429942,-0.406883,-1.292566
559,2203476904,0.587255,-0.601387,-0.312037,0.442832,1.380321,0.004755,-1.109560
560,2203510238,0.577071,-0.600210,-0.319624,0.452305,0.373322,1.073969,-0.631021
561,2203543572,0.571923,-0.600223,-0.324883,0.455070,-1.346182,2.936440,0.637577
562,2203576906,0.567699,-0.597716,-0.332847,0.457895,-2.113443,3.336518,1.163543
563,2203610240,0.559930,-0.591887,-0.343335,0.467194,-2.056144,1.305094,1.508615
564,2203643574,0.556027,-0.591869,-0.345385,0.470357,0.440181,1.134985,-1.759263
565,2203676908,0.550595,-0.602814,-0.344179,0.463685,5.362116,0.227404,-3.523806
566,2203710242,0.546195,-0.622360,-0.343864,0.442831,2.648222,2.054132,4.096641
567,2203743576,0.539683,-0.605754,-0.365546,0.456270,-6.054383,0.225978,6.590950
568,2203776910,0.537498,-0.619395,-0.362042,0.443139,-0.508604,1.629595,0.605611
569,2203810244,0.528219,-0.638149,-0.360371,0.428817,4.935101,1.086137,-1.414034
570,2203843578,0.528385,-0.655850,-0.350290,0.409839,1.871071,-2.210488,-2.026293
571,2203876912,0.523292,-0.666600,-0.347881,0.400986,-0.139413,-1.396667,-0.844951
572,2203910246,0.514304,-0.679041,-0.348292,0.391265,1.621926,-1.133812,0.042215
573,2203943580,0.506985,-0.688740,-0.349393,0.382793,0.840962,0.004326,0.657038
574,2203976914,0.500811,-0.698343,-0.349523,0.373283,1.205673,0.217655,-0.208960
575,2204010248,0.495664,-0.709762,-0.346514,0.361228,0.659386,-0.044594,0.437864
576,2204043582,0.493033,-0.720665,-0.340111,0.349122,-1.086252,-0.634585,0.214499
577,2204076916,0.492100,-0.731963,-0.330797,0.335624,-0.433831,0.119909,0.512687
578,2204110250,0.492218,-0.740434,-0.323061,0.324210,-0.368849,0.012636,0.089067
579,2204143584,0.492394,-0.745049,-0.318963,0.317355,0.415478,-0.731817,-0.271955
580,2204176918,0.492978,-0.751736,-0.313429,0.305989,2.050012,-0.250367,-0.155374
581,2204210252,0.492568,-0.759502,-0.308155,0.292534,1.231600,0.054625,-0.325420
582,2204243586,0.491487,-0.767672,-0.302706,0.278373,0.173449,-0.075066,0.037637
583,2204276920,0.492290,-0.774241,-0.297479,0.264024,-1.189356,0.275091,0.529549
584,2204310254,0.494480,-0.778679,-0.293076,0.251510,-1.597408,0.298097,0.145026
585,2204343588,0.497517,-0.782144,-0.288812,0.239409,-0.415812,0.259644,0.307533
586,2204376922,0.500800,-0.785861,-0.283479,0.226416,-0.582344,0.749075,0.315263
587,2204410256,0.505001,-0.789513,-0.276920,0.212037,-0.855116,-1.189384,0.268574
588,2204443590,0.509332,-0.794128,-0.267882,0.195402,-1.044592,-0.950855,0.048729
589,2204476924,0.512478,-0.797903,-0.261147,0.180337,-1.326596,0.926902,-0.782511
590,2204510258,0.516956,-0.800725,-0.254835,0.163269,-3.571849,0.540383,0.625394
591,2204543592,0.522580,-0.800906,-0.250132,0.151308,-3.933005,1.852259,0.774359
592,2204576926,0.532540,-0.794882,-0.250408,0.147855,-5.722605,2.068007,1.143622
593,2204610260,0.553333,-0.777426,-0.254253,0.157443,-7.821223,4.660721,2.419185
594,2204643594,0.584420,-0.751160,-0.254870,0.171039,-3.366993,1.477142,2.434906
595,2204676928,0.617913,-0.726630,-0.242095,0.177717,0.434300,-2.737057,2.118566
596,2204710262,0.642778,-0.710005,-0.220491,0.184705,2.263529,-4.248673,1.196513
597,2204743596,0.658083,-0.697789,-0.203283,0.196710,1.096649,-3.402476,-0.131365
598,2204776930,0.666235,-0.685955,-0.196561,0.216707,2.257399,-2.348041,-1.063115
599,2204810264,0.670255,-0.673710,-0.197527,0.240538,2.981361,-2.477798,-0.435088
600,2204843598,0.669905,-0.662989,-0.202409,0.265906,2.603558,-1.502767,-1.399154
601,2204876932,0.665138,-0.653357,-0.215182,0.290541,3.360216,-0.989271,-1.793755
602,2204910266,0.659133,-0.645791,-0.226606,0.311687,3.336365,-0.502840,-1.506699
603,2204943600,0.653044,-0.641426,-0.232799,0.328501,2.453246,-0.455314,-1.064916
604,2204976934,0.646154,-0.639461,-0.235016,0.344011,2.321404,-0.103594,-0.549791
605,2205010268,0.638338,-0.638303,-0.237924,0.358452,2.510559,0.355726,-0.830569
606,2205043602,0.630246,-0.637843,-0.243940,0.369379,1.947230,1.191662,-0.679484
607,2205076936,0.622588,-0.634573,-0.253192,0.381572,1.040936,1.398022,-0.862228
608,2205110270,0.614615,-0.629896,-0.264931,0.394071,0.850661,1.162681,-0.241661
609,2205143604,0.607817,-0.627445,-0.273921,0.402295,-0.180530,2.029795,0.066152
610,2205176938,0.605160,-0.626535,-0.279500,0.403877,-1.915807,3.234828,0.453413
611,2205210272,0.600207,-0.624364,-0.288515,0.408266,-1.718323,1.781824,0.518057
612,2205243606,0.593811,-0.622172,-0.298040,0.414082,-0.415597,0.344320,-1.162964
613,2205276940,0.586070,-0.629842,-0.303879,0.409244,5.478914,1.516541,-2.568628
614,2205310274,0.581293,-0.644426,-0.305715,0.391604,-0.383293,1.362296,3.913243
615,2205343608,0.577620,-0.641846,-0.311694,0.396531,-0.936946,1.870920,3.315561
616,2205376942,0.575298,-0.662234,-0.299249,0.375407,0.617541,1.519914,0.966293
617,2205410276,0.569768,-0.682179,-0.289138,0.355523,5.761595,-1.094281,-0.494186
618,2205443610,0.566158,-0.699187,-0.279148,0.335681,1.723259,-2.525789,-1.279551
619,2205476944,0.559924,-0.708654,-0.277783,0.327311,0.275079,-1.729448,-0.856148
620,2205510278,0.550958,-0.720684,-0.276963,0.316787,2.491587,-2.694089,-0.117856
621,2205543612,0.543026,-0.733400,-0.273426,0.304116,-0.575974,-1.763381,0.973908
622,2205576946,0.536606,-0.742990,-0.269571,0.295555,-0.968873,0.851064,0.821301
623,2205610280,0.532579,-0.751489,-0.263987,0.286246,-1.065246,1.645188,0.494600
624,2205643614,0.531309,-0.759173,-0.256091,0.275292,-0.952815,0.167160,0.659941
625,2205676948,0.531426,-0.764506,-0.248510,0.267136,-0.619256,-0.899622,-0.043553
626,2205710282,0.531642,-0.768147,-0.243368,0.260923,0.301684,-1.024853,-0.472707
627,2205743616,0.530864,-0.771869,-0.240285,0.254297,0.299452,-0.718961,-0.442339
628,2205776950,0.528896,-0.775602,-0.238812,0.248356,0.042432,-0.078534,0.039466
629,2205810284,0.526860,-0.779303,-0.238001,0.241790,-0.365675,0.080803,0.089748
630,2205843618,0.524795,-0.782278,-0.238867,0.235743,-0.881960,-0.006898,0.044310
631,2205876952,0.522842,-0.784376,-0.241389,0.230487,-1.093514,-0.076854,-0.153337
632,2205910286,0.520914,-0.786412,-0.244195,0.224890,-0.479968,0.169325,0.334978
633,2205943620,0.519505,-0.788927,-0.245840,0.217424,-0.048532,0.587537,-0.063386
634,2205976954,0.519579,-0.791542,-0.245224,0.208243,-0.360237,0.353142,-0.357090
635,2206010288,0.521598,-0.794132,-0.241304,0.197646,-1.039991,-0.405343,-0.154835
636,2206043622,0.524449,-0.796731,-0.235154,0.186756,-1.138119,-0.472594,-0.266693
637,2206076956,0.526985,-0.799322,-0.229374,0.175389,-1.684436,-0.212532,0.106598
638,2206110290,0.529677,-0.800624,-0.225641,0.165924,-1.200251,-0.007997,0.773867
639,2206143624,0.533507,-0.800101,-0.223969,0.158267,-1.697111,1.121891,2.276694
640,2206176958,0.541193,-0.795668,-0.223632,0.154961,-1.649976,2.609170,3.020222
641,2206210292,0.557935,-0.781433,-0.227890,0.161673,-2.648521,6.125400,2.177255
642,2206243626,0.583493,-0.760088,-0.232848,0.166091,-1.187666,2.708459,0.546530
643,2206276960,0.609748,-0.741950,-0.227706,0.160841,-0.895456,-2.415528,-0.356792
644,2206310294,0.631148,-0.725633,-0.221556,0.161319,0.675694,-3.349960,-0.118323
645,2206343628,0.645950,-0.710923,-0.219765,0.170415,1.112355,-2.893471,0.246469
646,2206376962,0.656173,-0.697931,-0.221024,0.182975,1.843915,-3.055260,-0.541071
647,2206410296,0.662301,-0.687540,-0.224803,0.195223,2.160100,-2.015293,-0.475471
648,2206443630,0.663870,-0.680201,-0.231145,0.207790,1.691113,-2.344728,-1.147285
649,2206476964,0.661772,-0.675365,-0.239193,0.220746,1.277083,-1.951049,-1.120837
650,2206510298,0.656282,-0.671368,-0.250401,0.236348,0.978812,-1.107547,-1.021887
651,2206543632,0.649101,-0.666292,-0.263922,0.255089,0.412043,-0.838460,-0.395783
652,2206576966,0.640715,-0.660899,-0.275866,0.276760,-0.393144,-1.290614,0.188867
653,2206610300,0.630075,-0.654811,-0.288737,0.301431,-0.086259,-0.900181,0.746311
654,2206643634,0.619549,-0.646288,-0.303310,0.326305,0.470425,0.369522,0.964629
655,2206676968,0.608755,-0.634455,-0.321941,0.351055,0.793414,1.266318,-0.044668
656,2206710302,0.595531,-0.619364,-0.345417,0.377385,0.394961,0.895258,-0.280561
657,2206743636,0.578999,-0.603663,-0.369904,0.404380,1.016049,-0.065869,-1.180349
658,2206776970,0.562813,-0.591843,-0.388805,0.426375,1.497442,0.558024,-0.613746
659,2206810304,0.551557,-0.580085,-0.403808,0.442975,0.677099,2.503634,-0.999176
660,2206843638,0.539367,-0.571644,-0.418914,0.454773,0.592895,1.330145,-1.789871
661,2206876972,0.523779,-0.566931,-0.435026,0.463681,0.645742,0.669477,-0.829276
662,2206910306,0.513255,-0.566137,-0.445170,0.466779,-0.147814,1.720832,-1.023770
663,2206943640,0.506181,-0.573699,-0.450064,0.460537,2.026573,2.132086,1.915324
664,2206976974,0.498819,-0.586879,-0.453348,0.448586,-0.218757,0.177112,7.894403
665,2207010308,0.494256,-0.597298,-0.453270,0.439880,2.991002,1.463936,-2.556341
666,2207043642,0.492184,-0.606214,-0.454747,0.428330,-0.226760,-0.157475,-1.276449
667,2207076976,0.486356,-0.610532,-0.459231,0.424049,0.741003,-0.995520,0.002759
668,2207110310,0.479447,-0.617176,-0.461805,0.419478,2.070237,-1.191866,0.417185
669,2207143644,0.473067,-0.623427,-0.463646,0.415428,-0.128248,-1.534381,-0.177289
670,2207176978,0.464972,-0.627903,-0.468265,0.412637,0.935045,-1.113915,0.437406
671,2207210312,0.457090,-0.631147,-0.473474,0.410544,0.772824,-1.395240,0.297154
672,2207243646,0.449086,-0.632807,-0.478796,0.410650,0.209808,-0.897080,-0.077588
673,2207276980,0.442812,-0.635443,-0.482356,0.409224,-0.203150,-0.003616,0.032467
674,2207310314,0.437948,-0.638186,-0.485285,0.406720,0.266378,0.027172,0.213563
675,2207343648,0.433619,-0.639984,-0.488165,0.405082,0.076487,-0.601948,-0.090523
676,2207376982,0.429316,-0.640892,-0.491882,0.403731,0.242613,-0.457174,0.159532
677,2207410316,0.424892,-0.641008,-0.496401,0.402694,0.062050,-0.324575,0.001016
678,2207443650,0.420682,-0.641821,-0.500518,0.400720,0.431890,0.347835,0.076938
679,2207476984,0.417973,-0.644288,-0.503231,0.396172,-0.358335,0.051816,0.202765
680,2207510318,0.415468,-0.646439,-0.505768,0.392051,-0.586384,-0.330007,0.231297
681,2207543652,0.413530,-0.648433,-0.507697,0.388295,-0.999436,-0.163045,0.290531
682,2207576986,0.412438,-0.650703,-0.508513,0.384574,-0.499568,0.000119,-0.125443
683,2207610320,0.412565,-0.653834,-0.509012,0.378418,0.651074,0.367225,-0.024438
684,2207643654,0.413392,-0.656956,-0.510298,0.370288,0.084301,-0.524361,-0.126216
685,2207676988,0.413982,-0.660058,-0.511633,0.362182,-0.509358,-1.909095,-0.361031
686,2207710322,0.415257,-0.663871,-0.512056,0.353042,-1.352455,-1.726933,-0.149989
687,2207743656,0.416126,-0.666821,-0.513401,0.344397,-1.744340,-0.970159,0.434004
688,2207776990,0.420238,-0.668944,-0.513470,0.335059,-2.150605,1.409750,1.234543
689,2207810324,0.428292,-0.668520,-0.513069,0.326204,-2.937775,-0.905537,0.100159
690,2207843658,0.435029,-0.666519,-0.511330,0.324106,-1.751572,-3.072914,2.427638
691,2207876992,0.445306,-0.660914,-0.507149,0.328171,-3.214597,1.372354,2.634835
692,2207910326,0.461897,-0.643959,-0.506973,0.339040,-6.620483,2.808066,1.177248
693,2207943660,0.485088,-0.613192,-0.508443,0.360794,-3.282116,-1.307009,0.137595
694,2207976994,0.503238,-0.587190,-0.507788,0.379621,1.052306,-4.627175,0.796920
695,2208010328,0.512162,-0.566275,-0.505988,0.401250,3.356302,-5.361430,0.858097
696,2208043662,0.511007,-0.543506,-0.508565,0.429926,3.466441,-3.319786,-0.235812
697,2208076996,0.504186,-0.520158,-0.514960,0.458312,3.392257,-1.264125,-0.412518
698,2208110330,0.496012,-0.498165,-0.521744,0.483310,3.176780,-0.215206,-0.292615
699,2208143664,0.485300,-0.480001,-0.528511,0.504739,3.313573,-1.176630,-1.293338
700,2208176998,0.471653,-0.463537,-0.536478,0.524280,2.846482,-0.862790,-1.234815
701,2208210332,0.452868,-0.445479,-0.547472,0.544733,2.694575,-0.236659,-1.059859
702,2208243666,0.431569,-0.426415,-0.559549,0.564646,1.874617,0.365166,-0.805674
703,2208277000,0.410961,-0.407740,-0.570298,0.582770,1.136506,0.611773,-0.259988
704,2208310334,0.389272,-0.388367,-0.581141,0.599929,0.498118,0.679367,0.269152
705,2208343668,0.367335,-0.367104,-0.591249,0.617030,-0.185927,0.533696,0.155814
706,2208377002,0.346842,-0.345213,-0.599715,0.633144,-0.762832,0.334689,0.079906
707,2208410336,0.328609,-0.323536,-0.606008,0.648149,-0.963635,0.027144,0.155297
708,2208443670,0.312070,-0.303526,-0.609285,0.662766,-0.477943,-0.220719,0.337827
709,2208477004,0.294052,-0.283390,-0.611564,0.677654,-0.226356,0.143866,-0.177498
710,2208510338,0.272745,-0.262767,-0.616257,0.690501,0.751963,0.034931,-0.418806
711,2208543672,0.249339,-0.241371,-0.623651,0.700451,2.040571,0.539882,-0.757045
712,2208577006,0.224549,-0.217550,-0.633614,0.707661,2.037731,0.548612,-1.245214
713,2208610340,0.197845,-0.191244,-0.647367,0.710775,1.364171,0.685033,-1.427408
714,2208643674,0.165996,-0.163060,-0.664539,0.710103,1.006514,1.955381,-2.241888
715,2208677008,0.140009,-0.145520,-0.684001,0.700975,-2.263009,3.397077,-0.407012
716,2208710342,0.132367,-0.140134,-0.697874,0.689793,-3.991281,0.516821,2.106421
717,2208743676,0.129941,-0.131136,-0.709345,0.680257,-2.770216,-0.803024,3.966824
718,2208777010,0.107076,-0.113040,-0.725255,0.670644,0.313683,-0.229104,4.981246
719,2208810344,0.099575,-0.117914,-0.734617,0.660697,1.362355,2.568435,-0.215325
720,2208843678,0.112239,-0.136135,-0.735628,0.654005,1.895401,-0.417240,-1.733789
721,2208877012,0.109138,-0.142583,-0.736713,0.651931,0.217635,0.668020,1.407070
722,2208910346,0.098962,-0.142686,-0.740649,0.649067,0.603515,0.906694,-1.632110
723,2208943680,0.092195,-0.141826,-0.744725,0.645579,0.550713,1.768052,-1.475443
724,2208977014,0.087615,-0.141991,-0.752642,0.636942,3.343987,2.672579,-0.168271
725,2209010348,0.078805,-0.136487,-0.765042,0.624399,0.985689,1.641218,0.022210
726,2209043682,0.068878,-0.129248,-0.777317,0.611826,0.291971,0.557429,0.075506
727,2209077016,0.063422,-0.125431,-0.786317,0.601624,0.452675,-0.751253,0.386376
728,2209110350,0.059065,-0.124005,-0.790957,0.596257,0.380472,-1.120589,0.680309
729,2209143684,0.055100,-0.124576,-0.792285,0.594753,0.464152,-0.671434,0.169820
730,2209177018,0.052524,-0.125885,-0.793547,0.593025,1.545752,0.630828,-0.319582
731,2209210352,0.048077,-0.124551,-0.795274,0.591368,0.523941,0.656314,-0.034322
732,2209243686,0.043053,-0.121202,-0.796908,0.590250,-0.096937,0.172254,0.157995
733,2209277020,0.040555,-0.119213,-0.799451,0.587387,0.187004,0.331468,0.102449
734,2209310354,0.038471,-0.117372,-0.801939,0.584499,0.361832,0.095282,0.025488
735,2209343688,0.036029,-0.115668,-0.803924,0.582264,0.220460,0.091277,0.060585
736,2209377022,0.034601,-0.114701,-0.806056,0.579587,0.237447,0.360387,0.125390
737,2209410356,0.034524,-0.114662,-0.808924,0.575590,0.546010,0.683782,0.053182
738,2209443690,0.034042,-0.113816,-0.812561,0.570643,0.277392,0.370978,0.137005
739,2209477024,0.033598,-0.112330,-0.816544,0.565253,0.071345,-0.410997,0.138693
740,2209510358,0.033804,-0.111339,-0.819791,0.560719,0.128999,-0.892516,0.430079
741,2209543692,0.035344,-0.111325,-0.821974,0.557421,-0.242019,-0.848363,0.227952
742,2209577026,0.039181,-0.112599,-0.823608,0.554488,0.104772,-1.067094,0.171981
743,2209610360,0.045072,-0.114401,-0.824275,0.552678,0.649359,-1.083249,0.225699
744,2209643694,0.050812,-0.115187,-0.824582,0.551558,1.287471,-0.952848,0.109154
745,2209677028,0.056729,-0.115280,-0.822876,0.553506,1.039100,-0.521875,-0.234943
746,2209710362,0.063551,-0.115444,-0.822113,0.553865,0.832224,0.607655,-0.555464
747,2209743696,0.072798,-0.116176,-0.823355,0.550720,1.279318,1.024690,0.014000
748,2209777030,0.080878,-0.113871,-0.825930,0.546199,1.466121,0.779453,0.318473
749,2209810364,0.087622,-0.109016,-0.829865,0.540152,1.212932,0.317340,0.732354
750,2209843698,0.094011,-0.103103,-0.833603,0.534453,1.544091,-1.151280,1.252082
751,2209877032,0.096964,-0.094077,-0.835625,0.532429,1.669390,-1.987877,1.549975
752,2209910366,0.096109,-0.080608,-0.833933,0.537422,0.198110,-4.459605,1.313613
753,2209943700,0.092962,-0.060972,-0.826123,0.552416,0.102993,-6.754739,0.626612
754,2209977034,0.090783,-0.038694,-0.809915,0.578188,3.056451,-5.700988,0.527546
755,2210010368,0.084910,-0.018286,-0.792139,0.604130,4.589779,-2.360167,0.238701
756,2210043702,0.072477,-0.001679,-0.774135,0.628857,4.288555,0.818836,0.320651
757,2210077036,0.056261,0.007429,-0.757953,0.649838,2.907648,3.021196,0.268733
758,2210110370,0.031162,0.016756,-0.745145,0.665964,2.555441,3.853449,-0.087810
759,2210143704,-0.004756,0.034633,-0.733299,0.679009,2.640542,4.537210,0.995204
760,2210177038,-0.046568,0.057409,-0.721756,0.688190,0.617047,4.507026,0.025796
761,2210210372,-0.086860,0.080473,-0.711813,0.692317,-1.657146,3.554407,-0.647722
762,2210243706,-0.125528,0.100950,-0.703059,0.692648,-2.105257,2.290908,-0.694680
763,2210277040,-0.162218,0.119844,-0.693737,0.691415,-2.490856,1.677010,-0.774673
764,2210310374,-0.194733,0.134447,-0.684910,0.689132,-2.566094,0.897246,-0.487151
765,2210343708,-0.219928,0.143825,-0.679198,0.685301,-2.653993,0.272068,-0.890676
766,2210377042,-0.240678,0.153894,-0.675986,0.679290,-2.329221,0.225643,-0.731290
767,2210410376,-0.261859,0.167650,-0.671293,0.672823,-1.061620,0.152190,-0.454383
768,2210443710,-0.284759,0.184575,-0.665857,0.664441,-0.832509,0.230166,-0.272052
769,2210477044,-0.304485,0.198563,-0.660201,0.657265,-0.783245,-0.734808,-0.641775
770,2210510378,-0.318031,0.207565,-0.657474,0.650771,-0.554450,-1.630466,-0.728586
771,2210543712,-0.327274,0.214521,-0.656189,0.645205,-0.450644,-1.767346,-0.842921
772,2210577046,-0.335704,0.223251,-0.655627,0.638449,0.044906,-0.757087,0.031691
773,2210610380,-0.345513,0.234193,-0.652913,0.632045,1.001754,-0.486411,0.564539
774,2210643714,-0.351553,0.243370,-0.652209,0.625945,0.133808,-0.667037,-0.868682
775,2210677048,-0.352484,0.250436,-0.658771,0.615678,-3.855446,0.778465,-2.715453
776,2210710382,-0.335796,0.252902,-0.675693,0.605575,-2.810068,-1.773750,4.147705
777,2210743716,-0.342623,0.268518,-0.671937,0.599175,3.469753,-2.967461,4.632603
778,2210777050,-0.328888,0.263974,-0.684371,0.594801,0.370419,-1.811604,1.365901
779,2210810384,-0.312232,0.257072,-0.700472,0.588018,-3.573961,1.003647,-0.718253
780,2210843718,-0.293936,0.248688,-0.714772,0.583831,-0.523440,2.526662,-1.700466
781,2210877052,-0.291430,0.250665,-0.720796,0.576793,-0.078752,1.752021,-0.811932
782,2210910386,-0.284397,0.249355,-0.730785,0.568239,-0.767968,2.130942,0.127589
783,2210943720,-0.272622,0.246532,-0.741198,0.561717,0.233233,1.467850,0.676522
784,2210977054,-0.265566,0.246356,-0.749400,0.554243,-1.010976,0.322504,-0.329288
785,2211010388,-0.254604,0.243283,-0.759419,0.547059,-0.867541,0.396814,-0.534120
786,2211043722,-0.241134,0.238734,-0.769469,0.541091,0.754014,0.959176,-0.051947
787,2211077056,-0.235727,0.239827,-0.774889,0.535224,0.419978,1.132752,0.300096
788,2211110390,-0.229571,0.241465,-0.780189,0.529432,-0.251771,0.868075,-0.474391
789,2211143724,-0.222061,0.243397,-0.786489,0.522382,-0.825972,0.282894,-0.071539
790,2211177058,-0.212153,0.243604,-0.792763,0.516892,0.207636,-1.053264,0.101840
791,2211210392,-0.201750,0.242575,-0.798337,0.512947,0.633096,-0.853262,0.306499
792,2211243726,-0.191593,0.241787,-0.802897,0.510088,0.753382,0.191127,0.273455
793,2211277060,-0.180947,0.241663,-0.807239,0.507172,0.430917,0.319653,0.204362
794,2211310394,-0.168448,0.242026,-0.811787,0.504035,0.502524,-0.375736,0.159698
795,2211343728,-0.154316,0.242027,-0.816762,0.500510,1.181687,-0.030866,0.436460
796,2211377062,-0.139196,0.240067,-0.821034,0.498896,2.039234,-0.904559,0.275152
797,2211410396,-0.124366,0.237889,-0.823933,0.499076,2.813545,0.208179,-0.060822
798,2211443730,-0.110398,0.234380,-0.825875,0.500810,3.543803,-0.743769,0.295126
799,2211477064,-0.100352,0.232429,-0.825669,0.504161,4.838587,-1.312710,0.133282
800,2211510398,-0.098210,0.234325,-0.820875,0.511481,5.786488,-1.208452,1.388885
801,2211543732,-0.110061,0.241453,-0.809167,0.524250,6.727491,-5.104791,1.638483
802,2211577066,-0.134072,0.254209,-0.781845,0.553283,6.355266,-2.492843,0.890834
803,2211610400,-0.150393,0.253514,-0.754968,0.585780,3.114180,3.556720,1.074246
804,2211643734,-0.176252,0.249145,-0.732328,0.608736,-0.598502,5.451715,2.902609
805,2211677068,-0.209387,0.246531,-0.711086,0.624289,-2.320410,3.772424,1.296441
806,2211710402,-0.245408,0.246694,-0.690565,0.634066,-2.374471,2.984868,0.162188
807,2211743736,-0.280340,0.246883,-0.673208,0.638161,-3.327450,3.948339,1.032504
808,2211777070,-0.315964,0.252770,-0.657432,0.635656,-4.576327,1.783131,-0.781952
809,2211810404,-0.350197,0.265352,-0.640203,0.630153,-5.027552,1.132700,-1.114052
810,2211843738,-0.379061,0.277311,-0.624179,0.624351,-4.900732,-0.732447,-1.916034
811,2211877072,-0.400069,0.285225,-0.612371,0.619351,-4.324731,-1.332958,-2.530526
812,2211910406,-0.416259,0.290193,-0.607567,0.611048,-3.743207,-0.888208,-2.474105
813,2211943740,-0.425800,0.293925,-0.609139,0.601044,-3.549916,-1.305555,-2.561877
814,2211977074,-0.432792,0.301254,-0.611230,0.590201,-2.614198,-0.322525,-1.944574
815,2212010408,-0.439310,0.311691,-0.612589,0.578439,-0.688891,-0.855293,-0.947569
816,2212043742,-0.444413,0.321159,-0.613560,0.568243,3.343390,-0.791104,1.721343
817,2212077076,-0.443520,0.326705,-0.616542,0.562522,3.181367,-2.211336,1.421763
818,2212110410,-0.448763,0.337151,-0.615067,0.553746,2.183204,-1.250425,1.247021
819,2212143744,-0.451480,0.345166,-0.616563,0.544865,-3.407707,-1.485999,-0.864730
820,2212177078,-0.439513,0.350758,-0.626101,0.540182,-1.296670,-1.408692,2.608901
821,2212210412,-0.448869,0.367222,-0.616605,0.532414,1.203229,-1.822945,3.112191
822,2212243746,-0.433473,0.366629,-0.629641,0.530318,-0.130842,-1.673154,-0.163884
823,2212277080,-0.417078,0.366180,-0.645595,0.524564,-3.666079,0.248811,-1.231340
824,2212310414,-0.398702,0.361681,-0.661567,0.522067,-1.543334,2.175416,-1.385861
825,2212343748,-0.385863,0.361735,-0.674304,0.515338,-0.963388,1.664027,-0.731682
826,2212377082,-0.373528,0.364892,-0.686302,0.506282,-1.569438,2.043675,0.268312
827,2212410416,-0.362842,0.369697,-0.696106,0.497100,-0.470172,1.569931,0.689535
828,2212443750,-0.353581,0.372342,-0.705340,0.488711,0.498737,0.914495,0.384058
829,2212477084,-0.345123,0.370667,-0.715043,0.481884,1.032192,-0.388673,0.137812
830,2212510418,-0.333446,0.361769,-0.726406,0.479868,1.214571,-1.589013,0.631263
831,2212543752,-0.326722,0.354764,-0.732686,0.480175,-0.213315,-0.305486,0.134720
832,2212577086,-0.320663,0.349824,-0.737164,0.481029,-1.113180,0.991333,-0.500832
833,2212610420,-0.312634,0.344258,-0.742642,0.481904,-0.834470,0.725359,-0.450439
834,2212643754,-0.302078,0.337264,-0.749636,0.482752,-1.007593,-0.084318,0.128857
835,2212677088,-0.291172,0.332628,-0.756652,0.481722,-1.056184,0.380867,-0.035569
836,2212710422,-0.281453,0.331315,-0.762318,0.479466,-0.096998,0.741191,0.040526
837,2212743756,-0.269622,0.329945,-0.768455,0.477409,0.865291,-0.851267,0.486834
838,2212777090,-0.255231,0.325952,-0.775889,0.476036,2.201678,-1.577993,0.314765
839,2212810424,-0.239158,0.318336,-0.782885,0.478079,3.291626,-1.023824,-0.612465
840,2212843758,-0.225878,0.309440,-0.786684,0.484103,4.787899,-1.456723,-2.024949
841,2212877092,-0.214303,0.298897,-0.788318,0.493245,3.157958,1.331903,2.411959
842,2212910426,-0.215461,0.294411,-0.784067,0.502136,2.983463,-0.186430,5.515388
843,2212943760,-0.228334,0.295724,-0.768251,0.519811,4.893575,-5.812325,2.875826
844,2212977094,-0.247134,0.299211,-0.736071,0.554616,1.374692,-5.507643,1.553162
845,2213010428,-0.247564,0.286300,-0.712803,0.590472,-0.016483,1.958489,0.125914
846,2213043762,-0.244407,0.260653,-0.701226,0.616936,-1.660131,6.217855,-0.085961
847,2213077096,-0.259240,0.246538,-0.687867,0.631548,-1.013865,4.100511,-0.586983
848,2213110430,-0.285479,0.246463,-0.669039,0.640427,-1.438484,3.409293,-0.886043
849,2213143764,-0.311177,0.248843,-0.652318,0.644770,-1.963533,2.356543,-0.513132
850,2213177098,-0.331378,0.250599,-0.642177,0.644205,-3.350303,0.887676,-0.866852
851,2213210432,-0.348204,0.254691,-0.636010,0.639827,-3.385383,0.175299,-0.886272
852,2213243766,-0.363582,0.263094,-0.630551,0.633242,-2.848714,-0.672180,-1.765900
853,2213277100,-0.376048,0.266834,-0.627466,0.627436,-1.572513,-1.181003,-1.917787
854,2213310434,-0.388635,0.267356,-0.626173,0.620799,-0.602971,-0.355989,-0.429084
855,2213343768,-0.402376,0.267895,-0.625434,0.612503,-0.659280,0.003538,0.116990
856,2213377102,-0.414291,0.268145,-0.624999,0.604846,0.330104,-0.650012,-0.384944
857,2213410436,-0.423007,0.270040,-0.622822,0.600198,1.052093,-1.260751,-0.007657
858,2213443770,-0.432292,0.277427,-0.617756,0.595430,-0.227571,-1.228747,-0.705613
859,2213477104,-0.439948,0.286099,-0.613326,0.590276,0.217141,-1.181426,-0.021559
860,2213510438,-0.445519,0.295232,-0.609900,0.585128,-0.881468,-1.638694,-0.480836
861,2213543772,-0.445365,0.304049,-0.609045,0.581610,0.053013,-2.638245,-0.575977
862,2213577106,-0.445423,0.314392,-0.609351,0.575716,-0.825088,-0.947203,-1.160577
863,2213610440,-0.438280,0.319706,-0.617984,0.569031,-4.077040,-0.368738,-1.402328
864,2213643774,-0.412851,0.317222,-0.637528,0.567877,-1.652997,-1.696000,4.156777
865,2213677108,-0.414848,0.330275,-0.636061,0.560578,3.644067,0.609208,5.598843
866,2213710442,-0.407172,0.329054,-0.646207,0.555295,-0.605009,-0.776036,0.031489
867,2213743776,-0.391626,0.321489,-0.660152,0.554503,-0.804752,-2.216070,-1.072474
868,2213777110,-0.378046,0.311983,-0.672523,0.554492,-0.487745,-0.129090,-0.880272
869,2213810444,-0.361572,0.299738,-0.688609,0.552487,-2.198993,1.697197,-1.366107
870,2213843778,-0.340651,0.288086,-0.706862,0.548918,-0.656950,1.303675,-0.550044
871,2213877112,-0.323079,0.281400,-0.722075,0.543178,-0.584610,1.473671,0.320045
872,2213910446,-0.310448,0.278538,-0.733611,0.536521,-0.846008,1.495905,0.652273
873,2213943780,-0.295468,0.273635,-0.745481,0.531115,0.682283,1.030916,0.559540
874,2213977114,-0.281969,0.267731,-0.756740,0.525509,0.327096,0.181666,0.070221
875,2214010448,-0.265111,0.257867,-0.768136,0.522675,0.996400,-0.700296,0.064237
876,2214043782,-0.253948,0.251116,-0.775309,0.520911,1.015825,0.040394,0.214602
877,2214077116,-0.246289,0.247495,-0.779393,0.520227,0.034922,0.256744,-0.195712
878,2214110450,-0.236367,0.244099,-0.784135,0.519308,-0.368243,-0.307075,-0.179590
879,2214143784,-0.223331,0.239239,-0.789350,0.519439,-0.122984,-0.349148,-0.369314
880,2214177118,-0.208194,0.234114,-0.795038,0.519387,0.161832,0.657628,-0.127245
881,2214210452,-0.193627,0.230987,-0.800395,0.518191,0.459544,1.124812,0.239321
882,2214243786,-0.178157,0.229645,-0.805646,0.516197,0.922275,0.199997,-0.023982
883,2214277120,-0.162244,0.228609,-0.811419,0.512851,1.435937,-0.237031,-0.077058
884,2214310454,-0.145776,0.225123,-0.817364,0.509890,1.709487,-0.806747,-0.253738
885,2214343788,-0.130407,0.220094,-0.821651,0.509357,3.098361,-0.392981,0.090290
886,2214377122,-0.118600,0.215139,-0.823069,0.512063,4.227773,-0.971614,1.029707
887,2214410456,-0.112119,0.212120,-0.821532,0.517224,4.540058,-1.428156,2.575567
888,2214443790,-0.117609,0.216296,-0.813299,0.527191,4.770658,-3.544612,3.070200
889,2214477124,-0.137648,0.227203,-0.788567,0.554613,7.240549,-7.106442,1.593982
890,2214510458,-0.152227,0.230525,-0.758086,0.590756,1.783796,-0.986596,1.492595
891,2214543792,-0.159717,0.217605,-0.733472,0.623826,-1.516289,4.232503,1.259114
892,2214577126,-0.169044,0.197901,-0.717898,0.645665,-3.238099,3.841791,0.961588
893,2214610460,-0.183601,0.181989,-0.704502,0.660946,-0.927948,3.825938,-0.449016
894,2214643794,-0.206164,0.175171,-0.692279,0.669001,-0.772584,3.425568,-0.618975
895,2214677128,-0.233553,0.174525,-0.682454,0.670263,-2.102336,3.259486,-0.254844
896,2214710462,-0.264374,0.183514,-0.671474,0.667498,-3.234302,1.729257,-0.854561
897,2214743796,-0.295328,0.199043,-0.659705,0.661781,-3.615249,0.512891,-1.636846
898,2214777130,-0.320708,0.212121,-0.649670,0.655806,-3.515145,-0.490544,-2.186558
899,2214810464,-0.342215,0.221206,-0.642499,0.648964,-3.175277,-0.886502,-1.976491
900,2214843798,-0.356495,0.223814,-0.641110,0.641715,-2.489859,-1.161604,-1.924785
901,2214877132,-0.365150,0.226125,-0.643902,0.633187,-2.040580,-0.366168,-0.955567
902,2214910466,-0.377702,0.234319,-0.642693,0.624006,-1.338548,-0.105613,-0.625462
903,2214943800,-0.389833,0.245684,-0.639417,0.615481,0.117281,-0.162035,0.523545
904,2214977134,-0.395405,0.256418,-0.637039,0.609990,0.582428,-2.462487,0.326355
905,2215010468,-0.400534,0.269283,-0.632535,0.605772,2.403358,-3.633420,1.728995
906,2215043802,-0.411500,0.282708,-0.626898,0.598118,1.581320,-2.027861,0.190988
907,2215077136,-0.417505,0.290274,-0.627977,0.589133,-1.617574,-0.374416,-2.811667
908,2215110470,-0.411603,0.294272,-0.640610,0.577588,-8.194646,-1.594582,-3.078003
909,2215143804,-0.391496,0.300099,-0.655094,0.572297,3.390264,-0.597820,6.587978
910,2215177138,-0.405614,0.317692,-0.642906,0.566765,2.367733,-2.782154,3.108357
911,2215210472,-0.389319,0.318544,-0.660860,0.556980,-1.853197,-2.037927,-1.288691
912,2215243806,-0.374343,0.311933,-0.678099,0.550226,-4.225148,0.894139,-1.261286
913,2215277140,-0.357287,0.303403,-0.694402,0.545986,-2.121121,2.473887,-0.751289
914,2215310474,-0.346062,0.301178,-0.706440,0.538960,-0.943129,1.993036,0.168200
915,2215343808,-0.332917,0.300375,-0.718623,0.531530,-1.337125,1.811903,0.038497
916,2215377142,-0.318808,0.297267,-0.730864,0.525199,-0.179733,0.377756,0.302148
917,2215410476,-0.303400,0.290407,-0.743717,0.520095,-0.189178,-0.620592,-0.024734
918,2215443810,-0.285797,0.280070,-0.756533,0.517242,0.539748,-0.062794,0.121556
919,2215477144,-0.274784,0.272880,-0.764400,0.515485,0.614236,0.915298,0.354441
920,2215510478,-0.265915,0.266968,-0.769877,0.515082,-0.197884,0.753517,-0.362823
921,2215543812,-0.255897,0.261722,-0.776281,0.513233,-1.281399,0.795826,-0.291384
922,2215577146,-0.243960,0.255815,-0.782868,0.512017,-0.269208,-0.403591,0.116415
923,2215610480,-0.230752,0.249100,-0.789162,0.511788,0.328712,-0.498161,0.176782
924,2215643814,-0.217133,0.242832,-0.794807,0.512026,0.291703,0.265176,0.183260
925,2215677148,-0.204162,0.239063,-0.799648,0.511597,0.351705,0.866780,-0.192616
926,2215710482,-0.191852,0.238158,-0.803929,0.510072,0.049589,0.599571,0.168930
927,2215743816,-0.178761,0.238425,-0.808362,0.507691,0.144614,0.024213,0.491361
928,2215777150,-0.163817,0.237741,-0.813109,0.505469,0.762079,0.308067,0.128687
929,2215810484,-0.146135,0.234516,-0.818493,0.503703,1.712903,-0.045500,0.302889
930,2215843818,-0.129419,0.231338,-0.822554,0.503129,2.336213,-0.329551,-0.119898
931,2215877152,-0.114810,0.229602,-0.825005,0.503458,3.059685,-0.297518,0.256547
932,2215910486,-0.103812,0.229315,-0.825855,0.504582,4.226504,-1.162059,0.187970
933,2215943820,-0.100742,0.232468,-0.823381,0.507794,6.006390,-0.919356,0.746749
934,2215977154,-0.108943,0.236278,-0.815430,0.517088,6.334899,-2.581867,1.246074
935,2216010488,-0.131542,0.245334,-0.797214,0.535685,6.814076,-5.491723,1.129840
936,2216043822,-0.151370,0.247601,-0.774707,0.561794,2.103499,1.209898,1.348544
937,2216077156,-0.171824,0.244381,-0.753962,0.585061,-0.570732,3.693117,1.691197
938,2216110490,-0.202461,0.247110,-0.731975,0.601797,-1.602516,1.565353,1.852118
939,2216143824,-0.231383,0.248964,-0.710885,0.615730,-2.061186,1.818126,0.704372
940,2216177158,-0.258677,0.247308,-0.692817,0.626044,-2.417870,2.680037,1.604035
941,2216210492,-0.285468,0.244184,-0.677833,0.632002,-3.296076,1.479403,-0.270607
942,2216243826,-0.311818,0.243536,-0.664657,0.633793,-3.397275,1.040262,-0.675963
943,2216277160,-0.339608,0.250222,-0.650403,0.631691,-4.445930,1.230532,-1.599554
944,2216310494,-0.363769,0.256308,-0.637884,0.628556,-4.083019,0.786490,-2.434841
945,2216343828,-0.383896,0.259630,-0.629411,0.623747,-3.969386,0.316190,-1.998759
946,2216377162,-0.399837,0.263147,-0.626993,0.614627,-3.827170,-0.059248,-2.416308
947,2216410496,-0.409962,0.267883,-0.629601,0.603137,-2.819656,-0.112981,-1.880377
948,2216443830,-0.417782,0.274956,-0.631192,0.592837,-1.027806,-0.934272,-0.820551
949,2216477164,-0.427295,0.287922,-0.628645,0.582518,1.285818,-0.857546,1.100106
950,2216510498,-0.432044,0.299667,-0.625009,0.576978,1.633008,-3.288423,-0.314945
951,2216543832,-0.435891,0.314179,-0.619420,0.572373,2.734730,-2.727060,1.900618
952,2216577166,-0.445024,0.327830,-0.612108,0.565514,0.538685,-0.579492,-0.033719
953,2216610500,-0.442206,0.331689,-0.616419,0.560772,-4.850415,-1.256937,-2.732932
954,2216643834,-0.422426,0.329079,-0.633406,0.558625,-1.880255,-0.826928,2.838994
955,2216677168,-0.428890,0.335694,-0.629562,0.554090,2.331646,-0.062401,3.837437
956,2216710502,-0.413256,0.326732,-0.644485,0.554171,0.153753,-1.940159,0.438016
957,2216743836,-0.395323,0.319553,-0.661068,0.551903,-2.697098,-1.601112,0.306766
958,2216777170,-0.377624,0.311602,-0.675853,0.550934,-3.374624,0.882565,-1.576375
959,2216810504,-0.363839,0.305758,-0.687013,0.549680,-1.090365,1.651779,-0.891213
960,2216843838,-0.351523,0.300806,-0.699543,0.544599,-1.178516,2.028018,-0.682850
961,2216877172,-0.337629,0.296623,-0.713632,0.537357,-1.418604,2.425605,0.765597
962,2216910506,-0.326994,0.295506,-0.724307,0.530219,0.214643,1.770132,0.311077
963,2216943840,-0.319096,0.296710,-0.733761,0.521284,-0.811030,0.793986,0.188122
964,2216977174,-0.309478,0.295251,-0.742945,0.514864,0.364946,-0.797162,0.033195
965,2217010508,-0.300101,0.291478,-0.750992,0.510875,0.814144,-1.022736,0.788726
966,2217043842,-0.293766,0.287681,-0.755954,0.509388,0.972586,-0.401985,0.482030
967,2217077176,-0.286967,0.283420,-0.760205,0.509326,-0.366217,0.173234,-0.292970
968,2217110510,-0.278912,0.279232,-0.765389,0.508350,-1.038928,1.059937,-0.316573
969,2217143844,-0.270167,0.275293,-0.770490,0.507514,-0.458624,0.098355,0.143812
970,2217177178,-0.260103,0.271982,-0.775131,0.507489,-0.420072,-0.971240,0.405747
971,2217210512,-0.249517,0.270036,-0.779107,0.507756,0.396318,0.007365,-0.162139
972,2217243846,-0.239608,0.268943,-0.782762,0.507487,0.150167,0.659265,-0.191572
973,2217277180,-0.229458,0.267616,-0.786398,0.507259,0.775372,0.713746,-0.203387
974,2217310514,-0.219133,0.265976,-0.790441,0.506401,0.376121,-0.017420,0.264552
975,2217343848,-0.206839,0.263467,-0.794684,0.506243,0.290486,-0.000035,0.078296
976,2217377182,-0.191100,0.258334,-0.799988,0.506719,1.273397,0.251444,0.142891
977,2217410516,-0.176753,0.252842,-0.804040,0.508283,1.732999,-0.013774,-0.432207
978,2217443850,-0.162648,0.247690,-0.807269,0.510405,1.955497,-0.190389,0.627399
979,2217477184,-0.149533,0.243215,-0.809084,0.513684,1.435882,-0.109987,0.929119
980,2217510518,-0.139348,0.240548,-0.809160,0.517668,1.475196,-0.840477,0.986378
981,2217543852,-0.131871,0.239353,-0.806945,0.523605,2.343691,-1.049488,1.815114
982,2217577186,-0.131995,0.240188,-0.801043,0.532183,3.406902,-0.801055,1.809257
983,2217610520,-0.137720,0.240880,-0.789263,0.547792,3.836737,-1.857665,-0.354283
984,2217643854,-0.149406,0.242163,-0.770004,0.571078,3.054439,-2.364347,-1.381895
985,2217677188,-0.161654,0.245306,-0.750873,0.591510,1.404976,0.736012,0.413906
986,2217710522,-0.173983,0.241929,-0.734879,0.609224,0.383870,3.831223,0.970321
987,2217743856,-0.192179,0.236344,-0.721185,0.622175,-0.202140,4.127518,1.000767
988,2217777190,-0.219892,0.236527,-0.706790,0.629405,-1.219252,3.338586,0.683645
989,2217810524,-0.248659,0.242045,-0.692561,0.632411,-2.945531,1.532573,1.300988
990,2217843858,-0.275074,0.249571,-0.679403,0.632821,-2.478222,1.217368,0.027633
991,2217877192,-0.298569,0.258553,-0.669636,0.628964,-2.312780,0.469559,-0.756032
992,2217910526,-0.322485,0.270868,-0.659905,0.622222,-2.608897,0.193426,-0.963382
993,2217943860,-0.347230,0.282574,-0.648820,0.615319,-2.097227,0.700922,-0.644443
994,2217977194,-0.371444,0.291310,-0.638910,0.607423,-2.290670,0.908406,0.231034
995,2218010528,-0.393423,0.297352,-0.630944,0.598925,-2.350836,-0.110383,-0.395575
996,2218043862,-0.410925,0.305009,-0.625028,0.589450,-2.321643,-0.786760,-0.872329
997,2218077196,-0.427027,0.317836,-0.617936,0.578606,-2.014585,-1.216133,-0.930402
998,2218110530,-0.441044,0.333202,-0.610072,0.567688,-1.489546,-0.985318,-0.659081
999,2218143864,-0.454114,0.348898,-0.603353,0.554993,-0.067332,-1.103828,-1.135680
1000,2218177198,-0.461895,0.358253,-0.601247,0.544804,0.674712,-1.349035,-1.001541
1001,2218210532,-0.464156,0.365993,-0.602057,0.536785,0.945950,-1.471124,-0.615937
1002,2218243866,-0.466733,0.374651,-0.602522,0.527982,0.649055,-0.183592,-0.270440
1003,2218277200,-0.466227,0.382250,-0.605720,0.519251,-2.278350,-0.723362,-0.359206
1004,2218310534,-0.456659,0.389891,-0.613294,0.513146,-1.125940,-1.383012,2.254872
1005,2218343868,-0.464308,0.404744,-0.605457,0.504008,2.195076,-0.617047,2.614063
1006,2218377202,-0.456796,0.410019,-0.612045,0.498622,0.458765,-1.855497,1.075593
1007,2218410536,-0.447935,0.411162,-0.620491,0.495271,-1.518638,-1.207256,-0.160010
1008,2218443870,-0.437743,0.408771,-0.628846,0.495824,-0.512424,0.661344,-0.496119
1009,2218477204,-0.427631,0.407396,-0.638048,0.494021,-1.087219,0.985079,-0.467882
1010,2218510538,-0.417565,0.406672,-0.647565,0.490834,-1.258209,0.945810,-0.643836
1011,2218543872,-0.408251,0.408437,-0.655886,0.486134,-0.784761,0.584975,-0.247985
1012,2218577206,-0.401611,0.415918,-0.662348,0.476465,-0.517833,1.084210,-0.028877
1013,2218610540,-0.397818,0.427173,-0.666690,0.463455,-1.811642,0.295002,-0.260644
1014,2218643874,-0.390063,0.438844,-0.671739,0.451703,-0.946465,0.716812,0.739781
1015,2218677208,-0.378788,0.445412,-0.678419,0.444834,0.621348,-1.516037,0.753141
1016,2218710542,-0.370326,0.447146,-0.684765,0.440474,3.046571,-0.361083,0.063906
1017,2218743876,-0.364413,0.444643,-0.690360,0.439204,1.336953,0.824263,0.683528
1018,2218777210,-0.362098,0.441371,-0.693606,0.439305,0.670182,1.251071,0.153647
1019,2218810544,-0.360555,0.438978,-0.696004,0.439178,0.054643,1.052174,-0.507771
1020,2218843878,-0.357368,0.437611,-0.698798,0.438712,-0.734666,0.524056,-0.241665
1021,2218877212,-0.351126,0.437508,-0.702999,0.437139,-1.269348,-0.341919,-0.268931
1022,2218910546,-0.342387,0.439476,-0.707571,0.434714,-0.837663,-0.248791,-0.103463
1023,2218943880,-0.332994,0.442548,-0.711534,0.432421,0.112178,-0.058011,0.067260
1024,2218977214,-0.322531,0.445118,-0.715900,0.430504,0.870488,0.474268,-0.029914
1025,2219010548,-0.311121,0.446034,-0.720548,0.430196,1.678151,0.147467,0.107824
1026,2219043882,-0.299437,0.444352,-0.725052,0.432654,1.933545,0.528023,-0.098229
1027,2219077216,-0.287351,0.438923,-0.730102,0.437869,1.395550,0.443917,-0.139004
1028,2219110550,-0.272818,0.430016,-0.736109,0.445871,1.335776,0.185842,0.336637
1029,2219143884,-0.259428,0.420818,-0.740660,0.455009,2.728042,0.615089,0.125180
1030,2219177218,-0.250657,0.411472,-0.742235,0.465779,4.483992,0.969890,1.692671
1031,2219210552,-0.252660,0.399193,-0.737919,0.481960,6.320361,0.037521,2.736675
1032,2219243886,-0.266921,0.386859,-0.723527,0.505572,6.601350,-2.722559,1.399605
1033,2219277220,-0.287844,0.376106,-0.701556,0.532458,2.788775,0.178660,0.304557
1034,2219310554,-0.305691,0.361539,-0.685911,0.552602,-2.723301,1.614932,1.339143
1035,2219343888,-0.325139,0.347053,-0.672486,0.567101,-3.351363,0.192395,2.557056
1036,2219377222,-0.345734,0.336794,-0.658603,0.577306,-2.607139,0.775454,1.005917
1037,2219410556,-0.365858,0.326492,-0.647194,0.583689,-2.765977,0.264745,0.103024
1038,2219443890,-0.381308,0.314916,-0.640689,0.587325,-3.138436,0.094714,-0.082150
1039,2219477224,-0.395693,0.307180,-0.635986,0.587018,-2.946136,-0.257609,-1.055820
1040,2219510558,-0.410206,0.304289,-0.630982,0.583954,-2.801341,-0.386360,-1.779218
1041,2219543892,-0.426320,0.303387,-0.624617,0.579710,-2.214703,-0.255467,-1.228882
1042,2219577226,-0.442856,0.302198,-0.619087,0.573836,-1.677873,-0.700094,-1.467162
1043,2219610560,-0.452092,0.298620,-0.619681,0.567835,-0.991457,-0.704620,-1.142468
1044,2219643894,-0.458993,0.296767,-0.620825,0.561990,-1.014690,-0.382158,-1.054248
1045,2219677228,-0.466386,0.300075,-0.619204,0.555902,-0.288568,-0.613495,-1.076353
1046,2219710562,-0.470515,0.304726,-0.617434,0.551847,0.441215,-1.430500,-1.080191
1047,2219743896,-0.468429,0.309320,-0.616924,0.551636,1.027338,-3.370848,0.273905
1048,2219777230,-0.466535,0.316667,-0.614101,0.552221,1.985254,-3.071672,0.577126
1049,2219810564,-0.464300,0.321895,-0.616408,0.548500,-0.756997,-0.954627,-1.590290
1050,2219843898,-0.450088,0.318725,-0.631541,0.544970,-6.769215,-2.620783,-2.864164
1051,2219877232,-0.422815,0.313438,-0.652494,0.545195,2.431237,0.795096,4.407808
1052,2219910566,-0.436544,0.323654,-0.642844,0.539843,4.048807,0.867066,3.321196
1053,2219943900,-0.413732,0.314333,-0.663315,0.538550,-0.395948,-1.564934,0.431517
1054,2219977234,-0.402184,0.313236,-0.675195,0.533147,-3.955516,-1.865097,0.034718
1055,2220010568,-0.386267,0.308094,-0.688232,0.531238,-1.664175,0.422177,-1.275350
1056,2220043902,-0.375311,0.303701,-0.699696,0.526626,-2.700235,0.298133,-1.814352
1057,2220077236,-0.357431,0.295227,-0.717019,0.520548,-1.644001,1.380395,-0.149831
1058,2220110570,-0.338811,0.286275,-0.733240,0.515378,-0.906594,2.223474,1.040178
1059,2220143904,-0.323269,0.278606,-0.746263,0.510852,0.396287,0.178188,0.945990
1060,2220177238,-0.308369,0.269503,-0.758190,0.507371,0.702968,-0.833902,-0.058542
1061,2220210572,-0.291744,0.255321,-0.770189,0.506465,0.376327,-1.242506,0.391057
1062,2220243906,-0.273075,0.235710,-0.781250,0.509432,0.179358,-0.550611,0.223947
1063,2220277240,-0.257951,0.219131,-0.788900,0.512915,-0.435947,0.551457,-0.193423
1064,2220310574,-0.241901,0.204829,-0.796168,0.515409,-1.025407,1.253645,-0.418094
1065,2220343908,-0.224804,0.193175,-0.804337,0.514967,-1.415076,1.372991,-0.260344
1066,2220377242,-0.206990,0.183803,-0.812253,0.513437,-0.231093,0.415164,0.003620
1067,2220410576,-0.190030,0.177393,-0.819121,0.511335,1.054775,0.274616,0.040945
1068,2220443910,-0.176320,0.173886,-0.824871,0.508197,2.006287,0.394353,-0.099063
1069,2220477244,-0.165389,0.172566,-0.829420,0.504908,1.763502,-0.400377,0.159970
1070,2220510578,-0.153396,0.171634,-0.833378,0.502488,0.985989,-1.754040,0.291222
1071,2220543912,-0.140446,0.169718,-0.837178,0.500605,1.059844,-0.862413,0.014509
1072,2220577246,-0.124532,0.165423,-0.840931,0.499964,1.581144,-0.429626,-0.490915
1073,2220610580,-0.108927,0.160118,-0.844107,0.499981,2.023034,-0.891350,0.083637
1074,2220643914,-0.096740,0.155265,-0.845306,0.501989,2.976721,-1.667596,0.347155
1075,2220677248,-0.088866,0.151090,-0.844288,0.506413,3.397155,-2.417782,1.555393
1076,2220710582,-0.086625,0.147027,-0.839714,0.515520,5.070718,-3.886148,2.954659
1077,2220743916,-0.095320,0.143573,-0.825921,0.536803,5.372340,-6.549655,1.990438
1078,2220777250,-0.113816,0.145617,-0.797468,0.574358,1.856669,-7.342482,-0.559659
1079,2220810584,-0.120356,0.137631,-0.772156,0.608563,-0.729069,2.853224,2.180614
1080,2220843918,-0.129588,0.123152,-0.750373,0.636383,-2.582065,4.055086,3.995275
1081,2220877252,-0.148102,0.114973,-0.726042,0.661598,-2.215022,2.663486,-0.178926
1082,2220910586,-0.164748,0.109276,-0.704882,0.681220,-2.821813,2.424445,0.595004
1083,2220943920,-0.175175,0.098166,-0.690279,0.695122,-3.483190,2.622693,-0.493314
1084,2220977254,-0.182770,0.086462,-0.681893,0.702953,-2.754949,2.659340,-2.314163
1085,2221010588,-0.192637,0.085231,-0.677499,0.704715,-2.424479,3.086943,-2.996855
1086,2221043922,-0.205877,0.091578,-0.674399,0.703147,-3.036795,3.156181,-2.943188
1087,2221077256,-0.219115,0.095475,-0.673347,0.699628,-2.788691,2.373462,-2.544686
1088,2221110590,-0.229355,0.095085,-0.678096,0.691768,-2.360393,1.699065,-2.511311
1089,2221143924,-0.235804,0.093685,-0.685760,0.682169,-1.233544,0.584449,-0.090821
1090,2221177258,-0.240646,0.096450,-0.690893,0.674875,0.098340,-3.536661,1.239365
1091,2221210592,-0.241500,0.103222,-0.692090,0.672336,1.571791,-5.705942,0.620011
1092,2221243926,-0.247364,0.117009,-0.692637,0.667364,0.875739,-3.261319,0.678592
1093,2221277260,-0.254369,0.128737,-0.693804,0.661333,-0.864299,0.478624,-0.714719
1094,2221310594,-0.242932,0.127134,-0.706430,0.652518,-5.499097,0.658725,-0.610684
1095,2221343928,-0.237631,0.132260,-0.713770,0.645424,1.404020,-0.746973,3.396893
1096,2221377262,-0.228734,0.129657,-0.721663,0.640370,-0.748293,-1.901724,2.358457
1097,2221410596,-0.212481,0.124125,-0.736946,0.629569,-2.643921,-0.070600,0.381479
1098,2221443930,-0.200537,0.117491,-0.750015,0.619241,-1.034176,2.846536,-2.067158
1099,2221477264,-0.191135,0.110587,-0.758459,0.613172,0.775788,1.572096,-1.081731
1100,2221510598,-0.184809,0.106610,-0.768009,0.603857,0.133881,2.507380,0.266719
1101,2221543932,-0.181597,0.106126,-0.777471,0.592706,-0.565712,2.521708,0.538400
1102,2221577266,-0.176714,0.105194,-0.786803,0.581935,-0.680415,-0.309770,0.461891
1103,2221610600,-0.168190,0.101033,-0.796357,0.572120,-1.628876,-1.695557,0.277625
1104,2221643934,-0.151698,0.088775,-0.805439,0.566018,-0.291214,-2.116804,0.248169
1105,2221677268,-0.139745,0.078228,-0.810951,0.562772,0.384147,0.739656,0.597440
1106,2221710602,-0.126184,0.067445,-0.815415,0.560918,0.094554,0.694121,-0.209274
1107,2221743936,-0.113924,0.059262,-0.819932,0.557873,0.773813,1.271855,-0.457112
1108,2221777270,-0.101831,0.051300,-0.824615,0.554086,0.162801,0.628173,0.140663
1109,2221810604,-0.089090,0.044588,-0.828665,0.550808,0.376043,-0.553208,0.140071
1110,2221843938,-0.078454,0.041247,-0.831766,0.548006,1.203670,-0.145502,-0.093036
1111,2221877272,-0.069235,0.039978,-0.835135,0.544205,1.059298,0.620526,-0.051739
1112,2221910606,-0.058971,0.038988,-0.838681,0.540017,0.468782,-0.798539,0.057055
1113,2221943940,-0.048041,0.037576,-0.842116,0.535839,0.549479,-0.827704,0.056221
1114,2221977274,-0.034360,0.033893,-0.845193,0.532279,1.005065,-0.311979,0.014237
1115,2222010608,-0.020143,0.029790,-0.847762,0.529159,1.451122,-0.281393,0.058746
1116,2222043942,-0.007154,0.027063,-0.849669,0.526574,2.035805,-0.685733,0.280444
1117,2222077276,0.002793,0.026862,-0.851048,0.524394,2.221004,-1.205628,0.887819
1118,2222110610,0.008473,0.029703,-0.851181,0.523964,2.240046,-2.498109,1.582394
1119,2222143944,0.009371,0.034364,-0.848254,0.528392,3.102452,-4.639779,2.297524
1120,2222177278,0.001752,0.043504,-0.838630,0.542960,2.834483,-6.029904,1.309818
1121,2222210612,-0.014140,0.059661,-0.816896,0.573519,2.278935,-6.883222,-1.590986
1122,2222243946,-0.023251,0.070067,-0.791933,0.606130,3.508974,0.349430,0.878180
1123,2222277280,-0.035774,0.071471,-0.770611,0.632275,1.574767,4.763100,3.051989
1124,2222310614,-0.062062,0.076581,-0.748111,0.656212,0.683099,3.814404,1.084507
1125,2222343948,-0.088420,0.080278,-0.727030,0.676141,0.429653,3.449091,1.134924
1126,2222377282,-0.113000,0.082108,-0.709229,0.691003,-1.766960,3.519136,-0.168868
1127,2222410616,-0.134292,0.081056,-0.696043,0.700658,-1.816317,3.318748,-0.790902
1128,2222443950,-0.157575,0.085607,-0.686402,0.704767,-2.216075,3.386827,-2.105010
1129,2222477284,-0.181362,0.096671,-0.679410,0.704391,-3.528004,2.895444,-2.617195
1130,2222510618,-0.200603,0.105500,-0.676402,0.700793,-3.690908,1.751857,-2.536550
1131,2222543952,-0.217568,0.113011,-0.676481,0.694455,-3.226034,1.183835,-2.935217
1132,2222577286,-0.232177,0.120535,-0.678971,0.685978,-2.488854,0.278711,-1.118456
1133,2222610620,-0.243689,0.129423,-0.679341,0.679973,-1.070374,-3.049880,0.204768
1134,2222643954,-0.253748,0.140920,-0.677922,0.675409,1.875906,-4.128812,0.420423
1135,2222677288,-0.262709,0.153915,-0.675736,0.671325,1.664508,-1.769422,1.835755
1136,2222710622,-0.274639,0.168572,-0.670463,0.668310,2.701634,-1.578736,1.521502
1137,2222743956,-0.286944,0.181442,-0.667994,0.662214,-1.219421,0.783343,-1.899787
1138,2222777290,-0.290704,0.190423,-0.672848,0.653075,-6.063993,0.850314,-2.865102
1139,2222810624,-0.280502,0.197044,-0.683228,0.644743,-1.270388,-1.314483,3.838857
1140,2222843958,-0.288557,0.209267,-0.679725,0.641029,0.527935,-3.476087,2.449788
1141,2222877292,-0.274052,0.199008,-0.696723,0.632353,-2.821628,-1.655996,4.998837
1142,2222910626,-0.249947,0.177194,-0.719984,0.622699,-5.815844,2.910686,-3.898629
1143,2222943960,-0.232160,0.163158,-0.732730,0.618538,0.944351,2.751603,-0.996651
1144,2222977294,-0.226195,0.155643,-0.740202,0.613770,-0.232376,1.205184,-0.952637
1145,2223010628,-0.215870,0.147116,-0.752884,0.604090,-1.845475,3.533709,-0.292977
1146,2223043962,-0.206029,0.142770,-0.763776,0.594826,0.321168,1.598827,0.606361
1147,2223077296,-0.197788,0.140503,-0.773844,0.585069,-0.681870,0.665220,0.357382
1148,2223110630,-0.188344,0.137632,-0.783940,0.575347,0.835402,0.724790,0.076932
1149,2223143964,-0.177404,0.130294,-0.792929,0.568170,1.044753,-0.932462,0.376147
1150,2223177298,-0.169603,0.122003,-0.799022,0.563840,0.999249,-0.728384,0.534834
1151,2223210632,-0.162745,0.114334,-0.803284,0.561408,0.034348,-0.006885,-0.042578
1152,2223243966,-0.156737,0.108292,-0.806546,0.559636,-0.037276,0.001707,-0.322062
1153,2223277300,-0.150397,0.102190,-0.809590,0.558125,0.038876,-0.203545,-0.157612
1154,2223310634,-0.143370,0.096896,-0.812890,0.556118,-0.096591,0.047097,0.199387
1155,2223343968,-0.136794,0.094482,-0.816294,0.553196,-0.144064,0.148753,-0.144172
1156,2223377302,-0.130548,0.095270,-0.819696,0.549528,0.276973,-0.756978,0.154951
1157,2223410636,-0.123536,0.095949,-0.823263,0.545686,0.505314,-0.301555,0.409838
1158,2223443970,-0.113652,0.092916,-0.827718,0.541604,0.006235,-1.538236,-0.004079
1159,2223477304,-0.103333,0.088926,-0.831412,0.538675,2.042818,-0.339446,-0.269117
1160,2223510638,-0.093435,0.083592,-0.833715,0.537776,1.921736,-1.125505,0.062960
1161,2223543972,-0.086029,0.081388,-0.833989,0.538925,2.587689,-2.486840,0.856594
1162,2223577306,-0.085537,0.086257,-0.829455,0.545206,3.076347,-3.545872,3.241185
1163,2223610640,-0.095892,0.099758,-0.814918,0.562817,2.831164,-9.135428,2.108562
1164,2223643974,-0.105705,0.118465,-0.783908,0.600236,0.918860,-6.276158,0.909246
1165,2223677308,-0.098799,0.119935,-0.757677,0.633863,1.598539,3.026930,1.128966
1166,2223710642,-0.098524,0.112690,-0.736175,0.660032,2.330133,5.912264,1.386025
1167,2223743976,-0.114222,0.115094,-0.716040,0.678966,2.244140,4.779339,0.480894
1168,2223777310,-0.138530,0.129080,-0.695844,0.692784,0.438602,4.425041,-1.235540
1169,2223810644,-0.162043,0.148476,-0.679878,0.699617,-1.787033,3.442292,-0.436187
1170,2223843978,-0.182478,0.165411,-0.667393,0.702801,-1.325756,3.082922,-1.230416
1171,2223877312,-0.202347,0.183545,-0.657198,0.702467,-1.841678,2.612988,-1.918209
1172,2223910646,-0.220722,0.201832,-0.648764,0.699752,-2.684300,1.853449,-1.899902
1173,2223943980,-0.237826,0.217189,-0.641789,0.695971,-2.516947,1.128305,-2.038527
1174,2223977314,-0.253767,0.231725,-0.637691,0.689389,-2.633165,0.197728,-1.914811
1175,2224010648,-0.269058,0.246537,-0.634133,0.681692,-1.409503,-0.056299,-1.030532
1176,2224043982,-0.285304,0.261836,-0.628252,0.674792,-0.424616,-0.239697,-0.087047
1177,2224077316,-0.303419,0.276908,-0.618281,0.670067,1.052946,-1.269654,1.597746
1178,2224110650,-0.321155,0.294369,-0.610060,0.661842,1.164192,-2.434278,0.575055
1179,2224143984,-0.334600,0.309140,-0.605419,0.652644,3.508213,-1.424538,1.175673
1180,2224177318,-0.355435,0.330141,-0.598859,0.637216,2.134820,1.175558,-0.095823
1181,2224210652,-0.370182,0.345297,-0.595347,0.623938,0.119559,1.273755,-2.734202
1182,2224243986,-0.381151,0.364504,-0.596698,0.604825,-4.409927,2.975327,-4.407086
1183,2224277320,-0.380978,0.390258,-0.605597,0.579490,-5.418499,-1.071081,4.115306
1184,2224310654,-0.394338,0.418844,-0.593904,0.562447,4.676840,-6.533243,8.907099
1185,2224343988,-0.389841,0.431661,-0.596751,0.552796,-0.800333,-4.656775,3.878113
1186,2224377322,-0.390412,0.443740,-0.606896,0.531368,-4.033081,1.373199,-3.571260
1187,2224410656,-0.372203,0.425304,-0.627851,0.535151,-2.309291,4.074230,-3.291907
1188,2224443990,-0.353651,0.409095,-0.644537,0.540505,1.290909,2.076409,-0.022004
1189,2224477324,-0.350228,0.407916,-0.652468,0.534071,-0.616548,1.072755,1.079022
1190,2224510658,-0.354355,0.416015,-0.654636,0.522319,-0.944347,2.421464,-0.295886
1191,2224543992,-0.347984,0.420665,-0.662524,0.512846,-0.208198,2.487612,-0.490039
1192,2224577326,-0.344258,0.425616,-0.670008,0.501426,-0.991489,1.672083,-0.578703
1193,2224610660,-0.343797,0.428986,-0.674903,0.492222,-0.333380,0.059243,-0.730095
1194,2224643994,-0.339056,0.431654,-0.680907,0.484854,-0.240639,0.261745,0.471465
1195,2224677328,-0.333935,0.436306,-0.686366,0.476474,-1.114711,0.148447,0.280807
1196,2224710662,-0.327935,0.440367,-0.692455,0.468021,-0.409150,-0.171235,-0.398846
1197,2224743996,-0.318902,0.441698,-0.699603,0.462343,1.189643,-0.148686,0.068903
1198,2224777330,-0.312810,0.444713,-0.703425,0.457794,1.623403,1.225089,-0.054179
1199,2224810664,-0.305861,0.447534,-0.706419,0.455122,0.954625,0.643142,0.734622
1200,2224843998,-0.298148,0.449931,-0.709753,0.452683,1.437022,-0.372933,-0.048478
1201,2224877332,-0.289089,0.450637,-0.713203,0.452435,2.186932,1.063120,-0.698676
1202,2224910666,-0.281735,0.451481,-0.715583,0.452473,4.085796,1.417442,1.401311
1203,2224944000,-0.289479,0.457392,-0.707116,0.454954,4.868218,-0.867250,4.518232
1204,2224977334,-0.312956,0.468994,-0.680074,0.468620,9.325553,-5.970452,2.141022
1205,2225010668,-0.343688,0.475487,-0.633800,0.504073,9.984164,0.814697,1.913139
1206,2225044002,-0.354197,0.463720,-0.611441,0.534462,-0.517958,10.670469,1.231894
1207,2225077336,-0.377775,0.450461,-0.596120,0.546820,-4.908987,11.034438,0.909632
1208,2225110670,-0.425749,0.454503,-0.560957,0.545430,-2.658366,5.602075,0.524891
1209,2225144004,-0.470811,0.465798,-0.525478,0.534083,-3.710177,4.044926,-1.117908
1210,2225177338,-0.508037,0.477240,-0.496495,0.517335,-6.136254,2.727888,-0.596898
1211,2225210672,-0.542421,0.491164,-0.469410,0.494159,-6.490927,1.430667,-1.334933
1212,2225244006,-0.570990,0.508483,-0.443663,0.467525,-5.353866,-0.825683,-3.620100
1213,2225277340,-0.592907,0.525037,-0.422209,0.441065,-4.879939,-3.027842,-3.376395
1214,2225310674,-0.609183,0.541552,-0.404739,0.414494,-3.125739,-3.905426,-2.572910
1215,2225344008,-0.622843,0.557629,-0.386160,0.389871,-1.309654,-3.447571,-1.979638
1216,2225377342,-0.636478,0.572325,-0.364444,0.366772,0.303719,-2.491504,-0.142902
1217,2225410676,-0.648939,0.589494,-0.336699,0.343526,3.846130,-1.090556,1.785999
1218,2225444010,-0.660163,0.612333,-0.298992,0.315974,3.881474,2.935957,2.227541
1219,2225477344,-0.674227,0.628171,-0.264265,0.284580,0.122336,6.590477,2.070997
1220,2225510678,-0.683130,0.643153,-0.241787,0.247441,-4.548573,1.284538,-2.869238
1221,2225544012,-0.681118,0.659193,-0.229272,0.221313,-2.477132,-6.579024,-4.547266
1222,2225577346,-0.675077,0.674116,-0.217325,0.206422,4.589531,-2.278488,8.171410
1223,2225610680,-0.678254,0.683167,-0.196280,0.186360,8.235737,-2.085821,7.352322
1224,2225644014,-0.676449,0.686376,-0.196285,0.181051,-3.625071,-1.802045,-1.988584
1225,2225677348,-0.657291,0.694762,-0.219127,0.193029,-6.802058,-2.856955,-5.040025
1226,2225710682,-0.647795,0.705111,-0.221637,0.184549,-5.608569,-2.376632,-0.743268
1227,2225744016,-0.636901,0.720659,-0.216808,0.167343,-1.469412,-3.526450,-0.317701
1228,2225777350,-0.619783,0.741622,-0.208199,0.150069,-0.433633,-1.880639,0.513697
1229,2225810684,-0.605376,0.759859,-0.195781,0.133438,-0.562925,-0.532200,0.026167
1230,2225844018,-0.593550,0.773211,-0.186597,0.122584,-1.040775,-0.058944,-0.002996
1231,2225877352,-0.583532,0.783508,-0.180934,0.113447,0.195792,0.704512,0.135695
1232,2225910686,-0.574022,0.791238,-0.179652,0.110306,0.269258,1.335281,0.583300
1233,2225944020,-0.567181,0.796838,-0.178279,0.107575,-1.634366,0.694705,0.145559
1234,2225977354,-0.563158,0.800953,-0.175204,0.103115,-0.642108,0.044775,0.392957
1235,2226010688,-0.561210,0.804255,-0.169772,0.096935,-0.125551,0.221362,0.254589
1236,2226044022,-0.557187,0.808506,-0.165403,0.092217,-0.376140,-0.603719,-0.088341
1237,2226077356,-0.553031,0.812522,-0.162212,0.087484,-0.686272,0.174368,0.138648
1238,2226110690,-0.552133,0.814202,-0.159275,0.082807,0.037907,1.056869,0.032156
1239,2226144024,-0.551339,0.815427,-0.157380,0.079605,0.010505,1.013542,0.339531
1240,2226177358,-0.550611,0.816152,-0.156416,0.079110,0.165135,0.533435,0.245423
1241,2226210692,-0.549796,0.816666,-0.156246,0.079819,-0.443146,0.811419,0.143338
1242,2226244026,-0.550838,0.815544,-0.157581,0.081456,-0.195083,0.432369,0.174888
1243,2226277360,-0.550865,0.814940,-0.158912,0.084671,0.241719,-0.057443,-0.204873
1244,2226310694,-0.548825,0.815642,-0.159174,0.090468,-0.929256,0.204619,0.174851
1245,2226344028,-0.544199,0.818256,-0.158405,0.095987,-1.393415,-0.614298,-0.061201
1246,2226377362,-0.538174,0.821478,-0.157867,0.103065,-1.126984,-0.307522,0.028944
1247,2226410696,-0.532355,0.824629,-0.156276,0.110297,-1.196413,0.774952,-0.025443
1248,2226444030,-0.529248,0.827037,-0.151637,0.113643,-2.048530,1.733872,0.678144
1249,2226477364,-0.531564,0.827018,-0.144220,0.112623,-1.588860,2.812905,1.981861
1250,2226510698,-0.541903,0.822859,-0.132080,0.108627,-0.236718,4.133560,1.512678
1251,2226544032,-0.558808,0.813842,-0.117795,0.107338,-1.164773,3.468028,0.784305
1252,2226577366,-0.582101,0.801428,-0.094751,0.099478,-1.021223,3.736421,0.216987
1253,2226610700,-0.607901,0.786695,-0.065130,0.085595,-1.574412,3.184047,0.069184
1254,2226644034,-0.634905,0.767814,-0.041473,0.075086,-3.735060,1.459819,0.568846
1255,2226677368,-0.656767,0.750870,-0.030220,0.062769,-3.583888,-2.661644,0.283154
1256,2226710702,-0.672701,0.738195,-0.025184,0.043688,-4.268476,-4.340589,0.322775
1257,2226744036,-0.685612,0.727695,-0.012884,0.015215,-1.983984,-4.403191,-0.339782
1258,2226777370,-0.694480,0.719280,0.006058,-0.017285,-0.912280,-4.703394,0.242878
1259,2226810704,-0.697993,0.713597,0.028825,-0.052508,-0.346906,-3.633538,-1.519988
1260,2226844038,-0.696165,0.710397,0.054211,-0.088048,1.195938,-2.907580,-1.777843
1261,2226877372,-0.690679,0.707745,0.081112,-0.124427,1.379563,-2.144646,-0.461034
1262,2226910706,-0.684859,0.703311,0.105028,-0.159035,0.949138,-1.558430,0.714240
1263,2226944040,-0.679188,0.696786,0.125142,-0.193737,1.615163,-1.068104,0.784686
1264,2226977374,-0.673208,0.690866,0.140455,-0.223088,2.349745,0.143624,0.262283
1265,2227010708,-0.666129,0.685594,0.156771,-0.248308,2.483303,0.726798,-0.234176
1266,2227044042,-0.657939,0.678668,0.177885,-0.273652,2.891331,0.585899,-1.035398
1267,2227077376,-0.649348,0.672139,0.197377,-0.296007,2.467988,0.563324,-1.064226
1268,2227110710,-0.640704,0.668294,0.211860,-0.313048,1.257246,0.947171,-1.341457
1269,2227144044,-0.632126,0.669227,0.219030,-0.323387,0.349969,0.830907,-0.967703
1270,2227177378,-0.624106,0.674092,0.222675,-0.326355,-0.253134,0.736220,-0.413756
1271,2227210712,-0.615429,0.675624,0.232219,-0.332949,-1.298052,0.298476,0.028580
1272,2227244046,-0.605309,0.678562,0.242890,-0.337878,1.980191,-0.392636,0.576875
1273,2227277380,-0.594534,0.690424,0.249152,-0.328281,2.224836,1.284620,3.279646
1274,2227310714,-0.587658,0.689793,0.260000,-0.333535,0.214879,2.580911,2.034894
1275,2227344048,-0.584601,0.701686,0.254294,-0.318143,0.294939,2.204390,-0.568259
1276,2227377382,-0.579245,0.715365,0.246712,-0.303088,1.815303,-0.904045,-1.432461
1277,2227410716,-0.573944,0.728404,0.240111,-0.286992,-0.381723,-2.375651,-0.020863
1278,2227444050,-0.566763,0.737993,0.239476,-0.277125,-0.217433,-1.146645,0.283894
1279,2227477384,-0.559179,0.745781,0.242394,-0.269030,0.706859,-0.701359,0.164206
1280,2227510718,-0.550238,0.754368,0.245391,-0.260674,0.414666,-1.031973,0.525983
1281,2227544052,-0.542715,0.762819,0.245165,-0.251920,-0.650208,-1.089790,0.290948
1282,2227577386,-0.537157,0.771464,0.239695,-0.242597,-1.076832,-0.214729,0.384320
1283,2227610720,-0.534817,0.778676,0.231070,-0.232902,-0.828851,1.949595,0.267943
1284,2227644054,-0.534364,0.783090,0.223841,-0.226102,0.332719,-0.046512,0.066997
1285,2227677388,-0.534505,0.785855,0.219187,-0.220671,0.552188,-1.292689,-0.352834
1286,2227710722,-0.534030,0.789098,0.215483,-0.213789,1.288949,-0.852572,-0.189629
1287,2227744056,-0.532446,0.793608,0.211853,-0.204470,1.572629,-0.533857,-0.138532
1288,2227777390,-0.529422,0.798973,0.209302,-0.193776,0.930791,-0.897952,-0.165542
1289,2227810724,-0.524543,0.804683,0.209206,-0.183235,0.552684,-1.069419,0.289778
1290,2227844058,-0.518722,0.809890,0.211581,-0.173897,-0.010708,-0.757666,0.244648
1291,2227877392,-0.512978,0.814780,0.214064,-0.164818,-0.403778,0.268450,0.056601
1292,2227910726,-0.508336,0.819311,0.215571,-0.154450,-0.702871,0.875764,0.304717
1293,2227944060,-0.505710,0.823275,0.214904,-0.142457,-1.515669,1.010617,0.372162
1294,2227977394,-0.505212,0.826669,0.211274,-0.129400,-2.141801,0.742152,0.140837
1295,2228010728,-0.506455,0.829284,0.205875,-0.115792,-2.320451,0.385698,0.159420
1296,2228044062,-0.508682,0.830675,0.201243,-0.103559,-2.906991,0.381390,0.185180
1297,2228077396,-0.510987,0.830724,0.199302,-0.095236,-3.571455,0.928781,0.352030
1298,2228110730,-0.515131,0.828581,0.199502,-0.091075,-4.062621,1.582081,0.208399
1299,2228144064,-0.522920,0.822913,0.201656,-0.093307,-5.066146,2.673839,0.959404
1300,2228177398,-0.539149,0.810293,0.204465,-0.104595,-6.162956,4.724239,1.685209
1301,2228210732,-0.569650,0.784714,0.209114,-0.126471,-4.665918,5.853996,0.320886
1302,2228244066,-0.600850,0.758914,0.206769,-0.142396,-1.511854,-2.639095,1.643595
1303,2228277400,-0.623278,0.742222,0.190889,-0.155544,1.399181,-5.774393,2.829453
1304,2228310734,-0.639561,0.725259,0.180156,-0.180296,1.156329,-3.939300,0.997685
1305,2228344068,-0.650594,0.705781,0.181106,-0.214017,1.272290,-2.323599,0.407326
1306,2228377402,-0.656271,0.688879,0.183899,-0.246853,3.027722,-2.304663,0.245530
1307,2228410736,-0.656955,0.676704,0.187244,-0.274631,3.574204,-0.990092,-0.816132
1308,2228444070,-0.654523,0.665584,0.195530,-0.300611,4.002482,-0.778580,-1.333976
1309,2228477404,-0.651384,0.654424,0.205742,-0.324191,4.041479,-0.085626,-1.479818
1310,2228510738,-0.648393,0.646771,0.209956,-0.342336,3.346804,0.064536,-1.006845
1311,2228544072,-0.643975,0.643225,0.209578,-0.357262,2.797685,0.371495,-1.441205
1312,2228577406,-0.638119,0.643082,0.209451,-0.367943,2.938781,0.470629,-1.748430
1313,2228610740,-0.631292,0.643158,0.213294,-0.377261,1.650640,0.378740,-1.405255
1314,2228644074,-0.625468,0.642742,0.218498,-0.384620,0.641356,0.865661,-1.480149
1315,2228677408,-0.619090,0.643754,0.224677,-0.389654,-1.078432,0.628794,-0.258586
1316,2228710742,-0.614556,0.646465,0.230325,-0.389046,-0.759318,2.527956,0.591701
1317,2228744076,-0.613037,0.644224,0.240574,-0.388957,-1.476776,3.535992,1.595304
1318,2228777410,-0.609283,0.641737,0.251782,-0.391861,-0.208783,1.490496,-0.257197
1319,2228810744,-0.603728,0.646766,0.255680,-0.389661,4.621604,-0.998563,-2.918218
1320,2228844078,-0.597760,0.666537,0.250124,-0.368581,5.514656,0.978321,1.495142
1321,2228877412,-0.592358,0.667160,0.259745,-0.369519,-5.836985,0.520471,5.191516
1322,2228910746,-0.590230,0.680791,0.250951,-0.353805,-1.136244,0.797216,0.670630
1323,2228944080,-0.583111,0.694233,0.250547,-0.339486,2.674155,0.929833,0.279634
1324,2228977414,-0.577727,0.707872,0.244457,-0.324640,0.550613,-0.753102,-0.505070
1325,2229010748,-0.572019,0.722850,0.236193,-0.307403,2.410270,-1.638279,-1.579727
1326,2229044082,-0.563832,0.737484,0.229883,-0.292176,1.211562,-1.140181,-0.130535
1327,2229077416,-0.554894,0.750809,0.226548,-0.277590,1.098802,-1.643025,0.846680
1328,2229110750,-0.547411,0.763044,0.222093,-0.262262,0.112120,-1.234374,0.877920
1329,2229144084,-0.541493,0.774587,0.213951,-0.247036,-1.204432,-0.076224,0.284501
1330,2229177418,-0.537656,0.785631,0.200896,-0.230980,-0.880292,2.029876,0.045865
1331,2229210752,-0.537419,0.793651,0.185847,-0.216243,-0.467395,1.514177,0.760146
1332,2229244086,-0.539168,0.798281,0.174084,-0.204308,0.641592,-1.178282,-0.185367
1333,2229277420,-0.538912,0.802787,0.166092,-0.193706,0.882827,-2.296424,-0.803741
1334,2229310754,-0.537668,0.807755,0.158375,-0.182657,0.893757,-1.040125,-0.305942
1335,2229344088,-0.535227,0.813906,0.149763,-0.169299,0.735725,0.121125,0.028270
1336,2229377422,-0.532619,0.819350,0.142858,-0.156769,-0.672901,0.107136,-0.016713
1337,2229410756,-0.530864,0.823271,0.138068,-0.146106,-1.447286,-0.174936,0.259425
1338,2229444090,-0.529001,0.826627,0.135305,-0.136165,-0.624605,0.053425,0.352615
1339,2229477424,-0.526527,0.830237,0.133563,-0.125050,-0.325057,0.441778,0.156256
1340,2229510758,-0.524282,0.834163,0.130003,-0.111358,-0.643147,0.741580,0.251653
1341,2229544092,-0.522691,0.837917,0.124587,-0.095754,-1.344781,0.265399,-0.085153
1342,2229577426,-0.521816,0.840994,0.118635,-0.079777,-1.711182,0.842574,0.239238
1343,2229610760,-0.521564,0.842874,0.114637,-0.066291,-2.243778,1.250947,-0.234483
1344,2229644094,-0.521867,0.843793,0.112187,-0.055525,-3.051808,1.869560,0.247104
1345,2229677428,-0.524696,0.842026,0.114165,-0.051530,-3.877036,1.998908,0.563278
1346,2229710762,-0.532198,0.836128,0.120078,-0.056905,-5.565949,4.009771,1.523214
1347,2229744096,-0.553639,0.819354,0.127939,-0.076008,-6.651409,8.737371,1.214582
1348,2229777430,-0.589975,0.788933,0.140624,-0.098697,-1.456059,2.891159,1.610870
1349,2229810764,-0.623554,0.763618,0.131217,-0.104170,-0.272334,-3.792886,3.962879
1350,2229844098,-0.648456,0.744215,0.113449,-0.113050,1.919117,-4.793704,2.053441
1351,2229877432,-0.669841,0.722431,0.105818,-0.134945,0.536824,-3.233349,0.182788
1352,2229910766,-0.685038,0.702768,0.105302,-0.160478,2.003208,-3.162619,-0.094349
1353,2229944100,-0.694692,0.687191,0.106563,-0.183893,2.362476,-2.928694,-0.888834
1354,2229977434,-0.698599,0.676695,0.109748,-0.204939,2.783204,-1.668753,-1.983323
1355,2230010768,-0.698423,0.667416,0.121349,-0.228116,2.954993,-1.984913,-1.498774
1356,2230044102,-0.696887,0.657266,0.137779,-0.251730,4.099151,-1.632700,-1.859727
1357,2230077436,-0.695497,0.649667,0.146214,-0.269888,3.093678,-1.008054,-1.748719
1358,2230110770,-0.691348,0.648808,0.145329,-0.282786,2.553547,-0.613841,-1.970562
1359,2230144104,-0.683428,0.652474,0.146172,-0.292983,2.954709,-0.814133,-1.730378
1360,2230177438,-0.674561,0.654367,0.153852,-0.305126,1.717163,-0.405877,-1.322942
1361,2230210772,-0.666847,0.655640,0.163226,-0.314341,0.297373,0.718518,-0.084590
1362,2230244106,-0.659268,0.656032,0.175700,-0.322674,-0.349462,1.504498,0.891522
1363,2230277440,-0.654586,0.656693,0.186553,-0.324762,-1.417507,4.137647,1.060183
1364,2230310774,-0.648554,0.654683,0.202438,-0.331344,-1.327644,2.566669,1.162597
1365,2230344108,-0.641448,0.653003,0.215295,-0.340267,0.903954,0.349742,-0.548461
1366,2230377442,-0.634551,0.660764,0.217891,-0.336544,6.748890,0.255811,-2.670566
1367,2230410776,-0.629680,0.679489,0.210940,-0.311937,2.271703,1.616719,2.927350
1368,2230444110,-0.625963,0.678307,0.219490,-0.316062,-1.933078,2.183651,3.320834
1369,2230477444,-0.619446,0.695388,0.208294,-0.298894,-0.136367,0.917231,0.404903
1370,2230510778,-0.613292,0.713063,0.195147,-0.278090,2.429681,-0.641091,-0.356011
1371,2230544112,-0.610595,0.726662,0.180803,-0.257775,-0.972061,-1.063659,0.489799
1372,2230577446,-0.604028,0.738349,0.173151,-0.244971,1.473941,-2.144946,-0.925498
1373,2230610780,-0.595960,0.750349,0.167090,-0.232145,0.633431,-1.651402,-0.551628
1374,2230644114,-0.587349,0.761408,0.162167,-0.221317,0.531267,-2.444066,0.131023
1375,2230677448,-0.578992,0.772681,0.156111,-0.208237,0.055999,-1.789187,0.472648
1376,2230710782,-0.570281,0.784052,0.148169,-0.195167,-0.484499,-1.266487,0.116970
1377,2230744116,-0.562643,0.793721,0.139655,-0.184222,-1.014078,0.787155,-0.023860
1378,2230777450,-0.557554,0.801658,0.129288,-0.172524,-0.637939,1.097274,0.635040
1379,2230810784,-0.554844,0.806129,0.122654,-0.165109,-0.203657,-0.284896,0.402848
1380,2230844118,-0.552308,0.810309,0.117304,-0.156834,0.630749,-0.397384,-0.475445
1381,2230877452,-0.548852,0.814833,0.112813,-0.148605,0.426300,-0.649322,-0.297381
1382,2230910786,-0.545815,0.819666,0.106168,-0.137713,0.455541,0.343628,0.253834
1383,2230944120,-0.543159,0.823966,0.100482,-0.126346,-0.260868,0.406429,-0.066189
1384,2230977454,-0.540511,0.827281,0.098355,-0.117399,-1.194217,-0.125563,-0.079053
1385,2231010788,-0.538281,0.829734,0.098582,-0.109899,-1.278393,0.126584,-0.045237
1386,2231044122,-0.535462,0.832373,0.099552,-0.102597,-0.424894,0.137068,-0.151084
1387,2231077456,-0.532080,0.835804,0.098654,-0.092687,-0.220921,0.369359,-0.080946
1388,2231110790,-0.529067,0.839332,0.095857,-0.080141,-1.321073,-0.073644,0.155916
1389,2231144124,-0.525956,0.843095,0.090683,-0.065874,-0.906961,1.001241,0.195392
1390,2231177458,-0.522660,0.846620,0.086249,-0.051220,-1.460765,1.907695,0.581904
1391,2231210792,-0.521434,0.847964,0.086384,-0.040031,-2.937738,1.779615,0.888083
1392,2231244126,-0.523209,0.846515,0.091702,-0.035456,-3.977843,1.932707,1.614925
1393,2231277460,-0.531760,0.840508,0.097036,-0.036934,-3.408873,4.039295,1.875911
1394,2231310794,-0.553463,0.824511,0.106966,-0.049206,-3.669044,9.068070,0.448716
1395,2231344128,-0.586104,0.799950,0.115232,-0.057322,-1.619950,1.194666,0.895726
1396,2231377462,-0.617581,0.775920,0.112712,-0.061963,-2.904847,-2.912566,1.723869
1397,2231410796,-0.641751,0.755784,0.105970,-0.075621,-0.917219,-4.665859,1.442984
1398,2231444130,-0.660798,0.736252,0.105256,-0.101002,-0.838862,-4.266486,0.465905
1399,2231477464,-0.675561,0.716738,0.111204,-0.132438,0.508348,-3.906191,0.536174
1400,2231510798,-0.685001,0.699565,0.119937,-0.164317,1.903959,-3.357659,-0.149072
1401,2231544132,-0.688707,0.687015,0.128127,-0.193075,2.617986,-2.649749,-1.219553
1402,2231577466,-0.688529,0.676420,0.140154,-0.220778,2.800575,-2.296430,-1.160548
1403,2231610800,-0.685283,0.665964,0.156741,-0.249625,3.512408,-1.922603,-1.586799
1404,2231644134,-0.681856,0.656695,0.169552,-0.274001,3.428372,-0.782011,-1.668890
1405,2231677468,-0.676656,0.651148,0.177813,-0.294155,3.486008,-0.319027,-1.352357
1406,2231710802,-0.668793,0.649578,0.186460,-0.309835,3.473268,0.197109,-1.728298
1407,2231744136,-0.660679,0.649059,0.196249,-0.322044,2.363462,0.676390,-1.862070
1408,2231777470,-0.651640,0.649690,0.206587,-0.332552,0.787074,1.224123,-0.699157
1409,2231810804,-0.641592,0.650651,0.216935,-0.343444,-0.874473,0.654973,1.105287
1410,2231844138,-0.636109,0.652849,0.221991,-0.346230,-2.697018,2.749565,1.536504
1411,2231877472,-0.630486,0.649902,0.232780,-0.354867,-2.631525,1.822346,1.285858
1412,2231910806,-0.622469,0.648192,0.242319,-0.365599,-0.257231,-0.037814,-1.290656
1413,2231944140,-0.613780,0.652198,0.248006,-0.369332,5.325340,-2.059928,-3.752499
1414,2231977474,-0.604730,0.669633,0.249353,-0.351737,5.799723,0.278281,2.959956
1415,2232010808,-0.597487,0.660135,0.273725,-0.363741,-5.386130,3.748824,7.650642
1416,2232044142,-0.595630,0.670011,0.270598,-0.350839,0.455810,3.789659,0.151261
1417,2232077476,-0.583957,0.687362,0.270020,-0.337074,3.593790,-0.115499,-1.522321
1418,2232110810,-0.580688,0.703862,0.258409,-0.317184,1.555275,-3.518511,-1.731809
1419,2232144144,-0.576011,0.718061,0.249908,-0.300245,0.080413,-1.835550,-0.323310
1420,2232177478,-0.566677,0.730502,0.248432,-0.289011,0.961556,-1.071260,0.378279
1421,2232210812,-0.557895,0.740282,0.250330,-0.279414,0.694186,-1.288233,0.526594
1422,2232244146,-0.551045,0.748820,0.250431,-0.270006,0.259697,-0.494833,0.386059
1423,2232277480,-0.545793,0.759487,0.244235,-0.256204,0.812316,-0.722652,0.003248
1424,2232310814,-0.541994,0.771140,0.232480,-0.239875,0.152824,0.184646,-0.095867
1425,2232344148,-0.539790,0.779666,0.221755,-0.227097,-0.700496,-0.338548,0.266540
1426,2232377482,-0.537799,0.784860,0.215812,-0.219530,-0.319531,-1.377875,-0.120983
1427,2232410816,-0.534552,0.789692,0.212649,-0.213128,0.637595,-1.397980,-0.501649
1428,2232444150,-0.531017,0.794979,0.209571,-0.205212,0.370621,0.099244,-0.170043
1429,2232477484,-0.528126,0.800819,0.205124,-0.194157,0.332036,0.859150,0.426671
1430,2232510818,-0.525528,0.806415,0.201114,-0.181854,-0.299785,0.122841,0.097029
1431,2232544152,-0.522703,0.811440,0.198505,-0.170130,-1.021909,-0.196180,-0.128181
1432,2232577486,-0.519564,0.816146,0.197532,-0.157930,-0.968678,-0.016121,0.339318
1433,2232610820,-0.516044,0.820625,0.197701,-0.145565,-0.668580,0.173973,0.400585
1434,2232644154,-0.513384,0.824849,0.196905,-0.131497,-1.578967,-0.013441,-0.220079
1435,2232677488,-0.511836,0.828807,0.193850,-0.116301,-2.012125,0.520149,0.200294
1436,2232710822,-0.511989,0.831572,0.189851,-0.101553,-2.121475,1.024215,0.031785
1437,2232744156,-0.512916,0.832877,0.187737,-0.089385,-3.789759,1.202871,0.878257
1438,2232777490,-0.516175,0.831071,0.189129,-0.084351,-4.706590,1.827864,0.504727
1439,2232810824,-0.524142,0.824443,0.194031,-0.089008,-6.336940,2.993159,1.485401
1440,2232844158,-0.543971,0.807701,0.200566,-0.107190,-7.281288,7.969598,1.574888
1441,2232877492,-0.575540,0.780118,0.208702,-0.128902,-2.813784,3.785496,1.224819
1442,2232910826,-0.607832,0.755281,0.201008,-0.140316,-0.305312,-4.905234,2.360080
1443,2232944160,-0.630127,0.735518,0.190234,-0.160516,1.869267,-4.296414,2.792023
1444,2232977494,-0.647917,0.714401,0.184528,-0.189171,0.466296,-4.073147,0.096333
1445,2233010828,-0.658789,0.694117,0.187757,-0.221239,2.448251,-2.236918,0.361140
1446,2233044162,-0.665312,0.677087,0.190816,-0.250006,3.753443,-2.176561,-0.336595
1447,2233077496,-0.666838,0.664534,0.195316,-0.274909,3.866762,-1.033553,-1.397907
1448,2233110830,-0.665948,0.653633,0.203710,-0.296280,4.273649,-1.244749,-1.918487
1449,2233144164,-0.663678,0.644548,0.212091,-0.314815,4.080128,-0.977392,-2.290643
1450,2233177498,-0.660674,0.640026,0.214444,-0.328468,3.286704,-0.562762,-1.847986
1451,2233210832,-0.654904,0.641230,0.212598,-0.338716,2.678746,-0.096019,-2.166719
1452,2233244166,-0.646498,0.645061,0.213887,-0.346685,2.410154,-0.059034,-1.683010
1453,2233277500,-0.638200,0.646305,0.219628,-0.356028,1.231758,0.489049,-1.361897
1454,2233310834,-0.631053,0.645228,0.228066,-0.365294,-0.901113,1.283118,0.204633
1455,2233344168,-0.624846,0.644430,0.236936,-0.371672,-0.896886,2.012043,-0.045776
1456,2233377502,-0.621727,0.645915,0.244559,-0.369380,-3.500523,3.393283,2.382092
1457,2233410836,-0.615499,0.642174,0.258604,-0.376695,-1.872730,1.605554,1.154124
1458,2233444170,-0.607337,0.644612,0.267469,-0.379578,4.050741,0.236130,-1.956228
1459,2233477504,-0.601006,0.658763,0.268440,-0.364367,3.184560,1.258596,2.621312
1460,2233510838,-0.595794,0.654882,0.280370,-0.370882,-0.578586,1.241555,4.027135
1461,2233544172,-0.594257,0.668279,0.272293,-0.355133,0.781623,2.154764,0.121354
1462,2233577506,-0.589646,0.686104,0.263441,-0.334933,4.040113,0.098982,-0.520847
1463,2233610840,-0.586697,0.703686,0.248977,-0.314046,2.266585,-2.793860,-1.972897
1464,2233644174,-0.583864,0.717595,0.236010,-0.297425,-0.379266,-1.778675,-0.136460
