sep=,
DeviceTag:,D_leg_new
FirmwareVersion:,2.2.1
AppVersion:,2023.6.0
SyncStatus:,Synced
OutputRate:,30Hz
FilterProfile:,General
Measurement Mode:,Sensor fusion Mode - Complete(Quaternion)
StartTime: ,2026-09-07_14:44:34_816 AEST
© Movella Technologies B. V. 2005-2026

PacketCounter,SampleTimeFine,Quat_W,Quat_X,Quat_Y,Quat_Z,FreeAcc_X,FreeAcc_Y,FreeAcc_Z
1,3658274541,0.582336,-0.109045,-0.804140,-0.048973,0.066093,-0.083616,0.143790
2,3658307875,0.582228,-0.109720,-0.804088,-0.049603,0.044645,-0.074258,0.162603
3,3658341209,0.582187,-0.110412,-0.803984,-0.050230,-0.020839,-0.008257,0.194549
4,3658374543,0.582273,-0.110922,-0.803820,-0.050739,0.078694,0.006834,0.179742
5,3658407877,0.582385,-0.111247,-0.803670,-0.051115,0.074239,0.037356,0.181406
6,3658441211,0.582464,-0.111546,-0.803549,-0.051451,0.044314,0.013680,0.182116
7,3658474545,0.582634,-0.111800,-0.803369,-0.051786,0.079011,-0.038515,0.161522
8,3658507879,0.582911,-0.111940,-0.803135,-0.052013,0.046146,-0.098558,0.165106
9,3658541213,0.583115,-0.112103,-0.802962,-0.052033,-0.092860,-0.075415,0.183319
10,3658574547,0.583139,-0.112367,-0.802907,-0.052050,-0.077021,-0.067893,0.201064
11,3658607881,0.583168,-0.112634,-0.802843,-0.052124,0.100833,-0.077767,0.203414
12,3658641215,0.583238,-0.112893,-0.802752,-0.052186,0.097086,-0.071776,0.189562
13,3658674549,0.583350,-0.113168,-0.802627,-0.052260,0.118796,-0.028923,0.203163
14,3658707883,0.583434,-0.113652,-0.802476,-0.052582,0.131396,0.068736,0.156863
15,3658741217,0.583365,-0.114118,-0.802439,-0.052908,0.115338,0.113287,0.149074
16,3658774551,0.583171,-0.114363,-0.802536,-0.053042,0.121441,0.251853,0.123800
17,3658807885,0.582782,-0.113936,-0.802910,-0.052588,0.203172,0.268630,0.131009
18,3658841219,0.582260,-0.113015,-0.803476,-0.051697,0.218812,0.214415,0.180820
19,3658874553,0.581753,-0.111860,-0.804075,-0.050588,0.233028,0.196280,0.163500
20,3658907887,0.581302,-0.110553,-0.804652,-0.049477,0.275369,0.107063,0.177083
21,3658941221,0.580947,-0.109177,-0.805157,-0.048473,0.202915,0.046728,0.156459
22,3658974555,0.580635,-0.107592,-0.805665,-0.047296,0.109705,-0.021601,0.139772
23,3659007889,0.580282,-0.106101,-0.806183,-0.046147,0.049731,-0.077736,0.245434
24,3659041223,0.579933,-0.104820,-0.806660,-0.045126,-0.083827,-0.170852,0.140218
25,3659074557,0.579324,-0.103848,-0.807269,-0.044282,-0.101490,-0.306995,0.172753
26,3659107891,0.578651,-0.103198,-0.807881,-0.043443,-0.134701,-0.271935,0.174429
27,3659141225,0.577959,-0.102641,-0.808493,-0.042585,-0.113416,-0.162967,0.170796
28,3659174559,0.577154,-0.101887,-0.809223,-0.041432,-0.141007,-0.115271,0.196249
29,3659207893,0.576400,-0.100886,-0.809961,-0.039932,-0.151783,-0.009756,0.158256
30,3659241227,0.575729,-0.099596,-0.810678,-0.038257,-0.034165,-0.149535,0.109168
31,3659274561,0.575293,-0.098565,-0.811181,-0.036786,-0.072772,-0.165495,0.094714
32,3659307895,0.574918,-0.097788,-0.811604,-0.035383,-0.205567,-0.096474,0.104672
33,3659341229,0.574348,-0.097329,-0.812110,-0.034274,-0.105571,-0.105672,0.225050
34,3659374563,0.573818,-0.097595,-0.812478,-0.033669,0.062741,-0.020132,0.166805
35,3659407897,0.573482,-0.098661,-0.812566,-0.034165,0.142461,-0.061566,0.277037
36,3659441231,0.573253,-0.100424,-0.812445,-0.035706,0.261686,-0.029186,0.192296
37,3659474565,0.573079,-0.103054,-0.812122,-0.038273,0.265689,0.102291,0.184672
38,3659507899,0.572852,-0.106287,-0.811698,-0.041667,0.155809,0.131058,0.166122
39,3659541233,0.572535,-0.110040,-0.811204,-0.045699,0.049680,0.119578,0.151521
40,3659574567,0.572251,-0.114438,-0.810521,-0.050337,0.055468,0.098131,0.174407
41,3659607901,0.572043,-0.118922,-0.809685,-0.055499,0.089343,0.011140,0.179029
42,3659641235,0.571900,-0.123655,-0.808683,-0.060969,0.134543,-0.061622,0.185269
43,3659674569,0.571938,-0.128944,-0.807360,-0.066916,0.119842,-0.155114,0.186293
44,3659707903,0.572098,-0.134793,-0.805701,-0.073667,0.005199,-0.245445,0.230714
45,3659741237,0.572373,-0.140783,-0.803818,-0.080578,-0.050520,-0.137589,0.166575
46,3659774571,0.572476,-0.146823,-0.801955,-0.087341,0.010686,-0.051147,0.205913
47,3659807905,0.572434,-0.152850,-0.800119,-0.093873,-0.041153,-0.008778,0.165533
48,3659841239,0.572473,-0.158323,-0.798307,-0.099800,-0.073014,0.145229,0.174530
49,3659874573,0.572479,-0.162896,-0.796722,-0.104942,0.110223,-0.008317,0.158742
50,3659907907,0.572298,-0.166918,-0.795412,-0.109451,0.076625,-0.044925,0.182130
51,3659941241,0.572219,-0.170595,-0.794117,-0.113521,0.114317,-0.014692,0.156173
52,3659974575,0.572159,-0.174283,-0.792754,-0.117675,0.206702,-0.145789,0.185299
53,3660007909,0.571988,-0.178072,-0.791407,-0.121829,0.095868,-0.094991,0.111037
54,3660041243,0.571530,-0.181725,-0.790341,-0.125446,0.006287,-0.020967,0.071612
55,3660074577,0.571014,-0.184800,-0.789561,-0.128184,-0.020070,0.172256,0.149607
56,3660107911,0.570676,-0.186658,-0.789133,-0.129630,0.117805,0.306884,0.127380
57,3660141245,0.570141,-0.187134,-0.789419,-0.129555,0.292460,0.136979,0.145010
58,3660174579,0.569461,-0.186753,-0.790204,-0.128307,0.267423,0.111722,0.185266
59,3660207913,0.568863,-0.185792,-0.791155,-0.126478,0.183174,0.053870,0.209985
60,3660241247,0.568539,-0.184351,-0.792042,-0.124478,0.024282,-0.007054,0.246615
61,3660274581,0.568486,-0.182705,-0.792750,-0.122628,-0.072832,-0.029993,0.166561
62,3660307915,0.568522,-0.181099,-0.793356,-0.120906,-0.109998,0.024796,0.147898
63,3660341249,0.568595,-0.179703,-0.793827,-0.119549,0.016789,-0.038104,0.217011
64,3660374583,0.568902,-0.178592,-0.793944,-0.118978,0.107241,0.033360,0.176823
65,3660407917,0.569317,-0.177485,-0.793937,-0.118687,0.055607,0.100842,0.180729
66,3660441251,0.569763,-0.176510,-0.793825,-0.118751,0.170658,0.029156,0.167663
67,3660474585,0.570119,-0.175916,-0.793605,-0.119397,0.163791,0.020338,0.138398
68,3660507919,0.570427,-0.175131,-0.793479,-0.119916,0.057940,0.108893,0.179903
69,3660541253,0.570760,-0.173825,-0.793533,-0.119871,0.123979,0.066015,0.138850
70,3660574587,0.571036,-0.171798,-0.793933,-0.118832,0.018350,-0.008911,0.169525
71,3660607921,0.571354,-0.169280,-0.794500,-0.117114,0.043768,-0.011149,0.175649
72,3660641255,0.571813,-0.166411,-0.795078,-0.115040,0.166408,-0.049848,0.158799
73,3660674589,0.572408,-0.163427,-0.795608,-0.112671,0.160932,-0.041261,0.200528
74,3660707923,0.573113,-0.160249,-0.796101,-0.110143,0.191286,0.019288,0.207828
75,3660741257,0.573829,-0.156810,-0.796645,-0.107397,0.137446,-0.110450,0.230042
76,3660774591,0.574528,-0.153440,-0.797174,-0.104559,0.013328,-0.140581,0.177838
77,3660807925,0.575253,-0.150297,-0.797588,-0.101952,0.039113,-0.058403,0.128945
78,3660841259,0.575922,-0.147014,-0.798057,-0.099253,-0.042606,-0.017492,0.197204
79,3660874593,0.576349,-0.143934,-0.798662,-0.096389,-0.076699,-0.006048,0.164277
80,3660907927,0.576589,-0.140882,-0.799378,-0.093482,-0.153031,0.059185,0.171271
81,3660941261,0.576781,-0.137758,-0.800122,-0.090544,-0.106842,-0.046626,0.135755
82,3660974595,0.576997,-0.134620,-0.800827,-0.087601,-0.257541,-0.117828,0.130476
83,3661007929,0.577223,-0.131481,-0.801515,-0.084537,-0.341681,-0.111287,0.149179
84,3661041263,0.577366,-0.128307,-0.802271,-0.081205,-0.264993,-0.210452,0.195087
85,3661074597,0.577338,-0.125694,-0.802998,-0.078244,-0.249468,-0.305766,0.221550
86,3661107931,0.577243,-0.123777,-0.803602,-0.075767,-0.211596,-0.282642,0.071299
87,3661141265,0.576989,-0.122550,-0.804168,-0.073660,-0.300608,-0.309511,0.196526
88,3661174599,0.576460,-0.122035,-0.804786,-0.071887,-0.214051,-0.254322,0.212952
89,3661207933,0.575722,-0.121814,-0.805490,-0.070274,-0.107708,-0.055608,0.170718
90,3661241267,0.574956,-0.121644,-0.806208,-0.068588,0.068836,-0.008824,0.214692
91,3661274601,0.574519,-0.121535,-0.806644,-0.067301,0.344691,0.078889,0.247957
92,3661307935,0.574595,-0.121443,-0.806641,-0.066846,0.562206,0.147901,0.238122
93,3661341269,0.575098,-0.121538,-0.806249,-0.067087,0.677508,0.093940,0.183998
94,3661374603,0.575651,-0.122079,-0.805685,-0.068122,0.381898,-0.001987,0.273782
95,3661407937,0.576583,-0.123036,-0.804728,-0.069818,0.180749,-0.028453,0.194690
96,3661441271,0.577556,-0.124713,-0.803548,-0.072344,-0.038508,-0.098894,0.119276
97,3661474605,0.578517,-0.126595,-0.802333,-0.074840,-0.264455,-0.166444,0.141463
98,3661507939,0.579244,-0.128513,-0.801288,-0.077102,-0.426000,-0.111264,0.078396
99,3661541273,0.579676,-0.130414,-0.800478,-0.079050,-0.363330,-0.261102,0.207506
100,3661574607,0.580146,-0.132578,-0.799576,-0.081113,-0.184637,-0.248625,0.188046
101,3661607941,0.580548,-0.135258,-0.798594,-0.083450,-0.046545,-0.105212,0.175994
102,3661641275,0.580728,-0.138248,-0.797717,-0.085657,0.098382,-0.034215,0.151623
103,3661674609,0.580679,-0.141109,-0.797037,-0.087629,-0.006422,0.142741,0.173814
104,3661707943,0.580732,-0.143064,-0.796510,-0.088892,-0.019947,0.259152,0.184824
105,3661741277,0.580890,-0.144019,-0.796162,-0.089434,0.138582,0.113034,0.135657
106,3661774611,0.581317,-0.144337,-0.795769,-0.089637,0.214742,0.057478,0.183873
107,3661807945,0.581911,-0.144591,-0.795263,-0.089868,0.261306,-0.026899,0.175790
108,3661841279,0.582468,-0.145444,-0.794612,-0.090644,0.209812,-0.089541,0.161521
109,3661874613,0.583141,-0.146720,-0.793752,-0.091789,0.091592,-0.164130,0.140469
110,3661907947,0.583834,-0.148353,-0.792737,-0.093509,-0.093068,-0.216634,0.167553
111,3661941281,0.584634,-0.149701,-0.791728,-0.094901,-0.242063,0.027143,0.201772
112,3661974615,0.585097,-0.150351,-0.791322,-0.094405,-0.313147,0.203312,0.091737
113,3662007949,0.584714,-0.150198,-0.791866,-0.092436,-0.379749,0.368694,-0.024023
114,3662041283,0.583457,-0.148929,-0.793365,-0.089533,-0.054606,0.274566,0.066035
115,3662074617,0.582428,-0.145897,-0.795182,-0.084988,0.261468,0.186500,0.217953
116,3662107951,0.581703,-0.142454,-0.796801,-0.080517,0.686182,0.182147,0.215413
117,3662141285,0.581130,-0.138917,-0.798254,-0.076338,0.766161,0.043861,0.249639
118,3662174619,0.580830,-0.136019,-0.799272,-0.073115,0.587757,0.049220,0.206347
119,3662207953,0.580533,-0.133810,-0.800069,-0.070794,0.164072,-0.059942,0.233743
120,3662241287,0.580320,-0.131768,-0.800735,-0.068818,-0.133822,-0.130230,0.128571
121,3662274621,0.580043,-0.129138,-0.801598,-0.066029,-0.308666,-0.053744,0.182532
122,3662307955,0.580096,-0.125334,-0.802471,-0.062184,-0.137879,0.055595,0.143244
123,3662341289,0.580146,-0.121269,-0.803345,-0.058376,-0.033844,-0.115367,0.274619
124,3662374623,0.580085,-0.119140,-0.803856,-0.056293,0.216654,-0.144363,0.176507
125,3662407957,0.580203,-0.119069,-0.803771,-0.056431,0.216865,-0.400946,0.252551
126,3662441291,0.581092,-0.120048,-0.802890,-0.057748,-0.012102,-0.164758,0.121247
127,3662474625,0.581818,-0.121752,-0.801963,-0.059725,-0.092411,-0.111338,0.272728
128,3662507959,0.582539,-0.124106,-0.800873,-0.062407,-0.041773,-0.160299,0.218081
129,3662541293,0.583210,-0.127612,-0.799522,-0.066275,0.148806,-0.210564,0.156536
130,3662574627,0.583774,-0.132230,-0.797957,-0.070951,0.155579,-0.144126,0.127249
131,3662607961,0.584093,-0.137834,-0.796263,-0.076480,0.076825,-0.200650,0.201667
132,3662641295,0.584519,-0.143838,-0.794282,-0.082522,0.001435,0.015295,0.219901
133,3662674629,0.584896,-0.149893,-0.792219,-0.088684,-0.008880,-0.002424,0.166037
134,3662707963,0.585237,-0.155657,-0.790177,-0.094532,-0.028366,0.005667,0.147528
135,3662741297,0.585480,-0.161361,-0.788138,-0.100301,0.041861,-0.017711,0.217762
136,3662774631,0.585537,-0.167261,-0.786058,-0.106443,0.027523,-0.051805,0.166408
137,3662807965,0.585656,-0.172999,-0.783871,-0.112569,-0.038187,0.033820,0.174078
138,3662841299,0.585903,-0.178316,-0.781633,-0.118395,0.010584,-0.017891,0.168160
139,3662874633,0.586222,-0.183246,-0.779374,-0.124046,-0.012001,0.076018,0.104918
140,3662907967,0.586361,-0.187777,-0.777356,-0.129165,-0.057315,0.027639,0.167482
141,3662941301,0.586602,-0.191666,-0.775474,-0.133599,-0.055663,0.103609,0.152355
142,3662974635,0.586967,-0.194565,-0.773856,-0.137139,-0.096415,0.085670,0.176370
143,3663007969,0.587355,-0.196705,-0.772542,-0.139807,-0.017678,-0.018584,0.182230
144,3663041303,0.587830,-0.199110,-0.771060,-0.142563,0.181509,0.070246,0.158377
145,3663074637,0.587970,-0.202219,-0.769527,-0.145851,0.274929,0.046124,0.147935
146,3663107971,0.587853,-0.205469,-0.768131,-0.149109,0.170802,-0.000472,0.189951
147,3663141305,0.587792,-0.208145,-0.766961,-0.151642,0.065260,0.046794,0.187953
148,3663174639,0.587887,-0.209777,-0.766184,-0.152941,-0.073273,0.078782,0.103910
149,3663207973,0.587953,-0.210439,-0.765902,-0.153193,-0.153552,0.038813,0.109673
150,3663241307,0.588055,-0.210421,-0.765906,-0.152802,-0.064004,0.013562,0.106463
151,3663274641,0.588237,-0.210077,-0.766007,-0.152069,0.077904,-0.043324,0.169913
152,3663307975,0.588364,-0.209289,-0.766368,-0.150842,0.012272,-0.010078,0.163437
153,3663341309,0.588525,-0.207695,-0.767094,-0.148712,0.007668,0.150006,0.173444
154,3663374643,0.588804,-0.205482,-0.767985,-0.146057,0.223454,0.293604,0.179790
155,3663407977,0.589256,-0.202802,-0.768856,-0.143375,0.412623,0.400831,0.102041
156,3663441311,0.589567,-0.199432,-0.770138,-0.139898,0.057868,0.122163,0.366600
157,3663474645,0.589665,-0.195990,-0.771640,-0.136022,-0.171776,-0.078707,0.031194
158,3663507979,0.589778,-0.192625,-0.773086,-0.132074,-0.262542,-0.086330,0.157828
159,3663541313,0.590174,-0.189190,-0.774286,-0.128179,-0.149831,-0.066515,0.073859
160,3663574647,0.590449,-0.185320,-0.775715,-0.123852,-0.116720,-0.101547,0.189878
161,3663607981,0.590805,-0.181304,-0.777098,-0.119345,0.096992,-0.183918,0.309195
162,3663641315,0.591195,-0.177288,-0.778423,-0.114724,0.127199,-0.249943,0.270471
163,3663674649,0.591603,-0.173733,-0.779531,-0.110461,0.099870,-0.220015,0.156122
164,3663707983,0.591809,-0.170546,-0.780625,-0.106531,0.032629,-0.054598,0.113172
165,3663741317,0.591881,-0.167213,-0.781854,-0.102315,0.112436,0.054016,0.111540
166,3663774651,0.592092,-0.163624,-0.782996,-0.098071,0.347897,0.232728,0.277597
167,3663807985,0.592034,-0.159739,-0.784410,-0.093411,0.208725,0.133844,0.304428
168,3663841319,0.591142,-0.156124,-0.786389,-0.088405,0.020753,-0.074789,0.055621
169,3663874653,0.589958,-0.152758,-0.788469,-0.083538,-0.202585,0.078768,0.088593
170,3663907987,0.588967,-0.148461,-0.790583,-0.078121,-0.147866,0.201582,0.182325
171,3663941321,0.588054,-0.143636,-0.792690,-0.072465,0.027802,0.331466,0.157290
172,3663974655,0.587111,-0.139183,-0.794632,-0.067349,0.269440,0.183385,0.203012
173,3664007989,0.586418,-0.135177,-0.796177,-0.063172,0.259177,0.087175,0.235794
174,3664041323,0.585747,-0.131494,-0.797580,-0.059349,-0.137806,-0.001297,0.139442
175,3664074657,0.584954,-0.127854,-0.799019,-0.055661,-0.366614,0.064719,0.152352
176,3664107991,0.584234,-0.123894,-0.800420,-0.051930,-0.314709,0.250644,0.124169
177,3664141325,0.583265,-0.119709,-0.802005,-0.048034,-0.253193,0.293003,0.119212
178,3664174659,0.582031,-0.115242,-0.803783,-0.044041,-0.131147,0.204377,0.094508
179,3664207993,0.580799,-0.110633,-0.805518,-0.040258,0.108393,0.079908,0.238520
180,3664241327,0.579763,-0.106078,-0.807038,-0.036865,0.155675,0.159030,0.214145
181,3664274661,0.578797,-0.101401,-0.808469,-0.033707,0.074793,0.037214,0.215715
182,3664307995,0.578276,-0.096519,-0.809560,-0.030666,0.161433,-0.105999,0.250899
183,3664341329,0.578411,-0.092068,-0.810061,-0.028517,0.186259,-0.325791,0.263311
184,3664374663,0.578981,-0.088768,-0.810055,-0.027559,0.212047,-0.436344,0.180429
185,3664407997,0.579430,-0.087425,-0.809870,-0.027845,0.033315,-0.565960,0.207488
186,3664441331,0.579799,-0.087824,-0.809507,-0.029416,-0.120685,-0.604352,0.306423
187,3664474665,0.580384,-0.089298,-0.808841,-0.031687,-0.286536,-0.429570,0.192292
188,3664507999,0.580874,-0.091039,-0.808206,-0.033882,-0.157749,-0.220409,0.147806
189,3664541333,0.581053,-0.093280,-0.807719,-0.036250,-0.061594,-0.072300,0.083173
190,3664574667,0.580907,-0.095876,-0.807400,-0.038819,-0.078872,0.094774,0.171075
191,3664608001,0.580721,-0.098007,-0.807159,-0.041228,0.102385,0.026663,0.247705
192,3664641335,0.580688,-0.099438,-0.806902,-0.043254,0.175834,0.032263,0.183245
193,3664674669,0.580904,-0.100724,-0.806480,-0.045195,0.240702,-0.040216,0.183187
194,3664708003,0.581152,-0.102367,-0.805960,-0.047530,0.114600,0.031431,0.152843
195,3664741337,0.581066,-0.104054,-0.805663,-0.049899,-0.098407,-0.042676,0.195532
196,3664774671,0.580885,-0.105128,-0.805561,-0.051368,-0.138032,-0.068930,0.120245
197,3664808005,0.580659,-0.105231,-0.805689,-0.051706,-0.053527,-0.031263,0.176066
198,3664841339,0.580384,-0.104673,-0.805974,-0.051487,0.073655,-0.030573,0.192397
199,3664874673,0.579922,-0.104147,-0.806404,-0.051027,0.225024,-0.217952,0.201247
200,3664908007,0.579473,-0.104554,-0.806657,-0.051304,0.269264,-0.230495,0.195552
201,3664941341,0.578859,-0.105459,-0.806935,-0.052003,0.113054,-0.145752,0.096871
202,3664974675,0.577888,-0.106263,-0.807513,-0.052199,-0.223037,0.182883,0.151759
203,3665008009,0.576330,-0.106045,-0.808704,-0.051413,-0.402460,0.597393,0.121743
204,3665041343,0.574964,-0.103485,-0.810170,-0.048785,0.200827,0.472242,0.287197
205,3665074677,0.574466,-0.100772,-0.810979,-0.046846,0.799004,0.259568,-0.068021
206,3665108011,0.574240,-0.098759,-0.811452,-0.045702,0.534159,-0.679167,0.323445
207,3665141345,0.574648,-0.098944,-0.811120,-0.046053,0.457713,-0.550990,0.220014
208,3665174679,0.575018,-0.102402,-0.810246,-0.049170,0.188564,-0.489573,0.206510
209,3665208013,0.575238,-0.108613,-0.808888,-0.055254,-0.290751,-0.397066,0.351284
210,3665241347,0.575578,-0.115380,-0.807213,-0.062061,-0.613984,-0.041919,0.045298
211,3665274681,0.575661,-0.120913,-0.805913,-0.067427,-0.508155,-0.025463,0.088890
212,3665308015,0.575723,-0.125359,-0.804843,-0.071434,-0.112300,0.030512,0.076669
213,3665341349,0.575714,-0.129894,-0.803792,-0.075152,0.114824,0.112123,0.123410
214,3665374683,0.575428,-0.133884,-0.803009,-0.078627,0.014672,0.274558,0.276580
215,3665408017,0.575392,-0.136338,-0.802404,-0.080814,0.369915,0.264337,0.117754
216,3665441351,0.575299,-0.137848,-0.802082,-0.082105,0.308713,0.110307,0.243608
217,3665474685,0.575357,-0.138831,-0.801740,-0.083368,0.071189,-0.133306,0.225660
218,3665508019,0.575602,-0.139875,-0.801257,-0.084565,-0.124215,-0.109109,0.136319
219,3665541353,0.575705,-0.141567,-0.800744,-0.085898,-0.262939,0.057858,0.255494
220,3665574687,0.575841,-0.143555,-0.800085,-0.087810,-0.171342,-0.076721,0.172056
221,3665608021,0.576309,-0.146163,-0.798966,-0.090581,0.032051,-0.016298,0.136726
222,3665641355,0.576354,-0.149816,-0.797846,-0.094132,0.076393,-0.124581,0.223857
223,3665674689,0.576389,-0.154637,-0.796337,-0.098783,0.217846,-0.198655,0.218272
224,3665708023,0.576478,-0.160295,-0.794442,-0.104347,0.188869,0.114339,0.193534
225,3665741357,0.576613,-0.165325,-0.792638,-0.109350,0.031172,0.277432,0.223413
226,3665774691,0.576685,-0.169111,-0.791262,-0.113082,0.070490,0.156519,0.091092
227,3665808025,0.576418,-0.171884,-0.790462,-0.115830,0.093142,0.087837,0.146469
228,3665841359,0.576056,-0.173928,-0.789982,-0.117834,0.186980,-0.068722,0.266825
229,3665874693,0.575993,-0.175623,-0.789367,-0.119728,0.331325,-0.132196,0.176171
230,3665908027,0.576051,-0.177342,-0.788636,-0.121724,0.200409,-0.186248,0.126285
231,3665941361,0.575958,-0.179157,-0.788042,-0.123333,-0.198902,-0.125736,0.103273
232,3665974695,0.575512,-0.180548,-0.787941,-0.124030,-0.323195,0.058064,0.094167
233,3666008029,0.575209,-0.180913,-0.788153,-0.123560,-0.031811,0.032075,0.073864
234,3666041363,0.575037,-0.180209,-0.788688,-0.121964,0.235116,0.119059,0.210457
235,3666074697,0.574457,-0.178719,-0.789857,-0.119296,0.269241,0.134532,0.113029
236,3666108031,0.573995,-0.176478,-0.791224,-0.115752,0.252529,0.228041,0.287169
237,3666141365,0.573960,-0.173910,-0.792297,-0.112418,0.136960,0.226744,0.261906
238,3666174699,0.574116,-0.171842,-0.792904,-0.110507,-0.406117,-0.011658,0.176251
239,3666208033,0.574637,-0.171062,-0.792714,-0.110367,-0.485734,-0.226483,0.020853
240,3666241367,0.574918,-0.171837,-0.792178,-0.111543,-0.627761,-0.186867,0.083291
241,3666274701,0.575059,-0.173292,-0.791476,-0.113528,-0.598078,0.114799,0.019659
242,3666308035,0.574952,-0.173641,-0.791375,-0.114243,-0.357210,0.273716,0.099625
243,3666341369,0.574522,-0.172244,-0.792193,-0.112849,0.241266,0.232290,0.228432
244,3666374703,0.574008,-0.169502,-0.793514,-0.110304,0.661772,0.206794,0.156971
245,3666408037,0.573465,-0.166284,-0.794988,-0.107376,0.789962,0.040273,0.420051
246,3666441371,0.573170,-0.163531,-0.796109,-0.104839,0.703922,-0.144306,0.204954
247,3666474705,0.572835,-0.161278,-0.797071,-0.102837,0.173444,-0.265402,0.180411
248,3666508039,0.572418,-0.158983,-0.798109,-0.100651,-0.142854,0.050909,0.247663
249,3666541373,0.572041,-0.155782,-0.799401,-0.097505,-0.066687,0.148917,0.182778
250,3666574707,0.571915,-0.151813,-0.800721,-0.093594,0.120119,0.117096,0.112996
251,3666608041,0.571804,-0.147638,-0.802047,-0.089509,0.188183,0.063455,0.125872
252,3666641375,0.571809,-0.143488,-0.803245,-0.085388,0.084199,0.044438,0.168801
253,3666674709,0.571695,-0.139884,-0.804349,-0.081651,0.073059,-0.080050,0.141391
254,3666708043,0.571356,-0.136925,-0.805421,-0.078409,-0.015810,0.079097,0.084123
255,3666741377,0.570907,-0.133388,-0.806685,-0.074701,-0.091766,0.202537,0.247558
256,3666774711,0.570551,-0.129057,-0.808049,-0.070149,0.029309,0.265955,0.091262
257,3666808045,0.570208,-0.124298,-0.809424,-0.065520,0.097159,0.049857,0.220411
258,3666841379,0.570454,-0.119799,-0.810212,-0.061925,0.061299,0.072770,0.279765
259,3666874713,0.571251,-0.116022,-0.810316,-0.060395,0.118116,-0.400680,0.360872
260,3666908047,0.572363,-0.113484,-0.809897,-0.060299,-0.192716,-0.376474,0.215528
261,3666941381,0.573852,-0.111805,-0.808984,-0.061533,-0.580471,-0.560377,0.179244
262,3666974715,0.576186,-0.110140,-0.807304,-0.064704,-1.129611,-0.914892,0.134054
263,3667008049,0.577603,-0.108458,-0.806354,-0.066727,-0.407412,0.889536,-0.847979
264,3667041383,0.576818,-0.104249,-0.807738,-0.063411,-1.072600,-0.565119,0.411322
265,3667074717,0.577411,-0.101269,-0.807874,-0.061052,0.114133,-0.282753,-0.007935
266,3667108051,0.577076,-0.099821,-0.808454,-0.058889,0.346552,-0.168544,0.035965
267,3667141385,0.576079,-0.099660,-0.809297,-0.057340,0.106721,-0.047484,0.344748
268,3667174719,0.575374,-0.100574,-0.809675,-0.057468,0.607513,-0.260552,0.211714
269,3667208053,0.575022,-0.102183,-0.809686,-0.058009,0.517570,0.105393,0.281244
270,3667241387,0.574955,-0.103821,-0.809446,-0.059095,0.295579,0.149025,0.292182
271,3667274721,0.575141,-0.105531,-0.808960,-0.060892,0.552672,-0.270760,0.144866
272,3667308055,0.575344,-0.108120,-0.808327,-0.062808,0.190663,-0.223470,0.203825
273,3667341389,0.575508,-0.111221,-0.807631,-0.064806,0.004544,-0.203231,0.216093
274,3667374723,0.575773,-0.114360,-0.806855,-0.066637,-0.120016,-0.022023,0.169819
275,3667408057,0.576199,-0.117420,-0.805945,-0.068606,-0.059824,0.074429,0.180688
276,3667441391,0.576582,-0.120488,-0.805043,-0.070634,0.038401,0.040931,0.088742
277,3667474725,0.576783,-0.123978,-0.804155,-0.073035,0.107115,0.097561,0.167466
278,3667508059,0.576909,-0.127255,-0.803336,-0.075377,0.093327,0.250934,0.116504
279,3667541393,0.576850,-0.129784,-0.802785,-0.077362,0.008733,0.228789,0.275489
280,3667574727,0.577068,-0.131866,-0.802083,-0.079463,0.120420,0.309830,0.131777
281,3667608061,0.577425,-0.133084,-0.801445,-0.081251,0.171859,0.387372,0.112328
282,3667641395,0.577720,-0.133823,-0.800927,-0.083030,0.123423,0.043275,0.237192
283,3667674729,0.578214,-0.134632,-0.800214,-0.085137,0.034606,-0.106407,0.118512
284,3667708063,0.578972,-0.135603,-0.799269,-0.087289,-0.091252,-0.209717,0.186300
285,3667741397,0.579799,-0.137011,-0.798170,-0.089631,-0.165692,-0.327313,0.142094
286,3667774731,0.580335,-0.138931,-0.797145,-0.092289,-0.299755,-0.286390,0.142776
287,3667808065,0.580764,-0.141102,-0.796166,-0.094718,-0.265996,-0.263301,0.207193
288,3667841399,0.581114,-0.143230,-0.795265,-0.096925,-0.080503,-0.159393,0.172702
289,3667874733,0.581181,-0.145414,-0.794574,-0.098917,0.001863,-0.033736,0.149395
290,3667908067,0.581043,-0.147596,-0.794073,-0.100497,0.267125,-0.011988,0.100613
291,3667941401,0.580678,-0.149715,-0.793775,-0.101825,0.137302,0.242603,0.267205
292,3667974735,0.580700,-0.150537,-0.793501,-0.102613,0.261137,0.331636,0.187721
293,3668008069,0.580989,-0.150058,-0.793305,-0.103194,0.228753,0.264092,0.331124
294,3668041403,0.581927,-0.148712,-0.792660,-0.104804,0.279472,0.094315,0.194114
295,3668074737,0.583260,-0.146620,-0.791637,-0.108026,-0.114029,0.118553,0.557389
296,3668108071,0.584648,-0.144190,-0.790691,-0.110690,0.530216,0.165570,-0.206038
297,3668141405,0.584567,-0.139968,-0.791559,-0.110335,-0.108485,-0.086562,-0.043013
298,3668174739,0.584486,-0.137519,-0.792165,-0.109487,-0.617240,-0.397883,0.019138
299,3668208073,0.583963,-0.135753,-0.793170,-0.107178,-0.832705,-0.041951,0.055805
300,3668241407,0.582443,-0.133785,-0.795079,-0.103730,-0.336075,-0.370602,0.337232
301,3668274741,0.582316,-0.132378,-0.795694,-0.101501,0.180729,-0.243613,0.167241
302,3668308075,0.582452,-0.131534,-0.795926,-0.099990,0.373159,0.014775,0.169269
303,3668341409,0.582325,-0.130983,-0.796117,-0.099931,0.350852,-0.028719,0.303582
304,3668374743,0.582547,-0.131016,-0.795846,-0.100757,0.508734,0.042421,0.122355
305,3668408077,0.582444,-0.131423,-0.795781,-0.101333,0.162310,0.218218,0.294040
306,3668441411,0.582299,-0.131671,-0.795692,-0.102531,-0.043363,0.080726,0.124439
307,3668474745,0.582038,-0.131411,-0.795913,-0.102633,0.049757,0.130818,0.160214
308,3668508079,0.581668,-0.130366,-0.796456,-0.101852,0.152633,0.117032,0.247526
309,3668541413,0.581320,-0.128592,-0.797133,-0.100793,0.027332,0.068038,0.172112
310,3668574747,0.581265,-0.126673,-0.797673,-0.099252,-0.031745,0.075333,0.055813
311,3668608081,0.581226,-0.124726,-0.798162,-0.098008,0.056093,-0.134591,0.124219
312,3668641415,0.581387,-0.123633,-0.798258,-0.097650,0.019636,-0.310620,0.332519
313,3668674749,0.581799,-0.123116,-0.798056,-0.097503,-0.090183,-0.306680,0.154920
314,3668708083,0.582083,-0.123627,-0.797678,-0.098253,-0.292211,-0.372930,0.221886
315,3668741417,0.582492,-0.124815,-0.797035,-0.099540,-0.158954,-0.342682,0.203082
316,3668774751,0.583242,-0.126606,-0.795964,-0.101430,0.287176,-0.189644,0.163620
317,3668808085,0.583717,-0.129759,-0.794749,-0.104212,0.319693,-0.022868,0.277404
318,3668841419,0.584012,-0.133930,-0.793355,-0.107838,0.005904,0.044447,0.156996
319,3668874753,0.584053,-0.137902,-0.792170,-0.111265,-0.183089,0.085184,0.113523
320,3668908087,0.584246,-0.141545,-0.790913,-0.114569,-0.046396,-0.031363,0.195666
321,3668941421,0.584607,-0.145465,-0.789435,-0.117963,0.073742,0.003698,0.156570
322,3668974755,0.584565,-0.149737,-0.788141,-0.121427,0.063121,0.016731,0.141778
323,3669008089,0.584538,-0.154295,-0.786728,-0.124960,0.085628,-0.029796,0.206777
324,3669041423,0.584673,-0.159265,-0.784975,-0.129053,0.137001,-0.028634,0.231671
325,3669074757,0.584854,-0.164447,-0.782994,-0.133688,0.169811,0.032342,0.283063
326,3669108091,0.584936,-0.169391,-0.781056,-0.138405,0.114686,0.058080,0.113562
327,3669141425,0.585028,-0.174001,-0.779227,-0.142550,0.013657,0.234026,0.142646
328,3669174759,0.584814,-0.177375,-0.778067,-0.145567,-0.056141,0.143528,0.186119
329,3669208093,0.584900,-0.179503,-0.777100,-0.147765,0.076391,-0.007769,0.123419
330,3669241427,0.585049,-0.180967,-0.776363,-0.149258,-0.037023,-0.091192,0.135880
331,3669274761,0.585086,-0.182487,-0.775757,-0.150409,-0.089173,-0.010291,0.181154
332,3669308095,0.584914,-0.183962,-0.775325,-0.151503,-0.127299,-0.128535,0.150462
333,3669341429,0.585022,-0.185240,-0.774776,-0.152337,0.000579,-0.094509,0.161432
334,3669374763,0.585083,-0.185934,-0.774499,-0.152664,-0.101629,0.046698,0.212157
335,3669408097,0.585460,-0.186115,-0.774151,-0.152764,0.032781,-0.056741,0.142090
336,3669441431,0.585557,-0.186192,-0.774087,-0.152622,-0.005489,-0.024882,0.134708
337,3669474765,0.585682,-0.185902,-0.774072,-0.152568,-0.105462,0.066634,0.222046
338,3669508099,0.585932,-0.184870,-0.774280,-0.151808,0.139772,0.076165,0.103141
339,3669541433,0.585867,-0.183182,-0.775011,-0.150369,0.021965,0.047895,0.196528
340,3669574767,0.585962,-0.180926,-0.775719,-0.149071,0.007804,0.090453,0.185743
341,3669608101,0.586096,-0.178335,-0.776578,-0.147184,0.150022,0.063918,0.205216
342,3669641435,0.586278,-0.175523,-0.777439,-0.145279,0.046928,0.094923,0.182513
343,3669674769,0.586888,-0.172464,-0.778069,-0.143098,0.062331,0.127000,0.034234
344,3669708103,0.587132,-0.169604,-0.778990,-0.140477,0.120424,0.008698,0.147852
345,3669741437,0.586926,-0.167431,-0.780046,-0.138067,-0.141154,-0.107477,0.227386
346,3669774771,0.586503,-0.165660,-0.781166,-0.135646,-0.101334,-0.129706,0.159279
347,3669808105,0.586269,-0.163965,-0.782101,-0.133309,-0.063388,-0.041535,0.183878
351,3669941441,0.586272,-0.157909,-0.784543,-0.126059,0.308342,0.175208,0.194877
352,3669974775,0.586307,-0.155754,-0.785265,-0.124069,-0.118703,0.158712,0.063875
353,3670008109,0.585907,-0.153832,-0.786306,-0.121739,-0.108898,0.087137,0.087168
354,3670041443,0.585214,-0.152046,-0.787536,-0.119341,-0.270273,0.172764,0.156530
355,3670074777,0.584906,-0.149376,-0.788678,-0.116650,-0.222200,0.119484,0.148884
356,3670108111,0.584946,-0.145756,-0.789820,-0.113252,0.039687,0.221700,0.086993
357,3670141445,0.584700,-0.141707,-0.791246,-0.109652,0.247664,-0.058135,0.277879
358,3670174779,0.584436,-0.138494,-0.792337,-0.107260,0.263512,-0.279681,0.206427
359,3670208113,0.584089,-0.136694,-0.793075,-0.105996,0.135889,-0.248398,0.100348
360,3670241447,0.583303,-0.136203,-0.793806,-0.105482,-0.122920,-0.139062,0.111195
361,3670274781,0.582508,-0.135864,-0.794546,-0.104739,-0.279810,0.103848,0.192664
362,3670308115,0.581863,-0.134314,-0.795541,-0.102748,-0.284931,0.102909,0.191018
363,3670341449,0.581582,-0.131164,-0.796695,-0.099413,0.017891,-0.140171,0.178347
364,3670374783,0.581262,-0.127764,-0.797913,-0.095888,0.042214,-0.251141,0.191188
365,3670408117,0.580985,-0.124913,-0.798982,-0.092354,0.273617,-0.289357,0.223147
366,3670441451,0.580465,-0.123571,-0.799809,-0.090240,0.241803,-0.264258,0.113195
367,3670474785,0.580053,-0.123331,-0.800343,-0.088472,-0.037678,0.079580,0.128641
368,3670508119,0.579461,-0.123145,-0.801103,-0.085693,0.074095,0.030765,0.135880
369,3670541453,0.578968,-0.122371,-0.801976,-0.081886,0.066197,0.227094,0.134667
370,3670574787,0.578547,-0.120331,-0.802922,-0.078547,-0.022174,-0.058121,0.385142
371,3670608121,0.578386,-0.119009,-0.803424,-0.076585,0.260656,-0.057943,0.069679
372,3670641455,0.577875,-0.118285,-0.804090,-0.074549,0.403642,0.109664,0.189070
373,3670674789,0.577627,-0.117382,-0.804538,-0.073051,0.294375,0.080960,0.321138
374,3670708123,0.577744,-0.116727,-0.804639,-0.072055,0.157428,-0.019071,0.241207
375,3670741457,0.578005,-0.115997,-0.804633,-0.071198,0.040035,-0.109882,0.206882
376,3670774791,0.578360,-0.115627,-0.804424,-0.071278,-0.042596,-0.289090,0.187238
377,3670808125,0.578909,-0.115486,-0.803978,-0.072076,-0.182452,-0.308338,0.249885
378,3670841459,0.579472,-0.115887,-0.803395,-0.073392,-0.183393,-0.411980,0.150917
379,3670874793,0.579721,-0.116873,-0.802954,-0.074676,-0.389161,-0.205455,0.118933
380,3670908127,0.579820,-0.117743,-0.802658,-0.075721,-0.603542,0.034272,0.176822
381,3670941461,0.579689,-0.117977,-0.802671,-0.076220,-0.330942,0.092694,0.103285
382,3670974795,0.579083,-0.117427,-0.803261,-0.075465,-0.117562,0.107571,0.094845
383,3671008129,0.578247,-0.116196,-0.804191,-0.073852,0.016242,0.109241,0.218399
384,3671041463,0.577611,-0.114313,-0.805097,-0.071872,0.211764,0.139031,0.195044
385,3671074797,0.577146,-0.111889,-0.805959,-0.069721,0.272107,0.162339,0.020649
386,3671108131,0.576801,-0.108817,-0.806866,-0.066899,0.246225,0.107751,0.278445
387,3671141465,0.576575,-0.105245,-0.807747,-0.063860,0.227346,0.050653,0.269945
388,3671174799,0.576251,-0.101162,-0.808754,-0.060558,0.051359,0.021335,0.081781
389,3671208133,0.575835,-0.096683,-0.809883,-0.056611,0.086296,-0.209848,0.138145
390,3671241467,0.575451,-0.092783,-0.810863,-0.052892,-0.010065,-0.117366,0.246706
391,3671274801,0.575001,-0.089803,-0.811701,-0.049990,-0.058660,-0.162506,0.179051
392,3671308135,0.574524,-0.087530,-0.812420,-0.047772,0.014504,-0.255013,0.204492
393,3671341469,0.574187,-0.085544,-0.812984,-0.045799,-0.015194,-0.182523,0.152946
394,3671374803,0.573731,-0.084147,-0.813545,-0.044096,-0.159832,-0.113904,0.194853
395,3671408137,0.573253,-0.083429,-0.814015,-0.042988,-0.103508,-0.205708,0.168073
396,3671441471,0.572924,-0.083241,-0.814290,-0.042537,-0.141115,-0.203748,0.188451
397,3671474805,0.572704,-0.084031,-0.814343,-0.042935,0.010026,-0.232713,0.125320
398,3671508139,0.572416,-0.085888,-0.814303,-0.043842,0.030974,-0.155195,0.172122
399,3671541473,0.571931,-0.088694,-0.814251,-0.045520,0.055141,-0.162359,0.196062
400,3671574807,0.571511,-0.092345,-0.813987,-0.048171,0.157303,-0.053832,0.161850
401,3671608141,0.571133,-0.096452,-0.813602,-0.051025,0.134992,-0.027573,0.215099
402,3671641475,0.570983,-0.100767,-0.812952,-0.054606,0.211132,-0.040289,0.246683
403,3671674809,0.570991,-0.105616,-0.812031,-0.058896,0.212007,-0.104343,0.190704
404,3671708143,0.571224,-0.111037,-0.810779,-0.063714,0.111575,-0.205293,0.216382
405,3671741477,0.571699,-0.117061,-0.809128,-0.069406,-0.086742,-0.196314,0.230094
406,3671774811,0.572316,-0.123365,-0.807207,-0.075494,-0.124765,-0.169712,0.116614
407,3671808145,0.572679,-0.129657,-0.805402,-0.081264,-0.271585,-0.109132,0.281762
408,3671841479,0.573011,-0.135450,-0.803674,-0.086418,-0.350124,0.123929,0.159082
409,3671874813,0.573565,-0.140074,-0.802036,-0.090491,-0.212622,0.093550,0.209690
410,3671908147,0.574180,-0.143789,-0.800530,-0.094034,0.031673,0.041054,0.109865
411,3671941481,0.574750,-0.147103,-0.799150,-0.097116,0.138231,0.085593,0.196191
412,3671974815,0.575266,-0.150517,-0.797711,-0.100598,0.181945,0.075268,0.186433
413,3672008149,0.575820,-0.154064,-0.796109,-0.104663,0.249510,0.076461,0.156151
414,3672041483,0.576462,-0.157426,-0.794435,-0.108768,0.216087,0.127099,0.131662
415,3672074817,0.576928,-0.160566,-0.792951,-0.112472,0.100269,0.158048,0.160663
416,3672108151,0.577190,-0.163259,-0.791791,-0.115387,-0.055760,0.063037,0.083605
417,3672141485,0.577241,-0.165374,-0.791014,-0.117430,-0.061212,-0.061466,0.148785
418,3672174819,0.577210,-0.167023,-0.790524,-0.118541,0.001819,0.100241,0.099984
419,3672208153,0.576865,-0.167948,-0.790590,-0.118474,-0.055595,0.024934,0.174401
420,3672241487,0.576353,-0.168434,-0.790950,-0.117870,0.157522,-0.020918,0.244967
421,3672274821,0.576068,-0.168872,-0.791139,-0.117370,0.329201,0.013805,0.181950
422,3672308155,0.575829,-0.169127,-0.791361,-0.116676,0.221937,-0.007290,0.151698
423,3672341489,0.575431,-0.169262,-0.791760,-0.115732,0.130125,0.065788,0.173373
424,3672374823,0.574736,-0.169286,-0.792458,-0.114367,0.069625,0.091777,0.190702
425,3672408157,0.574045,-0.169059,-0.793232,-0.112791,0.023679,0.127009,0.110100
426,3672441491,0.573598,-0.168286,-0.793981,-0.110940,0.038307,0.167605,0.221794
427,3672474825,0.573221,-0.166990,-0.794826,-0.108777,0.112475,0.082688,0.162669
428,3672508159,0.572646,-0.165855,-0.795743,-0.106820,-0.083902,-0.117042,0.212569
429,3672541493,0.572440,-0.165216,-0.796167,-0.105753,-0.108468,-0.168339,0.216622
430,3672574827,0.572566,-0.165064,-0.796124,-0.105629,-0.115038,-0.145433,0.119459
431,3672608161,0.572684,-0.165254,-0.795970,-0.105849,-0.308352,-0.097730,0.179780
432,3672641495,0.572876,-0.165473,-0.795729,-0.106277,-0.156597,0.025531,0.189940
433,3672674829,0.573086,-0.165386,-0.795573,-0.106452,0.017448,0.026437,0.152084
434,3672708163,0.573347,-0.165066,-0.795461,-0.106377,0.162402,0.075725,0.162915
435,3672741497,0.573512,-0.164254,-0.795590,-0.105779,0.127289,0.131981,0.183401
436,3672774831,0.573627,-0.162757,-0.795990,-0.104453,0.065223,0.110267,0.208242
437,3672808165,0.573701,-0.160928,-0.796514,-0.102874,-0.034506,0.004219,0.077877
438,3672841499,0.573887,-0.159123,-0.796943,-0.101316,-0.104542,-0.183538,0.170671
439,3672874833,0.574144,-0.158033,-0.797108,-0.100256,-0.103856,-0.221182,0.180538
440,3672908167,0.574281,-0.157902,-0.797060,-0.100058,-0.045672,-0.020053,0.161577
441,3672941501,0.574316,-0.158104,-0.796980,-0.100177,-0.031146,0.019548,0.204579
442,3672974835,0.574346,-0.158264,-0.796914,-0.100277,-0.137678,0.137886,0.184202
443,3673008169,0.574299,-0.158330,-0.796918,-0.100409,-0.038467,0.121543,0.071874
444,3673041503,0.574145,-0.158009,-0.797119,-0.100198,-0.132444,0.031817,0.153661
445,3673074837,0.574073,-0.157165,-0.797416,-0.099581,-0.007992,-0.050809,0.237497
446,3673108171,0.574094,-0.156131,-0.797710,-0.098723,0.075166,-0.016377,0.211268
447,3673141505,0.574132,-0.155246,-0.797943,-0.098015,0.069588,-0.098591,0.173470
448,3673174839,0.574155,-0.154474,-0.798141,-0.097488,0.051109,-0.053585,0.139649
449,3673208173,0.574126,-0.153690,-0.798394,-0.096825,0.046263,-0.061545,0.234967
450,3673241507,0.574152,-0.152961,-0.798597,-0.096140,-0.010205,0.005317,0.195937
451,3673274841,0.574203,-0.152016,-0.798836,-0.095348,0.001165,-0.067747,0.144573
452,3673308175,0.574278,-0.150984,-0.799088,-0.094424,0.057171,-0.148512,0.201667
453,3673341509,0.574386,-0.150165,-0.799256,-0.093645,0.029528,-0.137091,0.203718
454,3673374843,0.574683,-0.149651,-0.799194,-0.093171,0.065272,-0.095836,0.181541
455,3673408177,0.575058,-0.149199,-0.799048,-0.092830,0.039133,-0.069742,0.164078
456,3673441511,0.575415,-0.148638,-0.798949,-0.092373,-0.057746,-0.084350,0.188216
457,3673474845,0.575719,-0.148188,-0.798861,-0.091967,-0.029499,-0.122539,0.197650
458,3673508179,0.576146,-0.147928,-0.798631,-0.091707,-0.017035,-0.064371,0.114645
459,3673541513,0.576547,-0.147636,-0.798415,-0.091532,-0.209525,-0.033939,0.199526
460,3673574847,0.577021,-0.146924,-0.798268,-0.090980,-0.164805,-0.045171,0.188694
461,3673608181,0.577474,-0.146372,-0.798088,-0.090571,-0.096890,-0.034962,0.158640
462,3673641515,0.578134,-0.146092,-0.797651,-0.090657,0.000406,0.073036,0.108243
463,3673674849,0.578646,-0.145844,-0.797314,-0.090762,-0.010179,-0.060633,0.214294
464,3673708183,0.578984,-0.145793,-0.797074,-0.090790,-0.086913,-0.088739,0.180106
465,3673741517,0.579426,-0.146201,-0.796621,-0.091288,-0.024723,-0.095930,0.136308
466,3673774851,0.580017,-0.146900,-0.795958,-0.092194,-0.061993,-0.063293,0.167543
467,3673808185,0.580609,-0.147768,-0.795246,-0.093221,0.011083,0.031421,0.191307
468,3673841519,0.581016,-0.148713,-0.794642,-0.094320,0.196777,0.099346,0.207961
469,3673874853,0.581364,-0.149742,-0.794058,-0.095460,0.162470,0.124330,0.188297
470,3673908187,0.581666,-0.150667,-0.793536,-0.096499,0.154814,0.158858,0.154532
471,3673941521,0.581872,-0.151069,-0.793232,-0.097126,0.197949,0.205167,0.165302
472,3673974855,0.581951,-0.150848,-0.793203,-0.097237,0.123927,0.080799,0.150306
473,3674008189,0.582008,-0.150725,-0.793161,-0.097429,0.019823,-0.113601,0.202474
474,3674041523,0.582054,-0.151180,-0.792969,-0.098014,-0.110483,-0.098417,0.125954
475,3674074857,0.582035,-0.151768,-0.792788,-0.098679,-0.136189,-0.007853,0.141010
476,3674108191,0.581937,-0.152018,-0.792774,-0.098976,-0.054496,0.049918,0.223019
477,3674141525,0.581790,-0.151756,-0.792970,-0.098676,0.055292,0.033754,0.194469
478,3674174859,0.581767,-0.151417,-0.793103,-0.098262,0.091624,-0.084188,0.150582
479,3674208193,0.581879,-0.151237,-0.793078,-0.098078,0.089328,-0.043099,0.139178
480,3674241527,0.581940,-0.151357,-0.792987,-0.098272,0.072186,0.008105,0.172941
481,3674274861,0.581868,-0.151660,-0.792962,-0.098426,-0.027229,-0.038567,0.180812
482,3674308195,0.581683,-0.152211,-0.792953,-0.098745,-0.063381,-0.069305,0.102966
483,3674341529,0.581653,-0.152785,-0.792808,-0.099197,0.038460,0.020711,0.141222
484,3674374863,0.581610,-0.153497,-0.792613,-0.099903,0.168919,0.034438,0.216479
485,3674408197,0.581361,-0.154101,-0.792628,-0.100308,0.082435,0.068284,0.151397
486,3674441531,0.580971,-0.154358,-0.792865,-0.100298,0.025280,0.044250,0.208006
487,3674474865,0.580698,-0.154011,-0.793182,-0.099908,0.042233,0.021173,0.182873
488,3674508199,0.580445,-0.153100,-0.793659,-0.098981,-0.103947,0.084011,0.107241
489,3674541533,0.580138,-0.151736,-0.794340,-0.097411,-0.150850,-0.064342,0.185548
490,3674574867,0.579931,-0.150352,-0.794964,-0.095682,-0.156085,0.044468,0.200718
491,3674608201,0.579632,-0.148817,-0.795714,-0.093637,-0.042651,0.065090,0.142909
492,3674641535,0.579394,-0.147138,-0.796449,-0.091491,0.055281,0.053929,0.194364
493,3674674869,0.579281,-0.145523,-0.797038,-0.089641,0.148593,-0.029818,0.226256
494,3674708203,0.578923,-0.144356,-0.797676,-0.088152,0.173454,-0.096605,0.140844
495,3674741537,0.578530,-0.143341,-0.798295,-0.086769,-0.005209,-0.037591,0.231508
496,3674774871,0.578426,-0.141893,-0.798791,-0.085264,-0.185486,0.037830,0.184290
497,3674808205,0.578318,-0.139786,-0.799452,-0.083262,-0.245312,-0.056568,0.129020
498,3674841539,0.578321,-0.137769,-0.800007,-0.081256,-0.115309,-0.146387,0.203578
499,3674874873,0.578479,-0.136346,-0.800269,-0.079942,0.034560,-0.213995,0.154262
500,3674908207,0.578520,-0.135632,-0.800429,-0.079246,-0.042846,-0.226650,0.218972
501,3674941541,0.578705,-0.135416,-0.800367,-0.078893,-0.017778,-0.088813,0.248075
502,3674974875,0.578979,-0.135696,-0.800093,-0.079176,-0.034981,-0.109910,0.181110
503,3675008209,0.579513,-0.136389,-0.799486,-0.080211,-0.078353,-0.146605,0.200202
504,3675041543,0.580248,-0.137621,-0.798574,-0.081858,0.045782,-0.140156,0.212081
505,3675074877,0.580938,-0.139622,-0.797477,-0.084227,-0.002441,-0.125693,0.182773
506,3675108211,0.581738,-0.142374,-0.796042,-0.087611,0.004672,-0.112670,0.219400
507,3675141545,0.582615,-0.145812,-0.794304,-0.091803,0.039834,-0.066909,0.199598
508,3675174879,0.583407,-0.149855,-0.792391,-0.096671,-0.067719,-0.170734,0.207762
509,3675208213,0.584414,-0.154423,-0.790063,-0.102290,-0.088555,-0.126070,0.222925
510,3675241547,0.585628,-0.159492,-0.787320,-0.108527,-0.084961,-0.202136,0.193782
511,3675274881,0.586764,-0.165216,-0.784306,-0.115428,-0.144464,-0.216920,0.139979
512,3675308215,0.587752,-0.171454,-0.781131,-0.122611,-0.112723,-0.103985,0.131380
513,3675341549,0.588420,-0.177953,-0.777994,-0.129874,-0.104607,-0.003839,0.175170
514,3675374883,0.589078,-0.184224,-0.774804,-0.137023,-0.019959,0.089979,0.132512
515,3675408217,0.589610,-0.189810,-0.771858,-0.143584,-0.040697,0.132892,0.135571
516,3675441551,0.590028,-0.194373,-0.769329,-0.149224,0.034106,0.091272,0.120749
517,3675474885,0.590568,-0.197962,-0.767041,-0.154070,0.148008,0.081686,0.225686
518,3675508219,0.591138,-0.201197,-0.764823,-0.158648,0.181705,-0.010080,0.196733
519,3675541553,0.591593,-0.204783,-0.762559,-0.163196,0.140734,-0.056813,0.199311
520,3675574887,0.591928,-0.208694,-0.760209,-0.167923,0.061234,0.034539,0.060719
521,3675608221,0.592000,-0.211944,-0.758401,-0.171732,-0.117552,0.069538,0.118588
522,3675641555,0.592101,-0.213805,-0.757308,-0.173889,-0.102045,0.030594,0.150550
523,3675674889,0.592512,-0.214867,-0.756385,-0.175194,0.032971,0.064028,0.143013
524,3675708223,0.593000,-0.215517,-0.755561,-0.176293,0.180297,-0.015023,0.175615
525,3675741557,0.593350,-0.215810,-0.755078,-0.176824,0.077582,0.027774,0.238059
526,3675774891,0.593713,-0.215709,-0.754838,-0.176753,-0.021387,0.044954,0.166726
527,3675808225,0.594249,-0.215117,-0.754604,-0.176674,-0.153705,0.126645,0.297147
528,3675841559,0.595586,-0.211384,-0.754028,-0.179119,-0.453852,0.808725,1.112618
529,3675874893,0.597377,-0.206372,-0.752753,-0.184292,0.660484,0.338759,-0.291068
530,3675908227,0.596608,-0.199444,-0.755435,-0.183431,0.652066,0.332543,-0.229709
531,3675941561,0.595527,-0.192867,-0.759029,-0.179092,-1.095737,-0.308550,0.012912
532,3675974895,0.596402,-0.186123,-0.761335,-0.173435,-0.342749,-0.003717,-0.029166
533,3676008229,0.595888,-0.181015,-0.764331,-0.167328,-0.136462,-0.374092,0.058544
534,3676041563,0.595733,-0.176760,-0.766672,-0.161618,0.300431,-0.010694,0.268262
535,3676074897,0.595723,-0.173148,-0.768561,-0.156514,0.635250,0.226253,0.214839
536,3676108231,0.596002,-0.169618,-0.769983,-0.152272,0.642796,0.356000,0.330975
537,3676141565,0.596565,-0.165502,-0.771299,-0.147870,0.200819,0.122791,0.054826
538,3676174899,0.597123,-0.161139,-0.772665,-0.143235,0.138819,-0.008669,0.222418
539,3676208233,0.597359,-0.156709,-0.774278,-0.138372,0.066059,0.079301,0.239256
540,3676241567,0.597397,-0.152492,-0.775923,-0.133627,-0.257589,0.162405,0.042993
541,3676274901,0.597318,-0.147853,-0.777783,-0.128270,-0.385858,0.112386,0.102090
542,3676308235,0.596777,-0.142769,-0.780094,-0.122376,-0.015165,-0.054103,0.188282
543,3676341569,0.595935,-0.137883,-0.782470,-0.116788,0.046842,0.154014,0.197474
544,3676374903,0.595220,-0.132673,-0.784777,-0.110835,0.137685,0.145869,0.183295
545,3676408237,0.594749,-0.127433,-0.786720,-0.105612,0.161905,0.039710,0.146022
546,3676441571,0.594081,-0.122528,-0.788619,-0.100912,0.053871,-0.072099,0.223400
547,3676474905,0.593228,-0.118338,-0.790434,-0.096642,-0.299127,0.036951,0.099634
548,3676508239,0.592215,-0.114424,-0.792271,-0.092429,-0.472637,0.138121,0.059215
549,3676541573,0.591266,-0.109288,-0.794273,-0.087404,-0.494610,0.170359,0.142360
550,3676574907,0.590482,-0.102357,-0.796441,-0.081145,-0.136347,0.153290,0.212448
551,3676608241,0.589707,-0.094925,-0.798598,-0.074330,0.076702,0.007517,0.201564
552,3676641575,0.589111,-0.088195,-0.800335,-0.068425,0.316038,-0.040960,0.195822
553,3676674909,0.588282,-0.082773,-0.801879,-0.064115,0.159723,-0.158890,0.238626
554,3676708243,0.587274,-0.078285,-0.803340,-0.060621,0.014515,-0.273996,0.247974
555,3676741577,0.586520,-0.074392,-0.804497,-0.057397,-0.127304,-0.507298,0.145341
556,3676774911,0.586164,-0.071052,-0.805255,-0.054560,-0.101380,-0.352925,0.184098
557,3676808245,0.585630,-0.068368,-0.806027,-0.052274,-0.030602,-0.304633,0.233991
558,3676841579,0.585387,-0.066817,-0.806410,-0.051076,0.098804,-0.476242,0.187275
559,3676874913,0.585310,-0.066763,-0.806449,-0.051407,0.146285,-0.421074,0.251484
560,3676908247,0.585473,-0.068348,-0.806085,-0.053141,-0.014755,-0.435417,0.164274
561,3676941581,0.585701,-0.071020,-0.805515,-0.055729,-0.090535,-0.329495,0.202823
562,3676974915,0.586149,-0.074404,-0.804660,-0.058859,-0.021532,-0.194789,0.216782
563,3677008249,0.586654,-0.078271,-0.803672,-0.062221,0.032625,-0.095219,0.161392
564,3677041583,0.586999,-0.082479,-0.802712,-0.065810,0.173748,-0.086402,0.197348
565,3677074917,0.587365,-0.087308,-0.801567,-0.070135,-0.005588,0.053954,0.093366
566,3677108251,0.587477,-0.091920,-0.800586,-0.074372,0.000425,-0.026761,0.186468
567,3677141585,0.587740,-0.096764,-0.799399,-0.078792,0.036161,-0.002682,0.164173
568,3677174919,0.588008,-0.101893,-0.798108,-0.083286,-0.021723,-0.058110,0.224225
569,3677208253,0.588007,-0.107628,-0.796854,-0.087950,-0.240414,-0.071798,0.101847
570,3677241587,0.588055,-0.113890,-0.795431,-0.092514,-0.188216,-0.075631,0.051888
571,3677274921,0.588026,-0.121200,-0.793808,-0.097225,0.190551,-0.040268,0.249916
572,3677308255,0.588229,-0.128883,-0.791797,-0.102384,0.136720,0.458228,0.372082
573,3677341589,0.588462,-0.135749,-0.789729,-0.107984,0.538871,0.055249,0.294518
574,3677374923,0.588832,-0.144050,-0.786954,-0.115233,0.465949,-0.036465,0.104561
575,3677408257,0.589043,-0.153662,-0.783790,-0.123035,0.309618,0.009073,0.281910
576,3677441591,0.589107,-0.162067,-0.780630,-0.131733,-0.057097,0.293210,0.295738
577,3677474925,0.589158,-0.168491,-0.777917,-0.139269,0.235519,0.131628,0.042585
578,3677508259,0.589069,-0.172791,-0.776099,-0.144425,0.144164,0.147374,0.133369
579,3677541593,0.588715,-0.175644,-0.775041,-0.148068,-0.135923,0.313053,0.211981
580,3677574927,0.588053,-0.177250,-0.774655,-0.150780,-0.039002,-0.069111,-0.008477
581,3677608261,0.587536,-0.177669,-0.774678,-0.152176,0.049503,-0.139488,0.090727
582,3677641595,0.586964,-0.177309,-0.775099,-0.152654,-0.154250,0.019279,0.142322
583,3677674929,0.586664,-0.176594,-0.775565,-0.152274,-0.306853,-0.209009,0.126740
584,3677708263,0.586404,-0.175587,-0.776267,-0.150854,-0.244930,-0.019668,0.143656
585,3677741597,0.585897,-0.173817,-0.777492,-0.148547,-0.464117,0.068273,0.161033
586,3677774931,0.586034,-0.171102,-0.778582,-0.145422,0.035531,0.097110,0.099693
587,3677808265,0.585634,-0.167711,-0.780365,-0.141363,0.007934,0.153244,0.277297
588,3677841599,0.585121,-0.163989,-0.782240,-0.137442,0.043198,0.126179,0.205138
589,3677874933,0.584733,-0.159529,-0.784112,-0.133619,0.265635,0.147995,0.219294
590,3677908267,0.584059,-0.154478,-0.786235,-0.129976,-0.062807,-0.336675,0.210947
591,3677941601,0.583434,-0.149667,-0.788213,-0.126384,-0.082661,0.102194,0.074271
592,3677974935,0.582953,-0.144497,-0.790217,-0.122027,0.070803,0.075739,0.127903
593,3678008269,0.582158,-0.139384,-0.792405,-0.117501,-0.292994,-0.257044,0.351007
594,3678041603,0.580416,-0.135242,-0.795129,-0.112447,-0.793684,-0.257608,-0.010356
595,3678074937,0.579001,-0.130875,-0.797547,-0.107692,-0.481681,-0.347567,0.238688
596,3678108271,0.578945,-0.127263,-0.798697,-0.103723,0.162577,-0.269692,0.173896
597,3678141605,0.578771,-0.124914,-0.799552,-0.100923,0.212853,-0.023701,0.189195
598,3678174939,0.578645,-0.122965,-0.800225,-0.098676,0.584816,0.146697,0.248931
599,3678208273,0.578556,-0.121959,-0.800587,-0.097503,0.238514,0.176454,0.226511
600,3678241607,0.579025,-0.120712,-0.800508,-0.096921,0.071399,-0.047878,0.151751
601,3678274941,0.579564,-0.119832,-0.800275,-0.096717,0.045296,-0.101684,0.158329
602,3678308275,0.579846,-0.119919,-0.800025,-0.096988,-0.322055,-0.187443,0.111417
603,3678341609,0.580165,-0.120022,-0.799759,-0.097146,-0.181709,-0.016218,0.189839
604,3678374943,0.580281,-0.120531,-0.799554,-0.097503,-0.089176,0.019730,0.169979
605,3678408277,0.580515,-0.121243,-0.799184,-0.098265,0.231389,-0.008739,0.192739
606,3678441611,0.580854,-0.122609,-0.798510,-0.100022,0.335938,-0.045649,0.222937
607,3678474945,0.581454,-0.125080,-0.797297,-0.103116,0.228132,-0.056757,0.241099
608,3678508279,0.582291,-0.128909,-0.795444,-0.107874,0.052678,-0.184975,0.253390
609,3678541613,0.583276,-0.134095,-0.792973,-0.114235,-0.032877,-0.267606,0.238441
610,3678574947,0.584181,-0.140966,-0.789940,-0.122079,-0.178944,-0.327517,0.186050
611,3678608281,0.584737,-0.148623,-0.786857,-0.129991,-0.705529,-0.126429,0.056306
612,3678641615,0.585122,-0.154105,-0.784570,-0.135583,-0.496462,0.155850,0.044530
613,3678674949,0.585441,-0.157257,-0.783127,-0.138886,0.107973,0.103815,0.236505
614,3678708283,0.585499,-0.160002,-0.782054,-0.141528,0.158882,0.058376,0.136397
615,3678741617,0.585510,-0.162522,-0.781072,-0.144014,0.314689,0.030423,0.167671
616,3678774951,0.585481,-0.165209,-0.780023,-0.146734,0.358653,-0.111411,0.195450
617,3678808285,0.585322,-0.168078,-0.778994,-0.149551,0.151732,0.095579,0.159208
618,3678841619,0.585209,-0.170617,-0.778118,-0.151661,-0.015776,0.219661,0.119947
619,3678874953,0.584971,-0.172501,-0.777665,-0.152770,0.023160,0.292291,0.161325
620,3678908287,0.584482,-0.173651,-0.777729,-0.153011,0.055343,0.232415,0.107601
621,3678941621,0.583982,-0.173928,-0.778143,-0.152497,0.057351,0.032502,0.086875
622,3678974955,0.583459,-0.173809,-0.778777,-0.151397,-0.030821,0.054889,0.155203
623,3679008289,0.582666,-0.173786,-0.779630,-0.150079,-0.211300,0.005354,0.173172
624,3679041623,0.582160,-0.174060,-0.780164,-0.148947,0.056529,0.000978,0.223639
625,3679074957,0.581719,-0.175110,-0.780233,-0.149082,0.217207,-0.124527,0.246607
626,3679108291,0.581364,-0.176678,-0.779972,-0.149979,0.031837,-0.009735,0.161787
627,3679141625,0.580981,-0.178028,-0.779816,-0.150674,-0.087666,-0.040327,0.211819
628,3679174959,0.580694,-0.178983,-0.779753,-0.150976,-0.119778,0.056591,0.119984
629,3679208293,0.580526,-0.179316,-0.779907,-0.150434,0.044166,0.167287,0.181817
630,3679241627,0.580178,-0.179220,-0.780348,-0.149596,0.134828,0.022731,0.134577
631,3679274961,0.579839,-0.178892,-0.780879,-0.148530,0.041399,-0.038018,0.185264
632,3679308295,0.579463,-0.178488,-0.781528,-0.147064,-0.093368,-0.054736,0.222853
633,3679341629,0.579229,-0.177758,-0.782185,-0.145361,-0.137782,0.051662,0.158546
634,3679374963,0.578957,-0.176941,-0.782889,-0.143647,-0.054474,0.095603,0.132103
635,3679408297,0.578556,-0.176124,-0.783684,-0.141921,0.053536,-0.032679,0.188065
636,3679441631,0.577952,-0.175515,-0.784539,-0.140400,0.045303,-0.136909,0.163263
637,3679474965,0.577507,-0.175112,-0.785183,-0.139135,-0.070379,-0.160544,0.158237
638,3679508299,0.577344,-0.174618,-0.785578,-0.138199,-0.006876,0.006850,0.210739
639,3679541633,0.576979,-0.174149,-0.786003,-0.137894,-0.130636,-0.054235,0.174561
640,3679574967,0.576607,-0.174095,-0.786324,-0.137692,0.025594,-0.116877,0.415978
641,3679608301,0.576435,-0.174392,-0.786373,-0.137753,0.188331,-0.045232,0.117094
642,3679641635,0.576597,-0.174658,-0.786033,-0.138679,0.107313,-0.236044,0.119088
643,3679674969,0.577216,-0.174819,-0.785335,-0.139849,-0.198774,-0.193668,0.043880
644,3679708303,0.577734,-0.174994,-0.784831,-0.140320,-0.295276,0.065324,0.253155
645,3679741637,0.577954,-0.174558,-0.784828,-0.139976,-0.036925,0.210730,0.156189
646,3679774971,0.578236,-0.173367,-0.784999,-0.139331,0.125558,0.266342,0.215829
647,3679808305,0.578786,-0.171237,-0.785341,-0.137741,0.315287,0.196934,0.137997
648,3679841639,0.579078,-0.169117,-0.785922,-0.135806,0.357491,-0.066415,0.196342
649,3679874973,0.579342,-0.166943,-0.786463,-0.134231,0.249262,0.111731,0.193266
650,3679908307,0.580003,-0.164267,-0.786771,-0.132863,0.251548,0.258420,0.162030
651,3679941641,0.581064,-0.161380,-0.786763,-0.131807,0.350325,0.320443,0.246453
652,3679974975,0.581856,-0.158446,-0.786877,-0.131192,-0.020374,0.036783,0.283391
653,3680008309,0.582893,-0.155362,-0.786759,-0.130985,-0.208370,-0.031998,0.086742
654,3680041643,0.584067,-0.152729,-0.786379,-0.131133,-0.435811,-0.218348,0.179326
655,3680074977,0.584700,-0.150384,-0.786327,-0.131333,-0.863173,-0.270313,0.122301
656,3680108311,0.584980,-0.149060,-0.786440,-0.130920,-1.063794,-0.325080,-0.037180
657,3680141645,0.584675,-0.148181,-0.787017,-0.129805,-0.641837,-0.138244,0.298362
658,3680174979,0.583970,-0.147265,-0.788028,-0.127873,-0.353703,-0.139989,0.118646
659,3680208313,0.583436,-0.147010,-0.788736,-0.126229,-0.077643,-0.215029,0.078427
660,3680241647,0.582916,-0.147324,-0.789274,-0.124897,0.193332,-0.139643,0.122220
661,3680274981,0.582006,-0.147752,-0.790132,-0.123197,0.218635,-0.024744,0.228480
662,3680308315,0.581252,-0.147820,-0.790989,-0.121156,0.183467,0.107670,0.237649
663,3680341649,0.580813,-0.146688,-0.791991,-0.118054,0.260736,-0.059500,0.147640
664,3680374983,0.580553,-0.145285,-0.792913,-0.114839,0.234102,0.115174,0.194207
665,3680408317,0.580417,-0.143377,-0.793792,-0.111810,0.139926,-0.075657,0.267429
666,3680441651,0.580424,-0.141829,-0.794398,-0.109414,0.375993,-0.225966,0.197045
667,3680474985,0.580543,-0.140660,-0.794802,-0.107340,0.330038,0.131550,0.242545
668,3680508319,0.580880,-0.138618,-0.795203,-0.105187,0.408376,0.155301,0.303856
669,3680541653,0.580850,-0.135623,-0.796073,-0.102640,-0.012559,-0.095439,0.132949
670,3680574987,0.580634,-0.133015,-0.797010,-0.099974,-0.360848,-0.162686,0.130548
671,3680608321,0.580744,-0.131165,-0.797542,-0.097500,-0.430894,-0.139891,0.063264
672,3680641655,0.580565,-0.129329,-0.798264,-0.095084,-0.666568,0.032816,0.130532
673,3680674989,0.580039,-0.127466,-0.799323,-0.091859,-0.470542,0.206544,0.105623
674,3680708323,0.579084,-0.125509,-0.800767,-0.087921,-0.145115,0.013828,0.063756
675,3680741657,0.578341,-0.123271,-0.802088,-0.083839,0.060879,0.112193,0.221223
676,3680774991,0.577474,-0.120138,-0.803640,-0.079388,0.167496,-0.068162,0.153679
677,3680808325,0.576662,-0.117115,-0.805130,-0.074561,0.367729,-0.118684,0.190420
678,3680841659,0.575810,-0.114874,-0.806467,-0.070039,0.388581,-0.004502,0.245078
679,3680874993,0.575277,-0.113300,-0.807328,-0.067001,0.330286,-0.091862,0.247003
680,3680908327,0.575095,-0.112038,-0.807853,-0.064302,0.193872,-0.013032,0.160053
681,3680941661,0.574571,-0.111242,-0.808574,-0.061231,0.257139,-0.146487,0.172042
682,3680974995,0.574244,-0.111332,-0.808967,-0.058906,0.206329,-0.146228,0.187383
683,3681008329,0.574451,-0.112076,-0.808784,-0.057973,-0.040581,0.133360,0.256805
684,3681041663,0.574775,-0.112846,-0.808423,-0.058303,0.096643,-0.026427,0.249871
685,3681074997,0.574904,-0.114015,-0.808121,-0.058939,0.127149,0.007903,0.139586
686,3681108331,0.574992,-0.115661,-0.807755,-0.059875,0.108507,0.192740,0.175544
687,3681141665,0.575048,-0.117320,-0.807379,-0.061175,0.054743,0.099193,0.202394
688,3681174999,0.575067,-0.118575,-0.807108,-0.062147,-0.097308,0.237526,0.125391
689,3681208333,0.575224,-0.119591,-0.806772,-0.063103,0.006947,0.105643,0.250842
690,3681241667,0.575723,-0.121032,-0.806052,-0.064980,0.169635,-0.027807,0.184068
691,3681275001,0.576380,-0.122961,-0.805088,-0.067436,0.107643,-0.173631,0.215499
692,3681308335,0.577114,-0.125871,-0.803825,-0.070781,0.127655,-0.228213,0.174148
693,3681341669,0.577888,-0.129731,-0.802276,-0.074944,0.036404,-0.274186,0.192127
694,3681375003,0.578594,-0.134351,-0.800512,-0.080037,-0.175845,-0.102994,0.147636
695,3681408337,0.579055,-0.138921,-0.798898,-0.084894,-0.268712,-0.116087,0.186568
696,3681441671,0.579193,-0.143485,-0.797479,-0.089570,-0.208442,-0.209654,0.148853
697,3681475005,0.579170,-0.148132,-0.796132,-0.094028,-0.096239,-0.171339,0.115690
698,3681508339,0.578889,-0.152812,-0.794931,-0.098324,-0.090821,-0.092957,0.202093
699,3681541673,0.578502,-0.157161,-0.793901,-0.102000,-0.077179,-0.045791,0.170436
700,3681575007,0.578102,-0.160933,-0.793060,-0.104894,-0.080071,0.055972,0.229097
701,3681608341,0.577865,-0.163679,-0.792397,-0.106941,0.025997,0.183412,0.063865
702,3681641675,0.577436,-0.165467,-0.792195,-0.107994,0.044661,0.176638,0.134319
703,3681675009,0.576985,-0.166195,-0.792391,-0.107851,-0.038466,0.154609,0.173063
704,3681708343,0.576946,-0.165745,-0.792649,-0.106854,0.030606,0.137951,0.186620
705,3681741677,0.577241,-0.164563,-0.792846,-0.105616,-0.058826,0.021170,0.103804
706,3681775011,0.577456,-0.163592,-0.793079,-0.104193,-0.318320,0.030450,0.281948
707,3681808345,0.577764,-0.163280,-0.793069,-0.103039,-0.074096,0.118922,0.160426
708,3681841679,0.578006,-0.163431,-0.792917,-0.102613,-0.089998,-0.150080,0.120487
709,3681875013,0.578615,-0.163287,-0.792575,-0.102058,-0.173784,-0.022721,0.232353
710,3681908347,0.579392,-0.163052,-0.792140,-0.101397,0.009067,-0.103257,0.267539
711,3681941681,0.580432,-0.162969,-0.791412,-0.101264,0.089732,-0.167841,0.180360
712,3681975015,0.581387,-0.163271,-0.790623,-0.101465,-0.001993,-0.141328,0.050070
713,3682008349,0.581677,-0.164320,-0.790145,-0.101831,-0.270293,-0.161551,0.178349
714,3682041683,0.581748,-0.165597,-0.789818,-0.101894,-0.335439,-0.055750,0.067986
715,3682075017,0.581595,-0.166596,-0.789774,-0.101482,-0.352518,-0.068302,0.096951
716,3682108351,0.581407,-0.166562,-0.790157,-0.099610,-0.341602,-0.173270,0.216774
717,3682141685,0.581394,-0.165911,-0.790657,-0.096769,-0.025725,0.003612,0.151434
718,3682175019,0.581475,-0.164916,-0.791169,-0.093743,0.106956,-0.222267,0.240613
719,3682208353,0.582001,-0.164223,-0.791206,-0.091359,0.243553,-0.136058,0.255617
720,3682241687,0.582539,-0.164087,-0.791054,-0.089468,0.253479,-0.136870,0.192021
721,3682275021,0.583027,-0.164503,-0.790747,-0.088234,0.302834,-0.134969,0.217852
722,3682308355,0.583934,-0.165305,-0.789964,-0.087752,0.316238,0.015476,0.216255
723,3682341689,0.584862,-0.166298,-0.789097,-0.087495,0.311656,-0.179757,0.196058
724,3682375023,0.585876,-0.167334,-0.788171,-0.087085,0.099096,-0.123271,0.155073
725,3682408357,0.586715,-0.168385,-0.787389,-0.086473,-0.028701,-0.139646,0.212464
726,3682441691,0.587682,-0.168955,-0.786652,-0.085504,0.055964,-0.095856,0.199680
727,3682475025,0.588698,-0.169440,-0.785903,-0.084438,0.070991,-0.036757,0.142800
728,3682508359,0.589554,-0.170089,-0.785258,-0.083146,-0.025079,-0.104657,0.195483
729,3682541693,0.590437,-0.170834,-0.784564,-0.081890,0.008745,-0.238489,0.112225
730,3682575027,0.591505,-0.171628,-0.783696,-0.080826,0.031987,-0.149278,0.192262
731,3682608361,0.592761,-0.172186,-0.782756,-0.079543,0.156580,-0.142557,0.200148
732,3682641695,0.594003,-0.173158,-0.781696,-0.078588,0.170256,-0.257270,0.124756
733,3682675029,0.595335,-0.174511,-0.780425,-0.078143,0.048967,-0.153441,0.002554
734,3682708363,0.596519,-0.175660,-0.779339,-0.077377,0.037442,-0.563960,0.098296
735,3682741697,0.597796,-0.178077,-0.777802,-0.077458,-0.130419,0.094243,0.202240
736,3682775031,0.599098,-0.180955,-0.776058,-0.078224,0.183314,0.385426,0.154259
737,3682808365,0.600440,-0.183764,-0.774245,-0.079342,0.294280,0.471290,0.226489
738,3682841699,0.601734,-0.185347,-0.772848,-0.079475,-0.015964,0.221900,0.124037
739,3682875033,0.603057,-0.185553,-0.771884,-0.078325,-0.439266,0.441208,0.137824
740,3682908367,0.604356,-0.184809,-0.771253,-0.076261,-0.522187,0.480471,-0.051140
741,3682941701,0.604942,-0.182796,-0.771567,-0.073233,-0.718841,0.407051,0.079266
742,3682975035,0.604818,-0.179466,-0.772848,-0.068866,-0.744972,0.490669,0.207239
743,3683008369,0.603765,-0.175717,-0.774965,-0.063782,-0.580570,0.395130,0.119190
744,3683041703,0.602051,-0.171985,-0.777530,-0.058747,-0.282434,0.332803,0.297225
745,3683075037,0.600329,-0.168895,-0.779850,-0.054414,0.172572,0.505630,0.236217
746,3683108371,0.598842,-0.166125,-0.781805,-0.051190,0.489407,0.785561,0.164653
747,3683141705,0.597639,-0.162668,-0.783635,-0.048269,0.721653,0.702202,0.229437
748,3683175039,0.595742,-0.159425,-0.785898,-0.045699,-0.178861,0.475349,0.256385
749,3683208373,0.593302,-0.156353,-0.788498,-0.043200,-0.489187,-0.119929,0.228811
750,3683241707,0.591886,-0.153697,-0.790183,-0.041310,-0.286611,0.134271,0.458715
751,3683275041,0.591207,-0.151900,-0.791080,-0.040517,0.023273,0.126111,0.154918
752,3683308375,0.591123,-0.151521,-0.791161,-0.041560,-0.403274,0.673828,0.319493
753,3683341709,0.590549,-0.151775,-0.791413,-0.043927,0.088177,0.572650,-0.140133
754,3683375043,0.589116,-0.151797,-0.792275,-0.047408,-0.236269,0.187714,0.206910
755,3683408377,0.588103,-0.150789,-0.793025,-0.050563,-0.042879,0.020628,0.392599
756,3683441711,0.587229,-0.149387,-0.793796,-0.052748,0.236019,-0.326459,0.119633
757,3683475045,0.586161,-0.148550,-0.794541,-0.055689,0.280122,-0.077479,0.065389
758,3683508379,0.585335,-0.148361,-0.794878,-0.059910,0.102087,0.218568,0.203012
759,3683541713,0.585334,-0.148670,-0.794365,-0.065678,0.162342,0.454931,0.274875
760,3683575047,0.586511,-0.149079,-0.792632,-0.074587,0.382463,0.350707,0.131721
761,3683608381,0.587121,-0.150061,-0.791071,-0.083815,0.722465,-0.339144,0.050001
762,3683641715,0.587825,-0.151347,-0.789205,-0.093593,0.534466,0.151792,0.102977
763,3683675049,0.588861,-0.151120,-0.787408,-0.102190,0.374169,0.192953,0.416557
764,3683708383,0.590828,-0.148677,-0.785291,-0.110380,0.496734,0.047851,0.394853
765,3683741717,0.592990,-0.144222,-0.783309,-0.118477,0.620818,-0.640273,0.132449
766,3683775051,0.595751,-0.140121,-0.780724,-0.126356,0.434975,-0.671037,0.483926
767,3683808385,0.599826,-0.136182,-0.776891,-0.134730,0.395802,-0.225768,0.183733
768,3683841719,0.605430,-0.130352,-0.772166,-0.142376,1.024331,0.042673,0.322647
769,3683875053,0.610920,-0.122264,-0.767573,-0.150693,1.388219,-0.847514,0.914502
770,3683908387,0.613474,-0.113861,-0.765222,-0.158647,0.525979,-1.260380,0.508594
771,3683941721,0.615182,-0.108777,-0.762649,-0.167732,-0.945450,-1.337420,0.578823
772,3683975055,0.617963,-0.105523,-0.758604,-0.177636,-1.663594,-0.738399,0.280549
773,3684008389,0.619854,-0.102232,-0.755804,-0.184763,-2.159307,0.134662,-0.507748
774,3684041723,0.618168,-0.100710,-0.756478,-0.188453,-3.678537,0.227242,-1.062423
775,3684075057,0.616646,-0.097411,-0.757895,-0.189480,-2.579573,0.927369,-0.658657
776,3684108391,0.616229,-0.093317,-0.759165,-0.187806,-0.828518,0.703053,-0.435404
777,3684141725,0.614614,-0.093940,-0.760501,-0.187380,0.486300,-0.512525,-0.248311
778,3684175059,0.613699,-0.096220,-0.761106,-0.186763,1.672187,-0.612015,-0.459969
779,3684208393,0.612991,-0.102645,-0.761134,-0.185552,2.080497,-0.199677,0.596848
780,3684241727,0.615864,-0.106406,-0.758667,-0.184014,2.669016,0.777869,-0.199895
781,3684275061,0.608083,-0.119732,-0.763120,-0.183291,-0.996516,-2.094008,0.478217
782,3684308395,0.605813,-0.126664,-0.764065,-0.182207,0.123955,0.466156,0.539832
783,3684341729,0.602437,-0.133128,-0.766831,-0.177100,-1.196075,1.243093,0.306858
784,3684375063,0.599648,-0.134163,-0.770995,-0.167444,-0.768261,0.599704,-0.337290
785,3684408397,0.597121,-0.130863,-0.775971,-0.155686,-0.111100,0.102405,-0.131523
786,3684441731,0.594279,-0.126379,-0.781370,-0.142722,0.206134,0.250976,0.240065
787,3684475065,0.590587,-0.122597,-0.787063,-0.129445,0.726749,-0.241029,0.439690
788,3684508399,0.587341,-0.119833,-0.791548,-0.119037,0.639964,-0.476177,0.599053
789,3684541733,0.584934,-0.118781,-0.794534,-0.111831,0.503261,-0.208499,0.270555
790,3684575067,0.582655,-0.117940,-0.797253,-0.105066,-0.179507,0.440059,0.194891
791,3684608401,0.580687,-0.115059,-0.800123,-0.097033,-0.566671,0.514426,0.200001
792,3684641735,0.579314,-0.109409,-0.803057,-0.087023,-0.312687,0.270579,0.214702
793,3684675069,0.578574,-0.101653,-0.805766,-0.075553,-0.213205,0.239038,0.162749
794,3684708403,0.578037,-0.093970,-0.808015,-0.064824,0.200466,-0.126240,0.177911
795,3684741737,0.577430,-0.087581,-0.809876,-0.055256,0.103755,-0.128551,0.220424
796,3684775071,0.576397,-0.082127,-0.811751,-0.046140,0.161264,-0.112252,0.179749
797,3684808405,0.575764,-0.077271,-0.813070,-0.038609,0.105818,-0.030924,0.288648
798,3684841739,0.575984,-0.072437,-0.813641,-0.032115,-0.006751,-0.003894,0.305889
799,3684875073,0.576688,-0.067377,-0.813795,-0.026022,-0.074168,-0.039060,0.201190
800,3684908407,0.577298,-0.062768,-0.813888,-0.020530,-0.176692,-0.164946,0.209947
801,3684941741,0.577760,-0.059275,-0.813921,-0.016150,-0.321322,-0.252383,0.135597
802,3684975075,0.578084,-0.056432,-0.813961,-0.012195,-0.432074,-0.232483,0.195061
803,3685008409,0.578103,-0.053967,-0.814163,-0.008441,-0.357726,-0.071546,0.187036
804,3685041743,0.578095,-0.051481,-0.814360,-0.004698,-0.243660,-0.144935,0.200888
805,3685075077,0.578157,-0.049287,-0.814464,-0.001527,-0.036830,-0.163417,0.213091
806,3685108411,0.578108,-0.047844,-0.814586,0.000855,0.004850,-0.038451,0.210636
807,3685141745,0.577925,-0.047053,-0.814758,0.002436,0.038295,-0.189436,0.323441
808,3685175079,0.578055,-0.046927,-0.814671,0.003088,0.094944,-0.120696,0.106637
809,3685208413,0.578128,-0.047435,-0.814589,0.003294,-0.228122,0.041650,0.141051
810,3685241747,0.578054,-0.047919,-0.814613,0.003471,-0.262534,-0.001722,0.225128
811,3685275081,0.577875,-0.048452,-0.814708,0.003478,-0.345737,0.038486,0.105704
812,3685308415,0.577639,-0.049279,-0.814826,0.003415,-0.216706,-0.043343,0.157502
813,3685341749,0.577424,-0.050743,-0.814892,0.002598,-0.097759,-0.100373,0.202824
814,3685375083,0.577122,-0.053054,-0.814961,0.000879,-0.082143,-0.194724,0.143295
815,3685408417,0.576615,-0.056545,-0.815085,-0.001780,-0.084126,-0.225203,0.184475
816,3685441751,0.576009,-0.060935,-0.815182,-0.005158,-0.248834,-0.193545,0.231136
817,3685475085,0.575354,-0.065667,-0.815243,-0.009103,-0.340054,-0.025854,0.108844
818,3685508419,0.574307,-0.070443,-0.815533,-0.012812,-0.375058,-0.092003,0.205822
819,3685541753,0.573201,-0.075104,-0.815835,-0.016191,-0.252000,-0.027907,0.189999
820,3685575087,0.572270,-0.079596,-0.815989,-0.019541,-0.020731,-0.184890,0.127112
821,3685608421,0.571717,-0.084593,-0.815771,-0.023436,0.103381,-0.036121,0.224145
822,3685641755,0.571328,-0.089939,-0.815332,-0.027900,0.126243,0.090869,0.195524
823,3685675089,0.571190,-0.095262,-0.814649,-0.032605,0.174277,0.045532,0.191267
824,3685708423,0.571410,-0.100664,-0.813622,-0.037747,0.167523,0.079335,0.209397
825,3685741757,0.571970,-0.105837,-0.812309,-0.043043,0.108038,0.070242,0.316982
826,3685775091,0.572977,-0.111054,-0.810569,-0.048886,0.207505,0.027308,0.192345
827,3685808425,0.574193,-0.116724,-0.808486,-0.055468,0.040957,-0.008112,0.221334
828,3685841759,0.575613,-0.122626,-0.806091,-0.062445,-0.025032,0.003052,0.098376
829,3685875093,0.576816,-0.128465,-0.803757,-0.069304,-0.163672,0.011663,0.163124
830,3685908427,0.577755,-0.133925,-0.801620,-0.075613,-0.119807,0.097864,0.080713
831,3685941761,0.578234,-0.138901,-0.799873,-0.081261,-0.140966,0.089370,0.122932
832,3685975095,0.578676,-0.142815,-0.798418,-0.085533,-0.083535,0.336763,0.157506
833,3686008429,0.578983,-0.145720,-0.797316,-0.088773,0.148815,0.084624,0.177277
834,3686041763,0.579074,-0.148157,-0.796491,-0.091511,0.201511,0.047572,0.095782
835,3686075097,0.579172,-0.150149,-0.795784,-0.093757,0.186103,-0.007709,0.194995
836,3686108431,0.579246,-0.151935,-0.795174,-0.095586,0.075838,-0.062943,0.250992
837,3686141765,0.579410,-0.153094,-0.794674,-0.096892,-0.048844,0.105008,0.061624
838,3686175099,0.579632,-0.153337,-0.794404,-0.097393,-0.011177,-0.009600,0.178765
839,3686208433,0.579625,-0.153750,-0.794297,-0.097657,0.091019,-0.082779,0.223991
840,3686241767,0.579454,-0.154785,-0.794152,-0.098211,0.247316,0.107140,0.219428
841,3686275101,0.579586,-0.155978,-0.793664,-0.099483,0.535762,0.115697,0.226516
842,3686308435,0.579882,-0.156197,-0.793345,-0.099953,0.401294,0.157580,0.157095
843,3686341769,0.580170,-0.155752,-0.793244,-0.099789,0.147665,0.186907,0.128056
844,3686375103,0.580317,-0.155138,-0.793301,-0.099429,0.017125,0.114488,0.113049
845,3686408437,0.580161,-0.154618,-0.793579,-0.098937,-0.170184,0.040403,0.105800
846,3686441771,0.579835,-0.153889,-0.794074,-0.098006,-0.295614,0.090144,0.111568
847,3686475105,0.579381,-0.152798,-0.794790,-0.096579,-0.282012,0.028608,0.150126
848,3686508439,0.579025,-0.151424,-0.795518,-0.094872,-0.240969,-0.007801,0.155325
849,3686541773,0.578723,-0.150447,-0.796065,-0.093672,-0.086014,-0.150438,0.196069
850,3686575107,0.578469,-0.150430,-0.796272,-0.093506,-0.024732,-0.176744,0.207489
851,3686608441,0.578401,-0.151186,-0.796096,-0.094206,0.010603,-0.080139,0.199652
852,3686641775,0.578422,-0.152000,-0.795823,-0.095075,0.007211,0.021885,0.229051
853,3686675109,0.578501,-0.152283,-0.795645,-0.095631,0.167124,0.095605,0.195680
854,3686708443,0.578675,-0.151914,-0.795568,-0.095806,0.237494,0.084752,0.194444
855,3686741777,0.578966,-0.151081,-0.795536,-0.095620,0.223885,0.005021,0.123750
856,3686775111,0.579296,-0.150148,-0.795505,-0.095356,0.142474,-0.110943,0.236976
857,3686808445,0.579674,-0.149354,-0.795412,-0.095082,0.092348,-0.013529,0.210680
858,3686841779,0.580017,-0.148756,-0.795304,-0.094828,0.032617,-0.027985,0.098349
859,3686875113,0.580250,-0.148157,-0.795296,-0.094402,-0.106743,-0.019529,0.149779
860,3686908447,0.580436,-0.147471,-0.795381,-0.093614,-0.102055,-0.029963,0.131074
861,3686941781,0.580376,-0.147121,-0.795566,-0.092964,-0.080771,-0.047348,0.243635
862,3686975115,0.580386,-0.146856,-0.795686,-0.092292,0.028626,-0.008680,0.080929
863,3687008449,0.580160,-0.146518,-0.796011,-0.091440,0.039440,-0.062666,0.149135
864,3687041783,0.579796,-0.145952,-0.796507,-0.090326,-0.049902,0.105956,0.197444
865,3687075117,0.579334,-0.144941,-0.797190,-0.088891,-0.140481,0.184138,0.119805
866,3687108451,0.578898,-0.143496,-0.797968,-0.087074,-0.146549,0.154901,0.132139
867,3687141785,0.578576,-0.141587,-0.798779,-0.084875,-0.158838,0.156736,0.171302
868,3687175119,0.578357,-0.139043,-0.799661,-0.082227,-0.096555,0.034072,0.178582
869,3687208453,0.578031,-0.136336,-0.800653,-0.079350,-0.027161,-0.023027,0.137818
870,3687241787,0.577546,-0.133644,-0.801759,-0.076227,-0.018253,-0.111498,0.167105
871,3687275121,0.577177,-0.131084,-0.802728,-0.073219,-0.043170,-0.046462,0.219611
872,3687308455,0.577044,-0.128704,-0.803441,-0.070616,0.166313,-0.095764,0.276562
873,3687341789,0.577063,-0.126561,-0.803954,-0.068461,0.224688,0.078557,0.227881
874,3687375123,0.577264,-0.124178,-0.804367,-0.066242,0.270652,-0.072754,0.224032
875,3687408457,0.577702,-0.122149,-0.804483,-0.064777,0.251119,-0.064632,0.201279
876,3687441791,0.578256,-0.120809,-0.804336,-0.064162,0.100101,-0.071611,0.211312
877,3687475125,0.578837,-0.120207,-0.803995,-0.064335,0.037385,-0.045051,0.152019
878,3687508459,0.579202,-0.120073,-0.803705,-0.064914,-0.203837,-0.102987,0.143414
879,3687541793,0.579456,-0.120115,-0.803476,-0.065410,-0.315576,-0.075961,0.125258
880,3687575127,0.579475,-0.120535,-0.803346,-0.066063,-0.387182,-0.139485,0.087665
881,3687608461,0.579494,-0.120932,-0.803231,-0.066567,-0.432013,-0.094875,0.181400
882,3687641795,0.579521,-0.121406,-0.803103,-0.067007,-0.231223,-0.189346,0.203348
883,3687675129,0.579510,-0.122307,-0.802910,-0.067771,-0.151187,-0.064966,0.158412
884,3687708463,0.579493,-0.123587,-0.802629,-0.068915,-0.025930,-0.082633,0.236539
885,3687741797,0.579492,-0.125151,-0.802255,-0.070448,0.036018,0.026909,0.187516
886,3687775131,0.579511,-0.126499,-0.801896,-0.071954,0.042413,0.036914,0.250084
887,3687808465,0.579891,-0.127199,-0.801409,-0.073074,0.103873,0.082763,0.228668
888,3687841799,0.580299,-0.128075,-0.800839,-0.074543,0.172936,-0.059321,0.181652
889,3687875133,0.580799,-0.129571,-0.800033,-0.076677,0.108738,0.036541,0.111167
890,3687908467,0.581344,-0.131503,-0.799058,-0.079379,-0.005306,-0.043531,0.225292
891,3687941801,0.582017,-0.133497,-0.797969,-0.082035,-0.006153,-0.024438,0.230716
892,3687975135,0.582597,-0.135728,-0.796878,-0.084811,-0.066103,-0.063386,0.137960
893,3688008469,0.583108,-0.138426,-0.795694,-0.088000,-0.067982,-0.135414,0.141072
894,3688041803,0.583664,-0.141113,-0.794461,-0.091128,-0.071966,-0.044806,0.087857
895,3688075137,0.584111,-0.143896,-0.793273,-0.094212,-0.109808,-0.028743,0.152220
896,3688108471,0.584537,-0.146383,-0.792170,-0.096970,-0.130554,-0.004056,0.185690
897,3688141805,0.584828,-0.148355,-0.791327,-0.099082,-0.124785,0.037869,0.098388
898,3688175139,0.584921,-0.149952,-0.790763,-0.100619,-0.111048,-0.028580,0.146031
899,3688208473,0.584908,-0.151578,-0.790279,-0.102059,-0.028900,0.037754,0.144730
900,3688241807,0.584794,-0.153093,-0.789896,-0.103400,0.056076,0.016276,0.196157
901,3688275141,0.584923,-0.154209,-0.789443,-0.104470,0.163765,0.020427,0.261190
902,3688308475,0.585506,-0.155239,-0.788636,-0.105761,0.314336,0.091598,0.205421
903,3688341809,0.585980,-0.156408,-0.787839,-0.107350,0.280954,0.008424,0.120461
904,3688375143,0.586488,-0.157588,-0.787018,-0.108851,0.147293,0.053049,0.203088
905,3688408477,0.587075,-0.158806,-0.786119,-0.110407,0.097188,0.032858,0.260982
906,3688441811,0.587751,-0.159982,-0.785125,-0.112171,0.141050,-0.046365,0.130563
907,3688475145,0.588202,-0.161070,-0.784348,-0.113676,0.112884,-0.019146,0.107249
908,3688508479,0.588217,-0.162040,-0.784000,-0.114620,0.036266,-0.007769,0.112397
909,3688541813,0.587973,-0.162720,-0.783979,-0.115051,0.022382,0.121861,0.187171
910,3688575147,0.587761,-0.162793,-0.784150,-0.114862,0.046169,0.125459,0.106339
911,3688608481,0.587482,-0.162194,-0.784619,-0.113932,-0.029912,0.110117,0.148201
912,3688641815,0.586875,-0.161142,-0.785524,-0.112303,-0.067455,0.137089,0.116434
913,3688675149,0.586155,-0.159559,-0.786700,-0.110073,0.000463,0.137753,0.136087
914,3688708483,0.585543,-0.157432,-0.787952,-0.107405,0.090138,0.080566,0.203088
915,3688741817,0.585017,-0.154924,-0.789231,-0.104485,0.071325,0.051607,0.182060
916,3688775151,0.584482,-0.152261,-0.790546,-0.101412,0.035617,-0.039272,0.187096
917,3688808485,0.583956,-0.149911,-0.791720,-0.098747,0.000971,-0.075742,0.152243
918,3688841819,0.583576,-0.147835,-0.792682,-0.096382,-0.042706,-0.130139,0.219153
919,3688875153,0.583253,-0.146124,-0.793467,-0.094466,-0.081302,-0.058651,0.141206
920,3688908487,0.582921,-0.144533,-0.794213,-0.092669,-0.174837,-0.028997,0.168487
921,3688941821,0.582606,-0.143038,-0.794924,-0.090858,-0.116148,-0.131184,0.209994
922,3688975155,0.582266,-0.141770,-0.795564,-0.089412,-0.107605,-0.092615,0.191496
923,3689008489,0.582087,-0.140588,-0.796058,-0.088042,-0.118406,-0.029746,0.171079
924,3689041823,0.582093,-0.139357,-0.796422,-0.086654,-0.138856,-0.156495,0.166880
925,3689075157,0.582085,-0.138388,-0.796716,-0.085551,-0.280188,-0.122234,0.140676
926,3689108491,0.581814,-0.137649,-0.797161,-0.084441,-0.234627,-0.170796,0.209145
927,3689141825,0.581355,-0.137236,-0.797682,-0.083343,-0.215652,-0.062970,0.148101
928,3689175159,0.580817,-0.137138,-0.798188,-0.082403,-0.129433,0.102347,0.076169
929,3689208493,0.580419,-0.136913,-0.798612,-0.081471,0.043877,0.067112,0.194198
930,3689241827,0.580289,-0.136384,-0.798890,-0.080545,0.042059,-0.054918,0.250270
931,3689275161,0.580567,-0.135797,-0.798862,-0.079814,-0.024649,0.148036,0.228141
932,3689308495,0.581172,-0.134859,-0.798672,-0.078905,0.144389,0.023378,0.167558
933,3689341829,0.581732,-0.133970,-0.798447,-0.078566,0.056878,-0.209315,0.263918
934,3689375163,0.582300,-0.133596,-0.798069,-0.078837,0.086388,-0.353993,0.151437
935,3689408497,0.582631,-0.134204,-0.797638,-0.079709,-0.071988,-0.448422,0.221119
936,3689441831,0.583304,-0.135328,-0.796808,-0.081171,-0.295713,-0.143906,0.164581
937,3689475165,0.584173,-0.136901,-0.795679,-0.083333,-0.287165,-0.105432,0.200891
938,3689508499,0.585135,-0.138633,-0.794437,-0.085545,-0.165844,-0.160662,0.077391
939,3689541833,0.586022,-0.141093,-0.793038,-0.088385,-0.101077,-0.135315,0.221622
940,3689575167,0.587370,-0.143775,-0.791200,-0.091532,0.051254,0.109003,0.262897
941,3689608501,0.588609,-0.146961,-0.789222,-0.095498,0.166802,-0.203108,0.199730
942,3689641835,0.590143,-0.150847,-0.786748,-0.100271,0.354943,-0.216388,0.257919
943,3689675169,0.591550,-0.155497,-0.784061,-0.105770,0.162213,-0.282020,0.264650
944,3689708503,0.592863,-0.160579,-0.781270,-0.111339,-0.244505,-0.217313,0.219992
945,3689741837,0.593837,-0.166361,-0.778440,-0.117312,-0.418772,-0.188138,0.051364
946,3689775171,0.594392,-0.172512,-0.775760,-0.123223,-0.530055,0.044777,0.046765
947,3689808505,0.594920,-0.177925,-0.773347,-0.128051,-0.393603,0.214161,0.035913
948,3689841839,0.595496,-0.182426,-0.771196,-0.131955,-0.198164,0.269560,0.167530
949,3689875173,0.596441,-0.186223,-0.768915,-0.135641,0.329925,0.209934,0.290819
950,3689908507,0.597245,-0.190266,-0.766519,-0.139985,0.508852,0.058953,0.241812
951,3689941841,0.597571,-0.194934,-0.764194,-0.144802,0.366270,0.055915,0.149762
952,3689975175,0.597519,-0.199557,-0.762180,-0.149265,0.212345,0.068755,0.116404
953,3690008509,0.597628,-0.203323,-0.760337,-0.153094,0.095448,0.190969,0.181684
954,3690041843,0.598096,-0.205473,-0.758871,-0.155650,-0.073963,0.347583,0.159513
955,3690075177,0.598536,-0.206497,-0.757993,-0.156877,-0.043851,0.137123,0.123355
956,3690108511,0.598614,-0.207600,-0.757443,-0.157779,0.042948,-0.104930,0.159885
957,3690141845,0.598752,-0.208764,-0.756818,-0.158713,0.035250,0.199879,0.111009
958,3690175179,0.599115,-0.208700,-0.756570,-0.158612,0.149699,0.352531,0.223674
959,3690208513,0.599627,-0.207184,-0.756882,-0.157172,0.171441,0.435176,0.121557
960,3690241847,0.600410,-0.204187,-0.757567,-0.154789,0.277072,0.397631,0.178706
961,3690275181,0.601227,-0.200354,-0.758456,-0.152248,0.347282,-0.036664,0.280633
962,3690308515,0.602997,-0.195487,-0.758665,-0.150524,-0.251390,0.615533,0.698015
963,3690341849,0.604912,-0.187850,-0.758409,-0.153816,0.280505,-0.369711,1.145635
964,3690375183,0.605989,-0.182163,-0.758161,-0.157594,0.902715,-0.174202,-0.395508
965,3690408517,0.604409,-0.175283,-0.761640,-0.154660,-0.389049,0.146197,-0.798105
966,3690441851,0.603349,-0.171809,-0.763606,-0.152996,-1.639082,-0.385113,0.077863
967,3690475185,0.603087,-0.168416,-0.765308,-0.149252,-0.663388,0.277126,-0.192054
968,3690508519,0.601594,-0.165435,-0.767955,-0.144953,-0.035929,-0.299985,0.234504
969,3690541853,0.601495,-0.162020,-0.769525,-0.140837,0.532958,0.154205,0.403069
970,3690575187,0.601410,-0.158279,-0.771023,-0.137214,0.594610,0.230012,0.335426
971,3690608521,0.601119,-0.154538,-0.772528,-0.134259,0.315288,-0.010954,0.182685
972,3690641855,0.600738,-0.151419,-0.773858,-0.131837,0.305011,-0.064641,0.232273
973,3690675189,0.600352,-0.148542,-0.775085,-0.129635,-0.268605,0.181574,0.156847
974,3690708523,0.600248,-0.145142,-0.776250,-0.126971,-0.317702,0.275278,0.049982
975,3690741857,0.600119,-0.141135,-0.777597,-0.123818,-0.243015,0.253116,0.161409
976,3690775191,0.600170,-0.135955,-0.779103,-0.119838,-0.000794,0.127461,0.173419
977,3690808525,0.600322,-0.130347,-0.780587,-0.115572,0.249923,-0.105988,0.182307
978,3690841859,0.600255,-0.125982,-0.781800,-0.112521,0.232137,-0.201162,0.200379
979,3690875193,0.600134,-0.123333,-0.782528,-0.111035,0.042009,-0.253225,0.208664
980,3690908527,0.599985,-0.122040,-0.782889,-0.110717,-0.052051,-0.339480,0.208698
981,3690941861,0.599511,-0.121527,-0.783328,-0.110748,-0.203593,-0.168237,0.126124
982,3690975195,0.598928,-0.120897,-0.783902,-0.110530,-0.094218,-0.161190,0.229320
983,3691008529,0.598312,-0.120565,-0.784442,-0.110395,-0.012663,-0.115198,0.110968
984,3691041863,0.597605,-0.120540,-0.785007,-0.110234,0.079628,-0.014240,0.158348
985,3691075197,0.596597,-0.120909,-0.785710,-0.110282,0.041654,-0.034584,0.214643
986,3691108531,0.595629,-0.121544,-0.786306,-0.110572,0.116036,0.019551,0.116456
987,3691141865,0.594562,-0.122331,-0.786981,-0.110641,0.194449,0.141217,0.115551
988,3691175199,0.593243,-0.122563,-0.787984,-0.110333,0.086492,0.257570,0.151168
989,3691208533,0.592085,-0.121604,-0.789143,-0.109318,0.138837,0.289396,0.176627
990,3691241867,0.591014,-0.119649,-0.790477,-0.107622,0.133112,0.234117,0.155869
991,3691275201,0.590005,-0.116939,-0.791950,-0.105282,-0.086868,0.209472,0.073805
992,3691308535,0.588838,-0.113025,-0.793868,-0.101589,-0.013265,0.308431,0.126793
993,3691341869,0.587516,-0.107992,-0.796146,-0.096768,0.104821,0.244285,0.145220
994,3691375203,0.586238,-0.101980,-0.798543,-0.091128,-0.030261,0.166152,0.142655
995,3691408537,0.585145,-0.095336,-0.800845,-0.084935,-0.057704,0.051267,0.089419
996,3691441871,0.583768,-0.088514,-0.803310,-0.078247,-0.073872,0.083846,0.212571
997,3691475205,0.582224,-0.081502,-0.805806,-0.071406,-0.205214,-0.137317,0.187505
998,3691508539,0.580790,-0.074606,-0.808083,-0.064571,-0.121453,-0.184789,0.193111
999,3691541873,0.578994,-0.068196,-0.810442,-0.057876,-0.219009,-0.130046,0.229859
1000,3691575207,0.577531,-0.061873,-0.812446,-0.051090,-0.034026,-0.188839,0.232407
1001,3691608541,0.575405,-0.055898,-0.814787,-0.044238,-0.101212,-0.101058,0.190415
1002,3691641875,0.573845,-0.050577,-0.816532,-0.038327,0.003559,-0.477128,0.274341
1003,3691675209,0.573056,-0.046460,-0.817536,-0.033649,0.108208,-0.410079,0.168254
1004,3691708543,0.572504,-0.043268,-0.818260,-0.029453,0.133573,-0.148352,0.208116
1005,3691741877,0.572299,-0.040540,-0.818670,-0.025687,0.163826,-0.257796,0.314588
1006,3691775211,0.572891,-0.038377,-0.818447,-0.022732,0.108165,-0.157528,0.261439
1007,3691808545,0.574093,-0.037049,-0.817731,-0.020248,0.352678,0.028509,0.110805
1008,3691841879,0.575130,-0.035821,-0.817102,-0.018317,0.345295,0.038966,0.399023
1009,3691875213,0.576372,-0.034078,-0.816310,-0.017927,0.368603,-0.257768,0.253486
1010,3691908547,0.577559,-0.034057,-0.815456,-0.018614,0.139811,-0.447962,0.085379
1011,3691941881,0.578531,-0.036105,-0.814635,-0.020420,-0.066328,-0.262689,0.088606
1012,3691975215,0.579465,-0.038884,-0.813766,-0.023314,-0.389840,-0.341137,0.237337
1013,3692008549,0.580788,-0.042240,-0.812527,-0.027383,-0.362204,-0.412222,0.211760
1014,3692041883,0.582202,-0.046666,-0.811107,-0.031898,-0.236362,-0.333532,0.128632
1015,3692075217,0.583009,-0.051808,-0.810006,-0.036844,-0.212786,-0.358648,0.199546
1016,3692108551,0.583595,-0.057986,-0.808904,-0.042173,-0.261568,-0.359639,0.138304
1017,3692141885,0.584080,-0.065170,-0.807653,-0.048469,-0.303193,-0.258621,0.196009
1018,3692175219,0.584398,-0.072759,-0.806333,-0.055338,-0.217700,-0.177691,0.078597
1019,3692208553,0.584401,-0.079849,-0.805219,-0.061415,-0.509681,-0.043617,0.238800
1020,3692241887,0.584222,-0.086412,-0.804236,-0.066864,-0.340000,-0.091726,0.094535
1021,3692275221,0.583562,-0.093057,-0.803538,-0.071915,-0.127054,-0.183622,0.166642
1022,3692308555,0.582800,-0.100998,-0.802622,-0.077411,-0.143867,0.238379,0.084339
1023,3692341889,0.581552,-0.108663,-0.802019,-0.082491,-0.343914,0.193678,0.174279
1024,3692375223,0.580592,-0.115137,-0.801381,-0.086574,-0.046692,0.258870,0.129134
1025,3692408557,0.579867,-0.120550,-0.800723,-0.090079,0.100123,0.299480,0.205349
1026,3692441891,0.579390,-0.125174,-0.799993,-0.093271,0.413301,0.148048,0.170301
1027,3692475225,0.579442,-0.129375,-0.798857,-0.096879,0.563017,0.063728,0.354425
1028,3692508559,0.580006,-0.134022,-0.797047,-0.101964,0.756432,0.041475,0.267212
1029,3692541893,0.580364,-0.139137,-0.795183,-0.107477,0.564421,-0.025398,0.177305
1030,3692575227,0.580393,-0.144676,-0.793424,-0.112873,0.031457,-0.061802,0.288778
1031,3692608561,0.580469,-0.150032,-0.791603,-0.118153,-0.158544,0.082365,0.090536
1032,3692641895,0.580562,-0.154240,-0.790122,-0.122126,-0.239403,0.178858,0.129694
1033,3692675229,0.580730,-0.157633,-0.788882,-0.124975,-0.270259,0.131134,0.156832
1034,3692708563,0.580690,-0.160480,-0.787945,-0.127426,-0.157970,0.112796,0.121617
1035,3692741897,0.580320,-0.162888,-0.787400,-0.129408,0.028250,0.065962,0.115146
1036,3692775231,0.579900,-0.165333,-0.786874,-0.131374,0.160761,-0.009980,0.148399
1037,3692808565,0.579871,-0.167509,-0.786073,-0.133526,0.275950,-0.004319,0.180288
1038,3692841899,0.579820,-0.169283,-0.785416,-0.135361,0.200074,-0.037838,0.248233
1039,3692875233,0.579749,-0.170719,-0.784903,-0.136835,0.029407,0.112556,0.156853
1040,3692908567,0.579848,-0.171498,-0.784488,-0.137815,0.027617,-0.053982,0.187757
1041,3692941901,0.580061,-0.172220,-0.784012,-0.138720,-0.052244,-0.025705,0.144854
1042,3692975235,0.580119,-0.172906,-0.783705,-0.139358,-0.135672,-0.088847,0.119399
1043,3693008569,0.580155,-0.173806,-0.783342,-0.140130,-0.130391,-0.139761,0.105802
1044,3693041903,0.580099,-0.174777,-0.783036,-0.140865,-0.240524,-0.178777,0.136208
1045,3693075237,0.580273,-0.175508,-0.782668,-0.141280,-0.275314,0.036976,0.183896
1046,3693108571,0.580444,-0.176152,-0.782406,-0.141228,-0.148477,-0.049834,0.252523
1047,3693141905,0.580709,-0.176704,-0.782152,-0.140857,0.071420,0.208757,0.108621
1048,3693175239,0.580744,-0.176565,-0.782339,-0.139843,-0.034465,0.117989,0.148581
1049,3693208573,0.581007,-0.175631,-0.782642,-0.138219,0.096972,-0.078751,0.260057
1050,3693241907,0.581262,-0.174680,-0.782942,-0.136649,0.068757,-0.119572,0.152061
1051,3693275241,0.581560,-0.173965,-0.783123,-0.135247,-0.081502,0.067437,0.118288
1052,3693308575,0.581759,-0.173261,-0.783373,-0.133843,0.099613,0.007941,0.220194
1053,3693341909,0.581855,-0.172425,-0.783716,-0.132489,0.242340,0.047403,0.194611
1054,3693375243,0.582091,-0.171235,-0.784060,-0.130951,0.192327,0.147031,0.155919
1055,3693408577,0.582281,-0.170267,-0.784357,-0.129587,0.161641,-0.101129,0.359831
1056,3693441911,0.582407,-0.169714,-0.784544,-0.128609,-0.039358,0.050332,0.117364
1057,3693475245,0.582561,-0.168854,-0.784820,-0.127347,-0.131740,0.182363,0.078522
1058,3693508579,0.582752,-0.167496,-0.785235,-0.125703,-0.158021,0.125369,0.063911
1059,3693541913,0.582876,-0.165672,-0.785862,-0.123603,-0.096306,0.039122,0.189665
1060,3693575247,0.583039,-0.164301,-0.786269,-0.122071,-0.024700,-0.055208,0.256913
1061,3693608581,0.583346,-0.164214,-0.786059,-0.122068,-0.016721,-0.206478,0.203676
1062,3693641915,0.583772,-0.165119,-0.785388,-0.123134,-0.151713,-0.187347,0.176247
1063,3693675249,0.584229,-0.166112,-0.784682,-0.124125,-0.212267,0.063596,0.073732
1064,3693708583,0.584376,-0.166519,-0.784453,-0.124338,-0.112747,0.105791,0.121418
1065,3693741917,0.584587,-0.166135,-0.784463,-0.123792,0.155624,0.129404,0.245356
1066,3693775251,0.584882,-0.165217,-0.784569,-0.122957,0.311838,0.026660,0.240791
1067,3693808585,0.585126,-0.164236,-0.784731,-0.122074,0.315162,-0.072900,0.192267
1068,3693841919,0.585351,-0.163641,-0.784789,-0.121419,0.147742,-0.082895,0.174192
1069,3693875253,0.585727,-0.163065,-0.784720,-0.120824,-0.005889,0.142466,0.135465
1070,3693908587,0.586235,-0.162009,-0.784701,-0.119900,0.041685,0.246830,0.166768
1071,3693941921,0.586687,-0.160368,-0.784913,-0.118495,0.106392,0.111391,0.184115
1072,3693975255,0.587130,-0.158141,-0.785329,-0.116525,-0.003854,0.085477,0.165695
1073,3694008589,0.587881,-0.155654,-0.785557,-0.114533,0.144751,0.094041,0.215004
1074,3694041923,0.589084,-0.153062,-0.785381,-0.113040,0.393742,0.206923,0.149386
1075,3694075257,0.590527,-0.150407,-0.784935,-0.112174,0.454047,0.081831,0.272658
1076,3694108591,0.591736,-0.147767,-0.784626,-0.111470,0.154405,-0.075571,0.213934
1077,3694141925,0.592573,-0.145700,-0.784467,-0.110860,-0.038613,-0.118302,0.191370
1078,3694175259,0.593260,-0.144413,-0.784212,-0.110676,-0.254437,-0.100533,0.149669
1079,3694208593,0.593365,-0.143162,-0.784453,-0.110025,-0.608321,-0.277690,0.072773
1080,3694241927,0.592778,-0.142134,-0.785274,-0.108657,-0.919810,-0.172875,-0.023137
1081,3694275261,0.591923,-0.141358,-0.786334,-0.106651,-0.734526,-0.121937,0.063925
1082,3694308595,0.590996,-0.140730,-0.787441,-0.104427,-0.387234,-0.041377,0.086339
1083,3694341929,0.589827,-0.139774,-0.788844,-0.101699,-0.168082,-0.015339,0.186469
1084,3694375263,0.588660,-0.138739,-0.790261,-0.098832,0.223423,-0.001373,0.247748
1085,3694408597,0.587853,-0.137960,-0.791272,-0.096624,0.537975,0.037437,0.286347
1086,3694441931,0.587797,-0.137147,-0.791615,-0.095294,0.660472,0.059565,0.312685
1087,3694475265,0.588059,-0.136278,-0.791655,-0.094594,0.420718,-0.036222,0.176929
1088,3694508599,0.588101,-0.135473,-0.791844,-0.093903,0.060762,-0.077442,0.254936
1089,3694541933,0.588464,-0.135142,-0.791642,-0.093807,-0.120833,-0.061663,0.152670
1090,3694575267,0.589110,-0.134927,-0.791164,-0.094100,-0.272156,-0.077550,0.125641
1091,3694608601,0.589511,-0.134319,-0.790999,-0.093844,-0.383417,-0.104652,0.137833
1092,3694641935,0.589592,-0.133770,-0.791122,-0.093079,-0.273960,-0.064228,0.117092
1093,3694675269,0.589536,-0.133459,-0.791303,-0.092337,-0.109986,0.003635,0.140219
1094,3694708603,0.589435,-0.132796,-0.791613,-0.091272,-0.053241,-0.012368,0.170670
1095,3694741937,0.589094,-0.131621,-0.792252,-0.089622,-0.099021,0.147922,0.171625
1096,3694775271,0.588496,-0.129869,-0.793236,-0.087371,-0.073949,0.111035,0.144039
1097,3694808605,0.588051,-0.127877,-0.794133,-0.085125,0.066986,0.059657,0.234015
1098,3694841939,0.587956,-0.125958,-0.794711,-0.083230,0.144778,0.002750,0.131036
1099,3694875273,0.587781,-0.124183,-0.795302,-0.081469,0.014423,-0.088443,0.231074
1100,3694908607,0.587638,-0.122915,-0.795746,-0.080083,0.056609,-0.008845,0.126060
1101,3694941941,0.587468,-0.122065,-0.796095,-0.079153,0.024528,-0.027569,0.176907
1102,3694975275,0.587653,-0.121388,-0.796118,-0.078580,0.087143,-0.029562,0.220496
1103,3695008609,0.587692,-0.120971,-0.796185,-0.078258,-0.022145,-0.080864,0.209878
1104,3695041943,0.587793,-0.120999,-0.796114,-0.078169,-0.008396,-0.113742,0.209972
1105,3695075277,0.587950,-0.121719,-0.795840,-0.078666,0.001047,-0.030168,0.172050
1106,3695108611,0.588277,-0.122634,-0.795378,-0.079470,0.000598,0.052148,0.153643
1107,3695141945,0.588653,-0.123362,-0.794917,-0.080159,0.055404,-0.022733,0.199102
1108,3695175279,0.589075,-0.124241,-0.794376,-0.081072,0.151954,0.001549,0.175255
1109,3695208613,0.589576,-0.125495,-0.793661,-0.082480,0.134840,-0.062416,0.242208
1110,3695241947,0.590154,-0.126913,-0.792851,-0.083956,0.102580,-0.005104,0.195546
1111,3695275281,0.590570,-0.128500,-0.792121,-0.085502,0.009062,0.029564,0.142260
1112,3695308615,0.591048,-0.129654,-0.791419,-0.086941,-0.060312,0.026495,0.118585
1113,3695341949,0.591599,-0.130303,-0.790781,-0.088019,-0.030203,-0.092360,0.215050
1114,3695375283,0.592226,-0.130963,-0.790104,-0.088905,-0.078547,-0.034395,0.133319
1115,3695408617,0.592685,-0.131803,-0.789510,-0.089867,-0.148102,-0.101210,0.141676
1116,3695441951,0.593103,-0.132834,-0.788897,-0.090972,-0.075402,-0.095568,0.168937
1117,3695475285,0.593518,-0.134059,-0.788243,-0.092129,-0.062540,-0.067901,0.158340
1118,3695508619,0.594025,-0.135175,-0.787550,-0.093158,-0.050682,-0.102507,0.135947
1119,3695541953,0.594578,-0.136296,-0.786820,-0.094154,-0.094432,-0.043764,0.159447
1120,3695575287,0.595166,-0.137473,-0.786050,-0.095159,-0.004203,-0.057655,0.167634
1121,3695608621,0.595732,-0.138629,-0.785305,-0.096088,-0.077344,0.023848,0.185739
1122,3695641955,0.596217,-0.139369,-0.784729,-0.096705,-0.080395,0.032997,0.145578
1123,3695675289,0.596761,-0.139700,-0.784195,-0.097204,-0.012121,0.019476,0.158086
1124,3695708623,0.597399,-0.139981,-0.783586,-0.097797,0.089050,-0.013699,0.173573
1125,3695741957,0.597726,-0.140776,-0.783116,-0.098417,-0.003476,-0.002609,0.237015
1126,3695775291,0.597849,-0.141793,-0.782746,-0.099150,-0.013508,0.279640,0.081413
1127,3695808625,0.597792,-0.141955,-0.782746,-0.099266,0.061895,0.185172,0.153046
1128,3695841959,0.598159,-0.141006,-0.782706,-0.098718,0.144998,0.080743,0.273071
1129,3695875293,0.598870,-0.139771,-0.782451,-0.098187,0.149304,0.111341,0.213305
1130,3695908627,0.599472,-0.138872,-0.782186,-0.097894,0.197466,0.057434,0.159498
1131,3695941961,0.599650,-0.138745,-0.782037,-0.098177,0.092155,0.012973,0.149525
1132,3695975295,0.599448,-0.138837,-0.782110,-0.098691,-0.160755,0.009737,0.169145
1133,3696008629,0.599469,-0.138679,-0.782092,-0.098928,-0.199579,0.142889,0.099964
1134,3696041963,0.599514,-0.138032,-0.782179,-0.098876,-0.211307,0.047030,0.230964
1135,3696075297,0.599944,-0.136825,-0.782025,-0.099165,-0.177637,-0.027980,0.312188
1136,3696108631,0.600879,-0.135311,-0.781360,-0.100805,-0.142427,0.096470,0.374499
1137,3696141965,0.602110,-0.133651,-0.780267,-0.104091,0.102264,-0.380432,0.234852
1138,3696175299,0.603236,-0.133534,-0.778974,-0.107360,0.188485,-0.077699,0.068799
1139,3696208633,0.603679,-0.133443,-0.778099,-0.111249,-0.071132,-0.299286,0.432549
1140,3696241967,0.603699,-0.134235,-0.777390,-0.115079,-0.176977,-0.071929,-0.067371
1141,3696275301,0.603371,-0.134660,-0.777120,-0.118086,-0.201645,0.058785,0.111283
1142,3696308635,0.602758,-0.136618,-0.776668,-0.121882,-0.233296,-0.356177,0.051563
1143,3696341969,0.602520,-0.139107,-0.775850,-0.125406,-0.221384,0.034673,0.118009
1144,3696375303,0.601687,-0.142164,-0.775378,-0.128849,-0.038228,-0.025552,0.133796
1145,3696408637,0.601390,-0.144757,-0.774545,-0.132313,0.388904,0.049849,0.259510
1146,3696441971,0.600799,-0.147224,-0.773960,-0.135652,0.244956,0.120142,0.195285
1147,3696475305,0.600254,-0.149610,-0.773362,-0.138830,0.208431,0.104168,0.171501
1148,3696508639,0.600096,-0.151355,-0.772632,-0.141656,0.279846,0.020797,0.213485
1149,3696541973,0.600064,-0.152713,-0.771963,-0.143966,0.252387,0.079441,0.137792
1150,3696575307,0.599758,-0.154085,-0.771554,-0.145958,-0.226319,0.144567,0.110439
1151,3696608641,0.599933,-0.154770,-0.771046,-0.147189,-0.067102,-0.065712,0.197885
1152,3696641975,0.599878,-0.155769,-0.770620,-0.148584,-0.022039,-0.214725,0.200615
1153,3696675309,0.599880,-0.157068,-0.770134,-0.149729,-0.219893,-0.132442,0.136811
1154,3696708643,0.599845,-0.158266,-0.769788,-0.150384,-0.098326,0.078022,0.132712
1155,3696741977,0.599666,-0.159453,-0.769596,-0.150825,-0.087316,0.195245,0.160233
1156,3696775311,0.599626,-0.159912,-0.769554,-0.150713,0.115244,0.193003,0.181565
1157,3696808645,0.599745,-0.159690,-0.769619,-0.150138,0.246564,0.140943,0.194406
1158,3696841979,0.600046,-0.158791,-0.769804,-0.148941,0.229772,0.129029,0.153995
1159,3696875313,0.600508,-0.157351,-0.770046,-0.147346,0.290986,0.080701,0.214101
1160,3696908647,0.600962,-0.156136,-0.770221,-0.145870,0.032685,0.285371,0.073215
1161,3696941981,0.601590,-0.154238,-0.770522,-0.143691,-0.253145,0.189109,0.198129
1162,3696975315,0.601987,-0.151846,-0.771150,-0.141183,-0.011516,-0.283744,0.142492
1163,3697008649,0.602401,-0.149948,-0.771599,-0.138977,-0.050700,-0.196340,0.210115
1164,3697041983,0.602826,-0.148051,-0.772046,-0.136668,0.002147,0.206818,0.190803
1165,3697075317,0.602800,-0.146230,-0.772762,-0.134681,0.010488,0.066861,0.184284
1166,3697108651,0.603118,-0.144411,-0.773121,-0.133146,0.173091,0.035761,0.182411
1167,3697141985,0.603673,-0.142166,-0.773399,-0.131427,0.256362,0.288355,0.167256
1168,3697175319,0.604178,-0.138819,-0.774013,-0.129045,-0.031333,0.240630,0.219940
1169,3697208653,0.605035,-0.134756,-0.774491,-0.126443,0.050111,0.028590,0.152918
1170,3697241987,0.605495,-0.130783,-0.775266,-0.123636,-0.060226,0.105946,0.124842
1171,3697275321,0.605800,-0.127142,-0.776066,-0.120886,-0.357056,0.024643,0.094861
1172,3697308655,0.606033,-0.123447,-0.777001,-0.117496,-0.165280,-0.016319,0.093271
1173,3697341989,0.605811,-0.120078,-0.778229,-0.113954,0.062642,-0.085575,0.169229
1174,3697375323,0.605329,-0.116977,-0.779624,-0.110137,-0.026321,0.112656,0.162728
1175,3697408657,0.604792,-0.113711,-0.781088,-0.106057,0.107947,-0.028770,0.244422
1176,3697441991,0.604210,-0.110874,-0.782420,-0.102501,0.097496,-0.128868,0.175955
1177,3697475325,0.603507,-0.108611,-0.783678,-0.099411,0.020160,-0.161206,0.169946
1178,3697508659,0.602900,-0.106858,-0.784751,-0.096492,0.015394,0.059674,0.196260
1179,3697541993,0.602195,-0.104904,-0.785913,-0.093535,-0.186222,0.014434,0.136558
1180,3697575327,0.601402,-0.102588,-0.787220,-0.090148,-0.018037,-0.087126,0.180733
1181,3697608661,0.600349,-0.100564,-0.788639,-0.086998,-0.161589,0.011319,0.120568
1182,3697641995,0.599210,-0.098567,-0.790082,-0.083980,-0.078566,-0.092290,0.196088
1183,3697675329,0.598160,-0.096622,-0.791420,-0.081077,0.124941,0.000496,0.120058
1184,3697708663,0.596906,-0.094757,-0.792865,-0.078357,0.053181,0.107967,0.252404
1185,3697741997,0.595901,-0.092752,-0.794103,-0.075831,0.184453,0.135222,0.147728
1186,3697775331,0.594919,-0.090578,-0.795312,-0.073463,0.081160,0.191464,0.162770
1187,3697808665,0.594033,-0.087869,-0.796505,-0.070955,0.074639,0.079102,0.120565
1188,3697841999,0.593043,-0.084912,-0.797803,-0.068194,0.103313,0.058618,0.210734
1189,3697875333,0.592003,-0.081898,-0.799128,-0.065351,0.043935,-0.077059,0.210022
1190,3697908667,0.591260,-0.078803,-0.800213,-0.062538,-0.046841,-0.175727,0.198952
1191,3697942001,0.590673,-0.076078,-0.801110,-0.059932,-0.055715,-0.144110,0.210507
1192,3697975335,0.590056,-0.073712,-0.801981,-0.057259,-0.241210,-0.116070,0.177469
1193,3698008669,0.589471,-0.071161,-0.802851,-0.054239,-0.268549,-0.156588,0.154957
1194,3698042003,0.589034,-0.068633,-0.803585,-0.051296,-0.154968,-0.099290,0.183121
1195,3698075337,0.588548,-0.066331,-0.804290,-0.048788,-0.054091,-0.207339,0.246554
1196,3698108671,0.588235,-0.064718,-0.804753,-0.047057,0.114960,-0.231493,0.164103
1197,3698142005,0.587667,-0.063713,-0.805323,-0.045762,0.082525,-0.022221,0.239321
1198,3698175339,0.587141,-0.062964,-0.805824,-0.044725,0.131107,-0.113387,0.244387
1199,3698208673,0.587114,-0.062360,-0.805930,-0.043998,0.266544,0.110113,0.150092
1200,3698242007,0.586979,-0.061521,-0.806141,-0.043115,0.225843,0.029549,0.214005
1201,3698275341,0.586871,-0.060829,-0.806313,-0.042347,0.001607,-0.144917,0.123107
1202,3698308675,0.586492,-0.060650,-0.806627,-0.041852,-0.272034,-0.076844,0.120459
1203,3698342009,0.586073,-0.060406,-0.806994,-0.040992,-0.195021,-0.013915,0.139460
1204,3698375343,0.585595,-0.059931,-0.807436,-0.039804,0.006434,0.114247,0.148690
1205,3698408677,0.585088,-0.058823,-0.807968,-0.038093,0.152309,0.062581,0.137338
1206,3698442011,0.584586,-0.057196,-0.808544,-0.036012,0.210017,0.218398,0.132969
1207,3698475345,0.583987,-0.054538,-0.809284,-0.033096,-0.025383,0.396838,0.111086
1208,3698508679,0.583271,-0.050684,-0.810199,-0.029238,0.058173,0.278295,0.193532
1209,3698542013,0.582787,-0.046848,-0.810900,-0.025632,0.444485,0.176130,0.239408
1210,3698575347,0.582383,-0.043443,-0.811469,-0.022602,0.479823,0.200104,0.149809
1211,3698608681,0.582172,-0.039729,-0.811892,-0.019497,0.412145,0.277958,0.223450
1212,3698642015,0.582182,-0.036012,-0.812120,-0.016713,0.474652,0.239868,0.141521
1213,3698675349,0.582152,-0.032436,-0.812343,-0.014005,0.110583,0.101010,0.053638
1214,3698708683,0.581925,-0.028103,-0.812722,-0.010402,-0.278257,0.128544,0.214621
1215,3698742017,0.582132,-0.023397,-0.812767,-0.006042,-0.381109,-0.165383,0.168498
1216,3698775351,0.581857,-0.018472,-0.813112,-0.001091,-0.278736,-0.143241,0.089397
1217,3698808685,0.581216,-0.013551,-0.813656,0.004404,-0.346631,-0.176115,0.268720
1218,3698842019,0.581573,-0.009111,-0.813424,0.009101,0.174172,-0.105886,0.259501
1219,3698875353,0.582411,-0.005134,-0.812810,0.012765,0.232152,-0.202731,0.194278
1220,3698908687,0.582738,-0.001712,-0.812535,0.015876,-0.024739,-0.390528,0.139458
1221,3698942021,0.582956,-0.000356,-0.812343,0.017675,-0.248660,-0.300860,0.113383
1222,3698975355,0.582822,0.000200,-0.812407,0.019103,-0.244913,-0.001152,0.176334
1223,3699008689,0.582947,0.000739,-0.812292,0.020169,0.123220,0.025139,0.249236
1224,3699042023,0.583233,0.001467,-0.812058,0.021206,0.172929,-0.050557,0.202095
1225,3699075357,0.583486,0.002020,-0.811853,0.022066,0.111093,-0.110157,0.134587
1226,3699108691,0.583763,0.001404,-0.811659,0.021888,0.145389,-0.161763,0.178147
1227,3699142025,0.584255,0.000160,-0.811329,0.021070,0.091370,-0.043206,0.238544
1228,3699175359,0.585094,-0.001238,-0.810748,0.020083,0.080776,0.028629,0.268003
1229,3699208693,0.585900,-0.002211,-0.810191,0.018925,0.142003,-0.214032,0.186319
1230,3699242027,0.586519,-0.003809,-0.809773,0.017334,-0.018986,-0.254220,0.184074
1231,3699275361,0.586855,-0.006507,-0.809564,0.014720,-0.167111,-0.329767,0.235886
1232,3699308695,0.587112,-0.010062,-0.809401,0.010988,-0.335120,-0.278368,0.144417
1233,3699342029,0.586989,-0.014435,-0.809466,0.007237,-0.428294,-0.233548,0.148101
1234,3699375363,0.586594,-0.019261,-0.809675,0.003922,-0.363878,-0.183772,0.204438
1235,3699408697,0.586147,-0.024491,-0.809866,0.000218,-0.213508,-0.168267,0.171715
1236,3699442031,0.585604,-0.029380,-0.810090,-0.003187,-0.013934,-0.109412,0.120493
1237,3699475365,0.584876,-0.034387,-0.810397,-0.006727,0.184197,-0.217506,0.197062
1238,3699508699,0.584532,-0.040217,-0.810326,-0.011296,0.378064,-0.179816,0.247368
1239,3699542033,0.584605,-0.046457,-0.809848,-0.016608,0.139735,0.172942,0.158712
1240,3699575367,0.584717,-0.052197,-0.809299,-0.021653,0.068881,0.108269,0.223882
1241,3699608701,0.584574,-0.057805,-0.808866,-0.026820,-0.063232,-0.066780,0.115241
1242,3699642035,0.583984,-0.063332,-0.808702,-0.031693,-0.306989,-0.131166,0.175185
1243,3699675369,0.583047,-0.069378,-0.808695,-0.036153,-0.515380,0.056891,0.184299
1244,3699708703,0.581697,-0.075443,-0.808934,-0.040180,-0.543842,-0.052971,0.083062
1245,3699742037,0.580065,-0.081407,-0.809326,-0.044058,-0.353387,-0.012713,0.056751
1246,3699775371,0.578141,-0.086945,-0.809965,-0.046930,-0.384307,0.115413,0.178305
1247,3699808705,0.576803,-0.091951,-0.810214,-0.049475,0.032367,0.186571,0.164959
1248,3699842039,0.576206,-0.096734,-0.809872,-0.052803,0.415587,0.063104,0.209484
1249,3699875373,0.576092,-0.101728,-0.809063,-0.056905,0.576232,-0.172336,0.288601
1250,3699908707,0.576377,-0.108117,-0.807582,-0.062949,0.566047,-0.246531,0.291326
1251,3699942041,0.577211,-0.115372,-0.805375,-0.070281,0.189865,0.143634,0.225368
1252,3699975375,0.578282,-0.122156,-0.802951,-0.077394,-0.011808,0.084516,0.231343
1253,3700008709,0.579188,-0.127939,-0.800767,-0.083644,-0.216138,0.134914,0.107738
1254,3700042043,0.580068,-0.132426,-0.798862,-0.088634,-0.284684,0.177956,0.117791
1255,3700075377,0.581154,-0.135919,-0.797024,-0.092687,-0.062502,0.034219,0.154993
1256,3700108711,0.582085,-0.138948,-0.795403,-0.096213,-0.003945,0.027805,0.175081
1257,3700142045,0.582725,-0.141577,-0.794114,-0.099109,-0.018194,-0.070335,0.163787
1258,3700175379,0.583358,-0.144159,-0.792830,-0.101897,-0.074879,0.047130,0.117126
1259,3700208713,0.584327,-0.146360,-0.791343,-0.104733,0.125263,0.021121,0.120091
1260,3700242047,0.585384,-0.148102,-0.789877,-0.107412,0.269710,-0.015924,0.251762
1261,3700275381,0.586198,-0.149873,-0.788628,-0.109672,0.185627,0.220631,0.205677
1262,3700308715,0.586704,-0.151545,-0.787691,-0.111383,0.045915,0.348176,0.104071
1263,3700342049,0.587166,-0.152580,-0.786918,-0.112995,0.193501,0.073824,0.104351
1264,3700375383,0.587495,-0.153233,-0.786394,-0.114045,0.060669,0.073581,0.224348
1265,3700408717,0.587636,-0.153528,-0.786214,-0.114154,-0.131136,0.199947,0.099103
1266,3700442051,0.587527,-0.153321,-0.786436,-0.113470,-0.111742,0.118674,0.175273
1267,3700475385,0.587469,-0.152538,-0.786799,-0.112297,0.028824,0.137322,0.042468
1268,3700508719,0.587371,-0.151404,-0.787301,-0.110819,-0.051937,0.123450,0.299054
1269,3700542053,0.587341,-0.150518,-0.787633,-0.109817,0.119121,0.017756,0.144715
1270,3700575387,0.587227,-0.150197,-0.787837,-0.109404,0.060606,-0.134627,0.176729
1271,3700608721,0.587173,-0.150232,-0.787878,-0.109355,-0.112570,0.030237,0.133136
1272,3700642055,0.586862,-0.149912,-0.788258,-0.108725,-0.202596,0.155582,0.164465
1273,3700675389,0.586269,-0.148847,-0.789140,-0.106970,-0.142474,0.180089,0.128108
1274,3700708723,0.585687,-0.147117,-0.790206,-0.104663,0.139211,0.141805,0.200742
1275,3700742057,0.585335,-0.144984,-0.791175,-0.102256,0.401762,-0.099289,0.262992
1276,3700775391,0.585117,-0.143178,-0.791919,-0.100271,0.301585,-0.196341,0.233405
1277,3700808725,0.585049,-0.142135,-0.792289,-0.099222,0.230474,-0.054104,0.219274
1278,3700842059,0.585176,-0.141452,-0.792362,-0.098867,0.207334,-0.064207,0.209706
1279,3700875393,0.585406,-0.140717,-0.792376,-0.098439,-0.221801,0.025484,0.195447
1280,3700908727,0.585578,-0.139837,-0.792482,-0.097812,-0.306442,0.052574,0.070006
1281,3700942061,0.585749,-0.138744,-0.792653,-0.096963,-0.077020,-0.036325,0.185170
1282,3700975395,0.586142,-0.137624,-0.792653,-0.096173,0.134901,-0.039780,0.203644
1283,3701008729,0.586703,-0.136635,-0.792476,-0.095626,0.215810,-0.098781,0.178708
1284,3701042063,0.587406,-0.136126,-0.792041,-0.095637,0.163229,-0.059166,0.183303
1285,3701075397,0.588024,-0.135798,-0.791620,-0.095796,-0.063173,-0.025163,0.206318
1286,3701108731,0.588985,-0.135107,-0.791023,-0.095800,-0.101310,0.169714,0.167914
1287,3701142065,0.590289,-0.133923,-0.790262,-0.095718,0.051510,0.077930,0.123921
1288,3701175399,0.590985,-0.132759,-0.790029,-0.094960,-0.351971,-0.046664,0.193066
1289,3701208733,0.591114,-0.131928,-0.790188,-0.093991,-0.630188,0.031936,0.029242
1290,3701242067,0.591218,-0.131181,-0.790342,-0.093079,-0.431435,-0.014645,0.104878
1291,3701275401,0.591331,-0.130437,-0.790482,-0.092213,-0.245311,0.061335,0.159520
1292,3701308735,0.591413,-0.129424,-0.790694,-0.091293,0.006718,0.065385,0.213088
1293,3701342069,0.591438,-0.128714,-0.790858,-0.090721,0.272020,-0.055766,0.265656
1294,3701375403,0.591401,-0.128805,-0.790836,-0.091016,0.334633,-0.122109,0.191388
1295,3701408737,0.591611,-0.129608,-0.790408,-0.092223,0.253408,-0.010371,0.222143
1296,3701442071,0.591701,-0.130368,-0.790076,-0.093408,0.031453,0.021991,0.127249
1297,3701475405,0.591782,-0.130572,-0.789910,-0.094009,-0.127088,0.061222,0.167177
1298,3701508739,0.592056,-0.130537,-0.789667,-0.094382,-0.085345,-0.029884,0.157025
1299,3701542073,0.592183,-0.130541,-0.789533,-0.094693,-0.117609,-0.108759,0.142401
1300,3701575407,0.592291,-0.130722,-0.789391,-0.094955,-0.062056,-0.102039,0.124858
1301,3701608741,0.592388,-0.131199,-0.789179,-0.095459,0.026560,-0.127294,0.174674
1302,3701642075,0.592544,-0.132065,-0.788818,-0.096271,0.045095,-0.045746,0.239520
1303,3701675409,0.592749,-0.133192,-0.788340,-0.097363,0.060293,-0.035682,0.180947
1304,3701708743,0.592949,-0.134412,-0.787830,-0.098593,0.020526,-0.028455,0.200321
1305,3701742077,0.593031,-0.136036,-0.787294,-0.100141,0.039627,0.054246,0.204280
1306,3701775411,0.592935,-0.138022,-0.786785,-0.101973,-0.004445,0.013646,0.215223
1307,3701808745,0.592997,-0.139931,-0.786162,-0.103804,0.024448,0.025892,0.135094
1308,3701842079,0.592923,-0.141636,-0.785686,-0.105502,0.085958,0.098121,0.123957
1309,3701875413,0.592861,-0.143188,-0.785240,-0.107067,0.206112,0.055222,0.196983
1310,3701908747,0.592552,-0.144771,-0.784983,-0.108523,0.051339,0.012143,0.176083
1311,3701942081,0.592199,-0.146092,-0.784837,-0.109724,-0.013653,-0.012821,0.181911
1312,3701975415,0.592131,-0.147187,-0.784531,-0.110812,0.124480,0.022955,0.157763
1313,3702008749,0.592088,-0.148235,-0.784217,-0.111858,0.084168,-0.015266,0.219896
1314,3702042083,0.591971,-0.149464,-0.783903,-0.113038,0.035833,0.002597,0.137043
1315,3702075417,0.591758,-0.150932,-0.783605,-0.114267,-0.013293,-0.034602,0.134598
1316,3702108751,0.591460,-0.152416,-0.783377,-0.115401,-0.044052,0.019430,0.237826
1317,3702142085,0.591204,-0.153555,-0.783227,-0.116216,-0.136658,0.091551,0.167678
1318,3702175419,0.591021,-0.154429,-0.783094,-0.116885,-0.040872,0.022466,0.141659
1319,3702208753,0.590873,-0.154976,-0.783052,-0.117185,0.001928,-0.036538,0.189212
1320,3702242087,0.590789,-0.155613,-0.782925,-0.117610,-0.007033,-0.025805,0.182071
1321,3702275421,0.590654,-0.156496,-0.782745,-0.118317,-0.002027,-0.076310,0.182077
1322,3702308755,0.590548,-0.157564,-0.782491,-0.119102,-0.045980,-0.054110,0.196257
1323,3702342089,0.590484,-0.158534,-0.782250,-0.119715,-0.139198,-0.002907,0.165236
1324,3702375423,0.590542,-0.159499,-0.781909,-0.120375,-0.094771,0.042314,0.157931
1325,3702408757,0.590557,-0.160232,-0.781660,-0.120946,-0.027430,-0.076283,0.186698
1326,3702442091,0.590658,-0.160811,-0.781403,-0.121341,-0.034392,-0.011585,0.193255
1327,3702475425,0.590796,-0.161162,-0.781204,-0.121482,0.050032,0.080498,0.156950
1328,3702508759,0.590822,-0.161216,-0.781197,-0.121335,0.052556,0.089174,0.147123
1329,3702542093,0.590774,-0.161001,-0.781321,-0.121052,0.038597,0.007889,0.202255
1330,3702575427,0.590723,-0.160664,-0.781502,-0.120583,-0.006925,0.039431,0.153463
1331,3702608761,0.590575,-0.160195,-0.781820,-0.119869,-0.037548,0.015632,0.180924
1332,3702642095,0.590427,-0.159688,-0.782150,-0.119113,-0.033851,0.059510,0.108895
1333,3702675429,0.590212,-0.159088,-0.782560,-0.118283,-0.028263,0.020907,0.163576
1334,3702708763,0.590034,-0.158376,-0.782980,-0.117351,-0.050029,0.009655,0.139249
1335,3702742097,0.589925,-0.157634,-0.783363,-0.116332,-0.124906,-0.005210,0.173319
1336,3702775431,0.589865,-0.156799,-0.783744,-0.115199,-0.107500,-0.010850,0.172318
1337,3702808765,0.589813,-0.155683,-0.784218,-0.113737,-0.164225,0.064044,0.157368
1338,3702842099,0.589718,-0.154044,-0.784903,-0.111721,-0.109187,0.068711,0.151569
1339,3702875433,0.589637,-0.151958,-0.785714,-0.109280,-0.066506,0.020095,0.175488
1340,3702908767,0.589597,-0.149910,-0.786454,-0.106973,-0.055725,-0.021345,0.156872
1341,3702942101,0.589605,-0.147995,-0.787107,-0.104771,0.030729,-0.104336,0.245704
1342,3702975435,0.589612,-0.146238,-0.787702,-0.102703,0.002341,0.086790,0.114642
1343,3703008769,0.589570,-0.143861,-0.788515,-0.100030,-0.031687,-0.002882,0.183126
1344,3703042103,0.589771,-0.141161,-0.789201,-0.097249,-0.043852,0.094194,0.205309
1345,3703075437,0.589903,-0.138727,-0.789833,-0.094786,0.112693,0.093603,0.228310
1346,3703108771,0.589944,-0.136763,-0.790382,-0.092789,0.147255,-0.121969,0.158143
1347,3703142105,0.590135,-0.135262,-0.790656,-0.091431,-0.025108,-0.114951,0.252429
1348,3703175439,0.590222,-0.134249,-0.790879,-0.090430,-0.030194,-0.008729,0.219039
1349,3703208773,0.590336,-0.133549,-0.790988,-0.089761,-0.078201,0.065760,0.133772
1350,3703242107,0.590405,-0.132818,-0.791111,-0.089308,-0.129443,-0.011888,0.178635
1351,3703275441,0.590452,-0.132117,-0.791228,-0.088999,-0.056802,-0.091211,0.194993
1352,3703308775,0.590622,-0.131826,-0.791149,-0.089004,-0.018460,-0.035856,0.166362
1353,3703342109,0.590796,-0.132057,-0.790921,-0.089533,-0.042407,-0.111086,0.184566
1354,3703375443,0.590962,-0.132881,-0.790524,-0.090718,-0.020806,-0.107887,0.192993
1355,3703408777,0.591236,-0.134393,-0.789851,-0.092549,-0.003452,-0.002127,0.130191
1356,3703442111,0.591455,-0.136265,-0.789097,-0.094816,-0.006990,-0.146123,0.248299
1357,3703475445,0.591684,-0.138533,-0.788212,-0.097431,0.013463,-0.108530,0.181792
1358,3703508779,0.591977,-0.141446,-0.787072,-0.100621,-0.037338,-0.001980,0.130367
1359,3703542113,0.592229,-0.144662,-0.785841,-0.104129,-0.027414,-0.074220,0.239132
1360,3703575447,0.592573,-0.148017,-0.784445,-0.107919,-0.020848,0.059454,0.141099
1361,3703608781,0.592821,-0.151208,-0.783151,-0.111471,-0.025887,0.006173,0.187134
1362,3703642115,0.593104,-0.154255,-0.781865,-0.114772,0.002873,-0.068904,0.201033
1363,3703675449,0.593365,-0.157331,-0.780566,-0.118037,-0.039341,0.027494,0.122835
1364,3703708783,0.593463,-0.160267,-0.779440,-0.120997,-0.012477,0.018618,0.149947
1365,3703742117,0.593484,-0.162935,-0.778438,-0.123753,-0.041943,-0.058030,0.132312
1366,3703775451,0.593491,-0.165456,-0.777497,-0.126267,0.060524,-0.103944,0.253025
1367,3703808785,0.593641,-0.168129,-0.776390,-0.128817,0.061686,-0.104653,0.159812
1368,3703842119,0.593778,-0.170886,-0.775250,-0.131394,-0.071811,0.021090,0.147017
1369,3703875453,0.593940,-0.173058,-0.774310,-0.133351,-0.078435,0.146582,0.105611
1370,3703908787,0.594077,-0.174459,-0.773693,-0.134491,-0.034480,0.170915,0.181760
1371,3703942121,0.594045,-0.175206,-0.773455,-0.135026,-0.020992,0.204681,0.145759
1372,3703975455,0.594021,-0.174855,-0.773638,-0.134542,0.024006,0.289696,0.130527
1373,3704008789,0.594006,-0.173529,-0.774181,-0.133192,0.138518,0.141715,0.158946
1374,3704042123,0.594041,-0.171820,-0.774819,-0.131531,0.115824,0.092448,0.171123
1375,3704075457,0.594245,-0.170008,-0.775330,-0.129941,0.096962,0.065620,0.201436
1376,3704108791,0.594480,-0.168077,-0.775856,-0.128226,-0.028526,0.036660,0.181623
1377,3704142125,0.594485,-0.165885,-0.776677,-0.126075,-0.167001,-0.016723,0.117781
1378,3704175459,0.594483,-0.163662,-0.777512,-0.123821,-0.130914,-0.045725,0.226271
1379,3704208793,0.594633,-0.161437,-0.778219,-0.121562,-0.077218,0.050053,0.156087
1380,3704242127,0.594859,-0.158808,-0.778988,-0.118964,-0.053984,0.124310,0.171719
1381,3704275461,0.595263,-0.155419,-0.779840,-0.115798,0.152958,0.122721,0.173828
1382,3704308795,0.595741,-0.151550,-0.780741,-0.112342,0.200998,0.095255,0.227220
1383,3704342129,0.595949,-0.147505,-0.781898,-0.108509,0.079531,-0.076583,0.170132
1384,3704375463,0.595896,-0.143819,-0.783134,-0.104771,-0.095962,0.047402,0.143065
1385,3704408797,0.595772,-0.140282,-0.784349,-0.101115,-0.071491,0.086791,0.147505
1386,3704442131,0.595480,-0.136850,-0.785636,-0.097478,-0.022753,0.097438,0.180754
1387,3704475465,0.595080,-0.133307,-0.787011,-0.093677,0.000462,0.052038,0.153236
1388,3704508799,0.594515,-0.129890,-0.788446,-0.089919,0.095858,0.028973,0.156563
1389,3704542133,0.593982,-0.126645,-0.789755,-0.086521,0.062621,0.087571,0.184803
1390,3704575467,0.593423,-0.122958,-0.791163,-0.082723,-0.093569,0.046428,0.189428
1391,3704608801,0.592583,-0.118989,-0.792821,-0.078571,-0.149356,0.083486,0.190743
1392,3704642135,0.591823,-0.114745,-0.794431,-0.074229,-0.111582,0.158355,0.115730
1393,3704675469,0.591184,-0.109909,-0.796019,-0.069473,-0.129395,0.109252,0.157265
1394,3704708803,0.590542,-0.105027,-0.797553,-0.064736,-0.012704,-0.056490,0.188406
1395,3704742137,0.589679,-0.100862,-0.799046,-0.060680,0.014598,-0.060768,0.223337
1396,3704775471,0.588870,-0.097397,-0.800325,-0.057260,0.125552,-0.123090,0.164429
1397,3704808805,0.588122,-0.094844,-0.801366,-0.054599,0.208706,-0.055724,0.164992
1398,3704842139,0.587337,-0.092892,-0.802306,-0.052568,0.198062,0.013322,0.237115
1399,3704875473,0.586625,-0.091279,-0.803124,-0.050820,0.050030,0.144827,0.141557
1400,3704908807,0.586095,-0.088957,-0.803910,-0.048571,0.032739,0.148592,0.205725
1401,3704942141,0.585778,-0.086135,-0.804587,-0.046223,0.143111,-0.023784,0.238113
1402,3704975475,0.585389,-0.083331,-0.805303,-0.043750,0.033776,-0.009247,0.154182
1403,3705008809,0.585013,-0.080663,-0.805974,-0.041364,0.007111,0.049381,0.177898
1404,3705042143,0.584825,-0.077897,-0.806497,-0.039074,0.174384,0.028915,0.171672
1405,3705075477,0.584566,-0.075021,-0.807071,-0.036635,-0.018567,0.145174,0.216511
1406,3705108811,0.584857,-0.071611,-0.807274,-0.034273,0.412494,0.239579,0.189969
1407,3705142145,0.585481,-0.067237,-0.807312,-0.031478,0.324150,0.254138,0.229194
1408,3705175479,0.586139,-0.062637,-0.807321,-0.028330,0.239341,0.119759,0.151410
1409,3705208813,0.586458,-0.058202,-0.807517,-0.025458,0.012505,0.007543,0.138927
1410,3705242147,0.586692,-0.053588,-0.807761,-0.022263,-0.094682,-0.085640,0.192443
1411,3705275481,0.587025,-0.049099,-0.807884,-0.019153,-0.162913,-0.099862,0.125577
1412,3705308815,0.587449,-0.044543,-0.807910,-0.015905,-0.179439,-0.076550,0.171229
1413,3705342149,0.587806,-0.040180,-0.807935,-0.012782,0.013835,-0.225698,0.151208
1414,3705375483,0.588129,-0.036714,-0.807898,-0.010444,-0.005475,-0.227390,0.157943
1415,3705408817,0.588291,-0.034206,-0.807911,-0.008629,-0.158276,-0.174452,0.154123
1416,3705442151,0.588228,-0.032126,-0.808058,-0.007044,-0.208249,-0.190039,0.181931
1417,3705475485,0.588046,-0.030582,-0.808260,-0.005828,-0.268017,-0.091977,0.100445
1418,3705508819,0.587896,-0.028990,-0.808436,-0.004509,-0.221889,-0.100625,0.184189
1419,3705542153,0.587847,-0.027490,-0.808530,-0.003231,-0.069429,-0.203436,0.193462
1420,3705575487,0.587788,-0.026341,-0.808614,-0.002301,-0.066367,-0.227060,0.230231
1421,3705608821,0.587749,-0.026161,-0.808649,-0.002138,-0.174103,-0.313701,0.224072
1422,3705642155,0.587762,-0.026615,-0.808625,-0.002343,-0.171575,-0.243242,0.174602
1423,3705675489,0.587912,-0.027539,-0.808482,-0.002982,-0.137981,-0.245146,0.247157
1424,3705708823,0.588267,-0.028958,-0.808169,-0.004145,-0.177688,-0.123068,0.190834
1425,3705742157,0.588789,-0.030404,-0.807728,-0.005514,0.052545,-0.034027,0.205922
1426,3705775491,0.589321,-0.031646,-0.807283,-0.006686,0.142073,0.004466,0.197156
1427,3705808825,0.589941,-0.032894,-0.806768,-0.008083,0.171564,0.070823,0.179465
1428,3705842159,0.590725,-0.034160,-0.806121,-0.009872,0.105394,0.075642,0.170558
1429,3705875493,0.591640,-0.035342,-0.805373,-0.011776,0.132173,0.063268,0.199949
1430,3705908827,0.592506,-0.036498,-0.804654,-0.013670,0.160164,0.031440,0.214616
1431,3705942161,0.593279,-0.038042,-0.803970,-0.016020,0.128966,0.071341,0.116196
1432,3705975495,0.593990,-0.039732,-0.803304,-0.018769,0.072368,0.133334,0.144223
1433,3706008829,0.594591,-0.040972,-0.802740,-0.021043,-0.081978,0.164921,0.128363
1434,3706042163,0.595009,-0.042107,-0.802319,-0.022962,0.050369,-0.002792,0.207032
1435,3706075497,0.595366,-0.043677,-0.801902,-0.025239,0.004299,-0.067217,0.145654
1436,3706108831,0.595689,-0.045441,-0.801484,-0.027666,-0.191823,-0.148220,0.165636
1437,3706142165,0.595948,-0.047614,-0.801077,-0.030100,-0.210272,-0.153190,0.221692
1438,3706175499,0.596177,-0.050420,-0.800629,-0.032808,-0.289666,-0.175684,0.179009
1439,3706208833,0.596245,-0.053602,-0.800242,-0.035824,-0.396922,-0.260429,0.184217
1440,3706242167,0.595822,-0.057337,-0.800162,-0.038741,-0.548937,-0.270809,0.132449
1441,3706275501,0.594638,-0.061692,-0.800589,-0.041345,-0.773777,-0.250855,0.118948
1442,3706308835,0.592359,-0.066279,-0.801809,-0.043271,-0.856090,-0.195734,-0.017005
1443,3706342169,0.588924,-0.070670,-0.803928,-0.043879,-0.894001,-0.191166,0.062412
1444,3706375503,0.584719,-0.074990,-0.806637,-0.043230,-0.866055,-0.197511,0.068739
1445,3706408837,0.580492,-0.079332,-0.809321,-0.042283,-0.572538,-0.046187,0.071000
1446,3706442171,0.577075,-0.083321,-0.811406,-0.041409,0.116151,0.078400,0.169199
1447,3706475505,0.574980,-0.086804,-0.812534,-0.041275,0.911508,0.307334,0.438729
1448,3706508839,0.575042,-0.089897,-0.812073,-0.042838,1.811356,0.324213,0.464708
1449,3706542173,0.576565,-0.093353,-0.810385,-0.046758,1.745602,0.239028,0.507716
1450,3706575507,0.578377,-0.098001,-0.808201,-0.052342,0.865854,0.036543,0.310663
1451,3706608841,0.580295,-0.103808,-0.805599,-0.059535,-0.045177,0.087563,0.049666
1452,3706642175,0.582543,-0.109600,-0.802597,-0.067244,-0.612727,0.052299,0.147435
1453,3706675509,0.584773,-0.114292,-0.799722,-0.073992,-0.711920,0.120134,0.024664
1454,3706708843,0.586249,-0.117455,-0.797723,-0.078785,-0.668840,0.133973,0.017639
1455,3706742177,0.587087,-0.119705,-0.796451,-0.081957,-0.235916,0.011807,0.149833
1456,3706775511,0.587655,-0.122145,-0.795358,-0.084847,0.174920,-0.035749,0.098018
1457,3706808845,0.588171,-0.124877,-0.794203,-0.088060,0.366198,-0.008570,0.204743
