sep=,
DeviceTag:,D_leg_new
FirmwareVersion:,2.2.1
AppVersion:,2023.6.0
SyncStatus:,Synced
OutputRate:,30Hz
FilterProfile:,General
Measurement Mode:,Sensor fusion Mode - Complete(Quaternion)
StartTime: ,2026-09-07_14:49:17_055 AEST
© Movella Technologies B. V. 2005-2026

PacketCounter,SampleTimeFine,Quat_W,Quat_X,Quat_Y,Quat_Z,FreeAcc_X,FreeAcc_Y,FreeAcc_Z
1,3940598992,0.151699,-0.811682,-0.200358,-0.527273,-0.025472,0.668648,0.166731
2,3940615659,0.154979,-0.812225,-0.193906,-0.527894,0.163643,0.439444,0.080263
3,3940648993,0.156477,-0.812043,-0.185728,-0.530666,0.316379,-0.101425,0.054332
4,3940682327,0.153125,-0.812439,-0.181469,-0.532508,-0.016905,-0.079677,0.277432
5,3940715661,0.149832,-0.814266,-0.178545,-0.531642,-0.068753,0.112376,-0.033286
6,3940748995,0.148717,-0.816282,-0.177203,-0.529307,0.054612,0.245294,0.151320
7,3940782329,0.149491,-0.817580,-0.177395,-0.527017,0.443779,-0.011005,0.244652
8,3940815663,0.151057,-0.817996,-0.178895,-0.525415,0.621132,-0.151613,0.224559
9,3940848997,0.152358,-0.817763,-0.180923,-0.524708,0.716311,-0.235476,0.319798
10,3940882331,0.153410,-0.817323,-0.183117,-0.524325,0.406808,-0.259988,0.216576
11,3940915665,0.154483,-0.816947,-0.184869,-0.523981,0.063355,0.152911,0.139837
12,3940948999,0.156363,-0.816306,-0.186773,-0.523748,0.167074,-0.042138,0.107054
13,3940982333,0.158819,-0.815741,-0.189063,-0.523067,0.063492,-0.005717,-0.045662
14,3941015667,0.161534,-0.815396,-0.191397,-0.521923,0.003584,0.114252,0.057240
15,3941049001,0.165272,-0.814781,-0.194533,-0.520553,-0.070223,0.043895,0.468442
16,3941082335,0.169882,-0.814010,-0.198674,-0.518707,-0.823476,-0.198705,0.377353
17,3941115669,0.174385,-0.813772,-0.202747,-0.516003,-0.779177,-0.008085,-0.185295
18,3941149003,0.179228,-0.813853,-0.206836,-0.512582,-0.361128,0.123489,0.145793
19,3941182337,0.184786,-0.813620,-0.211803,-0.508937,0.018184,-0.011413,0.136381
20,3941215671,0.190872,-0.812844,-0.218152,-0.505235,0.007322,-0.287957,0.435697
21,3941249005,0.196722,-0.811652,-0.224975,-0.501904,0.456297,-0.273034,0.266178
22,3941282339,0.201882,-0.810300,-0.230527,-0.499514,0.453141,-0.210312,0.124607
23,3941315673,0.205611,-0.809282,-0.234025,-0.498015,0.604063,-0.234904,0.298141
24,3941349007,0.208838,-0.808404,-0.237231,-0.496579,0.545608,-0.183682,0.278441
25,3941382341,0.212056,-0.807465,-0.240808,-0.495019,0.725101,0.066945,0.248757
26,3941415675,0.214935,-0.806431,-0.244198,-0.493802,0.857013,-0.178175,0.176324
27,3941449009,0.216192,-0.805848,-0.245806,-0.493406,0.727374,0.137490,0.152718
28,3941482343,0.215902,-0.805731,-0.245364,-0.493944,0.371366,0.198731,0.202583
29,3941515677,0.214518,-0.805953,-0.243408,-0.495150,0.142556,-0.238047,0.157265
30,3941549011,0.211437,-0.806622,-0.239952,-0.497070,-0.094055,-0.269580,0.159598
31,3941582345,0.207092,-0.807531,-0.234930,-0.499815,-0.088147,-0.021504,0.141301
32,3941615679,0.202046,-0.808667,-0.228726,-0.502911,-0.257214,-0.152653,0.210456
33,3941649013,0.195936,-0.810221,-0.221307,-0.506136,-0.270570,-0.352261,0.145907
34,3941682347,0.189433,-0.811643,-0.213560,-0.509650,-0.096559,-0.318119,0.271914
35,3941715681,0.182766,-0.812791,-0.205853,-0.513413,0.078054,-0.157831,0.251291
36,3941749015,0.176434,-0.813675,-0.198577,-0.517079,-0.017738,-0.108009,0.128137
37,3941782349,0.170478,-0.814343,-0.191586,-0.520651,-0.189042,-0.318327,0.261771
38,3941815683,0.164285,-0.814952,-0.184167,-0.524354,0.009293,-0.246229,0.189241
39,3941849017,0.158240,-0.815311,-0.176682,-0.528216,0.275668,-0.023644,0.187222
40,3941882351,0.152811,-0.815527,-0.169608,-0.531787,0.161142,-0.559439,0.235404
41,3941915685,0.147298,-0.815826,-0.162441,-0.535111,0.098023,-0.438958,0.082038
42,3941949019,0.142650,-0.815943,-0.156317,-0.538009,0.133536,-0.049562,0.196200
43,3941982353,0.140016,-0.815783,-0.152290,-0.540094,-0.028489,-0.001537,0.162341
44,3942015687,0.139537,-0.815390,-0.150489,-0.541315,-0.255349,0.099900,0.067019
45,3942049021,0.140918,-0.815393,-0.150678,-0.540899,-0.804354,0.115091,0.035166
46,3942082355,0.144032,-0.815875,-0.152183,-0.538927,-0.942294,0.362000,-0.062423
47,3942115689,0.149106,-0.816118,-0.155003,-0.536370,-0.300364,0.083785,0.133404
48,3942149023,0.155335,-0.816021,-0.158783,-0.533638,-0.113772,-0.056039,0.210214
49,3942182357,0.162177,-0.815412,-0.163481,-0.531108,-0.058007,-0.021567,0.348042
50,3942215691,0.169771,-0.814039,-0.169265,-0.529026,-0.077797,-0.040971,0.274280
51,3942249025,0.177535,-0.812263,-0.175457,-0.527186,-0.114888,0.049039,0.140508
52,3942282359,0.185184,-0.810276,-0.181368,-0.525610,-0.245403,0.056821,0.136030
53,3942315693,0.193042,-0.808199,-0.187500,-0.523825,-0.457476,0.088892,0.138988
54,3942349027,0.201346,-0.806041,-0.194267,-0.521553,-0.600304,0.141052,0.103477
55,3942382361,0.210077,-0.803761,-0.201587,-0.518844,-0.505459,0.002160,0.073912
56,3942415695,0.218685,-0.801760,-0.208676,-0.515570,-0.339119,-0.374107,0.149276
57,3942449029,0.225977,-0.800409,-0.214839,-0.511981,-0.382937,-0.539828,0.111580
58,3942482363,0.232452,-0.799352,-0.220549,-0.508293,-0.004655,0.035791,0.251682
59,3942515697,0.238268,-0.798167,-0.225298,-0.505370,0.432923,-0.121477,0.247870
60,3942549031,0.242270,-0.797105,-0.227877,-0.503986,0.801394,-0.255264,0.423306
61,3942582365,0.244325,-0.796123,-0.228291,-0.504358,0.532355,0.083330,0.326159
62,3942615699,0.245094,-0.795011,-0.227284,-0.506190,0.150985,0.006459,0.265401
63,3942649033,0.244548,-0.793987,-0.224820,-0.509153,-0.069769,-0.249975,0.178900
64,3942682367,0.241904,-0.793916,-0.219721,-0.512741,-0.290956,-0.171997,0.093823
65,3942715701,0.237575,-0.794552,-0.212603,-0.516764,-0.343199,-0.118841,0.122136
66,3942749035,0.232241,-0.795391,-0.204535,-0.521136,-0.294262,-0.166477,0.146555
67,3942782369,0.226003,-0.796536,-0.195602,-0.525541,-0.176349,-0.146399,0.043117
68,3942815703,0.218716,-0.798251,-0.185753,-0.529579,-0.219663,-0.010968,0.132643
69,3942849037,0.211081,-0.800093,-0.175309,-0.533445,-0.170748,-0.108243,0.156755
70,3942882371,0.202726,-0.801996,-0.163862,-0.537451,-0.164884,0.008417,0.167997
71,3942915705,0.193887,-0.803948,-0.151844,-0.541312,-0.388366,0.173190,0.020302
72,3942949039,0.184963,-0.805880,-0.139702,-0.544821,-0.378269,0.014118,0.224271
73,3942982373,0.175619,-0.807603,-0.126754,-0.548515,-0.162121,0.141347,0.129095
74,3943015707,0.166219,-0.808883,-0.113852,-0.552375,-0.118506,0.467968,0.228557
75,3943049041,0.157525,-0.809394,-0.102575,-0.556368,-0.241519,0.480330,0.287417
76,3943082375,0.149932,-0.809236,-0.093264,-0.560321,-0.515972,0.390693,0.169522
77,3943115709,0.143129,-0.808812,-0.084933,-0.564024,-0.492254,0.400492,0.000505
78,3943149043,0.136708,-0.808568,-0.076319,-0.567189,-0.303522,0.456006,0.067778
79,3943182377,0.130705,-0.808545,-0.067560,-0.569743,0.046171,0.388936,0.140873
80,3943215711,0.125785,-0.808428,-0.059758,-0.571885,0.285551,-0.056800,0.244932
81,3943249045,0.121239,-0.808051,-0.052782,-0.574080,0.538391,-0.477460,0.167104
82,3943282379,0.116729,-0.807522,-0.046259,-0.576318,0.635964,-0.024675,0.425535
83,3943315713,0.113442,-0.806547,-0.041407,-0.578704,0.640217,0.033080,0.295701
84,3943349047,0.111112,-0.805580,-0.038030,-0.580731,0.068103,-0.366295,0.202633
85,3943382381,0.108746,-0.804782,-0.034977,-0.582475,-0.140505,-0.153037,-0.163701
86,3943415715,0.106951,-0.804722,-0.032185,-0.583051,-0.384530,0.114140,-0.065415
87,3943449049,0.106057,-0.805310,-0.030117,-0.582513,-0.103030,0.435977,0.032747
88,3943482383,0.106834,-0.806198,-0.029943,-0.581150,-0.011887,0.417368,0.267274
89,3943515717,0.109029,-0.806895,-0.031764,-0.579677,0.140742,0.245884,0.191880
90,3943549051,0.112912,-0.807493,-0.035596,-0.577874,0.107662,0.244095,0.274152
91,3943582385,0.117958,-0.807726,-0.041246,-0.576163,0.239514,0.084780,0.285248
92,3943615719,0.124153,-0.807648,-0.048632,-0.574392,0.321603,0.041125,0.268337
93,3943649053,0.131259,-0.807689,-0.057424,-0.571937,-0.011232,0.104699,0.154636
94,3943682387,0.138918,-0.807743,-0.067232,-0.568975,-0.002569,0.024034,0.091509
95,3943715721,0.146995,-0.807847,-0.077545,-0.565476,0.124446,-0.033364,0.212108
96,3943749055,0.155571,-0.807934,-0.088409,-0.561448,-0.228779,0.116925,0.170024
97,3943782389,0.164526,-0.808319,-0.099949,-0.556383,-0.538638,0.268329,-0.174206
98,3943815723,0.173771,-0.809338,-0.111204,-0.549918,-0.383066,0.839880,0.111354
99,3943849057,0.183953,-0.809427,-0.123349,-0.543851,0.426953,0.707281,0.490051
100,3943882391,0.195225,-0.807965,-0.137166,-0.538763,0.741579,0.288864,0.479123
101,3943915725,0.206518,-0.805303,-0.151641,-0.534642,0.540871,0.203710,0.133368
102,3943949059,0.217377,-0.802219,-0.166035,-0.530683,-0.023614,0.149885,0.087404
103,3943982393,0.227629,-0.799590,-0.180086,-0.525747,-0.877388,0.091272,0.062391
104,3944015727,0.237876,-0.796942,-0.194401,-0.520103,-0.834688,0.248653,0.109516
105,3944049061,0.249100,-0.793238,-0.210157,-0.514351,-0.382518,0.113477,0.277289
106,3944082395,0.260445,-0.789198,-0.226634,-0.507909,-0.663057,-0.536169,0.252797
107,3944115729,0.269852,-0.785867,-0.240898,-0.501560,0.307724,-0.848832,-0.174569
108,3944149063,0.275224,-0.784367,-0.250342,-0.496335,0.489949,-0.191469,0.208773
109,3944182397,0.278689,-0.783019,-0.257149,-0.493040,0.403342,0.353321,0.270292
110,3944215731,0.281939,-0.781207,-0.263904,-0.490490,-0.139312,0.314991,0.222240
111,3944249065,0.284801,-0.779443,-0.270357,-0.488124,-0.273699,0.165816,0.060533
112,3944282399,0.286479,-0.778449,-0.275159,-0.486040,-0.233088,0.015691,0.142112
113,3944315733,0.286511,-0.778333,-0.277750,-0.484732,-0.333644,-0.058508,0.091661
114,3944349067,0.284780,-0.779318,-0.278529,-0.483721,-0.540382,-0.446010,-0.016209
115,3944382401,0.280968,-0.781527,-0.277334,-0.483072,-0.591265,-0.382445,0.110711
116,3944415735,0.275741,-0.784215,-0.274672,-0.483249,-0.444216,-0.243395,0.192568
117,3944449069,0.269588,-0.787140,-0.271058,-0.484004,-0.372374,-0.213794,0.180441
118,3944482403,0.262985,-0.790014,-0.267124,-0.485141,-0.359122,-0.198710,0.153170
119,3944515737,0.255862,-0.792753,-0.263131,-0.486661,-0.179280,-0.336232,0.211590
120,3944549071,0.248217,-0.795281,-0.259214,-0.488594,-0.068292,-0.461392,0.249973
121,3944582405,0.240324,-0.797542,-0.255381,-0.490868,-0.145105,-0.280250,0.163935
122,3944615739,0.233061,-0.798942,-0.252536,-0.493558,-0.254894,0.098806,0.147510
123,3944649073,0.226178,-0.799820,-0.250501,-0.496368,-0.315119,-0.107867,0.073396
124,3944682407,0.219951,-0.800184,-0.249039,-0.499307,0.208610,-0.169345,0.416656
125,3944715741,0.213894,-0.799685,-0.247805,-0.503335,0.751550,-0.043507,0.303017
126,3944749075,0.207136,-0.798377,-0.246727,-0.508738,0.856276,-0.434361,0.157836
127,3944782409,0.199808,-0.795805,-0.245945,-0.516025,0.827198,-0.751506,0.481197
128,3944815743,0.191840,-0.792104,-0.245197,-0.525021,0.419547,-0.306334,0.236035
129,3944849077,0.182933,-0.788189,-0.244531,-0.534321,-0.597564,-0.106299,-0.046831
130,3944882411,0.173817,-0.784691,-0.243715,-0.542818,-0.824473,-0.099413,0.072598
131,3944915745,0.168323,-0.781048,-0.245246,-0.549078,-1.289718,0.924874,-0.021307
132,3944949079,0.164809,-0.779330,-0.247855,-0.551409,-1.009994,1.086233,0.029003
133,3944982413,0.164954,-0.780273,-0.252893,-0.547731,-1.072606,0.635268,0.401285
134,3945015747,0.167845,-0.781935,-0.258269,-0.541943,-1.380456,-0.205440,0.146765
135,3945049081,0.170022,-0.783933,-0.262424,-0.536353,-0.099682,-0.779642,-0.056189
136,3945082415,0.172834,-0.785620,-0.267229,-0.530583,0.894192,-0.414313,0.071014
137,3945115749,0.176099,-0.785639,-0.273622,-0.526205,0.724795,-0.004120,0.547387
138,3945149083,0.178752,-0.783640,-0.279935,-0.524969,0.884953,-0.301198,0.239167
139,3945182417,0.182209,-0.779719,-0.286983,-0.525813,0.614781,-0.668959,0.172877
140,3945215751,0.186454,-0.775107,-0.294518,-0.526976,-0.294426,-0.706181,0.255458
141,3945249085,0.189508,-0.772161,-0.299886,-0.527184,-1.008846,-0.655055,0.094212
142,3945282419,0.192583,-0.770781,-0.304855,-0.525235,-0.945098,-0.345593,0.122372
143,3945315753,0.196577,-0.769992,-0.310691,-0.521479,-0.669498,-0.425703,0.154554
144,3945349087,0.200275,-0.769501,-0.315925,-0.517638,0.117765,-0.527322,0.169437
145,3945382421,0.202868,-0.769257,-0.319690,-0.514672,0.621070,-0.301018,0.114861
146,3945415755,0.203997,-0.769328,-0.321695,-0.512867,0.921931,-0.671703,0.190384
147,3945449089,0.201788,-0.770146,-0.321068,-0.512906,0.518361,-0.501391,0.674129
148,3945482423,0.198736,-0.770375,-0.318957,-0.515067,0.128348,-0.480992,0.518598
149,3945515757,0.195077,-0.770281,-0.316118,-0.518346,0.039488,-0.366951,0.029036
150,3945549091,0.190575,-0.770488,-0.313156,-0.521501,-0.311119,-0.625638,0.088993
151,3945582425,0.185180,-0.770933,-0.309639,-0.524877,-0.411303,-0.462682,0.073864
152,3945615759,0.179368,-0.771745,-0.304975,-0.528420,-0.226194,-0.105799,-0.003553
153,3945649093,0.173703,-0.772760,-0.299595,-0.531896,-0.278801,-0.188194,-0.165530
154,3945682427,0.167719,-0.773929,-0.293556,-0.535472,-0.493707,-0.420439,0.049852
155,3945715761,0.161944,-0.775265,-0.287320,-0.538689,-0.697031,-0.363446,0.439109
156,3945749095,0.156749,-0.776286,-0.281102,-0.542026,-0.389953,-0.246294,0.165374
157,3945782429,0.150927,-0.777390,-0.274568,-0.545435,-0.128834,-0.506562,0.150505
158,3945815763,0.144555,-0.778602,-0.267498,-0.548934,0.248216,-0.678720,0.591759
159,3945849097,0.138095,-0.779698,-0.259708,-0.552770,0.354533,-0.326648,0.701168
160,3945882431,0.131367,-0.779781,-0.251502,-0.558060,0.199079,-0.438628,0.234023
161,3945915765,0.123103,-0.779503,-0.242367,-0.564340,0.323392,-0.577657,0.011398
162,3945949099,0.114235,-0.779654,-0.232308,-0.570196,-0.043905,-0.384381,0.379132
163,3945982433,0.104629,-0.779741,-0.220702,-0.576496,-0.681356,-0.387090,0.140581
164,3946015767,0.094539,-0.779719,-0.208058,-0.582935,-0.597223,-0.518824,-0.221188
165,3946049101,0.084351,-0.780450,-0.194261,-0.588257,-1.148483,-0.516578,0.349669
166,3946082435,0.074268,-0.781770,-0.179738,-0.592466,-0.991362,-0.243759,0.266313
167,3946115769,0.064270,-0.783600,-0.164127,-0.595737,-0.512259,0.041251,0.082982
168,3946149103,0.054773,-0.785475,-0.147672,-0.598518,-0.081509,-0.130051,0.072264
169,3946182437,0.045553,-0.787385,-0.130029,-0.600868,-0.131263,0.295246,0.298114
170,3946215771,0.037384,-0.788785,-0.113669,-0.602911,-0.279354,0.490716,0.089248
171,3946249105,0.031482,-0.789838,-0.100555,-0.604198,-0.144890,0.288537,-0.243783
172,3946282439,0.027493,-0.791095,-0.089652,-0.604463,-0.113696,0.512280,-0.000661
173,3946315773,0.024371,-0.792428,-0.079971,-0.604209,-0.256170,0.324156,0.113866
174,3946349107,0.023107,-0.793495,-0.071986,-0.603863,-0.112387,0.250063,-0.119278
175,3946382441,0.023668,-0.794080,-0.065640,-0.603796,-0.064060,0.244807,0.223674
176,3946415775,0.025911,-0.793864,-0.061121,-0.604462,-0.180773,-0.321542,-0.043392
177,3946449109,0.027624,-0.793859,-0.055797,-0.604906,0.244955,-0.281019,-0.092143
178,3946482443,0.030230,-0.794201,-0.050580,-0.604792,0.297997,-0.032873,0.375491
179,3946515777,0.033802,-0.794742,-0.046534,-0.604217,0.584630,-0.233036,0.257802
180,3946549111,0.039191,-0.795719,-0.044835,-0.602732,0.601951,-0.190618,0.176691
181,3946582445,0.046841,-0.797199,-0.046033,-0.600135,0.560758,-0.221489,0.003761
182,3946615779,0.056060,-0.799382,-0.048925,-0.596199,0.499676,0.250802,0.206346
183,3946649113,0.067376,-0.801576,-0.054179,-0.591610,0.783403,0.590967,0.256757
184,3946682447,0.080471,-0.803570,-0.062198,-0.586457,0.402640,0.306327,0.271179
185,3946715781,0.094104,-0.805338,-0.071509,-0.580915,0.555555,-0.033835,0.165772
186,3946749115,0.107712,-0.806466,-0.081513,-0.575645,0.732759,-0.073491,0.515850
187,3946782449,0.121097,-0.806541,-0.092105,-0.571266,0.775172,-0.021021,0.426490
188,3946815783,0.134128,-0.805930,-0.103120,-0.567321,0.525380,0.227206,0.337369
189,3946849117,0.146371,-0.805035,-0.114048,-0.563461,0.326351,0.337451,0.196299
190,3946882451,0.158166,-0.803935,-0.124926,-0.559524,-0.056178,0.388575,0.160269
191,3946915785,0.169760,-0.802983,-0.135547,-0.555002,-0.555162,0.286665,0.052237
192,3946949119,0.181463,-0.801658,-0.146608,-0.550383,-0.316579,0.475225,0.106562
193,3946982453,0.194467,-0.799065,-0.159334,-0.546161,-0.347416,0.635002,0.240794
194,3947015787,0.208168,-0.795544,-0.173650,-0.541869,-0.882976,0.453496,0.041395
195,3947049121,0.221651,-0.792076,-0.187895,-0.536826,-1.001174,0.318723,0.034106
196,3947082455,0.233897,-0.788530,-0.200585,-0.532239,-0.244427,-0.317407,0.211253
197,3947115789,0.244111,-0.785359,-0.211320,-0.528172,-0.382672,-0.209516,0.057108
198,3947149123,0.252077,-0.782597,-0.220351,-0.524828,0.002901,-0.145052,0.213792
199,3947182457,0.257303,-0.780477,-0.225446,-0.523283,0.254644,-0.033318,0.417224
200,3947215791,0.259731,-0.779284,-0.227023,-0.523180,-0.655670,-0.372767,0.062534
201,3947249125,0.260827,-0.779020,-0.227478,-0.522830,-0.586698,-0.017718,-0.222355
202,3947282459,0.260873,-0.779674,-0.226881,-0.522091,0.192294,0.155606,0.016483
203,3947315793,0.259821,-0.780947,-0.224927,-0.521558,0.621222,0.113905,0.148126
204,3947349127,0.257329,-0.782501,-0.221644,-0.521871,1.014224,-0.088437,0.116250
205,3947382461,0.253583,-0.784320,-0.217737,-0.522617,0.380615,0.006684,0.323755
206,3947415795,0.248794,-0.786846,-0.213189,-0.522997,-0.178927,-0.019502,0.078185
207,3947449129,0.243374,-0.789891,-0.207754,-0.523144,-0.278300,0.482768,0.201093
208,3947482463,0.237900,-0.792336,-0.201882,-0.524262,0.184285,0.239967,0.282546
209,3947515797,0.232297,-0.794556,-0.195782,-0.525727,-0.402597,-0.063132,0.292982
210,3947549131,0.225977,-0.796744,-0.189651,-0.527415,-0.313899,-0.208680,0.172242
211,3947582465,0.219219,-0.798786,-0.183247,-0.529438,-0.130679,-0.174170,0.359624
212,3947615799,0.212018,-0.800596,-0.176243,-0.532009,-0.153394,-0.228814,0.154051
213,3947649133,0.204540,-0.802367,-0.169150,-0.534564,-0.320462,-0.234794,0.116860
214,3947682467,0.197613,-0.803816,-0.162689,-0.536993,-0.240759,-0.016618,0.360649
215,3947715801,0.191954,-0.804800,-0.157478,-0.539121,-0.466991,-0.083806,0.059587
216,3947749135,0.186805,-0.805705,-0.152771,-0.540931,-0.081178,0.070590,-0.025363
217,3947782469,0.182280,-0.806553,-0.148650,-0.542355,0.076886,-0.100209,0.215863
218,3947815803,0.178411,-0.807392,-0.145209,-0.543326,-0.056146,-0.111304,0.057263
219,3947849137,0.175577,-0.808310,-0.142922,-0.543490,0.027552,0.158754,0.106528
220,3947882471,0.174280,-0.809023,-0.142187,-0.543039,0.315843,0.236447,0.058416
221,3947915805,0.174892,-0.809649,-0.143248,-0.541630,0.086914,0.175187,0.210312
222,3947949139,0.176991,-0.810422,-0.145767,-0.539113,-0.092916,0.030251,0.157538
223,3947982473,0.180126,-0.810986,-0.149491,-0.536199,0.259467,-0.032594,0.208947
224,3948015807,0.184290,-0.811039,-0.154410,-0.533303,0.515661,-0.060815,0.342639
225,3948049141,0.189560,-0.810663,-0.160634,-0.530179,0.011009,0.059812,0.323402
226,3948082475,0.195799,-0.809918,-0.168144,-0.526711,-0.223304,0.263795,0.158239
227,3948115809,0.203112,-0.808584,-0.177189,-0.523012,-0.143898,0.171539,0.107878
228,3948149143,0.211425,-0.806915,-0.187400,-0.518719,-0.437191,0.112638,0.343098
229,3948182477,0.220285,-0.805194,-0.197957,-0.513762,-0.810613,-0.192749,0.210967
230,3948215811,0.228366,-0.803643,-0.207660,-0.508808,-0.302939,-0.426866,-0.038165
231,3948249145,0.235284,-0.802503,-0.215945,-0.503983,0.235054,0.066893,0.148041
232,3948282479,0.241573,-0.801310,-0.223155,-0.499748,0.265250,0.204564,0.156499
233,3948315813,0.247659,-0.799305,-0.230582,-0.496598,0.244584,-0.311044,0.288100
234,3948349147,0.252728,-0.797421,-0.237179,-0.493959,-0.063288,-0.297389,0.204926
235,3948382481,0.256239,-0.796193,-0.242051,-0.491762,-0.256541,-0.173685,0.017195
236,3948415815,0.259080,-0.795128,-0.246063,-0.490003,-0.155158,-0.268645,0.185408
237,3948449149,0.260978,-0.794090,-0.249215,-0.489085,-0.211697,-0.488667,0.233133
238,3948482483,0.261458,-0.793712,-0.250759,-0.488653,-0.482751,-0.525833,0.034750
239,3948515817,0.260269,-0.794422,-0.250251,-0.488395,-0.782716,-0.304340,-0.155574
240,3948549151,0.257952,-0.796279,-0.247840,-0.487828,-1.070539,-0.236526,0.083092
241,3948582485,0.254933,-0.799040,-0.243939,-0.486866,-0.831887,-0.524883,0.302772
242,3948615819,0.251291,-0.801561,-0.239266,-0.486934,0.164485,-0.451833,0.485738
1,3954624406,0.151396,-0.824113,-0.208603,-0.504386,1.959614,-0.750539,-0.182815
2,3954657740,0.144342,-0.827863,-0.200992,-0.503402,2.266430,-0.257201,0.257715
3,3954691074,0.140357,-0.830777,-0.194154,-0.502411,2.404323,-0.135440,0.148195
4,3954724408,0.139333,-0.832885,-0.189490,-0.500984,2.674095,-0.354310,-0.014171
5,3954757742,0.139914,-0.834726,-0.186069,-0.499036,2.793688,-0.511133,-0.209460
6,3954791076,0.140694,-0.836563,-0.182941,-0.496892,2.668679,-0.212522,-0.238434
7,3954824410,0.143060,-0.838191,-0.180795,-0.494252,2.891426,-0.175598,-0.311693
8,3954857744,0.146170,-0.839598,-0.179718,-0.491338,2.772372,-0.046753,-0.141704
9,3954891078,0.150652,-0.840107,-0.180027,-0.488996,2.721987,-0.278559,-0.229271
10,3954924412,0.154306,-0.840668,-0.179838,-0.486957,2.710852,-0.200916,-0.206380
11,3954957746,0.157524,-0.841344,-0.178924,-0.485093,2.621919,-0.329491,-0.147585
12,3954991080,0.160318,-0.842192,-0.177204,-0.483334,2.433227,-0.419679,-0.251472
13,3955024414,0.162765,-0.843016,-0.175183,-0.481814,2.234420,-0.365078,-0.101338
14,3955057748,0.164754,-0.843967,-0.172813,-0.480326,2.272855,-0.336169,-0.150702
15,3955091082,0.166281,-0.845526,-0.169637,-0.478186,2.330636,-0.460666,-0.212878
16,3955124416,0.167975,-0.847577,-0.166087,-0.475199,2.087893,-0.691382,-0.390915
17,3955157750,0.168831,-0.850252,-0.162043,-0.471499,2.090280,-0.361490,-0.285272
18,3955191084,0.166961,-0.853457,-0.155805,-0.468467,2.065651,0.103222,0.305940
19,3955224418,0.164840,-0.856143,-0.148001,-0.466844,3.006520,-0.037940,-0.155849
20,3955257752,0.161233,-0.857856,-0.138415,-0.467900,3.615819,0.058362,-0.161689
21,3955291086,0.157280,-0.858068,-0.128474,-0.471674,2.992424,-0.437565,0.529857
22,3955324420,0.153104,-0.856795,-0.119426,-0.477702,2.284514,-0.987400,-0.001816
23,3955357754,0.148809,-0.854992,-0.110690,-0.484349,1.982178,-0.529030,-0.493623
24,3955391088,0.143778,-0.854322,-0.100676,-0.489211,1.802627,0.297762,-0.291734
25,3955424422,0.139526,-0.854440,-0.091339,-0.492060,2.067337,0.317191,-0.182680
26,3955457756,0.137458,-0.854902,-0.084532,-0.493055,2.679333,0.243715,-0.381646
27,3955491090,0.137906,-0.855323,-0.080722,-0.492838,3.463394,0.588810,-0.177442
28,3955524424,0.141372,-0.855607,-0.079951,-0.491486,3.426794,0.423136,-0.259693
29,3955557758,0.147880,-0.855805,-0.082281,-0.488835,2.889900,0.162643,-0.353101
30,3955591092,0.156082,-0.856197,-0.086796,-0.484801,2.747375,0.342184,-0.193314
31,3955624426,0.165321,-0.856472,-0.092734,-0.480130,2.736423,0.235987,-0.102288
32,3955657760,0.175052,-0.856646,-0.099787,-0.474930,2.553805,0.142660,-0.229460
33,3955691094,0.185360,-0.856397,-0.107964,-0.469650,2.325726,0.495418,-0.126020
34,3955724428,0.196567,-0.855357,-0.116765,-0.464857,2.675447,0.990437,0.028220
35,3955757762,0.209291,-0.853094,-0.127433,-0.460641,2.186343,0.748028,-0.033080
36,3955791096,0.223787,-0.849873,-0.140101,-0.456078,1.426661,0.540341,0.179689
37,3955824430,0.238088,-0.845924,-0.153171,-0.451957,2.067696,-0.244584,-0.169578
38,3955857764,0.249961,-0.842639,-0.163974,-0.447875,1.969103,-0.335766,-0.265520
39,3955891098,0.258584,-0.840576,-0.171768,-0.443916,2.075370,0.004135,-0.104969
40,3955924432,0.266135,-0.838899,-0.178501,-0.439953,2.313581,0.579962,-0.003906
41,3955957766,0.273823,-0.836503,-0.185247,-0.436999,2.629182,0.597227,0.140058
42,3955991100,0.281597,-0.833195,-0.192078,-0.435426,2.699016,0.296833,-0.172502
43,3956024434,0.288259,-0.829939,-0.198011,-0.434626,2.790852,0.057401,-0.306925
44,3956057768,0.293821,-0.827136,-0.202716,-0.434076,2.514354,0.453669,-0.224010
45,3956091102,0.298397,-0.824750,-0.206386,-0.433766,2.545482,0.103745,-0.301017
46,3956124436,0.301418,-0.823358,-0.209172,-0.432985,2.106303,-0.281145,-0.064043
47,3956157770,0.302156,-0.823310,-0.210111,-0.432107,2.186155,-0.113663,-0.261423
48,3956191104,0.301738,-0.823733,-0.210283,-0.431510,2.281737,-0.089251,-0.080942
49,3956224438,0.300119,-0.824427,-0.209425,-0.431731,2.657643,-0.265537,-0.252949
50,3956257772,0.296884,-0.825447,-0.207155,-0.433112,2.700862,-0.168456,-0.673684
51,3956291106,0.292492,-0.827531,-0.203667,-0.433776,2.280513,0.193212,0.170650
52,3956324440,0.287771,-0.830047,-0.199398,-0.434111,2.125713,0.175993,0.005729
53,3956357774,0.283984,-0.832460,-0.195237,-0.433875,1.785523,0.010488,-0.012072
54,3956391108,0.281301,-0.834381,-0.191480,-0.433606,2.318650,0.044792,0.217395
55,3956424442,0.278434,-0.835952,-0.187671,-0.434096,3.048393,-0.221051,-0.196909
56,3956457776,0.274244,-0.837678,-0.182936,-0.435456,3.186618,-0.195568,-0.232971
57,3956491110,0.269208,-0.839506,-0.177829,-0.437191,2.523328,0.028847,-0.034135
58,3956524444,0.264573,-0.840830,-0.173860,-0.439067,2.402379,0.104814,-0.082049
59,3956557778,0.260607,-0.841764,-0.170791,-0.440851,2.284792,0.222805,0.013165
60,3956591112,0.257181,-0.842503,-0.168130,-0.442472,2.286631,0.234284,-0.236845
61,3956624446,0.254755,-0.843003,-0.166660,-0.443477,2.108445,0.233201,-0.075035
62,3956657780,0.253812,-0.843340,-0.166407,-0.443472,2.069698,0.557111,0.000235
63,3956691114,0.254683,-0.843359,-0.167518,-0.442519,2.130457,0.482796,-0.205265
64,3956724448,0.256889,-0.843180,-0.169760,-0.440726,2.387999,0.362478,-0.111968
65,3956757782,0.260305,-0.842546,-0.173422,-0.438504,2.532867,0.211899,-0.029360
66,3956791116,0.264734,-0.841457,-0.178278,-0.435989,2.499031,0.522138,-0.199658
67,3956824450,0.269731,-0.839857,-0.183703,-0.433753,2.643160,0.308003,-0.271891
68,3956857784,0.274592,-0.838130,-0.188995,-0.431765,2.554409,0.277078,0.047285
69,3956891118,0.279972,-0.836151,-0.194937,-0.429500,2.050940,0.272304,0.018804
70,3956924452,0.285791,-0.833976,-0.201596,-0.426815,1.947306,0.088642,-0.085847
71,3956957786,0.291259,-0.831837,-0.207826,-0.424296,2.252860,-0.021883,-0.108687
72,3956991120,0.295820,-0.830194,-0.213340,-0.421615,2.023060,-0.157585,-0.047153
73,3957024454,0.299824,-0.828961,-0.218567,-0.418523,1.962174,-0.080627,-0.031238
74,3957057788,0.303177,-0.827987,-0.222693,-0.415853,2.285901,0.074692,-0.164507
75,3957091122,0.305327,-0.827423,-0.225275,-0.414007,2.519016,-0.138835,-0.111522
76,3957124456,0.305846,-0.827344,-0.226369,-0.413186,2.708520,-0.186345,-0.194179
77,3957157790,0.304639,-0.827782,-0.226080,-0.413359,2.783578,-0.007273,-0.106305
78,3957191124,0.302037,-0.828471,-0.224590,-0.414697,2.695088,0.060212,-0.109625
79,3957224458,0.298329,-0.829489,-0.222156,-0.416654,2.294486,-0.016377,-0.106434
80,3957257792,0.293902,-0.830740,-0.219167,-0.418884,2.199825,0.075379,-0.088087
81,3957291126,0.289083,-0.832178,-0.215974,-0.421037,2.229595,0.095217,-0.107056
82,3957324460,0.283624,-0.834207,-0.212098,-0.422703,2.053424,-0.127630,-0.014874
83,3957357794,0.276992,-0.836903,-0.206936,-0.424325,2.165154,0.000847,-0.170782
84,3957391128,0.269827,-0.839835,-0.201161,-0.425925,2.442016,0.114887,-0.139649
85,3957424462,0.262217,-0.842626,-0.194899,-0.428071,2.797565,-0.004452,-0.117042
86,3957457796,0.254070,-0.844939,-0.187958,-0.431515,3.191193,-0.184442,-0.128850
87,3957491130,0.244967,-0.846841,-0.180142,-0.436357,3.102831,-0.068509,-0.060402
88,3957524464,0.235059,-0.848220,-0.171889,-0.442416,2.787541,-0.251595,-0.222380
89,3957557798,0.224391,-0.849191,-0.163490,-0.449223,2.370321,-0.231945,-0.085876
90,3957591132,0.213457,-0.849768,-0.155206,-0.456342,2.077635,0.032581,-0.011312
91,3957624466,0.203169,-0.849986,-0.147463,-0.463149,1.696931,0.356460,0.027827
92,3957657800,0.193707,-0.849353,-0.139922,-0.470643,1.474244,1.230827,0.081303
93,3957691134,0.186168,-0.848594,-0.133451,-0.476893,1.857569,0.590102,-0.250580
94,3957724468,0.179668,-0.848170,-0.127947,-0.481626,1.363472,0.406681,-0.013668
95,3957757802,0.174244,-0.848562,-0.122092,-0.484441,2.080856,0.642333,-0.307150
96,3957791136,0.170102,-0.849751,-0.117087,-0.485063,1.752595,0.906899,-0.126143
97,3957824470,0.167779,-0.850842,-0.113411,-0.484832,2.142316,0.891807,-0.237397
98,3957857804,0.166684,-0.851793,-0.110820,-0.484140,2.228539,0.673230,-0.044686
99,3957891138,0.166396,-0.852230,-0.109276,-0.483820,2.678288,0.467292,-0.163063
100,3957924472,0.166702,-0.852225,-0.108899,-0.483809,2.867794,0.319260,-0.176842
101,3957957806,0.167196,-0.852128,-0.109123,-0.483759,2.904630,0.241147,-0.140614
102,3957991140,0.168131,-0.851857,-0.110292,-0.483647,2.765158,0.179804,-0.133397
103,3958024474,0.170227,-0.851368,-0.113144,-0.483115,2.600579,0.455752,-0.173682
104,3958057808,0.173704,-0.850960,-0.117706,-0.481505,2.376405,0.674332,-0.212394
105,3958091142,0.178790,-0.850659,-0.124068,-0.478569,2.544023,0.662951,-0.176024
106,3958124476,0.185236,-0.850212,-0.132312,-0.474689,2.557397,0.476762,-0.184711
107,3958157810,0.192597,-0.849842,-0.141922,-0.469618,2.261569,0.382172,-0.220486
108,3958191144,0.200063,-0.849929,-0.152070,-0.463117,2.153882,0.346501,-0.337089
109,3958224478,0.207548,-0.850305,-0.163024,-0.455342,2.228110,0.785974,-0.130363
110,3958257812,0.215861,-0.850091,-0.176059,-0.446947,2.392231,0.786741,-0.000141
111,3958291146,0.224711,-0.848967,-0.190378,-0.438777,2.485434,0.669230,-0.121410
112,3958324480,0.233072,-0.847423,-0.204894,-0.430789,2.306105,0.967833,-0.123214
113,3958357814,0.242394,-0.844686,-0.221504,-0.422723,1.210783,1.571887,0.492538
114,3958391148,0.255056,-0.839115,-0.240992,-0.415649,2.560186,0.502328,0.093577
115,3958424482,0.266725,-0.832787,-0.257947,-0.410849,3.302815,0.648878,0.056875
116,3958457816,0.274377,-0.826602,-0.270272,-0.410375,4.177247,0.741610,-0.085374
117,3958491150,0.277730,-0.820106,-0.279454,-0.414977,4.492775,-0.106865,-0.300616
118,3958524484,0.277950,-0.811834,-0.287554,-0.425430,4.469324,-0.435671,-0.586968
119,3958557818,0.277466,-0.802607,-0.295812,-0.437423,2.863373,-0.274114,-0.853948
120,3958591152,0.276373,-0.795547,-0.303582,-0.445611,1.018105,-0.287560,-0.771096
121,3958624486,0.273458,-0.792643,-0.307817,-0.449662,-0.514332,-0.241042,0.334513
122,3958657820,0.270812,-0.792207,-0.310569,-0.450138,-0.134816,-0.153885,0.316291
123,3958691154,0.268853,-0.792829,-0.314326,-0.447603,1.413300,-0.354814,0.364071
124,3958724488,0.266829,-0.793378,-0.317958,-0.445270,2.728779,-0.498327,0.029382
126,3958791156,0.257498,-0.796185,-0.318537,-0.445340,2.646596,-0.259210,-0.103389
127,3958824490,0.250182,-0.798156,-0.316704,-0.447285,2.415541,-0.232979,-0.139883
128,3958857824,0.242726,-0.800134,-0.314512,-0.449401,2.296526,-0.029153,-0.129794
129,3958891158,0.235583,-0.802114,-0.312388,-0.451150,2.196476,0.322907,0.102516
130,3958924492,0.229646,-0.803607,-0.310435,-0.452900,2.418341,0.355506,-0.093943
131,3958957826,0.223528,-0.804797,-0.307619,-0.455759,2.567086,-0.038634,-0.103996
132,3958991160,0.215537,-0.806277,-0.303745,-0.459574,2.375409,-0.475467,0.025873
133,3959024494,0.206869,-0.807490,-0.299916,-0.463924,2.148765,-0.242724,0.210948
134,3959057828,0.197970,-0.808347,-0.295516,-0.469108,2.243599,-0.317637,0.042420
135,3959091162,0.188045,-0.809237,-0.290480,-0.474768,2.036979,-0.058306,-0.314810
136,3959124496,0.177688,-0.810230,-0.284754,-0.480498,1.541929,0.494667,-0.065400
141,3959291166,0.145591,-0.813250,-0.263306,-0.498102,1.951862,0.010647,0.025196
142,3959324500,0.141528,-0.813606,-0.260321,-0.500256,2.135318,0.087279,-0.008136
143,3959357834,0.136986,-0.814454,-0.256605,-0.502058,1.914024,0.065271,0.026869
145,3959424502,0.127210,-0.816810,-0.248200,-0.505019,2.087922,0.205338,-0.127550
146,3959457836,0.123057,-0.818183,-0.244139,-0.505805,2.083061,0.315284,-0.001162
147,3959491170,0.119953,-0.818849,-0.240963,-0.506994,2.048898,0.629474,-0.145792
148,3959524504,0.116447,-0.819331,-0.238154,-0.508359,2.072666,0.272314,-0.140236
149,3959557838,0.115770,-0.818235,-0.237640,-0.510514,2.844918,1.069330,-0.308605
150,3959591172,0.117158,-0.816600,-0.240496,-0.511477,1.557136,-0.006592,0.330032
151,3959624506,0.117528,-0.815229,-0.241202,-0.513244,1.934519,0.114236,-0.077642
152,3959657840,0.117991,-0.815208,-0.240908,-0.513308,1.705665,0.342323,-0.096027
153,3959691174,0.119475,-0.816709,-0.240217,-0.510898,1.579505,-0.069727,-0.184470
154,3959724508,0.120796,-0.818436,-0.239517,-0.508144,1.665651,0.344098,-0.208117
155,3959757842,0.124081,-0.820180,-0.240314,-0.504148,2.108272,0.307466,0.013844
156,3959791176,0.128775,-0.821023,-0.242065,-0.500749,2.481219,0.020826,0.020539
157,3959824510,0.133788,-0.821143,-0.244095,-0.498247,2.833710,-0.165152,-0.000748
158,3959857844,0.137247,-0.821206,-0.245033,-0.496741,2.675788,-0.135122,-0.023119
159,3959891178,0.140068,-0.821389,-0.245163,-0.495584,2.375963,-0.023944,0.062283
160,3959924512,0.142469,-0.821643,-0.244586,-0.494764,2.076024,0.048265,0.087901
161,3959957846,0.144546,-0.821608,-0.243609,-0.494701,1.967394,0.208282,-0.067643
162,3959991180,0.146299,-0.821719,-0.241828,-0.494875,1.922662,0.166498,-0.176849
163,3960024514,0.147432,-0.822260,-0.238793,-0.495114,1.900463,0.237699,0.122647
164,3960057848,0.147268,-0.823262,-0.234187,-0.495698,1.910798,0.146468,0.086300
165,3960091182,0.145262,-0.824670,-0.227776,-0.496934,1.816414,-0.010835,-0.088211
166,3960124516,0.142038,-0.826489,-0.220343,-0.498195,1.561206,0.358721,-0.055529
167,3960157850,0.139088,-0.828458,-0.212690,-0.499082,1.440229,0.603821,0.078647
168,3960191184,0.136508,-0.830099,-0.204954,-0.500303,1.462256,0.381593,-0.152424
169,3960224518,0.134369,-0.831650,-0.197262,-0.501397,1.476585,0.365459,-0.047184
170,3960257852,0.132474,-0.833337,-0.189462,-0.502107,1.570880,0.011151,-0.075245
171,3960291186,0.130205,-0.835684,-0.180889,-0.501961,1.494051,-0.159810,-0.105508
172,3960324520,0.126162,-0.838477,-0.170337,-0.502029,1.978893,0.217963,-0.049643
173,3960357854,0.120622,-0.841042,-0.158391,-0.503011,2.083524,0.532301,0.393998
174,3960391188,0.116214,-0.842709,-0.147545,-0.504553,2.532696,0.017631,-0.033322
175,3960424522,0.112109,-0.843712,-0.137573,-0.506619,2.922669,-0.390029,-0.023786
176,3960457856,0.107298,-0.844168,-0.127144,-0.509617,2.792275,0.449003,0.284336
177,3960491190,0.104066,-0.844120,-0.118226,-0.512507,2.020026,0.381483,0.016482
178,3960524524,0.102593,-0.844185,-0.111779,-0.514141,1.549247,0.171098,-0.418211
179,3960557858,0.101933,-0.844880,-0.106054,-0.514342,1.511051,0.510931,-0.096217
180,3960591192,0.102115,-0.845586,-0.100581,-0.514245,1.965597,0.831190,0.112864
181,3960624526,0.104396,-0.846053,-0.096976,-0.513712,2.287338,0.609221,-0.078616
182,3960657860,0.107590,-0.846271,-0.095318,-0.513003,2.223170,0.306048,0.142823
183,3960691194,0.111689,-0.846037,-0.095026,-0.512566,2.583436,0.737272,-0.006881
184,3960724528,0.117339,-0.845414,-0.096566,-0.512043,2.282380,0.760760,0.035162
185,3960757862,0.124718,-0.844429,-0.100434,-0.511181,2.040066,0.601842,-0.067797
186,3960791196,0.132911,-0.843351,-0.105813,-0.509807,1.772957,0.574696,-0.146465
187,3960824530,0.141899,-0.842410,-0.111918,-0.507634,1.548623,0.870453,-0.172566
188,3960857864,0.151713,-0.841474,-0.119177,-0.504686,1.367015,1.055662,-0.000242
189,3960891198,0.162965,-0.840249,-0.128412,-0.500942,1.382431,0.840992,-0.094347
190,3960924532,0.174546,-0.838855,-0.138420,-0.496692,1.542621,0.768646,-0.014727
191,3960957866,0.186375,-0.836966,-0.148811,-0.492559,1.782292,1.011779,0.070712
192,3960991200,0.199148,-0.834104,-0.160587,-0.488702,1.411339,1.022754,0.162455
193,3961024534,0.213169,-0.830058,-0.174117,-0.485030,1.379490,1.335608,0.175947
194,3961057868,0.229401,-0.824178,-0.190502,-0.481480,1.013183,1.529953,0.454526
195,3961091202,0.247813,-0.816273,-0.209268,-0.478018,0.775083,0.263287,0.126247
196,3961124536,0.265487,-0.807735,-0.227449,-0.474715,0.994524,-0.560762,-0.215308
197,3961157870,0.279418,-0.800345,-0.242385,-0.471838,1.183084,-0.023320,0.024008
198,3961191204,0.290027,-0.794361,-0.254363,-0.469236,1.157434,-0.184016,0.107542
199,3961224538,0.298563,-0.789427,-0.264763,-0.466447,0.752572,0.303780,0.054173
200,3961257872,0.305524,-0.784959,-0.273980,-0.464152,0.841142,0.399104,-0.132040
201,3961291206,0.310960,-0.781712,-0.281470,-0.461532,0.435999,0.171178,0.139269
202,3961324540,0.315269,-0.780051,-0.287456,-0.457714,0.633881,0.394535,-0.101241
203,3961357874,0.319764,-0.778589,-0.293575,-0.453180,1.617682,0.041155,-0.102154
204,3961391208,0.323839,-0.776928,-0.299449,-0.449276,2.490360,0.461120,-0.013213
205,3961424542,0.327367,-0.775355,-0.304346,-0.446136,2.859516,0.762898,0.175789
206,3961457876,0.329847,-0.773877,-0.308389,-0.444094,3.122408,0.135739,-0.098973
207,3961491210,0.330398,-0.773281,-0.310445,-0.443289,2.607281,0.306164,0.143245
208,3961524544,0.329691,-0.773181,-0.310943,-0.443640,1.939443,0.710123,0.051012
209,3961557878,0.328416,-0.773048,-0.311506,-0.444423,1.242757,0.559967,0.200082
210,3961591212,0.327201,-0.772386,-0.312675,-0.445648,1.691475,0.037029,-0.006251
211,3961624546,0.323837,-0.773100,-0.311755,-0.447506,1.464451,0.534794,0.083444
212,3961657880,0.318903,-0.774612,-0.309202,-0.450198,1.307556,0.453877,0.025606
213,3961691214,0.312779,-0.776420,-0.305975,-0.453573,1.066594,0.192683,0.068498
214,3961724548,0.305601,-0.778703,-0.302137,-0.457112,0.974280,0.109508,0.160993
215,3961757882,0.297559,-0.781238,-0.297717,-0.460975,1.082199,0.182199,0.379380
216,3961791216,0.288663,-0.783498,-0.292549,-0.466077,1.295583,-0.006919,0.377175
217,3961824550,0.277445,-0.786079,-0.285009,-0.473162,1.256991,0.602939,-0.185909
218,3961857884,0.264878,-0.789063,-0.276636,-0.480311,0.705869,1.308423,0.076716
219,3961891218,0.253044,-0.791582,-0.269702,-0.486451,0.648432,1.480286,-0.120099
220,3961924552,0.242934,-0.793083,-0.265263,-0.491575,0.606308,1.289802,0.034986
221,3961957886,0.235012,-0.793383,-0.263303,-0.495976,0.766765,1.041939,0.052080
222,3961991220,0.228290,-0.793626,-0.262875,-0.498944,0.795434,0.666458,-0.106865
223,3962024554,0.222001,-0.794185,-0.263089,-0.500777,0.926656,0.991069,-0.143766
224,3962057888,0.217738,-0.794172,-0.265507,-0.501392,1.004928,1.056330,0.110756
225,3962091222,0.216376,-0.792973,-0.271598,-0.500618,0.988079,0.987256,-0.079621
226,3962124556,0.217514,-0.790630,-0.280868,-0.498711,1.338863,0.793850,0.042457
227,3962157890,0.219873,-0.787400,-0.291005,-0.496971,1.870059,-0.005502,0.232453
228,3962191224,0.220377,-0.784584,-0.298761,-0.496600,1.861261,-0.295452,-0.289101
229,3962224558,0.218630,-0.782408,-0.304546,-0.497291,1.578467,0.126618,0.365714
230,3962257892,0.214663,-0.780200,-0.308163,-0.500251,1.714980,-0.159128,1.389556
231,3962291226,0.209706,-0.775212,-0.310348,-0.508686,1.945613,-0.305097,1.205687
232,3962324560,0.203924,-0.766386,-0.314716,-0.521564,2.241808,-0.193141,-0.539943
233,3962357894,0.198961,-0.757292,-0.322278,-0.532041,1.357074,0.116003,-0.534465
234,3962391228,0.194270,-0.751884,-0.326699,-0.538706,-0.457957,-0.047302,-0.268179
235,3962424562,0.189081,-0.750658,-0.327752,-0.541615,-1.481391,0.530905,-0.288323
236,3962457896,0.185590,-0.750581,-0.328248,-0.542627,-0.860237,0.356651,0.079082
237,3962491230,0.184780,-0.749407,-0.330088,-0.543410,0.388292,0.255632,0.495317
238,3962524564,0.183865,-0.749175,-0.330970,-0.543504,1.372860,-0.771620,0.808740
239,3962557898,0.182045,-0.750012,-0.329740,-0.543710,2.086298,-1.024361,-0.254934
240,3962591232,0.179372,-0.751287,-0.327407,-0.544247,2.582185,-0.520146,-0.234144
241,3962624566,0.174652,-0.753112,-0.323721,-0.545464,2.249444,-0.224938,0.171282
242,3962657900,0.170365,-0.754115,-0.320596,-0.547276,1.802151,0.585857,0.292032
243,3962691234,0.167856,-0.753931,-0.319104,-0.549174,1.361862,0.265568,0.680575
244,3962724568,0.164886,-0.753179,-0.317448,-0.552058,1.228686,-0.287275,0.460720
245,3962757902,0.161335,-0.753221,-0.314908,-0.554500,0.934317,-0.058491,0.144174
246,3962791236,0.157098,-0.754126,-0.311646,-0.556326,0.696154,-0.005570,0.219362
247,3962824570,0.152591,-0.754988,-0.308177,-0.558340,0.991633,0.006391,-0.156630
248,3962857904,0.148297,-0.755528,-0.304478,-0.560790,1.174196,0.321694,-0.289129
249,3962891238,0.143840,-0.756249,-0.299943,-0.563417,1.030145,0.510083,-0.200516
250,3962924572,0.139481,-0.757217,-0.294433,-0.566113,0.865279,0.518184,-0.118233
251,3962957906,0.135034,-0.758272,-0.288295,-0.568930,0.541437,-0.148356,0.305135
252,3962991240,0.129610,-0.759268,-0.281255,-0.572378,0.493205,-0.115737,0.254638
253,3963024574,0.124432,-0.760015,-0.274370,-0.575866,0.249520,0.285696,0.043245
254,3963057908,0.121060,-0.760409,-0.268907,-0.578635,0.321924,0.474613,0.074587
255,3963091242,0.118331,-0.760505,-0.263415,-0.581592,0.678613,0.620311,0.124509
256,3963124576,0.115130,-0.760944,-0.256522,-0.584733,0.851159,0.586908,-0.150550
257,3963157910,0.112590,-0.761734,-0.249059,-0.587419,0.666581,0.519651,-0.321618
258,3963191244,0.110902,-0.763182,-0.241466,-0.589030,0.543800,0.075769,-0.121118
259,3963224578,0.109563,-0.764926,-0.234072,-0.590001,1.034353,-0.158799,0.266734
260,3963257912,0.105850,-0.766945,-0.225465,-0.591408,0.997779,-0.506092,0.651289
261,3963291246,0.099354,-0.769899,-0.212922,-0.593342,1.537901,-0.791369,0.571370
262,3963324580,0.093689,-0.772964,-0.199215,-0.595037,1.221253,-0.033210,0.253184
263,3963357914,0.088385,-0.775693,-0.186402,-0.596448,0.758404,0.497303,0.286925
264,3963391248,0.085157,-0.777540,-0.178265,-0.597000,0.824553,1.467912,0.262259
265,3963424582,0.084673,-0.779059,-0.174337,-0.596247,0.938472,1.351757,-0.080998
266,3963457916,0.088423,-0.780996,-0.173790,-0.593321,0.780037,1.367838,-0.280528
267,3963491250,0.093922,-0.782928,-0.175675,-0.589362,0.680154,0.751645,0.217092
268,3963524584,0.101007,-0.784363,-0.179810,-0.585020,0.929771,0.532380,0.245626
269,3963557918,0.110211,-0.785402,-0.186415,-0.579874,0.903898,0.837598,0.161265
270,3963591252,0.119446,-0.785839,-0.194344,-0.574829,0.962344,0.805906,0.326633
271,3963624586,0.128782,-0.785797,-0.203905,-0.569533,0.893905,0.753760,0.118266
272,3963657920,0.138631,-0.785343,-0.214590,-0.563894,0.634715,1.105229,0.138009
273,3963691254,0.148280,-0.784359,-0.226056,-0.558301,0.452090,1.502456,0.107967
274,3963724588,0.157752,-0.782868,-0.239095,-0.552335,0.274506,1.239150,-0.077983
275,3963757922,0.167690,-0.781392,-0.253710,-0.544927,-0.322747,1.640549,-0.216578
276,3963791256,0.176911,-0.779959,-0.269677,-0.536328,-0.872211,1.186237,0.294874
277,3963824590,0.187353,-0.777811,-0.285834,-0.527461,-0.217797,1.154100,-0.218972
278,3963857924,0.200022,-0.774309,-0.304337,-0.517516,-0.072054,0.368796,0.169261
279,3963891258,0.212185,-0.769649,-0.322304,-0.508670,0.510472,0.154920,0.589044
280,3963924592,0.223090,-0.763634,-0.339294,-0.501976,1.396645,-0.155167,0.569455
281,3963957926,0.232088,-0.756445,-0.353958,-0.498646,1.589627,-0.672819,0.503288
282,3963991260,0.238787,-0.748083,-0.366390,-0.499117,2.174486,-0.452833,0.377144
283,3964024594,0.245964,-0.737649,-0.378314,-0.502257,1.760418,0.429470,0.248239
284,3964057928,0.254114,-0.727017,-0.390390,-0.504456,0.057834,0.371026,0.096590
285,3964091262,0.262909,-0.717931,-0.402147,-0.503725,-1.479647,0.137549,-0.050569
286,3964124596,0.271029,-0.712029,-0.412523,-0.499389,-2.664549,0.058084,-0.451719
287,3964157930,0.279497,-0.707791,-0.423103,-0.491838,-2.023668,0.117068,-0.489924
288,3964191264,0.288870,-0.703782,-0.434973,-0.481715,0.246984,0.021160,0.060741
289,3964224598,0.297828,-0.699437,-0.445449,-0.472935,1.775203,-0.285302,0.532957
290,3964257932,0.304568,-0.695617,-0.452289,-0.467757,2.079271,-0.681189,0.146786
291,3964291266,0.306847,-0.694425,-0.455125,-0.465282,1.974501,-0.135987,0.013216
292,3964324600,0.307236,-0.695072,-0.456499,-0.462706,1.031495,0.773484,0.196669
293,3964357934,0.308658,-0.695084,-0.457815,-0.460437,0.711631,1.144801,0.413706
294,3964391268,0.308306,-0.695117,-0.459264,-0.459178,0.873395,0.993613,0.525882
295,3964424602,0.307187,-0.694294,-0.460638,-0.459796,1.057836,0.588711,0.497547
296,3964457936,0.307813,-0.692301,-0.462478,-0.460535,1.184152,0.016756,0.517562
297,3964491270,0.307923,-0.689262,-0.464263,-0.463215,1.002547,-0.455815,0.663213
298,3964524604,0.303158,-0.687895,-0.464587,-0.468040,0.674463,-1.252927,1.155791
299,3964557938,0.295570,-0.687683,-0.460893,-0.476775,0.730563,-0.629047,-0.027400
300,3964591272,0.288207,-0.688142,-0.456393,-0.484881,0.099511,-0.302658,0.572263
301,3964624606,0.280167,-0.689185,-0.451563,-0.492573,-0.416745,-0.837032,0.600927
302,3964657940,0.270907,-0.689950,-0.444930,-0.502617,-0.610716,-0.381364,-0.095645
303,3964691274,0.262845,-0.690354,-0.437763,-0.512538,-0.575099,0.273656,-0.014537
304,3964724608,0.256461,-0.690597,-0.431488,-0.520701,-0.313416,0.132398,0.270721
305,3964757942,0.249493,-0.691760,-0.424520,-0.528215,0.277418,0.000279,-0.286606
306,3964791276,0.242805,-0.693097,-0.417276,-0.535305,0.013264,0.104052,0.210933
307,3964824610,0.235656,-0.694036,-0.409707,-0.543072,-0.188598,0.193737,0.699756
308,3964857944,0.227770,-0.694821,-0.400691,-0.552085,0.029037,-0.015276,-0.087370
309,3964891278,0.219206,-0.697134,-0.389590,-0.560518,0.330907,0.225812,-0.582462
310,3964924612,0.210849,-0.700153,-0.378579,-0.567463,0.247814,0.584300,-0.388494
311,3964957946,0.202704,-0.703895,-0.367932,-0.572780,-0.247960,0.783274,0.280466
312,3964991280,0.195215,-0.707169,-0.357939,-0.577660,0.255357,0.607978,-0.228376
313,3965024614,0.187541,-0.709952,-0.349131,-0.582162,0.380715,0.206270,-0.715801
314,3965057948,0.179508,-0.712855,-0.340102,-0.586475,0.779347,0.545979,-0.819347
315,3965091282,0.171628,-0.716850,-0.331486,-0.588893,0.995266,0.935473,-0.307929
316,3965124616,0.166297,-0.720148,-0.325201,-0.589903,0.662346,1.033604,0.788711
317,3965157950,0.163164,-0.720604,-0.321697,-0.592137,0.640511,0.790331,0.306806
318,3965191284,0.160745,-0.719369,-0.319609,-0.595422,0.528846,0.473640,0.292184
319,3965224618,0.158706,-0.718473,-0.317101,-0.598385,0.939934,0.338711,-0.000689
320,3965257952,0.156123,-0.719803,-0.313583,-0.599318,0.974664,0.001906,-0.100444
321,3965291286,0.154064,-0.721929,-0.309949,-0.599184,0.323265,0.416258,0.607289
322,3965324620,0.153206,-0.722876,-0.308711,-0.598902,-0.069066,0.515124,0.948811
323,3965357954,0.152289,-0.722507,-0.308219,-0.599834,0.482752,0.042938,0.012611
324,3965391288,0.152672,-0.722287,-0.308710,-0.599748,0.918646,-0.577521,0.039466
325,3965424622,0.153967,-0.722224,-0.310681,-0.598474,0.300408,-0.501449,0.764487
326,3965457956,0.152952,-0.721933,-0.309948,-0.599464,0.059456,-0.357384,0.365535
327,3965491290,0.152426,-0.721647,-0.309134,-0.600363,-0.212651,0.071921,0.122768
328,3965524624,0.152124,-0.721987,-0.307470,-0.600884,-0.455936,0.056010,-0.033181
329,3965557958,0.151737,-0.723032,-0.305055,-0.600957,-0.859925,-0.111021,0.099174
330,3965591292,0.152767,-0.723933,-0.302379,-0.600963,-0.670624,-0.096204,0.176381
331,3965624626,0.152384,-0.725896,-0.297410,-0.601173,-0.466284,-0.699717,0.211946
332,3965657960,0.151501,-0.728567,-0.292017,-0.600808,-0.021228,-0.561749,-0.199039
333,3965691294,0.149981,-0.731922,-0.284736,-0.600606,-0.139210,-0.223631,0.042912
334,3965724628,0.146206,-0.735733,-0.273617,-0.602047,-0.063062,0.089023,0.492458
335,3965757962,0.140219,-0.740656,-0.260176,-0.603393,-0.468136,0.396802,0.301015
336,3965791296,0.136940,-0.745855,-0.248014,-0.602864,-0.828080,0.712538,-0.453657
337,3965824630,0.134794,-0.750997,-0.237653,-0.601134,-0.299790,0.341634,-0.040604
338,3965857964,0.133416,-0.754926,-0.228618,-0.600023,0.420574,0.309757,0.515796
339,3965891298,0.131131,-0.757156,-0.218849,-0.601358,1.216043,-0.383387,0.907434
340,3965924632,0.127896,-0.758790,-0.207055,-0.604165,1.422893,-0.494941,0.557490
341,3965957966,0.123132,-0.760506,-0.193165,-0.607588,0.707483,-0.335988,0.148096
342,3965991300,0.118254,-0.762503,-0.179036,-0.610375,-0.090994,-0.059910,0.105459
343,3966024634,0.115212,-0.764371,-0.166830,-0.612076,-0.577284,0.536556,0.095295
344,3966057968,0.114598,-0.766964,-0.157620,-0.611389,-0.143575,0.815555,-0.230248
345,3966091302,0.117153,-0.769978,-0.152156,-0.608493,0.171057,0.444868,0.084855
346,3966124636,0.121569,-0.773280,-0.148426,-0.604347,0.440375,0.507992,0.356391
347,3966157970,0.127935,-0.776468,-0.147368,-0.599181,0.534973,0.615018,0.184209
348,3966191304,0.136707,-0.779087,-0.149801,-0.593211,0.443976,1.097566,0.278568
349,3966224638,0.148622,-0.780588,-0.157120,-0.586440,-0.256037,1.393113,0.054722
350,3966257972,0.162119,-0.782228,-0.167303,-0.577800,-1.033026,0.794555,-0.304749
351,3966291306,0.176092,-0.784210,-0.177198,-0.567990,-0.288977,0.290203,-0.022594
352,3966324640,0.188560,-0.785818,-0.185577,-0.559018,0.803756,0.104451,0.274952
353,3966357974,0.199793,-0.786304,-0.193761,-0.551607,0.636160,0.304725,0.441804
354,3966391308,0.210102,-0.785649,-0.202265,-0.545625,0.089937,0.512649,0.391198
355,3966424642,0.219977,-0.784517,-0.210505,-0.540218,-0.172992,0.748432,0.236549
356,3966457976,0.229443,-0.782948,-0.218312,-0.535437,-0.217311,1.003781,0.135067
357,3966491310,0.239209,-0.780708,-0.226931,-0.530830,-0.350215,0.805368,0.313098
358,3966524644,0.249165,-0.777574,-0.236620,-0.526603,-0.513775,0.178389,0.193760
359,3966557978,0.258533,-0.774384,-0.246294,-0.522334,-0.724074,0.089034,-0.062651
360,3966591312,0.266644,-0.771817,-0.254428,-0.518142,-0.116508,0.174969,0.122103
361,3966624646,0.273566,-0.769902,-0.260768,-0.514215,-0.243911,0.264355,0.170627
362,3966657980,0.279714,-0.768253,-0.266644,-0.510346,-0.161586,0.230898,0.240301
363,3966691314,0.285739,-0.766017,-0.272721,-0.507146,0.204969,0.367199,0.297737
364,3966724648,0.291550,-0.763023,-0.278286,-0.505327,0.536906,0.314770,0.253378
365,3966757982,0.296293,-0.760155,-0.282804,-0.504381,0.105664,0.407610,0.197197
366,3966791316,0.300587,-0.757411,-0.286627,-0.503810,-0.154120,0.323897,0.095601
367,3966824650,0.304632,-0.754531,-0.290120,-0.503702,0.110667,0.339210,0.098269
368,3966857984,0.308260,-0.751869,-0.293457,-0.503542,-0.079117,0.286311,0.060588
369,3966891318,0.311259,-0.749927,-0.296467,-0.502830,-0.359095,0.458479,0.003251
370,3966924652,0.313689,-0.748262,-0.299322,-0.502109,-0.099755,0.304635,0.187098
371,3966957986,0.315420,-0.746826,-0.301917,-0.501608,-0.245445,0.332159,0.220267
372,3966991320,0.316388,-0.745883,-0.303819,-0.501252,-0.597485,0.293042,0.158859
373,3967024654,0.316744,-0.745728,-0.305086,-0.500488,-1.078923,0.118455,0.178280
374,3967057988,0.316182,-0.746457,-0.305384,-0.499574,-1.026878,-0.201944,-0.263907
375,3967091322,0.314175,-0.748531,-0.303786,-0.498711,-0.840937,-0.306473,-0.145297
376,3967124656,0.311010,-0.751809,-0.300179,-0.497948,-0.873712,-0.113474,0.299145
377,3967157990,0.307588,-0.754835,-0.295263,-0.498434,-0.699415,-0.043018,0.270206
378,3967191324,0.303896,-0.757142,-0.290241,-0.500147,0.167247,-0.240594,0.390718
379,3967224658,0.299186,-0.759401,-0.284220,-0.503011,0.216686,0.366795,0.498916
380,3967257992,0.294199,-0.760976,-0.277883,-0.507095,0.024760,0.214299,0.348688
381,3967291326,0.289477,-0.762061,-0.272112,-0.511296,-0.284590,0.354813,0.156197
382,3967324660,0.285604,-0.762832,-0.267878,-0.514550,-0.698038,0.642760,-0.010385
383,3967357994,0.283521,-0.763095,-0.265835,-0.516367,-0.634252,0.781082,0.192849
384,3967391328,0.283384,-0.762833,-0.266057,-0.516715,-0.366652,0.524095,0.177710
385,3967424662,0.284462,-0.762229,-0.267997,-0.516011,-0.047767,0.156674,0.175402
386,3967457996,0.286036,-0.761058,-0.270935,-0.515335,0.409545,0.142901,0.286211
387,3967491330,0.288358,-0.758893,-0.275210,-0.514968,0.318917,0.527426,0.401305
388,3967524664,0.291589,-0.755824,-0.281105,-0.514478,-0.246379,0.649719,0.063503
389,3967557998,0.295254,-0.753014,-0.287999,-0.512691,-1.190513,0.325057,-0.078999
390,3967591332,0.299128,-0.750697,-0.295336,-0.509660,-1.090598,0.062132,-0.178256
391,3967624666,0.302915,-0.749336,-0.302191,-0.505391,-1.301677,0.434321,0.165963
392,3967658000,0.307291,-0.748518,-0.309510,-0.499498,-1.767387,-0.188366,0.232097
393,3967691334,0.311701,-0.747947,-0.317059,-0.492842,-0.803306,-1.071593,-0.150290
394,3967724668,0.313933,-0.748316,-0.322226,-0.487485,0.294868,-0.438182,0.242862
395,3967758002,0.314822,-0.748513,-0.325396,-0.484494,0.750918,0.232609,0.556004
396,3967791336,0.315246,-0.747620,-0.327549,-0.484146,0.708537,0.026990,0.339237
397,3967824670,0.314359,-0.746626,-0.328467,-0.485632,0.151173,-0.012124,0.082576
398,3967858004,0.312673,-0.746147,-0.328663,-0.487321,-0.659720,0.156529,0.221691
399,3967891338,0.311016,-0.745850,-0.328683,-0.488819,-0.966691,-0.058637,0.045905
400,3967924672,0.309202,-0.745687,-0.328131,-0.490587,-0.383168,-0.339699,0.053000
401,3967958006,0.306191,-0.746027,-0.326006,-0.493368,0.245855,-0.281994,-0.043550
402,3967991340,0.301894,-0.747476,-0.322691,-0.495995,-0.547672,-0.580278,0.464749
403,3968024674,0.295907,-0.751445,-0.317399,-0.497018,-1.662554,-0.203452,0.037678
404,3968058008,0.290469,-0.755142,-0.312503,-0.497726,-1.168541,0.145295,0.022636
405,3968091342,0.285962,-0.758309,-0.307606,-0.498571,-0.172415,-0.044727,0.058047
406,3968124676,0.280217,-0.761811,-0.300508,-0.500817,0.648381,-0.362802,0.147288
407,3968158010,0.272590,-0.765337,-0.291164,-0.505152,1.073132,-0.158774,0.436315
408,3968191344,0.264165,-0.767884,-0.280860,-0.511555,0.863357,0.156454,0.601518
409,3968224678,0.255658,-0.769561,-0.269987,-0.519156,0.485936,0.011392,0.342580
410,3968258012,0.246708,-0.771000,-0.258246,-0.527260,-0.087644,-0.345085,0.171586
411,3968291346,0.237170,-0.772504,-0.245858,-0.535295,-0.417694,-0.083562,0.001714
412,3968324680,0.228323,-0.773862,-0.234516,-0.542226,-0.816757,0.340393,0.316551
413,3968358014,0.221464,-0.774163,-0.225474,-0.548441,-0.720542,0.333628,0.157812
414,3968391348,0.216172,-0.773803,-0.218203,-0.553973,-0.876423,0.222057,-0.058064
415,3968424682,0.211389,-0.773715,-0.211992,-0.558337,-0.973799,0.016034,-0.072879
416,3968458016,0.206347,-0.774845,-0.205383,-0.561119,-1.477628,0.302524,0.039133
417,3968491350,0.201761,-0.776631,-0.198441,-0.562813,-1.306753,0.580464,-0.029270
418,3968524684,0.197718,-0.778607,-0.191520,-0.563915,-0.933886,0.731028,-0.076867
419,3968558018,0.194072,-0.780277,-0.184624,-0.565171,-0.378749,0.868533,0.049362
420,3968591352,0.190954,-0.781498,-0.177957,-0.566682,-0.158650,0.778131,0.337564
421,3968624686,0.188612,-0.782064,-0.172072,-0.568500,0.187361,0.560274,0.252539
422,3968658020,0.186833,-0.782046,-0.167376,-0.570511,0.124929,0.429849,0.199271
423,3968691354,0.185908,-0.781841,-0.164392,-0.571961,-0.081127,0.337833,0.213645
424,3968724688,0.186352,-0.781483,-0.163515,-0.572556,-0.276277,0.262581,0.196658
425,3968758022,0.187892,-0.780920,-0.164386,-0.572572,0.044179,0.211448,0.244092
426,3968791356,0.190309,-0.780097,-0.166488,-0.572288,0.242343,0.099791,0.222617
427,3968824690,0.193304,-0.779194,-0.169560,-0.571611,0.190730,-0.016271,0.193507
428,3968858024,0.197008,-0.778315,-0.174362,-0.570098,-0.096217,0.311255,0.204493
429,3968891358,0.202027,-0.777240,-0.181544,-0.567561,-0.481130,0.513091,0.073809
430,3968924692,0.208298,-0.776264,-0.190856,-0.563561,-0.761849,0.430834,0.008965
431,3968958026,0.215128,-0.775410,-0.201243,-0.558534,-0.550163,0.330172,-0.053051
432,3968991360,0.221870,-0.775134,-0.211484,-0.552463,-0.573317,0.488426,0.196752
433,3969024694,0.228434,-0.775216,-0.221445,-0.545731,-0.861436,0.511615,0.232008
434,3969058028,0.235461,-0.774833,-0.232122,-0.538806,-0.608077,0.513502,0.191818
435,3969091362,0.243070,-0.773323,-0.243697,-0.532448,-0.032910,0.421744,0.384324
436,3969124696,0.250577,-0.770754,-0.255259,-0.527251,0.063349,0.513251,0.254022
437,3969158030,0.258020,-0.767585,-0.267001,-0.522448,-0.625952,0.902106,0.191384
438,3969191364,0.267010,-0.763062,-0.280442,-0.517489,-1.161026,0.707970,0.246691
439,3969224698,0.276656,-0.757711,-0.294968,-0.512183,-0.887323,-0.370149,-0.214024
440,3969258032,0.284092,-0.753574,-0.307677,-0.506709,-0.535893,-0.074444,0.173274
441,3969291366,0.289832,-0.750531,-0.318234,-0.501427,-0.943513,0.390276,0.108562
442,3969324700,0.295062,-0.747288,-0.328490,-0.496583,-0.938951,0.112358,0.016255
443,3969358034,0.298799,-0.744346,-0.338264,-0.492186,-0.283652,0.185104,0.099966
444,3969391368,0.300037,-0.742506,-0.345926,-0.488876,-0.288722,0.819139,0.269278
445,3969424702,0.299828,-0.740906,-0.351898,-0.487165,-0.060069,0.599208,0.187391
446,3969458036,0.297724,-0.739758,-0.356114,-0.487138,0.063928,0.164727,-0.074605
447,3969491370,0.293101,-0.740065,-0.358369,-0.487820,-0.664698,0.742611,0.112518
448,3969524704,0.288352,-0.740505,-0.360587,-0.488348,-1.485208,0.901308,-0.112478
449,3969558038,0.284325,-0.740726,-0.364165,-0.487717,-1.505925,0.683119,-0.135032
450,3969591372,0.280144,-0.741135,-0.367933,-0.486686,-0.633046,0.202557,-0.115817
451,3969624706,0.274340,-0.742585,-0.370448,-0.485875,-0.569468,0.052826,0.181173
452,3969658040,0.267091,-0.744791,-0.370992,-0.486121,-0.541735,-0.010066,0.045717
453,3969691374,0.259249,-0.746530,-0.371017,-0.487678,-0.396039,0.200908,0.119345
454,3969724708,0.251368,-0.747055,-0.370890,-0.491085,-0.209520,0.309925,0.288378
455,3969758042,0.243296,-0.746074,-0.370850,-0.496639,0.009992,0.052744,0.291326
456,3969791376,0.234623,-0.744334,-0.370871,-0.503363,-0.208883,-0.631248,0.322887
457,3969824710,0.224539,-0.742708,-0.370043,-0.510916,-0.574099,-0.583528,0.191996
458,3969858044,0.213658,-0.740865,-0.368298,-0.519449,-0.609352,-0.339749,0.220266
459,3969891378,0.202432,-0.738535,-0.366278,-0.528610,-0.630236,-0.282660,0.507367
460,3969924712,0.191926,-0.735472,-0.364228,-0.538130,-0.496270,-0.368286,0.334297
461,3969958046,0.182027,-0.731506,-0.362203,-0.548248,-0.378211,-0.104635,0.288971
462,3969991380,0.173909,-0.726587,-0.361729,-0.557656,-0.826300,0.023410,0.998172
463,3970024714,0.168785,-0.721365,-0.360690,-0.566610,-1.220864,0.466291,0.188320
464,3970058048,0.164936,-0.717788,-0.359253,-0.573162,-1.247033,0.253484,0.038577
465,3970091382,0.162921,-0.714912,-0.359694,-0.577043,-1.195616,-0.444803,0.285778
466,3970124716,0.162162,-0.712797,-0.361851,-0.578523,-1.240671,-0.815206,0.272306
467,3970158050,0.161874,-0.711439,-0.364795,-0.578426,-0.819438,-0.581174,0.116733
468,3970191384,0.160760,-0.711209,-0.366912,-0.577680,-0.449598,-0.197594,-0.040746
469,3970224718,0.159589,-0.711658,-0.367851,-0.576854,-0.237961,-0.044322,0.041584
470,3970258052,0.159589,-0.711949,-0.368643,-0.575988,-0.434798,-0.112109,-0.046032
471,3970291386,0.160038,-0.711589,-0.369552,-0.575727,-0.455773,-0.182460,-0.096624
472,3970324720,0.160506,-0.710948,-0.371311,-0.575256,-0.411098,-0.193577,-0.051490
473,3970358054,0.161004,-0.710189,-0.373807,-0.574437,-0.510559,-0.334876,0.025116
474,3970391388,0.161067,-0.709409,-0.376079,-0.573901,-0.565056,-0.403911,0.131692
475,3970424722,0.160709,-0.708464,-0.378308,-0.573703,-0.575223,-0.344180,0.213987
476,3970458056,0.158787,-0.707980,-0.379399,-0.574115,-0.902549,-0.453709,0.273994
477,3970491390,0.156819,-0.707885,-0.379090,-0.574977,-0.592232,-0.044988,0.108849
478,3970524724,0.154804,-0.708743,-0.378439,-0.574894,-0.645279,0.215644,0.000249
479,3970558058,0.152493,-0.710299,-0.376643,-0.574771,-0.828814,0.177652,0.019633
480,3970591392,0.150667,-0.712254,-0.374313,-0.574356,-0.666319,0.233357,0.082078
481,3970624726,0.149661,-0.713757,-0.372180,-0.574139,-0.439350,0.055306,0.057771
482,3970658060,0.148736,-0.714824,-0.369799,-0.574590,-0.380368,-0.099264,0.036016
483,3970691394,0.147201,-0.715662,-0.366707,-0.575922,-0.447967,-0.204194,0.157242
484,3970724728,0.144764,-0.716671,-0.362355,-0.578036,-0.663506,-0.324145,0.287174
485,3970758062,0.141278,-0.718178,-0.356655,-0.580567,-0.917912,-0.247343,0.262794
486,3970791396,0.137432,-0.719981,-0.350534,-0.582980,-0.765679,-0.234167,0.162778
487,3970824730,0.133221,-0.721970,-0.343592,-0.585626,-0.638942,-0.158584,0.043879
488,3970858064,0.129181,-0.724013,-0.335901,-0.588463,-0.588346,-0.064202,0.135440
489,3970891398,0.124854,-0.726116,-0.326804,-0.591917,-0.489316,-0.284685,0.103455
490,3970924732,0.120194,-0.728277,-0.317062,-0.595515,-0.702824,-0.149100,0.103511
491,3970958066,0.116113,-0.730163,-0.307953,-0.598786,-0.907057,-0.244877,0.311902
492,3970991400,0.112614,-0.731900,-0.299682,-0.601524,-0.877320,-0.565105,0.487857
1,3985434828,0.024335,-0.786101,-0.276538,-0.552257,0.274589,3.893001,-0.698570
2,3985451495,0.025929,-0.786513,-0.277053,-0.551339,0.248471,3.817361,-0.692910
3,3985484829,0.030217,-0.787606,-0.277078,-0.549545,0.292584,3.769176,-0.638416
4,3985518163,0.036098,-0.789058,-0.278993,-0.546128,0.304258,3.668231,-0.385535
5,3985551497,0.043210,-0.790585,-0.282880,-0.541384,0.001568,3.470186,-0.617939
6,3985584831,0.051161,-0.792224,-0.288030,-0.535546,0.300893,3.543216,-0.507134
7,3985618165,0.059958,-0.793666,-0.294474,-0.528953,0.138494,3.644097,-0.393104
8,3985651499,0.070030,-0.794595,-0.302753,-0.521596,-0.035986,3.737382,-0.697866
9,3985684833,0.081532,-0.795302,-0.312725,-0.512892,-0.395116,4.008790,-0.534178
10,3985718167,0.095124,-0.794908,-0.324791,-0.503579,-0.177302,3.634377,-0.386317
11,3985751501,0.108656,-0.793982,-0.336795,-0.494331,0.002376,3.392123,-0.463144
12,3985784835,0.121018,-0.793282,-0.347821,-0.484858,0.000334,3.310063,-0.521210
13,3985818169,0.132484,-0.792433,-0.358332,-0.475504,-0.031294,3.395799,-0.458530
14,3985851503,0.143689,-0.791342,-0.368431,-0.466259,-0.070187,3.418817,-0.310237
15,3985884837,0.153706,-0.790351,-0.377249,-0.457614,0.062464,3.214349,-0.516250
16,3985918171,0.161986,-0.790093,-0.384544,-0.449051,0.032568,3.264217,-0.595774
17,3985951505,0.169653,-0.790041,-0.391362,-0.440336,-0.005458,3.452395,-0.367792
18,3985984839,0.177313,-0.789799,-0.398269,-0.431470,0.119507,3.468272,-0.392550
19,3986018173,0.184382,-0.789434,-0.404834,-0.422983,0.379439,3.270278,-0.385050
20,3986051507,0.189919,-0.789298,-0.410260,-0.415493,0.776487,3.184116,-0.430674
21,3986084841,0.193271,-0.789855,-0.413965,-0.409165,0.770850,3.442926,-0.412457
22,3986118175,0.195324,-0.790393,-0.416666,-0.404382,1.143754,3.440856,-0.412085
23,3986151509,0.195909,-0.790883,-0.418310,-0.401433,1.166880,3.540602,-0.343374
24,3986184843,0.194886,-0.791260,-0.418650,-0.400834,1.215169,3.684554,-0.504045
25,3986218177,0.192655,-0.791609,-0.418099,-0.401797,0.796548,3.514792,-0.327085
26,3986251511,0.188589,-0.792382,-0.416102,-0.404266,0.366870,3.129866,-0.319611
27,3986284845,0.182544,-0.793949,-0.412188,-0.407961,-0.008204,3.179852,-0.385330
28,3986318179,0.175031,-0.795751,-0.406616,-0.413300,0.131265,3.214772,-0.209601
29,3986351513,0.166199,-0.797754,-0.399360,-0.420102,0.105483,3.323427,-0.362012
30,3986384847,0.156220,-0.799771,-0.390825,-0.428048,0.153373,3.231865,-0.335149
31,3986418181,0.144978,-0.801646,-0.381179,-0.437099,0.389221,3.041318,-0.336088
32,3986451515,0.132159,-0.803873,-0.369996,-0.446580,-0.193201,3.562682,-0.361691
33,3986484849,0.120205,-0.805449,-0.359405,-0.455674,-0.223876,3.347812,-0.364596
34,3986518183,0.109009,-0.806499,-0.349719,-0.464091,0.008551,3.037496,-0.438829
35,3986551517,0.097072,-0.807609,-0.339328,-0.472450,0.052810,3.412855,-0.426317
36,3986584851,0.085427,-0.808636,-0.328923,-0.480236,-0.057577,3.697391,-0.567633
37,3986618185,0.075723,-0.809382,-0.320087,-0.486537,-0.223027,3.605304,-0.572122
38,3986651519,0.067137,-0.810190,-0.312183,-0.491563,-0.269801,3.787859,-0.592306
39,3986684853,0.060283,-0.811387,-0.305395,-0.494731,-0.147545,3.956882,-0.641995
40,3986718187,0.055406,-0.812888,-0.300243,-0.495989,0.174515,3.707316,-0.654845
41,3986751521,0.052328,-0.814253,-0.296950,-0.496067,0.516887,3.944050,-0.602654
42,3986784855,0.052592,-0.814883,-0.297171,-0.494870,0.379923,4.232361,-0.564888
43,3986818189,0.057165,-0.814790,-0.301765,-0.491726,0.084057,3.774150,-0.571137
44,3986851523,0.063818,-0.814566,-0.308541,-0.487051,0.226776,3.530974,-0.487101
45,3986884857,0.070549,-0.814476,-0.315344,-0.481890,0.643756,3.699092,-0.626892
46,3986918191,0.077802,-0.813946,-0.322646,-0.476809,0.788993,3.438620,-0.186967
47,3986951525,0.084272,-0.813428,-0.329196,-0.472092,0.503412,3.202649,-0.682972
48,3986984859,0.089656,-0.812785,-0.335308,-0.467887,0.504023,3.559198,-0.238249
49,3987018193,0.094648,-0.811754,-0.340670,-0.464812,0.487248,3.087614,-0.289672
50,3987051527,0.097422,-0.811493,-0.343306,-0.462749,0.081889,2.909611,-0.431008
51,3987084861,0.097879,-0.811936,-0.343542,-0.461699,-0.051330,3.516231,-0.428937
52,3987118195,0.097734,-0.812149,-0.343003,-0.461756,0.004252,3.467391,-0.344181
53,3987151529,0.097513,-0.812145,-0.342076,-0.462498,-0.024323,3.159225,-0.368807
54,3987184863,0.095933,-0.812345,-0.339720,-0.464210,0.024864,3.229181,-0.168092
55,3987218197,0.092511,-0.813188,-0.335016,-0.466840,-0.004497,2.912220,-0.455103
56,3987251531,0.087142,-0.814765,-0.327861,-0.470192,-0.092475,3.318577,-0.535580
57,3987284865,0.081541,-0.815980,-0.320307,-0.474277,0.289816,3.508556,-0.379951
58,3987318199,0.076460,-0.816475,-0.313301,-0.478928,0.443792,3.436348,-0.320828
59,3987351533,0.071660,-0.816424,-0.306426,-0.484178,0.659398,3.569283,-0.313921
60,3987384867,0.066459,-0.815751,-0.299210,-0.490525,0.712818,3.314704,-0.338289
61,3987418201,0.060784,-0.815102,-0.291517,-0.496930,0.153762,3.438840,-0.563211
62,3987451535,0.055388,-0.814317,-0.283987,-0.503170,-0.072291,3.960951,-0.557475
63,3987484869,0.051371,-0.813334,-0.277540,-0.508752,0.069978,3.759971,-0.644640
64,3987518203,0.048599,-0.812757,-0.272502,-0.512655,-0.333190,4.018324,-0.756690
65,3987551537,0.047490,-0.812518,-0.269153,-0.514902,-0.074917,4.309122,-0.789976
66,3987584871,0.048010,-0.812805,-0.267285,-0.515373,0.384241,4.237116,-0.754812
67,3987618205,0.049677,-0.813295,-0.266921,-0.514631,0.784274,3.545825,-0.507504
68,3987651539,0.052094,-0.813394,-0.267937,-0.513706,1.011033,3.581485,-0.385098
69,3987684873,0.055779,-0.813003,-0.270917,-0.512373,1.070184,3.858921,-0.492343
70,3987718207,0.060947,-0.812436,-0.275733,-0.510110,0.613916,3.813969,-0.581005
71,3987751541,0.066765,-0.811819,-0.281315,-0.507308,0.464563,3.541729,-0.483518
72,3987784875,0.073151,-0.811144,-0.287730,-0.503898,0.182639,3.470095,-0.422747
73,3987818209,0.079871,-0.810426,-0.294777,-0.499945,0.160281,3.623505,-0.612068
74,3987851543,0.087240,-0.809548,-0.302400,-0.495563,0.315054,3.870872,-0.482539
75,3987884877,0.095338,-0.808475,-0.310843,-0.490575,-0.216061,3.645241,-0.500403
76,3987918211,0.103528,-0.807760,-0.319272,-0.484644,-0.835144,3.794579,-0.716774
77,3987951545,0.112349,-0.807236,-0.328485,-0.477339,-0.967027,3.876414,-0.668797
78,3987984879,0.121421,-0.806675,-0.337472,-0.469738,-0.367286,3.518886,-0.572065
79,3988018213,0.129677,-0.805993,-0.345133,-0.463087,0.059142,3.627784,-0.491540
80,3988051547,0.137483,-0.804758,-0.352575,-0.457342,0.195493,3.662105,-0.560053
81,3988084881,0.144891,-0.803071,-0.359919,-0.452272,0.076758,3.910985,-0.475595
82,3988118215,0.152211,-0.800804,-0.367550,-0.447728,-0.035225,3.934546,-0.490344
83,3988151549,0.159603,-0.798206,-0.375402,-0.443255,-0.332285,3.797274,-0.537565
84,3988184883,0.166807,-0.795660,-0.383576,-0.438153,-0.724311,3.501002,-0.604972
85,3988218217,0.173846,-0.793372,-0.391967,-0.432098,-0.677897,3.541706,-0.431585
86,3988251551,0.180745,-0.791396,-0.400054,-0.425427,-0.414750,3.423522,-0.434606
87,3988284885,0.186173,-0.790079,-0.406864,-0.419026,0.083319,3.156317,-0.787812
88,3988318219,0.189447,-0.789748,-0.412118,-0.413008,0.444029,3.767133,-0.537867
89,3988351553,0.191626,-0.789251,-0.416602,-0.408427,0.935572,3.885063,-0.501483
90,3988384887,0.192754,-0.788388,-0.420673,-0.405379,0.841978,3.725832,-0.517328
91,3988418221,0.192245,-0.787698,-0.423758,-0.403746,0.388639,3.531427,-0.577704
92,3988451555,0.190278,-0.787514,-0.425705,-0.402987,0.088387,3.205131,-0.819071
93,3988484889,0.187087,-0.787767,-0.426718,-0.402916,0.140810,4.108386,-0.644262
94,3988518223,0.184090,-0.787968,-0.427795,-0.402761,0.080233,4.074912,-0.460316
95,3988551557,0.180601,-0.788198,-0.428541,-0.403099,0.316139,3.622806,-0.322851
96,3988584891,0.176708,-0.787983,-0.428749,-0.405017,1.073739,3.763489,-0.457086
97,3988618225,0.171872,-0.787283,-0.428563,-0.408641,0.784069,3.634882,-0.337005
98,3988651559,0.165427,-0.787387,-0.427659,-0.412033,-0.220097,3.210939,-0.429487
99,3988684893,0.158147,-0.787825,-0.426524,-0.415218,-0.533518,3.516208,-0.610056
100,3988718227,0.151324,-0.788258,-0.425497,-0.417984,-0.324090,3.699790,-0.730690
101,3988751561,0.144514,-0.788918,-0.424579,-0.420078,-0.266887,3.839119,-0.581673
102,3988784895,0.138797,-0.789279,-0.424868,-0.421033,-0.181911,3.706408,-0.437821
103,3988818229,0.133548,-0.789629,-0.425740,-0.421194,-0.097161,3.475408,-0.615575
104,3988851563,0.127727,-0.790089,-0.426513,-0.421354,-0.084748,3.638756,-0.637440
105,3988884897,0.122369,-0.790313,-0.427907,-0.421110,-0.035896,3.824460,-0.412842
106,3988918231,0.118107,-0.789846,-0.430501,-0.420560,0.066929,3.507951,-0.734489
107,3988951565,0.114194,-0.789032,-0.434076,-0.419492,0.255068,3.875336,-0.871477
108,3988984899,0.110737,-0.787919,-0.438257,-0.418163,0.126765,4.282271,-0.561060
109,3989018233,0.108945,-0.785686,-0.443441,-0.417368,0.209252,4.143861,-0.348083
110,3989051567,0.107970,-0.782174,-0.448995,-0.418279,0.801208,3.455413,-0.361723
111,3989084901,0.105498,-0.778363,-0.453503,-0.421145,1.150026,3.161782,-0.591965
112,3989118235,0.101840,-0.775141,-0.457199,-0.423984,0.517861,3.553886,-0.168480
113,3989151569,0.098052,-0.771852,-0.460038,-0.427789,-0.086721,3.677245,-0.311699
114,3989184903,0.093950,-0.767912,-0.463171,-0.432394,0.210581,3.210241,-0.440020
115,3989218237,0.091109,-0.763801,-0.467792,-0.435300,0.079210,3.051718,-0.162690
116,3989251571,0.089540,-0.760344,-0.472050,-0.437076,-0.112130,3.098541,-0.264687
117,3989284905,0.087777,-0.758179,-0.475560,-0.437391,-0.393532,2.915764,-0.312737
118,3989318239,0.085074,-0.757409,-0.477648,-0.436983,-0.455976,3.030003,-0.418738
119,3989351573,0.083027,-0.757237,-0.480054,-0.435034,-0.534531,3.235659,-0.005836
120,3989384907,0.082102,-0.756685,-0.482675,-0.433267,-0.002761,2.990879,-0.082110
121,3989418241,0.081239,-0.755954,-0.484671,-0.432477,0.778717,3.122636,-0.479663
122,3989451575,0.079891,-0.755632,-0.485831,-0.431988,0.667056,3.285558,-0.232116
123,3989484909,0.078685,-0.754916,-0.486809,-0.432360,0.435732,3.190394,-0.176809
124,3989518243,0.076923,-0.754106,-0.486924,-0.433959,0.282479,3.050584,-0.243580
125,3989551577,0.074680,-0.753379,-0.486345,-0.436256,0.201601,3.021894,-0.298079
126,3989584911,0.072607,-0.752794,-0.485244,-0.438834,-0.044518,3.023463,-0.425410
127,3989618245,0.070111,-0.752297,-0.483277,-0.442249,-0.301623,3.052329,-0.421096
128,3989651579,0.067995,-0.751823,-0.480992,-0.445862,-0.279222,3.058237,-0.347232
129,3989684913,0.065667,-0.751735,-0.477900,-0.449669,-0.273104,3.137866,-0.376260
130,3989718247,0.062649,-0.752075,-0.473679,-0.453975,-0.099751,3.200220,-0.271486
131,3989751581,0.059107,-0.752769,-0.468582,-0.458568,0.168159,3.316095,-0.191609
132,3989784915,0.055609,-0.753444,-0.462893,-0.463645,0.166776,3.488446,-0.227115
133,3989818249,0.052469,-0.753803,-0.457022,-0.469219,0.209754,2.963551,-0.261801
134,3989851583,0.049326,-0.754078,-0.450946,-0.474962,0.191968,3.020821,-0.407438
135,3989884917,0.046374,-0.754285,-0.445419,-0.480118,-0.216771,2.962203,-0.169384
136,3989918251,0.044517,-0.753641,-0.441711,-0.484709,-0.248068,2.885950,-0.550117
137,3989951585,0.043049,-0.752950,-0.439102,-0.488273,-0.412056,2.932348,-0.480341
138,3989984919,0.042282,-0.752799,-0.435824,-0.491499,-0.653305,3.512003,-0.426163
139,3990018253,0.041563,-0.753028,-0.431034,-0.495417,-0.213761,3.469595,-0.488237
140,3990051587,0.039766,-0.753987,-0.423773,-0.500347,0.341513,2.980531,-0.437571
141,3990084921,0.036089,-0.755903,-0.414309,-0.505632,0.433251,3.078069,-0.058700
142,3990118255,0.032653,-0.757794,-0.404617,-0.510857,0.426152,3.534412,0.167614
143,3990151589,0.030168,-0.759647,-0.395348,-0.515495,0.689508,3.540069,-0.268237
144,3990184923,0.028641,-0.761450,-0.387064,-0.519195,0.580177,3.329274,-0.506580
145,3990218257,0.027482,-0.763310,-0.379242,-0.522290,0.493197,3.547498,-0.395813
146,3990251591,0.027655,-0.765202,-0.372554,-0.524322,0.221177,3.518159,-0.135221
147,3990284925,0.027312,-0.767215,-0.365004,-0.526703,0.217742,3.108154,-0.543883
148,3990318259,0.027154,-0.769932,-0.357783,-0.527700,-0.076569,3.805197,-0.737322
149,3990351593,0.028768,-0.772099,-0.352663,-0.527894,-0.407033,3.732147,-0.539323
150,3990384927,0.031229,-0.773517,-0.348270,-0.528594,-0.030885,3.423007,-0.813145
151,3990418261,0.034263,-0.775139,-0.343842,-0.528930,-0.326747,3.838383,-0.744529
152,3990451595,0.038219,-0.776283,-0.339900,-0.529528,-0.362870,4.061294,-0.783995
153,3990484929,0.043234,-0.777069,-0.337344,-0.529624,-0.363184,3.959348,-0.751554
154,3990518263,0.048317,-0.777975,-0.335278,-0.529166,0.079441,3.633455,-0.591290
155,3990551597,0.053149,-0.779050,-0.332900,-0.528623,0.169536,4.167636,-0.616637
156,3990584931,0.058093,-0.779721,-0.331459,-0.528018,0.221297,3.908041,-0.643808
157,3990618265,0.063580,-0.780320,-0.331229,-0.526644,0.302255,3.759092,-0.570866
158,3990651599,0.068911,-0.781050,-0.331293,-0.524848,0.478745,3.817869,-0.519710
159,3990684933,0.074748,-0.781635,-0.332639,-0.522320,0.407530,3.745647,-0.509204
160,3990718267,0.081900,-0.781578,-0.336081,-0.519121,0.400668,3.866571,-0.589128
161,3990751601,0.089645,-0.781122,-0.340844,-0.515408,0.333184,3.764773,-0.621563
162,3990784935,0.097692,-0.780962,-0.345691,-0.510942,-0.065402,3.823690,-0.695699
163,3990818269,0.106321,-0.781175,-0.351439,-0.504936,-0.776163,3.972962,-0.643585
164,3990851603,0.116134,-0.781161,-0.358932,-0.497469,-0.892317,3.834115,-0.723163
165,3990884937,0.128135,-0.780435,-0.368613,-0.488502,-0.647344,3.894054,-0.434834
166,3990918271,0.140865,-0.778655,-0.379155,-0.479690,-0.327893,3.615087,-0.477872
167,3990951605,0.152865,-0.776812,-0.389348,-0.470756,-0.313660,3.456271,-0.620668
168,3990984939,0.164031,-0.775276,-0.398915,-0.461428,-0.700167,3.768416,-0.536116
169,3991018273,0.174866,-0.773521,-0.408052,-0.452316,-0.622223,3.496454,-0.447623
170,3991051607,0.185242,-0.771752,-0.416385,-0.443525,-0.377453,3.138577,-0.432480
171,3991084941,0.193867,-0.770589,-0.423272,-0.435266,0.103074,3.161587,-0.373683
172,3991118275,0.200332,-0.770269,-0.428444,-0.427780,0.447381,3.222789,-0.282640
173,3991151609,0.204883,-0.770110,-0.432289,-0.422004,1.010670,3.732571,-0.503175
174,3991184943,0.207665,-0.769984,-0.434572,-0.418515,0.902245,3.708114,-0.347157
175,3991218277,0.209656,-0.769802,-0.436386,-0.415962,0.791577,3.652461,-0.437706
176,3991251611,0.210719,-0.769583,-0.437735,-0.414409,0.999323,3.710244,-0.448893
177,3991284945,0.211261,-0.769057,-0.438485,-0.414316,0.674736,4.106132,-0.549875
178,3991318279,0.210700,-0.768566,-0.438399,-0.415603,0.751284,3.441687,-0.308216
179,3991351613,0.209485,-0.767861,-0.438090,-0.417839,0.093481,3.069261,-0.331400
180,3991384947,0.207052,-0.767816,-0.436554,-0.420734,-0.110650,3.286015,-0.524516
181,3991418281,0.203357,-0.768377,-0.433787,-0.424359,-0.778774,3.245883,-0.374921
182,3991451615,0.198823,-0.769388,-0.430559,-0.427946,-0.788686,2.975698,-0.485600
183,3991484949,0.193453,-0.771180,-0.426860,-0.430879,-0.990402,2.985868,-0.388780
184,3991518283,0.187696,-0.773528,-0.422674,-0.433335,-1.000265,3.505111,-0.437325
185,3991551617,0.182417,-0.775782,-0.418666,-0.435445,-0.715975,3.477531,-0.446067
186,3991584951,0.177294,-0.777636,-0.414960,-0.437796,-0.456572,3.328360,-0.433194
187,3991618285,0.171897,-0.779458,-0.411322,-0.440134,-0.162892,3.376176,-0.390368
188,3991651619,0.166418,-0.780890,-0.407676,-0.443084,-0.110051,3.525033,-0.401069
189,3991684953,0.161116,-0.781812,-0.404162,-0.446623,0.026073,3.453750,-0.425694
190,3991718287,0.155774,-0.782451,-0.400735,-0.450472,-0.067566,3.582500,-0.488606
191,3991751621,0.150393,-0.782827,-0.397779,-0.454251,-0.040900,3.433563,-0.471653
192,3991784955,0.144687,-0.783457,-0.394641,-0.457742,-0.006507,3.539793,-0.530624
193,3991818289,0.138655,-0.784142,-0.391353,-0.461245,-0.042010,3.625736,-0.543280
194,3991851623,0.132866,-0.784706,-0.388576,-0.464327,0.093878,3.612017,-0.617908
195,3991884957,0.127647,-0.785315,-0.386648,-0.466368,-0.094562,3.717916,-0.490564
196,3991918291,0.123139,-0.785888,-0.385802,-0.467313,-0.193588,3.847024,-0.719927
197,3991951625,0.120334,-0.786619,-0.386897,-0.465906,-0.741046,4.034008,-0.792836
198,3991984959,0.120005,-0.786973,-0.391027,-0.461930,-0.660291,3.576326,-0.650780
199,3992018293,0.121162,-0.787030,-0.396981,-0.456418,-0.037088,3.243572,-0.326503
200,3992051627,0.122842,-0.786671,-0.403412,-0.450917,0.664909,3.093347,-0.330613
201,3992084961,0.123497,-0.786258,-0.409100,-0.446309,0.828953,2.798442,-0.131511
202,3992118295,0.121980,-0.786662,-0.412737,-0.442651,0.344043,3.142102,-0.429302
203,3992151629,0.118732,-0.787906,-0.415023,-0.439171,-0.509387,3.393620,-0.487222
204,3992184963,0.115135,-0.789078,-0.416781,-0.436349,-0.483963,3.523558,-0.305304
205,3992218297,0.112632,-0.789158,-0.418520,-0.435192,-0.380865,3.516531,-0.329460
206,3992251631,0.110673,-0.788292,-0.420163,-0.435681,-0.061697,3.157653,-0.298970
207,3992284965,0.108073,-0.787010,-0.420769,-0.438060,0.467205,2.859689,-0.143297
208,3992318299,0.103701,-0.785930,-0.419657,-0.442104,0.550736,2.674031,-0.118457
209,3992351633,0.097357,-0.785304,-0.416550,-0.447564,0.393727,2.913239,-0.152469
210,3992384967,0.090868,-0.784459,-0.412678,-0.453950,0.250307,3.130665,-0.187466
211,3992418301,0.084687,-0.783557,-0.408645,-0.460308,0.086150,3.042992,-0.182113
212,3992451635,0.078613,-0.782649,-0.404380,-0.466653,0.066168,3.059556,-0.161488
213,3992484969,0.073260,-0.781480,-0.400296,-0.472962,0.195201,2.933735,-0.150899
214,3992518303,0.068185,-0.780569,-0.396134,-0.478695,0.167671,2.836225,-0.191010
215,3992551637,0.062889,-0.779923,-0.391483,-0.484266,0.116628,2.875629,-0.225414
216,3992584971,0.057669,-0.779173,-0.386689,-0.489942,0.111010,3.021209,-0.220357
217,3992618305,0.052717,-0.778670,-0.381928,-0.495009,0.005486,2.868774,-0.030361
218,3992651639,0.047803,-0.778739,-0.376766,-0.499335,-0.166238,2.870348,-0.191427
219,3992684973,0.043306,-0.778612,-0.371615,-0.503783,-0.082547,3.044828,-0.399354
220,3992718307,0.039452,-0.778157,-0.366795,-0.508316,0.088692,3.002838,-0.370128
221,3992751641,0.036039,-0.778221,-0.362219,-0.511740,-0.197767,2.853720,0.015825
222,3992784975,0.032538,-0.778753,-0.357435,-0.514523,-0.243761,2.965156,-0.206059
223,3992818309,0.029253,-0.779032,-0.352431,-0.517740,0.204065,2.906738,-0.722102
224,3992851643,0.026218,-0.779648,-0.347346,-0.520404,0.164541,2.814430,-0.169988
225,3992884977,0.023241,-0.781045,-0.341812,-0.522112,-0.026963,3.184376,-0.500488
226,3992918311,0.021714,-0.782647,-0.336793,-0.523040,0.205117,3.432598,-0.562051
227,3992951645,0.021403,-0.784040,-0.333396,-0.523143,0.399951,3.073792,-0.474483
228,3992984979,0.023120,-0.785577,-0.331978,-0.521663,-0.040423,2.971056,-0.070489
229,3993018313,0.025812,-0.787176,-0.330969,-0.519765,-0.116160,2.954415,-0.317679
230,3993051647,0.028221,-0.789010,-0.329428,-0.517834,-0.153120,2.780845,-0.146859
231,3993084981,0.030415,-0.790756,-0.327180,-0.516469,-0.049513,2.705457,0.072551
232,3993118315,0.032640,-0.791999,-0.324181,-0.516320,0.006426,2.762204,-0.036526
233,3993151649,0.034461,-0.793164,-0.320362,-0.516797,-0.087800,2.885651,-0.228325
234,3993184983,0.036811,-0.794292,-0.316754,-0.517126,-0.362423,2.943603,-0.357487
235,3993218317,0.039071,-0.795558,-0.312935,-0.517339,-0.258985,2.967283,-0.329774
236,3993251651,0.041543,-0.797220,-0.308640,-0.517168,-0.294985,3.475329,-0.504963
237,3993284985,0.045511,-0.798836,-0.305808,-0.516022,-0.323228,3.297112,-0.127020
238,3993318319,0.050348,-0.799994,-0.304737,-0.514410,0.165574,3.032602,-0.175226
239,3993351653,0.055468,-0.800878,-0.304361,-0.512727,0.491324,3.288731,-0.383611
240,3993384987,0.060397,-0.801645,-0.304098,-0.511127,0.617285,3.383495,-0.321196
241,3993418321,0.065765,-0.802281,-0.304933,-0.508963,0.260534,3.336015,-0.338616
242,3993451655,0.071817,-0.802586,-0.307449,-0.506143,0.044951,3.224950,-0.493207
243,3993484989,0.078194,-0.802824,-0.310997,-0.502641,-0.035843,3.394709,-0.458794
244,3993518323,0.084859,-0.803134,-0.315334,-0.498344,-0.260794,3.603499,-0.637083
245,3993551657,0.092266,-0.803172,-0.320556,-0.493613,-0.172067,3.562103,-0.527401
246,3993584991,0.100315,-0.802819,-0.327116,-0.488285,-0.311043,3.399489,-0.469558
247,3993618325,0.108661,-0.802423,-0.334601,-0.482038,-0.666042,3.553844,-0.596750
248,3993651659,0.117388,-0.801683,-0.342649,-0.475525,-0.339578,3.670321,-0.593918
249,3993684993,0.125998,-0.800591,-0.350585,-0.469336,0.001559,3.600701,-0.474632
250,3993718327,0.134023,-0.799129,-0.358102,-0.463899,-0.160646,3.276370,-0.380836
251,3993751661,0.141178,-0.797466,-0.365397,-0.458922,-0.234598,3.131499,-0.389882
252,3993784995,0.147498,-0.795787,-0.372322,-0.454259,-0.288290,3.400172,-0.431104
253,3993818329,0.153046,-0.794115,-0.378686,-0.450070,-0.495801,3.419255,-0.538114
254,3993851663,0.157889,-0.792863,-0.384438,-0.445706,-0.853496,3.191030,-0.342462
255,3993884997,0.162256,-0.791646,-0.390290,-0.441193,-0.551457,2.841752,-0.266066
256,3993918331,0.166302,-0.790608,-0.395930,-0.436497,-0.534325,2.767552,-0.198253
257,3993951665,0.169795,-0.789426,-0.401377,-0.432296,-0.104097,2.775038,-0.242044
258,3993984999,0.172126,-0.788553,-0.406323,-0.428330,-0.032271,2.825335,-0.320089
259,3994018333,0.173256,-0.788122,-0.410605,-0.424567,0.271339,3.348282,-0.411405
260,3994051667,0.173504,-0.787840,-0.413939,-0.421743,0.232321,3.718723,-0.731597
261,3994085001,0.173137,-0.787416,-0.417070,-0.419595,-0.116773,3.422124,-0.521058
262,3994118335,0.172174,-0.787164,-0.420340,-0.417194,-0.490639,3.374812,-0.419149
263,3994151669,0.170734,-0.787034,-0.423570,-0.414758,-0.456175,3.655224,-0.706527
264,3994185003,0.169113,-0.786631,-0.426737,-0.412934,-0.176581,3.494231,-0.654433
265,3994218337,0.166760,-0.786127,-0.429220,-0.412278,0.100087,3.123293,-0.250344
266,3994251671,0.163143,-0.785697,-0.430949,-0.412742,-0.014330,2.906443,-0.160277
267,3994285005,0.158453,-0.785288,-0.431813,-0.414440,-0.167696,2.876534,-0.261443
268,3994318339,0.152772,-0.784826,-0.431870,-0.417379,-0.017744,2.677543,-0.225579
269,3994351673,0.145749,-0.784709,-0.430651,-0.421350,-0.016992,2.775956,-0.222677
270,3994385007,0.137581,-0.784603,-0.428429,-0.426528,-0.001068,2.951834,-0.205285
271,3994418341,0.129193,-0.783991,-0.425996,-0.432669,0.214738,2.774671,-0.248094
272,3994451675,0.120656,-0.782773,-0.423600,-0.439636,0.310915,2.639102,-0.250882
273,3994485009,0.112172,-0.780715,-0.421263,-0.447713,0.233724,2.664744,0.094712
274,3994518343,0.104282,-0.777653,-0.418860,-0.457105,0.060852,2.360261,0.097017
275,3994551677,0.095996,-0.774426,-0.416015,-0.466893,-0.242962,2.378562,-0.012647
276,3994585011,0.088189,-0.771562,-0.413038,-0.475734,-0.259443,2.710686,0.078094
277,3994618345,0.082088,-0.769121,-0.410748,-0.482709,-0.445183,2.724241,0.098383
278,3994651679,0.078196,-0.767335,-0.410160,-0.486682,-0.607665,2.571450,-0.000194
279,3994685013,0.075241,-0.766380,-0.409944,-0.488829,-0.369667,2.575737,-0.075768
280,3994718347,0.072411,-0.766278,-0.409390,-0.489879,0.044772,2.555520,-0.241379
281,3994751681,0.070138,-0.766544,-0.409141,-0.490002,0.145966,2.630415,-0.267965
282,3994785015,0.069095,-0.766568,-0.409647,-0.489690,0.460793,2.661878,-0.359269
283,3994818349,0.069121,-0.766430,-0.411120,-0.488668,0.383070,2.696481,-0.226723
284,3994851683,0.070604,-0.765859,-0.414048,-0.486875,-0.006819,2.599676,0.035535
285,3994885017,0.072746,-0.764383,-0.417999,-0.485501,-0.079738,2.568859,0.099954
286,3994918351,0.074667,-0.762219,-0.422068,-0.485090,0.118689,2.484111,0.126069
287,3994951685,0.076014,-0.759917,-0.425775,-0.485254,0.257981,2.374739,-0.069531
288,3994985019,0.076902,-0.757052,-0.430024,-0.485846,-0.032624,2.237960,-0.326120
289,3995018353,0.079109,-0.754186,-0.434863,-0.485642,-0.280385,2.361345,-0.402617
290,3995051687,0.081490,-0.752076,-0.439233,-0.484585,-0.389005,2.591457,-0.440845
291,3995085021,0.082283,-0.751566,-0.441446,-0.483230,-0.654676,2.549521,-0.364241
292,3995118355,0.083023,-0.751851,-0.442004,-0.482149,-0.450340,2.643208,-0.280578
293,3995151689,0.083210,-0.752295,-0.441394,-0.481983,-0.092403,2.533273,-0.251983
294,3995185023,0.083661,-0.752655,-0.440657,-0.482017,0.033040,2.490710,-0.154778
295,3995218357,0.084176,-0.752949,-0.440587,-0.481532,0.006123,2.465102,0.026097
296,3995251691,0.085357,-0.752600,-0.441734,-0.480819,-0.232042,2.324878,0.043701
297,3995285025,0.087355,-0.751517,-0.444429,-0.479669,-0.146070,2.205423,-0.109138
298,3995318359,0.088803,-0.750361,-0.447324,-0.478520,-0.330597,2.200529,-0.060141
299,3995351693,0.090221,-0.749341,-0.449499,-0.477815,-0.439243,2.405132,-0.148495
300,3995385027,0.091579,-0.748801,-0.450597,-0.477369,-0.409802,2.411172,-0.216529
301,3995418361,0.092454,-0.748662,-0.450519,-0.477490,-0.195868,2.290141,-0.064479
302,3995451695,0.092486,-0.748868,-0.448788,-0.478789,0.012779,2.208508,-0.034317
303,3995485029,0.091553,-0.749514,-0.445399,-0.481118,0.097222,2.244612,-0.073463
304,3995518363,0.090336,-0.750316,-0.441084,-0.484064,-0.065761,2.390817,-0.006730
305,3995551697,0.088748,-0.751088,-0.435993,-0.487758,-0.019184,2.284988,-0.012828
306,3995585031,0.086641,-0.752050,-0.430029,-0.491933,0.037472,2.161404,-0.050268
307,3995618365,0.083563,-0.753434,-0.422889,-0.496516,0.014060,2.165267,-0.040441
308,3995651699,0.079773,-0.755096,-0.414831,-0.501387,-0.020951,2.216691,0.224298
309,3995685033,0.075720,-0.756861,-0.406232,-0.506371,0.026044,2.080751,0.192236
310,3995718367,0.071007,-0.758846,-0.396846,-0.511500,0.015506,2.072060,-0.028085
311,3995751701,0.065975,-0.761066,-0.386876,-0.516489,0.001206,2.297961,-0.098728
312,3995785035,0.060942,-0.763414,-0.376258,-0.521463,-0.215191,2.296235,-0.132366
313,3995818369,0.056338,-0.765814,-0.365639,-0.525995,-0.488622,2.427862,-0.025694
314,3995851703,0.052538,-0.768313,-0.355229,-0.529864,-0.276257,2.447381,-0.209360
315,3995885037,0.049884,-0.771239,-0.345226,-0.532474,-0.296170,2.620086,-0.039992
316,3995918371,0.048885,-0.774333,-0.336254,-0.533816,-0.195378,2.622297,-0.164722
317,3995951705,0.048806,-0.777271,-0.328489,-0.534388,-0.104377,2.446616,-0.179792
318,3995985039,0.049276,-0.779626,-0.321495,-0.535167,0.076084,2.508429,-0.128149
319,3996018373,0.049560,-0.781615,-0.314316,-0.536502,0.189349,2.407026,-0.115493
320,3996051707,0.049507,-0.783359,-0.306905,-0.538252,-0.025036,2.419480,-0.100457
321,3996085041,0.049245,-0.784939,-0.299438,-0.540177,-0.224741,2.625862,-0.248450
322,3996118375,0.049855,-0.785954,-0.292916,-0.542217,-0.306283,2.826297,-0.214584
323,3996151709,0.050808,-0.786519,-0.286951,-0.544494,-0.154312,2.631543,-0.113341
324,3996185043,0.051660,-0.786871,-0.281243,-0.546878,-0.057867,2.248636,-0.113879
325,3996218377,0.051423,-0.787185,-0.274996,-0.549618,-0.092046,2.568112,-0.381355
326,3996251711,0.051207,-0.787167,-0.268356,-0.552937,-0.371949,2.815866,-0.536441
327,3996285045,0.052154,-0.787344,-0.261846,-0.555711,-0.903462,2.801709,-0.286902
328,3996318379,0.053668,-0.787792,-0.255838,-0.557725,-0.686791,2.586740,-0.458353
329,3996351713,0.055299,-0.788723,-0.250101,-0.558851,-0.218515,2.637229,-0.159554
330,3996385047,0.056706,-0.789806,-0.244659,-0.559590,0.507941,2.386743,0.040237
331,3996418381,0.058904,-0.790684,-0.240376,-0.559979,0.490205,2.685842,-0.100008
332,3996451715,0.062460,-0.791292,-0.238307,-0.559619,0.448927,2.366857,-0.110837
333,3996485049,0.067098,-0.791603,-0.238479,-0.558568,0.432726,2.581230,-0.183196
334,3996518383,0.072419,-0.792426,-0.239771,-0.556178,0.180087,2.671113,-0.138691
335,3996551717,0.079135,-0.793580,-0.242642,-0.552360,0.057985,2.608844,-0.218880
336,3996585051,0.086718,-0.794678,-0.246893,-0.547739,0.274487,2.445359,-0.102306
337,3996618385,0.094913,-0.795265,-0.252505,-0.542949,0.265071,2.549881,-0.008348
338,3996651719,0.103195,-0.795192,-0.258924,-0.538505,0.418303,2.358543,-0.013620
339,3996685053,0.111678,-0.794877,-0.265872,-0.533871,-0.005161,2.726076,-0.121213
340,3996718387,0.120390,-0.794105,-0.273328,-0.529343,-0.229705,2.763294,-0.326021
341,3996751721,0.129334,-0.792660,-0.281553,-0.525070,-0.354903,2.864491,-0.438800
342,3996785055,0.138507,-0.790874,-0.290531,-0.520514,-0.418763,2.824513,-0.073300
343,3996818389,0.147674,-0.789171,-0.299767,-0.515315,-0.763348,2.538143,-0.271520
344,3996851723,0.156322,-0.787794,-0.308335,-0.509786,-0.700917,2.431346,-0.451880
345,3996885057,0.164752,-0.786284,-0.316658,-0.504331,-0.473753,2.899576,-0.191235
346,3996918391,0.173549,-0.784335,-0.325779,-0.498573,-0.785922,2.339002,-0.016459
347,3996951725,0.181841,-0.782704,-0.334554,-0.492331,-0.857686,2.071043,-0.114232
348,3996985059,0.188674,-0.781709,-0.341910,-0.486249,-0.653592,2.138882,-0.220108
349,3997018393,0.194632,-0.780820,-0.348151,-0.480872,-0.466131,2.359985,-0.031096
350,3997051727,0.200002,-0.779634,-0.354154,-0.476185,-0.398658,1.820344,0.009300
351,3997085061,0.204419,-0.778645,-0.359641,-0.471795,-0.140858,2.216269,-0.146597
352,3997118395,0.207571,-0.777830,-0.364320,-0.468160,0.103018,2.376565,-0.132309
353,3997151729,0.209573,-0.777362,-0.368053,-0.465114,0.169632,2.302013,-0.126470
354,3997185063,0.210812,-0.776976,-0.371439,-0.462502,0.107278,2.387995,0.007255
355,3997218397,0.211807,-0.776307,-0.374907,-0.460368,0.039913,2.437488,-0.198785
356,3997251731,0.212209,-0.775582,-0.378115,-0.458779,-0.021976,2.361541,-0.229400
357,3997285065,0.211985,-0.775043,-0.380996,-0.457406,-0.070178,2.143391,-0.158814
358,3997318399,0.210887,-0.774983,-0.383315,-0.456075,-0.399698,2.012753,-0.223459
359,3997351733,0.208379,-0.775945,-0.384907,-0.454249,-0.773681,2.220062,-0.147147
360,3997385067,0.205604,-0.777079,-0.386512,-0.452207,-0.611838,2.311750,-0.098203
361,3997418401,0.202910,-0.778064,-0.388144,-0.450329,-0.286558,2.410419,-0.003537
362,3997451735,0.200017,-0.778924,-0.389772,-0.448727,-0.210140,1.919992,-0.031011
363,3997485069,0.196082,-0.780099,-0.390546,-0.447748,-0.084444,1.804593,-0.060596
364,3997518403,0.191144,-0.781299,-0.390477,-0.447853,-0.003132,2.164714,-0.024847
365,3997551737,0.185881,-0.782084,-0.390294,-0.448855,0.056512,2.220607,0.034966
366,3997585071,0.180674,-0.782279,-0.390294,-0.450638,0.082876,1.800295,0.086299
367,3997618405,0.175203,-0.782004,-0.390296,-0.453266,0.083420,1.676167,0.103773
368,3997651739,0.169004,-0.781558,-0.390164,-0.456493,-0.168271,1.924663,0.079273
369,3997685073,0.163103,-0.780628,-0.390098,-0.460269,-0.353976,1.955854,0.050497
370,3997718407,0.157753,-0.779173,-0.390087,-0.464590,-0.076258,1.792737,0.158228
371,3997751741,0.152246,-0.777424,-0.390119,-0.469306,-0.027125,1.646416,0.018421
372,3997785075,0.146454,-0.775521,-0.390014,-0.474358,0.025155,1.864059,-0.047958
373,3997818409,0.141050,-0.773532,-0.390048,-0.479191,-0.149638,1.945168,0.130502
374,3997851743,0.136052,-0.771808,-0.390395,-0.483116,-0.496210,2.084976,0.026073
375,3997885077,0.131213,-0.770574,-0.390749,-0.486130,-0.321918,2.090221,-0.151182
376,3997918411,0.127019,-0.769686,-0.391127,-0.488342,-0.131923,1.947671,-0.061053
377,3997951745,0.123840,-0.768638,-0.391861,-0.490216,-0.252857,1.842896,0.233438
378,3997985079,0.121462,-0.767472,-0.393011,-0.491715,-0.071340,1.936609,0.254605
379,3998018413,0.120694,-0.765785,-0.395329,-0.492676,-0.279702,1.660259,0.300049
380,3998051747,0.118813,-0.763202,-0.397072,-0.495730,-0.306143,1.376214,0.564584
381,3998085081,0.114293,-0.760269,-0.397771,-0.500714,-0.073541,0.440068,0.604236
382,3998118415,0.112203,-0.756715,-0.399232,-0.505385,0.653027,0.994507,-0.089396
383,3998151749,0.108550,-0.755820,-0.399141,-0.507590,-0.216600,1.569516,-0.566548
384,3998185083,0.103704,-0.757506,-0.398273,-0.506770,-1.397984,1.745521,-0.171967
385,3998218417,0.102033,-0.758445,-0.398937,-0.505181,-0.712253,1.907596,-0.108511
386,3998251751,0.102216,-0.758165,-0.400652,-0.504206,0.177683,1.755232,-0.124756
387,3998285085,0.102478,-0.757966,-0.402173,-0.503240,0.419932,1.796455,0.125093
388,3998318419,0.101978,-0.758097,-0.402528,-0.502860,0.319417,1.702881,0.438509
389,3998351753,0.101576,-0.758130,-0.401951,-0.503353,0.397374,1.755511,0.279159
390,3998385087,0.100999,-0.758083,-0.400987,-0.504309,0.194135,1.680241,0.182517
391,3998418421,0.100687,-0.757599,-0.400073,-0.505822,-0.120213,1.457583,0.042949
392,3998451755,0.099695,-0.757091,-0.398702,-0.507858,-0.197917,1.220816,-0.073640
393,3998485089,0.097123,-0.757328,-0.395913,-0.510179,-0.247569,1.244649,-0.164688
394,3998518423,0.093568,-0.758090,-0.392017,-0.512714,-0.317749,1.484865,-0.069687
395,3998551757,0.089666,-0.758917,-0.387270,-0.515786,-0.482381,1.560569,-0.015112
396,3998585091,0.085600,-0.759551,-0.381558,-0.519785,-0.468970,1.469549,-0.010261
397,3998618425,0.081535,-0.760439,-0.375049,-0.523861,-0.353833,1.432592,-0.030211
398,3998651759,0.077397,-0.761792,-0.367977,-0.527526,-0.470133,1.431550,0.145873
399,3998685093,0.073674,-0.762819,-0.360887,-0.531458,-0.620041,1.343357,0.163625
400,3998718427,0.070573,-0.763385,-0.354420,-0.535404,-0.446391,1.308370,0.005774
401,3998751761,0.067850,-0.763836,-0.348739,-0.538831,-0.495017,1.227338,0.020611
402,3998785095,0.065645,-0.764159,-0.343784,-0.541822,-0.577694,1.305155,0.213049
403,3998818429,0.063682,-0.764283,-0.338920,-0.544937,-0.465323,1.387473,0.134242
404,3998851763,0.061517,-0.764660,-0.333200,-0.548176,-0.200986,1.284972,-0.016517
405,3998885097,0.059192,-0.765334,-0.326287,-0.551638,-0.148084,1.335712,0.112573
406,3998918431,0.056815,-0.766019,-0.318246,-0.555621,-0.343683,1.407076,0.282050
407,3998951765,0.054161,-0.766495,-0.309625,-0.560082,-0.290080,1.084435,0.149357
408,3998985099,0.051389,-0.766602,-0.300933,-0.564913,-0.331535,1.083704,-0.095548
409,3999018433,0.049262,-0.766942,-0.292564,-0.569024,-0.516272,1.534728,0.396341
410,3999051767,0.048094,-0.767369,-0.283707,-0.573018,-0.325205,1.769817,0.552584
411,3999085101,0.047895,-0.768393,-0.274916,-0.575940,0.033712,1.493652,0.106425
412,3999118435,0.049066,-0.769717,-0.267853,-0.577400,-0.012593,1.579286,-0.007313
413,3999151769,0.053052,-0.770463,-0.263449,-0.578079,-0.077321,1.485383,0.043102
414,3999185103,0.056937,-0.771443,-0.258741,-0.578529,0.232735,1.031714,0.158627
415,3999218437,0.059590,-0.772681,-0.251893,-0.579629,0.120930,0.922826,0.200772
416,3999251771,0.060595,-0.773901,-0.243035,-0.581676,0.093357,1.089698,0.024000
417,3999285105,0.061258,-0.774815,-0.234222,-0.584001,0.024078,1.505091,-0.063941
418,3999318439,0.061729,-0.775659,-0.224911,-0.586486,-0.647962,1.966895,0.000353
419,3999351773,0.063752,-0.775577,-0.217483,-0.589173,-0.319445,2.383710,-0.300493
420,3999385107,0.066985,-0.775597,-0.211466,-0.590975,-0.545915,2.268759,-0.178426
421,3999418441,0.070584,-0.775596,-0.206597,-0.592279,-0.366597,1.886928,-0.129251
422,3999451775,0.074755,-0.775598,-0.202218,-0.593275,-0.170759,1.971237,0.018757
423,3999485109,0.079439,-0.775879,-0.198986,-0.593392,-0.028882,2.103641,-0.107525
424,3999518443,0.085116,-0.776508,-0.198067,-0.592087,-0.166796,2.049587,-0.163661
425,3999551777,0.092729,-0.777226,-0.199597,-0.589483,0.025312,2.184322,-0.134130
426,3999585111,0.101166,-0.777633,-0.202807,-0.586455,0.199873,2.109272,-0.038336
427,3999618445,0.110344,-0.777788,-0.207481,-0.582949,0.025303,1.926478,0.015569
428,3999651779,0.120253,-0.778247,-0.213474,-0.578194,-0.378461,2.180790,-0.135653
429,3999685113,0.130766,-0.778968,-0.221014,-0.572075,-0.546332,2.434895,-0.106700
430,3999718447,0.142664,-0.779356,-0.230925,-0.564741,-0.772344,2.135758,0.003926
431,3999751781,0.154644,-0.779036,-0.241277,-0.557657,-0.427130,1.527045,-0.022011
432,3999785115,0.165815,-0.778417,-0.251298,-0.550844,-0.603444,1.919130,-0.068392
433,3999818449,0.176775,-0.777477,-0.261635,-0.543907,-0.792284,2.124257,0.099254
434,3999851783,0.188297,-0.775808,-0.273468,-0.536553,-0.780395,1.814297,-0.160010
435,3999885117,0.199746,-0.773611,-0.285635,-0.529196,-0.605125,1.457391,0.002474
436,3999918451,0.210575,-0.770883,-0.297115,-0.522616,-0.514062,1.253106,0.172691
437,3999951785,0.219602,-0.768597,-0.306711,-0.516691,-0.328204,1.125692,0.054646
438,3999985119,0.227076,-0.766607,-0.314603,-0.511646,-0.075842,1.182223,0.126153
439,4000018453,0.232631,-0.764911,-0.320779,-0.507841,0.329414,1.102535,0.099006
440,4000051787,0.236223,-0.763763,-0.325253,-0.505057,0.276352,1.364327,0.239110
441,4000085121,0.238364,-0.762753,-0.328401,-0.503539,0.255546,1.432827,0.192253
442,4000118455,0.239085,-0.761953,-0.330715,-0.502893,0.243332,1.320470,-0.066680
443,4000151789,0.238364,-0.761696,-0.332018,-0.502766,-0.024425,1.467389,0.047793
444,4000185123,0.236355,-0.762104,-0.332404,-0.502841,-0.239760,1.346429,0.091793
445,4000218457,0.233058,-0.763452,-0.331661,-0.502826,-0.694668,1.226110,-0.030025
446,4000251791,0.228172,-0.765469,-0.329396,-0.503488,-0.566650,1.279431,0.026336
447,4000285125,0.222439,-0.767881,-0.325960,-0.504616,-0.638452,1.110942,-0.035423
448,4000318459,0.215708,-0.770767,-0.321191,-0.506194,-0.794183,1.444753,0.014226
449,4000351793,0.209026,-0.772795,-0.316559,-0.508816,-0.179305,1.601014,0.204916
450,4000385127,0.202652,-0.774078,-0.312506,-0.511940,-0.192467,1.121621,0.230283
451,4000418461,0.195777,-0.774910,-0.308330,-0.515874,-0.207874,1.188295,0.117807
452,4000451795,0.188451,-0.775540,-0.304209,-0.520086,-0.127245,1.300793,0.105998
453,4000485129,0.181214,-0.775878,-0.300681,-0.524188,-0.416661,1.386219,0.256006
454,4000518463,0.174585,-0.775578,-0.298123,-0.528327,-0.591966,1.277716,0.086884
455,4000551797,0.168055,-0.775411,-0.295956,-0.531896,-0.742686,1.242039,-0.112637
456,4000585131,0.161063,-0.775910,-0.293513,-0.534678,-0.874156,1.541724,-0.205076
457,4000618465,0.153978,-0.776858,-0.291130,-0.536688,-0.687730,1.559226,-0.081878
458,4000651799,0.146825,-0.778090,-0.288524,-0.538312,-0.438391,1.785563,0.077315
459,4000685133,0.140213,-0.778740,-0.285652,-0.540662,0.078971,1.639474,0.275026
460,4000718467,0.133678,-0.778422,-0.282566,-0.544384,0.394879,1.137693,0.056894
461,4000751801,0.126350,-0.778077,-0.279527,-0.548184,0.295781,1.296585,-0.103379
462,4000785135,0.119243,-0.777843,-0.277557,-0.551100,-0.157321,1.251801,0.058973
463,4000818469,0.111786,-0.777657,-0.275637,-0.553883,-0.323326,1.355219,0.169643
464,4000851803,0.103032,-0.776525,-0.273543,-0.558190,-0.637229,1.300167,0.965895
465,4000885137,0.094339,-0.772647,-0.270988,-0.566296,1.191791,1.005287,0.847466
466,4000918471,0.085593,-0.767778,-0.270281,-0.574584,0.746924,0.274979,0.856930
467,4000951805,0.077620,-0.762299,-0.272027,-0.582138,0.643067,0.280269,0.379648
468,4000985139,0.073539,-0.759206,-0.273624,-0.585949,-1.273771,1.283434,-0.436559
469,4001018473,0.071179,-0.758597,-0.274744,-0.586506,-2.124790,1.042129,-0.418768
470,4001051807,0.072088,-0.757741,-0.278400,-0.585777,-0.964641,0.925861,-0.075140
471,4001085141,0.073306,-0.756337,-0.281509,-0.585954,-0.795446,-0.034355,0.199681
472,4001118475,0.073239,-0.755242,-0.282079,-0.587099,-0.486791,0.101555,0.014999
473,4001151809,0.070892,-0.755264,-0.279477,-0.588602,-0.601146,0.185779,0.247105
474,4001185143,0.067647,-0.755734,-0.274752,-0.590601,-0.343265,0.673582,0.035016
475,4001218477,0.064127,-0.756937,-0.269094,-0.592056,-0.349709,0.952102,-0.012258
476,4001251811,0.062352,-0.758123,-0.264870,-0.592633,-0.086007,0.839724,0.086123
477,4001285145,0.062106,-0.758661,-0.262487,-0.593030,0.158012,0.636807,0.138219
478,4001318479,0.062858,-0.758929,-0.260903,-0.593307,0.249465,0.664867,0.073331
479,4001351813,0.063633,-0.758984,-0.258681,-0.594126,0.115138,0.811485,0.189076
480,4001385147,0.065781,-0.759042,-0.256737,-0.594662,-0.140048,0.618746,0.389288
481,4001418481,0.068089,-0.759163,-0.254866,-0.595052,-0.327234,0.425458,0.179025
482,4001451815,0.070314,-0.759332,-0.252838,-0.595442,-0.668480,0.505613,0.050221
483,4001485149,0.072747,-0.759863,-0.249420,-0.595914,-0.703919,0.251664,-0.160936
484,4001518483,0.074295,-0.761318,-0.243482,-0.596322,-0.417359,0.306144,0.042109
485,4001551817,0.074917,-0.763438,-0.235580,-0.596708,-0.490559,0.485995,0.606390
486,4001585151,0.076118,-0.765492,-0.227103,-0.597210,-0.253863,0.617228,0.813956
487,4001618485,0.078410,-0.766616,-0.219372,-0.598361,-0.066992,0.848362,0.351978
488,4001651819,0.079745,-0.766453,-0.211703,-0.601149,-0.500631,0.876180,0.336215
489,4001685153,0.080601,-0.765452,-0.203296,-0.605199,-0.276848,0.847676,-0.314142
490,4001718487,0.082430,-0.765292,-0.195591,-0.607688,-0.820235,1.363333,-0.209262
491,4001751821,0.085534,-0.765417,-0.189541,-0.609018,-0.750789,1.780254,-0.006319
492,4001785155,0.090670,-0.765587,-0.186217,-0.609087,-0.367735,2.188672,-0.129286
493,4001818489,0.097503,-0.766217,-0.185516,-0.607451,-0.394442,1.556267,-0.149564
494,4001851823,0.106721,-0.767309,-0.187507,-0.603901,-0.215455,1.326719,-0.151721
495,4001885157,0.117095,-0.768624,-0.191372,-0.599075,-0.103823,1.271966,0.045862
496,4001918491,0.127812,-0.769764,-0.196671,-0.593680,-0.145111,1.298932,0.170212
497,4001951825,0.139466,-0.770205,-0.203843,-0.588039,0.034059,1.389459,0.091831
498,4001985159,0.151079,-0.770202,-0.211953,-0.582278,-0.090578,1.182282,0.105371
499,4002018493,0.162281,-0.770313,-0.220121,-0.576053,-0.245098,1.036686,0.140967
500,4002051827,0.172324,-0.770473,-0.227987,-0.569829,-0.249784,0.941008,0.139882
501,4002085161,0.180826,-0.770730,-0.234582,-0.564143,0.158000,0.931849,0.090190
502,4002118495,0.187230,-0.771633,-0.239822,-0.558589,-0.156659,1.518629,0.199750
503,4002151829,0.192256,-0.772168,-0.244269,-0.554198,-0.812747,1.779822,0.144128
504,4002185163,0.197157,-0.772620,-0.248527,-0.549936,-0.756231,1.300614,-0.080614
505,4002218497,0.203027,-0.773023,-0.253805,-0.544799,-1.433540,1.337441,-0.071581
506,4002251831,0.209535,-0.773378,-0.260444,-0.538664,-0.581812,1.332478,-0.009612
507,4002285165,0.216606,-0.773663,-0.268034,-0.531689,-0.304912,1.177470,0.051292
508,4002318499,0.223527,-0.773492,-0.275803,-0.525059,0.033836,1.022202,0.234014
509,4002351833,0.230273,-0.772758,-0.284202,-0.518707,0.071539,0.997756,0.292361
510,4002385167,0.236848,-0.771124,-0.293422,-0.513013,0.161409,1.166462,0.316212
511,4002418501,0.242608,-0.769189,-0.302618,-0.507859,-0.066232,1.059657,0.113745
512,4002451835,0.247382,-0.767486,-0.310945,-0.503080,-0.456106,1.083685,0.096572
513,4002485169,0.251469,-0.765687,-0.318683,-0.498935,-0.558973,1.000397,0.157423
514,4002518503,0.255093,-0.763650,-0.325966,-0.495501,-0.385047,0.990919,0.009059
515,4002551837,0.257824,-0.762009,-0.332294,-0.492400,-0.528305,0.941926,-0.074739
516,4002585171,0.259545,-0.761114,-0.337478,-0.489345,-0.473778,1.044727,0.013703
517,4002618505,0.260288,-0.760610,-0.342053,-0.486550,-0.224091,1.157172,0.063180
518,4002651839,0.260381,-0.760192,-0.346170,-0.484235,-0.094599,1.123669,0.132361
519,4002685173,0.259528,-0.759897,-0.349599,-0.482691,-0.177648,0.995096,0.110109
520,4002718507,0.257206,-0.759862,-0.351883,-0.482329,-0.231501,0.929647,0.006177
521,4002751841,0.253437,-0.760259,-0.352543,-0.483217,-0.430320,0.949005,0.085419
522,4002785175,0.248364,-0.761275,-0.351841,-0.484760,-0.495003,0.715515,0.084525
523,4002818509,0.241736,-0.762982,-0.350185,-0.486621,-0.677949,0.684357,0.009917
524,4002851843,0.234350,-0.764739,-0.348411,-0.488745,-0.579641,0.906974,0.068130
525,4002885177,0.226427,-0.766532,-0.346105,-0.491304,-0.564506,0.828008,0.114560
526,4002918511,0.218011,-0.768244,-0.343261,-0.494422,-0.500315,0.735355,0.099593
527,4002951845,0.209183,-0.769614,-0.340252,-0.498171,-0.601340,0.686359,0.031297
528,4002985179,0.200716,-0.770299,-0.337703,-0.502311,-0.659139,0.678382,0.200080
529,4003018513,0.192338,-0.770398,-0.335702,-0.506759,-0.710477,0.349263,0.142923
530,4003051847,0.184049,-0.770514,-0.333867,-0.510857,-0.950638,0.404611,0.251874
531,4003085181,0.175540,-0.770732,-0.331130,-0.515285,-0.777621,0.497181,0.320676
532,4003118515,0.167105,-0.770878,-0.327480,-0.520181,-0.564596,0.268477,0.226993
533,4003151849,0.159014,-0.770935,-0.323999,-0.524791,-0.556427,0.421000,0.356473
534,4003185183,0.152155,-0.769995,-0.321651,-0.529627,-0.363707,0.582713,0.463119
535,4003218517,0.146352,-0.768039,-0.320158,-0.534980,-0.218272,0.330834,0.502728
536,4003251851,0.139753,-0.766143,-0.318231,-0.540584,-0.387921,0.045797,0.535989
537,4003285185,0.132179,-0.764501,-0.314914,-0.546721,0.069981,0.300307,0.312258
538,4003318519,0.126182,-0.762186,-0.313145,-0.552358,-0.058122,0.496989,0.331063
539,4003351853,0.121211,-0.759138,-0.313338,-0.557535,-0.401367,0.307092,0.508236
540,4003385187,0.114624,-0.755980,-0.312782,-0.563499,-0.154544,0.372059,0.192826
541,4003418521,0.112472,-0.752393,-0.315751,-0.567066,-0.290199,0.763866,0.022614
542,4003451855,0.111834,-0.750189,-0.319010,-0.568287,-0.870472,0.647299,-0.148715
543,4003485189,0.111471,-0.748847,-0.322346,-0.568246,-0.937981,0.702960,-0.340233
544,4003518523,0.111529,-0.747986,-0.325956,-0.567308,-0.881248,0.461636,-0.217733
545,4003551857,0.111894,-0.747327,-0.328902,-0.566403,-0.798556,0.197358,-0.087499
546,4003585191,0.112201,-0.747405,-0.330637,-0.565230,-0.481878,0.378826,-0.037293
547,4003618525,0.112158,-0.747988,-0.331288,-0.564084,-0.458248,0.273445,0.130688
548,4003651859,0.112100,-0.748188,-0.331246,-0.563855,-0.083462,0.404533,0.106003
549,4003685193,0.111856,-0.748568,-0.330643,-0.563753,0.036295,0.308896,0.232918
550,4003718527,0.110906,-0.748922,-0.329068,-0.564392,0.043129,0.085508,0.306790
551,4003751861,0.109251,-0.749197,-0.326415,-0.565888,0.117396,0.312759,0.172491
552,4003785195,0.107599,-0.749456,-0.323393,-0.567593,-0.090920,0.558509,0.278017
553,4003818529,0.105999,-0.749412,-0.320162,-0.569781,-0.400582,0.267191,0.319309
554,4003851863,0.104404,-0.749357,-0.316464,-0.572208,-0.334255,0.161871,0.175370
555,4003885197,0.102555,-0.749748,-0.311993,-0.574481,-0.537636,0.202479,0.088322