sep=,
DeviceTag:,2C_Leg
FirmwareVersion:,2.2.1
AppVersion:,2023.6.0
SyncStatus:,Synced
OutputRate:,30Hz
FilterProfile:,General
Measurement Mode:,Sensor fusion Mode - Complete(Quaternion)
StartTime: ,2026-05-27_15:13:28_259 AEST
© Movella Technologies B. V. 2005-2026

PacketCounter,SampleTimeFine,Quat_W,Quat_X,Quat_Y,Quat_Z,FreeAcc_X,FreeAcc_Y,FreeAcc_Z
1,3676681729,-0.467217,0.698977,0.419589,-0.342187,-0.105645,-0.929756,0.306420
2,3676715063,-0.460806,0.697202,0.423763,-0.349285,-0.305829,-0.124925,-0.154224
3,3676748397,-0.455693,0.693404,0.429026,-0.357042,-1.005270,1.257033,0.467860
4,3676781731,-0.450625,0.687987,0.435485,-0.366021,-1.441803,0.310093,0.106709
5,3676815065,-0.445194,0.682804,0.442248,-0.374174,-1.275649,-0.095130,-0.007065
6,3676848399,-0.438963,0.678663,0.449190,-0.380743,-0.857165,0.559253,-0.108050
7,3676881733,-0.433592,0.675839,0.454638,-0.385424,-1.010941,0.713541,-0.119223
8,3676915067,-0.428063,0.673449,0.460147,-0.389232,-0.988977,-0.501072,-0.034195
9,3676948401,-0.421071,0.670166,0.467300,-0.393974,-0.704581,-0.515758,-0.087698
10,3676981735,-0.412468,0.666338,0.475790,-0.399369,-0.934561,-0.127329,-0.046657
11,3677015069,-0.403447,0.662225,0.484424,-0.405005,-1.541605,0.685991,-0.194252
12,3677048403,-0.394510,0.658897,0.491961,-0.410121,-2.397333,1.539380,-0.162412
13,3677081737,-0.387791,0.656822,0.496563,-0.414291,-3.007138,2.352941,-0.082097
14,3677115071,-0.384943,0.653849,0.499132,-0.418539,-4.266548,3.347865,0.098467
15,3677148405,-0.388987,0.644588,0.504560,-0.422638,-5.379312,4.455262,-0.586597
16,3677181739,-0.396419,0.629478,0.514426,-0.426595,-3.739918,5.279567,-1.045077
17,3677215073,-0.403654,0.617660,0.520577,-0.429614,-2.085831,2.660904,2.052794
18,3677248407,-0.415139,0.604200,0.523552,-0.434170,-0.081264,0.277979,4.570977
19,3677281741,-0.436831,0.582981,0.523874,-0.441448,0.410719,1.182854,3.073287
20,3677315075,-0.457405,0.565628,0.521940,-0.445458,2.348593,-2.293772,1.367573
21,3677348409,-0.472380,0.555345,0.518246,-0.447078,4.265799,-5.469439,0.776626
22,3677381743,-0.482436,0.541008,0.518518,-0.453557,6.046020,-6.209665,-0.956965
23,3677415077,-0.483870,0.521894,0.529557,-0.461599,4.598659,-4.241471,-2.681539
24,3677448411,-0.475061,0.500749,0.548862,-0.471514,5.069512,-4.244073,-2.710227
25,3677481745,-0.463621,0.487483,0.563824,-0.479089,4.780326,-3.648996,-2.532396
26,3677515079,-0.453214,0.482615,0.569667,-0.486999,3.489507,-2.519614,-1.712335
27,3677548413,-0.444478,0.485618,0.572370,-0.488892,2.957958,1.568519,-1.699984
28,3677581747,-0.440882,0.485608,0.568014,-0.497168,-7.648544,0.944601,3.419756
29,3677615081,-0.433299,0.479118,0.567147,-0.510931,0.256421,4.181254,-1.532288
30,3677648415,-0.400020,0.492010,0.584812,-0.505878,3.787466,8.336579,2.472822
31,3677681749,-0.404532,0.493525,0.581425,-0.504718,-2.625969,1.379262,0.187906
32,3677715083,-0.401993,0.498945,0.581614,-0.501188,-1.216672,-3.448350,0.014146
33,3677748417,-0.393981,0.499421,0.582882,-0.505583,0.383784,-1.736231,-0.080420
34,3677781751,-0.388782,0.499716,0.586465,-0.505173,0.708047,0.636009,0.198792
35,3677815085,-0.378508,0.499871,0.591859,-0.506530,0.448839,-0.491863,-0.572110
36,3677848419,-0.361740,0.503711,0.598685,-0.506955,0.892921,-1.343871,0.486885
37,3677881753,-0.343903,0.505896,0.605247,-0.509397,0.430166,0.489139,0.400013
38,3677915087,-0.338271,0.507286,0.604797,-0.512312,-0.311989,0.328716,0.131225
39,3677948421,-0.336323,0.508600,0.603329,-0.514018,-1.263188,-0.612023,-0.020373
40,3677981755,-0.330231,0.508870,0.604448,-0.516381,-0.858480,-0.649408,0.355220
41,3678015089,-0.325211,0.507958,0.606811,-0.517693,-0.632825,0.213218,0.038166
42,3678048423,-0.320920,0.505786,0.609034,-0.519881,-0.489220,0.191895,0.111918
43,3678081757,-0.316963,0.504723,0.609839,-0.522392,0.146057,-0.529781,0.151666
44,3678115091,-0.314013,0.505227,0.610047,-0.523444,0.460241,-0.434251,0.027451
45,3678148425,-0.311813,0.505091,0.610614,-0.524228,0.279501,-0.468021,0.084672
46,3678181759,-0.309193,0.503337,0.612017,-0.525828,0.110233,-0.191766,0.235454
47,3678215093,-0.306371,0.501505,0.613379,-0.527640,-0.156154,0.193968,0.165147
48,3678248427,-0.305059,0.500955,0.613564,-0.528707,-0.398960,0.381178,0.106818
49,3678281761,-0.305669,0.501922,0.612545,-0.528619,-0.096761,0.107495,0.115332
50,3678315095,-0.307091,0.503856,0.610912,-0.527844,-0.055510,0.079577,0.107805
51,3678348429,-0.308898,0.506211,0.608957,-0.526794,-0.035062,-0.221801,0.131366
52,3678381763,-0.309874,0.507577,0.607895,-0.526132,-0.046155,-0.230210,0.114045
53,3678415097,-0.309483,0.507615,0.607955,-0.526257,-0.046229,-0.193613,0.115289
54,3678448431,-0.308971,0.507861,0.608093,-0.526160,-0.119380,-0.002611,0.126762
55,3678481765,-0.309524,0.509121,0.607410,-0.525406,-0.179420,0.228580,0.162995
56,3678515099,-0.311820,0.511452,0.605500,-0.523987,-0.107828,0.208413,0.143191
57,3678548433,-0.314918,0.514242,0.602771,-0.522549,0.017850,0.223856,0.151125
58,3678581767,-0.318830,0.517540,0.599517,-0.520660,0.115660,-0.070061,0.172608
59,3678615101,-0.322921,0.520527,0.596299,-0.518854,0.219808,-0.164715,0.114751
60,3678648435,-0.326496,0.522600,0.593593,-0.517634,0.301824,-0.276842,0.165810
61,3678681769,-0.329837,0.524063,0.591164,-0.516816,0.327283,-0.098093,0.104731
62,3678715103,-0.332986,0.525169,0.588998,-0.516147,0.405453,-0.113305,0.090457
63,3678748437,-0.335669,0.525909,0.587013,-0.515917,0.252739,-0.165120,0.105437
64,3678781771,-0.337948,0.526289,0.585263,-0.516030,0.004707,-0.201714,0.039139
65,3678815105,-0.339318,0.526346,0.584292,-0.516173,-0.273802,-0.300871,-0.001226
66,3678848439,-0.339080,0.525651,0.584698,-0.516577,-0.637923,-0.399776,0.037045
67,3678881773,-0.336593,0.523860,0.587330,-0.517036,-0.873505,-0.102116,0.081582
68,3678915107,-0.332342,0.521052,0.591556,-0.517806,-0.789081,0.131683,0.098472
69,3678948441,-0.327461,0.517908,0.596223,-0.518716,-0.462314,0.267123,0.173209
70,3678981775,-0.323300,0.514935,0.600164,-0.519742,-0.094382,0.232079,0.161056
71,3679015109,-0.320815,0.513140,0.602604,-0.520232,0.170820,0.372993,0.141132
72,3679048443,-0.320288,0.512960,0.603209,-0.520033,0.566469,0.184314,0.097254
73,3679081777,-0.320930,0.513803,0.602494,-0.519634,0.726953,0.128524,0.118621
74,3679115111,-0.322338,0.515524,0.600832,-0.518981,0.559476,0.050522,0.055647
75,3679148445,-0.324260,0.517620,0.598640,-0.518231,0.260147,-0.063317,0.097841
76,3679181779,-0.326280,0.519626,0.596422,-0.517512,0.148041,-0.121979,0.188662
77,3679215113,-0.327841,0.521353,0.594499,-0.517001,0.047465,-0.093873,0.164632
78,3679248447,-0.329303,0.522483,0.592985,-0.516669,-0.291876,-0.073125,0.153098
79,3679281781,-0.330122,0.522663,0.592120,-0.516958,-0.396267,-0.003539,0.100195
80,3679315115,-0.330252,0.522207,0.592031,-0.517437,-0.348619,-0.143197,0.148800
81,3679348449,-0.329235,0.521088,0.592824,-0.518305,-0.427135,0.051055,0.051070
82,3679381783,-0.327929,0.519832,0.594049,-0.518990,-0.335976,0.107124,0.098644
83,3679415117,-0.326544,0.518493,0.595367,-0.519693,-0.183858,0.081424,0.043631
84,3679448451,-0.324911,0.517231,0.596784,-0.520348,-0.119065,0.047689,0.089119
85,3679481785,-0.323175,0.515905,0.598214,-0.521103,-0.123698,-0.081682,0.144845
86,3679515119,-0.321002,0.514393,0.600016,-0.521869,-0.118309,-0.007024,0.110959
87,3679548453,-0.318831,0.512878,0.601831,-0.522600,0.016982,0.037463,0.181458
88,3679581787,-0.317776,0.511831,0.602791,-0.523163,-0.015008,0.194169,0.129083
89,3679615121,-0.317998,0.511975,0.602609,-0.523096,0.092678,0.311186,0.100009
90,3679648455,-0.319612,0.513353,0.601166,-0.522422,0.127861,0.133934,0.138806
91,3679681789,-0.322391,0.515426,0.598797,-0.521393,-0.035268,-0.071282,0.099379
92,3679715123,-0.325339,0.517549,0.596446,-0.520152,-0.165985,-0.188924,0.128684
93,3679748457,-0.327493,0.519224,0.594792,-0.519024,-0.143667,-0.265173,0.070562
94,3679781791,-0.328644,0.520548,0.594005,-0.517869,-0.030272,-0.107952,0.121519
95,3679815125,-0.329848,0.521512,0.593263,-0.516984,-0.031112,-0.012936,0.118177
96,3679848459,-0.331038,0.522207,0.592573,-0.516313,0.051907,-0.043555,0.115535
97,3679881793,-0.331626,0.522400,0.592345,-0.516002,0.141184,-0.121833,0.149434
98,3679915127,-0.331417,0.521928,0.592624,-0.516294,0.102621,-0.028544,0.096525
99,3679948461,-0.330831,0.521186,0.593169,-0.516793,0.007457,0.048734,0.131360
100,3679981795,-0.330521,0.520534,0.593506,-0.517260,-0.108080,0.067641,0.121480
101,3680015129,-0.330073,0.519916,0.593939,-0.517671,-0.087340,0.110804,0.092683
102,3680048463,-0.329535,0.519286,0.594357,-0.518167,-0.151763,0.122879,0.109095
103,3680081797,-0.329055,0.518751,0.594608,-0.518719,-0.115082,0.087011,0.122168
104,3680115131,-0.328647,0.518232,0.594918,-0.519141,-0.135012,-0.071598,0.102159
105,3680148465,-0.327971,0.517503,0.595538,-0.519586,-0.091726,-0.112900,0.115923
106,3680181799,-0.327045,0.516559,0.596369,-0.520155,-0.040281,-0.087689,0.102085
107,3680215133,-0.326715,0.515926,0.596828,-0.520464,-0.030371,-0.108256,0.113142
108,3680248467,-0.327197,0.515788,0.596775,-0.520358,0.088336,-0.086426,0.092609
109,3680281801,-0.328137,0.516110,0.596298,-0.519994,0.139647,0.017919,0.104358
110,3680315135,-0.329308,0.516725,0.595409,-0.519661,0.113752,-0.019068,0.112429
111,3680348469,-0.330769,0.517725,0.594134,-0.519197,0.048923,0.024306,0.108127
112,3680381803,-0.332449,0.519055,0.592646,-0.518496,-0.122980,-0.085539,0.028712
113,3680415137,-0.333239,0.520200,0.591702,-0.517919,-0.281220,-0.100599,0.129423
114,3680448471,-0.332841,0.520712,0.591827,-0.517518,-0.539741,0.095680,0.112736
115,3680481805,-0.331334,0.520350,0.592994,-0.517513,-0.604753,0.140822,0.165023
116,3680515139,-0.329293,0.519506,0.594666,-0.517746,-0.462116,0.107251,0.143513
117,3680548473,-0.327531,0.518809,0.596260,-0.517729,-0.139156,0.065366,0.102845
118,3680581807,-0.326567,0.518567,0.597233,-0.517458,0.315100,0.228736,0.167717
119,3680615141,-0.326817,0.518664,0.597153,-0.517296,0.697557,-0.023990,0.193498
120,3680648475,-0.327820,0.518956,0.596162,-0.517511,0.682653,-0.079021,0.157589
121,3680681809,-0.329534,0.519650,0.594522,-0.517613,0.457597,-0.161969,0.104643
122,3680715143,-0.331380,0.520625,0.592916,-0.517296,0.283445,-0.215486,0.081125
123,3680748477,-0.332203,0.521012,0.592088,-0.517328,0.026886,-0.292247,0.087870
124,3680781811,-0.332275,0.520979,0.592016,-0.517397,-0.425445,0.063153,0.065521
125,3680815145,-0.331853,0.520852,0.592393,-0.517364,-0.633189,-0.038261,0.120217
126,3680848479,-0.331063,0.520528,0.593187,-0.517287,-0.664630,0.187066,0.157399
127,3680881813,-0.329950,0.519841,0.594348,-0.517356,-0.446818,0.234347,0.097592
128,3680915147,-0.328586,0.519006,0.595558,-0.517671,-0.188376,0.044816,0.137379
129,3680948481,-0.327251,0.518203,0.596716,-0.517987,-0.154431,-0.091906,0.137533
130,3680981815,-0.326013,0.517571,0.597981,-0.517941,-0.135379,-0.083375,0.089912
131,3681015149,-0.324526,0.516825,0.599443,-0.517930,-0.058027,-0.048219,0.115170
132,3681048483,-0.323210,0.516150,0.600691,-0.517979,0.026471,0.024898,0.129026
133,3681081817,-0.322796,0.516033,0.601178,-0.517789,0.089061,0.259376,0.164917
134,3681115151,-0.323881,0.516811,0.600365,-0.517279,0.210943,0.203567,0.136192
135,3681148485,-0.325925,0.518232,0.598472,-0.516767,0.382593,0.209394,0.158987
136,3681181819,-0.328630,0.519909,0.595986,-0.516242,0.320336,-0.026919,0.109135
137,3681215153,-0.331230,0.521258,0.593679,-0.515878,0.091256,-0.217666,0.126040
138,3681248487,-0.333221,0.522027,0.591916,-0.515845,-0.164395,-0.148441,0.123885
139,3681281821,-0.334589,0.522424,0.590861,-0.515765,-0.195500,-0.032958,0.115624
140,3681315155,-0.335340,0.522351,0.590464,-0.515807,-0.149280,-0.009030,0.099784
141,3681348489,-0.335781,0.522081,0.590249,-0.516039,-0.103532,-0.004468,0.014143
142,3681381823,-0.335754,0.521745,0.590310,-0.516327,0.039834,-0.106404,0.133567
143,3681415157,-0.335118,0.521013,0.590864,-0.516845,-0.000230,-0.272022,-0.020615
144,3681448491,-0.333110,0.519659,0.592672,-0.517436,0.016765,0.053322,0.148852
145,3681481825,-0.331309,0.518002,0.594481,-0.518179,-0.226750,0.051949,0.042734
146,3681515159,-0.328982,0.515991,0.596760,-0.519047,-0.175605,0.160911,0.249623
147,3681548493,-0.327617,0.514216,0.598651,-0.519495,-0.188109,0.161813,0.144009
148,3681581827,-0.326922,0.512302,0.600252,-0.519976,-0.167188,0.224282,0.288360
149,3681615161,-0.328109,0.511650,0.600132,-0.520008,-0.181018,-0.224449,0.178851
150,3681648495,-0.331505,0.512744,0.598556,-0.518591,-0.070616,0.085273,0.054963
151,3681681829,-0.336690,0.514849,0.595627,-0.516532,0.192063,-0.186671,0.184440
152,3681715163,-0.343218,0.518780,0.591288,-0.513279,0.309385,-0.142117,0.018938
153,3681748497,-0.351309,0.524457,0.585353,-0.508819,0.296194,0.081297,0.244452
154,3681781831,-0.362428,0.531463,0.576619,-0.503698,0.010099,-0.024828,0.131336
155,3681815165,-0.375864,0.539571,0.566033,-0.497196,0.179693,-0.251624,0.145801
156,3681848499,-0.390156,0.547554,0.554562,-0.490339,0.168666,-0.157465,0.279231
157,3681881833,-0.404976,0.554625,0.542416,-0.483921,-0.098987,-0.364274,0.158428
158,3681915167,-0.418804,0.560962,0.530985,-0.477481,-0.059509,-0.242571,0.138448
159,3681948501,-0.432105,0.566563,0.520074,-0.470981,0.098054,-0.073450,0.264522
160,3681981835,-0.445194,0.571982,0.509313,-0.463948,0.000338,-0.013746,0.003535
161,3682015169,-0.456970,0.577139,0.499452,-0.456776,0.108733,0.175513,0.017831
162,3682048503,-0.467813,0.582476,0.489736,-0.449487,0.268162,0.409144,0.137273
163,3682081837,-0.478225,0.587817,0.479856,-0.442174,0.004546,0.124037,-0.098848
164,3682115171,-0.486635,0.592208,0.471808,-0.435753,-0.232667,0.152713,-0.020926
165,3682148505,-0.492833,0.595509,0.465841,-0.430680,-0.455635,0.298727,0.062223
166,3682181839,-0.497113,0.597721,0.461802,-0.427032,-0.712952,0.221673,0.119361
167,3682215173,-0.499340,0.598566,0.460191,-0.424982,-0.714465,0.241550,0.144684
168,3682248507,-0.499249,0.598134,0.461064,-0.424752,-0.461859,0.099927,0.043359
169,3682281841,-0.497680,0.597491,0.463255,-0.425114,-0.330729,0.148685,0.035947
170,3682315175,-0.495173,0.596996,0.466072,-0.425657,-0.119094,0.256230,0.064317
171,3682348509,-0.492480,0.596079,0.469095,-0.426745,0.007500,0.079951,0.185199
172,3682381843,-0.489902,0.594283,0.472313,-0.428663,0.056749,-0.066956,0.259974
173,3682415177,-0.486746,0.592209,0.476076,-0.430959,0.046803,-0.061018,0.153361
174,3682448511,-0.482804,0.589757,0.480211,-0.434156,0.163017,0.033664,0.124038
175,3682481845,-0.479620,0.587696,0.483436,-0.436894,0.420143,0.394388,0.138350
176,3682515179,-0.477304,0.586655,0.485552,-0.438479,0.600265,0.533372,0.099971
177,3682548513,-0.475182,0.585777,0.486974,-0.440377,0.356537,-0.035795,0.106709
178,3682581847,-0.472479,0.584628,0.488597,-0.443006,0.034562,-0.223946,0.026729
179,3682615181,-0.468465,0.583405,0.491462,-0.445704,-0.111524,-0.010381,0.040510
180,3682648515,-0.462830,0.581774,0.495858,-0.448843,-0.192919,0.125181,0.135543
181,3682681849,-0.455997,0.579100,0.501488,-0.453022,-0.325959,0.129461,0.159288
182,3682715183,-0.448352,0.575445,0.507959,-0.458071,-0.295896,0.223598,0.161585
183,3682748517,-0.440619,0.571491,0.514463,-0.463237,-0.238746,0.230217,0.138238
184,3682781851,-0.432794,0.567707,0.520841,-0.468114,-0.101497,0.104921,0.086145
185,3682815185,-0.424838,0.563948,0.527259,-0.472738,-0.096262,-0.103931,0.052243
186,3682848519,-0.416433,0.560271,0.533966,-0.477041,0.007030,-0.203770,0.089071
187,3682881853,-0.407597,0.556508,0.540995,-0.481140,0.079948,-0.245619,0.033015
188,3682915187,-0.398201,0.552581,0.548574,-0.484939,0.174852,-0.230719,0.077235
189,3682948521,-0.388188,0.548243,0.556687,-0.488721,0.126636,-0.132813,0.189685
190,3682981855,-0.378007,0.543504,0.565078,-0.492351,-0.057833,0.087174,0.202693
191,3683015189,-0.368094,0.538234,0.573360,-0.496062,-0.203896,0.131189,0.220089
192,3683048523,-0.358652,0.532813,0.581033,-0.499888,-0.190497,0.343283,0.184564
193,3683081857,-0.350574,0.528021,0.587457,-0.503184,-0.167178,0.426568,0.227722
194,3683115191,-0.343436,0.523582,0.592887,-0.506366,-0.009104,0.126730,0.160671
195,3683148525,-0.336849,0.519357,0.597587,-0.509607,0.007828,0.143155,0.123774
196,3683181859,-0.331514,0.516128,0.601238,-0.512086,0.013626,-0.049193,0.085093
197,3683215193,-0.326393,0.513371,0.604673,-0.514098,0.171062,-0.318572,0.077729
198,3683248527,-0.321299,0.510784,0.608082,-0.515860,0.110571,-0.189042,0.127786
199,3683281861,-0.316494,0.508438,0.611258,-0.517391,-0.044604,-0.138606,0.101682
200,3683315195,-0.311947,0.506327,0.614210,-0.518725,-0.110394,0.078217,0.123166
201,3683348529,-0.308641,0.504969,0.616191,-0.519677,-0.132374,-0.006792,0.090820
202,3683381863,-0.306423,0.504634,0.617478,-0.519787,0.018857,0.190337,0.204959
203,3683415197,-0.305602,0.505050,0.617447,-0.519903,0.073129,-0.038089,0.154627
204,3683448531,-0.306524,0.506485,0.616259,-0.519374,0.295053,0.280895,0.194166
205,3683481865,-0.308796,0.508538,0.613727,-0.519020,0.307412,0.041831,0.183510
206,3683515199,-0.313008,0.511919,0.609785,-0.517817,0.140380,0.362008,0.145948
207,3683548533,-0.318149,0.515541,0.604968,-0.516740,0.216261,0.133791,0.157773
208,3683581867,-0.323668,0.519356,0.599632,-0.515711,0.248979,-0.196410,0.020699
209,3683615201,-0.327816,0.522803,0.595109,-0.514846,0.415417,-0.607566,0.062415
210,3683648535,-0.330322,0.524969,0.592352,-0.514221,0.123895,-0.347420,0.061178
211,3683681869,-0.331322,0.525735,0.591088,-0.514248,-0.257080,0.075096,0.126106
212,3683715203,-0.331800,0.525928,0.590238,-0.514719,-0.401985,0.250381,0.047401
213,3683748537,-0.331375,0.525439,0.590124,-0.515622,-0.314736,0.391130,0.192429
214,3683781871,-0.330704,0.524652,0.590031,-0.516960,-0.151520,0.477562,0.088145
215,3683815205,-0.329923,0.523701,0.589950,-0.518513,0.024293,0.170265,0.144087
216,3683848539,-0.328923,0.522493,0.590046,-0.520254,0.106389,-0.301930,0.019821
217,3683881873,-0.326277,0.520651,0.591347,-0.522286,0.133876,-0.316889,0.122585
218,3683915207,-0.322686,0.518761,0.593190,-0.524304,-0.131640,-0.136408,0.033650
219,3683948541,-0.318165,0.516444,0.595749,-0.526449,-0.273934,-0.012921,0.131621
220,3683981875,-0.312902,0.513188,0.598969,-0.529127,-0.438846,0.135051,0.120041
221,3684015209,-0.306832,0.509359,0.602681,-0.532157,-0.493295,0.059687,0.182874
222,3684048543,-0.300997,0.506161,0.606119,-0.534631,-0.420645,0.072587,0.054840
223,3684081877,-0.295731,0.503470,0.609341,-0.536445,-0.123664,0.042324,0.070716
224,3684115211,-0.291028,0.500603,0.612338,-0.538285,-0.099297,0.071168,0.147606
225,3684148545,-0.286936,0.498186,0.614837,-0.539872,0.016127,0.253477,0.231577
226,3684181879,-0.284439,0.496389,0.616029,-0.541488,0.314876,0.250607,0.134279
227,3684215213,-0.283712,0.494685,0.616047,-0.543405,0.499179,0.251058,0.121766
228,3684248547,-0.282545,0.493067,0.615781,-0.545779,1.190895,-0.503150,0.097289
229,3684281881,-0.280649,0.491713,0.615904,-0.547836,1.341143,-0.795435,0.051108
230,3684315215,-0.279306,0.490995,0.616262,-0.548764,0.721573,-0.568852,0.079938
231,3684348549,-0.278419,0.490009,0.616691,-0.549613,-0.057275,-0.169628,0.126646
232,3684381883,-0.277927,0.488703,0.617074,-0.550595,-0.810444,0.374680,0.119637
233,3684415217,-0.278177,0.487739,0.617318,-0.551048,-1.161681,0.247282,0.179146
234,3684448551,-0.278875,0.487219,0.617057,-0.551449,-1.001971,0.027475,0.179048
235,3684481885,-0.280624,0.488202,0.616128,-0.550730,-0.606898,-0.161014,0.158517
236,3684515219,-0.283499,0.490520,0.614370,-0.549160,-0.650267,-0.810946,0.190753
237,3684548553,-0.286641,0.493025,0.612845,-0.546985,-0.579262,-0.705549,0.116491
238,3684581887,-0.289880,0.495752,0.611988,-0.543763,-0.459332,-0.607756,0.052130
239,3684615221,-0.293587,0.499006,0.611093,-0.539789,-0.496229,-0.511275,0.113042
240,3684648555,-0.298340,0.502717,0.609760,-0.535229,-0.516478,-0.753221,0.037789
241,3684681889,-0.303900,0.505708,0.608391,-0.530823,-0.916836,-1.066324,0.237246
242,3684715223,-0.311877,0.509643,0.606022,-0.525112,-0.721911,-0.019981,0.198688
243,3684748557,-0.323979,0.514382,0.602003,-0.517735,0.019231,0.412216,0.053823
244,3684781891,-0.340232,0.518938,0.596117,-0.509508,0.095828,0.533985,0.125115
245,3684815225,-0.360519,0.522505,0.589183,-0.499887,-0.301852,0.589536,0.557648
246,3684848559,-0.383484,0.524395,0.581746,-0.489418,-1.012491,0.735665,0.498080
247,3684881893,-0.401685,0.521924,0.579889,-0.479563,-0.550082,0.966816,-0.575700
248,3684915227,-0.416545,0.523286,0.575684,-0.470380,0.978103,-0.035504,0.192693
249,3684948561,-0.437462,0.527313,0.564222,-0.460684,2.028286,-0.859496,0.156205
250,3684981895,-0.456273,0.532839,0.552792,-0.449807,2.585482,-2.030353,-0.265781
251,3685015229,-0.469578,0.536783,0.545068,-0.440760,2.159901,-1.772529,0.114022
252,3685048563,-0.478614,0.538130,0.541045,-0.434307,1.202305,-0.253102,0.400518
253,3685081897,-0.487889,0.539332,0.536661,-0.427889,0.245947,1.139391,0.464458
254,3685115231,-0.500838,0.542296,0.528028,-0.419845,-0.695888,1.625643,0.722319
255,3685148565,-0.515248,0.545708,0.516606,-0.412127,-1.470223,0.557769,0.214994
256,3685181899,-0.526582,0.547750,0.506184,-0.408004,-1.115306,1.763297,0.560395
257,3685215233,-0.537656,0.550938,0.493692,-0.404562,-0.734119,2.171554,-0.000286
258,3685248567,-0.546216,0.557710,0.480230,-0.399994,0.382772,-0.305532,-0.691023
259,3685281901,-0.547454,0.566012,0.470680,-0.397986,0.820281,-3.799894,-2.009969
260,3685315235,-0.542096,0.574674,0.466925,-0.397331,2.011861,-3.586233,-1.701094
261,3685348569,-0.540030,0.580193,0.465630,-0.393624,0.047969,0.549273,1.267519
262,3685381903,-0.543608,0.582367,0.463014,-0.388543,-0.562901,2.442591,0.770354
263,3685415237,-0.535156,0.588561,0.465373,-0.388125,0.258313,0.308023,0.796767
264,3685448571,-0.527071,0.591695,0.467776,-0.391519,-0.589276,1.328263,0.001099
265,3685481905,-0.520691,0.595616,0.468761,-0.392930,-0.765065,1.513712,0.411257
266,3685515239,-0.517802,0.599480,0.467216,-0.392711,-0.540513,1.467158,0.381895
267,3685548573,-0.516317,0.601173,0.465860,-0.393687,-0.435859,0.708752,0.147642
268,3685581907,-0.514595,0.601209,0.465910,-0.395822,-0.266339,-0.239892,0.007964
269,3685615241,-0.511518,0.600758,0.467416,-0.398710,-0.092031,-0.724835,0.213519
270,3685648575,-0.506212,0.600326,0.470602,-0.402367,0.198562,-0.352977,0.126077
271,3685681909,-0.499774,0.599986,0.474553,-0.406263,0.314593,0.073207,0.073119
272,3685715243,-0.492900,0.598925,0.479043,-0.410931,0.093475,-0.019233,-0.062528
273,3685748577,-0.484851,0.596565,0.484869,-0.417061,-0.097217,-0.119061,0.168166
274,3685781911,-0.475566,0.593472,0.491936,-0.423835,-0.265561,0.168705,0.179177
275,3685815245,-0.465881,0.590114,0.499319,-0.430592,-0.396638,0.440599,0.273680
276,3685848579,-0.456831,0.586524,0.506243,-0.437060,-0.528661,0.411520,0.226478
277,3685881913,-0.448190,0.582785,0.512940,-0.443157,-0.363857,0.351754,0.188782
278,3685915247,-0.440005,0.579125,0.519195,-0.448838,-0.231990,0.219415,0.199863
279,3685948581,-0.432759,0.575560,0.524752,-0.453975,-0.052438,-0.039948,0.120781
280,3685981915,-0.425831,0.572028,0.530171,-0.458671,0.179323,-0.155834,0.085734
281,3686015249,-0.418895,0.568447,0.535544,-0.463246,0.333635,-0.291879,0.099882
282,3686048583,-0.412054,0.565011,0.540796,-0.467463,0.459019,-0.215134,0.062745
283,3686081917,-0.405733,0.561283,0.545573,-0.471912,0.245705,-0.088588,0.192350
284,3686115251,-0.399696,0.557741,0.549865,-0.476262,0.302868,0.014249,0.173912
285,3686148585,-0.393286,0.554369,0.553928,-0.480805,0.284821,-0.116815,0.032543
286,3686181919,-0.386325,0.551088,0.558042,-0.485441,0.345054,-0.287093,0.133595
287,3686215253,-0.379248,0.548808,0.561717,-0.489350,0.363957,-0.014837,0.028104
288,3686248587,-0.373139,0.547988,0.564632,-0.491605,0.095081,-0.235735,0.104098
289,3686281921,-0.366134,0.547417,0.567728,-0.493937,0.100257,-0.559994,0.063914
290,3686315255,-0.359518,0.547860,0.570574,-0.495025,-0.193167,-0.335513,0.011134
291,3686348589,-0.353799,0.548568,0.573234,-0.495288,-0.560108,-0.127559,0.120440
292,3686381923,-0.349684,0.548982,0.575265,-0.495397,-0.806221,0.117410,0.145034
293,3686415257,-0.346172,0.549601,0.576965,-0.495201,-0.443274,0.312722,0.262830
294,3686448591,-0.343544,0.550243,0.577740,-0.495414,-0.279454,0.241440,0.187834
295,3686481925,-0.342872,0.551226,0.577416,-0.495164,-0.079008,0.302574,0.233031
296,3686515259,-0.343475,0.552213,0.576083,-0.495199,-0.017024,0.272610,0.153662
297,3686548593,-0.345245,0.553834,0.573959,-0.494625,0.172198,0.234106,0.108675
298,3686581927,-0.347464,0.555450,0.571376,-0.494249,0.185519,-0.206914,0.103619
299,3686615261,-0.349928,0.557318,0.568785,-0.493396,-0.060785,-0.018455,0.132097
300,3686648595,-0.352191,0.558759,0.566622,-0.492644,-0.211710,-0.170658,0.082647
301,3686681929,-0.352652,0.558800,0.566026,-0.492952,-0.065943,-0.448820,0.135514
302,3686715263,-0.351477,0.557684,0.566991,-0.493945,-0.060870,-0.014586,0.089273
303,3686748597,-0.350565,0.556957,0.568099,-0.494141,-0.216445,0.282357,0.062274
304,3686781931,-0.350363,0.556841,0.568451,-0.494010,-0.176338,0.077877,0.073197
305,3686815265,-0.349972,0.556677,0.568701,-0.494184,-0.140100,-0.317134,0.102714
306,3686848599,-0.348871,0.556045,0.569573,-0.494669,-0.260566,0.006765,0.143279
307,3686881933,-0.347282,0.555022,0.571149,-0.495118,-0.358042,-0.040874,0.092008
308,3686915267,-0.345207,0.553791,0.573168,-0.495615,-0.257336,0.010244,0.128031
309,3686948601,-0.343310,0.552660,0.575160,-0.495888,-0.095504,0.167122,0.135520
310,3686981935,-0.341883,0.551932,0.576625,-0.495982,0.030230,0.297852,0.142947
311,3687015269,-0.341467,0.551693,0.577107,-0.495974,0.055342,0.327638,0.183029
312,3687048603,-0.342387,0.552005,0.576477,-0.495725,0.108567,0.179125,0.108146
313,3687081937,-0.343630,0.552772,0.575307,-0.495369,0.377861,-0.042239,0.198642
314,3687115271,-0.345943,0.554211,0.573299,-0.494479,0.080010,0.256649,0.158874
315,3687148605,-0.348939,0.556509,0.570548,-0.492973,0.090491,0.138884,0.033574
316,3687181939,-0.352288,0.559367,0.567280,-0.491125,0.081590,-0.196907,0.073520
317,3687215273,-0.354586,0.561578,0.564736,-0.489878,-0.114948,-0.617285,0.093745
318,3687248607,-0.355433,0.562937,0.563582,-0.489033,-0.223242,-0.328158,0.071827
319,3687281941,-0.355491,0.563857,0.563438,-0.488095,-0.095852,0.000936,0.116834
320,3687315275,-0.355904,0.564889,0.562947,-0.487167,0.135411,0.116940,0.175972
321,3687348609,-0.357086,0.566305,0.561563,-0.486254,0.304773,0.168674,0.159212
322,3687381943,-0.359285,0.568558,0.558964,-0.484999,0.334014,0.229090,0.177850
323,3687415277,-0.362578,0.571596,0.555230,-0.483263,0.297964,0.135908,0.199280
324,3687448611,-0.366741,0.574836,0.550914,-0.481214,0.053163,0.037377,0.138509
325,3687481945,-0.370758,0.577652,0.546837,-0.479410,-0.177009,0.102460,0.150091
326,3687515279,-0.374412,0.580177,0.543131,-0.477731,-0.256849,0.380823,0.135507
327,3687548613,-0.378161,0.582848,0.539333,-0.475826,-0.286438,0.254112,0.095904
328,3687581947,-0.381521,0.585255,0.535817,-0.474159,-0.293380,0.008852,0.116652
329,3687615281,-0.384568,0.587366,0.532652,-0.472650,-0.210752,0.163205,0.059699
330,3687648615,-0.387327,0.589291,0.529762,-0.471247,-0.101711,-0.066614,0.041999
331,3687681949,-0.389043,0.590483,0.527791,-0.470553,0.012159,-0.455278,0.006444
332,3687715283,-0.389214,0.591119,0.527145,-0.470337,0.131629,-0.399747,0.044919
333,3687748617,-0.388333,0.591596,0.527358,-0.470228,0.100635,-0.207137,0.057778
334,3687781951,-0.386960,0.591784,0.527897,-0.470517,0.097934,-0.149746,0.147858
335,3687815285,-0.385841,0.592006,0.528238,-0.470775,-0.053555,0.095058,0.165996
336,3687848619,-0.385452,0.592523,0.527945,-0.470770,-0.068003,0.300757,0.116032
337,3687881953,-0.386419,0.593378,0.526546,-0.470468,-0.117314,0.181173,0.217712
338,3687915287,-0.388025,0.594229,0.524727,-0.470104,-0.120108,0.071036,0.145563
339,3687948621,-0.389569,0.594870,0.523143,-0.469782,-0.130224,-0.051258,0.120073
340,3687981955,-0.390692,0.595052,0.522125,-0.469752,-0.109708,-0.151908,0.056117
341,3688015289,-0.390995,0.594906,0.521858,-0.469982,-0.068444,-0.269597,0.146808
342,3688048623,-0.390997,0.594675,0.522027,-0.470085,-0.032331,0.015493,0.122067
343,3688081957,-0.390728,0.594379,0.522526,-0.470128,0.002105,0.130663,0.100799
344,3688115291,-0.390060,0.593890,0.523340,-0.470396,0.102238,0.008929,0.178514
345,3688148625,-0.389506,0.593547,0.523828,-0.470743,0.113205,-0.006759,0.178124
346,3688181959,-0.390008,0.594037,0.523302,-0.470294,0.181921,0.188509,0.016763
347,3688215293,-0.391263,0.594669,0.522130,-0.469756,0.181780,-0.175399,0.078059
348,3688248627,-0.392208,0.595088,0.521136,-0.469541,0.132204,-0.242373,0.204576
349,3688281961,-0.392964,0.595257,0.520464,-0.469440,-0.185372,-0.139701,0.042194
350,3688315295,-0.393585,0.595514,0.519989,-0.469119,-0.303472,-0.140305,0.062111
351,3688348629,-0.394283,0.596106,0.519430,-0.468400,-0.285416,-0.152615,0.067339
352,3688381963,-0.395137,0.596882,0.518875,-0.467307,-0.239759,0.056124,0.131115
353,3688415297,-0.396741,0.598020,0.517804,-0.465678,-0.259967,0.121829,0.120854
354,3688448631,-0.399377,0.599455,0.515942,-0.463642,-0.286461,0.033997,0.228005
355,3688481965,-0.402632,0.601154,0.513733,-0.461073,0.102686,0.029239,0.040552
356,3688515299,-0.405862,0.602693,0.511354,-0.458871,0.275455,-0.212542,0.124149
357,3688548633,-0.409503,0.604247,0.508378,-0.456894,0.280766,-0.182720,0.019926
358,3688581967,-0.413446,0.605912,0.505141,-0.454725,0.241856,-0.343228,0.081688
359,3688615301,-0.416911,0.607732,0.501940,-0.452672,0.084678,-0.180776,0.046793
360,3688648635,-0.420274,0.610334,0.498651,-0.449687,0.078715,-0.081495,0.154193
361,3688681969,-0.423785,0.613429,0.494996,-0.446205,0.054660,0.177328,0.177953
362,3688715303,-0.427830,0.616601,0.490694,-0.442711,-0.091068,0.334310,0.179470
363,3688748637,-0.432926,0.619787,0.485659,-0.438841,-0.152241,0.394422,0.219828
364,3688781971,-0.438638,0.622646,0.480265,-0.435043,-0.058832,0.372496,0.277773
365,3688815305,-0.444999,0.625391,0.474309,-0.431163,-0.034191,0.120665,0.099093
366,3688848639,-0.451318,0.628205,0.468195,-0.427167,0.250946,0.021379,0.097733
367,3688881973,-0.457728,0.631040,0.461868,-0.423036,0.359370,-0.096615,0.090649
368,3688915307,-0.464174,0.633677,0.455583,-0.418865,0.199160,-0.067658,0.100559
369,3688948641,-0.469841,0.636035,0.449898,-0.415100,0.055798,-0.060871,0.102690
370,3688981975,-0.474611,0.638062,0.444979,-0.411853,-0.150960,-0.149298,0.065179
371,3689015309,-0.478359,0.639683,0.441094,-0.409173,-0.257765,0.054398,0.102590
372,3689048643,-0.481164,0.640764,0.438217,-0.407279,-0.357858,0.170542,0.101967
373,3689081977,-0.483200,0.641289,0.436300,-0.406101,-0.387423,0.133599,0.072919
374,3689115311,-0.484296,0.641468,0.435463,-0.405408,-0.226719,0.229675,0.103070
375,3689148645,-0.484785,0.641386,0.435244,-0.405189,-0.237854,0.068894,0.088456
376,3689181979,-0.484787,0.641135,0.435541,-0.405265,-0.156499,0.203190,0.103403
377,3689215313,-0.484341,0.640836,0.436278,-0.405479,-0.064588,0.285245,0.097311
378,3689248647,-0.483876,0.640584,0.437009,-0.405644,0.001433,0.251639,0.109497
379,3689281981,-0.483321,0.640163,0.437773,-0.406147,0.066200,0.095023,0.088497
380,3689315315,-0.482398,0.639452,0.438872,-0.407178,-0.068816,-0.252434,0.048977
381,3689348649,-0.480069,0.638246,0.441200,-0.409300,-0.131462,-0.302098,0.123440
382,3689381983,-0.476250,0.636705,0.445062,-0.411971,-0.113396,0.058293,0.088670
383,3689415317,-0.471366,0.634611,0.450121,-0.415309,-0.130991,0.210073,0.091246
384,3689448651,-0.465761,0.631594,0.456198,-0.419580,-0.339883,0.096670,0.098074
385,3689481985,-0.459165,0.627805,0.463296,-0.424728,-0.365283,0.108427,0.097769
386,3689515319,-0.451757,0.623619,0.471218,-0.430089,-0.390551,-0.027134,0.059653
387,3689548653,-0.443588,0.618535,0.480192,-0.435968,-0.454027,-0.187600,0.105719
388,3689581987,-0.434713,0.612657,0.490037,-0.442207,-0.348490,-0.073266,0.083169
389,3689615321,-0.425288,0.606380,0.500474,-0.448293,-0.183571,-0.030734,0.056895
390,3689648655,-0.415735,0.600022,0.510926,-0.453983,-0.028427,-0.032392,0.054857
391,3689681989,-0.406395,0.593762,0.521025,-0.459163,0.142282,-0.144627,0.152209
392,3689715323,-0.396974,0.587550,0.530991,-0.463954,0.265283,-0.222603,0.103376
393,3689748657,-0.386970,0.581322,0.541243,-0.468384,0.467776,-0.338646,0.213943
394,3689781991,-0.377302,0.575325,0.550854,-0.472452,0.432476,-0.177078,0.165384
395,3689815325,-0.368054,0.569820,0.559576,-0.476155,0.472014,-0.087910,0.137532
396,3689848659,-0.359027,0.564354,0.567716,-0.479908,0.618935,-0.270404,0.169731
397,3689881993,-0.349219,0.558529,0.575928,-0.484156,0.541307,-0.218612,0.232224
398,3689915327,-0.339507,0.553443,0.583504,-0.487819,0.079015,0.095369,0.095261
399,3689948661,-0.330586,0.548866,0.590420,-0.490787,-0.309611,0.153133,0.179643
400,3689981995,-0.323583,0.544702,0.596140,-0.493172,-0.686444,0.513959,0.052839
401,3690015329,-0.317865,0.541266,0.600923,-0.494866,-0.653603,0.407857,0.086925
402,3690048663,-0.311815,0.536672,0.606053,-0.497457,-0.457698,0.248362,0.268375
403,3690081997,-0.306741,0.531976,0.610451,-0.500269,-0.341809,0.265586,0.152017
404,3690115331,-0.303646,0.528701,0.613347,-0.502084,0.063324,0.509588,0.144889
405,3690148665,-0.303559,0.527333,0.613958,-0.502828,0.537940,0.535249,0.209410
406,3690181999,-0.306229,0.527878,0.612177,-0.502808,0.676397,0.397954,0.100473
407,3690215333,-0.310576,0.530281,0.608523,-0.502048,0.788508,-0.155402,0.160469
408,3690248667,-0.314643,0.533217,0.604574,-0.501176,0.750167,-0.427953,0.153445
409,3690282001,-0.318753,0.536607,0.600492,-0.499867,0.643952,-0.157892,0.074766
410,3690315335,-0.323254,0.541037,0.595855,-0.497746,0.352619,0.054523,0.085009
411,3690348669,-0.328771,0.546216,0.590215,-0.495189,0.016880,0.081965,0.155210
412,3690382003,-0.334708,0.551216,0.584068,-0.492955,-0.380688,0.198374,0.176118
413,3690415337,-0.340197,0.555557,0.578233,-0.491200,-0.438257,0.140952,0.106604
414,3690448671,-0.345223,0.558993,0.573230,-0.489657,-0.278088,0.013527,0.116047
415,3690482005,-0.349816,0.561697,0.568884,-0.488370,-0.286708,0.110058,0.116343
416,3690515339,-0.354009,0.563827,0.565195,-0.487176,-0.137884,0.150058,0.080709
417,3690548673,-0.357523,0.565816,0.562278,-0.485676,0.073618,0.094718,0.075772
418,3690582007,-0.360244,0.567499,0.559830,-0.484528,0.041092,-0.377702,0.097170
419,3690615341,-0.361971,0.568221,0.558226,-0.484245,0.023492,-0.518613,0.091763
420,3690648675,-0.362328,0.567840,0.557778,-0.484942,0.131365,-0.508159,0.083719
421,3690682009,-0.362508,0.567776,0.557517,-0.485182,-0.092781,-0.210017,0.016579
422,3690715343,-0.361723,0.567113,0.558094,-0.485878,-0.102549,-0.413336,0.083570
423,3690748677,-0.359833,0.565748,0.559691,-0.487036,-0.165004,-0.163125,0.086097
424,3690782011,-0.357541,0.564343,0.561607,-0.488147,-0.292830,0.006566,0.165712
425,3690815345,-0.356005,0.562932,0.563148,-0.489123,-0.260419,0.015890,0.195577
426,3690848679,-0.356398,0.560837,0.564429,-0.489765,-0.104987,0.202372,0.409179
427,3690882013,-0.359895,0.558338,0.565427,-0.488912,-0.009276,0.176639,0.606943
428,3690915347,-0.367032,0.554079,0.566215,-0.487537,-0.280983,0.299728,0.254480
429,3690948681,-0.371270,0.550710,0.568887,-0.485028,-0.540751,0.315296,-0.065269
430,3690982015,-0.371751,0.546846,0.573500,-0.483597,0.033917,0.382412,-0.143282
431,3691015349,-0.373000,0.545105,0.575522,-0.482197,0.565932,-0.072745,-0.110439
432,3691048683,-0.373936,0.544704,0.575944,-0.481421,0.626889,-0.610388,-0.062696
433,3691082017,-0.373656,0.544867,0.576741,-0.480498,0.269662,-0.276750,0.149387
434,3691115351,-0.373877,0.545104,0.576886,-0.479883,-0.034081,0.319816,0.144718
435,3691148685,-0.374406,0.545675,0.576514,-0.479269,-0.064142,0.135409,0.040563
436,3691182019,-0.374782,0.546020,0.576392,-0.478728,-0.440407,0.285548,0.194965
437,3691215353,-0.375731,0.546964,0.575391,-0.478110,-0.446887,0.298933,0.090509
438,3691248687,-0.377666,0.549078,0.573276,-0.476701,-0.271247,-0.038861,0.041303
439,3691282021,-0.379719,0.551347,0.571007,-0.475173,-0.103926,-0.157832,-0.002685
440,3691315355,-0.381084,0.553865,0.569161,-0.473363,-0.100976,-0.275756,0.094546
441,3691348689,-0.382333,0.556218,0.567300,-0.471829,-0.244176,-0.100795,0.230640
442,3691382023,-0.384444,0.558343,0.565233,-0.470081,-0.260466,0.048954,0.157529
443,3691415357,-0.386919,0.560224,0.563222,-0.468222,-0.241712,0.176997,0.083270
444,3691448691,-0.389748,0.562511,0.560762,-0.466081,-0.214657,0.222819,0.151698
445,3691482025,-0.393600,0.565307,0.557566,-0.463288,0.077009,0.121664,0.159390
446,3691515359,-0.398238,0.568316,0.553588,-0.460405,0.233697,0.180736,0.170292
447,3691548693,-0.403651,0.571613,0.548939,-0.457164,0.256587,-0.383948,0.208200
448,3691582027,-0.409170,0.574903,0.544114,-0.453887,0.198203,0.287594,0.064431
449,3691615361,-0.415292,0.578709,0.538596,-0.450057,0.021850,0.154750,0.128051
450,3691648695,-0.421061,0.582678,0.532884,-0.446360,-0.127762,0.086855,0.123055
451,3691682029,-0.427265,0.586950,0.526562,-0.442352,-0.137295,0.340170,0.160984
452,3691715363,-0.433617,0.591115,0.520251,-0.438071,0.000524,0.137611,0.220363
453,3691748697,-0.439750,0.594830,0.514317,-0.433917,0.105609,0.050287,0.124683
454,3691782031,-0.445446,0.598179,0.508592,-0.430236,0.077217,-0.145715,0.100856
455,3691815365,-0.450701,0.601412,0.502944,-0.426881,0.102442,0.070215,0.153259
456,3691848699,-0.456165,0.604604,0.497151,-0.423340,0.126354,0.116297,0.144466
457,3691882033,-0.461772,0.607835,0.491272,-0.419479,0.234149,0.121787,0.147195
458,3691915367,-0.467615,0.611479,0.484714,-0.415319,0.244994,0.009258,0.075544
459,3691948701,-0.473604,0.615412,0.477589,-0.410955,0.130929,-0.063201,-0.014913
460,3691982035,-0.479244,0.619142,0.470712,-0.406727,0.039016,-0.059824,0.030890
461,3692015369,-0.484204,0.622614,0.464343,-0.402855,-0.191031,-0.136556,0.056691
462,3692048703,-0.488016,0.625370,0.459281,-0.399778,-0.370625,-0.123317,0.098874
463,3692082037,-0.490615,0.627122,0.455930,-0.397683,-0.428791,0.195935,0.111383
464,3692115371,-0.492163,0.628163,0.454066,-0.396257,-0.468988,0.090812,0.041393
465,3692148705,-0.492739,0.628330,0.453645,-0.395757,-0.358327,0.089845,0.142955
466,3692182039,-0.492694,0.628166,0.453938,-0.395738,-0.182682,0.103213,0.111508
467,3692215373,-0.492357,0.627784,0.454624,-0.395976,-0.117559,0.069096,0.093613
468,3692248707,-0.491877,0.627223,0.455581,-0.396363,0.030811,-0.025641,0.100635
469,3692282041,-0.491388,0.626576,0.456454,-0.396988,0.071071,-0.029611,0.036901
470,3692315375,-0.490448,0.626140,0.457454,-0.397685,0.041734,0.077031,0.182456
471,3692348709,-0.489415,0.626006,0.458272,-0.398226,0.187024,0.076796,0.130688
472,3692382043,-0.488341,0.625834,0.459036,-0.398936,0.168660,0.123882,0.069109
473,3692415377,-0.486701,0.625478,0.460205,-0.400148,0.020391,0.062726,0.128808
474,3692448711,-0.484377,0.624692,0.462194,-0.401901,-0.132831,0.118600,0.177790
475,3692482045,-0.481664,0.623503,0.464724,-0.404083,-0.175780,0.037812,0.105704
476,3692515379,-0.478207,0.621851,0.467957,-0.406994,-0.255012,0.111663,0.056823
477,3692548713,-0.473875,0.619369,0.472520,-0.410558,-0.308045,-0.034252,0.201076
478,3692582047,-0.468787,0.616245,0.478094,-0.414625,-0.239793,0.140092,0.104650
479,3692615381,-0.463404,0.613007,0.483731,-0.418917,-0.262903,0.171970,0.227524
480,3692648715,-0.458254,0.609871,0.489161,-0.422836,-0.098781,0.154580,0.095004
481,3692682049,-0.453193,0.606876,0.494025,-0.426925,0.029226,0.143907,0.024256
482,3692715383,-0.448195,0.604153,0.498303,-0.431072,-0.038156,0.083010,0.183371
483,3692748717,-0.443405,0.601115,0.502715,-0.435131,-0.009158,-0.040906,0.091907
484,3692782051,-0.438364,0.597867,0.507328,-0.439338,0.026714,0.037849,0.083472
485,3692815385,-0.432991,0.594589,0.511862,-0.443833,0.082723,0.138342,0.121555
486,3692848719,-0.427458,0.591640,0.516555,-0.447683,0.035483,0.188915,0.166888
487,3692882053,-0.422369,0.588749,0.521238,-0.450886,0.070877,0.116840,0.138027
488,3692915387,-0.417595,0.586083,0.525409,-0.453954,0.034632,0.404434,0.203956
489,3692948721,-0.414121,0.583606,0.528558,-0.456665,-0.081793,0.383761,0.165426
490,3692982055,-0.411177,0.580875,0.531499,-0.459385,-0.034177,-0.138134,0.053858
491,3693015389,-0.407465,0.578124,0.534614,-0.462538,0.100503,-0.348879,0.056799
492,3693048723,-0.402327,0.574648,0.539098,-0.466148,0.328877,-0.488332,0.071435
493,3693082057,-0.394831,0.570548,0.545096,-0.470597,0.352074,-0.637129,0.023769
494,3693115391,-0.385499,0.566701,0.551955,-0.474968,0.381360,-0.509312,0.034181
495,3693148725,-0.374897,0.563032,0.559355,-0.479143,0.259249,-0.071117,0.110703
496,3693182059,-0.364606,0.559926,0.566199,-0.482671,-0.155286,0.183402,0.017520
497,3693215393,-0.354957,0.557339,0.572544,-0.485366,-0.623570,0.444440,0.186268
498,3693248727,-0.346904,0.554091,0.577961,-0.488476,-1.005818,0.311270,0.262289
499,3693282061,-0.339473,0.550422,0.583234,-0.491570,-0.850065,0.575121,0.267744
500,3693315395,-0.333367,0.547178,0.587573,-0.494195,-0.532676,0.436966,0.220379
501,3693348729,-0.330183,0.544745,0.590144,-0.495954,-0.244313,0.434969,0.160481
502,3693382063,-0.329124,0.542964,0.591302,-0.497230,0.376579,0.007150,0.225082
503,3693415397,-0.328958,0.542142,0.591534,-0.497960,0.667118,-0.122349,0.091529
504,3693448731,-0.329045,0.542118,0.591240,-0.498278,0.767360,-0.349003,0.091578
505,3693482065,-0.329712,0.542630,0.590478,-0.498183,0.696172,-0.134190,0.065962
506,3693515399,-0.331493,0.544428,0.588920,-0.496883,0.296903,0.177677,0.151248
507,3693548733,-0.333598,0.546325,0.586895,-0.495786,0.316910,-0.213395,0.203865
508,3693582067,-0.335050,0.547936,0.584951,-0.495326,0.552585,-0.024852,0.183653
509,3693615401,-0.337452,0.550314,0.582208,-0.494291,0.569848,0.252423,0.136643
510,3693648735,-0.340652,0.553226,0.578616,-0.493060,0.660251,0.006882,0.140622
511,3693682069,-0.343545,0.556181,0.574916,-0.492056,0.698401,-0.247643,0.109697
512,3693715403,-0.345734,0.559244,0.571580,-0.490936,0.362122,-0.110103,0.126701
513,3693748737,-0.347885,0.562043,0.568229,-0.490110,-0.324850,-0.104169,0.078258
514,3693782071,-0.350018,0.564724,0.565269,-0.488930,-0.581536,0.000247,0.085875
515,3693815405,-0.350962,0.566459,0.563484,-0.488307,-0.706742,-0.294115,0.086091
516,3693848739,-0.350239,0.566927,0.563116,-0.488706,-0.755508,-0.152890,0.071515
517,3693882073,-0.349278,0.566770,0.563463,-0.489176,-0.626445,0.066558,0.077520
518,3693915407,-0.348829,0.566300,0.563902,-0.489535,-0.453584,0.063172,0.132889
519,3693948741,-0.348872,0.565833,0.564039,-0.489887,-0.277419,-0.069174,0.173683
520,3693982075,-0.349354,0.565492,0.563964,-0.490023,-0.069490,-0.097372,0.095693
521,3694015409,-0.350235,0.565335,0.563650,-0.489937,0.132221,-0.121953,0.109035
522,3694048743,-0.351487,0.565480,0.563070,-0.489541,0.239066,-0.219249,0.132362
523,3694082077,-0.352862,0.565790,0.562330,-0.489042,0.213176,-0.153715,0.142732
524,3694115411,-0.354277,0.566304,0.561490,-0.488391,0.206710,-0.234383,0.137265
525,3694148745,-0.355737,0.566981,0.560555,-0.487616,0.150563,-0.212797,0.147070
526,3694182079,-0.356886,0.567245,0.559925,-0.487194,0.077236,-0.120677,0.104543
527,3694215413,-0.357672,0.567120,0.559721,-0.486997,0.097039,0.041747,0.092655
528,3694248747,-0.358044,0.566432,0.559859,-0.487365,0.093696,0.017529,0.167715
529,3694282081,-0.358538,0.565609,0.559898,-0.487914,0.105591,0.121371,0.169896
530,3694315415,-0.359707,0.565105,0.559386,-0.488224,0.020169,0.304176,0.080755
531,3694348749,-0.361216,0.564918,0.558388,-0.488470,0.009345,0.126922,0.123124
532,3694382083,-0.362741,0.564906,0.557204,-0.488704,-0.029721,-0.126182,0.049675
533,3694415417,-0.363911,0.565134,0.556123,-0.488803,-0.055087,-0.113514,0.057181
534,3694448751,-0.364753,0.565580,0.555355,-0.488532,-0.149573,-0.146198,0.059012
535,3694482085,-0.364885,0.565856,0.555242,-0.488243,-0.309861,-0.094090,0.075825
536,3694515419,-0.364005,0.565670,0.555946,-0.488314,-0.407138,-0.007690,0.131016
537,3694548753,-0.362801,0.565098,0.557019,-0.488649,-0.424098,0.202503,0.162748
538,3694582087,-0.362050,0.564486,0.557999,-0.488795,-0.388991,0.245031,0.117059
539,3694615421,-0.361956,0.564175,0.558505,-0.488646,-0.213974,0.362542,0.110567
540,3694648755,-0.362761,0.564140,0.558278,-0.488348,-0.029760,0.028032,0.141627
541,3694682089,-0.363895,0.564172,0.557805,-0.488009,0.130970,-0.021834,0.153725
542,3694715423,-0.365278,0.564470,0.557079,-0.487459,0.279089,-0.129386,0.112249
543,3694748757,-0.366677,0.564822,0.556233,-0.486967,0.324606,-0.144411,0.092514
544,3694782091,-0.367810,0.565252,0.555380,-0.486587,0.360434,-0.136870,0.102267
545,3694815425,-0.368831,0.565950,0.554402,-0.486118,0.157457,-0.017499,0.109828
546,3694848759,-0.369828,0.567002,0.553318,-0.485370,0.013838,0.207996,0.112078
547,3694882093,-0.370829,0.568045,0.552228,-0.484628,-0.075519,0.181648,0.138112
548,3694915427,-0.372042,0.569102,0.551016,-0.483837,-0.211526,0.151548,0.088051
549,3694948761,-0.372991,0.569830,0.550023,-0.483377,-0.137031,-0.051775,0.115389
550,3694982095,-0.373286,0.569902,0.549787,-0.483335,-0.050648,-0.101075,0.257947
551,3695015429,-0.373647,0.569689,0.549649,-0.483463,-0.099051,-0.003350,0.037084
552,3695048763,-0.373121,0.569248,0.550159,-0.483808,0.088182,0.014331,0.090539
553,3695082097,-0.373132,0.569177,0.550133,-0.483913,-0.054423,0.013816,0.090247
554,3695115431,-0.373543,0.569457,0.549613,-0.483857,-0.180045,-0.014958,0.069204
555,3695148765,-0.373703,0.569616,0.549449,-0.483732,-0.176162,-0.185893,0.069231
556,3695182099,-0.373206,0.569658,0.549845,-0.483617,-0.286379,-0.199931,0.105241
557,3695215433,-0.372547,0.569845,0.550527,-0.483130,-0.119133,0.045979,0.100382
558,3695248767,-0.372644,0.570246,0.550695,-0.482389,0.096539,0.041185,0.077650
559,3695282101,-0.373151,0.570938,0.550111,-0.481845,0.196916,-0.338711,0.094810
560,3695315435,-0.373113,0.572064,0.549779,-0.480917,0.363273,0.207233,0.147167
561,3695348769,-0.374160,0.573759,0.548496,-0.479546,-0.001795,0.009272,0.150902
562,3695382103,-0.375746,0.575591,0.546472,-0.478421,-0.088297,0.252834,0.168765
563,3695415437,-0.378572,0.577305,0.543790,-0.477182,-0.008994,0.303882,0.221272
564,3695448771,-0.382350,0.579559,0.540288,-0.475413,0.048407,0.313026,0.139400
565,3695482105,-0.386212,0.581960,0.536429,-0.473725,0.219239,0.064650,0.083367
566,3695515439,-0.389545,0.583560,0.533192,-0.472681,0.335312,-0.248444,0.152094
567,3695548773,-0.392492,0.584796,0.530322,-0.471943,0.171860,-0.166112,0.100687
568,3695582107,-0.394838,0.585997,0.527952,-0.471152,-0.036531,-0.267676,0.055116
569,3695615441,-0.396325,0.586804,0.526554,-0.470464,-0.032535,0.098927,0.105236
570,3695648775,-0.396800,0.586912,0.526080,-0.470459,-0.073896,-0.022941,0.071105
571,3695682109,-0.395726,0.586072,0.526918,-0.471473,-0.129262,-0.274020,0.024362
572,3695715443,-0.393678,0.584355,0.528863,-0.473137,-0.230255,-0.134128,0.142492
573,3695748777,-0.391334,0.582503,0.531100,-0.474857,-0.504690,-0.321361,0.015569
574,3695782111,-0.387753,0.580007,0.534715,-0.476789,-0.546160,-0.144871,0.081445
575,3695815445,-0.382970,0.576729,0.539631,-0.479087,-0.567080,0.194220,0.149041
576,3695848779,-0.377602,0.573441,0.544868,-0.481362,-0.483613,0.319654,0.138600
577,3695882113,-0.372661,0.570418,0.549744,-0.483257,-0.277696,0.355766,0.215284
578,3695915447,-0.369038,0.568018,0.553337,-0.484761,-0.075201,0.328198,0.148032
579,3695948781,-0.366623,0.566448,0.555558,-0.485889,0.151698,0.022084,0.136594
580,3695982115,-0.365322,0.565911,0.556763,-0.486115,0.197744,0.155279,0.172166
581,3696015449,-0.364980,0.566037,0.556983,-0.485973,0.163309,-0.083910,0.146520
582,3696048783,-0.365234,0.566591,0.556477,-0.485717,0.063205,-0.064086,0.109407
583,3696082117,-0.365500,0.567041,0.555976,-0.485565,-0.037229,-0.116117,0.122046
584,3696115451,-0.365764,0.567481,0.555740,-0.485122,-0.071081,0.281218,0.135594
585,3696148785,-0.366300,0.568119,0.555155,-0.484640,-0.049748,0.094293,0.143538
586,3696182119,-0.367399,0.568944,0.554061,-0.484091,0.050375,0.042674,0.101683
587,3696215453,-0.368714,0.569828,0.552932,-0.483343,0.150850,0.044768,0.101444
588,3696248787,-0.369755,0.570618,0.551913,-0.482780,0.085163,-0.139015,0.125978
589,3696282121,-0.370384,0.570956,0.551279,-0.482623,0.093564,-0.150913,0.108965
590,3696315455,-0.370830,0.570870,0.551062,-0.482630,0.038830,0.101997,0.113559
591,3696348789,-0.371342,0.570532,0.550904,-0.482817,-0.129745,0.025930,0.102968
592,3696382123,-0.371284,0.570133,0.550969,-0.483257,-0.074705,-0.136008,0.089067
593,3696415457,-0.371221,0.570031,0.551058,-0.483325,-0.049222,-0.052524,0.057676
594,3696448791,-0.370918,0.569584,0.551476,-0.483608,-0.093655,-0.236997,0.101052
595,3696482125,-0.369966,0.568710,0.552539,-0.484152,-0.060938,-0.154119,0.087578
596,3696515459,-0.368588,0.567853,0.553953,-0.484593,-0.049099,0.032854,0.117878
597,3696548793,-0.367400,0.567077,0.555171,-0.485009,-0.096961,0.080454,0.130995
598,3696582127,-0.366714,0.566683,0.555927,-0.485123,-0.072917,0.099459,0.136705
599,3696615461,-0.366464,0.566449,0.556265,-0.485197,-0.024810,-0.048588,0.102784
600,3696648795,-0.366207,0.566264,0.556636,-0.485183,0.032915,-0.095765,0.105565
601,3696682129,-0.366335,0.566238,0.556831,-0.484892,0.023799,0.165298,0.126100
602,3696715463,-0.367077,0.566469,0.556401,-0.484555,0.040196,-0.064411,0.133150
603,3696748797,-0.368059,0.567110,0.555635,-0.483939,0.106866,0.015825,0.105132
604,3696782131,-0.369161,0.567887,0.554741,-0.483213,0.045834,-0.015197,0.115881
605,3696815465,-0.370249,0.568546,0.553867,-0.482609,-0.021060,0.052520,0.105433
606,3696848799,-0.371280,0.569008,0.553078,-0.482176,0.051699,0.004441,0.116302
607,3696882133,-0.372265,0.569559,0.552247,-0.481719,0.052560,0.054408,0.128716
608,3696915467,-0.373089,0.570062,0.551479,-0.481367,0.033458,0.036652,0.109101
609,3696948801,-0.373904,0.570627,0.550755,-0.480892,0.122342,0.344682,0.138982
610,3696982135,-0.374699,0.571356,0.549896,-0.480391,0.185074,-0.214445,0.063859
611,3697015469,-0.374627,0.571481,0.549715,-0.480505,0.161652,-0.067111,0.119774
612,3697048803,-0.374576,0.571703,0.549592,-0.480422,0.078094,-0.042744,0.083101
613,3697082137,-0.374588,0.571960,0.549342,-0.480393,-0.058682,0.005105,0.164204
614,3697115471,-0.374900,0.572366,0.548949,-0.480116,-0.187736,-0.134239,0.163897
615,3697148805,-0.375594,0.572799,0.548326,-0.479768,-0.280074,0.076555,0.106569
616,3697182139,-0.376670,0.573539,0.547472,-0.479014,-0.154026,0.063643,0.123982
617,3697215473,-0.378175,0.574747,0.546295,-0.477723,-0.041930,0.040970,0.127047
618,3697248807,-0.380429,0.576258,0.544411,-0.476261,-0.125126,-0.118162,0.126929
619,3697282141,-0.383571,0.578327,0.541854,-0.474145,-0.067521,0.115778,0.160432
620,3697315475,-0.387508,0.581147,0.538526,-0.471278,0.003145,0.108516,0.139441
621,3697348809,-0.391966,0.584404,0.534482,-0.468158,-0.010201,-0.040706,0.119028
622,3697382143,-0.396985,0.587743,0.529975,-0.464862,-0.037868,0.169193,0.210073
623,3697415477,-0.402940,0.591246,0.524620,-0.461355,-0.046181,0.178658,0.140365
624,3697448811,-0.409389,0.595030,0.518648,-0.457550,0.021418,-0.052062,0.113991
625,3697482145,-0.416190,0.598979,0.512273,-0.453426,-0.006590,0.032295,0.146207
626,3697515479,-0.423325,0.603170,0.505406,-0.448949,0.089515,-0.002672,0.146660
627,3697548813,-0.430636,0.607487,0.498314,-0.444076,0.108965,-0.021572,0.146522
628,3697582147,-0.437841,0.611257,0.491359,-0.439585,-0.013409,-0.099472,0.126180
629,3697615481,-0.445047,0.614833,0.484426,-0.435032,0.059069,0.128362,0.188969
630,3697648815,-0.452442,0.618539,0.477026,-0.430303,0.071304,0.093918,0.149549
631,3697682149,-0.460102,0.622387,0.469301,-0.425095,0.092084,0.110870,0.112929
632,3697715483,-0.467631,0.626217,0.461489,-0.419773,0.078058,0.018484,0.094625
633,3697748817,-0.474708,0.629867,0.453901,-0.414611,0.056156,0.010956,0.092787
634,3697782151,-0.481220,0.633275,0.446751,-0.409649,-0.037798,-0.008060,0.046651
635,3697815485,-0.486602,0.636114,0.440709,-0.405415,-0.158610,-0.085480,0.099905
636,3697848819,-0.490599,0.638285,0.436104,-0.402152,-0.217352,-0.055196,0.063025
637,3697882153,-0.493216,0.639787,0.433064,-0.399843,-0.274967,-0.016367,0.099936
638,3697915487,-0.494881,0.640745,0.431262,-0.398195,-0.252978,0.094738,0.121550
639,3697948821,-0.495745,0.641477,0.430314,-0.396966,-0.217095,0.179510,0.089718
640,3697982155,-0.496114,0.641932,0.429949,-0.396164,-0.126589,0.125339,0.098646
641,3698015489,-0.496224,0.642117,0.429912,-0.395766,-0.072576,0.045467,0.159618
642,3698048823,-0.496101,0.642058,0.430174,-0.395733,0.032769,-0.061954,0.128769
643,3698082157,-0.495804,0.641715,0.430754,-0.396029,0.129547,-0.099374,0.065021
644,3698115491,-0.495372,0.641056,0.431757,-0.396545,0.115082,-0.051190,0.093839
645,3698148825,-0.494494,0.639949,0.433361,-0.397677,-0.039339,0.030662,0.099797
646,3698182159,-0.493149,0.638675,0.435433,-0.399130,-0.116929,0.124097,0.103187
647,3698215493,-0.491277,0.637240,0.438085,-0.400827,-0.080702,0.155525,0.132960
648,3698248827,-0.488619,0.635497,0.441501,-0.403088,-0.098590,0.064181,0.112172
649,3698282161,-0.485261,0.633283,0.445642,-0.406061,-0.178881,0.056222,0.074663
650,3698315495,-0.481103,0.630400,0.450847,-0.409733,-0.268106,-0.029591,0.110533
651,3698348829,-0.475898,0.626725,0.457305,-0.414267,-0.178323,0.111680,0.141176
652,3698382163,-0.469957,0.622431,0.464563,-0.419416,-0.154623,0.120548,0.153507
653,3698415497,-0.463832,0.617477,0.472192,-0.425002,-0.168375,0.170629,0.160027
654,3698448831,-0.458050,0.612042,0.479683,-0.430705,-0.202887,0.295672,0.195839
655,3698482165,-0.452808,0.606861,0.486571,-0.435823,-0.070676,0.448577,0.142582
656,3698515499,-0.448118,0.602108,0.492639,-0.440420,-0.026029,0.233068,0.093338
657,3698548833,-0.443792,0.597733,0.498222,-0.444462,0.043913,0.123138,0.111459
658,3698582167,-0.439269,0.593314,0.503904,-0.448454,0.040028,-0.109321,0.071958
659,3698615501,-0.434463,0.588945,0.509657,-0.452376,0.093117,-0.204256,0.074573
660,3698648835,-0.429317,0.584730,0.515531,-0.456085,0.186024,-0.228530,0.092389
661,3698682169,-0.424079,0.580818,0.521294,-0.459421,0.238049,-0.155740,0.079465
662,3698715503,-0.419158,0.576834,0.526829,-0.462632,0.176808,0.017222,0.178331
663,3698748837,-0.414771,0.572892,0.531822,-0.465762,0.124224,0.190476,0.202637
664,3698782171,-0.410740,0.569304,0.536107,-0.468810,0.133965,0.127657,0.139068
665,3698815505,-0.407349,0.566285,0.539679,-0.471321,0.147462,0.217481,0.203030
666,3698848839,-0.404514,0.564018,0.542461,-0.473282,0.270539,0.033781,0.099159
667,3698882173,-0.401033,0.562538,0.545050,-0.475028,0.642262,-0.370551,0.101361
668,3698915507,-0.397207,0.561915,0.547215,-0.476490,0.849354,-0.532473,0.113660
669,3698948841,-0.392978,0.562357,0.549074,-0.477335,0.959627,-0.661348,0.030720
670,3698982175,-0.388271,0.563547,0.550904,-0.477674,0.822214,-0.315970,0.043818
671,3699015509,-0.384123,0.565041,0.552183,-0.477787,0.278273,-0.308389,0.093357
672,3699048843,-0.380089,0.567093,0.552969,-0.477673,-0.128294,0.193478,0.090819
673,3699082177,-0.377790,0.569712,0.552714,-0.476675,-0.620367,0.566536,0.200621
674,3699115511,-0.377662,0.572089,0.551344,-0.475513,-0.913032,0.726709,0.270314
675,3699148845,-0.379077,0.574042,0.549030,-0.474711,-0.775514,0.663511,0.233535
676,3699182179,-0.381759,0.575962,0.546124,-0.473588,-0.345790,0.348019,0.191847
677,3699215513,-0.385568,0.577942,0.542534,-0.472214,-0.010838,0.099576,0.085138
678,3699248847,-0.389758,0.580241,0.538708,-0.470331,0.292855,-0.197820,0.125312
679,3699282181,-0.394035,0.582576,0.534680,-0.468472,0.356947,-0.556023,0.028776
680,3699315515,-0.397743,0.584968,0.531076,-0.466454,0.348701,-0.473530,0.085519
681,3699348849,-0.400717,0.587267,0.527917,-0.464602,0.304461,-0.436592,0.078918
682,3699382183,-0.402895,0.589631,0.525154,-0.462852,0.241401,-0.321976,0.103537
683,3699415517,-0.404412,0.591824,0.522810,-0.461381,0.159841,-0.244568,0.041522
684,3699448851,-0.405501,0.593933,0.520894,-0.459881,0.085508,0.074088,0.068769
685,3699482185,-0.406456,0.595904,0.519079,-0.458539,-0.055051,0.183422,0.151962
686,3699515519,-0.407681,0.597583,0.517162,-0.457429,-0.280347,0.294927,0.178744
687,3699548853,-0.408950,0.598667,0.515540,-0.456710,-0.382240,0.275738,0.207325
688,3699582187,-0.410027,0.599102,0.514351,-0.456515,-0.415592,0.217368,0.161912
689,3699615521,-0.411107,0.599367,0.513366,-0.456304,-0.386054,0.070119,0.111664
690,3699648855,-0.411579,0.599180,0.513101,-0.456423,-0.257545,0.011337,0.030435
691,3699682189,-0.410927,0.598342,0.513961,-0.457141,-0.211800,-0.148226,0.090416
692,3699715523,-0.408950,0.596917,0.516017,-0.458459,-0.299610,-0.119327,0.088264
693,3699748857,-0.406158,0.595215,0.518871,-0.459930,-0.228538,0.131029,0.104306
694,3699782191,-0.403207,0.593335,0.521859,-0.461572,-0.120885,0.178559,0.167447
695,3699815525,-0.400626,0.591504,0.524519,-0.463153,-0.047617,0.218659,0.122861
696,3699848859,-0.398719,0.589774,0.526663,-0.464570,-0.087246,0.231844,0.168120
697,3699882193,-0.397661,0.588384,0.528191,-0.465502,-0.019859,0.045564,0.110264
698,3699915527,-0.396890,0.587207,0.529419,-0.466251,0.146572,-0.183782,0.160978
699,3699948861,-0.396160,0.586219,0.530429,-0.466966,0.229742,0.043817,0.048215
700,3699982195,-0.395494,0.585636,0.531207,-0.467378,0.089430,0.018093,0.091243
701,3700015529,-0.394920,0.585435,0.531879,-0.467350,0.105480,-0.125816,0.138850
702,3700048863,-0.394106,0.585200,0.532663,-0.467439,0.160600,0.027392,0.083877
703,3700082197,-0.392879,0.584961,0.533636,-0.467662,0.138535,-0.034414,0.106268
704,3700115531,-0.391782,0.584765,0.534399,-0.467955,0.166758,0.100213,0.163839
705,3700148865,-0.391191,0.584804,0.534622,-0.468147,0.088592,0.148966,0.106814
706,3700182199,-0.390839,0.585124,0.534499,-0.468181,0.155581,0.066820,0.099396
707,3700215533,-0.391115,0.585948,0.533676,-0.467859,0.099137,0.095850,0.121261
708,3700248867,-0.391946,0.587008,0.532342,-0.467353,0.005517,-0.035021,0.095832
709,3700282201,-0.392825,0.588133,0.531082,-0.466635,-0.009548,-0.013293,0.165191
710,3700315535,-0.393692,0.589268,0.529882,-0.465835,-0.107193,-0.154163,0.091437
711,3700348869,-0.394328,0.590202,0.528970,-0.465151,-0.069318,0.012882,0.185505
712,3700382203,-0.395614,0.591233,0.527593,-0.464313,-0.153293,0.036326,0.087455
713,3700415537,-0.397218,0.592479,0.525941,-0.463228,-0.129400,0.082544,0.141716
714,3700448871,-0.399333,0.593965,0.523878,-0.461843,-0.212169,-0.001456,0.103002
715,3700482205,-0.401617,0.595816,0.521582,-0.460073,-0.149016,0.018404,0.110715
716,3700515539,-0.403993,0.597924,0.519145,-0.458010,-0.094758,0.035401,0.084697
717,3700548873,-0.406409,0.600083,0.516603,-0.455919,-0.162755,-0.023478,0.078486
718,3700582207,-0.408853,0.602154,0.514255,-0.453652,-0.056128,0.001616,0.169591
719,3700615541,-0.411167,0.603868,0.512020,-0.451807,-0.025991,-0.037009,0.099399
720,3700648875,-0.413284,0.605518,0.509964,-0.449989,0.067985,-0.002344,0.102324
721,3700682209,-0.415771,0.607365,0.507542,-0.447941,0.090223,-0.077102,0.097261
722,3700715543,-0.418666,0.609329,0.504664,-0.445824,0.062209,-0.104628,0.099553
723,3700748877,-0.421711,0.611296,0.501721,-0.443577,0.072131,0.015873,0.144493
724,3700782211,-0.424914,0.613355,0.498603,-0.441188,0.060106,0.082295,0.159449
725,3700815545,-0.428081,0.615334,0.495435,-0.438934,0.119225,0.100146,0.165447
726,3700848879,-0.431495,0.617171,0.492061,-0.436801,0.079377,0.076354,0.145896
727,3700882213,-0.435310,0.619096,0.488298,-0.434510,0.119765,0.150774,0.185403
728,3700915547,-0.439855,0.621285,0.483777,-0.431857,0.148989,0.053508,0.101608
729,3700948881,-0.444491,0.623332,0.479216,-0.429238,0.134147,-0.075462,0.110223
730,3700982215,-0.449022,0.625126,0.474823,-0.426789,0.107581,-0.036299,0.122845
731,3701015549,-0.453332,0.626885,0.470584,-0.424340,0.000903,-0.038691,0.147055
732,3701048883,-0.457235,0.628509,0.466758,-0.421967,-0.044012,0.051587,0.094979
733,3701082217,-0.460853,0.629994,0.463201,-0.419733,-0.079970,0.043133,0.112672
734,3701115551,-0.464259,0.631323,0.459799,-0.417717,-0.053393,0.054711,0.108178
735,3701148885,-0.467711,0.632479,0.456470,-0.415764,-0.086826,-0.018238,0.117586
736,3701182219,-0.470948,0.633513,0.453366,-0.413928,-0.087495,-0.099379,0.073810
737,3701215553,-0.473886,0.634464,0.450639,-0.412092,-0.046371,-0.114715,0.096658
738,3701248887,-0.476218,0.635185,0.448566,-0.410552,0.011283,-0.112010,0.049519
739,3701282221,-0.477858,0.635597,0.447165,-0.409537,0.083253,-0.101371,0.067655
740,3701315555,-0.478748,0.635764,0.446466,-0.409000,-0.010511,-0.109160,0.012652
741,3701348889,-0.478521,0.635647,0.446898,-0.408977,-0.131690,-0.049792,0.095007
742,3701382223,-0.477285,0.634953,0.448496,-0.409748,-0.189563,0.010518,0.120266
743,3701415557,-0.475453,0.633873,0.450787,-0.411033,-0.159853,0.088087,0.147535
744,3701448891,-0.473465,0.632441,0.453392,-0.412666,-0.180847,0.121123,0.109183
745,3701482225,-0.470933,0.630531,0.456660,-0.414878,-0.241175,-0.010243,0.087274
746,3701515559,-0.467599,0.628000,0.460959,-0.417723,-0.223265,-0.015241,0.116424
747,3701548893,-0.463248,0.624850,0.466332,-0.421315,-0.083108,-0.023863,0.158234
748,3701582227,-0.458770,0.621557,0.471849,-0.424927,0.060876,0.132733,0.120419
749,3701615561,-0.454624,0.618420,0.476935,-0.428271,0.117492,0.103250,0.128164
750,3701648895,-0.450886,0.615512,0.481517,-0.431272,0.221518,0.139891,0.158062
751,3701682229,-0.447622,0.612810,0.485468,-0.434083,0.165334,0.036998,0.125237
752,3701715563,-0.444331,0.610107,0.489338,-0.436916,0.178453,0.012392,0.089700
753,3701748897,-0.440904,0.607368,0.493284,-0.439759,0.165382,-0.029577,0.119785
754,3701782231,-0.437136,0.604524,0.497440,-0.442747,0.190513,-0.057470,0.127600
755,3701815565,-0.433123,0.601531,0.501818,-0.445815,0.218863,0.032502,0.109868
756,3701848899,-0.429318,0.598815,0.505849,-0.448589,0.209669,0.155796,0.127888
757,3701882233,-0.426023,0.596517,0.509196,-0.450999,0.083107,0.208287,0.170752
758,3701915567,-0.423483,0.594490,0.511781,-0.453136,-0.026400,0.149422,0.140110
759,3701948901,-0.421043,0.592422,0.514287,-0.455277,-0.004254,-0.017618,0.120851
760,3701982235,-0.418138,0.590173,0.517210,-0.457556,-0.001596,-0.119095,0.079829
761,3702015569,-0.414185,0.587543,0.521028,-0.460198,-0.002867,-0.239329,0.074788
762,3702048903,-0.409271,0.584430,0.525724,-0.463208,-0.010258,-0.174509,0.081751
763,3702082237,-0.403846,0.581205,0.530774,-0.466258,-0.000094,0.124257,0.137518
764,3702115571,-0.398588,0.578161,0.535453,-0.469207,-0.075942,0.195394,0.097554
765,3702148905,-0.393706,0.575408,0.539706,-0.471833,-0.125700,0.309789,0.154202
766,3702182239,-0.389188,0.572675,0.543484,-0.474563,-0.257355,0.232961,0.169062
767,3702215573,-0.385234,0.570263,0.546704,-0.476989,-0.349366,0.254744,0.179965
768,3702248907,-0.382020,0.568379,0.549192,-0.478959,-0.358554,0.101391,0.126156
769,3702282241,-0.379256,0.566866,0.551458,-0.480344,-0.296307,0.023033,0.070428
770,3702315575,-0.376635,0.565448,0.553743,-0.481447,-0.281474,0.037222,0.107426
771,3702348909,-0.373996,0.563544,0.556156,-0.482953,-0.329946,-0.331856,0.125434
772,3702382243,-0.370809,0.561119,0.559137,-0.484788,-0.131970,-0.086809,0.140902
773,3702415577,-0.367469,0.558942,0.562240,-0.486256,0.128287,0.003924,0.104313
774,3702448911,-0.364731,0.557371,0.564705,-0.487263,0.137426,0.011843,0.157161
775,3702482245,-0.363131,0.556395,0.566107,-0.487946,0.134373,0.138702,0.151626
776,3702515579,-0.362947,0.556327,0.566304,-0.487932,0.263800,0.338242,0.122230
777,3702548913,-0.364499,0.557654,0.564781,-0.487025,0.211896,0.146271,0.135414
778,3702582247,-0.366919,0.559779,0.562070,-0.485905,0.324258,-0.205276,0.083256
779,3702615581,-0.369777,0.562575,0.559045,-0.483995,0.365443,-0.218795,0.088768
780,3702648915,-0.372418,0.565573,0.556014,-0.481963,0.255963,-0.195654,0.067236
781,3702682249,-0.374816,0.568604,0.553103,-0.479883,0.129989,-0.257933,0.105936
782,3702715583,-0.377097,0.571568,0.550167,-0.477946,-0.101969,-0.012767,0.122828
783,3702748917,-0.379596,0.574450,0.547131,-0.475993,-0.280460,0.180948,0.145177
784,3702782251,-0.382206,0.576901,0.544346,-0.474130,-0.334377,0.283113,0.180220
785,3702815585,-0.384259,0.578439,0.542130,-0.473136,-0.305010,0.229322,0.161682
786,3702848919,-0.386262,0.579750,0.540074,-0.472250,-0.241203,0.168807,0.104500
787,3702882253,-0.388033,0.580873,0.538386,-0.471344,-0.059688,0.065946,0.058198
788,3702915587,-0.389246,0.581630,0.537312,-0.470635,-0.035613,-0.233898,0.101184
789,3702948921,-0.389376,0.581797,0.537152,-0.470505,0.009356,-0.242075,0.115224
790,3702982255,-0.389045,0.581503,0.537526,-0.470716,-0.052745,-0.099007,0.103546
791,3703015589,-0.388364,0.580888,0.538269,-0.471186,-0.094823,0.003132,0.074536
792,3703048923,-0.387495,0.580200,0.539227,-0.471653,-0.090712,0.085015,0.135024
793,3703082257,-0.386718,0.579550,0.540069,-0.472127,0.006426,0.127788,0.125367
794,3703115591,-0.386446,0.579032,0.540452,-0.472547,0.056353,-0.041857,0.093737
795,3703148925,-0.386727,0.578806,0.540410,-0.472642,0.060868,-0.038959,0.095273
796,3703182259,-0.387094,0.578820,0.540270,-0.472486,0.133608,-0.193782,0.069070
797,3703215593,-0.387191,0.578883,0.540259,-0.472341,0.087114,-0.200853,0.084147
798,3703248927,-0.387093,0.579034,0.540337,-0.472147,0.015555,-0.091755,0.077447
799,3703282261,-0.386984,0.579251,0.540443,-0.471849,-0.024808,0.021217,0.116698
800,3703315595,-0.386776,0.579413,0.540652,-0.471581,-0.040557,0.021341,0.114185
801,3703348929,-0.386445,0.579563,0.540910,-0.471372,0.032928,0.064075,0.131725
802,3703382263,-0.386350,0.579734,0.540919,-0.471228,0.031269,-0.000815,0.114543
803,3703415597,-0.386387,0.579846,0.540917,-0.471064,0.041298,0.008920,0.096748
804,3703448931,-0.386114,0.579708,0.541227,-0.471100,0.020967,-0.071945,0.109311
805,3703482265,-0.385391,0.579494,0.541823,-0.471272,0.129632,0.080303,0.142956
806,3703515599,-0.384780,0.579445,0.542281,-0.471303,0.182021,0.066358,0.084217
807,3703548933,-0.384209,0.579390,0.542592,-0.471480,0.220646,0.070086,0.114106
808,3703582267,-0.383787,0.579403,0.542747,-0.471629,0.151595,-0.080288,0.123674
809,3703615601,-0.383189,0.579285,0.542944,-0.472032,0.011227,-0.171297,0.075960
810,3703648935,-0.382596,0.579397,0.543175,-0.472110,-0.014464,0.003578,0.131846
811,3703682269,-0.382520,0.579742,0.542890,-0.472076,-0.173839,-0.012431,0.104074
812,3703715603,-0.382739,0.580303,0.542404,-0.471769,-0.252366,0.073021,0.145484
813,3703748937,-0.383377,0.581022,0.541688,-0.471188,-0.265630,0.109196,0.120606
814,3703782271,-0.384584,0.582042,0.540465,-0.470348,-0.172447,0.043867,0.132678
815,3703815605,-0.386136,0.583174,0.539062,-0.469284,-0.062150,-0.028865,0.103426
816,3703848939,-0.387902,0.584378,0.537443,-0.468185,-0.086386,-0.089644,0.110319
817,3703882273,-0.389755,0.585857,0.535775,-0.466707,-0.004709,-0.008226,0.109200
818,3703915607,-0.391489,0.587259,0.534249,-0.465242,0.031784,-0.032059,0.091356
819,3703948941,-0.393173,0.588563,0.532738,-0.463905,-0.002910,0.079469,0.124799
820,3703982275,-0.395383,0.590149,0.530682,-0.462364,0.057026,0.236265,0.154553
821,3704015609,-0.398487,0.592293,0.527752,-0.460308,0.104157,0.209298,0.192172
822,3704048943,-0.402410,0.594820,0.523956,-0.457967,0.135482,0.082587,0.114126
823,3704082277,-0.406792,0.597587,0.519599,-0.455450,0.151234,0.022697,0.154298
824,3704115611,-0.411560,0.600544,0.514788,-0.452733,0.079575,-0.048317,0.098022
825,3704148945,-0.416362,0.603622,0.509822,-0.449858,0.035085,-0.085202,0.119741
826,3704182279,-0.421018,0.606598,0.504942,-0.447016,-0.002913,-0.051208,0.108331
827,3704215613,-0.425405,0.609433,0.500233,-0.444293,-0.055098,-0.039377,0.103065
828,3704248947,-0.429633,0.612170,0.495701,-0.441535,-0.069258,0.012154,0.126806
829,3704282281,-0.433585,0.614589,0.491467,-0.439036,-0.129889,-0.041436,0.128518
830,3704315615,-0.437200,0.616761,0.487620,-0.436688,-0.084277,0.090550,0.141484
831,3704348949,-0.440897,0.618802,0.483720,-0.434417,-0.041011,0.145143,0.113115
832,3704382283,-0.444909,0.621001,0.479574,-0.431775,0.030853,0.246118,0.157809
833,3704415617,-0.449328,0.623449,0.474971,-0.428751,0.037818,0.149295,0.182405
834,3704448951,-0.454034,0.625930,0.469983,-0.425663,0.098811,0.081405,0.046198
835,3704482285,-0.458517,0.628208,0.465159,-0.422793,0.115403,-0.084394,0.065954
836,3704515619,-0.462101,0.630217,0.461115,-0.420322,0.042318,-0.159857,0.045259
837,3704548953,-0.464715,0.631842,0.458055,-0.418342,-0.165340,-0.203863,0.062984
838,3704582287,-0.466473,0.632888,0.456018,-0.417027,-0.246174,0.015727,0.151558
839,3704615621,-0.467872,0.633827,0.454404,-0.415793,-0.170930,0.206723,0.103849
840,3704648955,-0.468914,0.634665,0.453084,-0.414780,-0.097810,0.060475,0.118520
841,3704682289,-0.469874,0.635252,0.451929,-0.414055,-0.103098,-0.028448,0.139315
842,3704715623,-0.470873,0.635559,0.450973,-0.413492,-0.050411,-0.004709,0.153888
843,3704748957,-0.471919,0.635698,0.450105,-0.413030,0.025898,-0.090157,0.101480
844,3704782291,-0.472955,0.635884,0.449248,-0.412492,0.115248,-0.080260,0.097616
845,3704815625,-0.474186,0.636144,0.448230,-0.411784,0.139563,-0.074374,0.073087
846,3704848959,-0.475574,0.636382,0.447105,-0.411038,0.067573,-0.040262,0.083866
847,3704882293,-0.476630,0.636478,0.446328,-0.410511,-0.004498,-0.013702,0.099069
848,3704915627,-0.476854,0.636315,0.446332,-0.410500,0.014779,-0.043031,0.086400
849,3704948961,-0.476227,0.635864,0.447159,-0.411024,-0.031894,-0.015973,0.139231
850,3704982295,-0.475186,0.635027,0.448543,-0.412016,-0.182764,0.124821,0.106049
851,3705015629,-0.473674,0.633974,0.450438,-0.413308,-0.197820,0.115006,0.080953
852,3705048963,-0.471341,0.632623,0.453188,-0.415036,-0.142499,0.089710,0.101061
853,3705082297,-0.468250,0.630841,0.456808,-0.417273,-0.193656,0.039849,0.138859
854,3705115631,-0.464742,0.628721,0.460897,-0.419890,-0.071714,0.201600,0.158119
855,3705148965,-0.461451,0.626448,0.464813,-0.422590,-0.009148,0.041177,0.125311
856,3705182299,-0.458190,0.623620,0.468902,-0.425793,0.027321,-0.167904,0.013044
857,3705215633,-0.453614,0.619338,0.474762,-0.430422,-0.104876,-0.757652,0.037081
858,3705248967,-0.446761,0.613540,0.483146,-0.436522,-0.027710,-0.208032,0.137593
859,3705282301,-0.439963,0.608119,0.491134,-0.442063,-0.160489,-0.271066,0.016046
860,3705315635,-0.433290,0.603129,0.498933,-0.446731,-0.045443,-0.020697,0.067542
861,3705348969,-0.427177,0.598407,0.506244,-0.450727,-0.017833,0.308903,0.144250
862,3705382303,-0.421588,0.594238,0.512655,-0.454244,-0.129631,0.330830,0.147622
863,3705415637,-0.416504,0.590425,0.518382,-0.457397,-0.201368,0.342111,0.149919
864,3705448971,-0.412185,0.586942,0.523441,-0.460022,-0.189555,0.202202,0.169459
865,3705482305,-0.408074,0.583334,0.528301,-0.462714,-0.125593,0.172877,0.137649
866,3705515639,-0.404051,0.579504,0.533152,-0.465483,-0.085303,0.230043,0.183488
867,3705548973,-0.400221,0.575565,0.537854,-0.468263,-0.062334,0.336145,0.162127
868,3705582307,-0.396754,0.571837,0.542022,-0.470966,0.027312,0.076118,0.134996
869,3705615641,-0.394108,0.568557,0.545348,-0.473314,0.006390,0.117812,0.111382
870,3705648975,-0.392434,0.566288,0.547767,-0.474630,0.065088,0.121217,0.104199
871,3705682309,-0.390484,0.564692,0.549980,-0.475579,0.145523,-0.228666,0.059903
872,3705715643,-0.387019,0.563001,0.553039,-0.476866,0.138634,-0.380881,0.081040
873,3705748977,-0.381976,0.561060,0.557148,-0.478437,0.056941,-0.262456,0.118274
874,3705782311,-0.376053,0.558949,0.561900,-0.480038,-0.029921,0.069961,0.122219
875,3705815645,-0.370662,0.556507,0.566373,-0.481808,-0.201018,0.259100,0.212266
876,3705848979,-0.367447,0.554140,0.569332,-0.483509,-0.294211,0.612906,0.220841
877,3705882313,-0.366656,0.552777,0.570296,-0.484532,-0.178500,0.735124,0.191132
878,3705915647,-0.368106,0.552582,0.569249,-0.484886,0.103224,0.421151,0.133190
879,3705948981,-0.372475,0.554248,0.565980,-0.483472,0.135364,0.609063,0.121395
880,3705982315,-0.379140,0.556992,0.560853,-0.481109,0.205878,-0.115955,0.051556
881,3706015649,-0.385387,0.559417,0.556050,-0.478900,0.202362,-0.318709,0.136597
882,3706048983,-0.390133,0.560734,0.552483,-0.477644,0.324759,-0.752936,0.155710
883,3706082317,-0.393171,0.561310,0.550317,-0.476976,0.392362,-0.643112,0.102493
884,3706115651,-0.394969,0.561503,0.549005,-0.476776,0.649520,-0.553338,0.088974
885,3706148985,-0.396196,0.561604,0.548116,-0.476662,0.735122,-0.306147,0.094759
886,3706182319,-0.397059,0.561680,0.547248,-0.476852,0.666782,-0.177577,0.182029
887,3706215653,-0.397473,0.562433,0.546150,-0.476878,0.671782,-0.322798,0.066085
888,3706248987,-0.396642,0.563583,0.545629,-0.476808,0.755643,-0.348086,0.081721
889,3706282321,-0.395680,0.565365,0.545127,-0.476071,0.405991,-0.215663,0.087002
890,3706315655,-0.393917,0.566931,0.544906,-0.475924,0.331860,-0.467118,-0.005639
891,3706348989,-0.391353,0.568249,0.545416,-0.475884,0.255632,-0.293131,0.047548
892,3706382323,-0.388561,0.569536,0.546095,-0.475855,-0.027978,-0.060698,0.021016
893,3706415657,-0.386059,0.570902,0.546562,-0.475718,-0.476185,0.100975,0.075219
894,3706448991,-0.384030,0.571767,0.547112,-0.475689,-0.842436,0.169578,0.178706
895,3706482325,-0.381516,0.571660,0.548544,-0.476192,-0.843589,0.441068,0.193239
896,3706515659,-0.379145,0.571229,0.550105,-0.476801,-0.590310,0.526927,0.195930
897,3706548993,-0.377539,0.570933,0.551063,-0.477323,-0.205818,0.199866,0.112511
898,3706582327,-0.377343,0.570860,0.551022,-0.477614,-0.068699,0.072587,0.154664
899,3706615661,-0.378146,0.571217,0.550207,-0.477490,0.065758,-0.059657,0.107094
900,3706648995,-0.378886,0.571756,0.549392,-0.477197,0.126314,-0.043353,0.065723
901,3706682329,-0.379287,0.572200,0.548759,-0.477074,0.004579,-0.153337,0.147703
902,3706715663,-0.379304,0.572909,0.548126,-0.476938,-0.060214,-0.038325,0.071725
903,3706748997,-0.379194,0.573594,0.547704,-0.476687,-0.103941,0.069370,0.102683
904,3706782331,-0.379149,0.573940,0.547421,-0.476632,-0.186602,0.145029,0.150949
905,3706815665,-0.378874,0.573976,0.547414,-0.476815,-0.151070,0.087454,0.115679
906,3706848999,-0.378177,0.573728,0.547786,-0.477238,-0.073804,0.028789,0.157043
907,3706882333,-0.377652,0.573513,0.548096,-0.477557,-0.094171,0.077938,0.094426
908,3706915667,-0.377172,0.573208,0.548447,-0.477899,-0.054560,0.146067,0.106825
909,3706949001,-0.376800,0.572969,0.548658,-0.478238,-0.046087,0.218482,0.122166
910,3706982335,-0.376775,0.573066,0.548475,-0.478351,-0.075296,-0.003437,0.098160
911,3707015669,-0.377016,0.573332,0.548114,-0.478255,-0.078381,0.025625,0.140867
912,3707049003,-0.377964,0.574109,0.547253,-0.477560,-0.053339,0.010014,0.093049
913,3707082337,-0.379329,0.575049,0.546067,-0.476704,-0.109143,-0.143488,0.065524
914,3707115671,-0.380803,0.576062,0.544885,-0.475657,-0.120359,0.013028,0.120805
915,3707149005,-0.382066,0.577221,0.543829,-0.474447,-0.168214,-0.060681,0.036193
916,3707182339,-0.383096,0.578411,0.542954,-0.473168,-0.286360,-0.068908,0.074308
917,3707215673,-0.383785,0.579452,0.542496,-0.471859,-0.307305,0.119161,0.128178
918,3707249007,-0.384437,0.580269,0.542200,-0.470662,-0.249856,0.072100,0.149021
919,3707282341,-0.384978,0.581099,0.541941,-0.469493,0.015294,0.087606,0.107447
920,3707315675,-0.386030,0.582101,0.541226,-0.468212,0.129941,-0.073775,0.177942
921,3707349009,-0.387848,0.583419,0.539654,-0.466881,0.213716,0.219487,0.137075
922,3707382343,-0.391074,0.585216,0.536890,-0.465124,0.362058,0.106884,0.195958
923,3707415677,-0.395746,0.588032,0.532537,-0.462619,0.471226,0.162711,0.194502
924,3707449011,-0.401620,0.591694,0.526574,-0.459704,0.443826,0.150100,0.096638
925,3707482345,-0.408198,0.595729,0.519740,-0.456465,0.384008,0.044091,0.142083
926,3707515679,-0.414856,0.599724,0.512724,-0.453154,0.248983,0.040135,0.109911
927,3707549013,-0.420789,0.603283,0.506278,-0.450197,-0.005844,-0.144243,0.107142
928,3707582347,-0.426056,0.606555,0.500584,-0.447203,-0.154319,-0.017581,0.058935
929,3707615681,-0.431135,0.609800,0.495136,-0.443977,-0.121118,0.247441,0.107374
930,3707649015,-0.436660,0.613562,0.489021,-0.440154,-0.008190,0.142272,0.136251
931,3707682349,-0.442093,0.617297,0.482782,-0.436382,-0.103950,-0.142573,0.067868
932,3707715683,-0.446977,0.620478,0.477188,-0.433035,-0.164823,-0.144845,0.039949
933,3707749017,-0.451021,0.622880,0.472716,-0.430288,-0.249449,-0.078562,0.110018
934,3707782351,-0.454177,0.624826,0.469261,-0.427923,-0.258343,-0.011915,0.128333
935,3707815685,-0.456783,0.626544,0.466312,-0.425857,-0.213936,0.010438,0.074994
936,3707849019,-0.458802,0.628123,0.463894,-0.423996,-0.076637,-0.031981,0.083141
937,3707882353,-0.459984,0.629311,0.462219,-0.422782,-0.000194,-0.218592,0.102428
938,3707915687,-0.460428,0.630046,0.461249,-0.422262,-0.066530,-0.266080,0.079952
939,3707949021,-0.460361,0.630285,0.461061,-0.422184,-0.169173,-0.160316,0.110189
940,3707982355,-0.459713,0.629966,0.461737,-0.422628,-0.114883,-0.019290,0.121882
941,3708015689,-0.458597,0.629346,0.462966,-0.423420,-0.042891,0.047844,0.129809
942,3708049023,-0.457488,0.628890,0.464078,-0.424078,0.017521,0.168532,0.148180
943,3708082357,-0.456941,0.628566,0.464572,-0.424607,0.025120,0.176629,0.141770
944,3708115691,-0.457144,0.628498,0.464351,-0.424730,0.055468,0.212819,0.161609
945,3708149025,-0.457827,0.628485,0.463701,-0.424724,0.091708,0.076803,0.091086
946,3708182359,-0.458305,0.628464,0.463306,-0.424671,-0.006854,-0.054549,0.153734
947,3708215693,-0.458178,0.627962,0.463522,-0.425314,-0.110965,-0.093717,0.109447
948,3708249027,-0.457499,0.627350,0.464340,-0.426055,-0.153471,-0.010604,0.052753
949,3708282361,-0.456104,0.626327,0.466112,-0.427120,-0.200354,0.033892,0.096104
950,3708315695,-0.453929,0.624761,0.468830,-0.428752,-0.264486,0.016246,0.132472
951,3708349029,-0.451113,0.622671,0.472297,-0.430954,-0.178952,0.024035,0.128695
952,3708382363,-0.448009,0.620235,0.476204,-0.433399,-0.093672,0.029869,0.093402
953,3708415697,-0.444657,0.617534,0.480440,-0.436024,-0.066013,0.027016,0.108476
954,3708449031,-0.441101,0.614719,0.484848,-0.438728,0.015985,-0.020426,0.107920
955,3708482365,-0.437428,0.611712,0.489331,-0.441620,0.089316,-0.099122,0.106707
956,3708515699,-0.433318,0.608497,0.494102,-0.444789,0.133948,-0.084424,0.091612
957,3708549033,-0.429082,0.605178,0.498952,-0.447999,0.127612,0.001169,0.110476
958,3708582367,-0.424797,0.601634,0.503863,-0.451347,0.027232,0.034676,0.098736
959,3708615701,-0.420073,0.597879,0.509038,-0.454938,-0.020072,0.016397,0.104735
960,3708649035,-0.415078,0.594315,0.514246,-0.458321,0.074861,0.260892,0.129311
961,3708682369,-0.410758,0.591668,0.518688,-0.460628,0.049692,0.192659,0.110541
962,3708715703,-0.406724,0.589086,0.522725,-0.462947,-0.131009,-0.140565,0.091612
963,3708749037,-0.402176,0.586402,0.527097,-0.465365,-0.134707,-0.164549,0.097249
964,3708782371,-0.397197,0.583771,0.531824,-0.467565,-0.188154,-0.032418,0.099330
965,3708815705,-0.392147,0.581218,0.536634,-0.469509,-0.231197,-0.000576,0.115476
966,3708849039,-0.387734,0.578445,0.541131,-0.471433,-0.282813,0.159707,0.171747
967,3708882373,-0.384097,0.575759,0.545035,-0.473197,-0.232666,0.149704,0.139012
968,3708915707,-0.380709,0.573193,0.548587,-0.474943,-0.174460,-0.153966,0.064519
969,3708949041,-0.377145,0.570543,0.552345,-0.476619,-0.068325,-0.114342,0.097927
970,3708982375,-0.373493,0.567911,0.556193,-0.478160,0.037643,-0.020850,0.129574
971,3709015709,-0.370095,0.565506,0.559735,-0.479518,0.158267,0.025372,0.166777
972,3709049043,-0.367931,0.563704,0.562241,-0.480372,0.288654,0.189617,0.166309
973,3709082377,-0.367505,0.562780,0.563111,-0.480763,0.466879,0.214069,0.178073
974,3709115711,-0.368865,0.563050,0.562190,-0.480483,0.607450,0.196896,0.118351
975,3709149045,-0.371181,0.564177,0.560131,-0.479781,0.625639,-0.190277,0.124765
976,3709182379,-0.373635,0.565796,0.557685,-0.478819,0.583231,-0.216480,0.105110
977,3709215713,-0.376018,0.567661,0.555048,-0.477809,0.477277,-0.360951,0.096926
978,3709249047,-0.377942,0.569438,0.552722,-0.476872,0.333111,-0.232595,0.061966
979,3709282381,-0.379515,0.571094,0.550624,-0.476068,0.135563,0.022081,0.130077
980,3709315715,-0.381261,0.572683,0.548311,-0.475435,-0.042064,0.116701,0.137749
981,3709349049,-0.383201,0.574018,0.545963,-0.474966,-0.144160,0.201302,0.151111
982,3709382383,-0.385238,0.575179,0.543710,-0.474498,-0.164462,0.216055,0.123730
983,3709415717,-0.387395,0.576091,0.541483,-0.474183,-0.189813,0.228748,0.132633
984,3709449051,-0.390196,0.577395,0.538866,-0.473280,-0.096134,0.253610,0.128557
985,3709482385,-0.393027,0.578704,0.536103,-0.472475,-0.089039,-0.173709,0.120975
986,3709515719,-0.395610,0.580056,0.533612,-0.471481,-0.022002,0.053631,0.042973
987,3709549053,-0.397530,0.581342,0.531729,-0.470408,0.000825,-0.115758,0.080024
988,3709582387,-0.399071,0.582220,0.530199,-0.469744,-0.052797,-0.160324,0.073546
989,3709615721,-0.400090,0.582596,0.529345,-0.469374,-0.007568,-0.176421,0.107203
990,3709649055,-0.400940,0.582672,0.528730,-0.469248,-0.062743,-0.068041,0.149662
991,3709682389,-0.402199,0.583390,0.527529,-0.468630,-0.037469,-0.003383,0.143236
992,3709715723,-0.404205,0.584698,0.525489,-0.467564,-0.043953,-0.134293,0.072321
993,3709749057,-0.406559,0.585982,0.523412,-0.466244,-0.139689,0.036096,0.144131
994,3709782391,-0.408844,0.587311,0.521328,-0.464905,-0.172072,0.190218,0.173879
995,3709815725,-0.411870,0.589004,0.518469,-0.463287,-0.155742,0.114312,0.124062
996,3709849059,-0.415605,0.591054,0.515002,-0.461204,0.002937,0.055264,0.118917
997,3709882393,-0.419813,0.593216,0.510992,-0.459072,-0.059470,-0.036325,0.119739
998,3709915727,-0.424298,0.595660,0.506605,-0.456640,0.008719,-0.019500,0.085932
999,3709949061,-0.428792,0.597974,0.502247,-0.454226,0.006972,-0.077702,0.121037
1000,3709982395,-0.433114,0.600260,0.497975,-0.451806,0.018095,0.038668,0.117289
1001,3710015729,-0.437191,0.602915,0.493667,-0.449064,0.074411,0.070741,0.109495
1002,3710049063,-0.441319,0.605602,0.489218,-0.446271,0.052311,0.054739,0.118867
1003,3710082397,-0.445392,0.608215,0.484822,-0.443459,0.045145,0.126735,0.126200
1004,3710115731,-0.449377,0.610931,0.480290,-0.440628,-0.034327,0.018075,0.121049
1005,3710149065,-0.453075,0.613666,0.475909,-0.437785,-0.044521,0.098219,0.125450
1006,3710182399,-0.456682,0.616285,0.471721,-0.434881,-0.127200,0.145835,0.108668
1007,3710215733,-0.459928,0.618391,0.468084,-0.432395,-0.201987,0.099541,0.140247
1008,3710249067,-0.462442,0.620108,0.465137,-0.430430,-0.182250,0.069099,0.116958
1009,3710282401,-0.464074,0.621271,0.463105,-0.429185,-0.238858,-0.126807,0.111517
1010,3710315735,-0.464977,0.622007,0.461945,-0.428390,-0.131349,-0.015321,0.076429
1011,3710349069,-0.465139,0.622323,0.461609,-0.428117,-0.098020,-0.102366,0.074780
1012,3710382403,-0.464447,0.622099,0.462256,-0.428497,-0.058558,-0.134460,0.072441
1013,3710415737,-0.462982,0.621449,0.463807,-0.429349,0.064490,-0.046684,0.123607
1014,3710449071,-0.461505,0.620519,0.465453,-0.430500,0.105751,0.045473,0.170432
1015,3710482405,-0.460243,0.619484,0.466913,-0.431760,0.062007,0.033439,0.154456
1016,3710515739,-0.459264,0.618878,0.467977,-0.432520,0.172283,0.212618,0.108428
1017,3710549073,-0.459064,0.619090,0.467971,-0.432435,0.111093,-0.050537,0.109142
1018,3710582407,-0.459329,0.619258,0.467448,-0.432477,0.034925,-0.181185,0.100831
1019,3710615741,-0.459449,0.618961,0.467459,-0.432763,-0.049498,-0.071761,0.142866
1020,3710649075,-0.458680,0.618310,0.468408,-0.433482,-0.158848,0.085094,0.084297
1021,3710682409,-0.457318,0.617452,0.469998,-0.434424,-0.269414,0.081524,0.149361
1022,3710715743,-0.455489,0.616189,0.472243,-0.435701,-0.237232,0.226408,0.143461
1023,3710749077,-0.453138,0.614731,0.474971,-0.437244,-0.118166,0.233515,0.109747
1024,3710782411,-0.450482,0.613093,0.477959,-0.439029,-0.041351,0.043267,0.128409
1025,3710815745,-0.447560,0.611049,0.481347,-0.441161,0.018081,-0.087878,0.094185
1026,3710849079,-0.444102,0.608583,0.485313,-0.443711,0.092312,-0.110107,0.094181
1027,3710882413,-0.440177,0.606052,0.489588,-0.446382,0.098312,-0.137165,0.059556
1028,3710915747,-0.435627,0.603239,0.494354,-0.449392,-0.011417,-0.258139,0.077350
1029,3710949081,-0.430194,0.599953,0.500013,-0.452754,-0.138963,-0.144349,0.093588
1030,3710982415,-0.423975,0.596205,0.506432,-0.456420,-0.267776,-0.032677,0.091835
1031,3711015749,-0.417228,0.591983,0.513395,-0.460337,-0.351416,0.113139,0.142965
1032,3711049083,-0.410083,0.587237,0.520755,-0.464551,-0.365718,0.219898,0.139563
1033,3711082417,-0.402523,0.582221,0.528334,-0.468897,-0.247639,0.055306,0.112128
1034,3711115751,-0.394123,0.577044,0.536289,-0.473381,0.022687,-0.035441,0.144403
1035,3711149085,-0.386014,0.572229,0.543724,-0.477410,0.008698,0.179745,0.144666
1036,3711182419,-0.378961,0.567911,0.550272,-0.480702,-0.078763,0.126767,0.128194
1037,3711215753,-0.372596,0.563701,0.556229,-0.483767,-0.111594,0.014257,0.135594
1038,3711249087,-0.366501,0.559850,0.561785,-0.486468,-0.035935,0.051956,0.097340
1039,3711282421,-0.360646,0.556415,0.567008,-0.488719,-0.011618,0.048606,0.101709
1040,3711315755,-0.355095,0.552940,0.571953,-0.490960,-0.020118,-0.024784,0.134784
1041,3711349089,-0.350127,0.549769,0.576324,-0.492975,-0.039953,-0.062147,0.121523
1042,3711382423,-0.345198,0.546954,0.580520,-0.494656,0.071143,-0.111266,0.152314
1043,3711415757,-0.340996,0.544459,0.584209,-0.495979,-0.066974,0.106634,0.136086
1044,3711449091,-0.337417,0.542032,0.587364,-0.497356,-0.085327,0.041575,0.123595
1045,3711482425,-0.334370,0.539531,0.590146,-0.498837,-0.048268,0.201095,0.143382
1046,3711515759,-0.331301,0.536861,0.592664,-0.500777,0.270620,-0.666087,0.135127
1047,3711549093,-0.327855,0.533715,0.595246,-0.503338,0.343299,0.005766,0.108556
1048,3711582427,-0.325750,0.531405,0.597183,-0.504853,0.471393,-0.044349,0.150695
1049,3711615761,-0.324062,0.529661,0.598508,-0.506202,0.598515,-0.100626,0.101747
1050,3711649095,-0.323097,0.529420,0.599012,-0.506474,0.634438,-0.006969,0.167045
1051,3711682429,-0.323368,0.530367,0.598374,-0.506064,0.420325,0.244375,0.137037
1052,3711715763,-0.324765,0.531971,0.596799,-0.505345,0.212172,0.013773,0.123588
1053,3711749097,-0.326819,0.533788,0.594813,-0.504446,-0.063696,0.169122,0.151346
1054,3711782431,-0.329557,0.535807,0.592416,-0.503342,-0.204562,0.258972,0.160295
1055,3711815765,-0.333328,0.538557,0.589276,-0.501609,-0.042234,0.596237,0.146161
1056,3711849099,-0.338682,0.542436,0.584768,-0.499112,0.106844,0.425368,0.108318
1057,3711882433,-0.344385,0.546620,0.579493,-0.496792,0.170120,-0.395238,0.139805
1058,3711915767,-0.349549,0.550478,0.574514,-0.494703,0.011198,-0.346288,0.110989
1059,3711949101,-0.353232,0.553601,0.570808,-0.492889,-0.136461,-0.679339,0.078465
1060,3711982435,-0.354475,0.555069,0.569207,-0.492197,-0.217582,-0.644746,0.083158
1061,3712015769,-0.353457,0.555211,0.569602,-0.492311,-0.014646,-0.228135,0.036206
1062,3712049103,-0.351967,0.555168,0.570476,-0.492415,0.080934,0.129678,0.043715
1063,3712082437,-0.350992,0.555337,0.570849,-0.492489,0.032198,0.048921,0.115325
1064,3712115771,-0.350798,0.556225,0.570316,-0.492242,-0.091433,0.082309,0.178152
1065,3712149105,-0.351796,0.557902,0.568856,-0.491321,-0.323628,0.037216,0.132895
1066,3712182439,-0.353177,0.559302,0.567430,-0.490386,-0.418815,0.190258,0.182431
1067,3712215773,-0.354778,0.560603,0.565894,-0.489520,-0.369731,0.164689,0.124456
1068,3712249107,-0.356811,0.562471,0.563957,-0.488131,-0.224050,0.096458,0.123250
1069,3712282441,-0.359723,0.564904,0.561331,-0.486208,-0.167798,0.109754,0.134565
1070,3712315775,-0.362889,0.567256,0.558515,-0.484357,-0.131040,-0.067725,0.117126
1071,3712349109,-0.365892,0.569574,0.555792,-0.482505,-0.052090,-0.074319,0.136119
1072,3712382443,-0.369054,0.572164,0.552855,-0.480403,-0.021666,-0.015858,0.072065
1073,3712415777,-0.372385,0.574747,0.549817,-0.478231,0.094805,-0.034223,0.121917
1074,3712449111,-0.375845,0.577253,0.546534,-0.476265,0.065509,-0.006175,0.147899
1075,3712482445,-0.379371,0.579903,0.543035,-0.474248,0.034717,0.060099,0.109935
1076,3712515779,-0.383168,0.582553,0.539385,-0.472108,0.013388,0.085356,0.132382
1077,3712549113,-0.387256,0.585342,0.535418,-0.469833,0.054692,0.076832,0.133040
1078,3712582447,-0.391228,0.588175,0.531343,-0.467625,0.053971,-0.038122,0.083355
1079,3712615781,-0.395083,0.590973,0.527387,-0.465329,0.128941,0.029619,0.147371
1080,3712649115,-0.399113,0.593931,0.523143,-0.462909,0.025963,-0.144035,0.107046
1081,3712682449,-0.402938,0.596889,0.519024,-0.460420,-0.049649,-0.084396,0.089701
1082,3712715783,-0.406473,0.599595,0.515227,-0.458054,-0.123155,-0.007688,0.109399
1083,3712749117,-0.409630,0.602055,0.511775,-0.455881,-0.176868,0.008943,0.105488
1084,3712782451,-0.412307,0.604316,0.508810,-0.453792,-0.171306,0.054432,0.101594
1085,3712815785,-0.414334,0.605849,0.506640,-0.452326,-0.215551,-0.083755,0.085791
1086,3712849119,-0.415430,0.606723,0.505456,-0.451473,-0.202965,0.025548,0.091166
1087,3712882453,-0.415970,0.607372,0.504837,-0.450795,-0.178364,0.027158,0.102106
1088,3712915787,-0.416061,0.607729,0.504763,-0.450313,-0.167020,-0.056271,0.145831
1089,3712949121,-0.415781,0.607715,0.505158,-0.450147,-0.089576,0.049673,0.111517
1090,3712982455,-0.415264,0.607544,0.505749,-0.450191,-0.038937,-0.043556,0.134507
1091,3713015789,-0.414895,0.607290,0.506249,-0.450311,0.024575,-0.068616,0.119274
1092,3713049123,-0.414980,0.607103,0.506446,-0.450265,0.137257,-0.084398,0.141355
1093,3713082457,-0.415516,0.606843,0.506269,-0.450319,0.161098,-0.129598,0.106691
1094,3713115791,-0.416380,0.606553,0.505810,-0.450430,0.115923,-0.188058,0.142846
1095,3713149125,-0.417511,0.606480,0.505082,-0.450297,0.149648,0.086998,0.122417
1096,3713182459,-0.419251,0.606869,0.503748,-0.449650,0.131948,0.120033,0.108382
1097,3713215793,-0.421547,0.607632,0.501797,-0.448653,0.119481,0.178278,0.097726
1098,3713249127,-0.424043,0.608580,0.499550,-0.447522,0.027002,0.031380,0.108268
1099,3713282461,-0.426070,0.609215,0.497752,-0.446735,-0.120051,-0.058137,0.118506
1100,3713315795,-0.427039,0.609262,0.497082,-0.446492,-0.228722,-0.053115,0.094501
1101,3713349129,-0.426743,0.608760,0.497707,-0.446765,-0.207010,-0.046297,0.065207
1102,3713382463,-0.425522,0.607638,0.499349,-0.447623,-0.184992,-0.026456,0.090715
1103,3713415797,-0.423504,0.606111,0.501745,-0.448925,-0.094980,0.066331,0.111396
1104,3713449131,-0.421101,0.604341,0.504486,-0.450497,-0.096120,0.034799,0.111836
1105,3713482465,-0.418570,0.602274,0.507482,-0.452256,-0.068355,0.057103,0.130160
1106,3713515799,-0.415749,0.600131,0.510626,-0.454164,0.058145,-0.005828,0.118410
1107,3713549133,-0.412977,0.597890,0.513670,-0.456212,0.058480,0.027530,0.120794
1108,3713582467,-0.410376,0.595714,0.516520,-0.458184,-0.001409,0.030352,0.095084
1109,3713615801,-0.407740,0.593612,0.519325,-0.460091,-0.099744,-0.037026,0.077931
1110,3713649135,-0.404662,0.591103,0.522652,-0.462264,-0.228045,0.016352,0.122051
1111,3713682469,-0.400929,0.588072,0.526711,-0.464769,-0.326347,0.002393,0.112540
1112,3713715803,-0.396612,0.584762,0.531281,-0.467441,-0.286877,0.094871,0.102489
1113,3713749137,-0.392525,0.581497,0.535702,-0.469911,-0.197381,0.152959,0.126395
1114,3713782471,-0.388915,0.578433,0.539683,-0.472134,-0.087208,0.149500,0.150944
1115,3713815805,-0.385727,0.575557,0.543261,-0.474156,-0.014353,0.156228,0.133433
1116,3713849139,-0.382887,0.572977,0.546393,-0.475982,-0.010787,0.007850,0.131775
1117,3713882473,-0.380425,0.570681,0.549112,-0.477582,0.024253,0.013358,0.093471
1118,3713915807,-0.378342,0.568718,0.551484,-0.478844,0.119592,-0.051580,0.140053
1119,3713949141,-0.376272,0.566943,0.553706,-0.480014,0.183357,-0.120326,0.107846
1120,3713982475,-0.374373,0.565372,0.555697,-0.481049,0.236191,0.059764,0.124667
1121,3714015809,-0.373213,0.564294,0.556885,-0.481842,0.289709,-0.037909,0.098746
1122,3714049143,-0.372484,0.563798,0.557436,-0.482349,0.289118,-0.174955,0.062177
1123,3714082477,-0.371628,0.563625,0.557898,-0.482677,0.224479,-0.271355,0.081397
1124,3714115811,-0.370613,0.563468,0.558375,-0.483089,0.034202,-0.230499,0.094380
1125,3714149145,-0.369286,0.563310,0.559102,-0.483449,0.011498,-0.134842,0.113287
1126,3714182479,-0.367940,0.563085,0.559859,-0.483861,-0.024108,-0.007791,0.110821
1127,3714215813,-0.366698,0.562886,0.560529,-0.484259,-0.139014,0.009341,0.121745
1128,3714249147,-0.365501,0.562622,0.561181,-0.484715,-0.082501,0.102087,0.168431
1129,3714282481,-0.364892,0.562567,0.561479,-0.484893,-0.059087,0.059538,0.109899
1130,3714315815,-0.364988,0.562710,0.561321,-0.484838,-0.064873,0.055641,0.148479
1131,3714349149,-0.365867,0.563266,0.560533,-0.484443,-0.057726,0.087806,0.140674
1132,3714382483,-0.367157,0.564019,0.559414,-0.483883,0.004528,0.047649,0.110832
1133,3714415817,-0.368431,0.564652,0.558301,-0.483461,0.034183,-0.016447,0.101969
1134,3714449151,-0.369732,0.565257,0.557229,-0.482998,-0.019656,-0.055089,0.111957
1135,3714482485,-0.370856,0.565552,0.556486,-0.482647,-0.103603,0.063808,0.112869
1136,3714515819,-0.371792,0.565710,0.555949,-0.482361,-0.075822,0.161582,0.141936
1137,3714549153,-0.372870,0.565994,0.555098,-0.482176,-0.003366,0.237577,0.135519
1138,3714582487,-0.374503,0.566638,0.553720,-0.481738,0.056878,0.190966,0.114629
1139,3714615821,-0.376387,0.567445,0.551999,-0.481294,0.082744,0.065142,0.104195
1140,3714649155,-0.378006,0.568444,0.550319,-0.480771,0.151341,-0.045854,0.086824
1141,3714682489,-0.378970,0.569308,0.549128,-0.480351,0.141998,-0.130209,0.073377
1142,3714715823,-0.379114,0.569997,0.548682,-0.479929,0.182646,-0.193721,0.104121
1143,3714749157,-0.378740,0.570550,0.548469,-0.479810,-0.067285,-0.201536,0.111880
1144,3714782491,-0.378566,0.571281,0.548094,-0.479507,-0.241897,-0.143363,0.107810
1145,3714815825,-0.378815,0.572035,0.547655,-0.478913,-0.309956,0.128434,0.134411
1146,3714849159,-0.379265,0.572747,0.547117,-0.478320,-0.331334,0.036409,0.124656
1147,3714882493,-0.379756,0.573341,0.546642,-0.477761,-0.166277,0.044961,0.114971
1148,3714915827,-0.380511,0.573914,0.546053,-0.477147,-0.053117,-0.132753,0.133784
1149,3714949161,-0.381503,0.574480,0.545329,-0.476501,0.080755,-0.252977,0.099106
1150,3714982495,-0.382603,0.575191,0.544579,-0.475617,0.303551,-0.110349,0.114799
1151,3715015829,-0.384115,0.576224,0.543268,-0.474648,0.354333,-0.105730,0.126373
1152,3715049163,-0.386298,0.577709,0.541181,-0.473452,0.290549,0.019799,0.115273
1153,3715082497,-0.389145,0.579610,0.538373,-0.471997,0.095785,0.069099,0.139748
1154,3715115831,-0.392267,0.581544,0.535354,-0.470466,-0.026938,0.104508,0.161035
1155,3715149165,-0.395445,0.583444,0.532295,-0.468922,-0.078605,0.205311,0.164411
1156,3715182499,-0.398855,0.585512,0.528924,-0.467266,-0.085901,0.186032,0.163166
1157,3715215833,-0.402442,0.587605,0.525356,-0.465586,-0.118616,0.162797,0.091076
1158,3715249167,-0.405678,0.589595,0.522050,-0.463977,-0.123698,0.097643,0.119446
1159,3715282501,-0.408467,0.591452,0.519066,-0.462512,-0.084529,0.113060,0.096538
1160,3715315835,-0.411049,0.593201,0.516193,-0.461198,-0.020478,0.034427,0.076545
1161,3715349169,-0.413453,0.594833,0.513385,-0.460081,0.035809,-0.167193,0.112275
1162,3715382503,-0.415417,0.596201,0.510917,-0.459288,0.043039,-0.144419,0.070697
1163,3715415837,-0.416935,0.597360,0.508885,-0.458662,-0.056902,-0.142798,0.102015
1164,3715449171,-0.418100,0.598340,0.507239,-0.458148,-0.112738,-0.029788,0.086706
1165,3715482505,-0.419355,0.599158,0.505750,-0.457576,-0.177856,-0.152716,0.189105
1166,3715515839,-0.420589,0.600066,0.504205,-0.456959,-0.039866,0.352516,0.098954
1167,3715549173,-0.422313,0.601252,0.502044,-0.456189,-0.196049,0.234705,0.094645
1168,3715582507,-0.424351,0.602507,0.499908,-0.454985,-0.190975,-0.066138,0.140916
1169,3715615841,-0.425549,0.603387,0.498458,-0.454291,-0.144307,-0.149986,0.107912
1170,3715649175,-0.425740,0.603898,0.497915,-0.454029,-0.143548,0.001512,0.085478
1171,3715682509,-0.425464,0.603877,0.498050,-0.454168,-0.163557,-0.054028,0.122482
1172,3715715843,-0.424389,0.603237,0.499115,-0.454853,-0.161682,0.035894,0.101645
1173,3715749177,-0.422549,0.602355,0.500844,-0.455834,-0.104186,0.078458,0.111417
1174,3715782511,-0.420678,0.601329,0.502745,-0.456825,-0.116679,0.116754,0.158234
1175,3715815845,-0.418827,0.600111,0.504629,-0.458048,-0.115608,0.068045,0.096855
1176,3715849179,-0.417026,0.598921,0.506495,-0.459188,-0.188114,0.018103,0.109712
1177,3715882513,-0.414856,0.597730,0.508742,-0.460221,-0.270243,0.069915,0.098167
1178,3715915847,-0.412227,0.596130,0.511351,-0.461765,-0.188101,-0.131786,0.068419
1179,3715949181,-0.409466,0.593883,0.514251,-0.463891,-0.103905,-0.104545,0.126387
1180,3715982515,-0.406417,0.591432,0.517521,-0.466062,-0.072124,0.017288,0.072645
1181,3716015849,-0.403072,0.589174,0.520967,-0.467984,-0.018201,-0.011824,0.106630
1182,3716049183,-0.400110,0.587360,0.523983,-0.469437,0.021010,0.091116,0.129276
1183,3716082517,-0.397844,0.586215,0.526107,-0.470416,0.059079,0.116881,0.078580
1184,3716115851,-0.396200,0.585555,0.527610,-0.470943,0.164027,-0.013315,0.111285
1185,3716149185,-0.394891,0.585046,0.528740,-0.471407,0.230910,-0.084381,0.128010
1186,3716182519,-0.393847,0.584794,0.529488,-0.471753,0.237338,-0.036753,0.109763
1187,3716215853,-0.393306,0.584974,0.529687,-0.471759,0.199195,-0.019382,0.108522
1188,3716249187,-0.393121,0.585393,0.529539,-0.471559,0.074716,-0.076947,0.111143
1189,3716282521,-0.392642,0.585537,0.529676,-0.471626,-0.056391,-0.108260,0.105277
1190,3716315855,-0.391443,0.585225,0.530575,-0.471998,-0.155251,-0.064350,0.094593
1191,3716349189,-0.389626,0.584492,0.532173,-0.472612,-0.261908,-0.115436,0.115131
1192,3716382523,-0.387236,0.583249,0.534499,-0.473484,-0.226643,0.004140,0.124801
1193,3716415857,-0.384485,0.581690,0.537229,-0.474554,-0.138028,0.056514,0.120116
1194,3716449191,-0.381534,0.579819,0.540143,-0.475916,-0.075862,-0.003261,0.117784
1195,3716482525,-0.378552,0.577592,0.543224,-0.477496,-0.059133,-0.020158,0.121910
1196,3716515859,-0.375508,0.575025,0.546499,-0.479257,-0.111963,-0.008331,0.129675
1197,3716549193,-0.372298,0.572342,0.549886,-0.481095,-0.127424,-0.053689,0.092118
1198,3716582527,-0.369060,0.569805,0.553219,-0.482778,-0.107359,0.028881,0.122813
1199,3716615861,-0.366199,0.567638,0.556184,-0.484100,-0.062150,0.109366,0.095072
1200,3716649195,-0.363746,0.565772,0.558691,-0.485246,-0.035221,-0.059146,0.100237
1201,3716682529,-0.361524,0.564167,0.560976,-0.486139,0.034647,-0.071138,0.153807
1202,3716715863,-0.359600,0.562812,0.563022,-0.486770,0.150865,0.064750,0.122301
1203,3716749197,-0.358359,0.561827,0.564439,-0.487183,0.190137,-0.040151,0.127185
1204,3716782531,-0.357819,0.561315,0.565183,-0.487306,0.318479,0.028441,0.144256
1205,3716815865,-0.357979,0.561386,0.565206,-0.487081,0.332408,0.049491,0.111916
1206,3716849199,-0.358530,0.561836,0.564699,-0.486744,0.350945,-0.033583,0.137166
1207,3716882533,-0.359623,0.562624,0.563556,-0.486353,0.246040,-0.105247,0.134373
1208,3716915867,-0.360793,0.563680,0.562262,-0.485760,0.156709,-0.046905,0.106229
1209,3716949201,-0.361719,0.564620,0.561087,-0.485338,0.053349,-0.041885,0.126975
1210,3716982535,-0.362388,0.565345,0.560105,-0.485130,-0.007081,0.052668,0.128202
1211,3717015869,-0.363181,0.566386,0.559083,-0.484501,0.007972,0.265210,0.136029
1212,3717049203,-0.364076,0.567592,0.557869,-0.483816,-0.009163,0.023742,0.106194
1213,3717082537,-0.365409,0.569440,0.556240,-0.482513,0.074234,0.033547,0.111825
1214,3717115871,-0.366871,0.571158,0.554381,-0.481512,-0.078529,-0.285333,0.092369
1215,3717149205,-0.368463,0.572659,0.552641,-0.480513,-0.175698,-0.249580,0.064526
1216,3717182539,-0.369610,0.573932,0.551456,-0.479474,-0.201335,-0.088018,0.146591
1217,3717215873,-0.370682,0.575062,0.550552,-0.478330,-0.284774,0.040207,0.092821
1218,3717249207,-0.371775,0.576113,0.549590,-0.477323,-0.345858,0.095184,0.147869
1219,3717282541,-0.373317,0.577512,0.548314,-0.475893,-0.311429,0.210881,0.117558
1220,3717315875,-0.375306,0.579073,0.546737,-0.474243,-0.175002,0.130856,0.052560
1221,3717349209,-0.377643,0.580865,0.544682,-0.472558,0.057919,0.046065,0.171802
1222,3717382543,-0.381031,0.583240,0.541564,-0.470493,0.244307,-0.050829,0.135829
1223,3717415877,-0.385541,0.586300,0.537329,-0.467862,0.236429,-0.026914,0.120197
1224,3717449211,-0.391038,0.589893,0.532148,-0.464696,0.157597,0.031012,0.146651
1225,3717482545,-0.397334,0.593907,0.526052,-0.461171,0.102946,0.112587,0.153392
1226,3717515879,-0.404130,0.597980,0.519394,-0.457532,0.101618,0.028945,0.164322
1227,3717549213,-0.410844,0.601374,0.512908,-0.454412,0.002815,-0.177701,0.117397
1228,3717582547,-0.416850,0.603443,0.507485,-0.452283,-0.107042,-0.250098,0.121740
1229,3717615881,-0.421677,0.603700,0.503850,-0.451530,-0.101212,-0.286889,0.124655
1230,3717649215,-0.425912,0.603170,0.501175,-0.451240,0.139783,0.412734,0.431480
1231,3717682549,-0.431969,0.604471,0.495901,-0.449564,0.218408,0.120243,0.013200
1232,3717715883,-0.440457,0.607994,0.487759,-0.445465,0.121446,0.099008,0.027318
1233,3717749217,-0.450605,0.613169,0.477687,-0.439093,0.255211,0.576294,0.196914
1234,3717782551,-0.461585,0.619006,0.466147,-0.431840,-0.101245,-0.029162,0.058333
1235,3717815885,-0.470414,0.623544,0.456666,-0.425873,-0.311151,-0.300336,0.062863
1236,3717849219,-0.476528,0.626911,0.450058,-0.421140,-0.357293,-0.260652,0.008556
1237,3717882553,-0.480733,0.629427,0.445492,-0.417448,-0.416540,-0.212436,0.064878
1238,3717915887,-0.483571,0.631180,0.442543,-0.414650,-0.213190,0.240711,0.159541
1239,3717949221,-0.485912,0.632764,0.439920,-0.412284,-0.073370,0.320098,0.116755
1240,3717982555,-0.488083,0.633963,0.437372,-0.410585,-0.160125,0.141533,0.094225
1241,3718015889,-0.490164,0.635028,0.435120,-0.408850,-0.149567,0.140772,0.111063
1242,3718049223,-0.491493,0.635695,0.433674,-0.407751,-0.085265,-0.146096,0.072495
1243,3718082557,-0.491897,0.635724,0.433423,-0.407486,0.027115,-0.189031,0.068368
1244,3718115891,-0.491426,0.635514,0.434033,-0.407733,0.140993,-0.012162,0.060871
1245,3718149225,-0.490649,0.635402,0.434814,-0.408011,0.122242,0.145949,0.085625
1246,3718182559,-0.489634,0.635259,0.435677,-0.408532,-0.071602,0.117714,0.111081
1247,3718215893,-0.488077,0.634859,0.437099,-0.409497,-0.213140,0.060777,0.109091
1248,3718249227,-0.485643,0.633966,0.439532,-0.411166,-0.259933,-0.053022,0.100733
1249,3718282561,-0.482273,0.632591,0.443102,-0.413414,-0.203482,-0.053007,0.074999
1250,3718315895,-0.478049,0.630588,0.447764,-0.416346,-0.153583,-0.054367,0.069154
1251,3718349229,-0.473009,0.627955,0.453346,-0.420024,-0.137944,-0.120447,0.099929
1252,3718382563,-0.467128,0.624678,0.459815,-0.424436,-0.138131,-0.164078,0.081339
1253,3718415897,-0.460914,0.620766,0.466842,-0.429271,-0.079427,-0.079398,0.142739
1254,3718449231,-0.454738,0.616698,0.473901,-0.433962,0.066471,0.176717,0.151087
1255,3718482565,-0.448834,0.612419,0.480661,-0.438708,-0.027612,-0.150702,0.089190
1256,3718515899,-0.442654,0.607777,0.487714,-0.443631,0.010810,-0.002966,0.152699
1257,3718549233,-0.436535,0.603311,0.494625,-0.448116,-0.034491,0.176201,0.110427
1258,3718582567,-0.430295,0.598728,0.501592,-0.452532,-0.163536,0.007751,0.163464
1259,3718615901,-0.423793,0.594192,0.508673,-0.456723,-0.150944,0.165670,0.131575
1260,3718649235,-0.417124,0.589885,0.515580,-0.460682,-0.093157,-0.131238,0.040129
1261,3718682569,-0.409354,0.584994,0.523433,-0.465012,0.021376,-0.234062,0.131407
1262,3718715903,-0.400857,0.579637,0.531873,-0.469524,0.009500,-0.081103,0.141742
1263,3718749237,-0.392412,0.574759,0.539910,-0.473466,-0.070647,-0.041004,0.084020
1264,3718782571,-0.383993,0.570133,0.547771,-0.476920,-0.021014,0.002948,0.088466
1265,3718815905,-0.375893,0.565481,0.555329,-0.480160,0.012511,0.100873,0.123019
1266,3718849239,-0.367695,0.560507,0.562807,-0.483620,0.089420,0.038806,0.137691
1267,3718882573,-0.359304,0.555027,0.570181,-0.487593,-0.018123,-0.032737,0.187638
1268,3718915907,-0.351185,0.549058,0.577353,-0.491809,-0.143281,-0.130919,0.159506
1269,3718949241,-0.343596,0.543301,0.584107,-0.495573,-0.244383,0.280518,0.148161
1270,3718982575,-0.337340,0.539078,0.589453,-0.498147,-0.172469,0.197895,0.110976
1271,3719015909,-0.331494,0.535556,0.594117,-0.500325,-0.024530,0.052293,0.106041
1272,3719049243,-0.325998,0.531931,0.598351,-0.502752,0.069919,-0.027223,0.148499
1273,3719082577,-0.320337,0.528293,0.602424,-0.505356,0.148796,-0.253814,0.124662
1274,3719115911,-0.314883,0.524858,0.606436,-0.507559,0.167890,0.091199,0.102127
1275,3719149245,-0.310691,0.522055,0.609512,-0.509345,0.317142,0.149072,0.178535
1276,3719182579,-0.308698,0.520430,0.610909,-0.510545,0.181083,0.429963,0.172000
1277,3719215913,-0.308993,0.520630,0.610502,-0.510650,0.202817,0.574402,0.072388
1278,3719249247,-0.312034,0.522965,0.608191,-0.509171,0.084352,0.381664,0.114074
1279,3719282581,-0.315795,0.525455,0.605047,-0.508032,0.164092,-0.309695,0.172267
1280,3719315915,-0.319134,0.527872,0.602331,-0.506666,0.319667,-0.398093,0.132059
1281,3719349249,-0.321691,0.529673,0.600199,-0.505699,0.386782,-0.454536,0.104024
1282,3719382583,-0.323158,0.530759,0.598872,-0.505197,0.384361,-0.312894,0.190532
1283,3719415917,-0.324350,0.531416,0.597820,-0.504989,0.104004,0.157161,0.111502
1284,3719449251,-0.326695,0.532936,0.595948,-0.504088,-0.172265,0.295261,0.100518
1285,3719482585,-0.329059,0.534646,0.593597,-0.503513,-0.139317,0.093147,0.184604
1286,3719515919,-0.331659,0.536442,0.591020,-0.502926,-0.082764,-0.028726,0.117807
1287,3719549253,-0.334591,0.538511,0.588414,-0.501828,-0.140311,0.063018,0.073236
1288,3719582587,-0.337427,0.540321,0.585852,-0.500982,-0.091262,-0.353487,0.153786
1289,3719615921,-0.339651,0.541648,0.583844,-0.500388,-0.071620,-0.248835,0.083644
1290,3719649255,-0.341682,0.543230,0.582176,-0.499232,-0.092470,-0.073274,0.110954
1291,3719682589,-0.343917,0.545057,0.580237,-0.497963,-0.087175,0.023668,0.141386
1292,3719715923,-0.346514,0.547205,0.577811,-0.496626,0.011591,-0.112318,0.109786
1293,3719749257,-0.349288,0.549600,0.575221,-0.495042,0.042540,-0.090879,0.090549
1294,3719782591,-0.351885,0.551851,0.572784,-0.493522,0.082909,-0.170116,0.136463
1295,3719815925,-0.354007,0.553833,0.570631,-0.492277,0.092809,-0.220471,0.055140
1296,3719849259,-0.355697,0.555723,0.568923,-0.490903,-0.007957,-0.112935,0.085774
1297,3719882593,-0.356714,0.557096,0.567785,-0.489926,-0.037697,-0.075086,0.132150
1298,3719915927,-0.356754,0.557739,0.567540,-0.489449,0.042145,0.085935,0.092030
1299,3719949261,-0.356415,0.557938,0.567814,-0.489152,-0.004398,0.429116,0.164509
1300,3719982595,-0.357023,0.558665,0.567337,-0.488431,-0.090299,0.416972,0.137239
1301,3720015929,-0.358464,0.559919,0.565918,-0.487586,-0.077527,0.192984,0.155281
1302,3720049263,-0.360217,0.561244,0.564277,-0.486671,-0.025439,-0.002560,0.164556
1303,3720082597,-0.361044,0.561510,0.563551,-0.486593,-0.012804,-0.196662,0.039925
1304,3720115931,-0.360716,0.561464,0.563606,-0.486825,-0.042105,-0.134667,0.266880
1305,3720149265,-0.361260,0.562279,0.562701,-0.486527,-0.154947,-0.251670,-0.021808
1306,3720182599,-0.361857,0.563671,0.561965,-0.485321,0.021940,-0.143483,0.067997
1307,3720215933,-0.362031,0.564514,0.561680,-0.484543,-0.169986,-0.099683,0.100104
1308,3720249267,-0.361953,0.564921,0.561643,-0.484170,-0.411817,-0.014552,0.116373
1309,3720282601,-0.362732,0.565416,0.561063,-0.483681,-0.496203,0.080038,0.113601
1310,3720315935,-0.364258,0.566443,0.560116,-0.482428,-0.244156,0.085312,0.075088
1311,3720349269,-0.365985,0.567948,0.558900,-0.480760,0.007250,-0.025833,0.136343
1312,3720382603,-0.368317,0.569662,0.557044,-0.479101,0.066838,-0.041359,0.104518
1313,3720415937,-0.371716,0.571629,0.554411,-0.477184,0.294941,-0.019595,0.154490
1314,3720449271,-0.375691,0.573857,0.551157,-0.475162,0.377219,-0.266330,0.183519
1315,3720482605,-0.379566,0.576225,0.547746,-0.473157,0.266155,-0.204584,0.066733
1316,3720515939,-0.383583,0.578850,0.543960,-0.471075,0.178037,-0.045040,0.122058
1317,3720549273,-0.388138,0.581855,0.539665,-0.468575,0.152260,0.022812,0.129438
1318,3720582607,-0.392660,0.585042,0.535057,-0.466119,0.042610,-0.019930,0.119515
1319,3720615941,-0.397122,0.588291,0.530413,-0.463550,-0.023080,0.142636,0.128988
1320,3720649275,-0.401681,0.591470,0.525688,-0.460950,-0.104546,0.144981,0.176263
1321,3720682609,-0.406502,0.594358,0.520843,-0.458504,-0.201253,0.142497,0.159187
1322,3720715943,-0.411495,0.597131,0.515957,-0.455965,-0.155380,0.200377,0.160519
1323,3720749277,-0.416740,0.599861,0.510843,-0.453368,-0.065363,0.208008,0.181197
1324,3720782611,-0.422239,0.602492,0.505576,-0.450687,-0.042341,0.119218,0.115235
1325,3720815945,-0.427683,0.605017,0.500376,-0.447965,-0.060963,0.095577,0.143991
1326,3720849279,-0.433141,0.607645,0.495130,-0.444984,-0.039695,0.087920,0.121945
1327,3720882613,-0.438301,0.610364,0.489986,-0.441893,0.017528,-0.038194,0.078198
1328,3720915947,-0.442979,0.613021,0.485143,-0.438885,0.035017,-0.087726,0.110468
1329,3720949281,-0.447418,0.615362,0.480590,-0.436105,-0.033549,-0.074497,0.152342
1330,3720982615,-0.451733,0.617615,0.476167,-0.433315,-0.029487,0.071437,0.102152
1331,3721015949,-0.455850,0.620020,0.471783,-0.430355,-0.009711,-0.001327,0.034684
1332,3721049283,-0.459239,0.622091,0.468025,-0.427858,-0.130903,-0.173397,0.054317
1333,3721082617,-0.461589,0.623741,0.465288,-0.425908,-0.223046,0.051414,0.097559
1334,3721115951,-0.463199,0.624846,0.463476,-0.424513,-0.312100,0.028789,0.111442
1335,3721149285,-0.464021,0.625320,0.462600,-0.423873,-0.248646,0.064654,0.096820
1336,3721182619,-0.464157,0.625587,0.462409,-0.423537,-0.143475,0.097003,0.103011
1337,3721215953,-0.463740,0.625633,0.462810,-0.423490,-0.066698,0.090577,0.086825
1338,3721249287,-0.462938,0.625172,0.463693,-0.424083,-0.169114,-0.052305,0.087104
1339,3721282621,-0.461514,0.624202,0.465416,-0.425174,-0.182882,-0.047072,0.149275
1340,3721315955,-0.459183,0.622664,0.468227,-0.426863,-0.219530,-0.118655,0.094623
1341,3721349289,-0.455791,0.620557,0.472153,-0.429235,-0.145273,-0.093911,0.109375
1342,3721382623,-0.451878,0.618103,0.476637,-0.431950,-0.051138,0.036229,0.094354
1343,3721415957,-0.447938,0.615369,0.481282,-0.434796,-0.059005,0.034348,0.108397
1344,3721449291,-0.444035,0.612489,0.485872,-0.437752,-0.063582,0.101373,0.155242
1345,3721482625,-0.440474,0.609666,0.490137,-0.440527,-0.024840,0.087259,0.106301
1346,3721515959,-0.437028,0.606583,0.494415,-0.443424,-0.086495,-0.084891,0.035412
1347,3721549293,-0.433123,0.603130,0.499280,-0.446505,-0.130593,0.100083,0.130432
1348,3721582627,-0.428815,0.599762,0.504367,-0.449472,-0.158548,0.070966,0.083434
1349,3721615961,-0.423842,0.596237,0.509960,-0.452558,-0.186558,-0.142055,0.094237
1350,3721649295,-0.417958,0.592186,0.516497,-0.455924,-0.184334,0.011890,0.099217
1351,3721682629,-0.411433,0.587721,0.523616,-0.459501,-0.196905,0.031043,0.127563
1352,3721715963,-0.404406,0.582641,0.531278,-0.463398,-0.068400,-0.157129,0.092412
1353,3721749297,-0.396138,0.576655,0.540049,-0.467866,0.124530,-0.217020,0.125844
1354,3721782631,-0.387555,0.570564,0.548880,-0.472225,0.077712,-0.184464,0.108758
1355,3721815965,-0.379214,0.565031,0.557170,-0.475927,0.174531,-0.232933,0.179674
1356,3721849299,-0.371823,0.560084,0.564555,-0.478893,0.397267,0.038043,0.130649
1357,3721882633,-0.365471,0.555936,0.570662,-0.481372,0.456153,-0.074291,0.048378
1358,3721915967,-0.359138,0.552304,0.576233,-0.483676,0.418400,-0.030084,0.152212
1359,3721949301,-0.352498,0.548807,0.581549,-0.486173,0.314643,-0.047076,0.159636
1360,3721982635,-0.345613,0.545691,0.586645,-0.488495,0.062518,0.212018,0.172293
1361,3722015969,-0.339599,0.543495,0.590773,-0.490185,-0.269947,0.378081,0.134109
1362,3722049303,-0.335297,0.541971,0.593687,-0.491312,-0.425176,0.411168,0.144592
1363,3722082637,-0.332382,0.540651,0.595747,-0.492253,-0.407579,0.550143,0.190756
1364,3722115971,-0.330816,0.540111,0.596536,-0.492944,-0.335530,0.278537,0.145087
1365,3722149305,-0.330965,0.540651,0.595981,-0.492924,-0.152774,0.007552,0.138962
1366,3722182639,-0.331866,0.540991,0.595081,-0.493032,0.213871,-0.265226,0.115634
1367,3722215973,-0.332795,0.541503,0.594272,-0.492819,0.334659,-0.196669,0.172153
1368,3722249307,-0.333866,0.542241,0.593199,-0.492577,0.420228,-0.361206,0.157623
1369,3722282641,-0.335242,0.543172,0.591979,-0.492083,0.337618,-0.055071,0.083175
1370,3722315975,-0.336595,0.544357,0.590692,-0.491397,0.219718,-0.025437,0.055826
1371,3722349309,-0.337738,0.546005,0.589345,-0.490399,0.029271,0.113983,0.097940
1372,3722382643,-0.338832,0.547830,0.587890,-0.489355,-0.229441,0.389853,0.197996
1373,3722415977,-0.340454,0.549369,0.585915,-0.488872,-0.367241,0.302381,0.085715
1374,3722449311,-0.342167,0.550688,0.584245,-0.488192,-0.214856,0.131504,0.147172
1375,3722482645,-0.343647,0.551759,0.582677,-0.487817,-0.128723,0.035500,0.145205
1376,3722515979,-0.345074,0.553014,0.581181,-0.487171,-0.017531,0.270371,0.105187
1377,3722549313,-0.346907,0.554332,0.579387,-0.486509,-0.063110,0.043512,0.088884
1378,3722582647,-0.348517,0.555545,0.577534,-0.486177,-0.051497,-0.240653,0.130833
1379,3722615981,-0.349584,0.556642,0.576119,-0.485836,-0.008473,-0.137487,0.056642
1380,3722649315,-0.350318,0.557608,0.575126,-0.485375,-0.080696,-0.299960,0.075920
1381,3722682649,-0.350737,0.558374,0.574452,-0.484990,-0.142735,-0.265302,0.131582
1382,3722715983,-0.350834,0.558885,0.574165,-0.484671,-0.101844,-0.127378,0.132307
1383,3722749317,-0.350710,0.559124,0.574129,-0.484528,-0.081236,-0.061303,0.139838
1384,3722782651,-0.350644,0.559231,0.574072,-0.484520,-0.014711,0.146445,0.143890
1385,3722815985,-0.351186,0.559515,0.573572,-0.484391,0.064912,0.158066,0.133096
1386,3722849319,-0.352457,0.560141,0.572339,-0.484202,0.228836,0.109534,0.131070
1387,3722882653,-0.353743,0.560855,0.570878,-0.484163,0.350251,-0.002994,0.157985
1388,3722915987,-0.355089,0.561920,0.569115,-0.484019,0.146710,-0.119296,0.132538
1389,3722949321,-0.356064,0.563081,0.567670,-0.483650,-0.022330,-0.183877,0.097631
1390,3722982655,-0.356119,0.563718,0.567094,-0.483543,-0.141324,-0.088826,0.152731
1391,3723015989,-0.355423,0.563703,0.567230,-0.483913,-0.291086,0.108334,0.114697
1392,3723049323,-0.354515,0.563341,0.567687,-0.484463,-0.246991,0.102066,0.092828
1393,3723082657,-0.353772,0.562862,0.568045,-0.485143,-0.238780,0.140482,0.064994
1394,3723115991,-0.352913,0.562223,0.568523,-0.485950,-0.105773,-0.149738,0.059792
1395,3723149325,-0.351056,0.560873,0.569934,-0.487201,0.067787,-0.269855,0.086265
1396,3723182659,-0.348743,0.559130,0.572060,-0.488373,-0.054915,0.068653,0.130363
1397,3723215993,-0.347078,0.557850,0.573629,-0.489181,-0.181300,-0.074837,0.155391
1398,3723249327,-0.347113,0.557706,0.573889,-0.489015,-0.120746,0.210620,0.126959
1399,3723282661,-0.348316,0.558217,0.573150,-0.488444,-0.066966,0.059661,0.128715
1400,3723315995,-0.349724,0.558779,0.572252,-0.487846,-0.217113,-0.117181,0.103577
1401,3723349329,-0.351013,0.559498,0.571378,-0.487122,-0.203933,-0.164450,0.091913
1402,3723382663,-0.352595,0.560614,0.570340,-0.485911,-0.023050,-0.088494,0.061958
1403,3723415997,-0.354774,0.561995,0.568884,-0.484434,0.043405,-0.102383,0.088911
1404,3723449331,-0.357140,0.563738,0.567060,-0.482806,-0.004032,-0.041399,0.105706
1405,3723482665,-0.359959,0.565831,0.564793,-0.480918,-0.040521,-0.073637,0.066796
1406,3723515999,-0.363012,0.568313,0.562374,-0.478524,0.010929,-0.062447,0.138577
1407,3723549333,-0.366036,0.570809,0.559926,-0.476116,0.062655,0.071282,0.120903
1408,3723582667,-0.369309,0.573460,0.557079,-0.473736,0.119197,0.157764,0.161005
1409,3723616001,-0.373279,0.576103,0.553665,-0.471414,0.247425,0.114879,0.189111
1410,3723649335,-0.377488,0.578608,0.549902,-0.469395,0.282058,0.036031,0.138818
1411,3723682669,-0.381817,0.581108,0.545871,-0.467506,0.238798,-0.024569,0.117420
1412,3723716003,-0.386156,0.583536,0.541791,-0.465662,0.178379,-0.042716,0.141973
1413,3723749337,-0.390567,0.585957,0.537600,-0.463795,0.113178,0.117196,0.145803
1414,3723782671,-0.395377,0.588687,0.532968,-0.461603,0.032846,0.083787,0.130165
1415,3723816005,-0.400555,0.591692,0.527970,-0.459034,0.010768,0.187618,0.147413
1416,3723849339,-0.405781,0.594483,0.522872,-0.456668,-0.065135,0.046213,0.099236
1417,3723882673,-0.410603,0.596837,0.518116,-0.454702,-0.043039,0.057863,0.116806
1418,3723916007,-0.414825,0.598988,0.513815,-0.452919,-0.000822,-0.030323,0.127163
1419,3723949341,-0.418455,0.601052,0.509997,-0.451158,-0.017854,0.020802,0.075574
1420,3723982675,-0.421743,0.602926,0.506486,-0.449549,-0.077509,-0.077146,0.101105
1421,3724016009,-0.424901,0.604505,0.503178,-0.448165,-0.106956,0.013381,0.105760
1422,3724049343,-0.427807,0.606135,0.500040,-0.446710,-0.131357,0.033503,0.083028
1423,3724082677,-0.430265,0.607660,0.497273,-0.445363,-0.146612,-0.063930,0.077519
1424,3724116011,-0.432431,0.609069,0.494817,-0.444074,-0.104475,0.040255,0.107629
1425,3724149345,-0.434368,0.610370,0.492602,-0.442860,-0.194761,-0.096671,0.105441
1426,3724182679,-0.435746,0.611237,0.491015,-0.442072,-0.261960,-0.099545,0.083158
1427,3724216013,-0.436337,0.611715,0.490202,-0.441730,-0.288757,-0.011641,0.085654
1428,3724249347,-0.436334,0.611919,0.490068,-0.441599,-0.294933,0.094328,0.075303
1429,3724282681,-0.435522,0.611448,0.490816,-0.442221,-0.240891,0.110167,0.113599
1430,3724316015,-0.433875,0.610528,0.492453,-0.443290,-0.099204,0.165722,0.127245
1431,3724349349,-0.431591,0.609236,0.494725,-0.444765,-0.002134,0.133942,0.116590
1432,3724382683,-0.429134,0.607873,0.497146,-0.446305,-0.037213,0.074780,0.120850
1433,3724416017,-0.426634,0.606515,0.499627,-0.447777,-0.088097,-0.002979,0.103778
1434,3724449351,-0.423646,0.604769,0.502639,-0.449600,-0.100103,-0.131796,0.093632
1435,3724482685,-0.419856,0.602495,0.506488,-0.451884,-0.054120,-0.113796,0.092523
1436,3724516019,-0.415407,0.599861,0.510942,-0.454478,-0.039535,-0.029466,0.084896
1437,3724549353,-0.410939,0.597100,0.515466,-0.457060,-0.053378,-0.142180,0.118187
1438,3724582687,-0.406194,0.594187,0.520202,-0.459723,-0.003744,-0.014610,0.079636
1439,3724616021,-0.401240,0.591085,0.525141,-0.462450,-0.078139,-0.001397,0.073976
1440,3724649355,-0.395941,0.587378,0.530729,-0.465352,-0.178704,0.191374,0.136532
1441,3724682689,-0.390306,0.583101,0.536751,-0.468573,-0.369059,-0.012699,0.121818
1442,3724716023,-0.384114,0.578517,0.543263,-0.471856,-0.389782,0.067081,0.177551
1443,3724749357,-0.377941,0.573985,0.549746,-0.474857,-0.274811,0.097200,0.077435
1444,3724782691,-0.371724,0.569180,0.556308,-0.477897,-0.089207,-0.007455,0.169256
1445,3724816025,-0.365505,0.563694,0.562972,-0.481379,0.038194,0.049439,0.136573
1446,3724849359,-0.359515,0.558261,0.569168,-0.484923,0.132971,-0.040492,0.116708
1447,3724882693,-0.353837,0.553371,0.574691,-0.488179,0.138193,-0.096862,0.122079
1448,3724916027,-0.348259,0.548915,0.579933,-0.491014,0.131467,-0.013404,0.127927
1449,3724949361,-0.342847,0.544953,0.584695,-0.493580,0.146343,0.135230,0.157674
1450,3724982695,-0.338277,0.541944,0.588366,-0.495680,0.067125,0.135983,0.100874
1451,3725016029,-0.334863,0.539855,0.591070,-0.497060,0.018530,0.183817,0.148875
1452,3725049363,-0.332797,0.538681,0.592630,-0.497863,0.030413,0.101123,0.113274
1453,3725082697,-0.331408,0.538305,0.593402,-0.498275,0.056975,0.048483,0.079757
1454,3725116031,-0.330692,0.538718,0.593648,-0.498011,0.026419,-0.007874,0.094038
1455,3725149365,-0.330208,0.539229,0.593545,-0.497902,-0.056135,-0.272628,0.098816
1456,3725182699,-0.329079,0.539393,0.594050,-0.497870,-0.037197,-0.098555,0.146092
1457,3725216033,-0.327684,0.539403,0.594871,-0.497799,-0.094792,0.238435,0.120209
1458,3725249367,-0.327393,0.540023,0.594892,-0.497294,-0.177035,0.090764,0.180237
1459,3725282701,-0.328059,0.541010,0.594122,-0.496702,-0.002160,0.143438,0.140769
1460,3725316035,-0.329797,0.542731,0.592579,-0.495515,0.204904,0.317829,0.124873
1461,3725349369,-0.333209,0.545471,0.589769,-0.493573,0.255811,0.080495,0.135822
1462,3725382703,-0.337248,0.548385,0.586290,-0.491741,0.474808,-0.163941,0.175851
1463,3725416037,-0.341318,0.551548,0.582608,-0.489769,0.554221,-0.170785,0.053948
1464,3725449371,-0.345156,0.554930,0.578904,-0.487646,0.458855,-0.253185,0.044361
1465,3725482705,-0.348489,0.557908,0.575554,-0.485839,0.214667,-0.356333,0.187551
1466,3725516039,-0.350894,0.559964,0.573021,-0.484735,-0.000865,-0.209033,0.109153
1467,3725549373,-0.352437,0.561354,0.571408,-0.483912,-0.201413,0.252110,0.096180
1468,3725582707,-0.354030,0.562537,0.569845,-0.483218,-0.379460,0.240132,0.123326
1469,3725616041,-0.355464,0.563378,0.568284,-0.483023,-0.292154,0.095192,0.080474
1470,3725649375,-0.356743,0.564136,0.566965,-0.482745,-0.159208,-0.001430,0.039628
1471,3725682709,-0.357459,0.564686,0.566190,-0.482483,-0.088960,-0.177169,0.049537
