sep=,
DeviceTag:,D_leg_new
FirmwareVersion:,2.2.1
AppVersion:,2023.6.0
SyncStatus:,Un-synced
OutputRate:,30Hz
FilterProfile:,General
Measurement Mode:,Sensor fusion Mode - Complete(Quaternion)
StartTime: ,2026-09-07_15:10:55_793 AEST
© Movella Technologies B. V. 2005-2026

PacketCounter,SampleTimeFine,Quat_W,Quat_X,Quat_Y,Quat_Z,FreeAcc_X,FreeAcc_Y,FreeAcc_Z
1,944848570,0.181610,0.627648,-0.046757,0.755573,-0.325120,0.471183,0.307398
2,944865237,0.178354,0.630568,-0.048742,0.753789,-0.402110,0.529271,-0.061327
3,944898571,0.169593,0.636859,-0.049756,0.750449,-0.056445,0.670262,-0.408923
4,944931905,0.158962,0.642220,-0.047324,0.748361,-0.220417,0.737299,-0.736646
5,944965239,0.147746,0.648438,-0.042790,0.745566,-0.481613,0.143319,-0.587609
6,944998573,0.137763,0.655337,-0.036998,0.741746,-0.624299,0.086242,-0.299734
7,945031907,0.129121,0.662735,-0.032098,0.736940,-0.808162,-0.760093,-0.099345
8,945065241,0.123133,0.669416,-0.029104,0.732034,0.024683,-1.086413,0.610700
9,945098575,0.120774,0.673606,-0.030410,0.728522,0.754082,-0.187359,0.942555
10,945131909,0.118339,0.675715,-0.032180,0.726890,0.893620,-0.209578,0.989139
11,945165243,0.111262,0.677402,-0.028302,0.726599,0.256538,-0.370787,0.124188
12,945198577,0.104367,0.679443,-0.024857,0.725842,-0.171444,0.156194,-0.159397
13,945231911,0.095532,0.682236,-0.021636,0.724541,-0.043930,0.557689,0.047442
14,945265245,0.082173,0.685816,-0.016286,0.722938,0.137765,0.391742,0.271430
15,945298579,0.067952,0.689273,-0.010252,0.721235,0.110062,-0.041326,0.298495
16,945331913,0.054034,0.692575,-0.003998,0.719308,0.051993,-0.469759,0.353150
17,945365247,0.040622,0.695271,0.002245,0.717595,-0.088380,-0.652845,0.149563
18,945398581,0.028425,0.697866,0.007460,0.715625,0.141410,-0.315608,0.028772
19,945431915,0.016645,0.700736,0.011982,0.713126,0.098285,0.072494,0.163889
20,945465249,0.003548,0.703778,0.017111,0.710205,0.115508,0.171730,0.011118
21,945498583,-0.010582,0.707211,0.023078,0.706546,0.298627,-0.112059,0.074182
22,945531917,-0.024567,0.710766,0.028864,0.702407,0.162472,-0.428204,0.109626
23,945565251,-0.037689,0.714061,0.034032,0.698240,0.244891,-0.551901,0.112723
24,945598585,-0.048567,0.717410,0.037214,0.693959,0.297737,-0.374796,0.195970
25,945631919,-0.056807,0.720661,0.038187,0.689901,0.174378,-0.301077,0.129612
26,945665253,-0.063053,0.723500,0.037534,0.686413,0.205247,-0.226612,0.057029
27,945698587,-0.066992,0.726125,0.035266,0.683382,0.189204,-0.015687,0.302218
28,945731921,-0.069008,0.728488,0.031467,0.680847,0.040547,0.119461,0.219682
29,945765255,-0.069620,0.730770,0.026725,0.678539,-0.047892,-0.067908,-0.013325
30,945798589,-0.069151,0.733371,0.021718,0.675954,-0.168967,0.214405,0.143286
31,945831923,-0.068538,0.735762,0.017111,0.673546,-0.038932,0.172165,0.191214
32,945865257,-0.067417,0.737951,0.012488,0.671362,0.193630,0.278657,0.187862
33,945898591,-0.065533,0.739751,0.007194,0.669644,0.391396,0.166537,0.256157
34,945931925,-0.063235,0.740994,0.001712,0.668526,0.528682,0.297677,0.328722
35,945965259,-0.060946,0.741481,-0.003399,0.668192,0.245104,0.457704,0.371140
36,945998593,-0.059112,0.741267,-0.007901,0.668556,0.114495,0.223689,0.172720
37,946031927,-0.056564,0.740933,-0.012771,0.669071,-0.087051,-0.108172,0.087529
38,946065261,-0.052858,0.740963,-0.018471,0.669208,0.055671,0.073179,0.159315
39,946098595,-0.048454,0.741126,-0.024552,0.669166,0.108398,0.110653,0.289697
40,946131929,-0.044253,0.741034,-0.030266,0.669324,0.045754,0.196392,0.210216
41,946165263,-0.039797,0.740818,-0.036189,0.669548,0.054936,0.193402,0.276177
42,946198597,-0.034851,0.740478,-0.042348,0.669839,0.115090,0.260838,0.151140
43,946231931,-0.029866,0.740180,-0.048216,0.670012,0.002567,0.423474,0.166242
44,946265265,-0.025170,0.739821,-0.053730,0.670182,0.077095,0.307202,0.145236
45,946298599,-0.021015,0.739471,-0.058486,0.670314,0.352036,0.217247,0.255807
46,946331933,-0.017574,0.739109,-0.062315,0.670467,0.490867,0.225742,0.138252
47,946365267,-0.015187,0.738928,-0.065112,0.670458,0.540925,0.357201,0.116573
48,946398601,-0.014371,0.738930,-0.066188,0.670370,0.466234,0.326955,0.189385
49,946431935,-0.015314,0.739024,-0.065468,0.670315,0.534088,0.261316,0.144431
50,946465269,-0.017804,0.739280,-0.062969,0.670211,0.415457,0.155931,0.125489
51,946498603,-0.021631,0.739808,-0.058735,0.669900,0.194564,0.231230,0.158089
52,946531937,-0.026946,0.740434,-0.053098,0.669486,0.170020,0.132657,0.164736
53,946565271,-0.032749,0.741174,-0.046605,0.668892,0.032840,-0.101509,0.253799
54,946598605,-0.038581,0.741949,-0.039992,0.668149,0.036859,-0.038080,0.165758
55,946631939,-0.044044,0.742766,-0.033777,0.667246,0.130675,0.220578,0.214744
56,946665273,-0.049410,0.743446,-0.027431,0.666404,-0.008653,0.304509,0.248918
57,946698607,-0.054733,0.743977,-0.021089,0.665626,-0.123006,0.040728,0.134627
58,946731941,-0.059085,0.744626,-0.015552,0.664680,-0.240505,-0.083654,0.153713
59,946765275,-0.062435,0.745352,-0.010929,0.663651,-0.115719,0.044736,0.169682
60,946798609,-0.065339,0.746049,-0.006461,0.662646,-0.054465,0.199143,0.187604
61,946831943,-0.068607,0.746668,-0.001392,0.661648,-0.128135,0.264598,0.201922
62,946865277,-0.072106,0.747315,0.004153,0.660533,-0.022398,0.227397,0.187543
63,946898611,-0.075671,0.747978,0.010114,0.659319,0.086165,0.251470,0.195247
64,946931945,-0.079464,0.748646,0.016687,0.657979,0.008944,0.277991,0.167354
65,946965279,-0.083586,0.749319,0.023856,0.656479,-0.013725,0.318453,0.239902
66,946998613,-0.088212,0.749778,0.031771,0.655014,-0.007399,0.276436,0.256898
67,947031947,-0.092751,0.750070,0.039799,0.653612,-0.096080,0.157760,0.167465
68,947065281,-0.096734,0.750409,0.047453,0.652133,-0.097947,0.241958,0.168802
69,947098615,-0.100294,0.750773,0.054919,0.650589,-0.070067,0.208294,0.123455
70,947131949,-0.103558,0.751166,0.062551,0.648932,-0.102999,0.089020,0.096139
71,947165283,-0.106578,0.751628,0.070189,0.647124,-0.064269,0.115466,0.170106
72,947198617,-0.109072,0.751935,0.077409,0.645528,-0.057117,-0.159805,0.136702
73,947231951,-0.110470,0.752260,0.083436,0.644158,-0.018215,-0.152530,0.206822
74,947265285,-0.110790,0.752507,0.088447,0.643145,-0.013665,-0.201090,0.169782
75,947298619,-0.110548,0.752585,0.093086,0.642441,-0.254133,-0.081284,0.168006
76,947331953,-0.110286,0.752239,0.097656,0.642212,-0.402854,-0.193712,0.278945
77,947365287,-0.109876,0.751245,0.101896,0.642787,-0.425836,-0.536524,0.376553
78,947398621,-0.108035,0.749649,0.104706,0.644508,-0.570359,-0.971903,0.246853
79,947431955,-0.104303,0.747959,0.105256,0.646993,-0.794857,-1.120572,0.297801
80,947465289,-0.098312,0.746438,0.103041,0.650037,-0.906526,-0.954460,0.076437
81,947498623,-0.090921,0.745328,0.098837,0.653032,-0.811529,-0.780441,0.074740
82,947531957,-0.081988,0.744471,0.092732,0.656081,-0.747705,-0.712804,0.216059
83,947565291,-0.072371,0.743622,0.085374,0.659166,-0.576502,-0.659719,0.153495
84,947598625,-0.062812,0.742859,0.077591,0.661963,-0.485997,-0.546627,0.047956
85,947631959,-0.053127,0.742289,0.069308,0.664366,-0.327343,-0.315265,0.000556
86,947665293,-0.043786,0.742002,0.061139,0.666166,-0.048597,-0.162586,0.111357
87,947698627,-0.035061,0.742003,0.053476,0.667340,0.182230,-0.287358,0.238341
88,947731961,-0.027032,0.741794,0.046250,0.668485,0.206807,-0.320414,0.205673
89,947765295,-0.019993,0.740991,0.039555,0.670051,0.029884,-0.522257,0.334044
90,947798629,-0.013367,0.739713,0.032852,0.671988,-0.209957,-0.593150,0.231006
91,947831963,-0.006750,0.738419,0.025553,0.673824,-0.424254,-0.389583,0.133803
92,947865297,-0.000665,0.737256,0.018319,0.675365,-0.464520,-0.315206,0.153020
93,947898631,0.004393,0.736146,0.011868,0.676705,-0.402450,-0.250116,0.141752
94,947931965,0.008537,0.735161,0.006150,0.677811,-0.382854,-0.153342,0.168759
95,947965299,0.012479,0.734313,0.000480,0.678696,-0.385007,-0.244010,0.126225
96,947998633,0.017021,0.733580,-0.005809,0.679365,-0.353412,-0.246591,0.198032
97,948031967,0.021644,0.732787,-0.012140,0.680006,-0.250550,-0.096466,0.231884
98,948065301,0.026506,0.731916,-0.018536,0.680627,-0.268230,-0.036684,0.170528
99,948098635,0.031137,0.731032,-0.024443,0.681194,-0.216332,0.398323,0.119935
100,948131969,0.034188,0.730112,-0.028687,0.681869,-0.211171,0.434376,0.113130
101,948165303,0.036046,0.729172,-0.031578,0.682651,0.015242,0.236527,0.102260
102,948198637,0.036796,0.728327,-0.033289,0.683431,0.162872,-0.064520,0.153782
103,948231971,0.037256,0.727784,-0.034503,0.683924,0.097368,-0.006615,0.217826
104,948265305,0.037159,0.727349,-0.035104,0.684361,0.071112,-0.004251,0.144768
105,948298639,0.036597,0.726912,-0.034852,0.684869,0.148364,0.032932,0.269979
106,948331973,0.035889,0.726080,-0.033960,0.685832,0.173448,0.062520,0.343883
107,948365307,0.034361,0.724820,-0.031871,0.687343,0.212245,0.229723,0.271982
108,948398641,0.032222,0.722878,-0.028720,0.689626,0.284628,0.327538,0.370036
109,948431975,0.029764,0.720036,-0.024686,0.692858,0.427457,0.311258,0.170557
110,948465309,0.027722,0.716947,-0.020958,0.696261,-0.536869,0.476666,-0.173894
111,948498643,0.025384,0.714608,-0.017140,0.698854,-0.451654,0.520902,0.014999
112,948531977,0.022394,0.712884,-0.012431,0.700814,-0.313805,0.045045,0.177296
113,948565311,0.019337,0.711719,-0.007334,0.702160,-0.075323,0.082033,0.084684
114,948598645,0.015986,0.710818,-0.001558,0.703193,0.233400,0.268516,0.229522
115,948631979,0.012380,0.709736,0.004692,0.704343,0.048513,0.100138,0.120565
116,948665313,0.009225,0.708977,0.010647,0.705091,0.109027,0.521424,0.176739
117,948698647,0.005783,0.708234,0.016730,0.705756,-0.090937,0.183090,0.109033
118,948731981,0.002629,0.707565,0.022804,0.706275,-0.153040,-0.516354,0.150647
119,948765315,0.001495,0.707045,0.027033,0.706650,-0.210366,-0.466839,0.224251
120,948798649,0.002004,0.706101,0.029187,0.707507,-0.245309,-0.365392,0.271033
121,948831983,0.005043,0.704904,0.028854,0.708697,-0.470184,-0.617371,0.188746
122,948865317,0.011114,0.703365,0.025273,0.710293,-0.499172,-0.418070,0.234347
123,948898651,0.019651,0.700924,0.018739,0.712719,-0.623811,-0.403907,0.297754
124,948931985,0.030350,0.698003,0.009797,0.715385,-0.803345,-0.510636,0.236475
125,948965319,0.043041,0.694928,-0.001598,0.717788,-0.864790,-0.299890,0.160480
126,948998653,0.056760,0.691566,-0.014452,0.719935,-0.638615,-0.126372,0.255299
127,949031987,0.070171,0.688369,-0.027266,0.721444,-0.422577,0.091511,0.130599
128,949065321,0.082491,0.685379,-0.039407,0.722425,-0.039068,0.206686,0.086964
129,949098655,0.092590,0.682872,-0.049347,0.722965,0.290475,-0.001638,0.134447
130,949131989,0.099561,0.681421,-0.056155,0.722911,0.287403,-0.173084,0.030943
131,949165323,0.104219,0.680985,-0.060915,0.722279,0.251091,-0.195908,-0.020804
132,949198657,0.107295,0.681317,-0.064618,0.721193,0.320413,-0.190284,0.074084
133,949231991,0.108379,0.682065,-0.066785,0.720126,0.418672,-0.351644,0.175842
134,949265325,0.107870,0.683234,-0.067491,0.719028,0.159035,-0.253361,0.174559
135,949298659,0.107473,0.684204,-0.068665,0.718053,0.056604,-0.153175,0.232148
136,949331993,0.106017,0.685216,-0.069093,0.717263,0.077871,-0.200261,0.177942
137,949365327,0.104157,0.686444,-0.069194,0.716351,-0.181223,-0.129747,0.129603
138,949398661,0.102557,0.687421,-0.069706,0.715595,0.085159,0.139037,0.218306
139,949431995,0.099554,0.688476,-0.069311,0.715043,-0.128437,0.076741,0.186316
140,949465329,0.096544,0.689804,-0.068754,0.714229,-0.347792,-0.119061,0.117800
141,949498663,0.093229,0.691186,-0.068000,0.713405,-0.322636,-0.030266,0.193058
142,949531997,0.089515,0.692508,-0.067102,0.712683,-0.417740,-0.084156,0.208478
143,949565331,0.086007,0.693968,-0.066421,0.711758,-0.534040,-0.293573,0.108171
144,949598665,0.082835,0.695800,-0.066113,0.710373,-0.252510,-0.067579,0.150030
145,949631999,0.078795,0.698153,-0.065084,0.708617,0.014947,0.185539,0.153090
146,949665333,0.073986,0.700831,-0.062942,0.706682,0.332292,0.340457,0.131617
147,949698667,0.068273,0.703534,-0.059338,0.704881,0.241699,0.206385,0.103072
148,949732001,0.061502,0.706117,-0.054380,0.703321,0.410078,0.296922,0.298553
149,949765335,0.053894,0.708402,-0.048116,0.702102,0.386437,0.440029,0.270747
150,949798669,0.044888,0.710323,-0.039583,0.701327,0.159911,0.541189,0.164856
151,949832003,0.035671,0.711619,-0.030512,0.700996,-0.128429,0.467907,0.242455
152,949865337,0.026648,0.712236,-0.021533,0.701104,-0.119991,0.180283,0.319563
153,949898671,0.019203,0.712003,-0.013612,0.701782,-0.373020,-0.084308,0.171378
154,949932005,0.013349,0.711512,-0.007098,0.702511,-0.254314,0.388158,0.124476
155,949965339,0.007772,0.710742,-0.000908,0.703409,-0.280314,0.581916,0.027910
156,949998673,0.001541,0.709961,0.006541,0.704209,-0.057855,0.388775,0.158694
157,950032007,-0.005160,0.709689,0.015104,0.704334,-0.535776,0.340656,-0.015606
158,950065341,-0.011892,0.709992,0.022980,0.703734,-0.772155,0.243301,0.055452
159,950098675,-0.018192,0.710746,0.030294,0.702560,-0.657004,-0.509265,0.259210
160,950132009,-0.021777,0.711670,0.035254,0.701291,-0.517327,-0.489696,0.325199
161,950165343,-0.022140,0.712248,0.036685,0.700619,-0.630658,-0.296732,0.326051
162,950198677,-0.018906,0.711976,0.033969,0.701126,-0.835073,-0.453634,0.273754
163,950232011,-0.012027,0.711151,0.027529,0.702397,-0.862372,-0.349112,0.298066
164,950265345,-0.003501,0.709879,0.019480,0.704046,-0.820385,0.092733,0.280032
165,950298679,0.004827,0.708066,0.011641,0.706034,-0.521757,0.293015,0.223903
166,950332013,0.012620,0.706053,0.004395,0.708033,-0.582130,-0.108793,0.010591
167,950365347,0.021323,0.704648,-0.003870,0.709226,-0.449366,-0.224634,-0.050563
168,950398681,0.030680,0.704149,-0.013290,0.709265,-0.135633,-0.216985,0.007211
169,950432015,0.038855,0.704262,-0.022211,0.708528,0.200581,-0.195293,-0.040602
170,950465349,0.045612,0.705056,-0.029684,0.707060,0.259079,0.065418,0.046278
171,950498683,0.051139,0.705810,-0.035507,0.705660,0.424845,0.121473,0.284355
172,950532017,0.054383,0.706090,-0.039385,0.704931,0.554094,-0.451789,0.305973
173,950565351,0.057196,0.706161,-0.043059,0.704422,0.330986,-0.546321,0.209837
174,950598685,0.060667,0.705859,-0.047420,0.704155,0.343433,-0.268501,0.287662
175,950632019,0.063298,0.705194,-0.051512,0.704302,0.110148,-0.145028,0.196720
176,950665353,0.065798,0.704307,-0.055607,0.704649,-0.187807,-0.019797,0.184294
177,950698687,0.068541,0.703192,-0.059899,0.705150,-0.352951,-0.030879,0.178145
178,950732021,0.070646,0.702200,-0.064022,0.705568,-0.469597,-0.040117,0.025848
179,950765355,0.072566,0.701726,-0.068048,0.705467,-0.456964,-0.002789,0.052363
180,950798689,0.073654,0.701988,-0.071392,0.704763,-0.231205,0.188088,0.102237
181,950832023,0.073043,0.702983,-0.073271,0.703642,-0.149055,0.131562,0.055581
182,950865357,0.070682,0.704654,-0.073532,0.702182,-0.068462,0.239484,0.128512
183,950898691,0.066776,0.706818,-0.072388,0.700507,-0.104760,0.023409,0.110055
184,950932025,0.062264,0.709246,-0.070656,0.698642,-0.124538,-0.109769,0.141719
185,950965359,0.057580,0.711741,-0.068844,0.696685,-0.100939,-0.196023,0.143899
186,950998693,0.053002,0.714416,-0.067185,0.694469,0.019820,-0.018414,0.178571
187,951032027,0.048096,0.717036,-0.065186,0.692313,0.222368,0.229842,0.193618
188,951065361,0.042007,0.719412,-0.061707,0.690560,0.318092,0.142877,0.177612
189,951098695,0.034545,0.721815,-0.056640,0.688899,0.293118,0.188984,0.206386
190,951132029,0.025451,0.724204,-0.049902,0.687307,0.479520,0.036583,0.159128
191,951165363,0.014889,0.726822,-0.041764,0.685393,0.726219,0.316802,0.183402
192,951198697,0.002682,0.729428,-0.031919,0.683307,0.686054,0.134942,0.198657
193,951232031,-0.010709,0.732062,-0.020725,0.680839,0.624717,0.211851,0.127728
194,951265365,-0.024564,0.734861,-0.008748,0.677716,0.342003,0.286170,0.236157
195,951298699,-0.038823,0.737566,0.003940,0.674147,0.032633,0.452292,0.167427
196,951332033,-0.053265,0.740055,0.017146,0.670215,-0.150215,0.520782,0.234913
197,951365367,-0.067366,0.741994,0.030461,0.666318,-0.192569,0.361429,0.248867
198,951398701,-0.079695,0.743519,0.042542,0.662585,-0.386315,0.123046,0.255382
199,951432035,-0.088860,0.744824,0.051682,0.659296,-0.580040,0.212131,-0.019542
200,951465369,-0.095516,0.746113,0.058102,0.656366,-0.546587,0.516837,0.139372
201,951498703,-0.101295,0.747179,0.064213,0.653712,-0.491125,0.552482,0.244031
202,951532037,-0.108217,0.747960,0.072001,0.650893,-0.443735,0.678622,0.195378
203,951565371,-0.116760,0.748402,0.081708,0.647754,-0.211242,0.768988,0.211429
204,951598705,-0.126047,0.748201,0.092279,0.644820,-0.013124,0.263548,0.294507
205,951632039,-0.133801,0.747765,0.101386,0.642391,-0.016361,-0.271225,0.266046
206,951665373,-0.138493,0.747505,0.107807,0.640651,-0.306552,-0.172665,0.255615
207,951698707,-0.140545,0.747113,0.111603,0.640011,-0.613019,-0.172845,0.263293
208,951732041,-0.140406,0.746468,0.113080,0.640535,-0.829635,-0.198356,0.277994
209,951765375,-0.138550,0.745564,0.112937,0.642016,-0.792461,-0.235888,0.200143
210,951798709,-0.135297,0.744647,0.111826,0.643965,-0.825405,-0.294598,0.215891
211,951832043,-0.130628,0.743891,0.109620,0.646177,-0.682779,-0.244663,0.218245
212,951865377,-0.124666,0.743213,0.106036,0.648729,-0.677581,-0.192705,0.217528
213,951898711,-0.118751,0.742435,0.102647,0.651270,-0.584533,-0.205678,0.152868
214,951932045,-0.112715,0.741811,0.099266,0.653574,-0.494491,0.116940,0.168271
215,951965379,-0.107619,0.740989,0.096797,0.655732,-0.243658,0.230815,0.220961
216,951998713,-0.103937,0.739647,0.095747,0.657991,0.120580,0.231577,0.196834
217,952032047,-0.101369,0.737495,0.095767,0.660798,0.230158,-0.039179,0.237340
218,952065381,-0.098722,0.734805,0.095758,0.664188,0.118295,-0.219272,0.186971
219,952098715,-0.095463,0.732101,0.095024,0.667747,0.025550,-0.236273,0.144234
220,952132049,-0.091118,0.730017,0.093282,0.670874,-0.310939,-0.215362,0.006086
221,952165383,-0.086454,0.728780,0.091364,0.673096,-0.409969,0.112669,0.172630
222,952198717,-0.083057,0.727864,0.090342,0.674651,-0.297192,-0.175676,0.126194
223,952232051,-0.081052,0.726988,0.090279,0.675847,-0.182140,-0.322786,0.086738
224,952265385,-0.078966,0.726284,0.089668,0.676931,-0.192151,-0.353754,0.240182
225,952298719,-0.076468,0.725753,0.088190,0.677981,-0.203395,-0.417690,0.215747
226,952332053,-0.073859,0.725298,0.085981,0.679040,-0.147166,-0.556118,0.000356
227,952365387,-0.071028,0.725195,0.083196,0.679799,-0.217656,-0.248906,0.160381
228,952398721,-0.068970,0.724876,0.080845,0.680634,-0.148933,-0.094690,0.263182
229,952432055,-0.067384,0.724383,0.078614,0.681578,-0.135991,-0.262355,0.138665
230,952465389,-0.065796,0.723786,0.075940,0.682670,-0.020803,-0.165505,0.135855
231,952498723,-0.065262,0.722860,0.073845,0.683931,-0.100374,0.033375,0.251959
232,952532057,-0.065533,0.721337,0.072560,0.685648,-0.486341,-0.705818,0.178984
233,952565391,-0.064998,0.719549,0.070407,0.687800,-0.888127,-0.794309,0.337255
234,952598725,-0.063341,0.717954,0.065894,0.690064,-1.080739,-0.534293,0.191094
235,952632059,-0.059990,0.717317,0.058952,0.691652,-0.734599,-0.264570,0.154024
236,952665393,-0.054448,0.717588,0.049812,0.692547,-0.288789,-0.353029,0.092456
237,952698727,-0.048038,0.718198,0.040154,0.693016,-0.010948,0.070530,0.128098
238,952732061,-0.042095,0.718744,0.031436,0.693287,0.181779,0.610145,0.180067
239,952765395,-0.037620,0.719102,0.024438,0.693455,-0.008082,0.712541,0.078772
240,952798729,-0.034299,0.719832,0.018981,0.693041,-0.116088,0.601313,0.090482
241,952832063,-0.032185,0.720781,0.015590,0.692240,0.096127,0.295118,0.235690
242,952865397,-0.031035,0.720942,0.013781,0.692163,0.039613,0.031122,0.319765
243,952898731,-0.029772,0.720461,0.011752,0.692757,-0.192646,0.355821,0.138733
244,952932065,-0.028133,0.720080,0.009320,0.693258,-0.578916,0.560354,-0.084693
245,952965399,-0.026791,0.720475,0.007491,0.692923,-0.298946,0.403764,0.080729
246,952998733,-0.025864,0.721448,0.006421,0.691956,0.044198,0.292973,0.124929
247,953032067,-0.025547,0.722660,0.005800,0.690707,0.286366,0.334276,0.071098
248,953065401,-0.025559,0.723984,0.005557,0.689321,0.487176,0.297834,0.131893
249,953098735,-0.026638,0.725275,0.006539,0.687913,0.739977,0.255325,0.200604
250,953132069,-0.029104,0.726361,0.009114,0.686636,0.847966,0.203746,0.348501
251,953165403,-0.032263,0.727263,0.012717,0.685483,0.705325,-0.033426,0.243013
252,953198737,-0.034887,0.728175,0.015859,0.684319,0.352415,-0.162650,0.209551
253,953232071,-0.035887,0.729093,0.017208,0.683256,-0.037486,-0.228606,0.234488
254,953265405,-0.034954,0.729887,0.016599,0.682472,-0.509326,-0.149014,0.284040
255,953298739,-0.031843,0.730362,0.013710,0.682180,-0.725387,-0.168299,0.176381
256,953332073,-0.026849,0.730558,0.008790,0.682266,-0.808269,-0.173613,0.154982
257,953365407,-0.020155,0.730687,0.002115,0.682412,-0.775801,0.154928,0.115622
258,953398741,-0.012834,0.730784,-0.005048,0.682469,-0.573653,0.337457,0.201634
259,953432075,-0.005461,0.730675,-0.011862,0.682600,-0.304068,0.156435,0.196082
260,953465409,0.001647,0.730450,-0.018213,0.682722,-0.043269,0.112403,0.194120
261,953498743,0.008444,0.730114,-0.023997,0.682852,0.091405,0.365267,0.199816
262,953532077,0.014249,0.729642,-0.028572,0.683083,0.077026,0.349727,0.192633
263,953565411,0.019167,0.729177,-0.031941,0.683310,0.107264,0.267195,0.176123
264,953598745,0.023263,0.728616,-0.034248,0.683671,0.077171,0.247828,0.190066
265,953632079,0.026485,0.727992,-0.035647,0.684145,-0.053737,0.304568,0.155740
266,953665413,0.029434,0.727340,-0.036625,0.684667,-0.258542,0.085988,0.098797
267,953698747,0.032339,0.726881,-0.037481,0.684977,-0.130083,0.077816,0.136946
268,953732081,0.035293,0.726521,-0.038155,0.685176,-0.048178,0.093297,0.205392
269,953765415,0.037980,0.726020,-0.038467,0.685546,-0.079685,0.068564,0.168504
270,953798749,0.040245,0.725534,-0.038364,0.685937,-0.164247,0.041770,0.204065
271,953832083,0.042499,0.725027,-0.038182,0.686347,-0.192828,0.036077,0.096918
272,953865417,0.044698,0.724625,-0.038025,0.686641,-0.156749,-0.004835,0.177372
273,953898751,0.046604,0.724179,-0.037588,0.687008,-0.135573,-0.065169,0.226754
274,953932085,0.048493,0.723704,-0.036993,0.687410,-0.043825,-0.002912,0.136877
275,953965419,0.050433,0.723225,-0.036422,0.687805,-0.028844,0.108120,0.137831
276,953998753,0.052071,0.722737,-0.035527,0.688243,0.160025,0.069476,0.184386
277,954032087,0.053139,0.722308,-0.033835,0.688696,0.265454,0.323919,0.232417
278,954065421,0.052765,0.721937,-0.030472,0.689271,0.224936,0.357390,0.144173
279,954098755,0.051136,0.721739,-0.025322,0.689809,0.048972,0.207299,0.097594
280,954132089,0.048606,0.721562,-0.018986,0.690380,0.037399,0.145824,0.161587
281,954165423,0.045658,0.721103,-0.012293,0.691212,0.044536,-0.000448,0.254259
282,954198757,0.042726,0.720283,-0.005835,0.692339,-0.044091,-0.175520,0.269536
283,954232091,0.040998,0.719014,-0.000482,0.693786,-0.082578,-0.143334,0.205671
284,954265425,0.040229,0.717221,0.004026,0.695672,-0.075210,0.019733,0.271351
285,954298759,0.039506,0.715304,0.008219,0.697648,-0.152438,-0.020053,0.126996
286,954332093,0.039751,0.713415,0.011529,0.699519,-0.345175,0.081553,0.073368
287,954365427,0.040299,0.711620,0.014463,0.701259,-0.398983,0.112653,0.027775
288,954398761,0.039939,0.710396,0.018079,0.702435,-0.360394,0.147660,0.090872
289,954432095,0.039159,0.709756,0.022042,0.703013,-0.187883,0.148520,0.235056
290,954465429,0.037966,0.709409,0.026206,0.703286,-0.090742,0.019930,0.171088
291,954498763,0.036586,0.709291,0.030298,0.703314,-0.016313,-0.087220,0.121891
292,954532097,0.035346,0.709474,0.033918,0.703027,0.060130,-0.116300,0.208010
293,954565431,0.034115,0.709917,0.037190,0.702475,-0.031940,-0.098806,0.088045
294,954598765,0.032717,0.710673,0.040402,0.701599,-0.090678,0.141687,0.086625
295,954632099,0.031329,0.711325,0.043426,0.700820,-0.088118,0.043873,0.079152
296,954665433,0.030027,0.711643,0.046206,0.700377,-0.191904,-0.033486,0.086597
297,954698767,0.029180,0.711658,0.048530,0.700240,-0.193288,-0.087490,0.305131
298,954732101,0.029616,0.711270,0.049553,0.700544,-0.245816,-0.144593,0.355545
299,954765435,0.031268,0.710570,0.049197,0.701207,-0.516524,-0.242081,0.295527
300,954798769,0.033677,0.709829,0.047900,0.701936,-0.629196,-0.139690,0.174290
301,954832103,0.036614,0.709204,0.045711,0.702567,-0.526168,-0.028561,0.268709
302,954865437,0.039842,0.708476,0.042956,0.703299,-0.492112,-0.160207,0.296765
303,954898771,0.045266,0.707606,0.037739,0.704145,-0.426835,-0.232398,0.281518
304,954932105,0.053011,0.706574,0.029841,0.705019,-0.168837,-0.225307,0.184824
305,954965439,0.061268,0.705171,0.021309,0.706064,-0.157291,-0.132547,0.199224
306,954998773,0.069754,0.703475,0.012458,0.707179,-0.246854,-0.057352,0.233265
307,955032107,0.077430,0.701817,0.004213,0.708124,-0.201455,0.019318,0.123157
308,955065441,0.083702,0.700471,-0.003010,0.708750,-0.142419,0.050846,0.046376
309,955098775,0.088436,0.699532,-0.008961,0.709051,-0.005241,0.001108,0.054571
310,955132109,0.091399,0.698997,-0.013433,0.709132,0.140131,-0.003848,0.085839
311,955165443,0.093170,0.698669,-0.016907,0.709151,0.263626,0.022087,0.067018
312,955198777,0.093516,0.698409,-0.019168,0.709304,0.246649,-0.047484,0.184468
313,955232111,0.093095,0.698210,-0.020833,0.709509,0.076454,-0.062923,0.322021
314,955265445,0.092165,0.698058,-0.022000,0.709744,-0.197891,0.008992,0.135865
315,955298779,0.090978,0.698068,-0.023206,0.709849,-0.428589,0.055095,0.070127
316,955332113,0.089243,0.698507,-0.024351,0.709599,-0.351726,0.176109,0.231974
317,955365447,0.087333,0.698928,-0.025503,0.709382,-0.209315,0.092618,0.206584
318,955398781,0.086040,0.699164,-0.027323,0.709239,-0.243193,-0.040805,0.146384
319,955432115,0.085724,0.699432,-0.030447,0.708886,-0.171712,0.002440,0.068416
320,955465449,0.085512,0.699862,-0.033886,0.708331,0.056660,0.036518,0.160188
321,955498783,0.085388,0.700416,-0.037185,0.707632,0.288781,0.148469,0.198766
322,955532117,0.084523,0.701134,-0.039263,0.706912,0.430937,0.226386,0.220134
323,955565451,0.082178,0.702065,-0.039752,0.706237,0.290510,0.263736,0.092079
324,955598785,0.079521,0.702988,-0.039643,0.705630,0.208094,0.272805,0.161545
325,955632119,0.076387,0.704117,-0.038837,0.704894,0.055242,0.271827,0.091778
326,955665453,0.072512,0.705378,-0.037030,0.704140,0.176041,0.399038,0.213802
327,955698787,0.068396,0.706561,-0.034551,0.703492,-0.111529,0.182050,0.169803
328,955732121,0.064330,0.707616,-0.031822,0.702943,-0.148283,0.175599,0.190152
329,955765455,0.060856,0.708312,-0.029546,0.702651,-0.135184,0.157304,0.200578
330,955798789,0.057706,0.708805,-0.027414,0.702506,-0.120464,0.198721,0.186662
331,955832123,0.054762,0.709349,-0.025163,0.702276,-0.128158,0.310973,0.165392
332,955865457,0.051406,0.710101,-0.022161,0.701871,0.070952,0.506304,0.153547
333,955898791,0.047145,0.711075,-0.017788,0.701309,0.151404,0.562142,0.125981
334,955932125,0.041840,0.712277,-0.012015,0.700547,0.091699,0.443520,0.113610
335,955965459,0.035741,0.713896,-0.005046,0.699321,-0.015917,0.429129,0.146933
336,955998793,0.029370,0.715637,0.002552,0.697850,-0.015497,0.401338,0.154874
337,956032127,0.022987,0.717155,0.010489,0.696455,-0.057671,0.202849,0.150136
338,956065461,0.017348,0.718061,0.017982,0.695532,-0.101945,-0.000112,0.232210
339,956098795,0.013841,0.718220,0.023440,0.695284,-0.370672,-0.229025,0.266987
340,956132129,0.012757,0.717831,0.026504,0.695595,-0.437114,-0.172117,0.161190
341,956165463,0.013958,0.717328,0.027610,0.696048,-0.431374,-0.042416,0.124837
342,956198797,0.016102,0.716929,0.027919,0.696401,-0.271112,0.269599,0.225625
343,956232131,0.017787,0.716600,0.028938,0.696657,-0.294455,0.353214,0.159804
344,956265465,0.018760,0.716427,0.030944,0.696723,-0.217708,0.189496,0.150728
345,956298799,0.019843,0.716406,0.032905,0.696625,-0.321581,0.025948,0.190433
346,956332133,0.022039,0.716034,0.033411,0.696918,-0.364575,-0.375141,0.300753
347,956365467,0.026179,0.715219,0.031509,0.697699,-0.307178,-0.582707,0.179696
348,956398801,0.032193,0.714122,0.027284,0.698749,-0.312691,-0.470488,0.228467
349,956432135,0.039481,0.712804,0.021372,0.699925,-0.239113,-0.257731,0.277019
350,956465469,0.047386,0.711030,0.014504,0.701413,-0.204375,-0.159022,0.281207
351,956498803,0.054795,0.709132,0.007819,0.702900,-0.249950,-0.039270,0.173651
352,956532137,0.061223,0.707425,0.001758,0.704130,-0.285969,-0.000726,0.200054
353,956565471,0.067051,0.705810,-0.003906,0.705210,-0.321198,-0.142388,0.164046
354,956598805,0.072588,0.704514,-0.009608,0.705903,-0.255396,-0.097220,0.146418
355,956632139,0.077937,0.703591,-0.015626,0.706145,-0.071491,0.000676,0.149545
356,956665473,0.082517,0.702747,-0.021309,0.706317,0.092793,0.067082,0.176851
357,956698807,0.086023,0.701968,-0.025994,0.706517,0.071527,-0.026176,0.127729
358,956732141,0.089018,0.701350,-0.030234,0.706590,0.080399,0.041278,0.121093
359,956765475,0.091301,0.700994,-0.033982,0.706482,0.144322,0.094890,0.134176
360,956798809,0.092532,0.701067,-0.036976,0.706099,0.175864,0.140998,0.036077
361,956832143,0.092176,0.701554,-0.038525,0.705579,0.313124,0.179129,0.066429
362,956865477,0.090153,0.702453,-0.038343,0.704955,0.272385,0.011287,0.166874
363,956898811,0.087124,0.703565,-0.037225,0.704287,0.234769,-0.160029,0.149720
364,956932145,0.083898,0.704747,-0.036212,0.703549,0.049181,-0.203672,0.221168
365,956965479,0.081327,0.705770,-0.035987,0.702836,-0.034228,-0.063859,0.226236
366,956998813,0.079342,0.706609,-0.036423,0.702198,-0.121537,0.079683,0.241722
367,957032147,0.077675,0.707157,-0.037037,0.701800,-0.189354,0.213023,0.211809
368,957065481,0.076304,0.707445,-0.037685,0.701626,-0.164598,0.237754,0.156184
369,957098815,0.075004,0.707635,-0.038313,0.701541,-0.190420,0.196377,0.174991
370,957132149,0.074043,0.707869,-0.039069,0.701365,-0.128141,0.151208,0.196439
371,957165483,0.073590,0.707999,-0.040038,0.701227,-0.106314,0.128081,0.202115
372,957198817,0.072903,0.708073,-0.040610,0.701191,0.015267,0.243835,0.203020
373,957232151,0.072506,0.708040,-0.041108,0.701236,-0.067392,0.239734,0.143038
374,957265485,0.071938,0.708002,-0.041152,0.701331,0.036191,0.260608,0.166210
375,957298819,0.071519,0.707840,-0.041019,0.701544,-0.005687,0.204664,0.187023
376,957332153,0.071316,0.707517,-0.040768,0.701906,-0.058887,0.269830,0.210277
377,957365487,0.071016,0.706886,-0.040125,0.702609,-0.103647,0.191433,0.188887
378,957398821,0.070863,0.705984,-0.039268,0.703579,-0.150554,0.217445,0.258883
379,957432155,0.071219,0.704951,-0.038567,0.704617,-0.354771,0.228128,0.110396
380,957465489,0.071342,0.704185,-0.037549,0.705425,-0.157729,0.442081,0.132021
381,957498823,0.070455,0.703838,-0.035280,0.705977,0.082386,0.622869,0.100082
382,957532157,0.068226,0.704037,-0.031117,0.706193,0.245946,0.594824,-0.003584
383,957565491,0.065037,0.704655,-0.025505,0.706103,0.285207,0.436493,0.097221
384,957598825,0.061427,0.705216,-0.019177,0.706066,0.335807,0.193962,0.222747
385,957632159,0.058310,0.705330,-0.013198,0.706354,0.233433,-0.053679,0.180156
386,957665493,0.056184,0.704819,-0.008028,0.707114,0.179677,-0.062350,0.252360
387,957698827,0.055078,0.703726,-0.003772,0.708324,0.017489,-0.098735,0.184770
388,957732161,0.055125,0.702210,-0.000869,0.709832,0.151452,-0.079010,0.175827
389,957765495,0.055780,0.700823,0.001175,0.711151,-0.087048,-0.118724,0.173965
390,957798829,0.056833,0.699659,0.002385,0.712209,-0.020317,-0.071698,0.212409
391,957832163,0.058437,0.698371,0.002480,0.713342,0.211132,-0.109874,0.200277
392,957865497,0.059837,0.697456,0.002691,0.714120,-0.229201,-0.266440,0.213026
393,957898831,0.061033,0.696795,0.002970,0.714662,-0.429628,-0.251208,0.238474
394,957932165,0.063057,0.695937,0.002500,0.715325,-0.697314,-0.140017,0.263589
395,957965499,0.066080,0.694674,0.000883,0.716282,-0.816675,-0.131198,0.177575
396,957998833,0.070198,0.693322,-0.002258,0.717198,-0.835636,-0.050217,0.200978
397,958032167,0.075294,0.691674,-0.006679,0.718243,-0.647817,0.106987,0.215560
398,958065501,0.081800,0.689846,-0.012622,0.719210,-0.442923,0.201444,0.093088
399,958098835,0.087925,0.688102,-0.018205,0.720037,-0.130768,0.266989,0.163561
400,958132169,0.093351,0.686609,-0.022845,0.720647,0.002218,0.185076,0.113607
401,958165503,0.098154,0.685465,-0.026780,0.720962,0.189894,0.171256,0.100440
402,958198837,0.102463,0.684577,-0.030146,0.721074,0.244554,0.086345,0.169802
403,958232171,0.106168,0.683671,-0.032809,0.721280,0.140828,0.091484,0.198062
404,958265505,0.109813,0.682513,-0.035483,0.721706,0.140770,0.088415,0.156922
405,958298839,0.113298,0.681067,-0.038049,0.722401,0.026504,0.053492,0.220400
406,958332173,0.116627,0.679274,-0.040384,0.723432,-0.132908,-0.072086,0.227198
407,958365507,0.120730,0.676942,-0.043387,0.724770,-0.240063,-0.101784,0.281966
408,958398841,0.125521,0.674452,-0.047155,0.726041,-0.402041,-0.049707,0.242425
409,958432175,0.130964,0.672189,-0.051564,0.726878,-0.475368,0.222298,0.067568
410,958465509,0.136157,0.670233,-0.055831,0.727415,-0.208878,0.379426,0.067842
411,958498843,0.140204,0.668724,-0.059066,0.727779,-0.013892,0.391341,0.160769
412,958532177,0.143307,0.667685,-0.061328,0.727941,0.046611,0.351265,0.098324
413,958565511,0.145342,0.667105,-0.062322,0.727985,0.099163,0.338353,0.127681
414,958598845,0.146703,0.666603,-0.062274,0.728176,0.068822,0.252632,0.125633
415,958632179,0.148050,0.665927,-0.062236,0.728525,0.109993,0.180381,0.111515
416,958665513,0.149485,0.665001,-0.062513,0.729054,0.027271,0.177229,0.109318
417,958698847,0.150802,0.664044,-0.062731,0.729637,0.016669,0.236274,0.146120
418,958732181,0.151747,0.663243,-0.062500,0.730188,0.083417,0.224605,0.130336
419,958765515,0.152184,0.662719,-0.061682,0.730643,0.084934,0.185906,0.108964
420,958798849,0.151697,0.662425,-0.059780,0.731169,0.152381,0.179946,0.062643
421,958832183,0.150469,0.662338,-0.057025,0.731721,0.182917,0.142521,0.194057
422,958865517,0.148755,0.662468,-0.054007,0.732182,0.103320,0.130736,0.102486
423,958898851,0.146349,0.662907,-0.050616,0.732513,0.108260,0.120543,0.064151
424,958932185,0.142962,0.663754,-0.046212,0.732706,0.073076,0.071145,0.118541
425,958965519,0.138948,0.664924,-0.040963,0.732729,0.109169,0.030659,0.152126
426,958998853,0.134552,0.666289,-0.035271,0.732605,0.097904,-0.014953,0.205857
427,959032187,0.130182,0.667812,-0.029771,0.732252,0.028543,-0.091780,0.221918
428,959065521,0.126472,0.669272,-0.025332,0.731737,0.061150,-0.081456,0.165071
429,959098855,0.123534,0.670729,-0.021791,0.731018,0.050824,0.009089,0.200466
430,959132189,0.120717,0.672221,-0.018369,0.730212,0.050301,0.169461,0.198298
431,959165523,0.117545,0.673656,-0.014617,0.729491,0.066467,0.274221,0.088156
432,959198857,0.114191,0.675024,-0.010734,0.728827,-0.013212,0.168924,0.151352
433,959232191,0.111312,0.675999,-0.007422,0.728409,-0.026046,0.054626,0.212087
434,959265525,0.109039,0.676487,-0.004931,0.728321,-0.080731,-0.015910,0.309984
435,959298859,0.107717,0.676601,-0.003563,0.728420,-0.224015,-0.035063,0.255731
436,959332193,0.107250,0.676617,-0.003195,0.728476,-0.331455,-0.038140,0.205211
437,959365527,0.107737,0.676573,-0.003871,0.728442,-0.335988,-0.042778,0.177070
438,959398861,0.109505,0.676262,-0.005721,0.728454,-0.358417,-0.173528,0.195840
439,959432195,0.112451,0.675669,-0.008693,0.728527,-0.325520,-0.155141,0.197293
440,959465529,0.115988,0.674970,-0.012320,0.728567,-0.200091,0.010113,0.152706
441,959498863,0.120049,0.674161,-0.016570,0.728575,-0.095471,0.139854,0.173305
442,959532197,0.124053,0.673291,-0.020909,0.728597,0.028170,0.181504,0.213091
443,959565531,0.127695,0.672411,-0.024866,0.728655,0.007239,0.119688,0.130850
444,959598865,0.131393,0.671351,-0.028889,0.728827,0.006320,0.056062,0.175420
445,959632199,0.135255,0.670040,-0.033111,0.729147,-0.046082,0.074874,0.249189
446,959665533,0.138896,0.668641,-0.037075,0.729557,-0.092198,0.183981,0.150537
447,959698867,0.142185,0.667174,-0.040657,0.730075,-0.088685,0.187178,0.116662
448,959732201,0.144901,0.665768,-0.043670,0.730651,-0.136067,0.220709,0.154818
449,959765535,0.147007,0.664624,-0.046028,0.731126,-0.146004,0.107223,0.141701
450,959798869,0.149139,0.663655,-0.048365,0.731423,-0.068970,0.091149,0.118126
451,959832203,0.151088,0.662918,-0.050500,0.731547,-0.002389,0.211910,0.141773
452,959865537,0.152272,0.662393,-0.051745,0.731690,0.026090,0.291352,0.166530
453,959898871,0.153020,0.662124,-0.052442,0.731728,0.008913,0.325518,0.140786
454,959932205,0.153333,0.662048,-0.052802,0.731706,0.008870,0.317162,0.070954
455,959965539,0.152951,0.662066,-0.052513,0.731790,0.062526,0.299310,0.090179
456,959998873,0.151964,0.662096,-0.051453,0.732044,0.035936,0.260731,0.171575
457,960032207,0.150618,0.662082,-0.049790,0.732450,-0.018052,0.241505,0.194666
458,960065541,0.148796,0.662085,-0.047626,0.732963,-0.127227,0.275269,0.120480
459,960098875,0.146334,0.662372,-0.044906,0.733371,-0.121605,0.302991,0.046803
460,960132209,0.143381,0.663051,-0.041639,0.733534,-0.134065,0.236720,0.102717
461,960165543,0.139983,0.664095,-0.037695,0.733459,-0.058737,0.213402,0.106300
462,960198877,0.136044,0.665407,-0.033071,0.733234,0.102547,0.178656,0.100974
463,960232211,0.131626,0.666788,-0.027857,0.733002,0.177212,0.225560,0.155306
464,960265545,0.126818,0.668065,-0.022271,0.732878,0.217083,0.218834,0.135159
465,960298879,0.121636,0.669333,-0.016515,0.732751,0.176114,0.264824,0.159679
466,960332213,0.115678,0.670711,-0.010059,0.732573,0.160971,0.302682,0.113358
467,960365547,0.109183,0.672317,-0.003245,0.732160,0.112228,0.287560,0.128561
468,960398881,0.102320,0.674049,0.003738,0.731557,0.093944,0.198589,0.120037
469,960432215,0.094973,0.675706,0.010884,0.730947,0.129334,0.053444,0.179748
470,960465549,0.087910,0.677209,0.017744,0.730305,0.113263,-0.079995,0.257234
471,960498883,0.081678,0.678716,0.023779,0.729457,0.039702,-0.190741,0.258441
472,960532217,0.076252,0.680353,0.029049,0.728328,-0.008748,-0.165834,0.150306
473,960565551,0.071367,0.682079,0.033915,0.726997,0.006300,-0.048009,0.034204
474,960598885,0.066634,0.684052,0.038612,0.725357,0.156117,0.096998,0.030215
475,960632219,0.061276,0.686109,0.043886,0.723584,0.330732,0.222860,0.084859
476,960665553,0.055217,0.688137,0.050077,0.721742,0.234077,0.221020,0.219683
477,960698887,0.048830,0.689906,0.056477,0.720039,0.154909,0.127010,0.276415
478,960732221,0.042677,0.691212,0.062304,0.718696,0.085741,0.149399,0.246497
479,960765555,0.036586,0.692322,0.067817,0.717463,-0.277436,0.105192,0.134962
480,960798889,0.030672,0.693229,0.072927,0.716362,-0.590222,0.023929,0.212884
481,960832223,0.025482,0.693751,0.077214,0.715611,-0.693879,-0.213817,0.288534
482,960865557,0.021777,0.693826,0.079909,0.715365,-0.808258,-0.445301,0.120470
483,960898891,0.019916,0.693766,0.080495,0.715411,-0.782401,-0.507548,0.144486
484,960932225,0.019071,0.694045,0.080397,0.715174,-0.404938,-0.370441,0.209745
485,960965559,0.019409,0.694750,0.079575,0.714572,-0.087957,-0.184905,0.335948
486,960998893,0.020990,0.695507,0.077787,0.713988,0.279423,0.026597,0.248571
487,961032227,0.022484,0.696210,0.076071,0.713442,0.429202,0.285608,0.101480
488,961065561,0.023106,0.697005,0.074869,0.712772,0.311878,0.369477,0.028708
489,961098895,0.023288,0.697756,0.073832,0.712140,0.087556,0.311656,0.125472
490,961132229,0.023173,0.698315,0.073059,0.711676,-0.019579,0.061562,0.210345
491,961165563,0.022778,0.698348,0.072468,0.711716,-0.305192,-0.069697,0.291715
492,961198897,0.022414,0.698131,0.071621,0.712026,-0.445709,-0.151865,0.249181
493,961232231,0.022318,0.697982,0.070577,0.712280,-0.562178,-0.176796,0.231917
494,961265565,0.022528,0.697920,0.069689,0.712421,-0.313153,-0.141078,0.198866
495,961298899,0.023641,0.697893,0.067891,0.712585,-0.166159,0.218465,0.231360
496,961332233,0.024506,0.697674,0.065405,0.713003,0.171029,0.376990,0.101641
497,961365567,0.024614,0.697384,0.063277,0.713474,0.144284,0.194175,0.149986
498,961398901,0.025160,0.697265,0.060999,0.713770,0.225527,0.119233,0.132663
499,961432235,0.026229,0.697418,0.058520,0.713790,0.135930,0.208627,0.148221
500,961465569,0.026680,0.697796,0.056513,0.713565,0.190537,0.306249,0.100014
501,961498903,0.026181,0.698372,0.055328,0.713113,0.227929,0.235912,0.147099
502,961532237,0.025250,0.698756,0.054671,0.712821,0.084678,-0.173436,0.139265
503,961565571,0.025231,0.698851,0.053152,0.712844,-0.079173,-0.426329,0.263369
504,961598905,0.026531,0.698595,0.050238,0.713258,-0.205900,-0.573412,0.262959
505,961632239,0.029638,0.698108,0.045503,0.713930,-0.445043,-0.443277,0.208255
506,961665573,0.033944,0.697538,0.039628,0.714646,-0.409324,-0.108368,0.214435
507,961698907,0.038473,0.697033,0.033473,0.715223,-0.396646,0.124025,0.206942
508,961732241,0.042546,0.696696,0.027574,0.715573,-0.292478,0.112964,0.163324
509,961765575,0.046269,0.696637,0.021866,0.715596,-0.043675,0.192032,0.214643
510,961798909,0.049462,0.696645,0.016627,0.715515,0.068984,0.138025,0.192863
511,961832243,0.052406,0.696633,0.011603,0.715418,0.192878,0.195726,0.096039
512,961865577,0.055392,0.696527,0.006608,0.715359,0.243325,0.200408,0.152052
513,961898911,0.058129,0.696352,0.002063,0.715340,0.170295,0.223013,0.114483
514,961932245,0.060168,0.696156,-0.001646,0.715363,0.122536,0.269050,0.126403
515,961965579,0.061684,0.696126,-0.004684,0.715250,0.100315,0.423294,0.170696
516,961998913,0.062090,0.696343,-0.006495,0.714989,-0.026933,0.370704,0.123252
517,962032247,0.061236,0.696904,-0.006990,0.714511,0.083037,0.282199,0.126383
518,962065581,0.059640,0.697481,-0.006491,0.714087,0.179085,0.239653,0.185613
519,962098915,0.057928,0.697973,-0.005580,0.713756,0.116665,0.259847,0.114758
520,962132249,0.056259,0.698415,-0.004426,0.713465,0.080936,0.245082,0.106664
521,962165583,0.054608,0.698931,-0.003117,0.713094,0.043076,0.317775,0.076295
522,962198917,0.052621,0.699614,-0.001248,0.712579,0.048151,0.343149,0.174120
523,962232251,0.049936,0.700460,0.001661,0.711941,-0.062885,0.266640,0.156586
524,962265585,0.046703,0.701461,0.005446,0.711155,-0.052838,0.185080,0.129401
525,962298919,0.043142,0.702498,0.009758,0.710310,-0.031961,0.119572,0.197699
526,962332253,0.039812,0.703303,0.014000,0.709637,-0.085502,0.084933,0.190117
527,962365587,0.037056,0.704031,0.017723,0.708981,-0.164408,0.086329,0.173011
528,962398921,0.034452,0.704744,0.021298,0.708305,-0.074792,0.107800,0.153008
529,962432255,0.031946,0.705314,0.024955,0.707735,-0.119182,0.095502,0.293282
530,962465589,0.029771,0.705523,0.028517,0.707487,-0.407546,-0.131582,0.288288
531,962498923,0.028782,0.705551,0.030817,0.707404,-0.486394,-0.278149,0.246366
532,962532257,0.028619,0.705624,0.032109,0.707280,-0.309385,0.081985,0.249337
533,962565591,0.028329,0.705428,0.033525,0.707421,-0.304106,0.159315,0.193370
534,962598925,0.027130,0.705225,0.035787,0.707560,-0.248921,0.191716,0.155747
535,962632259,0.024834,0.705360,0.039128,0.707332,-0.078933,0.412315,0.119299
536,962665593,0.021361,0.705884,0.043720,0.706654,0.121351,0.388395,0.098548
537,962698927,0.017293,0.706682,0.049104,0.705613,0.194071,0.082118,0.156163
538,962732261,0.013741,0.707794,0.054043,0.704215,0.192476,-0.026763,0.122668
539,962765595,0.010894,0.709044,0.058272,0.702668,0.290790,0.076262,0.105882
540,962798929,0.008889,0.709990,0.061628,0.701454,0.281556,-0.243696,0.117826
541,962832263,0.008259,0.710585,0.063569,0.700685,0.108275,-0.476619,0.257209
542,962865597,0.009295,0.710558,0.063662,0.700691,-0.181362,-0.527632,0.314944
543,962898931,0.012558,0.709767,0.061266,0.701655,-0.372088,-0.503079,0.299978
544,962932265,0.017868,0.708658,0.056594,0.703052,-0.519648,-0.358312,0.248452
545,962965599,0.024076,0.707654,0.050838,0.704317,-0.494158,-0.063212,0.134924
546,962998933,0.030110,0.706883,0.045130,0.705247,-0.211155,0.201866,0.131973
547,963032267,0.035191,0.706262,0.040374,0.705922,-0.036627,0.219386,0.259321
548,963065601,0.039837,0.705519,0.036042,0.706652,-0.032094,-0.040808,0.177677
549,963098935,0.044780,0.704779,0.031435,0.707314,0.051799,-0.086204,0.140086
550,963132269,0.049557,0.704052,0.026840,0.707908,0.172995,0.085268,0.129604
551,963165603,0.054297,0.703325,0.022201,0.708444,0.201528,0.133597,0.064708
552,963198937,0.058340,0.702866,0.018126,0.708695,0.130776,0.270857,0.162455
553,963232271,0.061274,0.702432,0.015093,0.708948,0.157068,0.171626,0.167382
554,963265605,0.063433,0.701984,0.012699,0.709248,0.111146,-0.071836,0.098071
555,963298939,0.065336,0.701616,0.010313,0.709479,0.127230,-0.240435,0.206594
556,963332273,0.067735,0.701192,0.007340,0.709710,-0.009399,-0.211971,0.259280
557,963365607,0.070643,0.700619,0.003655,0.710020,-0.012087,-0.165198,0.145625
558,963398941,0.073362,0.700130,0.000001,0.710237,-0.004419,-0.074842,0.134311
559,963432275,0.075539,0.699699,-0.003186,0.710426,-0.046287,0.042744,0.208907
560,963465609,0.077450,0.699174,-0.006244,0.710717,-0.059280,0.015228,0.219162
561,963498943,0.079187,0.698533,-0.009305,0.711123,-0.094567,-0.048681,0.228972
562,963532277,0.081042,0.697954,-0.012626,0.711431,-0.243640,-0.093668,0.194804
563,963565611,0.083175,0.697451,-0.016339,0.711602,-0.260194,0.016658,0.146426
564,963598945,0.085012,0.697052,-0.019873,0.711686,-0.142513,0.101391,0.184012
565,963632279,0.086662,0.696916,-0.023236,0.711518,-0.098581,0.171580,0.143737
566,963665613,0.087707,0.696875,-0.026114,0.711330,-0.128536,0.290421,0.196000
567,963698947,0.087753,0.696975,-0.028200,0.711147,-0.489741,0.374944,0.197340
568,963732281,0.087832,0.697391,-0.030424,0.710638,-0.711907,0.345056,0.060286
569,963765615,0.086961,0.698675,-0.032316,0.709399,-0.558527,0.248630,0.146672
570,963798949,0.085327,0.700576,-0.033504,0.707666,-0.377466,0.037684,0.184729
571,963832283,0.083545,0.702522,-0.034461,0.705901,-0.146976,-0.101965,0.061193
572,963865617,0.082316,0.704703,-0.035848,0.703799,0.048736,-0.096170,0.104217
573,963898951,0.081536,0.706807,-0.037371,0.701697,0.216198,0.074612,0.135647
574,963932285,0.080682,0.708547,-0.038800,0.699962,0.228942,0.166761,0.130551
575,963965619,0.079233,0.709969,-0.039555,0.698642,-0.013025,0.071883,0.085035
576,963998953,0.077369,0.711639,-0.039803,0.697137,-0.207870,-0.040045,-0.027327
577,964032287,0.075294,0.714181,-0.040105,0.694743,-0.194523,0.109860,-0.047529
578,964065621,0.073102,0.717275,-0.040129,0.691782,0.066887,0.059823,0.136470
579,964098955,0.069891,0.720341,-0.038523,0.689014,0.514650,-0.120440,0.290585
580,964132289,0.066186,0.722819,-0.036247,0.686905,0.831225,-0.101783,0.299079
581,964165623,0.062643,0.724419,-0.034086,0.685662,1.042538,-0.265357,0.385511
582,964198957,0.059587,0.725481,-0.032167,0.684903,0.823253,-0.147159,0.254907
583,964232291,0.055804,0.726656,-0.029587,0.684092,0.432907,-0.040887,0.126842
584,964265625,0.050616,0.728349,-0.025651,0.682853,0.092452,0.106845,0.072648
585,964298959,0.044257,0.730249,-0.020736,0.681431,-0.149494,0.040043,0.140116
586,964332293,0.038150,0.732177,-0.016186,0.679853,-0.143582,-0.192318,0.223675
587,964365627,0.034076,0.733716,-0.013693,0.678464,-0.295877,-0.332204,0.285763
588,964398961,0.032472,0.734704,-0.014011,0.677465,-0.451093,-0.255552,0.271142
589,964432295,0.033334,0.735151,-0.016900,0.676872,-0.559886,-0.117970,0.200109
590,964465629,0.035336,0.735310,-0.020883,0.676487,-0.448706,-0.009892,0.156056
591,964498963,0.037647,0.735128,-0.024948,0.676422,-0.324310,0.219409,0.257629
592,964532297,0.039994,0.734521,-0.028798,0.676795,-0.272621,-0.012936,0.245708
593,964565631,0.042873,0.733829,-0.033011,0.677176,-0.230378,-0.108263,0.172181
594,964598965,0.046642,0.732956,-0.038046,0.677608,-0.246407,0.002286,0.249866
595,964632299,0.051014,0.731748,-0.043568,0.678266,-0.270072,-0.135771,0.215662
596,964665633,0.056141,0.730499,-0.049672,0.678788,-0.286533,0.016507,0.086327
597,964698967,0.061357,0.729195,-0.055826,0.679259,-0.190792,0.048488,0.081943
598,964732301,0.066799,0.727821,-0.062093,0.679676,-0.074565,0.096293,0.237622
599,964765635,0.072008,0.726526,-0.068036,0.679960,0.058606,-0.018338,0.177333
600,964798969,0.076516,0.725446,-0.073289,0.680076,0.029877,0.071063,0.145267
601,964832303,0.080279,0.724488,-0.077797,0.680162,0.032031,0.133474,0.201364
602,964865637,0.083797,0.723644,-0.081906,0.680154,-0.035376,0.206488,0.064577
603,964898971,0.086601,0.723000,-0.085216,0.680080,-0.080564,0.189580,0.184797
604,964932305,0.088426,0.722422,-0.087610,0.680155,-0.107092,-0.130311,0.196136
605,964965639,0.090520,0.721852,-0.090506,0.680106,-0.030286,-0.232642,0.159114
606,964998973,0.092883,0.721325,-0.093879,0.679890,0.065683,-0.033064,0.204582
607,965032307,0.094835,0.720792,-0.096561,0.679810,0.099801,0.218903,0.215911
608,965065641,0.096393,0.720137,-0.098755,0.679970,-0.199407,0.089029,0.157813
609,965098975,0.097845,0.719305,-0.100904,0.680328,-0.200117,-0.017165,0.195428
610,965132309,0.099604,0.718283,-0.103273,0.680796,-0.166882,0.037965,0.204914
611,965165643,0.101325,0.717210,-0.105471,0.681337,-0.052477,0.251577,0.180234
612,965198977,0.102473,0.716189,-0.106884,0.682019,-0.096779,0.332610,0.168649
613,965232311,0.102831,0.715195,-0.107295,0.682942,-0.139257,0.203304,0.126598
614,965265645,0.102718,0.714271,-0.107134,0.683950,-0.200819,0.083259,0.164945
615,965298979,0.102439,0.713385,-0.106710,0.684983,-0.172295,0.052337,0.136496
616,965332313,0.101787,0.712601,-0.105891,0.686022,-0.069246,0.077758,0.173836
617,965365647,0.100881,0.711931,-0.104600,0.687049,0.052288,0.062803,0.183560
618,965398981,0.099616,0.711291,-0.102794,0.688168,0.055824,-0.055551,0.208778
619,965432315,0.098453,0.710593,-0.101052,0.689314,0.081362,-0.134283,0.197842
620,965465649,0.097290,0.710032,-0.099333,0.690306,0.174605,-0.033283,0.104731
621,965498983,0.095489,0.709788,-0.096953,0.691146,0.398416,0.206944,0.095446
622,965532317,0.091879,0.710044,-0.092807,0.691941,0.499415,0.248764,0.059415
623,965565651,0.086097,0.711035,-0.086376,0.692500,0.636931,0.239269,0.099069
624,965598985,0.077855,0.712599,-0.077173,0.692954,0.665217,0.166131,0.158412
625,965632319,0.067362,0.714548,-0.065799,0.693220,0.549692,-0.017584,0.197129
626,965665653,0.056284,0.716589,-0.053979,0.693122,0.198342,-0.173347,0.205862
627,965698987,0.046006,0.718462,-0.043387,0.692686,0.066596,-0.091283,0.188524
628,965732321,0.036970,0.720037,-0.034443,0.692094,-0.184691,-0.211140,0.204097
629,965765655,0.029592,0.721139,-0.027213,0.691623,-0.503377,-0.387629,0.274091
630,965798989,0.024099,0.721790,-0.022149,0.691338,-0.598208,-0.302679,0.209580
631,965832323,0.020643,0.722193,-0.019266,0.691115,-0.759072,-0.328353,0.141367
632,965865657,0.019277,0.722386,-0.018521,0.690973,-0.665024,-0.146631,0.195426
633,965898991,0.019412,0.722316,-0.019532,0.691015,-0.595143,-0.164832,0.166241
634,965932325,0.021065,0.722174,-0.022321,0.691030,-0.449650,-0.292154,0.177034
635,965965659,0.024515,0.722002,-0.027074,0.690926,-0.373595,-0.260360,0.195065
636,965998993,0.029364,0.721468,-0.033366,0.691020,-0.273935,-0.270594,0.205613
637,966032327,0.035318,0.720773,-0.040899,0.691062,-0.398172,-0.125653,0.189151
638,966065661,0.042311,0.719973,-0.049542,0.690937,-0.406441,0.012323,0.163756
639,966098995,0.049500,0.719167,-0.058326,0.690613,-0.255532,-0.050032,0.145103
640,966132329,0.057053,0.718433,-0.067450,0.689964,-0.129117,-0.180908,0.205880
641,966165663,0.064678,0.717619,-0.076724,0.689169,0.350055,-0.078907,0.196239
642,966198997,0.071337,0.716694,-0.085153,0.688484,0.390415,-0.083450,0.288883
643,966232331,0.077440,0.715611,-0.092917,0.687947,0.216968,-0.107830,0.164113
644,966265665,0.083416,0.714775,-0.100494,0.687051,-0.042231,0.022083,0.015904
645,966298999,0.088484,0.714407,-0.107207,0.685784,-0.032473,-0.046202,0.078419
646,966332333,0.092421,0.714580,-0.112802,0.684185,0.371475,0.010275,0.171369
647,966365667,0.094984,0.715037,-0.117025,0.682646,0.438350,-0.072268,0.223000
648,966399001,0.096880,0.715601,-0.120558,0.681172,0.419271,0.022995,0.178060
649,966432335,0.097881,0.716293,-0.123261,0.679817,0.280312,0.147753,0.128016
650,966465669,0.097595,0.717256,-0.124318,0.678649,-0.035911,0.283277,0.237358
651,966499003,0.095847,0.718342,-0.123589,0.677882,-0.232971,0.480233,0.130974
652,966532337,0.092710,0.719505,-0.121376,0.677484,-0.142394,0.498840,0.207524
653,966565671,0.089000,0.720525,-0.118286,0.677444,-0.216385,0.210719,0.168744
654,966599005,0.085528,0.721347,-0.115270,0.677538,-0.243020,0.049370,0.172062
655,966632339,0.082629,0.721957,-0.112796,0.677664,-0.253824,0.112110,0.178698
656,966665673,0.079767,0.722483,-0.110391,0.677841,-0.049598,0.210905,0.210846
657,966699007,0.076374,0.723060,-0.107229,0.678125,0.008807,0.152276,0.181195
658,966732341,0.072471,0.723767,-0.103435,0.678389,0.008084,0.029977,0.147367
659,966765675,0.068448,0.724538,-0.099537,0.678566,-0.085269,0.000813,0.138027
660,966799009,0.064393,0.725291,-0.095696,0.678711,-0.097025,-0.106443,0.189837
661,966832343,0.060111,0.726089,-0.091686,0.678805,0.006751,-0.111643,0.224139
662,966865677,0.055285,0.727009,-0.086965,0.678851,0.107138,0.063593,0.189970
663,966899011,0.049619,0.727978,-0.081395,0.678941,0.184210,0.130004,0.192267
664,966932345,0.043744,0.728913,-0.075523,0.679021,-0.056283,-0.069177,0.170666
665,966965679,0.038312,0.729910,-0.070035,0.678866,-0.096125,-0.030033,0.214028
666,966999013,0.033508,0.730892,-0.064913,0.678572,-0.086277,0.109381,0.166711
667,967032347,0.029219,0.731802,-0.060183,0.678225,-0.064719,0.270291,0.160178
668,967065681,0.025588,0.732540,-0.056141,0.677922,-0.070325,0.179770,0.195951
669,967099015,0.022711,0.733189,-0.052567,0.677610,-0.143395,0.107773,0.185977
670,967132349,0.020502,0.733762,-0.049502,0.677291,-0.128291,0.122356,0.195422
671,967165683,0.019214,0.734169,-0.047345,0.677042,-0.216293,0.074487,0.206727
672,967199017,0.019456,0.734398,-0.046578,0.676840,-0.273246,-0.014508,0.226682
673,967232351,0.021556,0.734438,-0.047608,0.676661,-0.436862,-0.107957,0.157724
674,967265685,0.025315,0.734218,-0.050368,0.676569,-0.386567,0.004975,0.213870
675,967299019,0.030377,0.733646,-0.054388,0.676671,-0.415124,0.054514,0.186338
676,967332353,0.036426,0.732802,-0.059381,0.676867,-0.395742,0.062477,0.190167
677,967365687,0.043127,0.731684,-0.064917,0.677173,-0.303943,0.043043,0.176332
678,967399021,0.050055,0.730362,-0.070637,0.677552,-0.167691,0.015224,0.186139
679,967432355,0.056915,0.729018,-0.076231,0.677851,-0.016982,-0.000343,0.177278
680,967465689,0.063292,0.727731,-0.081256,0.678085,0.093770,0.005439,0.208853
681,967499023,0.069005,0.726575,-0.085540,0.678241,0.065791,-0.082933,0.181248
682,967532357,0.074305,0.725596,-0.089380,0.678233,0.074011,-0.077964,0.160403
683,967565691,0.079242,0.724692,-0.092977,0.678157,0.065982,-0.141952,0.164836
684,967599025,0.083998,0.723896,-0.096472,0.677947,-0.011471,-0.108303,0.176614
685,967632359,0.088381,0.723185,-0.099639,0.677690,-0.007378,-0.022350,0.178373
686,967665693,0.092305,0.722560,-0.102346,0.677431,-0.051829,-0.036496,0.172669
687,967699027,0.095986,0.722020,-0.104833,0.677115,-0.006063,-0.075054,0.167107
688,967732361,0.099625,0.721510,-0.107269,0.676751,-0.052673,-0.058871,0.184648
689,967765695,0.103247,0.721035,-0.109674,0.676328,-0.071125,-0.020448,0.146791
690,967799029,0.106712,0.720574,-0.111957,0.675907,-0.082181,-0.013233,0.153646
691,967832363,0.109931,0.720148,-0.114080,0.675491,-0.092709,0.017643,0.146508
692,967865697,0.112812,0.719818,-0.115923,0.675054,-0.000040,-0.009285,0.184834
693,967899031,0.115024,0.719672,-0.117138,0.674627,0.091979,0.033162,0.185663
694,967932365,0.116373,0.719685,-0.117594,0.674301,0.071671,-0.016416,0.168386
695,967965699,0.117200,0.719801,-0.117499,0.674051,0.015118,-0.025820,0.196794
696,967999033,0.117623,0.720017,-0.116995,0.673834,-0.114173,-0.019525,0.171209
697,968032367,0.118033,0.720162,-0.116501,0.673694,-0.187574,0.011456,0.175528
698,968065701,0.118633,0.720168,-0.116234,0.673627,-0.220360,0.040056,0.227554
699,968099035,0.119384,0.720056,-0.116108,0.673636,-0.276937,0.014197,0.170371
700,968132369,0.120050,0.719919,-0.115848,0.673709,-0.162323,0.089927,0.150822
701,968165703,0.120249,0.719853,-0.115007,0.673888,-0.114939,0.077862,0.176488
702,968199037,0.120042,0.719802,-0.113744,0.674194,-0.016496,-0.023860,0.172175
703,968232371,0.119723,0.719754,-0.112395,0.674528,0.021718,-0.049164,0.198598
704,968265705,0.119283,0.719740,-0.110953,0.674860,0.008403,-0.009084,0.165911
705,968299039,0.118519,0.719738,-0.109155,0.675289,-0.067303,0.045810,0.188313
706,968332373,0.117347,0.719828,-0.106861,0.675765,-0.122245,0.081401,0.163232
707,968365707,0.115874,0.720016,-0.104227,0.676230,-0.113622,0.072186,0.104203
708,968399041,0.114246,0.720278,-0.101431,0.676653,-0.054231,0.048805,0.169316
709,968432375,0.112486,0.720597,-0.098459,0.677047,-0.072147,-0.092828,0.189522
710,968465709,0.110868,0.720921,-0.095594,0.677380,-0.021761,-0.050902,0.180750
711,968499043,0.109203,0.721168,-0.092733,0.677785,-0.084078,0.020468,0.212257
712,968532377,0.107662,0.721283,-0.089989,0.678278,-0.220768,-0.058041,0.190171
713,968565711,0.106398,0.721354,-0.087497,0.678728,-0.225833,-0.037439,0.172775
714,968599045,0.105453,0.721370,-0.085275,0.679142,-0.254007,0.038877,0.193799
715,968632379,0.104837,0.721242,-0.083352,0.679611,-0.192170,0.033095,0.227475
716,968665713,0.104714,0.721004,-0.081834,0.680067,-0.113808,0.015746,0.161286
717,968699047,0.105049,0.720740,-0.080662,0.680435,-0.045299,0.101255,0.135479
718,968732381,0.105639,0.720506,-0.079631,0.680714,0.081057,0.092034,0.160129
719,968765715,0.106486,0.720202,-0.078739,0.681006,0.139865,0.059484,0.155794
720,968799049,0.107434,0.719875,-0.077814,0.681310,0.097890,0.100528,0.196983
721,968832383,0.108325,0.719328,-0.076739,0.681868,0.040530,0.108425,0.186198
722,968865717,0.109192,0.718446,-0.075500,0.682798,-0.037240,-0.009611,0.250079
723,968899051,0.110434,0.717261,-0.074554,0.683946,-0.272949,-0.079609,0.232114
724,968932385,0.112698,0.715788,-0.074655,0.685108,-0.431031,-0.054062,0.177378
725,968965719,0.115889,0.714062,-0.075819,0.686248,-0.347318,0.043274,0.139252
726,968999053,0.119810,0.712009,-0.077724,0.687494,-0.217055,0.009536,0.143744
727,969032387,0.124445,0.709777,-0.080221,0.688691,-0.143967,0.042323,0.130157
728,969065721,0.129251,0.707470,-0.082788,0.689874,-0.078221,0.171767,0.164581
729,969099055,0.133701,0.705042,-0.084837,0.691262,-0.035705,0.158942,0.220346
730,969132389,0.138076,0.702349,-0.086586,0.692924,0.000414,0.065561,0.227998
731,969165723,0.142552,0.699395,-0.088283,0.694789,0.024310,0.037050,0.257296
732,969199057,0.147127,0.696214,-0.089891,0.696821,0.027851,0.035022,0.232693
733,969232391,0.151787,0.692663,-0.091529,0.699143,0.061483,0.048101,0.221371
734,969265725,0.156723,0.688561,-0.093395,0.701854,0.140220,0.009691,0.220932
735,969299059,0.162065,0.683814,-0.095650,0.704971,0.251445,-0.010612,0.247695
736,969332393,0.167953,0.678269,-0.098252,0.708582,0.298236,-0.146486,0.349830
737,969365727,0.174269,0.671957,-0.101309,0.712629,0.407666,-0.291760,0.383075
738,969399061,0.180612,0.665234,-0.104584,0.716872,0.455464,-0.230666,0.344838
739,969432395,0.186401,0.658811,-0.107535,0.720874,0.272968,-0.147835,0.152032
740,969465729,0.191103,0.653144,-0.109944,0.724427,-0.061513,-0.049536,-0.209479
741,969499063,0.194268,0.648763,-0.111074,0.727344,-0.144033,0.291573,-0.224821
742,969532397,0.194701,0.646286,-0.109711,0.729637,-0.275223,0.414305,-0.033195
743,969565731,0.192634,0.645768,-0.106183,0.731164,-0.437830,0.255613,-0.021519
744,969599065,0.189556,0.646572,-0.102146,0.731833,-0.436099,-0.137165,-0.038334
745,969632399,0.186775,0.647919,-0.098762,0.731821,-0.195973,-0.264791,0.131384
746,969665733,0.183933,0.649287,-0.095342,0.731782,0.093280,-0.102789,0.189389
747,969699067,0.180929,0.649908,-0.091582,0.732460,0.339664,0.148528,0.297204
748,969732401,0.176956,0.649612,-0.086955,0.734255,0.568396,0.228234,0.363498
749,969765735,0.172239,0.649099,-0.081589,0.736442,0.788594,0.226443,0.262880
750,969799069,0.168339,0.650026,-0.076998,0.737021,-0.321111,0.395600,-0.306721
751,969832403,0.163517,0.652621,-0.072695,0.736250,-1.278433,0.605062,-0.256668
752,969865737,0.156785,0.655300,-0.067035,0.735872,-0.893114,0.066883,0.238036
753,969899071,0.150094,0.657933,-0.061378,0.735411,-0.566675,-0.447958,0.367631
754,969932405,0.144572,0.660504,-0.056387,0.734612,-0.338535,-0.465001,0.290309
755,969965739,0.141011,0.662424,-0.052317,0.733876,-0.155079,-0.458663,0.252057
756,969999073,0.138579,0.663576,-0.048753,0.733544,0.319860,-0.112865,0.245178
757,970032407,0.136285,0.664305,-0.045583,0.733517,0.629103,0.390089,0.328573
758,970065741,0.134066,0.664652,-0.043347,0.733748,0.651324,0.489308,0.266946
759,970099075,0.131669,0.664993,-0.041785,0.733963,0.454364,0.409502,0.090749
760,970132409,0.128432,0.665447,-0.039734,0.734239,0.287384,0.094412,-0.086704
761,970165743,0.124386,0.666411,-0.036544,0.734227,0.337153,0.141223,0.046897
762,970199077,0.120306,0.667706,-0.032894,0.733903,0.335194,0.204650,0.180571
763,970232411,0.115603,0.669228,-0.028239,0.733466,0.264517,0.273067,0.135982
764,970265745,0.109863,0.670852,-0.022468,0.733065,0.105592,0.379142,0.201763
765,970299079,0.103061,0.672614,-0.015724,0.732613,-0.234237,0.092244,0.146579
766,970332413,0.096282,0.674639,-0.009078,0.731786,-0.552149,-0.167115,0.135728
767,970365747,0.091253,0.676597,-0.003863,0.730667,-0.668939,-0.288934,0.240530
768,970399081,0.088457,0.678024,-0.000550,0.729698,-0.531759,-0.291930,0.262785
769,970432415,0.087715,0.678763,0.000832,0.729099,-0.379160,-0.263496,0.262756
770,970465749,0.088893,0.678787,0.000174,0.728935,-0.205886,-0.198536,0.222857
771,970499083,0.091909,0.677797,-0.002635,0.729477,-0.246014,-0.187604,0.289431
772,970532417,0.096343,0.675964,-0.007032,0.730576,-0.314126,-0.129425,0.313601
773,970565751,0.102059,0.673512,-0.012674,0.731987,-0.464811,-0.096516,0.342968
774,970599085,0.109150,0.670546,-0.019687,0.733531,-0.568187,-0.114076,0.223415
775,970632419,0.117379,0.667485,-0.027970,0.734781,-0.494211,-0.039700,0.145192
776,970665753,0.126313,0.664440,-0.036995,0.735660,-0.310240,0.056869,0.154641
777,970699087,0.135369,0.661435,-0.046116,0.736242,-0.203557,0.019730,0.138872
778,970732421,0.144340,0.658590,-0.055007,0.736478,-0.126586,-0.071731,0.033175
779,970765755,0.153387,0.655957,-0.063733,0.736296,-0.032472,-0.003361,0.067451
780,970799089,0.162184,0.653437,-0.071885,0.735900,0.127450,-0.044033,0.102641
781,970832423,0.170319,0.651144,-0.079067,0.735358,0.283874,-0.031306,0.122495
782,970865757,0.177758,0.649150,-0.085310,0.734662,0.463620,0.158873,0.111245
783,970899091,0.184158,0.647569,-0.090630,0.733844,0.441804,0.252548,0.207162
784,970932425,0.189299,0.646361,-0.094935,0.733056,0.482673,0.319455,0.175669
785,970965759,0.192687,0.645493,-0.097819,0.732559,0.464090,0.366682,0.065138
786,970999093,0.193791,0.645316,-0.098550,0.732325,0.354857,0.406780,0.065905
787,971032427,0.193209,0.645905,-0.097445,0.732108,0.211594,0.295411,0.084787
788,971065761,0.191485,0.647190,-0.095092,0.731735,0.138457,0.190838,0.062276
789,971099095,0.188856,0.649043,-0.091917,0.731182,0.124449,0.150748,0.090496
790,971132429,0.185304,0.651336,-0.087863,0.730551,-0.024706,0.193154,0.095768
791,971165763,0.181373,0.653693,-0.083299,0.729966,0.009058,0.132093,0.093698
792,971199097,0.177914,0.655758,-0.079298,0.729411,0.121101,-0.024255,0.125709
793,971232431,0.175014,0.657438,-0.076148,0.728935,0.270870,0.025558,0.180113
794,971265765,0.171798,0.658942,-0.072782,0.728687,0.323899,0.199021,0.301232
795,971299099,0.167923,0.660565,-0.068479,0.728537,0.200095,0.216408,0.193893
796,971332433,0.164003,0.662283,-0.064099,0.728269,0.128895,0.147146,-0.015187
797,971365767,0.159764,0.664225,-0.059192,0.727858,0.084812,0.041838,0.050282
798,971399101,0.155218,0.666134,-0.053732,0.727520,0.096146,-0.122852,0.201750
799,971432435,0.151367,0.667451,-0.049072,0.727454,0.064161,-0.203878,0.336705
800,971465769,0.148541,0.667878,-0.045743,0.727861,0.068348,-0.259235,0.370869
801,971499103,0.146386,0.667423,-0.043317,0.728863,0.061563,-0.169367,0.195230
802,971532437,0.144347,0.666629,-0.040942,0.730133,-0.034008,0.095700,0.216059
803,971565771,0.141578,0.666073,-0.037611,0.731360,-0.225463,0.422643,0.206824
804,971599105,0.137611,0.666409,-0.032570,0.732053,-0.470007,0.503092,0.156141
805,971632439,0.132688,0.667875,-0.026368,0.731875,-0.544935,0.494779,-0.080929
806,971665773,0.127035,0.670354,-0.019947,0.730815,-0.376509,0.539333,-0.258505
807,971699107,0.120457,0.673304,-0.013274,0.729367,-0.104217,0.630486,-0.128732
808,971732441,0.112717,0.675939,-0.005609,0.728266,0.138287,0.593003,0.122086
809,971765775,0.103781,0.677907,0.003065,0.727779,0.279018,0.582124,0.168017
810,971799109,0.094100,0.679156,0.012092,0.727837,0.299237,0.619189,0.186237
811,971832443,0.083604,0.679966,0.021665,0.728139,0.057924,0.663700,0.261831
812,971865777,0.071836,0.680847,0.031984,0.728192,-0.066999,0.520857,0.012746
813,971899111,0.059123,0.682498,0.043090,0.727217,-0.212389,0.263016,-0.037525
814,971932445,0.046846,0.685352,0.054721,0.724640,-0.353788,-0.220410,0.129445
815,971965779,0.036209,0.689315,0.066036,0.720537,-0.310702,-0.662601,0.331243
816,971999113,0.027968,0.693809,0.075730,0.715620,-0.182940,-0.733219,0.359542
817,972032447,0.022527,0.698265,0.083180,0.710633,0.076506,-0.197821,0.235264
818,972065781,0.017237,0.702095,0.090639,0.706081,0.150312,0.275006,0.188149
819,972099115,0.010402,0.705046,0.099681,0.702044,0.060660,0.513152,0.079037
820,972132449,0.001476,0.707057,0.110083,0.698534,-0.122255,0.234256,0.146935
821,972165783,-0.007785,0.708466,0.119586,0.695496,-0.135983,-0.036507,0.216519
822,972199117,-0.015879,0.709586,0.127143,0.692871,-0.082207,-0.265430,0.219333
823,972232451,-0.022591,0.710424,0.132958,0.690732,-0.120794,-0.592463,0.340980
824,972265785,-0.027890,0.710898,0.137688,0.689121,-0.147388,-0.639196,0.331327
825,972299119,-0.031740,0.711030,0.141204,0.688107,-0.115822,-0.562863,0.297199
826,972332453,-0.033783,0.710986,0.142882,0.687708,-0.164945,-0.640066,0.284610
827,972365787,-0.034202,0.710988,0.142823,0.687698,-0.205088,-0.575094,0.285036
828,972399121,-0.033459,0.711141,0.141647,0.687820,-0.188003,-0.303880,0.210945
829,972432455,-0.031924,0.711113,0.139536,0.688352,-0.156866,-0.151522,0.109690
830,972465789,-0.030531,0.710915,0.137282,0.689073,-0.119791,-0.064327,0.182629
831,972499123,-0.030143,0.710674,0.135714,0.689649,-0.060340,-0.054550,0.096807
832,972532457,-0.030014,0.710398,0.134010,0.690271,-0.033231,-0.176763,0.182185
833,972565791,-0.029352,0.710027,0.131479,0.691168,0.100068,-0.289706,0.270146
834,972599125,-0.027937,0.709601,0.127914,0.692332,0.012886,-0.393104,0.316216
835,972632459,-0.025871,0.708912,0.123308,0.693953,-0.122640,-0.411285,0.330813
836,972665793,-0.023203,0.708176,0.117890,0.695738,-0.174664,-0.547889,0.287032
837,972699127,-0.019646,0.707583,0.111670,0.697474,-0.339865,-0.443202,0.295804
838,972732461,-0.015645,0.707207,0.105141,0.698970,-0.217967,-0.251295,0.152739
839,972765795,-0.011375,0.707071,0.098593,0.700143,-0.100713,-0.182197,0.109153
840,972799129,-0.006958,0.706956,0.092150,0.701194,-0.106819,-0.201909,0.170508
841,972832463,-0.002052,0.706639,0.085214,0.702421,-0.037759,-0.247963,0.195771
842,972865797,0.003536,0.706177,0.077713,0.703749,-0.183508,-0.349270,0.108244
843,972899131,0.010408,0.706001,0.069795,0.704686,-0.148599,-0.554467,0.086885
844,972932465,0.018487,0.705702,0.061740,0.705572,0.013176,0.804795,0.277139
845,972965799,0.026219,0.704947,0.052622,0.706820,-0.187840,1.273936,0.129479
846,972999133,0.029625,0.704220,0.045481,0.707904,-0.147553,0.966740,-0.069180
847,973032467,0.030869,0.703837,0.040005,0.708563,0.152672,0.425630,0.004297
848,973065801,0.032021,0.704029,0.036089,0.708531,0.450614,0.361473,0.187883
849,973099135,0.032792,0.704438,0.033769,0.708203,0.447993,0.338162,0.093573
850,973132469,0.032303,0.705044,0.032781,0.707669,0.402166,0.305254,0.066519
851,973165803,0.031744,0.705362,0.031823,0.707420,0.322146,0.176288,0.071533
852,973199137,0.031846,0.705391,0.030186,0.707459,0.327093,0.255867,0.134288
853,973232471,0.032616,0.705248,0.028564,0.707634,0.067963,0.232124,0.224574
854,973265805,0.033400,0.705009,0.027397,0.707881,-0.096210,0.234272,0.101319
855,973299139,0.033559,0.704840,0.027223,0.708049,-0.122418,0.371004,0.112244
856,973332473,0.032969,0.704690,0.028008,0.708196,-0.083957,0.389097,0.138496
857,973365807,0.031676,0.704623,0.029500,0.708260,-0.038147,0.293492,0.158933
858,973399141,0.029832,0.704570,0.031531,0.708306,0.146947,0.201177,0.138424
859,973432475,0.027472,0.704472,0.034369,0.708367,0.047201,0.195086,0.134371
860,973465809,0.024372,0.704384,0.038252,0.708369,0.044108,0.261441,0.165927
861,973499143,0.020205,0.704455,0.043499,0.708126,-0.085825,0.383963,0.172343
862,973532477,0.015088,0.704523,0.049702,0.707778,-0.086679,0.350805,0.139968
863,973565811,0.008897,0.704650,0.057153,0.707194,-0.040834,0.361626,0.114567
864,973599145,0.001812,0.704825,0.065843,0.706316,0.062575,0.466805,0.057200
865,973632479,-0.006030,0.704904,0.075484,0.705249,0.130988,0.568624,0.099797
866,973665813,-0.014595,0.704864,0.085952,0.703965,0.182964,0.545461,0.087414
867,973699147,-0.023635,0.704884,0.096994,0.702262,0.106417,0.472149,0.026016
868,973732481,-0.033401,0.704844,0.108508,0.700218,-0.008497,0.334302,0.138969
869,973765815,-0.043806,0.704642,0.120267,0.697923,-0.203003,0.092373,0.172585
870,973799149,-0.054199,0.704215,0.132188,0.695464,-0.096594,-0.011031,0.207280
871,973832483,-0.064057,0.703578,0.143978,0.692925,-0.292383,-0.315490,0.360037
872,973865817,-0.072284,0.702862,0.154349,0.690606,-0.193139,-0.445904,0.321277
873,973899151,-0.078777,0.702370,0.162755,0.688463,-0.244082,-0.337422,0.180788
874,973932485,-0.083797,0.701992,0.169129,0.686717,-0.124997,-0.254516,0.179106
875,973965819,-0.087641,0.701622,0.174030,0.685390,-0.004364,-0.214587,0.203606
876,973999153,-0.090368,0.701256,0.177827,0.684435,0.059792,-0.334689,0.196695
877,974032487,-0.092400,0.700705,0.180917,0.683918,0.072947,-0.416270,0.237492
878,974065821,-0.093579,0.700145,0.183088,0.683754,0.014662,-0.485395,0.261142
879,974099155,-0.093933,0.699590,0.184451,0.683906,-0.086530,-0.552986,0.321521
880,974132489,-0.093687,0.698929,0.184995,0.684469,-0.358903,-0.483877,0.260368
881,974165823,-0.092860,0.698260,0.184927,0.685282,-0.351403,-0.439723,0.252017
882,974199157,-0.091415,0.697665,0.184219,0.686273,-0.241624,-0.411742,0.230367
883,974232491,-0.089070,0.697193,0.182557,0.687504,-0.029480,-0.449549,0.199800
884,974265825,-0.085703,0.696971,0.179752,0.688895,0.135443,-0.391736,0.172213
885,974299159,-0.081166,0.697037,0.175681,0.690426,0.181418,-0.223051,0.152784
886,974332493,-0.075934,0.697035,0.170741,0.692259,0.172082,-0.042626,0.164798
887,974365827,-0.070632,0.696780,0.165560,0.694334,0.131139,0.021885,0.221836
888,974399161,-0.065531,0.696383,0.160461,0.696426,0.138221,0.001376,0.101032
889,974432495,-0.060271,0.696022,0.155122,0.698469,0.098845,-0.004637,0.131462
890,974465829,-0.054462,0.695742,0.149189,0.700514,0.105165,-0.082184,0.236313
891,974499163,-0.048332,0.695552,0.142856,0.702470,0.154199,-0.186916,0.188787
892,974532497,-0.041996,0.695384,0.136046,0.704393,0.116249,-0.185920,0.154751
893,974565831,-0.035349,0.695198,0.128900,0.706282,0.107625,-0.141186,0.145589
894,974599165,-0.028389,0.695029,0.121530,0.708067,0.115553,-0.120700,0.170959
895,974632499,-0.021441,0.694838,0.114119,0.709731,0.074964,-0.114043,0.204458
896,974665833,-0.014483,0.694528,0.106658,0.711369,0.053954,-0.074867,0.179841
897,974699167,-0.007115,0.694118,0.098900,0.712999,0.088047,-0.078060,0.152536
898,974732501,0.000550,0.693484,0.090869,0.714719,0.132911,-0.032268,0.151875
899,974765835,0.008135,0.692654,0.082843,0.716451,-0.017787,0.036612,0.242792
900,974799169,0.014945,0.691748,0.075306,0.718046,-0.072971,0.174747,0.153474
901,974832503,0.020991,0.690928,0.068785,0.719338,-0.029240,0.168056,0.056428
902,974865837,0.026532,0.690431,0.063142,0.720149,0.004786,0.163134,0.149904
903,974899171,0.031420,0.690144,0.058417,0.720626,0.102697,0.165855,0.144835
904,974932505,0.035759,0.689916,0.054267,0.720966,0.188926,0.455602,0.113217
905,974965839,0.038727,0.689662,0.050860,0.721305,0.329712,0.633165,0.096404
906,974999173,0.039682,0.689085,0.048979,0.721933,0.379675,0.606840,0.160660
907,975032507,0.039360,0.688212,0.048612,0.722809,0.174829,0.308050,0.211103
908,975065841,0.038190,0.687278,0.049234,0.723717,-0.142685,0.010968,0.118546
909,975099175,0.036602,0.686463,0.050079,0.724515,-0.355544,-0.040310,0.179385
910,975132509,0.035318,0.685747,0.050664,0.725216,-0.449549,-0.095743,0.221678
911,975165843,0.034408,0.685055,0.051056,0.725885,-0.372288,-0.071112,0.224667
912,975199177,0.033590,0.684282,0.051345,0.726632,-0.225278,0.025665,0.226571
913,975232511,0.032537,0.683275,0.051683,0.727602,0.025837,0.095982,0.189214
914,975265845,0.030825,0.681799,0.052637,0.728992,0.185612,-0.017032,0.193080
915,975299179,0.028869,0.680025,0.053945,0.730632,0.057363,0.042831,0.190944
916,975332513,0.026883,0.678448,0.055293,0.732071,-0.099710,0.290137,0.139534
917,975365847,0.023963,0.677586,0.057677,0.732787,-0.072860,0.345998,0.046058
918,975399181,0.019847,0.677462,0.061459,0.732717,0.119793,0.407202,0.004462
919,975432515,0.014686,0.677856,0.066488,0.732034,0.242858,0.418617,0.101692
920,975465849,0.008946,0.678579,0.072252,0.730911,0.305707,0.224001,0.098801
921,975499183,0.003102,0.679541,0.078196,0.729451,0.331336,0.159355,0.090131
922,975532517,-0.002801,0.680508,0.084209,0.727881,0.360941,0.239784,0.111107
923,975565851,-0.008457,0.681415,0.090139,0.726276,0.282026,0.117714,0.154876
924,975599185,-0.013864,0.682272,0.095951,0.724643,0.212258,0.058577,0.131201
925,975632519,-0.018890,0.682990,0.101313,0.723121,0.180583,0.104321,0.131001
926,975665853,-0.022967,0.683499,0.105664,0.721898,0.113740,-0.037716,0.239651
927,975699187,-0.025764,0.683813,0.108630,0.721066,-0.025899,-0.246359,0.322940
928,975732521,-0.027323,0.683963,0.110279,0.720615,-0.166578,-0.280199,0.220841
929,975765855,-0.027360,0.684046,0.110440,0.720510,-0.291692,-0.258150,0.212428
930,975799189,-0.025815,0.684035,0.109150,0.720775,-0.292932,-0.295707,0.224178
931,975832523,-0.023230,0.683912,0.106825,0.721327,-0.220768,-0.224892,0.201137
932,975865857,-0.019985,0.683643,0.103835,0.722116,-0.138407,-0.193203,0.218694
933,975899191,-0.016045,0.683507,0.100207,0.722855,-0.050451,-0.156135,0.193172
934,975932525,-0.011757,0.683701,0.096144,0.723305,0.121547,-0.060075,0.111664
935,975965859,-0.007482,0.684043,0.091968,0.723582,0.221114,0.038826,0.115684
936,975999193,-0.003439,0.684202,0.088009,0.723955,0.232007,0.093477,0.251666
937,976032527,0.000321,0.684167,0.084293,0.724438,0.154363,-0.133965,0.274982
938,976065861,0.004156,0.684043,0.080099,0.725019,0.081904,-0.229454,0.157125
939,976099195,0.008151,0.683772,0.075404,0.725744,0.001044,-0.367096,0.217117
940,976132529,0.012602,0.683314,0.070142,0.726639,-0.007889,-0.437535,0.241134
941,976165863,0.017609,0.682589,0.064459,0.727741,-0.046432,-0.405295,0.277101
942,976199197,0.023450,0.681588,0.057995,0.729057,0.015099,-0.431798,0.268456
943,976232531,0.029812,0.680426,0.050799,0.730446,-0.030388,-0.320597,0.232249
944,976265865,0.035944,0.679450,0.043776,0.731532,-0.318283,-0.281284,0.167841
945,976299199,0.042388,0.679157,0.036582,0.731854,-0.687287,-0.222430,0.091139
946,976332533,0.048730,0.679577,0.029621,0.731384,-0.397036,-0.091007,0.066613
947,976365867,0.055201,0.680640,0.022675,0.730184,-0.392508,0.792484,0.116005
948,976399201,0.059367,0.682064,0.016415,0.728695,-0.159112,0.833142,0.111426
949,976432535,0.059640,0.683567,0.012244,0.727344,0.105580,0.618674,0.233846
950,976465869,0.057911,0.684477,0.010266,0.726658,0.311689,-0.295248,-0.069605
951,976499203,0.057249,0.685726,0.007779,0.725563,0.243885,-0.253753,0.125062
952,976532537,0.057472,0.687158,0.004482,0.724218,0.320580,-0.086574,0.185901
953,976565871,0.057388,0.688114,0.001610,0.723328,0.282648,0.189152,0.246668
954,976599205,0.056747,0.688612,-0.000635,0.722906,0.061182,0.261728,0.256591
955,976632539,0.055803,0.688984,-0.002566,0.722621,-0.286723,0.116532,0.188782
956,976665873,0.053875,0.689441,-0.003799,0.722325,-0.529207,0.109781,0.154318
957,976699207,0.051832,0.690169,-0.004865,0.721773,-0.720966,-0.040991,0.212271
958,976732541,0.049490,0.691680,-0.006119,0.720481,-0.670576,-0.002021,0.105279
959,976765875,0.046419,0.694046,-0.007079,0.718398,-0.466869,0.149105,0.041747
960,976799209,0.042663,0.697091,-0.007335,0.715675,-0.249351,0.298296,0.011338
961,976832543,0.037508,0.700558,-0.006122,0.712583,0.048775,0.232057,-0.086319
962,976865877,0.030609,0.703736,-0.002773,0.709796,0.436639,-0.094379,0.026812
963,976899211,0.024359,0.706452,0.000274,0.707342,0.769079,-0.460545,0.136018
964,976932545,0.020379,0.708526,0.001443,0.705389,0.844131,-0.415891,0.271249
965,976965879,0.017340,0.709940,0.001786,0.704047,0.985334,-0.229199,0.333509
966,976999213,0.014173,0.710939,0.002095,0.703108,0.875076,-0.220023,0.185073
967,977032547,0.009306,0.712183,0.004060,0.701920,0.877659,0.080414,0.160011
968,977065881,0.002569,0.713754,0.007818,0.700349,0.705255,0.278666,0.190352
969,977099215,-0.005672,0.715477,0.013153,0.698490,0.500168,0.082842,0.127895
970,977132549,-0.013708,0.717133,0.018240,0.696563,0.216618,-0.223687,0.173354
971,977165883,-0.020065,0.718561,0.021417,0.694845,-0.249407,-0.518589,0.274418
972,977199217,-0.023767,0.719644,0.021514,0.693602,-0.494228,-0.409549,0.210922
973,977232551,-0.025189,0.720543,0.018989,0.692693,-0.611718,-0.358237,0.112960
974,977265885,-0.024979,0.721463,0.014818,0.691844,-0.729813,-0.237526,0.154621
975,977299219,-0.023989,0.722418,0.009897,0.690969,-0.643752,-0.090801,0.182199
976,977332553,-0.022711,0.723379,0.004656,0.690062,-0.381841,-0.105845,0.066216
977,977365887,-0.020540,0.724476,-0.001068,0.688994,-0.129257,-0.180205,0.123990
978,977399221,-0.017418,0.725646,-0.007353,0.687808,0.014228,-0.077846,0.202835
979,977432555,-0.013911,0.726671,-0.013972,0.686703,-0.000844,-0.112220,0.126215
980,977465889,-0.010169,0.727593,-0.020802,0.685619,0.118607,-0.035052,0.197803
981,977499223,-0.006349,0.728210,-0.027548,0.684771,0.152627,0.125707,0.252405
982,977532557,-0.002832,0.728645,-0.033837,0.684049,0.027589,0.203206,0.207684
983,977565891,-0.000318,0.728884,-0.038986,0.683526,-0.194508,0.128838,0.152333
984,977599225,0.001523,0.729044,-0.043528,0.683080,-0.184196,-0.026633,0.155874
985,977632559,0.003281,0.729059,-0.047927,0.682763,0.103768,-0.016567,0.207785
986,977665893,0.004871,0.728954,-0.052159,0.682555,0.417164,0.338145,0.212969
987,977699227,0.005705,0.728539,-0.055545,0.682724,0.164291,-0.147190,0.185525
988,977732561,0.006636,0.728425,-0.058719,0.682572,0.003920,0.184101,0.154029
989,977765895,0.006573,0.728537,-0.060856,0.682266,0.187812,0.480711,0.115630
990,977799229,0.005261,0.728678,-0.061524,0.682067,0.251116,0.329771,0.222474
991,977832563,0.003039,0.728748,-0.060979,0.682054,0.117498,0.215720,0.241935
992,977865897,0.000613,0.728753,-0.060078,0.682136,-0.088126,0.199575,0.183200
993,977899231,-0.001839,0.728738,-0.058997,0.682244,-0.002121,0.356804,0.218931
994,977932565,-0.004932,0.728677,-0.057064,0.682458,-0.116310,0.238733,0.130591
995,977965899,-0.008936,0.728887,-0.053881,0.682452,-0.245081,0.390413,0.099494
996,977999233,-0.014362,0.729266,-0.048994,0.682323,-0.112463,0.449647,0.093925
997,978032567,-0.021078,0.729615,-0.042571,0.682206,0.024465,0.223437,0.126076
998,978065901,-0.028301,0.729846,-0.035436,0.682106,0.040463,-0.060745,0.250772
999,978099235,-0.035112,0.729960,-0.028584,0.681989,0.044723,-0.269723,0.285616
1000,978132569,-0.041417,0.729968,-0.022302,0.681861,0.180919,-0.003240,0.240612
1001,978165903,-0.047850,0.729764,-0.015954,0.681836,0.210848,0.027902,0.222072
1002,978199237,-0.054492,0.729465,-0.009368,0.681780,0.188722,-0.084793,0.162180
1003,978232571,-0.061176,0.729315,-0.002717,0.681433,0.126210,-0.165716,0.125981
1004,978265905,-0.067651,0.729425,0.003750,0.680697,0.299725,-0.094214,0.185383
1005,978299239,-0.074037,0.729636,0.010014,0.679742,0.316959,-0.018127,0.193871
1006,978332573,-0.080160,0.729921,0.015877,0.678629,0.160509,-0.082170,0.143304
1007,978365907,-0.085592,0.730355,0.020895,0.677362,0.066641,-0.148426,0.213238
1008,978399241,-0.090012,0.730854,0.024817,0.676118,-0.119309,-0.162244,0.167117
1009,978432575,-0.093263,0.731328,0.027296,0.675067,-0.337187,-0.160061,0.198089
1010,978465909,-0.094808,0.731755,0.028047,0.674359,-0.542735,-0.390188,0.195451
1011,978499243,-0.094346,0.732175,0.026544,0.674028,-0.691058,-0.276085,0.211545
1012,978532577,-0.092111,0.732415,0.023039,0.674206,-0.640723,-0.269851,0.192462
1013,978565911,-0.088248,0.732586,0.017898,0.674692,-0.529631,-0.243027,0.131903
1014,978599245,-0.083049,0.732782,0.011565,0.675278,-0.321694,-0.045093,0.206387
1015,978632579,-0.077289,0.732875,0.004710,0.675943,-0.062046,0.009272,0.204893
1016,978665913,-0.070897,0.732978,-0.002709,0.676542,0.068302,-0.034478,0.161546
1017,978699247,-0.064311,0.733073,-0.010325,0.677024,0.109727,0.117643,0.250101
1018,978732581,-0.058131,0.733031,-0.017260,0.677487,-0.073502,-0.004186,0.195959
1019,978765915,-0.052283,0.733061,-0.023660,0.677738,-0.072595,0.148761,0.171826
1020,978799249,-0.047125,0.733060,-0.029385,0.677893,0.089760,0.147189,0.168367
1021,978832583,-0.042499,0.732916,-0.034366,0.678120,0.133427,0.058299,0.217144
1022,978865917,-0.038428,0.732722,-0.038670,0.678341,0.136793,0.097144,0.192080
1023,978899251,-0.035082,0.732532,-0.042182,0.678518,0.177044,0.260639,0.184098
1024,978932585,-0.032717,0.732232,-0.044679,0.678801,0.209984,0.088405,0.198205
1025,978965919,-0.031061,0.732016,-0.046380,0.678997,0.171311,0.079886,0.195400
1026,978999253,-0.030064,0.731897,-0.047288,0.679107,0.045082,0.052537,0.164463
1027,979032587,-0.029714,0.731824,-0.047454,0.679190,-0.018714,0.208030,0.183150
1028,979065921,-0.030142,0.731580,-0.046874,0.679474,-0.103110,0.059273,0.216494
1029,979099255,-0.030757,0.731224,-0.046081,0.679883,-0.289163,-0.137163,0.146536
1030,979132589,-0.031191,0.730965,-0.045512,0.680181,-0.323634,-0.083870,0.116884
1031,979165923,-0.031622,0.730664,-0.045009,0.680518,-0.122295,-0.060925,0.199430
1032,979199257,-0.032002,0.730299,-0.044594,0.680918,0.073257,-0.127533,0.254833
1033,979232591,-0.032017,0.729936,-0.044493,0.681314,0.109035,0.067086,0.217073
1034,979265925,-0.032112,0.729529,-0.044271,0.681760,0.012431,0.095183,0.175592
1035,979299259,-0.032499,0.729029,-0.043707,0.682312,-0.004295,0.000060,0.210711
1036,979332593,-0.033042,0.728493,-0.042910,0.682909,-0.054026,-0.076189,0.204163
1037,979365927,-0.033624,0.728079,-0.042054,0.683375,-0.007505,-0.051426,0.139501
1038,979399261,-0.034526,0.727840,-0.040863,0.683657,0.146003,0.056842,0.132957
1039,979432595,-0.035971,0.727711,-0.039132,0.683821,0.237504,0.068305,0.189523
1040,979465929,-0.038118,0.727649,-0.036655,0.683908,0.176831,0.011769,0.152900
1041,979499263,-0.040795,0.727710,-0.033572,0.683848,0.103702,0.074837,0.138040
1042,979532597,-0.043905,0.727863,-0.030104,0.683653,0.022823,-0.007150,0.181539
1043,979565931,-0.047254,0.728112,-0.026346,0.683319,0.038476,0.006854,0.182183
1044,979599265,-0.050917,0.728481,-0.022206,0.682810,0.021343,0.099411,0.174628
1045,979632599,-0.054919,0.728938,-0.017666,0.682144,0.019418,0.040451,0.108884
1046,979665933,-0.059240,0.729590,-0.012816,0.681194,0.189744,0.195691,0.126622
1047,979699267,-0.064613,0.730259,-0.006655,0.680076,0.346783,0.151081,0.333175
1048,979732601,-0.070398,0.730832,0.000248,0.678917,0.301345,0.110182,0.176880
1049,979765935,-0.075249,0.731477,0.006087,0.677674,0.149737,0.059772,0.168118
1050,979799269,-0.078635,0.732250,0.010418,0.676400,0.027895,0.002328,0.223272
1051,979832603,-0.080531,0.733107,0.013386,0.675196,-0.225836,0.063088,0.195697
1052,979865937,-0.081258,0.733884,0.015135,0.674228,-0.384708,-0.022245,0.147630
1053,979899271,-0.080329,0.734640,0.015233,0.673512,-0.442851,-0.191016,0.206398
1054,979932605,-0.077094,0.735406,0.013045,0.673101,-0.511159,-0.407812,0.218872
1055,979965939,-0.071743,0.736213,0.008733,0.672880,-0.449416,-0.031509,0.203121
1056,979999273,-0.065257,0.736862,0.003348,0.672878,-0.397617,0.060942,0.217659
1057,980032607,-0.058454,0.737248,-0.002179,0.673086,-0.315579,0.010594,0.172182
1058,980065941,-0.051261,0.737546,-0.007865,0.673303,-0.133432,0.080336,0.198854
1059,980099275,-0.043848,0.737630,-0.013708,0.673640,0.005907,0.088880,0.204111
1060,980132609,-0.036362,0.737464,-0.019630,0.674121,0.004685,0.032465,0.197506
1061,980165943,-0.028886,0.737225,-0.025366,0.674553,0.021622,0.068848,0.235950
1062,980199277,-0.021716,0.736913,-0.030522,0.674949,0.040914,0.239449,0.188891
1063,980232611,-0.015108,0.736433,-0.034913,0.675440,-0.098461,0.242427,0.197372
1064,980265945,-0.008736,0.735782,-0.038912,0.676043,-0.126564,0.122279,0.204275
1065,980299279,-0.002364,0.734969,-0.042566,0.676760,-0.131294,0.103152,0.203761
1066,980332613,0.004166,0.733999,-0.046120,0.677570,-0.202785,0.155405,0.154493
1067,980365947,0.010651,0.732951,-0.049519,0.678393,-0.156791,0.196402,0.174756
1068,980399281,0.016618,0.731888,-0.051945,0.679239,-0.030897,0.227672,0.135386
1069,980432615,0.021590,0.730888,-0.053061,0.680089,0.022857,0.185943,0.122005
1070,980465949,0.025432,0.729953,-0.053011,0.680964,0.106651,0.085386,0.155862
1071,980499283,0.028333,0.729046,-0.051933,0.681904,0.116187,-0.008960,0.146147
1072,980532617,0.030708,0.728144,-0.050205,0.682893,-0.000000,-0.095351,0.128907
1073,980565951,0.032662,0.727294,-0.048093,0.683859,-0.003805,-0.032459,0.142757
1074,980599285,0.034168,0.726545,-0.045684,0.684747,0.063473,-0.078367,0.122328
1075,980632619,0.034844,0.726008,-0.042451,0.685490,0.187319,-0.017946,0.162266
1076,980665953,0.034453,0.725540,-0.038064,0.686263,0.237663,0.025304,0.145626
1077,980699287,0.033134,0.725231,-0.032763,0.686927,0.155654,-0.030853,0.089505
1078,980732621,0.030955,0.725053,-0.026618,0.687482,0.123312,-0.119096,0.144409
1079,980765955,0.028158,0.724892,-0.020042,0.687995,0.086432,-0.178132,0.160550
1080,980799289,0.025172,0.724815,-0.013510,0.688351,-0.020637,-0.249918,0.152715
1081,980832623,0.021997,0.724874,-0.007014,0.688494,0.025122,-0.119503,0.154788
1082,980865957,0.018625,0.724931,-0.000447,0.688569,0.043826,-0.136451,0.150977
1083,980899291,0.014866,0.725077,0.006321,0.688478,0.016453,-0.193872,0.171691
1084,980932625,0.011084,0.725291,0.012844,0.688234,0.047758,-0.246519,0.128206
1085,980965959,0.007647,0.725652,0.018741,0.687764,-0.007198,-0.304107,0.205855
1086,980999293,0.005010,0.726158,0.023465,0.687109,-0.010656,-0.404723,0.183020
1087,981032627,0.003353,0.726830,0.026875,0.686283,0.062215,-0.252874,0.161258
1088,981065961,0.001567,0.727598,0.030179,0.685338,0.150724,-0.057808,0.186774
1089,981099295,-0.000798,0.728398,0.033986,0.684310,0.161808,0.010776,0.168104
1090,981132629,-0.003658,0.729189,0.038205,0.683235,0.005664,-0.102341,0.203819
1091,981165963,-0.006379,0.729923,0.042157,0.682198,-0.089634,-0.164393,0.199207
1092,981199297,-0.008781,0.730501,0.045620,0.681329,-0.104868,-0.224538,0.194770
1093,981232631,-0.010323,0.731054,0.047987,0.680552,-0.208729,-0.401745,0.207779
1094,981265965,-0.010355,0.731534,0.048545,0.679996,-0.326865,-0.344380,0.177076
1095,981299299,-0.009202,0.731803,0.047605,0.679790,-0.369659,-0.168456,0.256679
1096,981332633,-0.007459,0.731849,0.046031,0.679870,-0.367355,-0.144150,0.186123
1097,981365967,-0.005331,0.731819,0.044002,0.680057,-0.333995,-0.106342,0.190817
1098,981399301,-0.002674,0.731523,0.041257,0.680562,-0.284154,-0.155791,0.252493
1099,981432635,0.000535,0.730808,0.037907,0.681529,-0.238482,-0.284398,0.271807
1100,981465969,0.005160,0.729774,0.033082,0.682868,-0.231130,-0.363102,0.264532
1101,981499303,0.010980,0.728560,0.026765,0.684371,-0.311160,-0.204702,0.197960
1102,981532637,0.017179,0.727098,0.019804,0.686033,-0.338697,-0.139062,0.214315
1103,981565971,0.024132,0.725363,0.012149,0.687837,-0.436546,-0.094067,0.230830
1104,981599305,0.031838,0.723152,0.003734,0.689945,-0.443071,-0.121471,0.240406
1105,981632639,0.040391,0.720600,-0.005633,0.692151,-0.395312,-0.090582,0.076019
1106,981665973,0.049506,0.718119,-0.015645,0.693981,-0.215829,0.118101,-0.001960
1107,981699307,0.058332,0.716013,-0.025267,0.695187,0.000839,0.113134,0.076798
1108,981732641,0.065943,0.714320,-0.033436,0.695903,0.451590,0.110963,0.119753
1109,981765975,0.071626,0.713113,-0.039549,0.696259,0.719059,-0.074858,0.168865
1110,981799309,0.075687,0.712331,-0.043977,0.696363,0.655513,-0.192100,0.217574
1111,981832643,0.078808,0.711819,-0.047552,0.696306,0.683976,-0.024651,0.163345
1112,981865977,0.080439,0.711768,-0.050024,0.695999,0.419340,-0.065022,0.121666
1113,981899311,0.080700,0.712191,-0.051021,0.695463,0.127311,-0.105340,0.140474
1114,981932645,0.079854,0.712901,-0.050816,0.694848,0.067681,0.025469,0.153037
1115,981965979,0.077736,0.713925,-0.049497,0.694132,-0.005360,0.106639,0.107941
1116,981999313,0.075207,0.715057,-0.047847,0.693361,-0.137417,-0.047717,0.193000
1117,982032647,0.073145,0.715979,-0.046603,0.692714,-0.128050,-0.180054,0.207301
1118,982065981,0.071593,0.716796,-0.046177,0.692060,-0.224790,-0.204782,0.163437
1119,982099315,0.070740,0.717505,-0.046607,0.691383,-0.253348,0.007473,0.201581
1120,982132649,0.070027,0.718013,-0.047022,0.690900,-0.194245,-0.059395,0.198141
1121,982165983,0.069609,0.718374,-0.047694,0.690520,-0.128989,0.033341,0.174750
1122,982199317,0.068938,0.718423,-0.048324,0.690493,0.061168,-0.033655,0.223044
1123,982232651,0.068429,0.718308,-0.048976,0.690617,0.139415,-0.152388,0.187156
1124,982265985,0.067708,0.718316,-0.049306,0.690657,0.242862,0.143453,0.191277
1125,982299319,0.066058,0.718392,-0.048506,0.690794,0.165331,0.243007,0.175101
1126,982332653,0.063622,0.718562,-0.046540,0.690982,-0.059717,0.106522,0.149111
1127,982365987,0.060580,0.718815,-0.043723,0.691175,-0.066683,0.097073,0.161436
1128,982399321,0.056746,0.719205,-0.040046,0.691318,0.016974,0.110738,0.142265
1129,982432655,0.052489,0.719760,-0.035668,0.691316,0.041088,0.051999,0.181529
1130,982465989,0.047727,0.720347,-0.030636,0.691291,0.192417,0.120776,0.092455
1131,982499323,0.042163,0.721028,-0.024780,0.691178,0.258610,0.112040,0.145122
1132,982532657,0.035767,0.721754,-0.018032,0.690989,0.261747,-0.000398,0.209180
1133,982565991,0.028824,0.722503,-0.010610,0.690685,0.190366,-0.085688,0.194014
1134,982599325,0.021836,0.723268,-0.003269,0.690214,0.071384,-0.099267,0.159269
1135,982632659,0.015270,0.724034,0.003510,0.689587,-0.034115,-0.143837,0.188884
1136,982665993,0.009360,0.724792,0.009548,0.688839,-0.148784,-0.184030,0.190890
1137,982699327,0.004422,0.725552,0.014403,0.688002,-0.180561,-0.213938,0.156759
1138,982732661,0.000414,0.726392,0.018157,0.687041,-0.114493,-0.251457,0.176925
1139,982765995,-0.002861,0.727204,0.020988,0.686095,0.012366,-0.168718,0.219313
1140,982799329,-0.005440,0.727800,0.022967,0.685383,0.052391,-0.094160,0.207286
1141,982832663,-0.007230,0.728151,0.023926,0.684961,-0.095164,-0.257816,0.191960
1142,982865997,-0.007711,0.728428,0.023495,0.684676,-0.252748,-0.238083,0.198548
1143,982899331,-0.007420,0.728632,0.022046,0.684511,-0.352593,-0.179175,0.176483
1144,982932665,-0.006687,0.728741,0.020132,0.684461,-0.361187,-0.167330,0.187740
1145,982965999,-0.005619,0.728838,0.017899,0.684429,-0.350943,-0.180534,0.153178
1146,982999333,-0.004317,0.728937,0.015373,0.684394,-0.249572,-0.073320,0.193817
1147,983032667,-0.002811,0.728993,0.012557,0.684400,-0.148943,-0.146897,0.184446
1148,983066001,-0.000853,0.729005,0.009375,0.684444,-0.069256,-0.275026,0.200816
1149,983099335,0.001775,0.728875,0.005334,0.684624,-0.082791,-0.204686,0.226347
1150,983132669,0.005224,0.728620,0.000322,0.684898,-0.193286,-0.333123,0.205593
1151,983166003,0.009827,0.728305,-0.005702,0.685159,-0.150862,-0.208390,0.189531
1152,983199337,0.014763,0.727940,-0.012178,0.685374,-0.099419,-0.082763,0.143465
1153,983232671,0.019856,0.727624,-0.018756,0.685433,-0.032471,-0.095590,0.170036
1154,983266005,0.024768,0.727339,-0.024855,0.685381,0.209685,0.086898,0.166317
1155,983299339,0.028753,0.727095,-0.029889,0.685283,0.150671,0.124859,0.123852
1156,983332673,0.031958,0.726931,-0.034209,0.685113,0.149346,0.070090,0.181170
1157,983366007,0.034279,0.726834,-0.037643,0.684924,0.225760,0.222878,0.159883
1158,983399341,0.035456,0.726877,-0.039720,0.684701,0.138525,0.105891,0.131557
1159,983432675,0.035746,0.727116,-0.040852,0.684366,0.168407,0.068110,0.141812
1160,983466009,0.034904,0.727571,-0.040727,0.683933,0.280479,0.092068,0.240428
1161,983499343,0.033096,0.728078,-0.039340,0.683564,0.241153,0.065667,0.195288
1162,983532677,0.030767,0.728578,-0.037366,0.683251,0.012778,-0.033267,0.167071
1163,983566011,0.028201,0.729094,-0.035088,0.682932,-0.087278,0.097324,0.178483
1164,983599345,0.025310,0.729458,-0.032266,0.682795,-0.164538,0.101526,0.274713
1165,983632679,0.022286,0.729259,-0.029268,0.683248,-0.306113,0.046811,0.368606
1166,983666013,0.019792,0.728281,-0.026695,0.684473,-0.495066,-0.162769,0.338593
1167,983699347,0.019661,0.726815,-0.026016,0.686058,-0.922167,-0.356106,0.044568
1168,983732681,0.021118,0.725388,-0.027215,0.687478,-0.902994,0.028276,0.089352
1169,983766015,0.022201,0.723990,-0.028541,0.688862,-0.584998,-0.044139,-0.005250
1170,983799349,0.022654,0.723031,-0.029307,0.689822,-0.311910,-0.252911,-0.026427
1171,983832683,0.021792,0.722619,-0.028922,0.690297,0.343619,-0.319681,0.182075
1172,983866017,0.019114,0.722509,-0.027051,0.690567,0.799754,-0.383185,0.178534
1173,983899351,0.015204,0.722485,-0.024394,0.690789,0.922546,-0.437173,0.257015
1174,983932685,0.010709,0.722675,-0.021681,0.690765,0.675738,-0.277334,0.168773
1175,983966019,0.005564,0.723233,-0.018736,0.690327,0.441258,-0.265044,0.073660
1176,983999353,-0.000543,0.724299,-0.015035,0.689322,0.241172,-0.209567,0.136714
1177,984032687,-0.007307,0.725602,-0.010907,0.687990,0.132410,-0.150558,0.201200
1178,984066021,-0.014041,0.726715,-0.007122,0.686758,-0.014527,-0.377485,0.180463
1179,984099355,-0.019145,0.727640,-0.005430,0.685671,-0.245436,-0.570386,0.199658
1180,984132689,-0.022148,0.728330,-0.006527,0.684837,-0.550833,-0.534346,0.222718
1181,984166023,-0.022625,0.728721,-0.010853,0.684351,-0.519046,-0.252488,0.233765
1182,984199357,-0.021252,0.728803,-0.017002,0.684182,-0.618764,-0.323324,0.113430
1183,984232691,-0.018557,0.728989,-0.024199,0.683845,-0.631909,0.038837,0.110021
1184,984266025,-0.015105,0.729178,-0.031915,0.683412,-0.186702,0.215175,0.131266
1185,984299359,-0.011179,0.729421,-0.039644,0.682823,0.238294,0.286296,0.180399
1186,984332693,-0.007700,0.729585,-0.046539,0.682262,0.328838,0.286342,0.224714
1187,984366027,-0.005068,0.729818,-0.052058,0.681638,0.415692,0.429061,0.232033
1188,984399361,-0.003722,0.730131,-0.055786,0.681016,0.290106,0.445912,0.163123
1189,984432695,-0.003464,0.730555,-0.057929,0.680383,0.333577,0.376650,0.160690
1190,984466029,-0.003829,0.731125,-0.059037,0.679673,0.291673,0.184800,0.188790
1191,984499363,-0.004634,0.731802,-0.059399,0.678908,0.263356,0.271699,0.200566
1192,984532697,-0.005903,0.732434,-0.059078,0.678244,-0.024927,0.342614,0.185781
1193,984566031,-0.007505,0.733027,-0.058108,0.677671,-0.190243,0.275688,0.204013
1194,984599365,-0.009174,0.733477,-0.056742,0.677280,-0.271975,0.185575,0.221042
1195,984632699,-0.010223,0.733679,-0.055901,0.677115,-0.288189,0.191395,0.180051
1196,984666033,-0.009946,0.733706,-0.056247,0.677062,-0.480155,0.103400,0.235962
1197,984699367,-0.008289,0.733555,-0.057682,0.677127,-0.250656,0.051427,0.279009
1198,984732701,-0.006132,0.733184,-0.059424,0.677401,-0.007800,0.112543,0.268705
1199,984766035,-0.004092,0.732677,-0.060825,0.677841,0.036986,0.155617,0.148090
1200,984799369,-0.002361,0.732282,-0.061677,0.678199,0.128832,0.271626,0.083456
1201,984832703,-0.001794,0.732146,-0.060853,0.678422,0.370681,0.257748,0.166726
1202,984866037,-0.002847,0.732127,-0.057775,0.678707,0.660631,0.294235,0.245739
1203,984899371,-0.005066,0.732137,-0.052996,0.679074,0.476747,0.246638,0.149056
1204,984932705,-0.008211,0.732404,-0.046503,0.679231,-0.007013,0.379916,0.130705
1205,984966039,-0.012516,0.732725,-0.038432,0.679323,0.050655,0.348008,0.273975
1206,984999373,-0.017395,0.733054,-0.029252,0.679319,0.024106,0.539863,0.316952
1207,985032707,-0.022573,0.733199,-0.018764,0.679381,-0.038838,0.460080,0.295949
1208,985066041,-0.027842,0.732943,-0.007883,0.679675,-0.061761,0.256288,0.313135
1209,985099375,-0.032791,0.732248,0.002400,0.680244,0.147379,0.209987,0.227042
1210,985132709,-0.037490,0.730860,0.012544,0.681382,0.132629,0.534516,0.206927
1211,985166043,-0.042515,0.728679,0.023357,0.683136,0.338091,0.528293,0.214013
1212,985199377,-0.047607,0.726123,0.034967,0.685023,0.411477,0.398652,0.051514
1213,985232711,-0.052462,0.723525,0.046478,0.686731,-0.026917,0.107107,-0.086606
1214,985266045,-0.056723,0.721192,0.057441,0.688016,0.453302,-0.063763,0.195324
1215,985299379,-0.059315,0.718637,0.066925,0.689612,0.248260,-0.344035,0.111068
1216,985332713,-0.060076,0.715741,0.074075,0.691823,-0.060911,-0.507909,-0.098495
1217,985366047,-0.058952,0.713458,0.079407,0.693683,-0.025564,-0.207508,0.047198
1218,985399381,-0.057083,0.712002,0.084176,0.694773,-0.049224,0.248948,0.144812
1219,985432715,-0.056470,0.710613,0.090184,0.695490,0.062163,-0.035574,0.064996
1220,985466049,-0.056401,0.708963,0.096782,0.696293,0.261823,-0.100678,0.074180
1221,985499383,-0.055995,0.707047,0.103259,0.697342,0.322465,-0.203267,0.133037
1222,985532717,-0.054353,0.704454,0.108272,0.699333,-0.297272,-0.553469,0.152485
1223,985566051,-0.051495,0.702055,0.111205,0.701499,-0.469491,-0.596608,0.241078
1224,985599385,-0.047473,0.700801,0.112075,0.702897,-0.687388,-0.298033,0.238745
1225,985632719,-0.042806,0.699865,0.111401,0.704234,-0.731363,-0.491130,0.044185
1226,985666053,-0.037883,0.699160,0.110228,0.705400,-0.620579,0.009964,0.242007
1227,985699387,-0.033906,0.698414,0.108858,0.706554,-0.422385,-0.028890,0.312427
1228,985732721,-0.030674,0.697462,0.106841,0.707949,-0.583276,-0.377117,0.343499
1229,985766055,-0.027189,0.696217,0.104153,0.709715,-0.509037,-0.668942,0.326392
1230,985799389,-0.022356,0.695006,0.100338,0.711617,-0.542277,-1.142649,0.373278
1231,985832723,-0.015826,0.693592,0.094724,0.713938,-0.570439,-1.105202,0.397048
1232,985866057,-0.007098,0.691890,0.086732,0.716739,-0.657274,-0.856777,0.338221
1233,985899391,0.003366,0.689957,0.076639,0.719774,-0.538883,-0.620633,0.181684
1234,985932725,0.015476,0.688321,0.064773,0.722343,-0.406796,-0.503173,0.187877
1235,985966059,0.028977,0.687259,0.051314,0.724018,-0.396629,-0.352047,0.034246
1236,985999393,0.043342,0.686174,0.036699,0.725218,-0.106188,0.074192,-0.002941
1237,986032727,0.057251,0.684131,0.022508,0.726760,0.427531,0.338874,0.279910
1238,986066061,0.069731,0.681519,0.010255,0.728399,0.673702,0.216067,0.248886
1239,986099395,0.080162,0.679064,0.000260,0.729689,0.215604,0.112849,0.071029
1240,986132729,0.089634,0.676604,-0.008907,0.730817,0.174507,-0.063862,-0.014499
1241,986166063,0.099073,0.674487,-0.018539,0.731374,0.123686,-0.130806,0.076921
1242,986199397,0.107847,0.672863,-0.028004,0.731327,0.105540,-0.091630,0.273256
1243,986232731,0.115914,0.671287,-0.036191,0.731183,-0.104637,-0.156059,0.186977
1244,986266065,0.123562,0.669674,-0.043465,0.731013,-0.142462,-0.073752,0.037559
1245,986299399,0.130770,0.668129,-0.050515,0.730720,0.038537,0.190786,0.103238
1246,986332733,0.137393,0.666593,-0.057577,0.730385,-0.065204,0.293314,0.139079
1247,986366067,0.142427,0.665345,-0.063716,0.730049,0.012866,0.287874,0.209339
1248,986399401,0.146196,0.664710,-0.068802,0.729420,0.012594,0.158684,0.081589
1249,986432735,0.148292,0.665183,-0.072226,0.728234,0.082592,0.119231,0.121018
1250,986466069,0.148817,0.666302,-0.074089,0.726915,0.331707,0.192858,0.075565
1251,986499403,0.147821,0.667611,-0.074999,0.725824,0.357446,0.332925,0.110973
1252,986532737,0.145318,0.668859,-0.074687,0.725212,0.557101,0.203346,0.165933
1253,986566071,0.142346,0.669953,-0.073751,0.724887,0.432061,0.138517,0.153838
1254,986599405,0.139474,0.670931,-0.072308,0.724686,0.460783,0.186432,0.090613
1255,986632739,0.135367,0.672230,-0.069242,0.724561,0.383850,0.418136,0.066607
1256,986666073,0.129726,0.673890,-0.064170,0.724517,0.401143,0.319978,0.062986
1257,986699407,0.123320,0.675821,-0.058079,0.724351,0.457032,0.227983,0.031206
1258,986732741,0.115349,0.678160,-0.050524,0.724045,0.696092,0.220060,0.145520
1259,986766075,0.106295,0.680738,-0.041578,0.723581,0.644999,0.152599,0.088519
1260,986799409,0.096175,0.683482,-0.031215,0.722931,0.590033,0.095438,0.091390
1261,986832743,0.084665,0.686429,-0.019261,0.721994,0.407709,0.138058,0.048730
1262,986866077,0.072449,0.689494,-0.006941,0.720626,0.315798,0.266319,0.033973
1263,986899411,0.059052,0.692649,0.006137,0.718828,0.026683,0.447872,0.210635
1264,986932745,0.044602,0.695937,0.020827,0.716413,-0.222134,0.398417,0.104223
1265,986966079,0.029201,0.699427,0.036507,0.713174,-0.222072,0.348585,0.014357
1266,986999413,0.012846,0.703229,0.053224,0.708852,-0.517235,0.556205,0.173385
1267,987032747,-0.003646,0.706769,0.070304,0.703934,-0.535648,0.389656,0.134097
1268,987066081,-0.019588,0.709655,0.086287,0.698971,-0.501045,-0.127070,0.242216
1269,987099415,-0.034243,0.712152,0.100411,0.693963,-0.444980,-0.548559,0.426338
1270,987132749,-0.046635,0.714233,0.112537,0.689226,-0.477887,-0.766970,0.454232
1271,987166083,-0.055917,0.716070,0.122261,0.684959,-0.391558,-0.650828,0.271245
1272,987199417,-0.062646,0.717573,0.129515,0.681462,-0.532867,-0.149587,0.120625
1273,987232751,-0.068380,0.718592,0.135669,0.678634,-0.615509,0.081395,0.150530
1274,987266085,-0.073766,0.718898,0.141053,0.676645,-0.628522,-0.222828,0.253375
1275,987299419,-0.076901,0.718817,0.144107,0.675738,-0.507606,-0.706592,0.348186
1276,987332753,-0.076663,0.718973,0.144369,0.675543,-0.381182,-0.689462,0.287090
1277,987366087,-0.074576,0.718998,0.143050,0.676031,-0.274572,-0.370844,0.269968
1278,987399421,-0.072259,0.718456,0.141341,0.677217,-0.116970,-0.238335,0.334667
1279,987432755,-0.069516,0.717479,0.139137,0.678993,-0.101366,-0.157707,0.313063
1280,987466089,-0.066430,0.716431,0.136533,0.680935,-0.325696,-0.211387,0.279391
1281,987499423,-0.062755,0.715417,0.133276,0.682992,-0.556395,-0.214209,0.197407
1282,987532757,-0.058320,0.714711,0.129299,0.684886,-0.332208,-0.226711,0.289733
1283,987566091,-0.053554,0.714189,0.125036,0.686609,-0.226867,0.076549,0.268426
1284,987599425,-0.048665,0.713597,0.120601,0.688379,-0.029371,0.091381,0.131656
1285,987632759,-0.043756,0.712834,0.116235,0.690248,0.066504,0.103589,0.095071
1286,987666093,-0.038932,0.711881,0.112057,0.692209,0.219612,0.076853,0.232078
1287,987699427,-0.034109,0.710455,0.107996,0.694570,-0.107537,-0.154795,0.237308
1288,987732761,-0.029003,0.708965,0.103507,0.697003,-0.256500,-0.163277,0.112780
1289,987766095,-0.023297,0.708074,0.098168,0.698893,-0.079950,-0.007597,0.072230
1290,987799429,-0.017771,0.707922,0.092892,0.699930,0.263090,0.066008,0.085319
1291,987832763,-0.012604,0.707995,0.087946,0.700607,0.604666,0.073041,0.074801
1292,987866097,-0.007963,0.707794,0.083670,0.701402,0.746300,-0.002957,0.133287
1293,987899431,-0.003956,0.707350,0.080256,0.702281,0.560243,0.121518,0.223848
1294,987932765,-0.000555,0.706582,0.077315,0.703394,0.375531,0.008204,0.021619
1295,987966099,0.002559,0.705510,0.074733,0.704744,0.014766,-0.644727,0.385351
1296,987999433,0.006357,0.704218,0.072174,0.706277,-0.191257,-0.493832,0.596909
1297,988032767,0.010975,0.702553,0.069281,0.708166,-0.370513,-0.538843,0.520563
1298,988066101,0.015964,0.700482,0.066713,0.710366,-0.079254,-0.885448,0.637361
1299,988099435,0.021935,0.696671,0.064464,0.714152,0.631592,-0.635939,-0.017329
1300,988132769,0.028214,0.691399,0.060989,0.719342,0.332824,-0.302552,-0.506069
1301,988166103,0.034740,0.686524,0.054830,0.724205,0.156002,0.484294,-0.127641
1302,988199437,0.039759,0.683745,0.048020,0.727053,-0.851616,0.913852,-0.808197
1303,988232771,0.043329,0.685536,0.041356,0.725571,-1.626313,0.252367,-0.914104
1304,988266105,0.044008,0.689475,0.038650,0.721937,-1.349324,0.317728,-0.413157
1305,988299439,0.039234,0.693545,0.040188,0.718220,-0.503944,0.854728,0.778934
1306,988332773,0.026503,0.695961,0.045325,0.716158,2.407251,-0.308240,1.873502
1307,988366107,0.011342,0.696811,0.050442,0.715390,0.330611,-0.425983,0.573084
1308,988399441,0.000021,0.697044,0.051993,0.715141,-0.330381,-0.590750,-0.565212
1309,988432775,-0.011430,0.698672,0.055030,0.713231,-0.166841,-0.733059,0.000911
1310,988466109,-0.022505,0.700966,0.056558,0.710592,0.309975,-0.223889,0.548291
1311,988499443,-0.035344,0.703642,0.058299,0.707276,0.095828,0.413539,0.271050
1312,988532777,-0.049631,0.705603,0.062161,0.704129,-0.033681,0.277382,0.061337
1313,988566111,-0.063877,0.707134,0.066925,0.701001,-0.115887,-0.455125,-0.001842
1314,988599445,-0.077738,0.709091,0.071452,0.697167,0.013669,-0.308383,0.050366
1315,988632779,-0.090881,0.711160,0.075728,0.693006,0.028116,-0.213993,0.239249
1316,988666113,-0.102237,0.712432,0.079583,0.689677,0.092188,-0.190611,0.130755
1317,988699447,-0.112620,0.713193,0.083272,0.686832,-0.222152,-0.150702,-0.106145
1318,988732781,-0.121632,0.714578,0.086214,0.683485,-0.109957,-0.185555,0.080866
1319,988766115,-0.127693,0.716776,0.087102,0.679956,-0.290141,0.150162,0.241756
1320,988799449,-0.132771,0.718953,0.087309,0.676650,-0.002764,0.118389,0.294275
1321,988832783,-0.136245,0.721176,0.086911,0.673638,-0.085377,0.006266,0.136480
1322,988866117,-0.139248,0.723517,0.087008,0.670494,-0.087740,0.430479,0.115194
1323,988899451,-0.142656,0.725879,0.087482,0.667155,-0.427861,0.841811,0.256079
1324,988932785,-0.146864,0.728133,0.088506,0.663641,-0.277495,0.023534,0.088709
1325,988966119,-0.150912,0.730436,0.090645,0.659903,0.595987,0.136904,0.017701
1326,988999453,-0.155408,0.731793,0.093756,0.656915,0.848370,0.441951,0.489287
1327,989032787,-0.160044,0.731233,0.097106,0.655939,0.640937,0.516902,0.550733
1328,989066121,-0.164336,0.729070,0.100148,0.656827,0.664521,0.394596,0.421172
1329,989099455,-0.167595,0.726306,0.102437,0.658710,0.220157,0.092721,0.206594
1330,989132789,-0.169349,0.723829,0.104011,0.660737,-0.176469,0.328729,0.018825
1331,989166123,-0.171546,0.721792,0.106604,0.661985,-0.664644,0.877541,0.100810
1332,989199457,-0.176267,0.719490,0.111950,0.662368,-0.590626,0.493513,0.167122
1333,989232791,-0.182240,0.717408,0.119223,0.661740,-0.135351,-0.206030,0.111422
1334,989266125,-0.186705,0.716099,0.125341,0.660782,0.023980,0.081353,0.274092
1335,989299459,-0.189903,0.714874,0.130235,0.660250,0.182275,-0.139016,0.204488
1336,989332793,-0.190894,0.713961,0.133296,0.660342,0.067062,-0.016204,0.239003
1337,989366127,-0.190700,0.713076,0.135339,0.660938,0.029743,0.089467,0.221493
1338,989399461,-0.189999,0.712259,0.137245,0.661628,0.046037,0.618182,0.161052
1339,989432795,-0.189892,0.711395,0.140371,0.661932,-0.081810,0.718964,0.201180
1340,989466129,-0.190293,0.710479,0.144991,0.661805,0.205124,0.543828,0.256063
1341,989499463,-0.190119,0.709268,0.149501,0.662151,0.357405,0.287198,0.240553
1342,989532797,-0.188953,0.707859,0.153333,0.663114,0.132118,-0.157737,0.162595
1343,989566131,-0.186139,0.706712,0.155698,0.664581,-0.370028,-0.041032,0.143395
1344,989599465,-0.182989,0.705451,0.157841,0.666288,-0.363129,0.131925,0.088564
1345,989632799,-0.179038,0.704073,0.159522,0.668416,-0.279514,0.132218,0.223719
1346,989666133,-0.173989,0.702556,0.160201,0.671177,0.149006,-0.272344,0.170956
1347,989699467,-0.166571,0.701334,0.159192,0.674569,0.491485,-0.221148,0.167564
1348,989732801,-0.157515,0.700046,0.156956,0.678594,0.279819,0.134700,0.227870
1349,989766135,-0.147916,0.697947,0.154629,0.683433,0.233259,-0.173183,0.297400
1350,989799469,-0.137077,0.695240,0.151359,0.689161,0.349159,-0.299894,0.206259
1351,989832803,-0.124693,0.691744,0.146447,0.696057,0.063794,-0.127442,0.210322
1352,989866137,-0.111293,0.687473,0.140496,0.703743,-0.264318,-0.496373,0.013216
1353,989899471,-0.097310,0.684065,0.133661,0.710437,-0.003858,-0.368636,0.098684
1354,989932805,-0.083724,0.681553,0.126922,0.715798,-0.503386,-0.293233,0.119891
1355,989966139,-0.071377,0.679934,0.120159,0.719831,-0.451684,-0.213471,0.027311
1356,989999473,-0.061860,0.679742,0.115747,0.721614,-0.431185,0.086403,0.012263
1357,990032807,-0.055088,0.679975,0.113766,0.722258,-0.106735,-0.116594,0.130774
1358,990066141,-0.049424,0.680188,0.112354,0.722688,0.221463,-0.396913,0.144220
1359,990099475,-0.044241,0.680854,0.110638,0.722661,0.256578,-0.531860,0.039266
1360,990132809,-0.039119,0.681919,0.108298,0.722308,0.340022,-0.437724,0.103640
1361,990166143,-0.033796,0.682753,0.105304,0.722230,0.478553,-0.236452,0.185498
1362,990199477,-0.028503,0.683170,0.102055,0.722532,0.517463,-0.202309,0.289381
1363,990232811,-0.023801,0.683058,0.099315,0.723189,0.294140,-0.019938,0.234689
1364,990266145,-0.019759,0.682542,0.097078,0.724100,0.030180,0.143392,0.195789
1365,990299479,-0.015895,0.682021,0.094854,0.724981,-0.022478,-0.268001,0.039853
1366,990332813,-0.011566,0.681613,0.091656,0.725857,0.109791,-0.389433,0.055174
1367,990366147,-0.007694,0.681298,0.088139,0.726640,0.179048,-0.119614,0.304767
1368,990399481,-0.004779,0.680859,0.085454,0.727397,0.186260,-0.005920,0.358356
1369,990432815,-0.002973,0.680076,0.084050,0.728302,-0.131413,-0.222529,0.343040
1370,990466149,-0.001636,0.679180,0.083110,0.729249,-0.415059,-0.256327,0.043598
1371,990499483,-0.000205,0.678717,0.081815,0.729828,-0.465249,-0.206044,-0.060397
1372,990532817,0.001306,0.678786,0.080088,0.729955,-0.224729,-0.144066,0.221199
1373,990566151,0.002178,0.679054,0.078910,0.729831,-0.058645,0.050854,0.276875
1374,990599485,0.002279,0.679015,0.078624,0.729898,0.101326,0.050639,0.209340
1375,990632819,0.002203,0.678746,0.078539,0.730158,-0.061824,-0.151468,0.208320
1376,990666153,0.002401,0.678716,0.078001,0.730243,-0.172797,-0.080667,0.129646
1377,990699487,0.002866,0.679036,0.077076,0.730042,-0.092625,0.012065,0.118835
1378,990732821,0.003452,0.679484,0.076102,0.729725,-0.006349,0.045826,0.169574
1379,990766155,0.003829,0.679793,0.075607,0.729487,0.070604,0.171819,0.120419
1380,990799489,0.003567,0.680026,0.076044,0.729225,0.051361,0.290702,0.226583
1381,990832823,0.002712,0.680453,0.077191,0.728710,0.008029,0.259884,0.084543
1382,990866157,0.001262,0.681068,0.078920,0.727954,-0.054572,0.164282,0.114259
1383,990899491,-0.001004,0.681870,0.081518,0.726916,-0.301682,0.092374,0.154521
1384,990932825,-0.003971,0.683139,0.084978,0.725317,-0.318069,0.094367,0.112790
1385,990966159,-0.006795,0.685011,0.088293,0.723131,-0.150381,-0.019738,-0.010185
1386,990999493,-0.009255,0.687356,0.091223,0.720510,0.166627,0.009940,0.048421
1387,991032827,-0.012051,0.689607,0.094297,0.717917,0.327238,0.060426,0.162864
1388,991066161,-0.014623,0.691349,0.096845,0.715852,0.472039,0.039949,0.258745
1389,991099495,-0.015930,0.692453,0.097882,0.714615,0.568832,-0.084757,0.332323
1390,991132829,-0.016200,0.692895,0.097980,0.714167,0.519229,-0.190986,0.374073
1391,991166163,-0.016017,0.692962,0.097898,0.714117,0.363421,-0.230799,0.330259
1392,991199497,-0.015514,0.693065,0.097513,0.714080,0.207820,-0.121604,0.147208
1393,991232831,-0.014997,0.693343,0.096954,0.713898,0.154727,0.072181,0.056968
1394,991266165,-0.014262,0.693663,0.096100,0.713718,0.151004,0.028352,0.131923
1395,991299499,-0.013324,0.694055,0.095015,0.713500,0.098092,-0.036836,0.181589
1396,991332833,-0.012761,0.694334,0.094243,0.713342,0.030093,-0.006178,0.106757
1397,991366167,-0.012484,0.694423,0.093646,0.713338,-0.012213,-0.034771,0.188954
1398,991399501,-0.011791,0.694477,0.092505,0.713446,-0.001317,-0.145246,0.157110
1399,991432835,-0.010600,0.694719,0.090658,0.713467,-0.078494,-0.148987,0.072492
1400,991466169,-0.009311,0.694922,0.088462,0.713562,0.004545,-0.123091,0.131044
1401,991499503,-0.008103,0.695173,0.086239,0.713604,0.027741,-0.143613,0.266647
1402,991532837,-0.006716,0.695620,0.083760,0.713479,0.056411,-0.126734,0.237542
1403,991566171,-0.005222,0.696169,0.081092,0.713264,0.049470,-0.083109,0.118314
1404,991599505,-0.003695,0.696697,0.078355,0.713064,0.106038,-0.035710,0.141725
1405,991632839,-0.002003,0.697072,0.075429,0.713020,0.116511,-0.073193,0.203964
1406,991666173,0.000406,0.697206,0.071798,0.713267,0.116541,-0.139922,0.285360
1407,991699507,0.003815,0.697009,0.067205,0.713896,0.109291,-0.180088,0.263711
1408,991732841,0.007664,0.696559,0.062141,0.714763,0.048544,-0.153915,0.237430
1409,991766175,0.012004,0.695989,0.056585,0.715719,-0.014008,-0.054236,0.207846
1410,991799509,0.016189,0.695271,0.051261,0.716734,-0.091707,0.035629,0.165694
1411,991832843,0.019823,0.694568,0.046593,0.717643,-0.110165,0.187799,0.137582
1412,991866177,0.022914,0.693929,0.042627,0.718415,-0.141663,0.214113,0.116030
1413,991899511,0.025199,0.693593,0.039577,0.718837,-0.136794,0.307433,0.065597
1414,991932845,0.026351,0.693461,0.037766,0.719021,-0.096287,0.285845,0.079615
1415,991966179,0.026651,0.693394,0.036962,0.719117,-0.082070,0.192526,0.109981
1416,991999513,0.026601,0.693217,0.036623,0.719307,-0.061074,0.107590,0.204199
1417,992032847,0.026499,0.693043,0.036460,0.719486,0.086665,0.079603,0.128570
1418,992066181,0.026162,0.693076,0.036594,0.719460,0.189579,0.135920,0.105094
1419,992099515,0.025406,0.693147,0.037191,0.719388,0.246066,0.142707,0.201738
1420,992132849,0.024246,0.693174,0.038451,0.719336,0.329888,0.179057,0.181952
1421,992166183,0.022066,0.693153,0.040934,0.719289,0.386640,0.207938,0.179744
1422,992199517,0.018811,0.692960,0.044738,0.719341,0.398793,0.198790,0.233713
1423,992232851,0.014805,0.692494,0.049467,0.719573,0.250779,0.089666,0.211543
1424,992266185,0.009866,0.691591,0.055000,0.720125,0.266032,0.048827,0.183175
1425,992299519,0.004046,0.690470,0.061551,0.720727,0.254557,-0.019621,0.300982
1426,992332853,-0.001835,0.689435,0.068707,0.721079,0.031988,-0.136463,0.161095
1427,992366187,-0.007199,0.688787,0.075728,0.720962,-0.216020,0.027539,0.065180
1428,992399521,-0.012028,0.688517,0.082408,0.720422,-0.234027,0.217841,-0.094379
1429,992432855,-0.016295,0.688386,0.088433,0.719749,-0.018753,0.370450,-0.054773
1430,992466189,-0.020718,0.688002,0.094017,0.719295,-0.018792,0.341885,0.173868
1431,992499523,-0.025714,0.687242,0.099593,0.719110,-0.071039,0.101518,0.272959
1432,992532857,-0.030952,0.686286,0.104669,0.719095,0.112783,-0.187228,0.058945
1433,992566191,-0.036291,0.685265,0.109363,0.719121,0.255933,-0.315213,0.280177
1434,992599525,-0.042441,0.684187,0.115254,0.718891,-0.205952,-0.588812,0.566690
1435,992632859,-0.047936,0.683600,0.121183,0.718129,-0.409151,-0.719054,0.280206
1436,992666193,-0.051332,0.684072,0.124629,0.716853,-0.306905,-0.492516,-0.091607
1437,992699527,-0.053541,0.685429,0.126588,0.715049,-0.226675,-0.046895,0.225025
1438,992732861,-0.056058,0.686879,0.128662,0.713092,-0.055107,0.162520,0.196708
1439,992766195,-0.058580,0.688157,0.130490,0.711323,0.245828,0.377156,0.014670
1440,992799529,-0.061223,0.689075,0.132322,0.709872,0.583353,0.304116,0.092969
1441,992832863,-0.063332,0.690331,0.134218,0.708109,0.691446,0.019811,0.122782
1442,992866197,-0.064019,0.692079,0.135327,0.706127,0.777800,0.081155,0.050902
1443,992899531,-0.062404,0.694279,0.134412,0.704284,0.396717,0.137741,0.031824
1444,992932865,-0.058989,0.696459,0.131805,0.702917,0.310016,0.300290,0.157997
1445,992966199,-0.055220,0.698414,0.128703,0.701858,-0.032035,0.184286,0.069848
1446,992999533,-0.051064,0.699662,0.125149,0.701572,-0.227384,-0.140411,0.173390
1447,993032867,-0.046473,0.700348,0.121541,0.701841,-0.501206,-0.270850,0.274308
1448,993066201,-0.041336,0.700700,0.117623,0.702478,-0.938555,-0.233164,0.136430
1449,993099535,-0.036650,0.700962,0.114318,0.703022,-0.930610,-0.021319,0.274285
1450,993132869,-0.033193,0.701219,0.112163,0.703285,-0.816753,0.047039,0.363952
1451,993166203,-0.030921,0.701363,0.110870,0.703450,-0.780096,0.039611,0.289081
1452,993199537,-0.029161,0.701453,0.110015,0.703570,-0.353930,-0.022070,0.236382
1453,993232871,-0.026658,0.701749,0.108839,0.703556,-0.006819,0.114489,0.259021
1454,993266205,-0.023547,0.702020,0.107303,0.703633,0.155723,0.202196,0.113622
1455,993299539,-0.020461,0.702084,0.105708,0.703907,0.285131,0.248990,-0.032497
1456,993332873,-0.017617,0.701793,0.103990,0.704530,0.231387,0.178615,0.115392
1457,993366207,-0.015731,0.701113,0.102903,0.705411,0.193720,0.039869,0.293292
1458,993399541,-0.014790,0.700288,0.102959,0.706242,0.134075,-0.175123,0.236715
1459,993432875,-0.013512,0.699435,0.102803,0.707135,-0.022487,-0.354722,0.294532
1460,993466209,-0.010892,0.698604,0.101130,0.708242,-0.222507,-0.417522,0.293013
1461,993499543,-0.007294,0.697893,0.097937,0.709437,-0.264867,-0.356520,0.232317
1462,993532877,-0.003111,0.697534,0.093880,0.710368,-0.190845,-0.250567,0.085199
1463,993566211,0.001313,0.697678,0.089524,0.710794,0.099552,-0.020945,0.123693
1464,993599545,0.004753,0.698047,0.086108,0.710840,0.403044,0.067154,0.206603
1465,993632879,0.006333,0.698300,0.084318,0.710794,0.311564,0.053077,0.210346
1466,993666213,0.006742,0.698512,0.083323,0.710699,0.287825,-0.043976,0.170231
1467,993699547,0.006685,0.698906,0.082622,0.710394,0.233573,-0.146318,0.099992
1468,993732881,0.006509,0.699498,0.081869,0.709900,0.188097,-0.203276,0.121232
1469,993766215,0.006210,0.700080,0.081035,0.709424,0.155796,-0.155997,0.106078
1470,993799549,0.006113,0.700608,0.079829,0.709040,0.164008,-0.092323,0.102970
1471,993832883,0.006478,0.700963,0.078042,0.708885,0.231455,-0.042225,0.225514
1472,993866217,0.007247,0.700959,0.075816,0.709123,0.092143,-0.147659,0.313506
1473,993899551,0.008508,0.700596,0.072974,0.709767,-0.093616,-0.201766,0.233745
1474,993932885,0.010616,0.700018,0.069296,0.710676,-0.298377,-0.233542,0.196758
1475,993966219,0.013141,0.699457,0.065213,0.711572,-0.370371,-0.088268,0.170654
1476,993999553,0.016037,0.699250,0.060877,0.712100,-0.238649,0.153039,0.141762
1477,994032887,0.017990,0.699506,0.057516,0.712081,-0.057363,0.286847,0.072989
1478,994066221,0.019028,0.699987,0.055141,0.711770,0.160148,0.377386,0.022275
1479,994099555,0.018910,0.700530,0.053971,0.711329,0.360231,0.332279,0.150922
1480,994132889,0.017777,0.700828,0.054015,0.711061,0.388530,0.223691,0.183803
1481,994166223,0.016697,0.700844,0.054363,0.711044,0.114247,0.068906,0.165357
1482,994199557,0.015758,0.700659,0.054725,0.711220,-0.095241,0.049335,0.176561
1483,994232891,0.015011,0.700229,0.054785,0.711655,-0.348479,-0.081166,0.231843
1484,994266225,0.014766,0.699831,0.054185,0.712097,-0.416147,-0.007256,0.168087
1485,994299559,0.014816,0.699373,0.053236,0.712617,-0.260316,0.135755,0.161106
1486,994332893,0.015034,0.698819,0.052211,0.713232,-0.168854,0.098872,0.260848
1487,994366227,0.015308,0.698208,0.051367,0.713886,-0.138028,0.130804,0.197615
1488,994399561,0.015802,0.697503,0.050541,0.714623,-0.028284,0.056327,0.200678
1489,994432895,0.016699,0.696812,0.049325,0.715361,-0.164440,-0.029960,0.191649
1490,994466229,0.017345,0.696246,0.048134,0.715978,-0.076061,-0.043605,0.138973
1491,994499563,0.017715,0.695841,0.047054,0.716434,-0.084639,-0.079579,0.259885
1492,994532897,0.017777,0.695488,0.046159,0.716833,-0.177488,-0.199609,0.257518
1493,994566231,0.017474,0.695184,0.045359,0.717187,-0.104075,-0.276383,0.184226
1494,994599565,0.017005,0.694787,0.044520,0.717635,0.078916,-0.263586,0.215483
1495,994632899,0.016532,0.694095,0.043657,0.718369,0.289333,-0.238109,0.127672
1496,994666233,0.016698,0.692792,0.042108,0.719714,0.685987,-0.101878,0.177377
1497,994699567,0.017124,0.690389,0.040281,0.722114,0.386490,-0.127401,0.354198
1498,994732901,0.016233,0.687507,0.039371,0.724928,-0.273098,0.065016,0.049176
1499,994766235,0.013359,0.685562,0.039515,0.726819,-0.333990,0.379069,-0.083074
1500,994799569,0.007288,0.685018,0.042361,0.727257,-0.183771,0.299232,-0.019036
1501,994832903,0.000149,0.685379,0.046314,0.726712,0.089421,-0.090160,0.169772
1502,994866237,-0.007230,0.686336,0.050019,0.725527,0.375794,-0.221854,0.324138
1503,994899571,-0.015443,0.687727,0.053734,0.723813,0.317434,-0.314073,0.155087
1504,994932905,-0.023542,0.689402,0.057024,0.721747,0.197197,-0.402354,-0.004464
1505,994966239,-0.030966,0.691486,0.059763,0.719247,0.314543,-0.261446,0.042571
1506,994999573,-0.038093,0.694309,0.062048,0.715985,0.262704,0.105154,0.110077
1507,995032907,-0.046659,0.697353,0.065392,0.712212,0.209153,0.153709,0.185318
1508,995066241,-0.056009,0.700268,0.069486,0.708280,0.078272,-0.022225,0.193988
1509,995099575,-0.064909,0.703203,0.073146,0.704232,-0.220256,-0.258206,0.262957
1510,995132909,-0.071965,0.705820,0.075028,0.700721,-0.251497,-0.563191,0.169801
1511,995166243,-0.076977,0.708450,0.074686,0.697564,-0.286138,-0.424193,0.228873
