sep=,
DeviceTag:,R_Wrist
FirmwareVersion:,2.2.1
AppVersion:,2023.6.0
SyncStatus:,Synced
OutputRate:,30Hz
FilterProfile:,General
Measurement Mode:,Sensor fusion Mode - Complete(Quaternion)
StartTime: ,2026-09-07_15:10:55_802 AEST
© Movella Technologies B. V. 2005-2026

PacketCounter,SampleTimeFine,Quat_W,Quat_X,Quat_Y,Quat_Z,FreeAcc_X,FreeAcc_Y,FreeAcc_Z
1,944238863,0.928612,-0.285698,-0.164138,-0.170654,0.539467,-0.233030,-0.015159
2,944272197,0.928726,-0.289350,-0.156009,-0.171503,0.746019,-0.109082,-0.178815
3,944305531,0.927393,-0.297563,-0.145648,-0.173763,0.828620,-0.031278,-0.638991
4,944338865,0.923882,-0.310978,-0.135497,-0.177153,0.012133,-0.163631,-0.218447
5,944372199,0.920183,-0.322946,-0.127564,-0.180844,-0.020864,-0.175727,0.075732
6,944405533,0.917382,-0.330823,-0.122333,-0.184418,-0.367472,-0.148698,0.094954
7,944438867,0.915083,-0.336227,-0.119314,-0.188006,-0.327999,-0.035150,0.249518
8,944472201,0.912938,-0.340856,-0.116980,-0.191536,-0.199442,-0.170086,0.203514
9,944505535,0.910550,-0.346248,-0.115051,-0.194376,-0.407705,-0.097931,0.172273
10,944538869,0.908077,-0.352073,-0.113978,-0.196109,-0.351196,-0.275794,0.398928
11,944572203,0.906033,-0.357106,-0.113802,-0.196565,-0.260816,-0.407889,0.397740
12,944605537,0.904870,-0.360384,-0.115213,-0.195108,-0.370258,-0.096282,0.453125
13,944638871,0.904647,-0.361792,-0.117424,-0.192197,-0.101072,-0.169914,0.550954
14,944672205,0.904698,-0.362861,-0.119564,-0.188591,-0.036642,-0.233155,0.435859
15,944705539,0.904709,-0.364388,-0.121939,-0.184017,0.049000,-0.110998,0.347201
16,944738873,0.904754,-0.366070,-0.124873,-0.178403,-0.022617,0.160588,0.730851
17,944772207,0.906560,-0.363415,-0.129656,-0.171101,-0.230052,-0.176831,1.031321
18,944805541,0.910859,-0.354384,-0.136086,-0.161979,-0.305941,0.032074,0.664276
19,944838875,0.916597,-0.340663,-0.143602,-0.152269,0.117383,0.126632,0.219583
20,944872209,0.921089,-0.329637,-0.149532,-0.143469,0.211812,0.719899,0.207796
21,944905543,0.923801,-0.323681,-0.152442,-0.136351,-0.030441,0.892842,0.667702
22,944938877,0.926169,-0.319626,-0.152006,-0.130201,-0.332949,0.794106,1.060739
23,944972211,0.928649,-0.316387,-0.148432,-0.124447,-0.883106,1.391026,1.011147
24,945005545,0.930489,-0.316429,-0.140368,-0.119869,-1.150144,2.247581,0.797880
25,945038879,0.930547,-0.322540,-0.126829,-0.118207,-1.757587,2.297477,0.744041
26,945072213,0.929746,-0.330750,-0.109084,-0.119522,-1.957459,1.530713,0.562627
27,945105547,0.928725,-0.338120,-0.089151,-0.123310,-2.331812,0.954590,0.053593
28,945138881,0.928626,-0.340819,-0.070560,-0.128553,-2.223132,0.434906,-0.549636
29,945172215,0.927450,-0.344217,-0.054332,-0.135678,-1.907794,0.725945,-1.769074
30,945205549,0.921538,-0.357403,-0.041157,-0.146098,-1.896995,0.791039,-2.307683
31,945238883,0.910101,-0.381394,-0.030775,-0.159108,-1.192173,-0.395401,-1.796600
32,945272217,0.894175,-0.412135,-0.022868,-0.173437,-0.956778,-0.868871,-0.580783
33,945305551,0.877886,-0.439605,-0.019154,-0.188958,-0.186005,-1.143737,-0.596327
34,945338885,0.858221,-0.470097,-0.017636,-0.205337,0.966478,-1.140553,-1.728127
35,945372219,0.827553,-0.515501,-0.014500,-0.221840,1.746514,-1.385554,-0.860965
36,945405553,0.799613,-0.551391,-0.014354,-0.237467,1.643590,-1.436679,2.259155
37,945438887,0.791678,-0.557468,-0.023740,-0.248840,1.558230,-1.648620,1.364573
38,945472221,0.797849,-0.545753,-0.041712,-0.252702,2.057466,-1.327156,0.546053
39,945505555,0.808901,-0.529114,-0.062396,-0.248663,2.549775,-0.948893,0.016404
40,945538889,0.818246,-0.517638,-0.079792,-0.236996,3.016136,-1.002673,-0.259979
41,945572223,0.822945,-0.516026,-0.091996,-0.219144,2.952789,-0.651118,0.191685
42,945605557,0.827028,-0.517101,-0.101740,-0.195672,2.786751,-0.797525,1.259260
43,945638891,0.833401,-0.515310,-0.109910,-0.166813,3.364879,-0.594318,1.028431
44,945672225,0.838942,-0.514180,-0.115518,-0.135865,3.307628,0.075379,1.264615
45,945705559,0.843797,-0.512665,-0.117897,-0.106259,3.128678,0.303605,0.986744
46,945738893,0.850242,-0.506995,-0.116741,-0.080152,2.733269,0.162814,1.450614
47,945772227,0.860595,-0.493561,-0.111186,-0.058479,3.109818,0.311956,0.663314
48,945805561,0.868178,-0.483997,-0.100024,-0.044917,2.446682,1.003207,-0.478380
49,945838895,0.873275,-0.477989,-0.085066,-0.041102,2.011615,0.196026,-0.165917
50,945872229,0.879008,-0.469332,-0.069012,-0.048152,1.407224,-0.301557,-0.808193
51,945905563,0.885720,-0.456307,-0.054996,-0.065335,0.320100,-0.020915,-0.981077
52,945938897,0.892599,-0.438816,-0.045199,-0.093126,0.103835,-0.148213,-1.521470
53,945972231,0.895948,-0.422379,-0.039913,-0.131489,-0.276781,-0.270986,-1.790004
54,946005565,0.894433,-0.408311,-0.039370,-0.178127,-0.746907,-0.584177,-1.480409
55,946038899,0.886918,-0.397526,-0.043438,-0.231238,-0.831020,-0.362711,-2.282634
56,946072233,0.872198,-0.391637,-0.051850,-0.288463,-1.626293,-0.547696,-2.241434
57,946105567,0.851049,-0.388254,-0.069077,-0.346714,-1.944536,0.103168,-4.382399
58,946138901,0.820308,-0.392282,-0.095454,-0.405100,-1.653707,-0.414822,-0.843324
59,946172235,0.798956,-0.369557,-0.132453,-0.455588,-4.556969,-0.583373,6.077432
60,946205569,0.776563,-0.353607,-0.164507,-0.494830,-1.263509,0.619303,-1.060194
61,946238903,0.739810,-0.379434,-0.165158,-0.530511,-4.037601,-0.597484,3.466966
62,946272237,0.708603,-0.404431,-0.157035,-0.556476,-4.723279,-0.001773,3.608191
63,946305571,0.690904,-0.417786,-0.149248,-0.570824,-4.218999,0.501250,3.042080
64,946338905,0.688308,-0.420032,-0.142151,-0.574114,-4.586918,0.665286,3.352929
65,946372239,0.695896,-0.417258,-0.133258,-0.569100,-3.288051,0.840525,1.647626
66,946405573,0.708026,-0.416059,-0.119414,-0.557982,-2.907418,1.058846,1.281353
67,946438907,0.723890,-0.415428,-0.102410,-0.541224,-2.854987,0.484144,1.337196
68,946472241,0.742933,-0.414424,-0.084062,-0.518889,-2.509161,0.244522,0.941308
69,946505575,0.764980,-0.411628,-0.066331,-0.490893,-2.546482,-0.174317,1.328943
70,946538909,0.789331,-0.406407,-0.050213,-0.457468,-1.770431,-0.546290,0.534702
71,946572243,0.813568,-0.401358,-0.034947,-0.419292,-1.846457,-0.765352,0.301558
72,946605577,0.838195,-0.393614,-0.022472,-0.376829,-1.680266,-1.231177,0.215140
73,946638911,0.860987,-0.385381,-0.012261,-0.331725,-1.446054,-0.860861,-0.989538
74,946672245,0.876749,-0.387432,-0.001359,-0.284980,-1.492341,-0.777818,-1.564789
75,946705579,0.885325,-0.400021,0.008060,-0.236908,-1.771356,-1.108971,-0.745822
76,946738913,0.888743,-0.417564,0.013797,-0.188662,-2.026651,-1.531353,-1.155529
77,946772247,0.886364,-0.440609,0.015903,-0.141342,-1.719947,-2.415029,-0.887663
78,946805581,0.880660,-0.463968,0.013022,-0.094930,-1.106450,-3.441827,-0.080564
79,946838915,0.870151,-0.490071,0.005879,-0.051400,-0.375998,-2.001321,-1.162267
80,946872249,0.849769,-0.526918,-0.004429,-0.015483,0.196516,-1.212436,-2.344505
81,946905583,0.818319,-0.574346,-0.020345,0.008691,0.614271,-1.612387,-2.158927
82,946938917,0.790164,-0.610916,-0.043429,0.023361,1.352495,-1.686841,2.216806
83,946972251,0.789083,-0.609496,-0.068748,0.033829,1.595318,-0.972054,1.554858
84,947005585,0.793718,-0.599468,-0.094874,0.040700,1.971902,-0.024890,-1.036169
85,947038919,0.794297,-0.593590,-0.122337,0.042255,2.505310,0.131212,-0.405275
86,947072253,0.799789,-0.579769,-0.150025,0.041310,3.148054,0.290346,0.096601
87,947105587,0.813969,-0.552013,-0.176450,0.040129,3.309084,1.039245,0.388049
88,947138921,0.833978,-0.512652,-0.200357,0.039177,3.893604,1.578663,-0.496903
89,947172255,0.850039,-0.476552,-0.221234,0.037371,4.169636,2.017664,-0.993930
90,947205589,0.856279,-0.457238,-0.237701,0.035020,4.635433,2.539337,-0.686506
91,947238923,0.851367,-0.461056,-0.247921,0.033830,4.145111,2.114385,-0.313248
92,947272257,0.840672,-0.476653,-0.254159,0.038538,2.955927,1.600738,1.351976
93,947305591,0.831259,-0.490370,-0.256641,0.051866,3.174302,1.931000,2.313855
94,947338925,0.821009,-0.505213,-0.256320,0.070799,2.899653,1.627986,0.816957
95,947372259,0.806711,-0.524597,-0.256471,0.090809,2.407561,1.052535,0.966011
96,947405593,0.782557,-0.557073,-0.256388,0.107462,2.250123,1.113424,1.676732
97,947438927,0.764632,-0.580039,-0.252334,0.123405,0.750811,1.195067,1.819342
98,947472261,0.755759,-0.591996,-0.244582,0.136224,-0.160586,1.182911,-0.171239
99,947505595,0.747239,-0.605385,-0.235590,0.140177,-0.071525,1.150946,-1.385742
100,947538929,0.738109,-0.622366,-0.223004,0.134657,0.158147,1.709279,0.144348
101,947572263,0.732980,-0.637184,-0.204415,0.122311,1.155440,1.757935,0.862896
102,947605597,0.735653,-0.644419,-0.180021,0.105544,1.863965,1.898622,0.471133
103,947638931,0.742456,-0.647040,-0.151324,0.084892,3.022360,1.488717,0.508977
104,947672265,0.748171,-0.649947,-0.120369,0.057696,3.045933,0.938522,-0.476642
105,947705599,0.755262,-0.648888,-0.089150,0.024182,2.635186,-0.787012,0.107347
106,947738933,0.762250,-0.644260,-0.060590,-0.015533,1.714034,-1.186650,-0.926309
107,947772267,0.766312,-0.638477,-0.035867,-0.061926,0.453919,-1.396412,-1.635292
108,947805601,0.766832,-0.631762,-0.014835,-0.112404,-0.178216,-1.687841,-0.287223
109,947838935,0.768113,-0.618508,0.001389,-0.165700,-0.656956,-1.259450,-0.540266
110,947872269,0.769775,-0.598757,0.012093,-0.220905,-0.957057,-1.319779,-0.917434
111,947905603,0.768241,-0.576750,0.018013,-0.277218,-1.127479,-0.739858,-1.676003
112,947938937,0.761274,-0.554710,0.018005,-0.335326,-1.188869,-0.215882,-3.551868
113,947972271,0.747292,-0.534298,0.010402,-0.394943,-1.424473,0.042338,-3.027596
114,948005605,0.728800,-0.513807,-0.005160,-0.452586,-2.641765,-0.082863,-1.106736
115,948038939,0.701422,-0.504333,-0.023819,-0.503087,-2.548692,0.110544,-0.304173
116,948072273,0.674232,-0.496733,-0.042349,-0.544869,-5.132176,1.213591,6.024967
117,948105607,0.666741,-0.470549,-0.074645,-0.573129,-5.751329,0.346696,3.472412
118,948138941,0.660894,-0.458655,-0.090508,-0.587087,-4.679207,-1.760844,3.763669
119,948172275,0.662686,-0.459130,-0.084500,-0.585590,-5.614369,-0.310471,4.355274
120,948205609,0.679156,-0.458000,-0.072715,-0.568951,-5.488721,0.251004,2.901755
121,948238943,0.706495,-0.453098,-0.060028,-0.540344,-5.010822,-0.477638,2.502076
122,948272277,0.739117,-0.447513,-0.043356,-0.501564,-4.067643,-0.232287,1.369852
123,948305611,0.770371,-0.445492,-0.020380,-0.455695,-3.049823,-0.021740,-0.019172
124,948338945,0.793466,-0.454438,0.011410,-0.404691,-2.510402,0.237816,-1.257538
125,948372279,0.802582,-0.480768,0.047816,-0.349924,-1.915534,1.329925,-2.887246
126,948405613,0.790708,-0.530236,0.085656,-0.293773,-2.162877,1.565281,-3.275825
127,948438947,0.774245,-0.574656,0.108205,-0.242108,-3.547495,0.029046,1.617979
128,948472281,0.789291,-0.570568,0.100973,-0.203186,-1.575817,-0.342803,2.264576
129,948505615,0.825107,-0.529475,0.080065,-0.180147,0.676678,2.032367,-3.722090
130,948538949,0.843749,-0.505000,0.063694,-0.170334,0.962503,1.789451,-4.674533
131,948572283,0.831247,-0.525708,0.055658,-0.171960,2.070671,0.102020,-3.747622
132,948605617,0.803894,-0.563553,0.044923,-0.184803,2.383522,-2.398876,0.058474
133,948638951,0.790121,-0.576430,0.022300,-0.207241,4.856175,-2.466270,0.026544
134,948672285,0.778390,-0.583611,-0.000861,-0.231331,6.421663,-1.961435,1.538218
135,948705619,0.781911,-0.568369,-0.028284,-0.254520,5.565585,-1.623268,2.108711
136,948738953,0.797333,-0.537459,-0.056771,-0.268671,5.406927,-1.347245,0.301628
137,948772287,0.806051,-0.521594,-0.074515,-0.269588,5.490048,-1.154695,0.169550
138,948805621,0.807107,-0.525074,-0.079303,-0.258061,5.334344,-0.711107,0.193671
139,948838955,0.803183,-0.542105,-0.073450,-0.235867,4.447618,-1.397940,2.633818
140,948872289,0.806354,-0.550233,-0.066411,-0.206481,3.818438,-0.707489,3.244682
141,948905623,0.807263,-0.559896,-0.054157,-0.178658,3.328569,0.202896,0.583182
142,948938957,0.796934,-0.582420,-0.034590,-0.156511,1.276065,0.107334,0.820211
143,948972291,0.787702,-0.599744,-0.014497,-0.140109,-0.136668,1.696543,0.912274
144,949005625,0.784535,-0.605674,0.006912,-0.132755,0.654585,1.269521,-0.386568
145,949038959,0.782400,-0.607092,0.029656,-0.135715,0.612993,0.500761,-1.164401
146,949072293,0.777918,-0.608739,0.051782,-0.146997,0.500049,1.133723,-1.656028
147,949105627,0.769031,-0.612554,0.074226,-0.166937,0.831243,0.724756,-2.308560
148,949138961,0.761149,-0.610394,0.095332,-0.197462,0.367231,0.433980,-0.803940
149,949172295,0.756374,-0.598755,0.112009,-0.238438,0.344767,0.757397,-2.271237
150,949205629,0.740809,-0.594107,0.129480,-0.285450,-0.421660,-0.016151,-1.487974
151,949238963,0.725147,-0.584019,0.138601,-0.337463,-2.764125,0.327917,0.584908
152,949272297,0.720866,-0.555342,0.130087,-0.393743,-1.151665,1.473549,-0.641839
153,949305631,0.709017,-0.531967,0.119415,-0.447275,-2.243323,0.907459,-2.229493
154,949338965,0.685500,-0.522727,0.110720,-0.494567,-3.241760,0.508964,0.891950
155,949372299,0.666507,-0.510350,0.097083,-0.534691,-3.228640,0.101943,2.048700
156,949405633,0.649159,-0.502963,0.086864,-0.563988,-4.066837,0.657828,1.796888
157,949438967,0.639479,-0.495669,0.073928,-0.583029,-4.773905,0.738834,2.030163
158,949472301,0.639391,-0.486894,0.061268,-0.591919,-4.557104,0.911436,2.824227
159,949505635,0.646726,-0.480975,0.055988,-0.589307,-4.810155,0.703521,2.278522
160,949538969,0.663335,-0.474813,0.055723,-0.575711,-5.238291,0.259566,2.830774
161,949572303,0.690201,-0.464628,0.056807,-0.551837,-4.407648,0.479574,2.193322
162,949605637,0.719897,-0.457784,0.065639,-0.517574,-3.784415,0.497992,1.258813
163,949638971,0.747736,-0.456990,0.081047,-0.474858,-3.252225,0.846389,0.243711
164,949672305,0.771458,-0.461527,0.099115,-0.426649,-2.582581,1.103356,-0.790484
165,949705639,0.787429,-0.474708,0.117731,-0.375175,-2.313564,0.994566,-2.372921
166,949738973,0.787340,-0.507485,0.139906,-0.320920,-2.514656,0.376727,-2.822656
167,949772307,0.768092,-0.558980,0.160302,-0.268119,-3.033605,0.054401,-2.742288
168,949805641,0.740096,-0.611505,0.168768,-0.223259,-2.169346,-0.620504,-1.453233
169,949838975,0.715121,-0.651240,0.162810,-0.194909,-0.362434,-0.769168,-1.983162
170,949872309,0.689650,-0.684628,0.148142,-0.183658,1.734547,-2.107100,-2.187112
171,949905643,0.659185,-0.717351,0.126385,-0.186863,3.670168,-1.773099,-1.571814
172,949938977,0.632500,-0.740554,0.098605,-0.204470,5.922734,-0.789568,0.184549
173,949972311,0.637317,-0.731411,0.060211,-0.235050,6.053518,-0.365664,2.961273
174,950005645,0.657850,-0.704454,0.019169,-0.265740,7.309642,-3.671173,1.025998
175,950038979,0.659144,-0.697217,-0.005403,-0.281775,6.141405,-2.279820,0.904427
176,950072313,0.654329,-0.703155,-0.014422,-0.277899,5.315059,-0.740026,0.604834
177,950105647,0.641046,-0.722366,-0.014983,-0.258904,4.860017,-0.140844,1.166147
178,950138981,0.627868,-0.742636,-0.015825,-0.232447,3.515241,-0.099596,2.300013
179,950172315,0.625049,-0.752784,-0.021507,-0.205367,2.663708,-0.540462,2.041358
180,950205649,0.621058,-0.762430,-0.026401,-0.179719,1.715398,0.367957,0.612701
181,950238983,0.615406,-0.771582,-0.029898,-0.158278,0.762695,1.303354,1.095734
182,950272317,0.611243,-0.778087,-0.029381,-0.141798,1.364370,1.725261,0.707179
183,950305651,0.606930,-0.783508,-0.021033,-0.131596,1.538016,1.841114,0.175646
184,950338985,0.605002,-0.785605,-0.003244,-0.129599,1.578928,2.542685,0.035579
185,950372319,0.611482,-0.778986,0.021643,-0.137150,1.312751,1.252569,0.201768
186,950405653,0.629455,-0.760121,0.048400,-0.153844,1.664731,0.949910,-0.030392
187,950438987,0.648532,-0.735442,0.075369,-0.181271,1.535887,-0.112876,-2.269890
188,950472321,0.656785,-0.714963,0.102687,-0.216620,0.707715,-0.412110,-1.209269
189,950505655,0.659085,-0.694700,0.126711,-0.258751,0.341588,-0.287391,-1.186919
190,950538989,0.659246,-0.670881,0.144403,-0.307357,-0.741276,-0.109107,-1.663344
191,950572323,0.660452,-0.641165,0.150580,-0.360616,-1.520320,0.356524,-0.430207
192,950605657,0.663043,-0.604523,0.141977,-0.418064,-1.261837,0.739729,-1.634784
193,950638991,0.658462,-0.572399,0.122290,-0.473117,-3.196593,0.488678,-2.143505
194,950672325,0.643300,-0.548861,0.100376,-0.524261,-1.283588,2.804278,2.351148
195,950705659,0.637082,-0.513252,0.065093,-0.571376,-3.212182,1.661229,-0.008914
196,950738993,0.621090,-0.493288,0.038717,-0.607802,-3.964391,0.457570,-0.338835
197,950772327,0.604529,-0.481680,0.018330,-0.634193,-5.047806,0.945601,3.568290
198,950805661,0.599217,-0.471327,0.005827,-0.647120,-5.616868,0.277330,3.396564
199,950838995,0.606454,-0.465303,0.005279,-0.644738,-6.338460,0.821179,3.781389
200,950872329,0.631126,-0.452500,0.003555,-0.630016,-5.423857,1.219113,2.567847
201,950905663,0.666771,-0.434913,0.001059,-0.605207,-4.465552,0.483820,1.478889
202,950938997,0.705154,-0.419101,0.004631,-0.571926,-3.715333,-0.010824,0.772438
203,950972331,0.742736,-0.406539,0.013348,-0.531883,-3.021020,0.043039,0.245684
204,951005665,0.776832,-0.398953,0.026161,-0.486510,-2.348086,-0.095932,-0.365746
205,951038999,0.804633,-0.398883,0.042230,-0.437817,-1.616960,0.060230,-1.476952
206,951072333,0.825369,-0.406398,0.057093,-0.387757,-2.089608,-0.491375,-1.773101
207,951105667,0.841680,-0.416070,0.065890,-0.337827,-1.987281,-1.401152,-0.337997
208,951139001,0.858025,-0.418488,0.065200,-0.290549,-1.170936,-1.281833,-1.007692
209,951172335,0.870957,-0.421355,0.058691,-0.245882,-1.112204,-1.707800,-1.522412
210,951205669,0.881834,-0.422743,0.047031,-0.203601,-0.027417,-3.141147,0.117235
211,951239003,0.893108,-0.417393,0.031136,-0.164862,0.342160,-2.543199,-0.654679
212,951272337,0.900069,-0.415842,0.013718,-0.129501,0.734646,-1.350480,-1.990641
213,951305671,0.891975,-0.440986,-0.002132,-0.099578,1.277371,-0.728809,-3.686913
214,951339005,0.862942,-0.498756,-0.019152,-0.078835,1.798729,-1.264461,-3.071042
215,951372339,0.818786,-0.568196,-0.040459,-0.071508,2.784551,-1.126842,-1.846343
216,951405673,0.778815,-0.618776,-0.068139,-0.077000,3.072002,-0.420996,0.460135
217,951439007,0.773015,-0.619309,-0.105147,-0.088641,3.128409,0.219658,1.512796
218,951472341,0.794011,-0.582153,-0.145597,-0.097229,4.626066,-0.586514,0.935535
219,951505675,0.807938,-0.551482,-0.181761,-0.100378,4.888616,0.044697,0.689342
220,951539009,0.809409,-0.540730,-0.207292,-0.097506,5.142467,0.502634,0.316154
221,951572343,0.793535,-0.560487,-0.219181,-0.090142,4.336150,0.638924,0.617899
222,951605677,0.765501,-0.598169,-0.223785,-0.078298,2.839584,0.532841,2.323750
223,951639011,0.739990,-0.629803,-0.228881,-0.058186,2.661894,0.664753,3.010092
224,951672345,0.722600,-0.648587,-0.237337,-0.029393,2.787803,0.813625,2.674294
225,951705679,0.706665,-0.662863,-0.247419,0.005463,2.436232,1.387737,1.741378
226,951739013,0.689262,-0.675581,-0.258753,0.039550,2.123976,1.177013,0.548530
227,951772347,0.672294,-0.685895,-0.269328,0.070991,0.478444,1.892767,0.578998
228,951805681,0.657211,-0.694983,-0.275514,0.095778,-0.157811,0.941092,-1.303459
229,951839015,0.641532,-0.706426,-0.277251,0.111976,-0.484698,0.741861,-0.680613
230,951872349,0.630489,-0.715926,-0.274242,0.121376,-1.579049,1.416422,-0.819806
231,951905683,0.626241,-0.721734,-0.266532,0.126065,-0.285313,0.868959,0.379803
232,951939017,0.634999,-0.717629,-0.254842,0.129806,0.333298,1.782176,0.776945
233,951972351,0.661273,-0.698595,-0.239612,0.131442,0.931589,1.905505,-0.884421
234,952005685,0.693440,-0.673251,-0.223136,0.126857,1.681301,1.994514,-0.634053
235,952039019,0.734209,-0.635947,-0.207962,0.115188,1.714418,1.481527,-0.587952
236,952072353,0.780910,-0.584950,-0.197285,0.095399,1.981154,1.027088,-0.668363
237,952105687,0.826410,-0.524666,-0.193262,0.066562,1.694620,0.426509,-0.085696
238,952139021,0.867463,-0.455770,-0.197287,0.029446,0.633723,0.367438,-1.951194
239,952172355,0.886811,-0.412828,-0.206742,-0.020153,0.951536,1.728888,-1.690925
240,952205689,0.885361,-0.404208,-0.214429,-0.082338,0.693767,0.718231,-1.228917
241,952239023,0.872624,-0.408414,-0.219760,-0.153099,0.819576,0.758380,-1.684805
242,952272357,0.852059,-0.414794,-0.221816,-0.229671,1.088186,-0.811283,-0.850738
243,952305691,0.823616,-0.421841,-0.219565,-0.309041,0.193163,-1.813499,-0.984138
244,952339025,0.789374,-0.428278,-0.214139,-0.384213,-2.875789,-3.682360,2.730945
245,952372359,0.760355,-0.426078,-0.207695,-0.444059,-3.267090,-2.110776,3.777535
246,952405693,0.735442,-0.423562,-0.195591,-0.491399,-2.063383,-0.131495,3.002019
247,952439027,0.708379,-0.431158,-0.170996,-0.532045,-1.471667,-0.502646,1.193538
248,952472361,0.683108,-0.440150,-0.143070,-0.564952,-3.715611,0.346440,2.728646
249,952505695,0.671836,-0.435860,-0.127160,-0.585236,-3.184203,0.033699,3.443342
250,952539029,0.676035,-0.420939,-0.120619,-0.592661,-2.963212,-0.625004,2.435285
251,952572363,0.689569,-0.403399,-0.115802,-0.590222,-2.853004,-0.807697,1.229923
252,952605697,0.706966,-0.389734,-0.106840,-0.580431,-3.400487,-0.494968,0.275144
253,952639031,0.727425,-0.378603,-0.096067,-0.564174,-3.651925,-0.366603,-0.411554
254,952672365,0.749052,-0.373752,-0.080588,-0.541059,-3.549737,-0.083936,-0.586012
255,952705699,0.770872,-0.375875,-0.057272,-0.511080,-3.171708,0.416749,-0.025396
256,952739033,0.789600,-0.385057,-0.025285,-0.477108,-2.567059,1.694342,-1.340803
257,952772367,0.799212,-0.408209,0.015550,-0.440898,-2.416332,2.124661,-2.982832
258,952805701,0.794663,-0.449978,0.062914,-0.402593,-2.679613,2.419647,-2.527809
259,952839035,0.780155,-0.495870,0.106064,-0.366375,-2.008890,2.197384,-1.970116
260,952872369,0.759558,-0.538665,0.140151,-0.336567,-1.486305,1.626741,-1.483778
261,952905703,0.731179,-0.582106,0.166518,-0.314340,-0.655313,0.433860,-1.884614
262,952939037,0.694466,-0.626622,0.184758,-0.301553,0.879766,0.373439,-0.647788
263,952972371,0.663537,-0.657187,0.189560,-0.303150,2.134166,-0.126723,-0.387389
264,953005705,0.628723,-0.686338,0.187982,-0.313557,3.323764,-1.873458,-1.405711
265,953039039,0.592218,-0.712339,0.180882,-0.330366,4.518142,-2.221219,2.192564
266,953072373,0.570212,-0.724100,0.168125,-0.349685,4.379082,-2.878446,3.372201
267,953105707,0.569166,-0.724259,0.152437,-0.358148,3.870305,-2.370891,4.169336
268,953139041,0.587882,-0.715988,0.136855,-0.350762,5.061168,-1.842766,0.798398
269,953172375,0.600650,-0.715827,0.132361,-0.330606,4.311354,-2.150738,0.265251
270,953205709,0.607169,-0.722254,0.132827,-0.303413,3.294083,-2.169362,1.788229
271,953239043,0.616412,-0.725746,0.130574,-0.276202,2.457197,-1.766256,0.559649
272,953272377,0.624457,-0.728372,0.128602,-0.250992,1.457923,-0.563579,0.957947
273,953305711,0.641610,-0.719897,0.126160,-0.232761,0.948261,1.708613,1.195241
274,953339045,0.658986,-0.707460,0.127957,-0.221071,0.560277,-0.550264,-0.819381
275,953372379,0.656636,-0.711158,0.136003,-0.211176,0.663228,-0.272751,-0.828687
276,953405713,0.649091,-0.718361,0.143912,-0.204783,0.537778,-0.035216,-0.721475
277,953439047,0.643430,-0.722166,0.151662,-0.203669,0.808135,0.754730,-1.060027
278,953472381,0.638109,-0.723059,0.160727,-0.210183,0.210616,0.463401,-1.074400
279,953505715,0.638504,-0.716288,0.168114,-0.225808,0.335790,1.186940,0.282422
280,953539049,0.646141,-0.699303,0.173413,-0.251819,0.685013,1.565581,-0.688988
281,953572383,0.652819,-0.678408,0.178498,-0.285898,0.078319,1.196529,-1.259345
282,953605717,0.654748,-0.657432,0.182211,-0.325416,-0.325530,1.282331,-1.051422
283,953639051,0.654657,-0.634544,0.180808,-0.368911,-0.900900,0.910401,-0.300376
284,953672385,0.652674,-0.610718,0.173146,-0.413605,-1.004154,0.818508,-1.271774
285,953705719,0.646705,-0.588671,0.159727,-0.457968,-1.121792,1.264299,-2.134974
286,953739053,0.640333,-0.567315,0.136484,-0.499508,-3.316203,0.857341,0.666450
287,953772387,0.642109,-0.538516,0.098781,-0.536608,-3.015541,0.642924,2.257804
288,953805721,0.660883,-0.491664,0.046365,-0.565118,-3.865688,1.413885,2.676912
289,953839055,0.683143,-0.443371,-0.003841,-0.580286,-3.326865,0.104145,1.784112
290,953872389,0.698700,-0.410965,-0.032767,-0.584689,-3.061466,0.697645,1.187399
291,953905723,0.710003,-0.395321,-0.040235,-0.581383,-3.014382,1.406841,0.649406
292,953939057,0.721541,-0.388871,-0.036175,-0.571715,-3.208100,1.434906,0.617142
293,953972391,0.736294,-0.385465,-0.027560,-0.555461,-2.720266,1.154534,0.439922
294,954005725,0.752970,-0.385955,-0.014127,-0.532808,-2.504811,0.792259,0.309739
295,954039059,0.770060,-0.390393,0.003633,-0.504575,-1.918932,0.375979,0.471490
296,954072393,0.784792,-0.402140,0.026958,-0.470815,-1.860322,-0.009523,-0.061646
297,954105727,0.794278,-0.423600,0.054271,-0.432143,-1.830366,0.262691,-0.348687
298,954139061,0.798272,-0.451969,0.080564,-0.389877,-1.867202,0.417664,-0.526491
299,954172395,0.796366,-0.485426,0.102741,-0.345854,-1.775677,0.307541,-1.416973
300,954205729,0.783865,-0.529333,0.122260,-0.300704,-1.794302,-0.042249,-1.701225
301,954239063,0.761508,-0.579573,0.135605,-0.256555,-1.515059,-0.564920,-0.771858
302,954272397,0.738759,-0.622136,0.137310,-0.219855,-0.731549,-0.631874,0.305530
303,954305731,0.728700,-0.643913,0.126328,-0.196016,0.023208,-0.038778,0.211027
304,954339065,0.727465,-0.651779,0.108898,-0.184738,0.915398,-0.703817,-1.476200
305,954372399,0.720506,-0.662549,0.091400,-0.183178,2.305603,-1.373686,-1.667122
306,954405733,0.711196,-0.672054,0.072311,-0.193193,2.503648,-0.717610,-0.638470
307,954439067,0.711301,-0.667886,0.046321,-0.214105,3.728204,-2.173331,-1.155180
308,954472401,0.703463,-0.669647,0.019075,-0.237396,5.416453,-3.023122,-1.583255
309,954505735,0.676922,-0.690100,-0.001339,-0.256017,6.065058,-1.195649,0.840876
310,954539069,0.659823,-0.702689,-0.017687,-0.265628,4.385355,0.345527,2.741288
311,954572403,0.655192,-0.708050,-0.028988,-0.261831,3.907025,-0.558784,0.887562
312,954605737,0.642626,-0.725017,-0.030095,-0.245938,3.683497,0.669194,1.255095
313,954639071,0.627886,-0.744757,-0.028638,-0.224242,3.352853,0.907780,1.934668
314,954672405,0.618575,-0.758887,-0.030718,-0.201297,2.285689,0.340938,1.429150
315,954705739,0.610673,-0.770977,-0.035011,-0.177358,1.899525,0.400426,1.588419
316,954739073,0.606767,-0.778630,-0.043007,-0.154036,1.391106,0.792676,0.529849
317,954772407,0.601121,-0.786226,-0.050312,-0.134088,1.067611,1.722036,0.816423
318,954805741,0.589900,-0.796745,-0.051514,-0.120708,0.223658,2.021959,0.371177
319,954839075,0.581744,-0.803819,-0.047910,-0.114727,-0.330232,1.278321,0.122641
320,954872409,0.576114,-0.808371,-0.040160,-0.114123,-0.535661,2.511356,0.520667
321,954905743,0.575579,-0.808571,-0.029233,-0.118647,-0.800102,3.088387,-0.452466
322,954939077,0.580069,-0.804258,-0.014368,-0.128416,-0.302293,1.859265,1.154890
323,954972411,0.599078,-0.787966,0.001042,-0.142207,0.207694,1.689136,1.419261
324,955005745,0.623579,-0.764849,0.017717,-0.160777,1.079420,0.782830,-0.747904
325,955039079,0.643365,-0.742022,0.036296,-0.184868,1.464430,0.739493,-0.637516
326,955072413,0.667676,-0.710839,0.051837,-0.215028,1.051435,0.345962,0.134523
327,955105747,0.699746,-0.665733,0.059082,-0.252337,1.016868,0.008781,-0.910994
328,955139081,0.729265,-0.614101,0.058235,-0.296089,0.175109,-0.558037,-1.238947
329,955172415,0.751250,-0.562413,0.049481,-0.341869,-0.784769,-0.956078,-0.794812
330,955205749,0.765747,-0.512148,0.031005,-0.387794,-0.827050,-0.195160,-1.953266
331,955239083,0.769662,-0.469862,0.006674,-0.432220,-0.678202,0.102787,-2.476870
332,955272417,0.759705,-0.447407,-0.012911,-0.471717,-1.077778,-0.302245,-1.109959
333,955305751,0.735394,-0.450759,-0.018202,-0.505658,-0.860199,-0.229863,-0.309867
334,955339085,0.713914,-0.452346,-0.022633,-0.534046,-3.733464,-0.037752,3.932563
335,955372419,0.704728,-0.440795,-0.035092,-0.554828,-2.868315,0.126323,1.382299
336,955405753,0.698729,-0.431599,-0.045542,-0.568713,-2.503766,0.595611,0.506484
337,955439087,0.696753,-0.422428,-0.056505,-0.576980,-3.195039,1.094930,1.320825
338,955472421,0.700959,-0.411140,-0.067129,-0.578897,-3.170196,0.753374,1.634452
339,955505755,0.709426,-0.401823,-0.071358,-0.574604,-2.814278,0.289794,0.952146
340,955539089,0.721707,-0.394132,-0.068808,-0.564865,-2.902864,-0.076716,1.550733
341,955572423,0.739943,-0.382621,-0.063656,-0.549583,-2.548853,-0.529928,1.391216
342,955605757,0.761068,-0.371486,-0.054011,-0.529022,-2.006323,-0.543920,0.354389
343,955639091,0.782268,-0.365245,-0.038515,-0.503168,-2.416394,-0.322820,0.494053
344,955672425,0.801839,-0.366752,-0.018355,-0.471401,-2.436175,-0.050970,-0.198874
345,955705759,0.817038,-0.380550,0.006666,-0.433122,-1.960197,-0.001115,-0.461637
346,955739093,0.827289,-0.404101,0.032258,-0.388925,-2.019897,0.027758,-0.586792
347,955772427,0.833438,-0.431335,0.052956,-0.341373,-1.757300,-0.568640,-0.396384
348,955805761,0.834066,-0.462586,0.069444,-0.292463,-1.300564,-0.681035,-0.734948
349,955839095,0.827979,-0.498484,0.079633,-0.244196,-1.073001,-0.750012,-1.134364
350,955872429,0.816391,-0.535766,0.082411,-0.199194,-0.415495,-1.078458,-0.686856
351,955905763,0.795870,-0.578959,0.079770,-0.158249,0.159866,-0.941330,-0.808941
352,955939097,0.767821,-0.624084,0.071271,-0.126091,0.768626,-0.069499,-1.140769
353,955972431,0.740106,-0.661651,0.056613,-0.106136,1.083310,-0.545666,-1.022335
354,956005765,0.721012,-0.685217,0.037682,-0.095963,1.948151,-0.040210,0.680359
355,956039099,0.712844,-0.694579,0.019754,-0.095031,2.489849,0.601445,0.472700
356,956072433,0.710088,-0.696527,0.003587,-0.103055,2.374415,1.027311,-0.787393
357,956105767,0.714440,-0.689295,-0.013199,-0.119512,2.553554,0.360577,-1.632463
358,956139101,0.706784,-0.692648,-0.026699,-0.141392,4.087129,-0.117419,-2.018156
359,956172435,0.686533,-0.706958,-0.036120,-0.166092,4.096094,0.794185,1.125021
360,956205769,0.673058,-0.714455,-0.043109,-0.186273,3.938069,-0.441118,1.485053
361,956239103,0.664907,-0.719636,-0.047364,-0.194389,3.801437,0.036727,2.189898
362,956272437,0.658798,-0.726658,-0.047814,-0.188877,3.507045,-0.167314,1.226074
363,956305771,0.652572,-0.736065,-0.045973,-0.173934,2.974960,-0.355223,1.518628
364,956339105,0.645850,-0.746787,-0.041008,-0.153339,2.802166,-0.083801,1.759210
365,956372439,0.640770,-0.755827,-0.033949,-0.130364,2.084502,-0.185437,0.989900
366,956405773,0.635711,-0.763917,-0.028114,-0.107337,1.750876,0.120676,0.447030
367,956439107,0.628728,-0.772435,-0.022960,-0.086762,1.442344,0.184944,-0.580448
368,956472441,0.621219,-0.780155,-0.018974,-0.071368,0.069412,0.840874,-0.303505
369,956505775,0.621306,-0.780953,-0.016522,-0.061870,-0.219015,0.739525,-0.161055
370,956539109,0.624416,-0.778804,-0.011756,-0.058648,-0.569450,2.019239,-0.967091
371,956572443,0.623306,-0.779451,-0.000720,-0.062883,-0.584361,1.212214,-0.426398
372,956605777,0.621425,-0.779902,0.015090,-0.073251,-0.535085,1.273740,0.771090
373,956639111,0.626298,-0.773972,0.031720,-0.087870,-0.822861,1.467873,0.020796
374,956672445,0.631794,-0.766396,0.048409,-0.105538,-0.297953,1.279393,-0.808366
375,956705779,0.635845,-0.758611,0.065045,-0.126440,0.293735,0.804837,0.494085
376,956739113,0.646740,-0.743361,0.079303,-0.151199,0.431695,1.199077,0.501945
377,956772447,0.663203,-0.720425,0.091283,-0.181175,0.989606,1.102007,-0.673834
378,956805781,0.675892,-0.696619,0.102013,-0.217931,1.121934,0.192794,-1.579579
379,956839115,0.679603,-0.677363,0.111055,-0.258833,0.447511,-0.298218,-0.666941
380,956872449,0.680758,-0.657583,0.114313,-0.301819,0.012498,0.275971,-0.403113
381,956905783,0.687967,-0.628126,0.105012,-0.348052,-0.418211,0.393971,-1.328344
382,956939117,0.696728,-0.593420,0.084446,-0.394082,-0.886474,-0.279739,-0.480871
383,956972451,0.699818,-0.562116,0.058740,-0.436850,-1.247675,-0.107492,-0.359457
384,957005785,0.695559,-0.538987,0.031973,-0.474002,-1.891357,-0.475955,-0.196451
385,957039119,0.684872,-0.525585,0.012142,-0.504550,-1.902856,-0.150671,3.296467
386,957072453,0.677749,-0.511322,-0.003578,-0.528396,-2.696496,0.285393,2.522143
387,957105787,0.670001,-0.504777,-0.010458,-0.544240,-2.475966,-0.187099,0.436281
388,957139121,0.663556,-0.503643,-0.011571,-0.553093,-3.163707,0.439426,1.655224
389,957172455,0.667853,-0.495372,-0.017234,-0.555239,-2.926435,0.057266,1.361863
390,957205789,0.678236,-0.486105,-0.022102,-0.550653,-2.757045,-0.073126,0.555905
391,957239123,0.691405,-0.479618,-0.022644,-0.539834,-2.659708,-0.182844,0.666607
392,957272457,0.704921,-0.478905,-0.016551,-0.522945,-2.869199,0.101324,0.277280
393,957305791,0.718349,-0.484330,-0.004636,-0.499386,-3.035815,-0.200944,0.855636
394,957339125,0.731598,-0.493959,0.011987,-0.469716,-2.911254,0.172480,0.517217
395,957372459,0.742726,-0.508362,0.032674,-0.434588,-2.593657,0.293640,0.023784
396,957405793,0.745563,-0.533658,0.058940,-0.394816,-2.173573,0.423138,-0.803078
397,957439127,0.740419,-0.565605,0.084992,-0.353067,-1.377467,1.008543,-0.918283
398,957472461,0.730636,-0.598240,0.105104,-0.311835,-1.164412,0.737236,-0.907927
399,957505795,0.720276,-0.626832,0.115602,-0.273733,-1.127413,0.289133,1.196760
400,957539129,0.723544,-0.635191,0.111329,-0.246232,1.328221,1.545022,-0.509795
401,957572463,0.730304,-0.634656,0.101955,-0.231260,1.905191,1.819091,-2.390066
402,957605797,0.722111,-0.646617,0.096586,-0.226102,2.390096,0.433432,-3.471003
403,957639131,0.684593,-0.684741,0.101216,-0.228530,3.468120,-0.545612,-2.153933
404,957672465,0.641744,-0.720608,0.106981,-0.239693,3.507326,-0.818293,1.801206
405,957705799,0.624332,-0.729898,0.106064,-0.257327,3.588180,-2.074981,1.352367
406,957739133,0.619338,-0.728910,0.102788,-0.273047,3.764044,-3.095661,1.300498
407,957772467,0.616865,-0.728600,0.100407,-0.280260,3.749892,-3.756782,0.834056
408,957805801,0.614091,-0.733243,0.099383,-0.274552,3.385790,-2.539452,1.576299
409,957839135,0.613269,-0.739856,0.097427,-0.258903,3.475688,-2.164724,1.024038
410,957872469,0.609362,-0.749769,0.096583,-0.239173,2.575605,-0.899156,0.790469
411,957905803,0.601888,-0.761461,0.097053,-0.220222,1.370478,0.475236,0.551053
412,957939137,0.595325,-0.770111,0.099039,-0.206680,0.540601,1.657846,0.282948
413,957972471,0.588510,-0.776899,0.103570,-0.198409,-0.215629,2.292341,0.494714
414,958005805,0.588848,-0.777112,0.108274,-0.194010,0.320967,2.939072,1.433620
415,958039139,0.598561,-0.768742,0.113718,-0.194518,0.810798,2.002858,0.903313
416,958072473,0.611387,-0.756318,0.121359,-0.198669,1.408695,0.775331,0.967732
417,958105807,0.626676,-0.739864,0.130000,-0.207334,1.707387,0.333349,-0.272628
418,958139141,0.642506,-0.720198,0.138751,-0.221941,1.131962,-0.209587,-1.137720
419,958172475,0.656833,-0.698584,0.146174,-0.243295,0.754411,-0.338357,-1.155354
420,958205809,0.671687,-0.672596,0.149384,-0.272293,-0.115155,-0.460075,-1.970794
421,958239143,0.685676,-0.643129,0.147088,-0.307584,-0.709796,-0.186418,-2.071355
422,958272477,0.697704,-0.611120,0.138160,-0.347365,-1.601871,-0.088117,-1.638411
423,958305811,0.706605,-0.579676,0.123147,-0.386689,-2.431252,-0.749924,-0.362666
424,958339145,0.713621,-0.548233,0.101516,-0.424133,-2.438985,-0.248642,0.208886
425,958372479,0.718031,-0.519591,0.080493,-0.456054,-1.365865,0.480773,1.615073
426,958405813,0.717476,-0.500288,0.068487,-0.479853,-1.527361,0.784240,1.542848
427,958439147,0.711197,-0.494694,0.068437,-0.494774,-2.074563,1.035781,1.195779
428,958472481,0.704220,-0.496332,0.075111,-0.502091,-2.198614,1.454254,1.663450
429,958505815,0.703066,-0.494306,0.079376,-0.505042,-2.343590,2.085391,1.123484
430,958539149,0.710235,-0.484656,0.077301,-0.504685,-2.262139,2.025882,0.505021
431,958572483,0.717624,-0.478830,0.078070,-0.499651,-2.109942,1.888688,-0.263276
432,958605817,0.721793,-0.482482,0.085915,-0.488726,-2.645039,1.595545,0.162952
433,958639151,0.721951,-0.496862,0.101330,-0.470804,-3.173412,1.079470,-0.089784
434,958672485,0.718348,-0.520389,0.121370,-0.445477,-3.081273,0.917221,-0.321796
435,958705819,0.709971,-0.551201,0.144099,-0.413959,-2.698778,0.712351,-0.501534
436,958739153,0.696618,-0.587008,0.166235,-0.377516,-2.595657,0.367451,-0.388481
437,958772487,0.681935,-0.621679,0.181893,-0.339711,-1.565388,0.128644,0.330065
438,958805821,0.674354,-0.645265,0.185638,-0.307289,-0.773020,0.203868,-0.552631
439,958839155,0.671796,-0.660472,0.180414,-0.282713,-0.212035,-0.053302,-0.935280
440,958872489,0.669901,-0.671955,0.170516,-0.265784,0.346828,-0.516009,0.690303
441,958905823,0.674470,-0.674731,0.155245,-0.256392,0.865485,-0.493164,-0.051455
442,958939157,0.674255,-0.680005,0.142870,-0.250141,1.547076,-0.453322,-1.471313
443,958972491,0.660215,-0.696441,0.136425,-0.245932,1.548684,-0.561199,-0.423240
444,959005825,0.646720,-0.710726,0.128725,-0.245071,1.326181,-0.772252,0.748191
445,959039159,0.646316,-0.712302,0.115728,-0.248027,2.015938,-0.259002,0.861160
446,959072493,0.654402,-0.705143,0.099408,-0.254280,2.452235,-0.732422,-0.407223
447,959105827,0.656580,-0.702538,0.085791,-0.260750,2.740012,-1.998520,-0.840535
448,959139161,0.650491,-0.708392,0.076355,-0.263098,2.623285,-1.194633,0.579857
449,959172495,0.649069,-0.711562,0.066844,-0.260632,2.794027,-0.650517,0.350620
450,959205829,0.650149,-0.714354,0.058951,-0.252067,2.920236,-1.096761,0.633114
451,959239163,0.648505,-0.720893,0.054609,-0.238287,3.038994,-0.738506,0.897964
452,959272497,0.643802,-0.730750,0.054160,-0.220451,3.089849,-0.819913,1.054192
453,959305831,0.635630,-0.743322,0.054978,-0.201081,2.852290,-0.963787,-0.147882
454,959339165,0.625416,-0.756959,0.053480,-0.181702,1.545795,0.870171,1.182718
455,959372499,0.623512,-0.762545,0.049331,-0.165330,2.459902,1.087130,0.906966
456,959405833,0.623748,-0.764825,0.047673,-0.154005,2.686347,1.285499,0.433904
457,959439167,0.619067,-0.769211,0.052881,-0.149274,2.142421,1.596876,0.050134
458,959472501,0.618217,-0.768430,0.062536,-0.153042,1.792660,1.398892,0.348174
459,959505835,0.625852,-0.758398,0.073468,-0.166593,1.335091,0.964844,-0.090458
460,959539169,0.638364,-0.741479,0.083843,-0.188886,0.839707,0.341265,-0.395099
461,959572503,0.652183,-0.719728,0.092170,-0.219460,0.421141,0.464153,-0.740368
462,959605837,0.670048,-0.689469,0.095113,-0.258129,-0.392343,-0.010237,-0.614120
463,959639171,0.688288,-0.653024,0.090794,-0.302627,-0.746330,-0.211492,-1.275615
464,959672505,0.700592,-0.616768,0.080185,-0.349781,-1.719831,-0.750363,-0.725939
465,959705839,0.713120,-0.575170,0.056382,-0.396824,-2.521973,-0.234660,-1.040491
466,959739173,0.723387,-0.530094,0.019934,-0.441953,-1.693664,0.941258,-2.972036
467,959772507,0.720984,-0.498341,-0.013377,-0.481318,-1.962426,1.147704,-0.149887
468,959805841,0.711791,-0.477700,-0.039492,-0.513425,-2.968880,0.934666,2.245743
469,959839175,0.701295,-0.466624,-0.054569,-0.536170,-3.973822,0.609114,2.466454
470,959872509,0.693645,-0.462777,-0.058208,-0.548921,-4.242340,0.707007,2.425150
471,959905843,0.693505,-0.460312,-0.057041,-0.551287,-4.401028,0.312637,1.478991
472,959939177,0.703276,-0.452572,-0.058814,-0.545098,-3.719103,1.304868,1.143362
473,959972511,0.721140,-0.439824,-0.064688,-0.531353,-3.078882,1.391683,-0.636969
474,960005845,0.739221,-0.433444,-0.066070,-0.511196,-2.816133,0.940801,-0.443279
475,960039179,0.755901,-0.434966,-0.061752,-0.485401,-2.860974,0.451278,0.164674
476,960072513,0.771434,-0.442794,-0.053331,-0.453859,-2.822964,-0.291527,0.477910
477,960105847,0.785430,-0.455441,-0.041538,-0.417081,-2.302348,-0.661551,0.926320
478,960139181,0.796857,-0.471247,-0.027935,-0.377059,-1.798480,-0.384432,0.597849
479,960172515,0.802496,-0.494160,-0.012793,-0.334143,-1.359867,-0.911458,-0.158354
480,960205849,0.801897,-0.522358,0.001216,-0.290017,-1.280790,-0.757619,0.438564
481,960239183,0.800714,-0.545825,0.008510,-0.246715,-0.578004,-0.293883,0.381250
482,960272517,0.796277,-0.568820,0.011736,-0.205568,-0.213613,-0.693179,0.107677
483,960305851,0.782745,-0.599199,0.012815,-0.167675,0.099174,-1.050426,-0.314983
484,960339185,0.768525,-0.624924,0.008057,-0.137047,0.380258,0.416077,0.584975
485,960372519,0.761619,-0.637492,-0.000069,-0.116401,1.359468,0.229104,-0.075502
486,960405853,0.750543,-0.652441,-0.006386,-0.104756,2.076227,-0.890092,-0.443071
487,960439187,0.739368,-0.665828,-0.012571,-0.099290,2.481785,-0.240626,0.280990
488,960472521,0.726579,-0.679765,-0.016114,-0.098754,2.865917,0.301016,-1.181746
489,960505855,0.703680,-0.702930,-0.016903,-0.102208,2.773787,-0.130626,-1.011408
490,960539189,0.681909,-0.723337,-0.019134,-0.106889,2.345374,0.014597,0.217579
491,960572523,0.673840,-0.730146,-0.025042,-0.110482,1.981115,0.369394,0.202637
492,960605857,0.674254,-0.728911,-0.034653,-0.113482,1.867865,0.178242,-0.750427
493,960639191,0.671368,-0.730555,-0.044993,-0.116360,1.733004,0.017560,-0.646708
494,960672525,0.669999,-0.730633,-0.056403,-0.118758,1.468596,0.314755,0.131313
495,960705859,0.673980,-0.725659,-0.068815,-0.120176,1.258149,0.231548,-0.229086
496,960739193,0.674920,-0.723521,-0.079270,-0.121347,1.091538,0.017961,-0.563011
497,960772527,0.669484,-0.727312,-0.086949,-0.123516,0.734281,0.361350,0.146971
498,960805861,0.663553,-0.731654,-0.092670,-0.125705,0.224348,0.354479,0.019893
499,960839195,0.658650,-0.735206,-0.097751,-0.126908,0.105375,0.434772,-0.130527
500,960872529,0.654500,-0.738245,-0.102592,-0.126913,0.345115,0.668589,0.027856
501,960905863,0.652766,-0.738878,-0.109248,-0.126605,0.264178,0.547236,0.284738
502,960939197,0.653524,-0.736860,-0.117418,-0.127142,0.420195,0.444515,0.787612
503,960972531,0.653707,-0.735284,-0.125109,-0.127990,0.324503,0.164522,0.822612
504,961005865,0.654760,-0.733460,-0.131227,-0.126943,0.150483,0.193485,0.962691
505,961039199,0.655779,-0.732423,-0.135198,-0.123448,0.090313,0.316140,0.692103
506,961072533,0.655145,-0.733576,-0.136414,-0.118541,0.023794,0.280884,0.542665
507,961105867,0.654247,-0.735520,-0.135118,-0.112799,0.407756,0.338646,0.590620
508,961139201,0.652404,-0.738746,-0.131330,-0.106695,0.684335,0.382930,0.138648
509,961172535,0.648344,-0.744066,-0.126040,-0.100683,0.976296,0.482717,0.068366
510,961205869,0.643763,-0.749673,-0.120896,-0.094620,0.945460,0.771258,-0.043353
511,961239203,0.640766,-0.753818,-0.116241,-0.087605,1.344477,0.665053,0.088605
512,961272537,0.637916,-0.757954,-0.111483,-0.078417,1.936561,0.707505,0.473259
513,961305871,0.634536,-0.762810,-0.105971,-0.065295,2.588136,0.617072,0.718717
514,961339205,0.629297,-0.769290,-0.099460,-0.047897,3.126984,0.705595,0.671060
515,961372539,0.625130,-0.774528,-0.092739,-0.026930,3.609946,-0.476337,0.446548
516,961405873,0.614635,-0.784446,-0.082880,-0.002816,3.831417,1.394877,2.324732
517,961439207,0.615816,-0.784689,-0.068058,0.020249,3.218545,0.963381,1.262487
518,961472541,0.624359,-0.778690,-0.048304,0.038635,2.901571,-0.014031,0.734658
519,961505875,0.642331,-0.764435,-0.025728,0.048964,1.896560,0.881623,0.420421
520,961539209,0.665891,-0.744642,-0.001070,0.045873,0.661712,0.339352,-2.194284
521,961572543,0.688521,-0.724266,0.023136,0.029166,0.177673,0.532254,-0.887289
522,961605877,0.719665,-0.692920,0.044007,-0.004084,-1.216707,0.856386,-2.914559
523,961639211,0.753814,-0.652416,0.058751,-0.051713,-1.870199,-0.886519,-1.957355
524,961672545,0.788462,-0.602067,0.062196,-0.109467,-2.494015,-0.333206,-2.727138
525,961705879,0.821256,-0.541720,0.050098,-0.171977,-3.664268,-1.143229,-1.522653
526,961739213,0.841388,-0.486939,0.029290,-0.232609,-2.598017,-0.140288,-1.321073
527,961772547,0.848743,-0.443474,0.009193,-0.287905,-2.696223,0.920112,-0.343445
528,961805881,0.845639,-0.416408,-0.006536,-0.333862,-3.190199,0.045610,0.198294
529,961839215,0.833713,-0.410191,-0.012659,-0.369477,-2.572428,-0.860387,1.743608
530,961872549,0.817269,-0.420415,-0.005240,-0.394086,-2.979816,-1.613440,3.474027
531,961905883,0.803217,-0.435782,0.011762,-0.405964,-3.235214,-1.882648,3.931301
532,961939217,0.795446,-0.448749,0.031202,-0.406110,-3.322839,-0.515979,2.045395
533,961972551,0.796719,-0.453100,0.044974,-0.397398,-3.161650,0.372451,0.781791
534,962005885,0.805103,-0.450074,0.053376,-0.382626,-2.346292,0.972560,0.356940
535,962039219,0.814550,-0.446854,0.060935,-0.364863,-1.960274,1.208650,-0.773933
536,962072553,0.821968,-0.447440,0.070070,-0.345347,-1.699519,0.373331,0.325391
537,962105887,0.833028,-0.441175,0.075076,-0.325271,-2.319742,-1.094715,2.740845
538,962139221,0.853571,-0.414321,0.070818,-0.307810,0.532572,0.411382,-0.805902
539,962172555,0.867928,-0.397722,0.072647,-0.288529,0.052440,0.099351,-0.282817
540,962205889,0.875573,-0.395999,0.079011,-0.265183,-0.480031,-0.503327,-0.104521
541,962239223,0.877159,-0.408891,0.085514,-0.236846,-0.979509,-0.860760,-1.328333
542,962272557,0.869851,-0.440706,0.092433,-0.201502,-1.457400,-1.922324,-0.143711
543,962305891,0.861151,-0.472819,0.093342,-0.161731,-1.660175,-2.290181,1.286399
544,962339225,0.857579,-0.492496,0.086512,-0.120536,-1.555536,-1.889234,0.086531
545,962372559,0.848355,-0.517686,0.079346,-0.077507,-1.667580,-1.728954,-1.202203
546,962405893,0.825082,-0.559442,0.071162,-0.034761,-1.568151,-1.775855,-1.581772
547,962439227,0.788129,-0.612870,0.056938,0.003192,-1.055244,-0.990324,-1.687641
548,962472561,0.745398,-0.664982,0.036128,0.029725,-0.420112,-0.031029,-1.684767
549,962505895,0.706412,-0.706559,0.010368,0.040712,-0.033909,0.786801,-0.548077
550,962539229,0.686116,-0.726366,-0.017077,0.036796,1.060608,0.109849,-0.809159
551,962572563,0.665099,-0.745144,-0.043542,0.022723,2.558960,0.049830,-1.219857
552,962605897,0.658580,-0.749282,-0.069683,0.000893,2.973733,2.203340,1.456806
553,962639231,0.678657,-0.728042,-0.094140,-0.022918,4.515371,0.374397,-0.577904
554,962672565,0.689019,-0.713659,-0.117649,-0.045932,5.523985,0.883273,-0.443929
555,962705899,0.696635,-0.700302,-0.142185,-0.063784,4.174612,0.707529,1.220821
556,962739233,0.715950,-0.673771,-0.170476,-0.066291,3.987388,0.552679,2.341814
557,962772567,0.736997,-0.644665,-0.195976,-0.053340,4.406437,0.994307,0.351188
558,962805901,0.744668,-0.631302,-0.214015,-0.033666,3.647870,1.276064,0.118902
559,962839235,0.740033,-0.633173,-0.226425,-0.013564,2.315410,0.637158,1.515220
560,962872569,0.730053,-0.641504,-0.235476,0.007433,2.235570,0.568972,1.947083
561,962905903,0.720018,-0.649898,-0.241403,0.030663,1.631522,1.119000,1.829962
562,962939237,0.707197,-0.662195,-0.242137,0.052423,1.769368,1.783882,0.833793
563,962972571,0.690093,-0.680229,-0.237342,0.068833,0.910583,1.760455,0.452446
564,963005905,0.677388,-0.694440,-0.228541,0.081702,0.225350,1.769873,0.860893
565,963039239,0.672253,-0.702887,-0.214578,0.089390,0.433236,2.117460,-0.084116
566,963072573,0.668564,-0.712437,-0.194427,0.087535,0.816729,1.769130,-0.804351
567,963105907,0.670991,-0.718092,-0.167477,0.077930,0.661982,2.593491,1.282965
568,963139241,0.692142,-0.706767,-0.132428,0.062374,1.260719,2.129943,0.602619
569,963172575,0.716030,-0.690914,-0.092982,0.036093,1.692714,0.367951,-1.300012
570,963205909,0.730266,-0.681100,-0.053137,-0.000187,1.488930,-0.890017,-0.393773
571,963239243,0.739955,-0.671126,-0.015284,-0.042785,0.960704,-1.395767,-0.318061
572,963272577,0.748157,-0.657207,0.018796,-0.089415,0.450194,-1.897970,0.043519
573,963305911,0.759213,-0.634231,0.046633,-0.138496,-0.228104,-2.223980,0.157618
574,963339245,0.771288,-0.604168,0.066629,-0.188851,-0.975775,-2.042583,-0.369864
575,963372579,0.780860,-0.571394,0.079120,-0.239821,-1.510751,-1.420630,-1.224781
576,963405913,0.783687,-0.543044,0.086029,-0.289043,-2.399264,-1.522041,-1.548708
577,963439247,0.783131,-0.516695,0.088222,-0.334601,-2.886774,-1.414268,0.953222
578,963472581,0.787222,-0.481726,0.081317,-0.376322,-3.139506,-0.825080,0.301930
579,963505915,0.793785,-0.441259,0.065294,-0.413451,-2.956446,-0.074359,-1.397053
580,963539249,0.800106,-0.400432,0.043195,-0.444553,-2.859071,0.245254,0.104578
581,963572583,0.804679,-0.364927,0.020295,-0.467885,-2.273737,0.708208,-0.460154
582,963605917,0.804749,-0.345887,0.006423,-0.482399,-2.099179,0.631988,0.826633
583,963639251,0.803603,-0.340004,0.003666,-0.488482,-2.111052,0.441331,1.700541
584,963672585,0.802384,-0.344442,0.011093,-0.487262,-1.971872,0.669948,0.898851
585,963705919,0.800689,-0.357910,0.027312,-0.479646,-1.785953,1.154949,0.308466
586,963739253,0.796719,-0.380300,0.051139,-0.466908,-1.807069,1.755246,-0.107628
587,963772587,0.790728,-0.408109,0.078778,-0.449441,-2.590901,1.775437,0.273896
588,963805921,0.786695,-0.432534,0.103097,-0.428258,-2.982319,1.331489,0.661950
589,963839255,0.785274,-0.453562,0.123750,-0.402891,-3.105509,1.040859,0.779867
590,963872589,0.786067,-0.472402,0.140761,-0.373001,-2.621856,0.851142,1.186712
591,963905923,0.788497,-0.488278,0.154220,-0.340707,-1.992538,0.739812,0.767877
592,963939257,0.790472,-0.502554,0.163849,-0.309444,-1.445478,0.973560,-0.518198
593,963972591,0.788895,-0.518480,0.169963,-0.282744,-1.021886,1.030676,-1.677470
594,964005925,0.781087,-0.539525,0.172280,-0.262955,-0.761962,0.893490,-1.738772
595,964039259,0.768229,-0.563262,0.168977,-0.253011,0.009939,0.775609,-2.176820
596,964072593,0.747792,-0.591987,0.161841,-0.253328,0.949446,-0.293137,-2.674858
597,964105927,0.711314,-0.633383,0.156833,-0.261285,2.504144,-1.465216,-1.521921
598,964139261,0.676252,-0.666239,0.147228,-0.277743,3.301683,-1.737187,2.198782
599,964172595,0.667272,-0.669509,0.125918,-0.301097,3.867493,-2.423162,1.825330
600,964205929,0.662858,-0.668172,0.106196,-0.320775,4.637101,-3.080195,0.824635
601,964239263,0.651411,-0.676951,0.098987,-0.328041,3.799152,-2.356263,2.140183
602,964272597,0.652022,-0.680381,0.096726,-0.320314,3.881231,-1.663092,2.042327
603,964305931,0.660215,-0.680946,0.097129,-0.301666,3.906063,-1.818084,0.181033
604,964339265,0.660000,-0.691653,0.102581,-0.274775,3.699868,-1.974671,0.965441
605,964372599,0.661373,-0.700735,0.106185,-0.245539,3.395581,-1.840456,1.311993
606,964405933,0.667858,-0.703116,0.109347,-0.218277,3.160598,-1.442232,1.021247
607,964439267,0.672651,-0.703892,0.116256,-0.196394,2.669374,-1.382779,-0.379201
608,964472601,0.670124,-0.708335,0.128073,-0.181109,2.137111,0.279241,-0.447996
609,964505935,0.665261,-0.711827,0.143278,-0.173810,1.203423,0.639321,-0.290715
610,964539269,0.662454,-0.710429,0.159704,-0.175924,0.916056,0.166822,-0.223543
611,964572603,0.663331,-0.702302,0.176116,-0.189092,0.477306,1.164367,-0.570311
612,964605937,0.662673,-0.691618,0.194079,-0.211825,-0.311101,1.252480,-0.757434
613,964639271,0.661458,-0.677283,0.211414,-0.243052,-0.563070,1.064051,-0.632066
614,964672605,0.658797,-0.659632,0.227063,-0.281643,-0.898413,1.145438,-1.020225
615,964705939,0.652636,-0.640713,0.240406,-0.325218,-1.267213,1.140327,-1.221193
616,964739273,0.647830,-0.616965,0.247258,-0.372213,-2.157850,0.847055,0.473404
617,964772607,0.650456,-0.584036,0.242642,-0.420645,-2.284270,0.757614,1.642573
618,964805941,0.661103,-0.540658,0.222857,-0.470079,-2.307949,0.923855,-0.253078
619,964839275,0.672981,-0.494651,0.193188,-0.514883,-2.742547,0.501110,-0.197860
620,964872609,0.682589,-0.452348,0.161017,-0.550941,-2.506280,0.254206,0.924316
621,964905943,0.689149,-0.417133,0.134479,-0.577060,-2.126381,0.751065,1.571567
622,964939277,0.690605,-0.396801,0.125154,-0.591573,-2.136869,0.957505,1.225179
623,964972611,0.686945,-0.393862,0.135234,-0.595567,-2.248112,1.394769,0.328704
624,965005945,0.684653,-0.397229,0.150558,-0.592284,-2.473912,1.784171,0.293001
625,965039279,0.689720,-0.396045,0.159120,-0.584914,-2.356499,1.465591,0.771030
626,965072613,0.701751,-0.389409,0.160848,-0.574493,-2.007184,1.171620,0.432274
627,965105947,0.716067,-0.383571,0.161772,-0.560321,-1.675508,1.433053,-0.201841
628,965139281,0.726746,-0.388929,0.170542,-0.539906,-1.463095,1.385460,-0.441029
629,965172615,0.733256,-0.405308,0.185827,-0.513359,-2.179480,1.622344,0.348489
630,965205949,0.740248,-0.422690,0.198913,-0.483537,-2.351417,0.936493,1.147947
631,965239283,0.747331,-0.440813,0.209906,-0.450697,-2.115485,1.217741,0.007657
632,965272617,0.752449,-0.461675,0.218673,-0.415772,-1.410798,1.343136,-0.221904
633,965305951,0.754477,-0.483614,0.224053,-0.383001,-1.700390,1.316255,-1.443956
634,965339285,0.751120,-0.508741,0.224532,-0.355802,-1.259469,1.205683,-1.787924
635,965372619,0.742463,-0.535629,0.218223,-0.337991,-0.701964,0.627743,-1.751053
636,965405953,0.732930,-0.558200,0.201777,-0.332446,-0.254180,-0.141884,-1.493345
637,965439287,0.727523,-0.569716,0.172965,-0.340919,0.666219,-0.953527,-1.748801
638,965472621,0.710920,-0.587540,0.146367,-0.357735,3.249718,-3.179883,-2.224487
639,965505955,0.668313,-0.626602,0.136044,-0.377131,4.191373,-4.160779,-0.401248
640,965539289,0.624981,-0.658069,0.130127,-0.399274,3.606441,-2.946638,3.900587
641,965572623,0.612545,-0.659547,0.116761,-0.419717,2.780510,-2.824382,2.728535
642,965605957,0.617365,-0.652340,0.103533,-0.427320,2.775280,-2.097138,0.391069
643,965639291,0.618349,-0.657050,0.102059,-0.418954,3.709759,-2.201625,-0.547674
644,965672625,0.610087,-0.676340,0.112897,-0.397014,3.547078,-1.979355,1.430472
645,965705959,0.605804,-0.693933,0.124581,-0.368709,3.772254,-1.948238,1.564269
646,965739293,0.605181,-0.707093,0.136118,-0.339494,2.781669,-1.758507,1.050139
647,965772627,0.603602,-0.718154,0.148168,-0.313009,2.172688,-1.692746,1.076569
648,965805961,0.599468,-0.728326,0.160667,-0.290473,1.383067,0.245820,1.323741
649,965839295,0.599801,-0.731207,0.170943,-0.276338,1.149374,0.632234,0.407907
650,965872629,0.600118,-0.731218,0.180107,-0.269721,0.179648,-1.001699,-0.218586
651,965905963,0.596287,-0.733514,0.185796,-0.268116,-0.140786,-0.072991,-0.753842
652,965939297,0.592758,-0.734565,0.186611,-0.272464,0.086620,1.023270,-0.807668
653,965972631,0.591813,-0.731270,0.185986,-0.283582,-0.415051,1.508364,-0.578344
654,966005965,0.595840,-0.721863,0.183171,-0.300573,-1.332206,0.851410,-0.268830
655,966039299,0.603408,-0.707750,0.177215,-0.321858,-0.634169,1.457698,-0.587196
656,966072633,0.615191,-0.686258,0.169158,-0.349262,-0.040423,2.300206,-0.303382
657,966105967,0.626285,-0.660691,0.162339,-0.380669,-0.606016,1.351254,-0.153546
658,966139301,0.628837,-0.639449,0.160070,-0.412378,-0.577414,1.201748,-0.665169
659,966172635,0.622940,-0.623811,0.160024,-0.444079,-0.581533,1.457183,-2.416586
660,966205969,0.614251,-0.610301,0.157970,-0.474641,-1.447551,1.573763,0.470987
661,966239303,0.610827,-0.592967,0.148965,-0.503089,-1.908052,1.199636,2.103279
662,966272637,0.613065,-0.573375,0.135232,-0.526415,-1.795192,0.412734,1.704936
663,966305971,0.615011,-0.558218,0.127715,-0.542080,-1.608000,0.675107,1.617221
664,966339305,0.614759,-0.549688,0.130842,-0.550276,-2.014453,1.020293,1.409996
665,966372639,0.615145,-0.544567,0.140038,-0.552666,-2.310463,1.332456,0.721888
666,966405973,0.616594,-0.542181,0.152464,-0.550104,-2.449299,1.640712,0.203258
667,966439307,0.621136,-0.540384,0.163817,-0.543459,-2.532705,1.936722,0.441293
668,966472641,0.630314,-0.537744,0.171879,-0.532918,-2.348531,1.524916,0.542155
669,966505975,0.639375,-0.538829,0.182093,-0.517411,-2.131548,1.345832,-0.144940
670,966539309,0.645375,-0.546533,0.195980,-0.496380,-2.291130,1.278533,0.288009
671,966572643,0.654240,-0.553224,0.205709,-0.472869,-2.595596,0.617676,0.700549
672,966605977,0.666785,-0.557171,0.209649,-0.448345,-2.207871,0.163901,0.248330
673,966639311,0.678467,-0.562965,0.211467,-0.421953,-1.530158,-0.244352,-0.008705
674,966672645,0.685437,-0.574239,0.214136,-0.393167,-1.192376,-0.440349,-0.324481
675,966705979,0.689783,-0.588025,0.213977,-0.364210,-0.873943,-0.554817,-0.265553
676,966739313,0.695500,-0.598684,0.206851,-0.339233,-0.158498,-0.802831,-0.310755
677,966772647,0.701074,-0.607405,0.194557,-0.318920,0.208985,-1.138615,-0.354228
678,966805981,0.703983,-0.616842,0.179956,-0.302552,1.183611,-1.334032,-0.649596
679,966839315,0.702844,-0.628314,0.165362,-0.289648,1.204924,-1.181916,-0.691311
680,966872649,0.700786,-0.638232,0.150135,-0.281117,1.503138,-1.421873,-0.322793
681,966905983,0.700789,-0.643922,0.132974,-0.276741,1.577993,-1.344101,-0.388947
682,966939317,0.704155,-0.644551,0.113558,-0.275377,2.184689,-1.363681,-0.820458
683,966972651,0.707070,-0.644581,0.093512,-0.275374,2.378065,-0.924604,-0.588604
684,967005985,0.710261,-0.643401,0.073389,-0.276019,2.894925,-1.055541,-0.074322
685,967039319,0.714688,-0.640196,0.056646,-0.275990,3.289961,-1.205864,0.754169
686,967072653,0.717068,-0.639824,0.047664,-0.272351,3.328707,-1.049501,1.362243
687,967105987,0.717707,-0.642807,0.046054,-0.263787,3.307785,-0.482649,1.160722
688,967139321,0.718744,-0.646384,0.048841,-0.251431,3.133519,-0.262826,1.572984
689,967172655,0.721892,-0.647686,0.053001,-0.237854,2.711144,-0.348855,0.991411
690,967205989,0.722782,-0.651003,0.058023,-0.224550,2.411725,-0.892586,0.153777
691,967239323,0.720902,-0.656914,0.063191,-0.211612,2.073752,-0.442499,0.554845
692,967272657,0.722567,-0.658021,0.067008,-0.201056,2.029647,-0.509456,0.391501
693,967305991,0.724116,-0.657705,0.072479,-0.194513,1.945246,0.126764,0.027759
694,967339325,0.723392,-0.657480,0.082497,-0.193978,1.751389,-0.063472,-0.661852
695,967372659,0.717048,-0.660343,0.098056,-0.200456,1.407863,-0.338861,-1.195805
696,967405993,0.704978,-0.665669,0.118289,-0.214257,1.032110,-0.287345,-0.934992
697,967439327,0.689732,-0.669692,0.141993,-0.235857,0.483937,-0.160085,-0.621758
698,967472661,0.675103,-0.667951,0.166675,-0.265151,-0.123969,-0.463695,-0.020469
699,967505995,0.662305,-0.659211,0.190289,-0.300984,-0.463004,-0.302667,0.020495
700,967539329,0.651051,-0.643746,0.210822,-0.342472,-0.859612,-0.246220,-0.148544
701,967572663,0.641355,-0.622074,0.225664,-0.388292,-1.268589,0.051297,-0.220455
702,967605997,0.633586,-0.594760,0.232057,-0.437021,-1.763358,0.302283,-0.266041
703,967639331,0.627314,-0.564112,0.229142,-0.485548,-2.031731,0.538984,0.198050
704,967672665,0.622307,-0.531687,0.216359,-0.532202,-1.944193,1.071810,-0.578974
705,967705999,0.615398,-0.502433,0.196763,-0.574577,-1.715700,1.380358,-1.873875
706,967739333,0.604011,-0.480859,0.175109,-0.610975,-1.653707,1.795019,-1.038700
707,967772667,0.590523,-0.466690,0.154023,-0.640131,-2.278644,1.678861,0.391341
708,967806001,0.578172,-0.459215,0.136613,-0.660443,-3.183623,0.695370,1.634778
709,967839335,0.569203,-0.453706,0.126867,-0.673848,-2.127990,1.490897,3.356997
710,967872669,0.570070,-0.442201,0.116638,-0.682556,-2.005566,1.496544,2.243647
711,967906003,0.576547,-0.429879,0.109864,-0.686101,-1.710416,1.515706,0.615225
712,967939337,0.585131,-0.421198,0.109322,-0.684303,-1.408364,1.590758,-0.304561
713,967972671,0.594903,-0.416300,0.114444,-0.678008,-1.442704,1.956463,0.754211
714,968006005,0.607288,-0.412108,0.121126,-0.668360,-1.286034,1.476069,0.517775
715,968039339,0.621436,-0.408157,0.129313,-0.656133,-1.167013,1.233894,0.557057
716,968072673,0.636641,-0.405186,0.139131,-0.641220,-1.167382,0.999726,0.615305
717,968106007,0.651900,-0.404849,0.151229,-0.623107,-1.021823,0.842740,0.520948
718,968139341,0.666937,-0.407399,0.164660,-0.601761,-1.131211,0.583319,0.322901
719,968172675,0.680623,-0.414391,0.179694,-0.576845,-1.059272,0.194135,0.207606
720,968206009,0.692071,-0.426341,0.195476,-0.548697,-1.258059,0.054670,0.102877
721,968239343,0.702545,-0.440292,0.208560,-0.518733,-1.417038,-0.060768,0.377308
722,968272677,0.714687,-0.452017,0.215422,-0.488371,-1.756942,-0.533501,0.454307
723,968306011,0.730466,-0.458443,0.214021,-0.458752,-1.627172,-0.621625,0.698972
724,968339345,0.749711,-0.458451,0.205648,-0.430666,-0.862098,-0.712106,-0.041474
725,968372679,0.766136,-0.460357,0.197315,-0.402720,-0.490449,-0.742216,-0.795800
726,968406013,0.776445,-0.468780,0.191167,-0.375289,-0.199173,-0.800144,-0.625177
727,968439347,0.783705,-0.478722,0.183584,-0.350624,0.011582,-0.927099,-0.752316
728,968472681,0.789255,-0.487711,0.173047,-0.330571,0.399273,-0.974154,-0.807385
729,968506015,0.793088,-0.495939,0.159814,-0.315475,0.882059,-0.725096,-1.096104
730,968539349,0.792626,-0.507368,0.145760,-0.305097,1.239291,-0.195902,-1.376421
731,968572683,0.787633,-0.522308,0.130438,-0.299705,1.691478,-0.221986,-0.978008
732,968606017,0.781976,-0.533916,0.112206,-0.301441,2.175504,-0.588582,-0.395766
733,968639351,0.778088,-0.539243,0.091902,-0.308802,2.439990,-0.785352,-0.178473
734,968672685,0.776709,-0.538257,0.070746,-0.319382,2.799468,-0.986245,0.320834
735,968706019,0.775842,-0.535060,0.052608,-0.330183,3.119534,-0.908636,0.118320
736,968739353,0.771795,-0.536736,0.042103,-0.338354,2.966670,-1.048527,0.124599
737,968772687,0.767940,-0.540309,0.038080,-0.341897,2.388585,-1.233569,0.941714
738,968806021,0.766850,-0.543649,0.038857,-0.338948,2.567976,-1.063474,1.074068
739,968839355,0.766906,-0.548006,0.044689,-0.330994,2.468168,-0.785260,0.703204
740,968872689,0.768701,-0.551195,0.053855,-0.319985,2.384626,-0.658626,1.212580
741,968906023,0.771594,-0.552941,0.067337,-0.307202,3.006527,-1.440118,0.979456
742,968939357,0.772997,-0.556178,0.085649,-0.292942,3.052162,-1.576502,0.381557
743,968972691,0.773648,-0.558929,0.105426,-0.279215,2.908266,-1.117571,0.332087
744,969006025,0.772423,-0.561136,0.125756,-0.269598,2.973823,-0.901156,-0.371202
745,969039359,0.768226,-0.563402,0.145452,-0.266944,1.864066,-1.007735,-0.288388
746,969072693,0.764897,-0.560317,0.161735,-0.273545,1.139701,-0.790251,-0.808936
747,969106027,0.761327,-0.552529,0.174983,-0.290657,0.566589,-0.859355,-1.415235
748,969139361,0.752412,-0.545916,0.187579,-0.317293,-0.077237,-0.692274,-1.449797
749,969172695,0.740081,-0.537847,0.197698,-0.352029,-0.675045,0.039801,-0.870049
750,969206029,0.725168,-0.526579,0.203876,-0.394069,-1.266181,-0.402697,-1.101085
751,969239363,0.703718,-0.518171,0.208489,-0.439114,-1.781496,0.322982,-1.445850
752,969272697,0.676721,-0.514128,0.211508,-0.482695,-2.323883,0.793545,-0.394583
753,969306031,0.652037,-0.506579,0.206574,-0.524938,-2.612914,1.272218,0.492588
754,969339365,0.630641,-0.497590,0.192578,-0.563575,-3.500550,1.616479,-0.468710
755,969372699,0.605657,-0.497854,0.183073,-0.593139,-2.201979,2.265701,2.216455
756,969406033,0.598629,-0.483935,0.163317,-0.617079,-3.370763,1.954745,3.190892
757,969439367,0.599018,-0.468535,0.148094,-0.632241,-2.413602,1.508746,1.623284
758,969472701,0.596659,-0.462595,0.149521,-0.638479,-1.782081,1.733657,0.702225
759,969506035,0.590036,-0.467351,0.166552,-0.636953,-2.164035,2.291354,0.335613
760,969539369,0.585277,-0.474896,0.186023,-0.630340,-2.365991,3.054463,1.051816
761,969572703,0.588800,-0.478457,0.198465,-0.620494,-2.486975,3.044664,1.134668
762,969606037,0.600241,-0.477733,0.202825,-0.608566,-2.333663,2.920029,1.263395
763,969639371,0.616590,-0.476168,0.204488,-0.592684,-1.945806,2.340783,1.111357
764,969672705,0.634544,-0.476406,0.208410,-0.571808,-1.722961,1.511738,0.735404
765,969706039,0.653327,-0.478830,0.214248,-0.545886,-2.143069,0.650339,0.853037
766,969739373,0.673737,-0.480967,0.218733,-0.516636,-2.091376,-0.046071,1.005439
767,969772707,0.695723,-0.481000,0.220254,-0.485907,-1.648116,-0.662911,0.461024
768,969806041,0.715728,-0.482395,0.221464,-0.453863,-1.118640,-0.952652,0.218318
769,969839375,0.733780,-0.485696,0.221680,-0.420158,-1.606803,-1.442114,0.578938
770,969872709,0.752583,-0.487088,0.216408,-0.386705,-0.951494,-1.420814,0.307354
771,969906043,0.770918,-0.486776,0.206679,-0.355002,-0.172542,-1.194476,-0.721884
772,969939377,0.782269,-0.493790,0.197536,-0.324369,-0.045423,-1.148212,-2.181545
773,969972711,0.784035,-0.511378,0.189451,-0.296477,0.118289,-1.213269,-1.640589
774,970006045,0.780854,-0.531896,0.178903,-0.274513,0.945938,-0.961649,-2.017383
775,970039379,0.772658,-0.555476,0.166394,-0.258394,1.557111,-0.958773,-2.638652
776,970072713,0.757221,-0.584614,0.152040,-0.248466,2.340574,-1.122450,-2.152092
777,970106047,0.742387,-0.608336,0.132018,-0.247727,2.908792,-0.769513,-1.341060
778,970139381,0.729393,-0.625618,0.108405,-0.254646,3.672064,-0.624496,-0.972299
779,970172715,0.718332,-0.637407,0.084128,-0.265786,3.803724,-0.433976,-0.113222
780,970206049,0.709626,-0.644692,0.063054,-0.277193,3.708779,-0.350009,0.994706
781,970239383,0.705477,-0.647119,0.048581,-0.284933,3.569227,-0.822530,1.060462
782,970272717,0.701886,-0.651407,0.043132,-0.284908,2.962025,-1.237725,0.998463
783,970306051,0.696721,-0.660492,0.044851,-0.276272,3.221251,-0.872135,1.304899
784,970339385,0.694816,-0.667941,0.048499,-0.262189,3.194269,-0.523735,1.722227
785,970372719,0.700064,-0.668386,0.051322,-0.246058,3.365408,-0.530344,1.474740
786,970406053,0.707558,-0.665292,0.055978,-0.231564,2.866356,-0.510240,0.906368
787,970439387,0.713413,-0.661795,0.063600,-0.221433,1.914155,-0.045002,0.536098
788,970472721,0.713904,-0.661069,0.075795,-0.218155,1.692411,0.464489,0.174594
789,970506055,0.707386,-0.663749,0.094592,-0.223837,1.337783,0.997080,-0.847524
790,970539389,0.693276,-0.669420,0.119315,-0.238783,0.470765,0.788400,-1.541211
791,970572723,0.676488,-0.672535,0.145202,-0.262650,-0.022224,0.623692,-0.376684
792,970606057,0.664999,-0.665615,0.166887,-0.294771,-0.293207,0.361201,0.351855
793,970639391,0.655200,-0.653130,0.184225,-0.331969,-0.353593,-0.059041,-0.990272
794,970672725,0.639837,-0.642561,0.199647,-0.371314,-0.459036,-0.191584,-0.600812
795,970706059,0.628589,-0.625693,0.207362,-0.412788,-0.972731,-0.234949,1.210926
796,970739393,0.624972,-0.600977,0.203727,-0.454687,-1.507664,-0.655418,-0.096740
797,970772727,0.617690,-0.580236,0.196645,-0.493076,-0.930056,-0.372505,-0.868895
798,970806061,0.604098,-0.565606,0.189814,-0.528332,-1.255033,-0.394150,-0.714735
799,970839395,0.583685,-0.558550,0.186317,-0.559131,-2.069001,-0.622715,-0.161927
800,970872729,0.559745,-0.557242,0.185332,-0.584660,-2.561382,-0.396193,1.034962
801,970906063,0.533758,-0.560857,0.191764,-0.603139,-2.021743,-0.525625,1.585295
802,970939397,0.510311,-0.565018,0.203936,-0.615432,-2.597039,0.977432,2.109080
803,970972731,0.494592,-0.566647,0.213154,-0.623590,-2.260760,1.230591,1.349722
804,971006065,0.485828,-0.566511,0.217962,-0.628917,-2.044147,1.655681,0.657017
805,971039399,0.478971,-0.568425,0.221849,-0.631087,-1.529054,2.202564,0.304090
806,971072733,0.479272,-0.568055,0.218349,-0.632411,-1.557813,2.503599,0.050015
807,971106067,0.482348,-0.569028,0.213997,-0.630683,-1.567668,3.015266,-0.148458
808,971139401,0.489834,-0.569569,0.206894,-0.626782,-1.769413,2.572134,-0.091243
809,971172735,0.501511,-0.569578,0.198218,-0.620310,-1.917041,1.966626,0.823778
810,971206069,0.519088,-0.567274,0.186646,-0.611489,-2.254461,1.506931,1.109684
811,971239403,0.540471,-0.564390,0.175144,-0.598905,-2.286653,1.030128,0.930346
812,971272737,0.564587,-0.561821,0.164786,-0.581766,-2.390316,0.478945,0.779858
813,971306071,0.591514,-0.559354,0.154766,-0.559723,-2.474808,-0.158962,0.895286
814,971339405,0.620804,-0.556771,0.144503,-0.532669,-2.096421,-0.773025,0.455489
815,971372739,0.650036,-0.555741,0.135693,-0.500202,-1.838030,-1.218896,0.696274
816,971406073,0.679067,-0.555264,0.128774,-0.462575,-1.245660,-1.724177,0.717542
817,971439407,0.706739,-0.554935,0.123981,-0.420958,-0.822692,-1.698200,0.455450
818,971472741,0.733242,-0.552906,0.119473,-0.377341,-0.134170,-1.813838,0.462464
819,971506075,0.755113,-0.552852,0.116892,-0.332420,0.309356,-1.730503,-0.254461
820,971539409,0.772838,-0.554260,0.113537,-0.287465,0.137472,-0.927312,-0.129469
821,971572743,0.785255,-0.558804,0.109712,-0.243075,0.416237,-1.338031,-0.410460
822,971606077,0.792683,-0.566194,0.102996,-0.201191,0.135258,-1.515537,-0.931841
823,971639411,0.801030,-0.568943,0.089727,-0.163135,0.538297,-1.041292,0.174999
824,971672745,0.813394,-0.562518,0.072492,-0.129295,0.777072,-1.151462,-0.690549
825,971706079,0.817180,-0.564974,0.056069,-0.099426,0.306388,-0.247302,-1.918984
826,971739413,0.811055,-0.578577,0.039549,-0.076704,0.619632,-0.076630,-1.207345
827,971772747,0.804736,-0.590122,0.020022,-0.061349,1.076296,-0.694557,-0.444963
828,971806081,0.800908,-0.596571,-0.002888,-0.051474,1.853403,-0.597525,-0.757242
829,971839415,0.799649,-0.598105,-0.028188,-0.045227,2.291333,-0.587519,-0.386716
830,971872749,0.800643,-0.595268,-0.055134,-0.039932,2.753824,-0.591860,-0.632135
831,971906083,0.801519,-0.591272,-0.082451,-0.034275,3.247577,-0.151413,-0.426071
832,971939417,0.804079,-0.583892,-0.108719,-0.026737,3.120406,-0.450283,-0.591964
833,971972751,0.804873,-0.577882,-0.134110,-0.015931,3.430829,-0.564753,-0.759755
834,972006085,0.803364,-0.574164,-0.157953,-0.000793,3.453492,-0.256435,-0.013717
835,972039419,0.801782,-0.569065,-0.181449,0.019888,2.632859,0.012955,0.216752
836,972072753,0.799588,-0.562225,-0.206181,0.045386,2.152104,0.660654,0.391914
837,972106087,0.795102,-0.556438,-0.230331,0.071735,1.859345,0.894981,0.527795
838,972139421,0.788106,-0.552210,-0.254097,0.096935,1.042149,1.074381,0.471654
839,972172755,0.779591,-0.548615,-0.277370,0.119722,0.750803,1.202891,0.699485
840,972206089,0.769904,-0.546548,-0.298716,0.138959,0.350845,1.310541,0.948142
841,972239423,0.759141,-0.547116,-0.316854,0.154856,-0.138121,1.867980,1.267562
842,972272757,0.750246,-0.547282,-0.330283,0.168925,-0.313516,1.833858,1.203378
843,972306091,0.742532,-0.548875,-0.338966,0.180259,0.527469,1.935038,0.772326
844,972339425,0.734380,-0.554532,-0.343488,0.187631,0.510652,2.365214,1.090799
845,972372759,0.731688,-0.557635,-0.340940,0.193503,0.562861,2.504833,1.521624
846,972406093,0.739406,-0.552529,-0.328991,0.199407,1.103056,2.528980,0.644723
847,972439427,0.751332,-0.547291,-0.311071,0.198031,1.564644,2.387712,-1.015881
848,972472761,0.760432,-0.549888,-0.291803,0.185003,1.838724,1.916022,-1.047142
849,972506095,0.767797,-0.556506,-0.273069,0.161959,1.766950,1.468421,-1.479657
850,972539429,0.775520,-0.562076,-0.255166,0.132428,1.887943,0.347675,0.292049
851,972572763,0.792682,-0.551625,-0.238559,0.102291,1.289183,-0.281705,0.528966
852,972606097,0.823829,-0.514218,-0.226596,0.074486,1.106804,-1.234175,0.820024
853,972639431,0.862236,-0.452926,-0.221102,0.050285,0.521041,-2.773605,0.033129
854,972672765,0.893794,-0.386812,-0.225587,0.025028,0.515103,-1.269671,-2.423619
855,972706099,0.906101,-0.350808,-0.236280,-0.009708,0.409860,0.269041,-1.867178
856,972739433,0.906051,-0.339586,-0.247204,-0.051491,-0.076033,-0.585801,-0.662139
857,972772767,0.900855,-0.334772,-0.258965,-0.096610,-0.250233,-0.552824,-1.399888
858,972806101,0.891406,-0.332560,-0.272295,-0.143750,-0.173467,-0.498771,-1.636152
859,972839435,0.880091,-0.328868,-0.285253,-0.189540,-1.781197,-2.624256,2.258361
860,972872769,0.874945,-0.306723,-0.299317,-0.225413,-2.296390,-1.893695,1.931684
861,972906103,0.870455,-0.281821,-0.312393,-0.255548,-0.678666,-0.174238,0.064707
862,972939437,0.860962,-0.275371,-0.317007,-0.287107,-0.907259,-0.174904,1.018111
863,972972771,0.848486,-0.285272,-0.312035,-0.318331,-1.384866,-0.595946,1.464159
864,973006105,0.837443,-0.299217,-0.300966,-0.344364,-2.713691,-1.066689,2.237054
865,973039439,0.831806,-0.307570,-0.287819,-0.361481,-2.626796,-0.896699,2.099591
866,973072773,0.829562,-0.314970,-0.271664,-0.372596,-1.931900,-0.268066,1.233323
867,973106107,0.830932,-0.318847,-0.254405,-0.378384,-1.608262,0.104967,0.839399
868,973139441,0.835842,-0.319564,-0.236308,-0.378700,-2.033765,-0.381165,1.188354
869,973172775,0.844458,-0.316159,-0.218651,-0.373007,-1.942546,-0.612806,1.032239
870,973206109,0.856422,-0.309051,-0.201751,-0.361019,-2.031005,-1.032785,1.359786
871,973239443,0.870624,-0.301491,-0.183271,-0.342838,-1.502513,-0.639606,0.850033
872,973272777,0.881117,-0.310031,-0.156704,-0.320883,-0.894242,0.052236,-0.073402
873,973306111,0.883388,-0.343954,-0.120957,-0.294448,-1.186577,-0.535675,-0.951909
874,973339445,0.879458,-0.390315,-0.084705,-0.258924,-2.569946,-2.450884,-0.831973
875,973372779,0.877392,-0.425540,-0.058025,-0.213868,-2.911782,-3.541010,0.671972
876,973406113,0.883132,-0.437659,-0.045264,-0.162763,-1.934467,-3.042545,-0.460174
877,973439447,0.891343,-0.437680,-0.043400,-0.109855,-0.928873,-2.393414,-1.744492
878,973472781,0.898150,-0.433237,-0.050213,-0.055849,-0.066688,-1.446867,-2.078688
879,973506115,0.899668,-0.432016,-0.062928,-0.003003,0.459736,-0.013982,-2.915462
880,973539449,0.892477,-0.441732,-0.079878,0.044570,0.646730,-0.225307,-1.128077
881,973572783,0.881655,-0.453021,-0.100449,0.085871,1.336929,-0.568211,0.808711
882,973606117,0.874596,-0.453168,-0.121795,0.122046,1.634324,-0.219259,1.030021
883,973639451,0.869125,-0.448797,-0.141696,0.152095,1.403857,0.907120,-0.038699
884,973672785,0.859500,-0.452971,-0.160199,0.174418,1.411514,0.853834,0.590659
885,973706119,0.848028,-0.461922,-0.176184,0.190904,1.697978,0.602179,0.589528
886,973739453,0.834305,-0.476050,-0.190258,0.202787,1.018849,0.915135,-0.292291
887,973772787,0.820727,-0.491092,-0.201771,0.211029,1.122789,0.535659,1.104952
888,973806121,0.813984,-0.496331,-0.208642,0.218087,1.153889,0.353695,0.749990
889,973839455,0.810593,-0.497567,-0.213585,0.223059,0.819017,0.669613,-0.844035
890,973872789,0.804644,-0.504737,-0.219139,0.223101,0.593861,0.764607,-0.152312
891,973906123,0.801000,-0.509414,-0.223590,0.221158,0.836844,0.693663,0.463362
892,973939457,0.799300,-0.511881,-0.227502,0.217595,0.567770,0.999885,-0.473523
893,973972791,0.794938,-0.519148,-0.232860,0.210579,0.556354,1.176769,-0.684264
894,974006125,0.790464,-0.527237,-0.238455,0.200837,1.256764,1.132533,0.388190
895,974039459,0.790114,-0.529296,-0.243186,0.190879,1.129762,1.264040,-0.113645
896,974072793,0.790296,-0.530697,-0.248108,0.179565,1.405596,1.827625,-0.693650
897,974106127,0.788592,-0.535273,-0.253139,0.165934,1.844039,1.762828,-0.324211
898,974139461,0.785498,-0.541664,-0.258393,0.151114,2.103296,1.683765,-0.496855
899,974172795,0.779799,-0.551340,-0.263341,0.136372,2.242754,1.973790,0.236130
900,974206129,0.772979,-0.562251,-0.265982,0.125059,2.389863,2.126181,0.816399
901,974239463,0.766017,-0.572885,-0.266024,0.119418,2.138170,2.180579,1.240765
902,974272797,0.761266,-0.580065,-0.263792,0.120083,2.127887,2.001470,1.619584
903,974306131,0.760698,-0.581931,-0.258677,0.125653,2.384311,2.409118,1.558437
904,974339465,0.761353,-0.582935,-0.250878,0.132652,2.727648,2.005501,0.872667
905,974372799,0.761499,-0.585690,-0.240772,0.138286,2.866353,1.389224,0.756880
906,974406133,0.761289,-0.590132,-0.229017,0.140510,2.684990,1.002807,0.055863
907,974439467,0.760966,-0.595921,-0.216854,0.137079,2.552382,0.403025,-0.428137
908,974472801,0.761381,-0.601863,-0.204413,0.127603,2.868252,-0.329663,-0.488842
909,974506135,0.763723,-0.606148,-0.192415,0.110891,1.947558,-0.321598,-1.051313
910,974539469,0.770058,-0.606179,-0.179241,0.086252,1.089341,-0.159714,-0.511328
911,974572803,0.782633,-0.598059,-0.164323,0.053080,0.619299,-1.061334,-0.934086
912,974606137,0.798257,-0.582871,-0.151359,0.012103,0.109888,-2.005919,-0.849993
913,974639471,0.815724,-0.559219,-0.143807,-0.034598,-0.538770,-1.566305,-1.912395
914,974672805,0.807787,-0.566156,-0.136165,-0.091732,0.907411,-0.785614,-4.181062
915,974706139,0.763599,-0.615422,-0.117833,-0.155871,-0.478925,-2.763543,0.068718
916,974739473,0.712678,-0.661412,-0.094491,-0.213786,-2.377879,-2.389438,0.902340
917,974772807,0.680167,-0.681058,-0.076100,-0.260289,-4.445088,-1.765674,3.124825
918,974806141,0.680563,-0.666452,-0.073883,-0.295341,-5.414820,-0.905628,2.635755
919,974839475,0.704329,-0.626416,-0.089724,-0.321685,-3.873103,-0.143697,-0.420042
920,974872809,0.732074,-0.578389,-0.112242,-0.341971,-3.652116,0.179410,1.486250
921,974906143,0.767028,-0.517523,-0.140256,-0.352385,-3.439762,0.156245,2.195012
922,974939477,0.798479,-0.459562,-0.163048,-0.353069,-2.019143,-0.009488,1.605501
923,974972811,0.817739,-0.425553,-0.168228,-0.349164,-1.337103,0.251482,1.036798
924,975006145,0.828190,-0.414914,-0.156665,-0.342655,-2.046539,0.765754,0.978189
925,975039479,0.836899,-0.415729,-0.134845,-0.329536,-4.068461,0.636759,1.519769
926,975072813,0.844707,-0.422808,-0.108981,-0.309573,-3.584387,0.427404,0.113111
927,975106147,0.849626,-0.436917,-0.081192,-0.283998,-3.679742,-0.051037,-0.130987
928,975139481,0.852422,-0.454482,-0.054675,-0.252672,-3.477025,-0.488489,-0.280328
929,975172815,0.849724,-0.479219,-0.029753,-0.217808,-2.723693,-0.681663,-0.537634
930,975206149,0.841513,-0.508609,-0.008999,-0.181935,-2.145203,-0.574906,-0.642948
931,975239483,0.827397,-0.541897,0.006047,-0.147420,-1.304026,-1.179858,-0.465606
932,975272817,0.814167,-0.568789,0.012225,-0.116056,-0.689189,-1.458856,0.291358
933,975306151,0.810993,-0.578274,0.008264,-0.088484,-0.047308,-1.234541,-0.644837
934,975339485,0.808797,-0.584386,-0.001800,-0.065917,0.597860,-0.737828,-1.949934
935,975372819,0.797790,-0.600582,-0.015347,-0.051042,1.366829,-0.490803,-2.218148
936,975406153,0.779596,-0.623764,-0.031994,-0.046186,1.855955,-0.374003,-1.537151
937,975439487,0.762989,-0.642482,-0.051407,-0.049308,2.974934,-0.205710,-0.271851
938,975472821,0.752835,-0.651963,-0.070259,-0.057063,3.631985,0.416698,0.793443
939,975506155,0.753082,-0.648508,-0.088615,-0.066791,3.407798,0.582283,0.415738
940,975539489,0.752736,-0.645254,-0.105533,-0.076853,4.017451,0.719418,-0.564487
941,975572823,0.744703,-0.650857,-0.119274,-0.087091,3.950395,1.022173,-0.188432
942,975606157,0.734990,-0.658763,-0.130096,-0.094364,3.440683,1.074679,1.277142
943,975639491,0.737219,-0.654594,-0.139537,-0.092486,3.056334,0.738750,1.634869
944,975672825,0.740990,-0.650016,-0.146491,-0.083435,3.085916,0.514747,0.333644
945,975706159,0.738716,-0.653328,-0.150112,-0.070254,2.718197,0.791208,1.046715
946,975739493,0.735807,-0.657983,-0.151068,-0.053237,2.404750,0.535308,1.361810
947,975772827,0.732530,-0.662970,-0.150564,-0.034785,2.239409,0.901059,1.091049
948,975806161,0.728754,-0.668126,-0.149119,-0.017236,2.469112,0.764725,0.830974
949,975839495,0.723756,-0.674257,-0.146839,-0.001457,3.209576,0.686476,0.347799
950,975872829,0.714899,-0.684422,-0.142795,0.010203,2.996607,0.859365,0.142946
951,975906163,0.704091,-0.696630,-0.136692,0.016955,2.828273,0.102330,-0.281309
952,975939497,0.691167,-0.710879,-0.129021,0.017359,1.726765,0.604043,0.042726
953,975972831,0.682954,-0.720597,-0.119194,0.010770,1.039147,0.320944,-0.325819
954,976006165,0.676493,-0.728536,-0.107627,-0.004099,0.529477,0.565859,-0.392487
955,976039499,0.675365,-0.730852,-0.094763,-0.027682,-0.229736,0.898461,-1.095613
956,976072833,0.679458,-0.726697,-0.081478,-0.060150,-0.375323,0.754919,-1.389833
957,976106167,0.690777,-0.712726,-0.069597,-0.100065,-0.841988,0.465741,-0.485863
958,976139501,0.713994,-0.681946,-0.063099,-0.145566,-1.269961,0.150791,-0.756556
959,976172835,0.742270,-0.638103,-0.064410,-0.194216,-1.490426,-0.612648,-0.107957
960,976206169,0.768480,-0.586036,-0.075850,-0.245470,-1.372144,-0.415246,-1.502741
961,976239503,0.783969,-0.536472,-0.094181,-0.297873,-1.364606,-0.018183,-1.453950
962,976272837,0.784654,-0.499392,-0.114478,-0.349041,-1.375890,-0.162195,-1.374585
963,976306171,0.772389,-0.479707,-0.128367,-0.396014,-2.060835,-0.498786,1.585428
964,976339505,0.757371,-0.466833,-0.136417,-0.435724,-2.625410,-0.247284,2.637419
965,976372839,0.745651,-0.452810,-0.142373,-0.467659,-3.084330,-0.146382,2.161444
966,976406173,0.737937,-0.438892,-0.146267,-0.491363,-3.285434,-0.031919,2.214835
967,976439507,0.736086,-0.423959,-0.149529,-0.506049,-3.253024,-0.042578,1.647563
968,976472841,0.741234,-0.405696,-0.154295,-0.512040,-2.692716,0.347476,1.180469
969,976506175,0.751458,-0.386218,-0.157607,-0.511190,-2.610675,0.587055,0.786913
970,976539509,0.763415,-0.370932,-0.155110,-0.505525,-2.661739,0.837605,0.409326
971,976572843,0.775398,-0.364092,-0.143462,-0.495603,-2.459390,0.692358,0.693089
972,976606177,0.787790,-0.365610,-0.122600,-0.480306,-3.055680,0.510459,1.043972
973,976639511,0.802195,-0.370732,-0.096485,-0.457975,-2.861150,0.911142,1.341615
974,976672845,0.816298,-0.381034,-0.063785,-0.429431,-2.401731,1.355993,1.145927
975,976706179,0.825612,-0.402001,-0.023564,-0.395239,-2.427755,1.725423,0.057935
976,976739513,0.826754,-0.435576,0.019083,-0.355521,-2.543113,1.376509,-1.120275
977,976772847,0.819592,-0.477323,0.057218,-0.311715,-2.641127,0.554436,-0.119550
978,976806181,0.817531,-0.501974,0.078932,-0.271005,-1.574774,1.399704,0.848099
979,976839515,0.825427,-0.504030,0.086023,-0.239231,-0.222688,0.517611,-0.594101
980,976872849,0.831481,-0.503443,0.085698,-0.218743,0.903753,0.658476,-2.846208
981,976906183,0.822603,-0.522179,0.084021,-0.208811,2.274899,0.096113,-3.605669
982,976939517,0.797574,-0.559749,0.081713,-0.209497,3.424704,-0.897218,-2.171392
983,976972851,0.770338,-0.594654,0.075713,-0.217353,4.268654,-2.714278,0.534085
984,977006185,0.754766,-0.612849,0.065605,-0.224608,5.451971,-3.269167,2.137292
985,977039519,0.746974,-0.623193,0.056003,-0.224794,5.654835,-2.783804,0.388984
986,977072853,0.738259,-0.637309,0.048595,-0.215540,4.851821,-2.143136,-0.648523
987,977106187,0.725494,-0.657578,0.043100,-0.198496,4.307620,-1.406052,0.101815
988,977139521,0.717535,-0.672173,0.036344,-0.178926,3.150832,-1.138123,1.344808
989,977172855,0.713088,-0.682120,0.028753,-0.159370,1.825307,-0.678269,0.366752
990,977206189,0.705678,-0.694208,0.021943,-0.140074,1.255865,-0.133303,0.469715
991,977239523,0.696235,-0.706944,0.017803,-0.123197,1.022136,1.216118,0.691958
992,977272857,0.687850,-0.717180,0.018652,-0.110342,0.958713,1.793092,0.553115
993,977306191,0.682156,-0.723419,0.025797,-0.103302,0.858255,2.245300,0.082273
994,977339525,0.677656,-0.726907,0.040142,-0.103857,0.997999,2.109972,0.174737
995,977372859,0.674602,-0.727131,0.060075,-0.112215,1.208154,2.068387,0.229002
996,977406193,0.679975,-0.717133,0.081926,-0.129039,1.137006,1.314361,0.499585
997,977439527,0.692983,-0.696862,0.101813,-0.154274,0.804536,0.012204,-0.834976
998,977472861,0.704145,-0.675195,0.117718,-0.185586,0.345687,0.090260,-0.951224
999,977506195,0.718412,-0.647061,0.125568,-0.222346,-0.087594,0.482209,-0.827229
1000,977539529,0.737856,-0.608623,0.122066,-0.265057,-0.900783,-0.301448,-1.117053
1001,977572863,0.757486,-0.564825,0.107594,-0.309225,-1.719701,-1.245998,-0.183681
1002,977606197,0.773880,-0.520822,0.084199,-0.350391,-2.117417,-0.787822,-0.190073
1003,977639531,0.784313,-0.481160,0.056903,-0.387439,-1.845004,0.047908,-0.986104
1004,977672865,0.780710,-0.463807,0.041681,-0.416709,-2.028444,-0.193864,0.175125
1005,977706199,0.769360,-0.462798,0.039803,-0.438551,-3.525463,0.014715,2.371437
1006,977739533,0.765647,-0.455517,0.036885,-0.452700,-4.332915,-0.069758,2.414078
1007,977772867,0.768745,-0.446002,0.034674,-0.457077,-3.988294,0.420441,1.187979
1008,977806201,0.774878,-0.440352,0.037243,-0.451969,-3.862728,0.981528,0.929893
1009,977839535,0.780500,-0.443087,0.046947,-0.438518,-3.935628,1.316705,0.168039
1010,977872869,0.784329,-0.454277,0.062295,-0.417838,-3.458326,1.314133,-0.199854
1011,977906203,0.786747,-0.470866,0.079194,-0.391219,-3.662510,0.879888,-0.028214
1012,977939537,0.789278,-0.488669,0.092057,-0.360247,-3.175274,0.674383,-0.575027
1013,977972871,0.787816,-0.512798,0.101894,-0.325592,-2.468952,0.376306,-1.030482
1014,978006205,0.777804,-0.548573,0.109950,-0.286370,-1.656099,-0.425492,-0.041698
1015,978039539,0.759086,-0.591529,0.114135,-0.246705,-0.845120,-0.260481,0.013015
1016,978072873,0.741668,-0.626019,0.109920,-0.214371,-0.444822,0.047797,0.105189
1017,978106207,0.733349,-0.644545,0.098290,-0.192633,0.072618,0.024360,-0.015980
1018,978139541,0.732781,-0.650491,0.083088,-0.181655,0.909120,-0.153186,-0.133943
1019,978172875,0.725554,-0.660567,0.070927,-0.179445,2.256441,-0.480542,-1.813432
1020,978206209,0.701152,-0.685921,0.065048,-0.183507,3.352322,-1.030988,-0.948310
1021,978239543,0.676260,-0.708737,0.061027,-0.191437,4.209171,-0.944613,1.040210
1022,978272877,0.665630,-0.717044,0.054684,-0.199506,4.232108,-1.252137,1.400711
1023,978306211,0.661662,-0.720633,0.047106,-0.201693,4.611392,-1.736415,0.936571
1024,978339545,0.658896,-0.725682,0.040458,-0.193943,4.850206,-0.702889,1.360051
1025,978372879,0.664845,-0.724536,0.033821,-0.178584,4.279696,-0.740182,1.026577
1026,978406213,0.666249,-0.728270,0.030081,-0.157600,3.819101,-0.839440,0.197795
1027,978439547,0.658745,-0.739525,0.028408,-0.135498,2.660164,-0.647498,-0.324573
1028,978472881,0.648353,-0.752003,0.026002,-0.116027,1.196592,-0.351134,0.028125
1029,978506215,0.634598,-0.766095,0.024111,-0.099052,1.531788,0.006726,-0.037872
1030,978539549,0.616826,-0.781966,0.025264,-0.086168,1.353020,0.764674,-0.299505
1031,978572883,0.603496,-0.792953,0.030353,-0.078136,1.337025,0.682083,0.319301
1032,978606217,0.596425,-0.798070,0.039583,-0.076176,0.847053,1.722667,-0.219523
1033,978639551,0.593153,-0.799064,0.053654,-0.082433,0.830220,1.195603,-0.484403
1034,978672885,0.594991,-0.794748,0.070512,-0.096945,0.104066,1.703180,0.077245
1035,978706219,0.609269,-0.779040,0.087335,-0.119453,-0.071460,0.868471,0.837892
1036,978739553,0.631294,-0.754242,0.102492,-0.148630,-0.165355,-0.167130,0.334823
1037,978772887,0.655621,-0.723824,0.113036,-0.182951,-0.498748,0.198005,-0.614131
1038,978806221,0.679971,-0.689047,0.117781,-0.221337,-0.453061,0.301834,-0.622188
1039,978839555,0.702228,-0.651456,0.116210,-0.262651,-0.780581,-0.362500,-0.211858
1040,978872889,0.721761,-0.612248,0.107922,-0.304261,-1.540631,-0.210221,0.542973
1041,978906223,0.743862,-0.565454,0.089322,-0.344907,-1.763128,0.282435,0.045534
1042,978939557,0.764496,-0.514681,0.062586,-0.383067,-2.205618,0.458245,-0.241590
1043,978972891,0.780466,-0.465710,0.032918,-0.415826,-2.514118,0.476987,1.009077
1044,979006225,0.792631,-0.420871,0.003099,-0.441138,-2.059170,0.618340,-0.261827
1045,979039559,0.797211,-0.392401,-0.016396,-0.458493,-2.169817,0.873682,0.427657
1046,979072893,0.797179,-0.379676,-0.023233,-0.468851,-2.476555,0.791613,1.189153
1047,979106227,0.795016,-0.379726,-0.018556,-0.472675,-2.548404,0.857308,0.203029
1048,979139561,0.791864,-0.389144,-0.005624,-0.470634,-2.795958,1.059100,-0.142833
1049,979172895,0.789832,-0.401306,0.010923,-0.463690,-3.110475,1.014815,0.664499
1050,979206229,0.791590,-0.409930,0.026981,-0.452353,-2.910710,0.797156,0.753139
1051,979239563,0.794885,-0.418787,0.045063,-0.436754,-2.596423,0.762189,0.481696
1052,979272897,0.795372,-0.434918,0.069129,-0.416484,-2.509623,0.632773,0.453019
1053,979306231,0.793062,-0.457711,0.095846,-0.390352,-2.574485,0.327904,0.641787
1054,979339565,0.789603,-0.483090,0.120235,-0.358752,-1.922433,-0.091048,0.548569
1055,979372899,0.784557,-0.510282,0.140554,-0.323010,-1.698310,-0.267416,0.534967
1056,979406233,0.781467,-0.533023,0.151906,-0.286580,-1.349637,-0.305528,0.069446
1057,979439567,0.778930,-0.552488,0.155435,-0.252732,-1.012543,-0.467458,-0.821004
1058,979472901,0.776956,-0.568804,0.152156,-0.222841,-1.112662,-0.993088,0.055854
1059,979506235,0.782079,-0.573482,0.139963,-0.199723,-0.198377,-0.768994,-0.131909
1060,979539569,0.789811,-0.572292,0.123277,-0.183008,0.178262,-0.896651,-1.417335
1061,979572903,0.795717,-0.571433,0.103131,-0.172252,0.917433,-0.909403,-1.030649
1062,979606237,0.799413,-0.571456,0.080461,-0.167069,1.566380,-0.792814,-1.472095
1063,979639571,0.801840,-0.571296,0.054157,-0.166580,2.366395,-0.616733,-1.320867
1064,979672905,0.804087,-0.568882,0.025576,-0.170798,3.969188,-0.501919,-0.597432
1065,979706239,0.803748,-0.567800,-0.000119,-0.177766,5.033640,-0.438602,0.205386
1066,979739573,0.800393,-0.570239,-0.018256,-0.184048,5.269030,-0.892717,0.785683
1067,979772907,0.798200,-0.573426,-0.028101,-0.182424,5.082660,-1.204932,1.926744
1068,979806241,0.800276,-0.573881,-0.031426,-0.170995,4.957302,0.081867,1.857563
1069,979839575,0.803681,-0.573985,-0.028359,-0.154412,4.495081,0.290485,0.952755
1070,979872909,0.802067,-0.581004,-0.020137,-0.136846,3.405784,-0.072648,0.513945
1071,979906243,0.796905,-0.591957,-0.009279,-0.120220,2.893305,0.631522,0.846437
1072,979939577,0.790038,-0.603466,0.005004,-0.107946,2.547037,0.742958,-0.126705
1073,979972911,0.779505,-0.617638,0.022743,-0.101920,1.890312,0.146019,0.913415
1074,980006245,0.772772,-0.625077,0.041235,-0.102035,2.209723,-0.033308,1.067339
1075,980039579,0.769369,-0.626202,0.061983,-0.110039,1.816551,-0.089340,-0.526318
1076,980072913,0.763124,-0.627862,0.085822,-0.126788,1.052289,-0.769883,-0.706698
1077,980106247,0.755014,-0.628176,0.109982,-0.152512,0.243671,-0.926489,-1.076399
1078,980139581,0.749000,-0.621826,0.131102,-0.187490,-0.493526,-0.928304,-0.919849
1079,980172915,0.747163,-0.605779,0.145632,-0.231472,-1.436899,-0.467876,-1.138366
1080,980206249,0.748220,-0.581064,0.150487,-0.282655,-2.309713,-0.368522,-1.175421
1081,980239583,0.749050,-0.551027,0.143886,-0.338523,-2.865240,0.660254,-1.760564
1082,980272917,0.749309,-0.518578,0.126820,-0.391839,-3.977313,0.224933,0.565972
1083,980306251,0.746898,-0.489160,0.104586,-0.438105,-3.555811,1.025887,-0.207068
1084,980339585,0.739829,-0.468890,0.085708,-0.474825,-3.269147,1.851680,0.741053
1085,980372919,0.730967,-0.458129,0.076724,-0.499927,-3.529811,1.306692,3.415815
1086,980406253,0.724321,-0.452523,0.076702,-0.514498,-3.453542,1.301696,1.742094
1087,980439587,0.720568,-0.452165,0.083170,-0.519058,-3.682907,0.831616,0.551455
1088,980472921,0.722062,-0.451834,0.089537,-0.516201,-3.548506,1.360400,1.487801
1089,980506255,0.732988,-0.445018,0.089269,-0.506681,-3.194145,0.637965,-0.141594
1090,980539589,0.748488,-0.435741,0.085675,-0.492508,-2.354985,1.054540,0.270165
1091,980572923,0.766407,-0.425735,0.081177,-0.474118,-1.980320,0.734025,-0.156157
1092,980606257,0.781280,-0.422981,0.081533,-0.451718,-1.719113,0.620736,0.283128
1093,980639591,0.792527,-0.428676,0.087449,-0.424853,-1.654395,0.616325,0.511117
1094,980672925,0.800301,-0.442329,0.097575,-0.392874,-1.770200,0.182984,0.669454
1095,980706259,0.807323,-0.457514,0.107143,-0.356986,-1.628420,-0.137270,1.065077
1096,980739593,0.817495,-0.465396,0.111831,-0.320330,-1.082830,-0.060203,1.151134
1097,980772927,0.829566,-0.467462,0.112962,-0.283809,-0.703784,-0.015363,0.173684
1098,980806261,0.836136,-0.476520,0.115188,-0.246058,-0.528657,-0.394319,-0.656463
1099,980839595,0.836080,-0.493274,0.117008,-0.209686,-0.082676,0.078053,-0.873070
1100,980872929,0.830436,-0.515020,0.116203,-0.177864,-0.216078,0.503953,-1.882128
1101,980906263,0.820292,-0.539649,0.110850,-0.153688,0.202154,0.194056,-1.593938
1102,980939597,0.812370,-0.556967,0.099375,-0.141332,0.996685,0.085187,-1.387539
1103,980972931,0.804449,-0.571200,0.083694,-0.139989,1.778273,0.732844,-2.245520
1104,981006265,0.794580,-0.585205,0.067588,-0.147030,3.396250,-0.651796,0.753757
1105,981039599,0.795003,-0.583075,0.048770,-0.160071,3.564304,-0.920130,0.230466
1106,981072933,0.795979,-0.578779,0.031432,-0.174508,4.117496,-0.358030,-0.966766
1107,981106267,0.789030,-0.584730,0.019459,-0.187486,4.170925,-0.767132,0.249608
1108,981139601,0.781063,-0.592699,0.010377,-0.196341,4.013247,-1.024519,0.991395
1109,981172935,0.776235,-0.598477,0.003499,-0.198191,3.700496,-0.958020,1.284285
1110,981206269,0.776066,-0.600213,-0.001077,-0.193580,3.568193,-0.090697,1.529877
1111,981239603,0.775063,-0.604338,-0.000350,-0.184558,3.658614,0.175270,1.355375
1112,981272937,0.776372,-0.605929,0.003608,-0.173470,3.163648,-0.038713,1.878668
1113,981306271,0.778386,-0.606484,0.009402,-0.161903,2.363867,-1.090052,0.544807
1114,981339605,0.779476,-0.608231,0.013548,-0.149322,1.710460,-0.920002,0.195359
1115,981372939,0.780253,-0.609591,0.016538,-0.139069,1.601011,0.626927,0.058365
1116,981406273,0.777822,-0.613452,0.022398,-0.134814,0.631493,1.114241,-0.336281
1117,981439607,0.773058,-0.618767,0.031143,-0.136190,0.140965,-0.396410,0.305063
1118,981472941,0.767935,-0.623164,0.041183,-0.142319,-1.420650,0.808871,0.111956
1119,981506275,0.765272,-0.623564,0.050617,-0.151568,-1.626777,-0.083082,-0.494006
1120,981539609,0.765089,-0.620188,0.059461,-0.162722,-1.905978,0.006892,-0.498905
1121,981572943,0.760131,-0.621175,0.072744,-0.176236,-2.100738,2.243889,0.210594
1122,981606277,0.755177,-0.619572,0.091339,-0.193660,-1.450279,1.553015,0.735356
1123,981639611,0.756227,-0.607857,0.110994,-0.215218,-0.678993,1.198635,0.335793
1124,981672945,0.760908,-0.588509,0.128004,-0.241452,-0.078617,1.260100,-0.591362
1125,981706279,0.768491,-0.561971,0.138123,-0.273023,0.288297,0.334253,-1.049231
1126,981739613,0.775979,-0.531133,0.139896,-0.310148,1.175019,0.619556,-1.006094
1127,981772947,0.783797,-0.493924,0.131454,-0.352746,1.098664,0.840632,-1.446669
1128,981806281,0.788732,-0.456030,0.115129,-0.395845,0.314854,-0.321870,0.127660
1129,981839615,0.788979,-0.423396,0.094331,-0.435153,-0.507918,-0.707168,-0.656681
1130,981872949,0.780682,-0.403902,0.078384,-0.470385,-0.316190,0.403869,0.297213
1131,981906283,0.768815,-0.392167,0.068001,-0.500512,-1.247464,-0.058664,1.193587
1132,981939617,0.753661,-0.390418,0.069276,-0.524194,-1.972273,-0.275264,1.898934
1133,981972951,0.739985,-0.390460,0.075689,-0.542442,-2.389687,0.196784,0.929056
1134,982006285,0.728707,-0.393453,0.086480,-0.553814,-2.932331,0.199177,0.762528
1135,982039619,0.722783,-0.395953,0.096972,-0.558042,-3.507169,0.349840,0.943388
1136,982072953,0.723712,-0.396486,0.103590,-0.555263,-3.591137,0.569666,0.613639
1137,982106287,0.729977,-0.398021,0.108293,-0.544972,-3.108070,0.497946,0.262270
1138,982139621,0.738632,-0.404514,0.115907,-0.526654,-2.686283,0.169022,0.419752
1139,982172955,0.749015,-0.414289,0.125828,-0.501514,-2.800096,0.080532,0.758777
1140,982206289,0.760026,-0.426866,0.136628,-0.470624,-2.428098,-0.153609,0.165311
1141,982239623,0.769851,-0.443328,0.147056,-0.434941,-2.250939,-0.080044,-0.069122
1142,982272957,0.780618,-0.458385,0.152678,-0.396506,-2.002475,0.102459,0.184388
1143,982306291,0.791358,-0.471859,0.154719,-0.356612,-1.366790,-0.004761,0.049304
1144,982339625,0.799159,-0.486951,0.155560,-0.316281,-1.040232,0.169585,-0.085979
1145,982372959,0.803523,-0.504002,0.154652,-0.276449,-1.053388,-0.125888,-0.259013
1146,982406293,0.805837,-0.519983,0.151648,-0.239283,-0.634804,-0.297311,0.482337
1147,982439627,0.812032,-0.525424,0.144011,-0.209292,-0.336114,0.235525,-0.480892
1148,982472961,0.818242,-0.527243,0.132564,-0.186895,-0.055227,0.414950,-1.778867
1149,982506295,0.819656,-0.533966,0.117855,-0.170769,1.004377,-0.027742,-1.150252
1150,982539629,0.819325,-0.541268,0.098299,-0.161495,1.665172,-0.138525,-1.577586
1151,982572963,0.820115,-0.544756,0.073848,-0.158767,2.770347,-0.390536,-0.513226
1152,982606297,0.826233,-0.537884,0.046474,-0.160839,3.492450,-0.479661,0.631602
1153,982639631,0.827770,-0.536474,0.022783,-0.162735,3.978852,-0.751827,-0.952757
1154,982672965,0.823197,-0.543895,0.004034,-0.162842,3.901906,-0.852476,1.104737
1155,982706299,0.822426,-0.545689,-0.011868,-0.160335,3.995811,-0.599928,1.269186
1156,982739633,0.826884,-0.540485,-0.024180,-0.153498,4.113685,-0.818053,1.129726
1157,982772967,0.829186,-0.539558,-0.028890,-0.143183,4.350738,0.057610,0.455956
1158,982806301,0.826186,-0.547306,-0.026657,-0.131039,3.278141,-0.379318,1.026457
1159,982839635,0.824168,-0.553594,-0.022944,-0.117313,3.192562,-0.681908,0.958075
1160,982872969,0.822364,-0.559195,-0.019046,-0.103266,2.384935,0.283458,-0.146341
1161,982906303,0.816858,-0.569494,-0.013976,-0.090739,2.151294,0.156707,0.675089
1162,982939637,0.813030,-0.576288,-0.007746,-0.082602,2.043471,0.117327,0.801287
1163,982972971,0.811354,-0.579030,0.000984,-0.080227,1.197657,0.644143,0.642651
1164,983006305,0.809803,-0.580436,0.012277,-0.084673,0.969730,0.369360,0.083200
1165,983039639,0.805554,-0.584027,0.026280,-0.096507,0.270864,0.590743,-0.659778
1166,983072973,0.795792,-0.592752,0.043146,-0.116218,-0.170925,1.152014,-0.728214
1167,983106307,0.785136,-0.599161,0.062056,-0.143965,-0.483114,1.011490,-0.262341
1168,983139641,0.778068,-0.596506,0.080562,-0.179745,-0.723082,1.037757,-0.980616
1169,983172975,0.771182,-0.588278,0.098472,-0.222529,-0.758919,1.386885,-1.714396
1170,983206309,0.758165,-0.582019,0.117007,-0.269734,-1.014283,0.834444,-1.567522
1171,983239643,0.742469,-0.574676,0.133617,-0.317240,-1.486407,0.315757,-0.336524
1172,983272977,0.731139,-0.558741,0.141131,-0.365151,-1.805798,0.337974,-0.676834
1173,983306311,0.718141,-0.544217,0.144498,-0.408938,-1.700408,-0.075865,-0.433911
1174,983339645,0.696729,-0.541067,0.150933,-0.446143,-1.634015,0.007882,-0.319026
1175,983372979,0.678455,-0.535137,0.153434,-0.479368,-2.657290,0.687177,1.903948
1176,983406313,0.664447,-0.527821,0.154037,-0.506158,-2.284807,0.030150,1.676217
1177,983439647,0.653184,-0.522345,0.153619,-0.526228,-2.729819,0.335256,0.302374
1178,983472981,0.642651,-0.523289,0.156770,-0.537214,-2.901263,0.000430,1.385287
1179,983506315,0.637975,-0.526096,0.160990,-0.538797,-3.621557,-0.225373,2.757199
1180,983539649,0.644051,-0.525669,0.161065,-0.531919,-3.660989,-0.297163,1.890653
1181,983572983,0.654345,-0.529665,0.164111,-0.514163,-3.424487,-0.205764,1.273204
1182,983606317,0.664232,-0.543243,0.169465,-0.484740,-4.283757,1.325436,0.111322
1183,983639651,0.675689,-0.563540,0.167082,-0.444926,-3.812798,2.311032,-0.039563
1184,983672985,0.688300,-0.584293,0.157516,-0.400052,-3.011688,2.874698,0.321714
1185,983706319,0.700174,-0.600650,0.143499,-0.358319,-3.005970,2.118840,-1.550070
1186,983739653,0.706332,-0.615833,0.131336,-0.323426,-2.438664,0.645074,0.360750
1187,983772987,0.711792,-0.623172,0.120999,-0.300628,-0.092585,0.773849,-0.086072
1188,983806321,0.716292,-0.623046,0.114086,-0.292799,1.849506,0.382753,-1.181627
1189,983839655,0.717951,-0.618659,0.109528,-0.299700,3.008886,0.004961,-1.267947
1190,983872989,0.710984,-0.618260,0.106935,-0.317537,4.399416,-1.682951,-2.002481
1191,983906323,0.688774,-0.631562,0.107256,-0.339448,5.151162,-2.380332,-0.624856
1192,983939657,0.662991,-0.647918,0.106363,-0.359640,4.886213,-2.317352,1.113773
1193,983972991,0.652289,-0.653244,0.097618,-0.371848,3.535448,-1.813700,2.540683
1194,984006325,0.666847,-0.641329,0.078211,-0.371353,3.122233,-2.077539,0.902054
1195,984039659,0.681127,-0.636365,0.065586,-0.356107,4.105297,-2.569984,-0.851965
1196,984072993,0.676270,-0.654590,0.068988,-0.330788,3.206428,-2.656821,-0.454487
1197,984106327,0.662294,-0.681790,0.075615,-0.301365,1.570185,-1.406106,1.638621
1198,984139661,0.659132,-0.696178,0.075775,-0.274129,0.979808,-0.227528,1.522867
1199,984172995,0.656767,-0.707489,0.077411,-0.249261,0.660461,0.140377,-0.045664
1200,984206329,0.649841,-0.720530,0.080752,-0.228104,0.273856,1.458619,0.442616
1201,984239663,0.646658,-0.727508,0.084607,-0.213110,0.417362,1.797535,-0.085119
1202,984272997,0.643013,-0.732288,0.091822,-0.204612,0.302016,2.047139,-0.412130
1203,984306331,0.639453,-0.734480,0.102112,-0.203030,0.660313,2.187587,-0.292480
1204,984339665,0.636549,-0.733250,0.115619,-0.209263,0.848548,2.230257,-0.715203
1205,984372999,0.637103,-0.725938,0.130555,-0.223778,0.861308,1.586143,0.050208
1206,984406333,0.640279,-0.713537,0.145512,-0.244421,1.224354,0.510681,0.513647
1207,984439667,0.643592,-0.698093,0.160196,-0.269816,1.361061,0.455211,0.289569
1208,984473001,0.654081,-0.672620,0.169854,-0.301528,0.567917,-0.079832,-0.038053
1209,984506335,0.670844,-0.637218,0.170634,-0.338842,-0.060817,-1.003799,-0.485141
1210,984539669,0.686895,-0.598145,0.162926,-0.379291,-0.403014,-1.037116,-0.982925
1211,984573003,0.696738,-0.562044,0.149100,-0.420048,-1.011441,-0.512707,-1.914177
1212,984606337,0.695177,-0.537679,0.135554,-0.457455,-1.055800,-0.244160,-1.578117
1213,984639671,0.686575,-0.520550,0.119825,-0.493247,-1.888361,0.532042,-1.410530
1214,984673005,0.677820,-0.504071,0.094868,-0.526764,-4.035710,-0.651695,-0.632922
1215,984706339,0.675680,-0.478179,0.053605,-0.558512,-2.506229,1.043268,1.848174
1216,984739673,0.683676,-0.439500,-0.000079,-0.582611,-2.723414,0.552944,-0.661147
1217,984773007,0.679452,-0.428749,-0.028534,-0.594738,-4.315595,-2.037268,2.776821
1218,984806341,0.676360,-0.434269,-0.033410,-0.594004,-5.606184,-2.054855,3.381543
1219,984839675,0.688515,-0.436621,-0.034371,-0.578046,-5.397539,-1.470880,2.575651
1220,984873009,0.714422,-0.432223,-0.038497,-0.548918,-4.783340,-1.584973,1.070165
1221,984906343,0.744905,-0.430103,-0.039895,-0.508473,-3.911045,-1.819875,0.963228
1222,984939677,0.777188,-0.429999,-0.037497,-0.457910,-3.682125,-1.948780,2.084045
1223,984973011,0.808981,-0.431246,-0.033172,-0.398102,-3.514516,-2.046077,1.229656
1224,985006345,0.835768,-0.437795,-0.027625,-0.330262,-2.716199,-2.190412,0.176900
1225,985039679,0.855057,-0.449333,-0.023891,-0.257710,-2.396519,-2.090580,-0.902125
1226,985073013,0.866927,-0.462159,-0.024374,-0.185101,-1.489501,-1.588310,-1.030885
1227,985106347,0.871655,-0.475003,-0.028316,-0.117458,-0.749518,-1.471236,-0.973742
1228,985139681,0.872797,-0.483160,-0.037800,-0.057984,-0.173546,-1.289177,-1.661304
1229,985173015,0.868994,-0.491968,-0.052432,-0.008735,0.917585,-1.012427,-1.698337
1230,985206349,0.860172,-0.504045,-0.072725,0.027625,1.704599,-0.782705,-1.101827
1231,985239683,0.856250,-0.504570,-0.098188,0.051114,2.777199,-0.546404,-0.981508
1232,985273017,0.851343,-0.505187,-0.126385,0.063540,3.743229,0.861395,-0.728509
1233,985306351,0.847954,-0.502809,-0.153752,0.067263,4.441145,1.296220,2.108906
1234,985339685,0.856943,-0.479574,-0.176111,0.068195,4.367191,1.688673,0.324786
1235,985373019,0.862691,-0.462302,-0.193943,0.066600,4.342208,2.447216,-0.870022
1236,985406353,0.855052,-0.470828,-0.209004,0.059437,4.025497,2.948721,-0.979377
1237,985439687,0.839190,-0.494679,-0.220877,0.047694,2.840558,2.411428,0.330151
1238,985473021,0.830220,-0.506738,-0.229306,0.037133,2.474959,2.271336,1.006220
1239,985506355,0.833885,-0.497983,-0.235928,0.031548,2.460313,1.932589,-0.157533
1240,985539689,0.839642,-0.484981,-0.242786,0.029299,2.545955,2.606667,-0.684771
1241,985573023,0.837671,-0.485279,-0.249286,0.026022,2.414212,2.884174,-1.016069
1242,985606357,0.828160,-0.498492,-0.255324,0.021798,2.401633,2.190728,0.576696
1243,985639691,0.817037,-0.514816,-0.258855,0.020430,2.405892,1.286813,0.639628
1244,985673025,0.807781,-0.528006,-0.261025,0.023933,2.264482,0.213184,1.451395
1245,985706359,0.798037,-0.541940,-0.261467,0.032878,2.719727,0.351046,2.029342
1246,985739693,0.790709,-0.552160,-0.260128,0.047328,2.208980,0.973482,1.452828
1247,985773027,0.785764,-0.558981,-0.256959,0.064005,2.048031,1.368484,0.628317
1248,985806361,0.777852,-0.571722,-0.249637,0.075968,1.914624,1.668708,-0.096949
1249,985839695,0.765613,-0.593054,-0.236329,0.079259,1.193766,1.516344,-0.287926
1250,985873029,0.755908,-0.613499,-0.215748,0.075395,0.815164,1.704543,0.062345
1251,985906363,0.751606,-0.629476,-0.186487,0.063872,0.982626,1.981416,-0.043018
1252,985939697,0.748223,-0.645557,-0.147329,0.041486,1.589332,1.812407,-0.445781
1253,985973031,0.741630,-0.663587,-0.097939,0.007352,2.140155,0.566604,-0.460300
1254,986006365,0.731002,-0.680221,-0.041190,-0.035315,2.138337,-0.982387,0.050966
1255,986039699,0.719548,-0.689328,0.018458,-0.082130,1.658612,-1.859092,0.501014
1256,986073033,0.711779,-0.685797,0.075544,-0.131736,1.340902,-2.020170,-0.077804
1257,986106367,0.707469,-0.670473,0.126182,-0.184500,0.912841,-2.532554,-0.365320
1258,986139701,0.705045,-0.646119,0.166913,-0.239980,-0.261641,-2.633294,-0.540290
1259,986173035,0.703244,-0.615917,0.194362,-0.297198,-1.508791,-2.302926,-1.025002
1260,986206369,0.700030,-0.584380,0.208382,-0.353613,-2.521013,-1.956585,-0.469622
1261,986239703,0.696270,-0.552729,0.208918,-0.407505,-3.106035,-0.961782,-0.543228
1262,986273037,0.694690,-0.518608,0.193187,-0.459499,-4.089519,-0.397400,-1.441479
1263,986306371,0.690281,-0.488142,0.167658,-0.507078,-3.270881,0.621166,-0.828329
1264,986339705,0.686108,-0.458627,0.133812,-0.548653,-3.843432,0.663532,1.152560
1265,986373039,0.678138,-0.439394,0.106393,-0.579439,-3.839386,0.507898,1.987039
1266,986406373,0.669758,-0.430915,0.091750,-0.597769,-3.925408,0.382155,2.316358
1267,986439707,0.665508,-0.428254,0.088307,-0.604904,-4.144358,0.595306,1.981882
1268,986473041,0.668033,-0.427713,0.091325,-0.602048,-3.725037,1.119745,1.491248
1269,986506375,0.677047,-0.426472,0.095907,-0.592064,-3.122409,1.503680,0.664493
1270,986539709,0.689871,-0.425495,0.100198,-0.577063,-2.937547,1.503496,0.227438
1271,986573043,0.705037,-0.426756,0.103681,-0.556831,-2.879183,1.072879,-0.279217
1272,986606377,0.722433,-0.430462,0.104921,-0.530842,-2.795393,0.439377,-0.053506
1273,986639711,0.742003,-0.434919,0.103492,-0.499576,-2.180392,0.133224,-0.000518
1274,986673045,0.762138,-0.439832,0.100626,-0.464302,-2.104700,-0.203779,-0.072755
1275,986706379,0.780680,-0.447682,0.096087,-0.425318,-2.118217,-0.825645,-0.643126
1276,986739713,0.797154,-0.458323,0.087810,-0.383124,-2.172127,-1.268121,0.470810
1277,986773047,0.814837,-0.464164,0.071887,-0.339755,-1.273630,-1.547497,0.494470
1278,986806381,0.833101,-0.463622,0.050032,-0.297496,-0.613034,-1.430423,0.311406
1279,986839715,0.850234,-0.459383,0.025425,-0.255797,-0.031722,-1.667999,0.534551
1280,986873049,0.864763,-0.454269,0.001362,-0.214083,0.520458,-1.714022,0.727641
1281,986906383,0.876020,-0.449780,-0.021695,-0.172696,0.766928,-1.503065,0.167958
1282,986939717,0.882516,-0.448993,-0.043516,-0.132992,1.011482,-1.225308,-0.518739
1283,986973051,0.883999,-0.452731,-0.065378,-0.096510,1.188475,-1.101425,-0.646294
1284,987006385,0.881760,-0.458614,-0.089877,-0.064059,1.271004,-0.860446,-0.919184
1285,987039719,0.876568,-0.465062,-0.118541,-0.036068,1.389601,-0.662345,-1.248687
1286,987073053,0.870887,-0.467602,-0.150909,-0.011759,1.490264,-0.781183,-0.187764
1287,987106387,0.870988,-0.455464,-0.183882,0.011348,1.235639,-0.834589,0.801501
1288,987139721,0.876023,-0.431817,-0.211639,0.036529,2.056780,-0.910232,0.905471
1289,987173055,0.879353,-0.412574,-0.229603,0.061742,2.551573,-0.450396,0.472374
1290,987206389,0.876478,-0.409747,-0.238472,0.083861,1.976962,0.156901,0.347262
1291,987239723,0.868947,-0.419823,-0.240944,0.103122,1.696816,0.369615,0.177753
1292,987273057,0.859451,-0.435214,-0.239500,0.120750,1.531815,0.596410,-0.272943
1293,987306391,0.849074,-0.452320,-0.236143,0.136839,1.416164,1.001080,-0.330192
1294,987339725,0.838322,-0.470330,-0.231036,0.150456,1.737815,1.289426,-0.234486
1295,987373059,0.828028,-0.488387,-0.223467,0.160995,1.982525,1.504259,-0.145800
1296,987406393,0.818871,-0.505857,-0.212473,0.168587,2.258471,1.511541,-0.452037
1297,987439727,0.808893,-0.525860,-0.198291,0.172777,2.072974,1.694082,-0.679201
1298,987473061,0.796774,-0.549336,-0.182722,0.173214,1.518165,1.762924,-1.021731
1299,987506395,0.783377,-0.573910,-0.167382,0.170116,1.371654,1.614458,-0.603724
1300,987539729,0.772168,-0.594320,-0.153290,0.164471,0.459316,1.591790,-0.280144
1301,987573063,0.762198,-0.612138,-0.141374,0.156086,-0.011217,1.603902,-0.765900
1302,987606397,0.749464,-0.632631,-0.132384,0.143401,-0.484502,1.182910,-0.349507
1303,987639731,0.741705,-0.646356,-0.124847,0.128523,-0.998556,0.593488,0.604208
1304,987673065,0.742222,-0.649855,-0.117935,0.113554,-1.188597,0.076543,0.518157
1305,987706399,0.744868,-0.650340,-0.112730,0.097619,-0.851233,-0.027124,-0.132239
1306,987739733,0.745387,-0.652495,-0.110493,0.080297,-0.514489,-0.261201,0.094053
1307,987773067,0.747022,-0.652381,-0.111464,0.062780,0.199952,-0.110987,0.423512
1308,987806401,0.749713,-0.649997,-0.115261,0.046466,1.037569,-0.013917,0.337877
1309,987839735,0.751979,-0.647256,-0.120247,0.033714,1.997674,-0.128265,1.225743
1310,987873069,0.753758,-0.644724,-0.124368,0.026854,2.370137,0.169973,1.252609
1311,987906403,0.753937,-0.644197,-0.126260,0.025589,2.258942,0.263767,1.171988
1312,987939737,0.754490,-0.643228,-0.127120,0.029177,2.310316,-0.225169,0.648377
1313,987973071,0.751799,-0.646058,-0.127116,0.035463,1.920386,0.446568,0.163985
1314,988006405,0.745131,-0.653800,-0.125067,0.041138,1.780829,0.268380,-0.094340
1315,988039739,0.736851,-0.663601,-0.121192,0.044776,0.603687,0.218209,0.207292
1316,988073073,0.730789,-0.670873,-0.117117,0.046566,-0.578120,0.302548,1.132532
1317,988106407,0.727714,-0.675101,-0.111790,0.046715,-0.396084,1.063839,0.390181
1318,988139741,0.724085,-0.680241,-0.104664,0.045026,-0.761053,0.704722,-0.851510
1319,988173075,0.722038,-0.683890,-0.095942,0.041933,-0.973498,0.838746,1.128312
1320,988206409,0.726696,-0.680630,-0.085247,0.037383,-0.234631,1.688400,0.376771
1321,988239743,0.732769,-0.676038,-0.071764,0.029658,-0.137670,2.185481,-0.818698
1322,988273077,0.735021,-0.675524,-0.055588,0.018180,0.601371,1.595723,-0.292748
1323,988306411,0.735894,-0.676042,-0.037801,0.002441,0.962040,1.275471,-0.071459
1324,988339745,0.736801,-0.675632,-0.018886,-0.017237,1.254775,0.836572,-0.293064
1325,988373079,0.733251,-0.678766,0.001418,-0.040333,1.594958,0.410001,-0.022331
1326,988406413,0.728318,-0.681682,0.022539,-0.066065,1.553330,-0.001688,0.411239
1327,988439747,0.726289,-0.679525,0.043200,-0.094295,1.234090,-0.346350,0.377689
1328,988473081,0.726956,-0.672198,0.062406,-0.125691,1.261196,-0.460523,0.288711
1329,988506415,0.732419,-0.656890,0.077495,-0.161432,0.603231,-0.341539,0.026972
1330,988539749,0.742621,-0.632657,0.085966,-0.202182,0.435741,-0.170265,-0.125528
1331,988573083,0.752812,-0.603491,0.087358,-0.247889,0.094518,-0.112056,-1.212933
1332,988606417,0.756965,-0.576538,0.083702,-0.295991,-0.417749,-0.259313,-0.390563
1333,988639751,0.758889,-0.549004,0.073884,-0.342391,-1.711761,-1.347494,0.834183
1334,988673085,0.759380,-0.522181,0.058909,-0.383676,-2.301221,-1.099399,1.004867
1335,988706419,0.765616,-0.486955,0.034066,-0.418993,-3.785863,-0.766942,0.765192
1336,988739753,0.778859,-0.442158,-0.001936,-0.444836,-5.886247,-1.777669,2.246241
1337,988773087,0.806623,-0.368498,-0.056956,-0.458620,-6.593567,-2.646964,2.713154
1338,988806421,0.838234,-0.271861,-0.118397,-0.457653,-3.598341,-1.735347,-0.561585
1339,988839755,0.855590,-0.205871,-0.152664,-0.449761,-0.154724,0.684615,-0.575478
1340,988873089,0.863976,-0.187672,-0.151394,-0.442055,-0.644154,0.212802,1.120498
1341,988906423,0.870822,-0.199791,-0.126095,-0.431116,-2.755261,-1.355686,1.874223
1342,988939757,0.880061,-0.218672,-0.092047,-0.411353,-3.880885,-2.556714,1.823210
1343,988973091,0.894397,-0.226552,-0.060903,-0.380825,-3.495516,-3.139877,1.476562
1344,989006425,0.912379,-0.225064,-0.032709,-0.340365,-2.269507,-2.840648,0.652370
1345,989039759,0.929779,-0.223342,-0.004462,-0.292604,-1.277612,-1.624008,-0.595250
1346,989073093,0.941646,-0.233350,0.024618,-0.241358,-0.913316,-0.343993,-1.903898
1347,989106427,0.946246,-0.258511,0.051391,-0.187506,-1.349215,-0.908372,-1.769193
1348,989139761,0.945455,-0.289177,0.068892,-0.133245,-1.301340,-0.320730,-3.265888
1349,989173095,0.939147,-0.325352,0.074695,-0.081103,-0.773217,-1.217095,-2.340333
1350,989206429,0.928367,-0.363826,0.068633,-0.032612,0.420749,-1.521137,-1.129329
1351,989239763,0.913629,-0.403129,0.052153,0.007528,0.881910,-1.031038,-0.633232
1352,989273097,0.899973,-0.433262,0.028585,0.039035,2.637824,-1.994489,1.017431
1353,989306431,0.890152,-0.451343,0.003074,0.062584,2.210400,-0.609561,0.115740
1354,989339765,0.877770,-0.472076,-0.021628,0.078768,1.286885,0.651709,-1.860819
1355,989373099,0.855736,-0.508132,-0.047018,0.085525,1.960604,0.568436,-1.802021
1356,989406433,0.829602,-0.547523,-0.071567,0.082858,2.356755,0.584544,-0.019126
1357,989439767,0.804567,-0.581814,-0.093854,0.073241,2.311403,1.261457,0.063888
1358,989473101,0.787465,-0.602851,-0.112647,0.061560,3.156325,1.438111,2.549375
1359,989506435,0.784278,-0.604955,-0.127345,0.052248,2.883847,1.989178,1.317280
1360,989539769,0.784615,-0.602573,-0.138436,0.046138,2.993279,2.440362,0.250546
1361,989573103,0.783922,-0.601982,-0.145332,0.044383,3.407141,1.665530,0.959984
1362,989606437,0.784510,-0.600058,-0.148712,0.048659,3.167609,1.154667,1.327244
1363,989639771,0.787025,-0.595983,-0.149139,0.056228,2.606256,1.280114,0.597370
1364,989673105,0.786865,-0.596047,-0.146847,0.063366,2.324293,1.043303,-0.263992
1365,989706439,0.780880,-0.604115,-0.143755,0.067924,0.905080,0.189085,-0.277518
1366,989739773,0.774235,-0.612936,-0.141737,0.069194,-0.401700,-0.030010,-0.163154
1367,989773107,0.769935,-0.619159,-0.139449,0.066375,-0.803344,0.090074,-0.045473
1368,989806441,0.767635,-0.623910,-0.133897,0.059596,-0.517448,0.701735,0.349995
1369,989839775,0.763661,-0.631958,-0.123037,0.048188,0.376004,1.028076,0.476978
1370,989873109,0.755974,-0.645156,-0.106128,0.031972,1.251872,1.421944,0.339890
1371,989906443,0.744895,-0.661879,-0.083229,0.011335,2.224906,2.277133,1.108214
1372,989939777,0.736076,-0.674568,-0.054543,-0.013550,2.850427,1.928585,0.668642
1373,989973111,0.731252,-0.680410,-0.023380,-0.042120,2.888426,0.524850,0.299060
1374,990006445,0.730152,-0.679154,0.005540,-0.074872,2.316070,0.072858,0.025136
1375,990039779,0.733350,-0.669584,0.029730,-0.113926,1.343999,-0.085951,-0.089932
1376,990073113,0.741876,-0.649669,0.047487,-0.159069,0.228132,-0.722283,-0.130630
1377,990106447,0.757558,-0.615457,0.056866,-0.209986,-0.866637,-0.157312,0.165673
1378,990139781,0.782816,-0.559367,0.054132,-0.267182,-2.397583,0.156569,0.444921
1379,990173115,0.810167,-0.485911,0.036877,-0.325834,-3.267090,-0.952468,0.329833
1380,990206449,0.828549,-0.409941,0.007976,-0.381315,-2.562510,-0.780654,-2.863404
1381,990239783,0.827970,-0.358356,-0.019180,-0.430914,-2.165076,-0.142953,-2.636623
1382,990273117,0.817382,-0.330200,-0.040585,-0.470337,-4.648254,-2.694375,1.707585
1383,990306451,0.813049,-0.296566,-0.066225,-0.496612,-4.861799,-2.497079,2.810671
1384,990339785,0.817535,-0.252649,-0.094669,-0.508775,-3.558422,-1.369652,1.220687
1385,990373119,0.821363,-0.230203,-0.105519,-0.511120,-2.129735,0.116612,-0.147973
1386,990406453,0.822300,-0.237983,-0.093382,-0.508404,-1.890077,0.831676,0.070219
1387,990439787,0.820634,-0.267395,-0.063620,-0.501019,-2.800687,1.044186,0.521350
1388,990473121,0.819488,-0.298221,-0.030282,-0.488462,-3.176692,0.388343,1.242264
1389,990506455,0.824778,-0.316102,-0.004817,-0.468835,-3.825805,-0.290837,0.943686
1390,990539789,0.836662,-0.322338,0.011433,-0.442687,-3.158525,-0.359054,0.983739
1391,990573123,0.852335,-0.322868,0.023270,-0.410790,-2.186147,-0.451759,0.602067
1392,990606457,0.867296,-0.327023,0.035667,-0.373617,-2.120123,-0.428681,-0.343462
1393,990639791,0.878908,-0.339705,0.048554,-0.331320,-1.739633,-0.732552,-0.280381
1394,990673125,0.885962,-0.360435,0.060099,-0.285578,-1.250531,-0.926744,-0.555798
1395,990706459,0.889742,-0.383565,0.065311,-0.238703,-1.267766,-1.267642,0.264925
1396,990739793,0.892138,-0.403549,0.063437,-0.192931,0.236430,-1.865687,-0.344817
1397,990773127,0.887955,-0.431031,0.058923,-0.149279,0.217577,-1.635152,-1.219163
1398,990806461,0.878098,-0.462591,0.050426,-0.111441,0.890898,-1.003793,-1.644695
1399,990839795,0.863832,-0.495672,0.039201,-0.081094,1.068126,-1.046345,-1.530074
1400,990873129,0.847983,-0.526538,0.022214,-0.056551,1.214034,-1.071949,-1.469920
1401,990906463,0.832412,-0.552908,-0.000580,-0.037301,1.957580,-0.027239,-1.246948
1402,990939797,0.813586,-0.580361,-0.025286,-0.025078,2.047075,0.995920,-0.953137
1403,990973131,0.797228,-0.601273,-0.050325,-0.019343,2.508744,0.661715,1.506231
1404,991006465,0.794519,-0.602504,-0.073976,-0.016245,2.608445,0.833782,1.594066
1405,991039799,0.800832,-0.591071,-0.095453,-0.014174,2.846401,1.596521,0.043698
1406,991073133,0.804450,-0.582836,-0.113741,-0.015302,2.935058,2.387581,-0.767097
1407,991106467,0.799873,-0.585784,-0.128893,-0.021321,3.209537,2.412807,-0.963903
1408,991139801,0.787843,-0.598641,-0.141504,-0.030287,3.185236,2.147918,0.205428
1409,991173135,0.778107,-0.608455,-0.151570,-0.036972,3.254960,1.903308,1.893336
1410,991206469,0.779803,-0.604347,-0.159558,-0.034943,2.790190,1.833867,2.334035
1411,991239803,0.788853,-0.591382,-0.165472,-0.024595,3.168599,1.561841,1.792626
1412,991273137,0.794243,-0.584139,-0.166946,-0.009882,4.043366,1.812181,1.031947
1413,991306471,0.789708,-0.591763,-0.161783,0.003318,3.357676,1.634291,0.831480
1414,991339805,0.778242,-0.609221,-0.151791,0.012558,2.486870,1.298611,1.186822
1415,991373139,0.768199,-0.624681,-0.139301,0.015752,1.570073,1.264056,0.777704
1416,991406473,0.763343,-0.633690,-0.125042,0.010863,1.306516,0.759510,0.251508
1417,991439807,0.762219,-0.638028,-0.109214,-0.004867,1.301544,0.488560,-0.694771
1418,991473141,0.760042,-0.642508,-0.092185,-0.032105,1.435969,-0.797682,-0.691708
1419,991506475,0.756843,-0.645500,-0.076649,-0.068211,0.622689,-1.349517,-1.499121
1420,991539809,0.753542,-0.644828,-0.064171,-0.110737,-0.198963,-1.027612,-0.551629
1421,991573143,0.758143,-0.630133,-0.057737,-0.157566,-0.835361,-0.877165,-0.315883
1422,991606477,0.770222,-0.600280,-0.060737,-0.206739,-1.369865,-1.521008,-1.203868
1423,991639811,0.778589,-0.568412,-0.070939,-0.256287,-1.211993,-1.294495,-1.201974
1424,991673145,0.776096,-0.544808,-0.082949,-0.306572,-1.159877,-0.964867,-1.591410
1425,991706479,0.765860,-0.527897,-0.095488,-0.354505,-2.505765,-1.239086,0.078565
1426,991739813,0.758225,-0.506513,-0.114819,-0.394162,-3.822270,-1.537667,0.994624
1427,991773147,0.757506,-0.476300,-0.141457,-0.423463,-4.429777,-0.990271,1.837977
1428,991806481,0.767236,-0.431767,-0.174549,-0.440985,-4.416231,0.243154,2.906037
1429,991839815,0.783763,-0.376788,-0.209089,-0.447254,-3.526443,0.439224,1.732354
1430,991873149,0.796955,-0.332485,-0.231066,-0.448257,-2.325525,0.664063,0.621244
1431,991906483,0.802715,-0.315149,-0.232537,-0.449738,-1.700177,1.254245,-0.503750
1432,991939817,0.803176,-0.322124,-0.216990,-0.451740,-2.763565,1.073693,0.195663
1433,991973151,0.805145,-0.333853,-0.196748,-0.448979,-3.118915,0.499595,0.789082
1434,992006485,0.811916,-0.340368,-0.178590,-0.439382,-3.034296,-0.266640,0.567371
1435,992039819,0.824521,-0.337612,-0.165365,-0.422901,-2.958118,-0.547490,0.409734
1436,992073153,0.841280,-0.326871,-0.157088,-0.400918,-2.067055,-0.761597,0.237000
1437,992106487,0.858859,-0.314597,-0.150286,-0.375251,-1.273231,-0.570889,-0.076538
1438,992139821,0.874505,-0.306697,-0.142744,-0.347579,-0.906222,-0.702747,0.059966
1439,992173155,0.888201,-0.302115,-0.136515,-0.318115,-0.284310,-0.922234,0.512968
1440,992206489,0.900643,-0.298160,-0.133138,-0.286751,0.284078,-0.936138,0.496448
1441,992239823,0.911354,-0.294875,-0.132761,-0.254686,0.755578,-0.725835,0.475153
1442,992273157,0.920718,-0.290427,-0.134553,-0.223235,0.848694,-0.317567,0.552614
1443,992306491,0.928494,-0.286205,-0.136640,-0.193191,0.539371,0.182422,-0.102437
1444,992339825,0.933275,-0.287917,-0.137236,-0.165155,0.098532,0.186301,-0.281809
1445,992373159,0.934855,-0.296773,-0.136056,-0.139531,-0.531919,0.101159,-0.378243
1446,992406493,0.933864,-0.310564,-0.134453,-0.115662,-0.881766,-0.478469,-0.389606
1447,992439827,0.931165,-0.326521,-0.133256,-0.092555,-0.810683,-1.148144,-0.088015
1448,992473161,0.928432,-0.340042,-0.132697,-0.069173,-0.480229,-1.623018,0.222608
1449,992506495,0.925997,-0.350395,-0.132890,-0.045834,-0.057064,-1.795065,0.422486
1450,992539829,0.924043,-0.356941,-0.134855,-0.023673,0.401655,-1.087880,0.352318
1451,992573163,0.922442,-0.360605,-0.138068,-0.003203,0.873588,-0.437858,0.327568
1452,992606497,0.920720,-0.363391,-0.141441,0.014976,1.447546,0.226883,0.627426
1453,992639831,0.919674,-0.364289,-0.143369,0.030783,1.954915,0.815778,1.253389
1454,992673165,0.919787,-0.362452,-0.143333,0.045654,2.192408,1.424045,0.751500
1455,992706499,0.919891,-0.360417,-0.142447,0.060142,1.634718,1.850695,0.146915
1456,992739833,0.919239,-0.359346,-0.142794,0.074082,1.240249,2.073236,-0.349739
1457,992773167,0.918219,-0.358675,-0.144602,0.085590,1.037455,1.981627,-0.685115
1458,992806501,0.916910,-0.359231,-0.147065,0.092784,0.574341,1.495441,-0.716982
1459,992839835,0.915277,-0.361884,-0.149015,0.095450,0.823115,0.959868,-0.890287
1460,992873169,0.912882,-0.367745,-0.149824,0.094715,0.887417,0.280146,-0.799872
1461,992906503,0.909432,-0.377037,-0.149157,0.092390,0.705191,0.328844,-0.539365
1462,992939837,0.904760,-0.389895,-0.146208,0.089571,0.794235,0.239460,-0.890502
1463,992973171,0.898142,-0.407276,-0.141336,0.086607,0.752110,0.063713,-0.980841
1464,993006505,0.889658,-0.427991,-0.135363,0.083776,0.625296,-0.183214,-0.894227
1465,993039839,0.881286,-0.447199,-0.129584,0.081024,0.459884,-0.368416,-0.853367
1466,993073173,0.874803,-0.461572,-0.124536,0.078551,0.284967,-0.167434,-0.820889
1467,993106507,0.868414,-0.475184,-0.119673,0.075791,0.668321,0.065457,-0.514184
1468,993139841,0.860310,-0.491499,-0.114231,0.072495,0.639804,0.233168,-0.294526
1469,993173175,0.851486,-0.508489,-0.107934,0.069060,0.672657,0.201464,0.430142
1470,993206509,0.844075,-0.522706,-0.099627,0.066323,0.777617,0.514130,0.449698
1471,993239843,0.836190,-0.537418,-0.089067,0.063594,0.543778,0.669872,-0.075497
1472,993273177,0.825386,-0.556172,-0.076521,0.059695,0.341656,0.779598,-0.103052
1473,993306511,0.812626,-0.576858,-0.063209,0.053725,0.303558,0.592397,-0.279140
1474,993339845,0.799272,-0.597073,-0.050997,0.045558,0.057577,0.612434,-0.026486
1475,993373179,0.789619,-0.611214,-0.040703,0.035662,-0.335584,0.657717,0.693360
1476,993406513,0.785768,-0.617180,-0.033033,0.023976,-1.256747,0.119486,0.408493
1477,993439847,0.781264,-0.623397,-0.029352,0.012202,-1.545762,0.139197,0.370311
