sep=,
DeviceTag:,D_leg_new
FirmwareVersion:,2.2.1
AppVersion:,2023.6.0
SyncStatus:,Synced
OutputRate:,30Hz
FilterProfile:,General
Measurement Mode:,Sensor fusion Mode - Complete(Quaternion)
StartTime: ,2026-09-07_14:10:16_665 AEST
© Movella Technologies B. V. 2005-2026

PacketCounter,SampleTimeFine,Quat_W,Quat_X,Quat_Y,Quat_Z,FreeAcc_X,FreeAcc_Y,FreeAcc_Z
1,1600271459,-0.289331,0.756986,0.271376,0.519296,-0.026926,-0.070722,0.182310
2,1600304793,-0.289202,0.757047,0.271333,0.519302,0.043829,-0.062538,0.175357
3,1600338127,-0.288937,0.757045,0.271065,0.519592,0.154852,0.009611,0.205051
4,1600371461,-0.288863,0.756833,0.270858,0.520050,0.107055,0.013936,0.187045
5,1600404795,-0.288700,0.756687,0.270631,0.520470,0.021776,-0.008970,0.186632
6,1600438129,-0.288331,0.756662,0.270193,0.520939,0.005983,-0.046272,0.146126
7,1600471463,-0.287970,0.756820,0.269961,0.521029,-0.065848,-0.005524,0.133546
8,1600504797,-0.287766,0.756964,0.269903,0.520963,-0.067071,-0.010168,0.196033
9,1600538131,-0.287807,0.757007,0.270044,0.520804,-0.005715,-0.032198,0.179013
10,1600571465,-0.287654,0.757337,0.270130,0.520364,-0.008271,-0.035045,0.173624
11,1600604799,-0.287556,0.757475,0.270063,0.520254,0.136939,-0.012164,0.226342
12,1600638133,-0.287678,0.757239,0.270089,0.520515,0.254779,0.166772,0.142509
13,1600671467,-0.287684,0.756962,0.270046,0.520938,0.114029,0.116723,0.210543
14,1600704801,-0.287800,0.756442,0.269880,0.521713,0.214747,0.039188,0.189686
15,1600738135,-0.287934,0.755710,0.269744,0.522769,0.360259,0.154271,0.158322
16,1600771469,-0.288082,0.754439,0.269485,0.524653,0.351669,0.197525,0.236629
17,1600804803,-0.288493,0.752632,0.269165,0.527182,0.238306,0.058396,0.240224
18,1600838137,-0.288944,0.751040,0.269077,0.529247,0.049395,0.071395,0.069919
19,1600871471,-0.289433,0.749302,0.269021,0.531467,0.148915,0.132929,0.133114
20,1600904805,-0.290830,0.746104,0.269427,0.534986,0.460402,0.155934,0.243940
21,1600938139,-0.293087,0.741242,0.270292,0.540052,0.715043,0.030201,0.113050
22,1600971473,-0.294901,0.736409,0.270938,0.545327,0.358944,-0.108995,0.050159
23,1601004807,-0.296293,0.731157,0.271014,0.551566,0.300603,-0.070108,0.053687
24,1601038141,-0.298205,0.724312,0.270834,0.559597,0.404136,-0.193697,0.152307
25,1601071475,-0.298950,0.718385,0.270246,0.567073,0.118466,-0.394292,-0.027188
26,1601104809,-0.300090,0.712338,0.269327,0.574489,-0.156828,0.397350,0.191467
27,1601138143,-0.301901,0.705516,0.268681,0.582209,-0.294398,0.070432,0.621828
28,1601171477,-0.304152,0.698722,0.268381,0.589325,-0.414210,-0.536798,0.083842
29,1601204811,-0.304352,0.694375,0.266627,0.595128,-0.824631,-0.057723,0.088593
30,1601238145,-0.304870,0.690358,0.265296,0.600110,-0.846977,0.163937,0.216812
31,1601271479,-0.307111,0.685490,0.266291,0.604094,-0.190415,-0.324480,-0.230526
32,1601304813,-0.308983,0.681172,0.267563,0.607452,0.340158,0.343611,0.262725
33,1601338147,-0.312119,0.676107,0.270590,0.610160,0.145011,0.336527,0.213897
34,1601371481,-0.314525,0.669757,0.272512,0.615053,0.269555,-0.569948,-0.227913
35,1601404815,-0.315414,0.664250,0.271844,0.620839,0.822843,-0.272892,-0.046554
36,1601438149,-0.315255,0.659848,0.270058,0.626368,0.519002,0.691219,0.553774
37,1601471483,-0.314239,0.655595,0.267219,0.632533,0.071963,-0.560720,-0.378814
38,1601504817,-0.313585,0.650778,0.263610,0.639309,0.596787,0.016687,-0.185904
39,1601538151,-0.313957,0.645590,0.262400,0.644860,0.544619,0.642144,0.872070
40,1601571485,-0.314048,0.640690,0.262105,0.649804,-0.282082,-0.401992,0.112338
41,1601604819,-0.312488,0.636742,0.257979,0.656057,-0.292898,-0.008633,-0.056702
42,1601638153,-0.312155,0.633841,0.254707,0.660290,-0.586604,0.654182,0.306258
43,1601671487,-0.313257,0.630603,0.253303,0.663401,-0.039417,0.403588,0.474156
44,1601704821,-0.315297,0.626732,0.253578,0.665993,-0.414241,0.239727,0.272479
45,1601738155,-0.317966,0.622817,0.255097,0.667814,-0.342371,-0.031625,-0.313195
46,1601771489,-0.319806,0.619284,0.255792,0.669952,0.171371,-0.268503,-0.212625
47,1601804823,-0.321498,0.615978,0.255538,0.672283,0.542977,0.091543,0.656673
48,1601838157,-0.322980,0.612689,0.254686,0.674896,0.325825,-0.145189,0.238630
49,1601871491,-0.323695,0.609627,0.252578,0.678111,0.157518,-0.215316,-0.402192
50,1601904825,-0.324183,0.606357,0.250032,0.681744,-0.061818,0.169889,0.052809
51,1601938159,-0.325336,0.602576,0.248769,0.685001,0.042396,0.132666,0.452078
52,1601971493,-0.326665,0.598312,0.247591,0.688524,-0.025228,-0.366786,-0.021513
53,1602004827,-0.327174,0.594597,0.244094,0.692736,0.060123,-0.213476,-0.054500
54,1602038161,-0.327775,0.591113,0.241293,0.696405,-0.036539,0.219950,0.381033
55,1602071495,-0.328522,0.587397,0.238737,0.700069,-0.265008,-0.041702,0.067027
56,1602104829,-0.329204,0.584358,0.235857,0.703261,-0.124753,-0.183679,-0.060868
57,1602138163,-0.329947,0.581250,0.233707,0.706200,-0.195485,0.039683,0.451125
58,1602171497,-0.330715,0.577458,0.231838,0.709560,-0.222419,-0.419049,0.106008
59,1602204831,-0.330925,0.574003,0.228929,0.713200,-0.081080,-0.044796,0.232469
60,1602238165,-0.331311,0.570685,0.227274,0.716207,-0.077429,0.077264,0.327365
61,1602271499,-0.331792,0.567485,0.226425,0.718791,-0.016212,-0.102031,0.008735
62,1602304833,-0.332044,0.564330,0.224149,0.721865,-0.000974,0.128209,0.077985
63,1602338167,-0.331812,0.561817,0.221232,0.724825,-0.089710,0.105884,0.071737
64,1602371501,-0.331451,0.559341,0.219268,0.727498,-0.026009,0.054561,0.319271
65,1602404835,-0.331340,0.556826,0.217574,0.729982,-0.001566,-0.067178,0.047637
66,1602438169,-0.331231,0.554559,0.215763,0.732291,0.075295,0.159867,-0.058303
67,1602471503,-0.330573,0.552415,0.214098,0.734694,-0.123999,0.043839,0.144121
68,1602504837,-0.330068,0.549797,0.212671,0.737295,-0.037272,-0.237015,0.000264
69,1602538171,-0.329465,0.547477,0.210528,0.739901,0.116079,-0.039726,-0.113752
70,1602571505,-0.328802,0.545147,0.208001,0.742626,-0.097776,0.354382,0.344608
71,1602604839,-0.328441,0.542340,0.206443,0.745271,-0.061186,0.189421,0.043365
72,1602638173,-0.327792,0.539836,0.204919,0.747791,-0.033622,0.128655,-0.093021
73,1602671507,-0.327498,0.537720,0.203053,0.749950,-0.124459,0.150082,0.270408
74,1602704841,-0.327444,0.535454,0.201410,0.752035,-0.102520,0.112216,0.283577
75,1602738175,-0.327585,0.532706,0.200586,0.754143,-0.060570,0.049616,0.046142
76,1602771509,-0.327688,0.529849,0.199768,0.756325,-0.111114,-0.120463,0.037986
77,1602804843,-0.328082,0.526545,0.198743,0.758727,-0.140970,-0.216422,0.257592
78,1602838177,-0.328784,0.523759,0.198085,0.760522,-0.040171,-0.218283,0.237329
79,1602871511,-0.329609,0.521061,0.197842,0.762079,-0.082523,-0.080925,0.227146
80,1602904845,-0.330273,0.518121,0.197880,0.763785,-0.016602,0.031656,0.213464
81,1602938179,-0.330765,0.514679,0.197883,0.765895,-0.221111,-0.158636,0.010147
82,1602971513,-0.330900,0.511475,0.197237,0.768147,0.284657,0.033485,0.003406
83,1603004847,-0.330866,0.509137,0.196813,0.769822,0.218610,-0.013876,0.060952
84,1603038181,-0.330810,0.506876,0.196547,0.771404,0.033483,-0.030178,0.077133
85,1603071515,-0.330590,0.504298,0.196055,0.773311,-0.069237,0.016028,-0.053147
86,1603104849,-0.330106,0.501800,0.195390,0.775308,-0.040552,0.087234,0.066443
87,1603138183,-0.329783,0.499548,0.194847,0.777035,0.027297,0.033676,0.066545
88,1603171517,-0.329842,0.497151,0.194709,0.778580,-0.161454,0.008828,0.096452
89,1603204851,-0.329807,0.494574,0.194457,0.780298,-0.061605,-0.198115,0.061138
90,1603238185,-0.329606,0.491607,0.193488,0.782495,-0.058653,-0.141690,0.391339
91,1603271519,-0.329321,0.487950,0.192708,0.785092,-0.505002,0.040309,0.345914
92,1603304853,-0.328949,0.483754,0.192136,0.787979,-0.341169,0.043307,-0.003896
93,1603338187,-0.328887,0.479791,0.191885,0.790486,-0.147458,0.211678,0.148166
94,1603371521,-0.329337,0.476174,0.192205,0.792406,-0.120191,0.237265,0.072720
95,1603404855,-0.329989,0.472404,0.192362,0.794350,-0.052991,0.327208,0.182359
96,1603438189,-0.330772,0.468913,0.192871,0.795968,-0.150938,0.052436,0.139763
97,1603471523,-0.331554,0.465435,0.193166,0.797610,-0.039038,0.008053,0.089470
98,1603504857,-0.332332,0.462018,0.193423,0.799209,0.024693,0.074211,0.076715
99,1603538191,-0.332988,0.458248,0.193914,0.800986,0.158141,-0.007301,0.084240
100,1603571525,-0.333460,0.454588,0.194905,0.802634,0.166265,-0.355972,0.034863
101,1603604859,-0.333500,0.451776,0.195540,0.804048,0.129329,-0.304019,0.127902
102,1603638193,-0.333157,0.449145,0.196048,0.805539,0.012656,-0.094291,0.265206
103,1603671527,-0.332683,0.446058,0.196740,0.807280,-0.208713,-0.013935,0.324034
104,1603704861,-0.332341,0.442604,0.197494,0.809136,-0.288029,-0.278674,0.066707
105,1603738195,-0.332152,0.438974,0.197627,0.811156,-0.189920,-0.049239,0.019227
106,1603771529,-0.332221,0.435101,0.198159,0.813083,-0.361283,-0.000100,0.098770
107,1603804863,-0.332094,0.430244,0.198314,0.815677,-0.338666,-0.387225,0.409580
108,1603838197,-0.332088,0.425138,0.198335,0.818347,-0.254152,-0.540861,0.044415
109,1603871531,-0.332275,0.420940,0.198176,0.820477,0.148053,0.293220,-0.154180
110,1603904865,-0.332797,0.415566,0.199080,0.822783,0.022299,0.193153,-0.005375
111,1603938199,-0.333190,0.409710,0.200391,0.825239,0.009713,-0.191016,0.007151
112,1603971533,-0.333446,0.404791,0.200721,0.827480,0.223538,0.147493,-0.006118
113,1604004867,-0.333872,0.400212,0.201220,0.829412,0.021453,0.348284,-0.106991
114,1604038201,-0.334287,0.395787,0.201673,0.831256,0.230354,0.386084,-0.061872
115,1604071535,-0.335106,0.391718,0.202156,0.832735,0.651727,0.269455,-0.336971
116,1604104869,-0.336050,0.387529,0.202077,0.834332,0.545409,0.284978,0.129855
117,1604138203,-0.336683,0.383201,0.201895,0.836118,-0.018679,-0.164117,0.130236
118,1604171537,-0.337081,0.379048,0.202020,0.837819,-0.001263,-0.513085,-0.070776
119,1604204871,-0.337979,0.375037,0.202839,0.839064,-0.128121,-0.301985,0.267972
120,1604238205,-0.338174,0.371417,0.203541,0.840424,-0.355984,-0.147392,0.339110
121,1604271539,-0.338232,0.366708,0.204129,0.842324,-0.346318,-0.180416,0.001599
122,1604304873,-0.338543,0.362042,0.204409,0.844147,0.121612,0.091072,-0.027894
123,1604338207,-0.339009,0.357242,0.204916,0.845881,-0.120102,0.297428,-0.013635
124,1604371541,-0.339277,0.352433,0.205589,0.847626,0.214306,-0.241094,-0.280275
125,1604404875,-0.339243,0.347281,0.204596,0.850003,-0.308520,-0.138813,0.360174
126,1604438209,-0.338832,0.341703,0.204878,0.852356,-0.399023,-0.567342,0.400425
127,1604471543,-0.337170,0.336647,0.205321,0.854916,-0.230801,-0.357445,0.429431
128,1604504877,-0.334936,0.331373,0.204530,0.858039,-0.356257,0.120660,0.196643
129,1604538211,-0.333643,0.325763,0.203157,0.861012,-0.097623,-0.043546,0.164285
130,1604571545,-0.332776,0.321109,0.201673,0.863441,-0.046510,0.638006,0.371757
131,1604604879,-0.331936,0.316306,0.201960,0.865468,-0.219633,0.513966,0.012672
132,1604638213,-0.331902,0.310782,0.203597,0.867097,0.025550,0.191792,0.039926
133,1604671547,-0.331917,0.306160,0.204651,0.868486,0.188364,-0.052187,-0.042590
134,1604704881,-0.331812,0.301740,0.204531,0.870100,-0.212807,-0.190166,0.420365
135,1604738215,-0.331682,0.297009,0.204258,0.871840,-0.439996,0.202869,0.218976
136,1604771549,-0.330981,0.292404,0.205447,0.873383,0.204587,0.006734,-0.339660
137,1604804883,-0.329491,0.287800,0.205632,0.875429,0.411682,0.041626,-0.121177
138,1604838217,-0.328332,0.282916,0.205194,0.877557,-0.039532,0.348916,0.149471
139,1604871551,-0.326930,0.277955,0.205445,0.879605,0.208576,0.289974,-0.395420
140,1604904885,-0.325862,0.272805,0.206538,0.881355,0.105138,0.398676,-0.341060
141,1604938219,-0.325067,0.267203,0.207349,0.883173,-0.071890,0.210780,0.121767
142,1604971553,-0.324438,0.261878,0.208702,0.884679,0.006003,0.201077,0.065295
143,1605004887,-0.323599,0.256436,0.210277,0.886206,-0.030879,-0.172826,0.093020
144,1605038221,-0.322251,0.250908,0.210911,0.888127,0.009561,-0.337840,0.137072
145,1605071555,-0.320810,0.245766,0.211434,0.889960,-0.353397,-0.001282,0.412266
146,1605104889,-0.319071,0.241305,0.212246,0.891611,-0.016939,-0.326620,0.229623
147,1605138223,-0.317496,0.237255,0.212352,0.893234,-0.194565,-0.187975,0.431436
148,1605171557,-0.316064,0.233518,0.212666,0.894651,-0.458215,0.282324,0.335129
149,1605204891,-0.314830,0.229100,0.213490,0.896031,-0.523828,0.264319,-0.043211
150,1605238225,-0.313627,0.224468,0.213955,0.897513,-0.051012,0.190558,-0.027891
151,1605271559,-0.312549,0.220270,0.215099,0.898655,0.219593,0.314208,0.106633
152,1605304893,-0.311898,0.215870,0.216912,0.899513,0.315931,-0.106268,-0.157054
153,1605338227,-0.311403,0.211367,0.217815,0.900534,0.106995,0.072410,-0.133128
154,1605371561,-0.310913,0.207029,0.219078,0.901405,0.166383,0.347809,-0.261335
155,1605404895,-0.310679,0.202665,0.220423,0.902149,0.041741,0.332849,-0.315038
156,1605438229,-0.310618,0.198151,0.221475,0.902915,0.133275,-0.117695,-0.143883
157,1605471563,-0.310613,0.194217,0.222405,0.903543,0.168115,0.072248,0.150898
158,1605504897,-0.310250,0.190189,0.224028,0.904123,0.123622,-0.189256,0.101033
159,1605538231,-0.309462,0.186159,0.225315,0.904912,0.277798,-0.013495,-0.337227
160,1605571565,-0.308439,0.182132,0.226349,0.905822,0.050376,0.345758,-0.273694
161,1605604899,-0.307679,0.178194,0.227745,0.906513,-0.017652,0.553215,-0.000453
162,1605638233,-0.307241,0.174056,0.229035,0.907140,0.364571,-0.251091,-0.104571
163,1605671567,-0.307271,0.170337,0.229245,0.907783,0.010982,0.202594,-0.031212
164,1605704901,-0.307453,0.166841,0.230380,0.908084,0.107645,0.113662,0.141232
165,1605738235,-0.307583,0.162357,0.230904,0.908719,0.279225,-0.485086,0.382521
166,1605771569,-0.307686,0.158512,0.230771,0.909396,-0.051089,-0.135968,0.050741
167,1605804903,-0.307579,0.155620,0.230512,0.909998,0.164019,0.289167,-0.064492
168,1605838237,-0.307556,0.152101,0.231038,0.910467,0.084125,0.013312,-0.148849
169,1605871571,-0.307766,0.148645,0.231027,0.910969,-0.005072,-0.277205,0.035950
170,1605904905,-0.308362,0.145487,0.230393,0.911438,-0.504807,0.456331,0.824392
171,1605938239,-0.309191,0.142335,0.230964,0.911510,-0.137516,-0.012742,0.273071
172,1605971573,-0.309921,0.140054,0.230707,0.911681,-0.024269,-0.132932,-0.097913
173,1606004907,-0.310614,0.138079,0.230427,0.911817,-0.170955,0.088620,0.134580
174,1606038241,-0.311407,0.134597,0.229524,0.912295,0.076887,-0.287638,0.183549
175,1606071575,-0.312287,0.131041,0.227564,0.913002,0.199740,-0.014367,-0.187599
176,1606104909,-0.313133,0.128127,0.225525,0.913632,0.351247,0.301260,-0.443525
177,1606138243,-0.313899,0.125250,0.223869,0.914175,0.295173,0.118418,-0.296704
178,1606171577,-0.315139,0.122237,0.222889,0.914396,0.053955,-0.024492,-0.380244
179,1606204911,-0.316834,0.120309,0.222372,0.914191,-0.265437,-0.063216,-0.075172
180,1606238245,-0.318454,0.119262,0.222190,0.913810,-0.240502,-0.120915,0.526170
181,1606271579,-0.319915,0.118915,0.222343,0.913307,-0.036523,-0.326457,0.456308
182,1606304913,-0.320901,0.119620,0.222100,0.912929,-0.094868,-0.394653,0.417474
183,1606338247,-0.321741,0.121514,0.221937,0.912422,-0.266943,-0.383125,0.523817
184,1606371581,-0.322731,0.124311,0.221935,0.911696,-0.294036,0.000271,0.379498
185,1606404915,-0.323572,0.128099,0.222114,0.910830,-0.265497,0.098408,0.078377
186,1606438249,-0.324532,0.132830,0.222109,0.909811,-0.021740,0.206013,0.096639
187,1606471583,-0.325672,0.138210,0.221500,0.908750,-0.268789,0.588688,0.618244
188,1606504917,-0.327337,0.143171,0.222124,0.907230,0.462889,0.075625,0.278063
189,1606538251,-0.329329,0.148818,0.222301,0.905556,0.415375,0.222668,-0.255053
190,1606571585,-0.331042,0.155030,0.222388,0.903866,0.112393,0.068616,-0.033254
191,1606604919,-0.333087,0.160750,0.221873,0.902241,-0.082941,0.030419,0.260406
192,1606638253,-0.334901,0.165486,0.221523,0.900798,-0.199373,0.052839,-0.089248
193,1606671587,-0.336171,0.169626,0.221339,0.899599,0.072489,-0.436071,-0.329873
194,1606704921,-0.337197,0.173787,0.219880,0.898778,0.101425,-0.323379,0.001459
195,1606738255,-0.337533,0.177420,0.218528,0.898272,0.092870,-0.420551,0.033372
196,1606771589,-0.336708,0.182265,0.216118,0.898195,0.354300,-0.445811,-0.416131
197,1606804923,-0.335096,0.187377,0.213044,0.898480,-0.226288,0.424212,0.112517
198,1606838257,-0.334161,0.191334,0.211341,0.898397,-0.412518,0.660314,0.166080
199,1606871591,-0.334454,0.194480,0.210174,0.897886,-0.363976,0.269482,0.018776
200,1606904925,-0.335577,0.198614,0.208943,0.896848,0.010504,-0.200162,-0.215020
201,1606938259,-0.336695,0.202924,0.207663,0.895761,-0.354714,-0.220459,0.750858
202,1606971593,-0.337582,0.207062,0.207086,0.894613,-0.256344,-0.575690,0.978506
203,1607004927,-0.338344,0.211624,0.205806,0.893553,0.038563,-0.502593,0.339495
204,1607038261,-0.338660,0.217255,0.203716,0.892560,0.005612,-0.183526,0.373702
205,1607071595,-0.339048,0.223539,0.201726,0.891312,-0.134569,-0.274209,0.722150
206,1607104929,-0.339675,0.230308,0.199878,0.889765,-0.181178,-0.158020,0.571257
207,1607138263,-0.339998,0.237815,0.198973,0.887868,-0.030547,0.104425,0.092315
208,1607171597,-0.340038,0.245717,0.199053,0.885680,0.061891,0.077862,-0.140180
209,1607204931,-0.340286,0.252948,0.198766,0.883611,-0.068236,0.084827,0.282977
210,1607238265,-0.340632,0.259827,0.197601,0.881741,-0.026407,0.286367,-0.115366
211,1607271599,-0.340797,0.266488,0.195668,0.880119,0.311616,0.167171,-0.533226
212,1607304933,-0.341060,0.273503,0.194163,0.878196,0.174952,0.059277,-0.073054
213,1607338267,-0.341064,0.280779,0.192326,0.876301,-0.059063,-0.219928,0.253420
214,1607371601,-0.341365,0.287340,0.190158,0.874528,-0.077114,0.041226,0.296328
215,1607404935,-0.341687,0.294062,0.189269,0.872358,-0.011577,-0.231235,0.039441
216,1607438269,-0.342209,0.300652,0.188057,0.870167,-0.226605,-0.263397,0.327066
217,1607471603,-0.343080,0.306955,0.186601,0.867934,0.016691,-0.122124,0.236315
218,1607504937,-0.344034,0.313820,0.185888,0.865250,0.121858,0.140623,-0.058780
219,1607538271,-0.344962,0.320430,0.185525,0.862531,-0.133698,-0.091497,0.164511
220,1607571605,-0.346316,0.326769,0.185870,0.859531,-0.207902,-0.022732,0.312477
221,1607604939,-0.348090,0.333014,0.187702,0.856012,0.094160,0.089075,-0.208242
222,1607638273,-0.349076,0.338842,0.188289,0.853190,0.266626,-0.078680,-0.042842
223,1607671607,-0.350112,0.345167,0.187885,0.850314,0.111704,-0.070194,0.107138
224,1607704941,-0.350901,0.351952,0.187719,0.847239,0.161828,-0.251800,-0.300002
225,1607738275,-0.350683,0.357805,0.187096,0.845012,0.285281,-0.443742,0.009909
226,1607771609,-0.349777,0.363490,0.186368,0.843120,-0.133597,0.059558,0.081786
227,1607804943,-0.348381,0.368767,0.187234,0.841213,-0.089867,-0.224307,-0.238561
228,1607838277,-0.347105,0.373549,0.187466,0.839577,0.055441,-0.395342,0.268766
229,1607871611,-0.345965,0.379382,0.186070,0.837740,-0.447085,-0.070218,0.191948
230,1607904945,-0.344270,0.385287,0.185655,0.835834,0.149400,0.043820,-0.228990
231,1607938279,-0.343020,0.390273,0.185632,0.834038,-0.392078,0.167609,0.256061
232,1607971613,-0.341906,0.394863,0.185505,0.832361,0.039462,0.335972,-0.045918
233,1608004947,-0.340783,0.399968,0.186285,0.830207,0.260476,-0.062286,0.031917
234,1608038281,-0.340656,0.404975,0.186878,0.827695,-0.441683,-0.057150,0.156836
235,1608071615,-0.340268,0.410243,0.187150,0.825195,0.379653,0.206640,-0.064672
236,1608104949,-0.338933,0.415760,0.187655,0.822865,0.236088,-0.124959,-0.020032
237,1608138283,-0.338224,0.420233,0.188999,0.820574,-0.296112,-0.189763,0.021495
238,1608171617,-0.337646,0.425242,0.190701,0.817833,0.414155,-0.341460,0.047104
239,1608204951,-0.336882,0.430923,0.191613,0.814957,0.429383,-0.293225,0.171695
240,1608238285,-0.335954,0.436040,0.191182,0.812716,-0.314981,-0.079166,0.064533
241,1608271619,-0.334353,0.440696,0.190963,0.810914,0.303678,0.105080,-0.172573
242,1608304953,-0.332433,0.444472,0.190985,0.809636,0.383786,-0.255293,-0.132441
243,1608338287,-0.331075,0.447958,0.191232,0.808212,0.217742,-0.274892,-0.090570
244,1608371621,-0.329785,0.451637,0.191410,0.806648,0.480290,-0.083662,-0.042166
245,1608404955,-0.328332,0.455752,0.191789,0.804835,0.120763,-0.040224,0.145432
246,1608438289,-0.327422,0.459966,0.191883,0.802783,-0.337095,0.026949,0.270428
247,1608471623,-0.327306,0.463515,0.192742,0.800581,-0.214529,-0.093576,0.354560
248,1608504957,-0.327883,0.466707,0.194439,0.798076,-0.021025,-0.087165,0.183803
249,1608538291,-0.328880,0.470116,0.197254,0.794967,0.141944,-0.300571,0.000652
250,1608571625,-0.329360,0.474112,0.199963,0.791712,0.225987,-0.521775,-0.009420
251,1608604959,-0.329539,0.478407,0.201604,0.788632,0.169192,-0.516314,0.064941
252,1608638293,-0.329314,0.482699,0.201886,0.786034,0.158221,-0.223802,0.070550
253,1608671627,-0.328779,0.487414,0.201870,0.783348,-0.356962,-0.083018,0.267552
254,1608704961,-0.328562,0.492237,0.202705,0.780201,-0.305593,-0.330185,0.648384
255,1608738295,-0.328646,0.497352,0.204370,0.776479,0.015434,-0.675429,0.418826
256,1608771629,-0.328508,0.503022,0.205355,0.772615,0.168710,-0.647937,0.120399
257,1608804963,-0.328310,0.509146,0.206623,0.768338,0.121386,-0.386364,-0.021182
258,1608838297,-0.327843,0.514953,0.208348,0.764190,0.153994,-0.450478,-0.152889
259,1608871631,-0.327423,0.520407,0.209927,0.760233,0.312961,-0.326679,-0.058949
260,1608904965,-0.327094,0.525762,0.211275,0.756307,0.110018,-0.387732,-0.189113
261,1608938299,-0.326599,0.530626,0.211852,0.752955,0.416097,-0.121386,-0.135222
262,1608971633,-0.326068,0.535367,0.212288,0.749700,0.486050,-0.066892,-0.137564
263,1609004967,-0.325613,0.539524,0.212473,0.746859,0.017028,-0.061319,-0.048134
264,1609038301,-0.325106,0.543471,0.212330,0.744254,0.160480,-0.194209,-0.073901
265,1609071635,-0.324657,0.547262,0.211195,0.741992,0.406695,-0.271610,0.288787
266,1609104969,-0.324755,0.551520,0.209949,0.739145,0.007767,-0.431685,0.099205
267,1609138303,-0.324025,0.555915,0.207980,0.736726,-0.166433,-0.312808,-0.094955
268,1609171637,-0.323743,0.559243,0.207676,0.734413,-0.011428,-0.326977,-0.072752
269,1609204971,-0.323435,0.562096,0.207268,0.732483,0.101231,-0.207805,0.220897
270,1609238305,-0.322942,0.564976,0.206919,0.730581,-0.400089,-0.000620,0.250749
271,1609271639,-0.323338,0.567373,0.208301,0.728152,-0.378084,-0.176237,0.214100
272,1609304973,-0.324324,0.569793,0.210053,0.725315,0.005708,-0.548908,0.327407
273,1609338307,-0.325463,0.573377,0.211796,0.721463,0.185545,-0.457876,0.073614
274,1609371641,-0.326238,0.577431,0.213679,0.717313,-0.087816,-0.229926,0.098008
275,1609404975,-0.326595,0.581458,0.216004,0.713189,-0.097712,-0.337449,0.216998
276,1609438309,-0.326784,0.585961,0.218125,0.708757,-0.068848,-0.164614,0.151526
277,1609471643,-0.327261,0.590920,0.220047,0.703809,0.070941,0.119864,0.132298
278,1609504977,-0.328637,0.595722,0.222745,0.698248,-0.281164,0.203786,0.078708
279,1609538311,-0.330335,0.599790,0.226139,0.692853,-0.093312,-0.040609,-0.034241
280,1609571645,-0.331946,0.604089,0.229495,0.687222,0.235141,-0.356858,0.200300
281,1609604979,-0.333715,0.608786,0.232597,0.681151,0.071458,-0.311359,0.214278
282,1609638313,-0.335128,0.613113,0.235163,0.675673,0.102645,-0.282879,-0.008779
283,1609671647,-0.336354,0.617357,0.237665,0.670302,0.140609,-0.183908,0.082968
284,1609704981,-0.337754,0.621550,0.240574,0.664662,0.340144,0.046781,0.184313
285,1609738315,-0.339613,0.625334,0.243823,0.658957,0.318890,-0.208319,-0.095812
286,1609771649,-0.340496,0.628861,0.245293,0.654585,0.546948,-0.481644,-0.033406
287,1609804983,-0.341181,0.632511,0.246992,0.650056,0.179425,-0.040065,0.286057
288,1609838317,-0.341760,0.636354,0.249144,0.645163,0.258047,-0.090166,0.032117
289,1609871651,-0.343769,0.638960,0.251474,0.640599,0.022304,-0.105636,0.134278
290,1609904985,-0.346022,0.641469,0.253944,0.635887,-0.025765,0.049585,0.197268
291,1609938319,-0.349094,0.643903,0.258105,0.630046,0.071107,0.175164,0.195368
292,1609971653,-0.353016,0.645778,0.263198,0.623803,0.093620,-0.510419,-0.037369
293,1610004987,-0.356271,0.647461,0.266531,0.618773,0.753865,-0.896101,0.149633
294,1610038321,-0.358518,0.650197,0.268967,0.613530,0.464819,-0.263298,0.107138
295,1610071655,-0.359806,0.652866,0.270180,0.609395,0.424553,-0.495900,0.075374
296,1610104989,-0.360284,0.655453,0.269524,0.606620,-0.109194,-0.596417,0.081866
297,1610138323,-0.359464,0.660010,0.267672,0.602974,0.068750,0.006466,0.392545
298,1610171657,-0.359859,0.664260,0.267485,0.598135,-0.118998,-0.149358,0.222898
299,1610204991,-0.360406,0.667778,0.267306,0.593954,0.059702,-0.578200,0.063598
300,1610238325,-0.360660,0.671746,0.267451,0.589241,0.052467,-0.338548,0.169860
301,1610271659,-0.360809,0.676106,0.267002,0.584346,0.291596,-0.272799,0.178520
302,1610304993,-0.361814,0.679683,0.267233,0.579450,0.526676,-0.018788,0.131598
303,1610338327,-0.361670,0.683590,0.267067,0.575003,0.081520,-0.506460,0.067820
304,1610371661,-0.361098,0.688521,0.266543,0.569698,0.000295,-0.155067,0.032300
305,1610404995,-0.360827,0.693398,0.266932,0.563742,0.494083,0.090663,0.273432
306,1610438329,-0.360728,0.697001,0.267264,0.559185,0.414232,-0.603191,0.255507
307,1610471663,-0.359376,0.701396,0.265564,0.555358,0.314524,-0.716364,-0.137769
308,1610504997,-0.356926,0.707140,0.262525,0.551082,0.207565,-0.372055,0.129431
309,1610538331,-0.354835,0.712374,0.259345,0.547183,0.358481,-0.206197,0.075093
310,1610571665,-0.352926,0.716809,0.256179,0.544108,0.277798,-0.524182,0.085593
311,1610604999,-0.351059,0.721157,0.253073,0.541016,0.345234,-0.217529,0.224604
312,1610638333,-0.349015,0.725421,0.250001,0.538057,0.409806,-0.102233,0.155212
313,1610671667,-0.347252,0.729344,0.247659,0.534970,0.462061,-0.229919,0.139687
314,1610705001,-0.345220,0.732823,0.245161,0.532675,0.267978,-0.301213,0.236343
315,1610738335,-0.342909,0.736251,0.242466,0.530671,0.408188,-0.163281,0.107121
316,1610771669,-0.340882,0.739026,0.239105,0.529643,0.512478,-0.106119,0.253719
317,1610805003,-0.338867,0.741384,0.235398,0.529301,0.320944,-0.123221,0.237678
318,1610838337,-0.336788,0.744241,0.231366,0.528396,-0.324497,-0.116383,0.115230
319,1610871671,-0.335012,0.747357,0.228080,0.526553,-0.444530,-0.225274,0.167400
320,1610905005,-0.335090,0.749369,0.226567,0.524292,-0.017029,-0.328845,0.183345
321,1610938339,-0.335077,0.751638,0.225239,0.521618,0.017892,-0.566092,0.089444
322,1610971673,-0.334598,0.753994,0.223531,0.519254,0.451888,-0.214031,0.090381
323,1611005007,-0.334267,0.755435,0.221613,0.518194,0.622958,-0.144771,0.334615
324,1611038341,-0.334349,0.755496,0.219586,0.518914,0.341187,0.282432,0.442703
325,1611071675,-0.334494,0.755382,0.217694,0.519784,0.169458,0.000664,-0.026327
326,1611105009,-0.334693,0.755619,0.216363,0.519866,0.064603,-0.110819,0.130589
327,1611138343,-0.335139,0.755660,0.215583,0.519844,-0.094000,0.202317,0.153813
328,1611171677,-0.336823,0.755519,0.216455,0.518597,0.034662,0.088955,0.183543
329,1611205011,-0.338881,0.755267,0.217988,0.516978,0.366081,-0.056888,0.198884
330,1611238345,-0.340239,0.755098,0.218613,0.516069,0.751989,0.121964,0.277637
331,1611271679,-0.340122,0.755491,0.218000,0.515831,0.744032,0.122787,0.212338