sep=,
DeviceTag:,R_Wrist
FirmwareVersion:,2.2.1
AppVersion:,2023.6.0
SyncStatus:,Synced
OutputRate:,30Hz
FilterProfile:,General
Measurement Mode:,Sensor fusion Mode - Complete(Quaternion)
StartTime: ,2026-09-07_13:48:10_512 AEST
© Movella Technologies B. V. 2005-2026

PacketCounter,SampleTimeFine,Quat_W,Quat_X,Quat_Y,Quat_Z,FreeAcc_X,FreeAcc_Y,FreeAcc_Z
1,273944933,0.418321,0.283146,-0.557821,0.658538,7.716182,1.974658,0.572433
2,273978267,0.403093,0.296424,-0.550239,0.668497,4.972494,1.801199,-1.125558
3,274011601,0.388823,0.309034,-0.543779,0.676477,2.608874,0.459883,-1.312866
4,274044935,0.382071,0.314755,-0.544409,0.677180,2.163481,-0.133614,-0.090792
5,274078269,0.381593,0.312911,-0.549653,0.674061,2.071736,-0.289035,0.972635
6,274111603,0.383732,0.304877,-0.555007,0.672138,1.713622,-0.072468,1.484755
7,274144937,0.387424,0.291004,-0.561716,0.670594,1.122687,0.738510,2.059911
8,274178271,0.389726,0.270716,-0.572508,0.668628,1.635366,0.823598,2.149919
9,274211605,0.383990,0.249759,-0.579028,0.674463,1.366677,0.959641,1.246881
10,274244939,0.371040,0.230562,-0.578821,0.688577,0.334117,1.060882,0.270359
11,274278273,0.356425,0.211366,-0.578702,0.702418,-0.339626,0.912991,-0.104937
12,274311607,0.343137,0.193374,-0.580256,0.712860,-0.290506,0.623488,-0.082205
13,274344941,0.332205,0.177688,-0.581835,0.720789,-0.429036,0.421808,-0.110563
14,274378275,0.324446,0.161029,-0.584744,0.725865,-0.314798,0.141194,0.433573
15,274411609,0.318898,0.141591,-0.588977,0.728948,-0.115822,-0.077224,0.470885
16,274444943,0.314428,0.121110,-0.592016,0.732112,-0.252416,-0.195119,0.090473
17,274478277,0.310299,0.098296,-0.596163,0.733924,0.195406,-0.208426,1.239398
18,274511611,0.303341,0.074255,-0.599309,0.737089,0.369970,-0.117617,1.522377
19,274544945,0.293089,0.050455,-0.600688,0.742111,0.020877,0.079537,0.868198
20,274578279,0.280001,0.023124,-0.606938,0.743434,0.324697,0.833618,2.258689
21,274611613,0.261856,-0.008382,-0.616225,0.742719,0.329077,0.976296,2.377873
22,274644947,0.239916,-0.041958,-0.622277,0.743944,0.320061,1.152330,1.767732
23,274678281,0.215357,-0.077830,-0.631184,0.741062,0.495447,1.785761,1.858566
24,274711615,0.186944,-0.117103,-0.646933,0.729944,0.663425,1.321682,2.802199
25,274744949,0.154730,-0.157781,-0.659801,0.718212,0.934115,1.357159,2.358989
26,274778283,0.118144,-0.200274,-0.673806,0.701370,0.572584,0.751649,1.185172
27,274811617,0.075821,-0.244548,-0.696980,0.669827,-0.178099,-0.027473,1.224256
28,274844951,0.031661,-0.286176,-0.713778,0.638454,-1.397481,-0.762669,0.781006
29,274878285,-0.011254,-0.321880,-0.722715,0.611515,-0.908329,-1.063868,-2.758486
30,274911619,-0.053892,-0.350548,-0.734433,0.578638,-0.859136,-0.819945,-3.166659
31,274944953,-0.092083,-0.372742,-0.742068,0.549474,-0.557539,-1.097567,-3.512774
32,274978287,-0.126201,-0.388814,-0.749692,0.520443,0.231279,-1.048959,-3.773521
33,275011621,-0.156783,-0.399971,-0.757294,0.491885,-0.167783,-0.845656,-1.148579
34,275044955,-0.181584,-0.409627,-0.760473,0.470016,0.610972,-1.208100,-1.264439
35,275078289,-0.203628,-0.414958,-0.762979,0.451896,0.992824,0.144776,-0.636845
36,275111623,-0.220840,-0.416811,-0.765659,0.437341,1.695430,0.648789,-1.250082
37,275144957,-0.232577,-0.413636,-0.770436,0.425728,2.227305,1.036130,-2.091816
38,275178291,-0.237088,-0.404297,-0.779035,0.416461,1.816885,1.775884,-1.963371
39,275211625,-0.234714,-0.388697,-0.790558,0.410907,0.974197,0.092167,-2.683137
40,275244959,-0.224319,-0.368552,-0.802916,0.411313,1.317159,0.621160,-3.589424
41,275278293,-0.210690,-0.344710,-0.817589,0.410287,-1.440264,-0.822533,-3.929917
42,275311627,-0.196965,-0.324266,-0.830346,0.408148,-4.358346,-1.779844,-1.864541
43,275344961,-0.184682,-0.311004,-0.837701,0.409180,-6.319820,-3.629494,0.119438
44,275378295,-0.172695,-0.306727,-0.837537,0.417887,-4.925745,-3.576172,-0.158822
45,275411629,-0.161911,-0.312048,-0.831550,0.430043,-3.973345,-2.705959,0.500347
46,275444963,-0.151405,-0.324157,-0.822019,0.443042,-2.859874,-1.821798,-0.023652
47,275478297,-0.138850,-0.339510,-0.810477,0.456709,-2.613461,-1.621854,-0.886998
48,275511631,-0.123837,-0.356818,-0.798683,0.468458,-2.323096,-0.473869,-0.311749
49,275544965,-0.104658,-0.375108,-0.785935,0.480260,-2.373801,-1.071190,-0.518383
50,275578299,-0.079200,-0.392151,-0.769876,0.497230,-1.007858,-0.189939,-0.525620
51,275611633,-0.048850,-0.408144,-0.754231,0.512025,-0.863522,-0.123801,-0.396793
52,275644967,-0.015462,-0.421235,-0.738756,0.525894,0.025124,0.712266,-0.020433
53,275678301,0.019484,-0.430646,-0.722998,0.539852,-0.150268,0.291419,-0.000896
54,275711635,0.056144,-0.437022,-0.707865,0.552077,1.810298,2.416533,0.317964
55,275744969,0.090895,-0.440737,-0.698876,0.555935,2.783223,2.152829,0.273394
56,275778303,0.124770,-0.437880,-0.692494,0.559596,5.066721,3.856544,0.281630
57,275811637,0.148000,-0.427996,-0.695178,0.558251,5.515189,3.868561,1.289767
58,275844971,0.160030,-0.405832,-0.703993,0.560434,5.687949,4.020624,-0.495786
59,275878305,0.162894,-0.370452,-0.719789,0.564037,4.032990,3.800368,-1.173104
60,275911639,0.161222,-0.324404,-0.739060,0.567945,0.980592,3.533579,-0.710790
61,275944973,0.159052,-0.271832,-0.757637,0.571663,-1.182825,1.551510,-0.956837
62,275978307,0.159745,-0.217278,-0.771135,0.576737,-2.429805,0.151010,-0.184020
63,276011641,0.163568,-0.167042,-0.780246,0.580138,-3.323194,-1.644273,1.200853
64,276044975,0.168614,-0.126594,-0.787857,0.578642,-3.307782,-2.654115,3.387282
65,276078309,0.172524,-0.099702,-0.793575,0.574922,-2.999182,-4.488023,4.577022
66,276111643,0.175451,-0.086025,-0.792807,0.577300,-2.135948,-4.424540,3.384968
67,276144977,0.179137,-0.085191,-0.789727,0.580505,-1.352177,-3.790317,2.846112
68,276178311,0.184096,-0.093616,-0.781788,0.588348,-1.055104,-3.368631,2.067712
69,276211645,0.190533,-0.109775,-0.771418,0.597129,-1.048394,-2.284075,1.071414
70,276244979,0.198657,-0.132803,-0.761792,0.602141,-0.771166,-1.633217,0.787715
71,276278313,0.209051,-0.159631,-0.749286,0.607774,-0.169815,-0.850443,0.188108
72,276311647,0.221251,-0.189210,-0.735492,0.611802,0.521974,0.142743,-0.123736
73,276344981,0.233711,-0.219336,-0.721060,0.614285,1.249700,0.821743,0.297359
74,276378315,0.247324,-0.248960,-0.703845,0.617620,1.319156,1.192441,0.267614
75,276411649,0.258762,-0.280512,-0.688733,0.616446,1.240309,1.011790,0.759255
76,276444983,0.268667,-0.311649,-0.673963,0.613571,2.026558,1.640142,0.357251
77,276478317,0.277893,-0.340855,-0.659043,0.610130,1.251394,0.964724,-0.469631
78,276511651,0.284116,-0.367327,-0.648608,0.603041,1.137639,0.702075,-1.381869
79,276544985,0.287010,-0.389966,-0.640741,0.595823,1.505069,1.215780,-0.311997
80,276578319,0.286638,-0.406583,-0.636243,0.589682,1.483220,0.890357,-1.374647
81,276611653,0.282934,-0.417027,-0.636757,0.583591,1.200310,0.704571,-1.466643
82,276644987,0.278508,-0.420198,-0.639726,0.580189,1.267790,0.683059,-2.308035
83,276678321,0.270827,-0.415563,-0.648418,0.577509,2.227470,1.133377,-2.049408
84,276711655,0.262496,-0.398615,-0.661363,0.578622,2.097776,0.696796,-3.537135
85,276744989,0.256701,-0.369864,-0.678785,0.580136,1.880079,1.148222,-4.571331
86,276778323,0.255038,-0.330432,-0.701578,0.577548,0.499657,1.930476,-3.922459
87,276811657,0.260137,-0.283361,-0.723544,0.573168,-2.490593,1.858848,-1.822996
88,276844991,0.270775,-0.235621,-0.740920,0.567630,-4.503524,1.193053,1.815087
89,276878325,0.287208,-0.194601,-0.748716,0.564862,-5.038723,0.589331,4.976103
90,276911659,0.306054,-0.164718,-0.744650,0.569822,-5.631523,-0.795470,4.713545
91,276944993,0.322368,-0.150157,-0.736611,0.575273,-4.478094,-1.382565,2.773984
92,276978327,0.335817,-0.149673,-0.728415,0.578134,-1.672880,-1.897990,4.358236
93,277011661,0.347924,-0.150655,-0.714367,0.588162,0.334341,-1.554076,2.350379
94,277044995,0.355970,-0.152842,-0.702319,0.597223,1.011656,-0.804200,0.272228
95,277078329,0.359594,-0.160282,-0.694904,0.601758,1.568249,-1.346399,0.930201
96,277111663,0.359928,-0.169600,-0.686485,0.608628,1.730601,-1.118455,1.563311
97,277144997,0.356133,-0.181276,-0.679608,0.615178,1.914900,-0.562344,1.747795
98,277178331,0.345693,-0.198718,-0.677655,0.617894,1.958619,-0.563510,2.896894
99,277211665,0.329860,-0.218719,-0.674306,0.623433,1.821023,0.032744,2.703725
100,277244999,0.308359,-0.241476,-0.672644,0.627819,1.452019,0.898908,1.684592
101,277278333,0.281618,-0.267393,-0.674062,0.628359,0.928552,1.064066,1.342298
102,277311667,0.250248,-0.294079,-0.676963,0.626592,0.711521,1.692319,1.793388
103,277345001,0.214479,-0.319990,-0.680830,0.622959,0.568195,1.349239,1.366735
104,277378335,0.174223,-0.344591,-0.687430,0.615098,0.920216,1.488934,0.533118
105,277411669,0.130944,-0.367318,-0.695386,0.603633,0.747682,1.193921,0.128688
106,277445003,0.086488,-0.387142,-0.703450,0.589747,0.509902,0.997497,0.547298
107,277478337,0.041398,-0.404447,-0.712103,0.572382,-0.366719,-0.118518,0.194425
108,277511671,-0.001551,-0.419649,-0.719400,0.553496,-0.296356,-0.513925,-0.233390
109,277545005,-0.041834,-0.432639,-0.725457,0.533655,-0.737341,-1.217607,-0.981666
110,277578339,-0.080180,-0.444007,-0.731313,0.511481,-0.377776,-0.931262,-1.006363
111,277611673,-0.113664,-0.453872,-0.734404,0.491664,0.475368,-1.200505,-1.245689
112,277645007,-0.140979,-0.461658,-0.735447,0.475517,0.563028,-0.939978,-1.049664
113,277678341,-0.164750,-0.466050,-0.738009,0.459347,0.167154,-0.443895,-1.158003
114,277711675,-0.183068,-0.466897,-0.741628,0.445514,0.766796,-0.676443,-2.281731
115,277745009,-0.193105,-0.463752,-0.744358,0.439974,2.004372,-0.842894,-3.913085
116,277778343,-0.197434,-0.453441,-0.750716,0.437995,0.143423,-0.195987,-4.053203
117,277811677,-0.197186,-0.438767,-0.757995,0.440508,-1.786663,-0.529604,-3.914430
118,277845011,-0.193298,-0.423522,-0.765295,0.444512,-3.134029,-0.694674,-3.246173
119,277878345,-0.186275,-0.410766,-0.771201,0.449249,-4.499711,-1.141448,-2.903330
120,277911679,-0.174962,-0.402548,-0.774185,0.456052,-3.499920,-1.414902,-2.453815
121,277945013,-0.159428,-0.398005,-0.774645,0.464868,-2.699286,-1.240618,-1.334352
122,277978347,-0.140781,-0.395802,-0.773714,0.474227,-2.796496,-1.238777,-0.499579
123,278011681,-0.119210,-0.395321,-0.770140,0.486207,-2.229855,-1.652934,-0.657757
124,278045015,-0.095401,-0.396172,-0.764699,0.499184,-1.907940,-1.071460,0.390913
125,278078349,-0.071608,-0.397984,-0.757864,0.511982,-1.226494,-0.983260,1.001228
126,278111683,-0.047341,-0.400575,-0.747715,0.527469,-0.918157,-1.960855,1.202765
127,278145017,-0.024750,-0.405710,-0.735817,0.541628,-0.276461,-0.343937,2.792003
128,278178351,-0.004584,-0.414595,-0.722797,0.552862,0.090397,-0.817864,1.815792
129,278211685,0.014440,-0.425785,-0.708823,0.562202,1.027886,-0.079560,1.694234
130,278245019,0.030451,-0.438827,-0.696200,0.567284,1.773394,0.924339,1.836186
131,278278353,0.042982,-0.452342,-0.686053,0.568219,2.231135,1.217811,1.517204
132,278311687,0.051214,-0.463416,-0.678931,0.567166,2.899350,1.715949,1.322087
133,278345021,0.053631,-0.470849,-0.675787,0.564570,3.368112,2.049998,1.189546
134,278378355,0.050588,-0.473521,-0.676421,0.561850,3.225327,1.724171,0.627312
135,278411689,0.043928,-0.470598,-0.681626,0.558566,3.039932,1.184475,-0.886967
136,278445023,0.034041,-0.461552,-0.691954,0.554087,1.919780,1.207375,-1.013083
137,278478357,0.023281,-0.445080,-0.705911,0.550503,1.826995,1.362053,-1.660368
138,278511691,0.016021,-0.420207,-0.720933,0.550843,1.575828,0.978469,-3.185438
139,278545025,0.013565,-0.387464,-0.735134,0.556118,0.346888,1.307025,-2.975732
140,278578359,0.013752,-0.347508,-0.751035,0.561247,-1.382597,0.515806,-3.024004
141,278611693,0.018756,-0.304449,-0.765711,0.566257,-4.455729,-0.770109,-0.718762
142,278645027,0.029736,-0.264456,-0.772496,0.576568,-4.856932,-1.777446,-0.697682
143,278678361,0.043758,-0.232079,-0.775283,0.585801,-5.586766,-2.671189,1.977750
144,278711695,0.059630,-0.207807,-0.774164,0.594922,-4.097745,-2.611061,1.586770
145,278745029,0.076045,-0.192011,-0.772941,0.599928,-3.446258,-2.870217,1.857766
146,278778363,0.094816,-0.183942,-0.767636,0.606558,-2.057180,-2.377434,1.386597
147,278811697,0.115654,-0.182604,-0.760405,0.612427,-1.245051,-2.020588,1.547110
148,278845031,0.136329,-0.184698,-0.752156,0.617709,0.510747,-0.214451,2.131652
149,278878365,0.155235,-0.187537,-0.742256,0.624331,0.974855,-0.152359,1.326117
150,278911699,0.172289,-0.191618,-0.731593,0.631168,0.834727,-0.568933,1.321009
151,278945033,0.185380,-0.197860,-0.722596,0.635879,1.518662,-0.020976,1.784964
152,278978367,0.194603,-0.206115,-0.714706,0.639410,1.400965,0.001237,1.575098
153,279011701,0.201070,-0.215992,-0.707874,0.641744,1.389327,0.362250,1.085619
154,279045035,0.203786,-0.227743,-0.703724,0.641388,1.521547,0.428088,0.745445
155,279078369,0.202962,-0.239428,-0.700070,0.641393,1.653936,0.383261,0.528469
156,279111703,0.201010,-0.249294,-0.696125,0.642541,1.730096,0.791506,-0.681642
157,279145037,0.197883,-0.257393,-0.695065,0.641466,1.895123,0.860311,-1.659333
158,279178371,0.194030,-0.261538,-0.697918,0.637858,1.584759,0.518630,-2.745153
159,279211705,0.192621,-0.259022,-0.702006,0.634819,1.511878,0.580798,-3.784833
160,279245039,0.195251,-0.246735,-0.708003,0.632244,1.679620,1.136725,-4.681017
161,279278373,0.202467,-0.222905,-0.718629,0.626814,0.990362,1.886420,-5.261785
162,279311707,0.213985,-0.187755,-0.733932,0.616689,-0.625198,1.736869,-2.828965
163,279345041,0.229632,-0.144112,-0.747736,0.606130,-2.379741,1.086147,-0.850164
164,279378375,0.245590,-0.102756,-0.761796,0.590590,-4.027359,-0.696168,4.056787
165,279411709,0.259867,-0.070527,-0.768734,0.580126,-3.704001,-2.691174,6.369617
166,279445043,0.271235,-0.048398,-0.764000,0.583435,-2.831104,-2.835909,5.244716
167,279478377,0.279601,-0.037337,-0.757195,0.589141,-1.284955,-1.680045,3.394008
168,279511711,0.285478,-0.034177,-0.751991,0.593166,-0.032334,-1.488945,2.268342
169,279545045,0.289617,-0.034373,-0.744570,0.600465,0.502680,-0.934472,0.873338
170,279578379,0.292799,-0.038363,-0.737214,0.607713,0.702243,-0.900954,0.470070
171,279611713,0.294473,-0.045624,-0.731493,0.613291,0.986295,-0.960298,0.833704
172,279645047,0.294249,-0.055212,-0.725071,0.620196,0.970224,-1.099037,1.352036
173,279678381,0.292225,-0.068680,-0.719120,0.626703,0.628936,-0.678445,2.098225
174,279711715,0.287327,-0.087947,-0.715599,0.630579,0.215385,-0.935532,2.860518
175,279745049,0.279494,-0.110568,-0.709059,0.637884,-0.177722,-0.740015,2.287786
176,279778383,0.268663,-0.136519,-0.703500,0.643640,-0.204179,0.118745,0.268270
177,279811717,0.254500,-0.165122,-0.703024,0.643214,0.375993,0.627575,-0.142035
178,279845051,0.238590,-0.191753,-0.702231,0.642791,0.691124,0.551571,-0.751379
179,279878385,0.223052,-0.214160,-0.699137,0.644665,0.959388,0.618497,-1.780674
180,279911719,0.209262,-0.231817,-0.697196,0.645283,1.401563,1.050401,-2.311308
181,279945053,0.197534,-0.245057,-0.700541,0.640447,1.548762,1.148237,-2.038846
182,279978387,0.190173,-0.252309,-0.704757,0.635212,0.813140,0.062235,-3.087158
183,280011721,0.188040,-0.251398,-0.708958,0.631522,0.801863,0.626495,-4.420521
184,280045055,0.187148,-0.246567,-0.721439,0.619443,-0.018132,1.114548,-1.037310
185,280078389,0.187833,-0.237037,-0.735324,0.606492,-1.104051,-0.177150,-0.225190
186,280111723,0.191545,-0.224644,-0.744629,0.598645,-1.043924,0.252039,-0.076364
187,280145057,0.193212,-0.215078,-0.753931,0.589916,-1.577129,-0.417742,2.795650
188,280178391,0.192931,-0.208511,-0.759097,0.585726,-1.404155,-1.284916,2.826589
189,280211725,0.190801,-0.205760,-0.760149,0.586032,-0.599646,-0.973650,2.257323
190,280245059,0.185411,-0.208438,-0.760242,0.586695,-0.040833,-0.845200,2.605782
191,280278393,0.176787,-0.215280,-0.757684,0.590185,0.408539,-1.138122,2.204962
192,280311727,0.164618,-0.227366,-0.755037,0.592560,0.490564,-1.233352,2.127098
193,280345061,0.150011,-0.244726,-0.751318,0.594246,0.443707,-1.194452,1.790316
194,280378395,0.134743,-0.266459,-0.745230,0.596220,0.130049,-1.091171,1.304072
195,280411729,0.117761,-0.291992,-0.738879,0.595762,-0.478808,-0.980942,1.319380
196,280445063,0.098467,-0.320937,-0.731562,0.593399,-0.207091,-0.354671,0.735465
197,280478397,0.076085,-0.351536,-0.725389,0.586896,-0.469595,0.088263,0.979457
198,280511731,0.052385,-0.380828,-0.719504,0.578396,0.021802,0.649939,0.254448
199,280545065,0.027735,-0.408037,-0.716092,0.565642,0.221136,0.372867,0.206643
200,280578399,0.003058,-0.432572,-0.712964,0.551866,-0.142775,-0.162288,0.162435
201,280611733,-0.021112,-0.455463,-0.709811,0.536916,0.394478,-1.105064,0.046131
202,280645067,-0.044674,-0.476840,-0.707637,0.519500,0.211592,-1.587864,-0.597878
203,280678401,-0.065326,-0.496288,-0.705671,0.501459,1.140287,-1.730622,-1.661794
204,280711735,-0.081637,-0.512749,-0.705310,0.482662,0.863126,-1.433749,-1.662984
205,280745069,-0.093495,-0.525299,-0.708394,0.462061,1.070935,-0.887199,-2.100847
206,280778403,-0.102507,-0.533319,-0.716090,0.438497,0.769453,0.720925,-0.762736
207,280811737,-0.108286,-0.535889,-0.726493,0.416302,0.806676,0.458120,-1.228621
208,280845071,-0.109364,-0.530734,-0.739398,0.399566,3.307608,1.535526,-2.974271
209,280878405,-0.112682,-0.517163,-0.759103,0.378958,1.331877,2.090220,-1.885096
210,280911739,-0.115296,-0.497942,-0.778775,0.363693,-2.135402,1.525860,-1.061152
211,280945073,-0.117839,-0.475992,-0.796900,0.352844,-2.869729,1.193306,-0.893500
212,280978407,-0.122461,-0.454880,-0.811657,0.345402,-4.323921,0.390333,-0.612959
213,281011741,-0.127487,-0.437485,-0.820094,0.346123,-4.398403,-0.382817,-1.393379
214,281045075,-0.133170,-0.425455,-0.821664,0.355139,-4.214329,-0.442960,-0.988301
215,281078409,-0.139133,-0.417965,-0.818191,0.369476,-3.751364,-0.721767,-1.024599
216,281111743,-0.143804,-0.414482,-0.811826,0.385313,-3.863854,-0.662980,-1.261083
217,281145077,-0.146588,-0.414159,-0.804153,0.400406,-2.430684,-1.000305,-1.462004
218,281178411,-0.148517,-0.414403,-0.797243,0.413060,-1.521614,-0.461700,-0.992651
219,281211745,-0.148852,-0.413816,-0.789222,0.428638,-1.256733,-0.121239,-1.094687
220,281245079,-0.151177,-0.410025,-0.782573,0.443403,0.354398,0.996495,0.161849
221,281278413,-0.157201,-0.401109,-0.780151,0.453614,0.472460,1.114089,1.507295
222,281311747,-0.166210,-0.386373,-0.779125,0.464820,2.239812,1.139124,2.226051
223,281345081,-0.177694,-0.367053,-0.780204,0.474321,1.606146,0.379050,3.098237
224,281378415,-0.192294,-0.345772,-0.783484,0.479187,1.728756,-0.203121,2.202361
225,281411749,-0.207514,-0.326756,-0.788397,0.478123,1.686762,-0.539529,1.871816
226,281445083,-0.221293,-0.310756,-0.794208,0.472965,1.990432,-0.831270,0.885651
227,281478417,-0.231673,-0.297118,-0.801428,0.464504,1.742082,-0.971239,0.050643
228,281511751,-0.237157,-0.284567,-0.809790,0.454995,1.823063,-1.164001,-0.675615
229,281545085,-0.237902,-0.270103,-0.818421,0.447924,2.583882,-1.883845,-3.519119
230,281578419,-0.234708,-0.254230,-0.827245,0.442659,0.951406,-0.640687,-1.931373
231,281611753,-0.228369,-0.235904,-0.834589,0.442334,-0.657254,-1.570686,-1.404223
232,281645087,-0.218201,-0.215500,-0.840199,0.447231,-0.778564,-2.461984,-2.351655
233,281678421,-0.204552,-0.197916,-0.843931,0.454720,-0.905146,-2.615566,-2.563580
234,281711755,-0.188246,-0.185576,-0.847136,0.460964,-2.098511,-3.855351,-0.291961
235,281745089,-0.168059,-0.180251,-0.847172,0.470709,-2.520020,-4.843712,0.705257
236,281778423,-0.144090,-0.183199,-0.843534,0.483870,-1.955340,-3.778121,-0.298255
237,281811757,-0.116328,-0.194761,-0.839696,0.493406,-2.175533,-3.537374,0.527401
238,281845091,-0.086074,-0.212629,-0.833060,0.503383,-1.258465,-1.737561,0.784254
239,281878425,-0.056046,-0.233054,-0.824178,0.513106,-0.982428,-0.602127,1.019936
240,281911759,-0.027767,-0.253986,-0.814581,0.520750,-1.023089,0.983872,1.977503
241,281945093,-0.003166,-0.274000,-0.804045,0.527663,-0.539641,1.504965,1.783393
242,281978427,0.017964,-0.290929,-0.792597,0.535566,-0.047238,2.532755,1.813060
243,282011761,0.032790,-0.303892,-0.783008,0.541734,0.548484,2.131025,1.229897
244,282045095,0.043085,-0.312299,-0.773625,0.549653,0.897516,1.811758,0.461612
245,282078429,0.051799,-0.316192,-0.765717,0.557691,1.135378,1.384695,-0.725917
246,282111763,0.061220,-0.316189,-0.760829,0.563399,1.275923,0.861770,-1.640501
247,282145097,0.073451,-0.310680,-0.759213,0.567168,2.243697,0.721405,-3.443709
248,282178431,0.089182,-0.296842,-0.763275,0.566873,2.884050,1.617476,-4.064619
249,282211765,0.108130,-0.271614,-0.773395,0.562491,2.982799,2.466902,-5.379416
250,282245099,0.129426,-0.236298,-0.786980,0.555047,0.897776,1.761232,-2.768481
251,282278433,0.153230,-0.193225,-0.799250,0.548076,-0.972422,0.462577,-0.995182
252,282311767,0.176464,-0.152161,-0.808322,0.540672,-2.710956,-1.671367,3.930225
253,282345101,0.194583,-0.122365,-0.811762,0.536850,-2.766800,-3.945818,6.966553
254,282378435,0.205202,-0.107728,-0.809626,0.539254,-1.885381,-4.476933,6.998093
255,282411769,0.210868,-0.107236,-0.803091,0.546884,-0.608206,-3.346724,4.946682
256,282445103,0.215210,-0.115713,-0.792733,0.558455,-0.265111,-2.039058,2.070278
257,282478437,0.218572,-0.130188,-0.783088,0.567497,-0.092210,-0.471011,0.920498
258,282511771,0.222120,-0.149912,-0.775429,0.571752,-0.930004,-0.608502,1.678239
259,282545105,0.228701,-0.172223,-0.760540,0.582765,-1.503448,-0.625753,0.610295
260,282578439,0.235906,-0.195827,-0.744962,0.592481,-0.697354,0.653335,-0.426144
261,282611773,0.240720,-0.218393,-0.732846,0.597744,-0.104191,0.544053,-0.810500
262,282645107,0.244287,-0.237237,-0.721437,0.602971,0.486510,0.248184,-1.218723
263,282678441,0.248808,-0.251829,-0.710701,0.607934,0.917305,0.034898,-2.165027
264,282711775,0.255922,-0.261329,-0.700498,0.612794,1.249607,0.422791,-2.373338
265,282745109,0.262479,-0.267319,-0.697512,0.610840,1.495095,0.236440,-3.121281
266,282778443,0.271946,-0.267396,-0.697400,0.606779,1.506841,0.795516,-2.411725
267,282811777,0.284670,-0.261233,-0.699801,0.600834,1.531480,1.318135,-2.606258
268,282845111,0.298309,-0.250188,-0.709624,0.587243,0.759627,2.010458,-1.134454
269,282878445,0.314812,-0.230904,-0.717373,0.577023,-1.832703,1.061605,-3.284597
270,282911779,0.329658,-0.212359,-0.731677,0.557566,-1.462708,1.616506,-0.383342
271,282945113,0.343988,-0.192019,-0.742145,0.542239,-0.919326,0.921674,3.072414
272,282978447,0.356648,-0.170097,-0.747255,0.534304,-0.737349,0.056515,3.231226
273,283011781,0.364402,-0.153444,-0.752422,0.526811,-0.699300,-0.527584,4.112599
274,283045115,0.365452,-0.143977,-0.754679,0.525526,-0.168568,-1.881328,5.320412
275,283078449,0.359760,-0.137628,-0.750936,0.536404,0.892129,-1.026112,3.206441
276,283111783,0.348939,-0.136560,-0.747605,0.548344,1.081459,-0.791414,1.785005
277,283145117,0.333524,-0.139097,-0.745764,0.559689,1.119229,-0.870759,1.204315
278,283178451,0.314482,-0.142814,-0.744410,0.571456,1.109677,-0.593674,1.215012
279,283211785,0.292303,-0.145338,-0.743241,0.583979,0.867701,-0.255707,0.053642
280,283245119,0.268884,-0.144768,-0.743260,0.595240,0.056054,-0.577395,-1.954223
281,283278453,0.245882,-0.142449,-0.746487,0.601673,0.286283,-0.171386,-1.444508
282,283311787,0.224971,-0.136740,-0.749633,0.607242,-0.147260,-0.850361,-1.736127
283,283345121,0.207900,-0.126172,-0.751664,0.613076,0.250282,0.081353,-3.152712
284,283378455,0.198158,-0.114194,-0.759070,0.609514,-0.216606,-0.408802,-2.977542
285,283411789,0.197962,-0.097161,-0.763367,0.607160,-0.429884,-0.008170,-3.121914
286,283445123,0.205783,-0.077580,-0.769120,0.600077,-1.168948,0.651825,-0.848145
287,283478457,0.219831,-0.060697,-0.775806,0.588318,-2.001897,-0.892287,1.293884
288,283511791,0.237673,-0.046770,-0.776761,0.581351,-2.483747,-1.112102,1.184673
289,283545125,0.251746,-0.039145,-0.776313,0.576569,-1.677911,-0.869457,3.673177
290,283578459,0.261379,-0.036879,-0.773563,0.576128,-1.212680,-1.526299,2.068499
291,283611793,0.268381,-0.038287,-0.767822,0.580480,-0.211273,-1.181785,2.163929
292,283645127,0.272739,-0.042419,-0.760749,0.587433,0.300139,-0.866801,1.958575
293,283678461,0.274363,-0.048296,-0.753025,0.596111,0.321308,-0.855755,1.448468
294,283711795,0.273720,-0.056132,-0.745279,0.605382,0.559815,-0.529170,1.095440
295,283745129,0.271112,-0.065727,-0.738103,0.614316,0.726939,-0.695189,1.141139
296,283778463,0.265805,-0.076392,-0.730886,0.623955,0.891545,-0.437693,1.230489
297,283811797,0.257788,-0.088459,-0.725252,0.632244,0.877712,-0.315164,1.517607
298,283845131,0.248493,-0.101245,-0.719200,0.640901,0.486842,-0.035079,0.598447
299,283878465,0.238794,-0.114518,-0.712351,0.649939,0.091256,0.224819,-0.107465
300,283911799,0.229287,-0.127727,-0.704723,0.659152,-0.058573,0.310724,-1.747193
301,283945133,0.221151,-0.139609,-0.699751,0.664795,0.090248,0.420480,-2.949930
302,283978467,0.216459,-0.147626,-0.696889,0.667607,0.345461,0.675664,-2.941278
303,284011801,0.216475,-0.150352,-0.695651,0.668285,0.281793,0.611986,-3.443113
304,284045135,0.223779,-0.147113,-0.695333,0.666929,-0.154071,0.479270,-4.277536
305,284078469,0.237414,-0.138312,-0.697511,0.661805,-1.098707,0.401016,-2.654657
306,284111803,0.254422,-0.127192,-0.702579,0.652286,-1.684172,0.072003,-0.155165
307,284145137,0.272019,-0.116707,-0.707790,0.641421,-1.726115,-0.870817,1.592621
308,284178471,0.287969,-0.108682,-0.707918,0.635702,-0.582714,-0.730037,2.992590
309,284211805,0.299841,-0.104556,-0.705308,0.633803,0.755396,-0.765571,3.108805
310,284245139,0.307197,-0.104527,-0.703406,0.632397,1.409297,-0.708812,2.335339
311,284278473,0.309350,-0.107955,-0.702285,0.632017,2.036347,-0.438934,2.348636
312,284311807,0.305732,-0.114136,-0.700575,0.634585,2.134723,-0.244916,1.974868
313,284345141,0.296524,-0.123827,-0.700289,0.637446,1.818976,-0.204026,1.800495
314,284378475,0.282483,-0.137831,-0.701821,0.639262,1.785920,0.067247,2.553602
315,284411809,0.264137,-0.154545,-0.703877,0.641020,1.090435,-0.241172,1.972354
316,284445143,0.241774,-0.174418,-0.707320,0.640955,0.705062,0.006731,1.769719
317,284478477,0.215694,-0.197037,-0.711915,0.638617,0.403850,-0.000101,1.730963
318,284511811,0.186587,-0.219893,-0.716620,0.635052,-0.180974,0.087304,1.113445
319,284545145,0.154854,-0.242137,-0.721676,0.629743,-0.334166,0.438466,0.722439
320,284578479,0.121874,-0.262440,-0.725995,0.623863,-0.717551,-0.073055,-0.242286
321,284611813,0.088828,-0.279747,-0.729537,0.617761,-0.248354,0.200437,-1.086832
322,284645147,0.056111,-0.293983,-0.732580,0.611355,-0.122016,0.224867,-1.064492
323,284678481,0.024572,-0.305337,-0.737360,0.602053,-0.310493,-0.162056,-1.301621
324,284711815,-0.004567,-0.314234,-0.742436,0.591631,-0.188743,0.238084,-0.880075
325,284745149,-0.031677,-0.320360,-0.747820,0.580632,-0.296414,0.460393,-0.273254
326,284778483,-0.056952,-0.322685,-0.754819,0.568226,0.111657,1.094503,-0.195088
327,284811817,-0.083215,-0.320903,-0.764581,0.552734,0.054212,1.966092,0.983794
328,284845151,-0.110429,-0.314533,-0.772812,0.540036,0.094404,0.684298,-0.446187
329,284878485,-0.138001,-0.304210,-0.778793,0.530938,-0.080886,1.195554,-0.182662
330,284911819,-0.164618,-0.291486,-0.784541,0.521953,-2.105749,-0.479810,0.302522
331,284945153,-0.187318,-0.278027,-0.789733,0.513748,-1.173574,-1.726442,-1.303711
332,284978487,-0.204976,-0.265354,-0.794702,0.505987,-1.237875,-2.437419,-1.835423
333,285011821,-0.217226,-0.255676,-0.799069,0.498933,-1.590343,-2.860266,-1.562414
334,285045155,-0.225730,-0.249620,-0.802375,0.492881,-1.673452,-3.005606,-0.989877
335,285078489,-0.230414,-0.248344,-0.803400,0.489680,-2.010422,-3.575387,-0.928744
336,285111823,-0.230721,-0.251751,-0.801692,0.490593,-1.508342,-3.164259,-1.532048
337,285145157,-0.226666,-0.259161,-0.799723,0.491836,-0.893191,-3.079603,-1.909354
338,285178491,-0.218861,-0.270008,-0.797156,0.493701,-0.982356,-2.670611,-1.466882
339,285211825,-0.206202,-0.284017,-0.792802,0.498280,-0.958261,-2.570410,-1.627566
340,285245159,-0.189255,-0.300052,-0.788538,0.502356,-0.931278,-1.980723,-1.184716
341,285278493,-0.168319,-0.317848,-0.783026,0.507459,-0.935939,-2.153238,-0.671988
342,285311827,-0.143835,-0.336509,-0.775690,0.514180,-0.369828,-0.241996,0.229620
343,285345161,-0.119000,-0.355011,-0.768995,0.518127,0.309019,-0.377404,-0.154320
344,285378495,-0.091788,-0.373504,-0.760069,0.523800,-0.105618,-0.150140,0.271065
345,285411829,-0.065404,-0.390704,-0.753183,0.525157,0.706387,1.242297,1.010962
346,285445163,-0.036604,-0.407380,-0.743934,0.528456,1.237066,0.096816,-0.867404
347,285478497,-0.009603,-0.421432,-0.737017,0.528310,1.676780,2.323737,0.970887
348,285511831,0.011878,-0.431995,-0.732938,0.525397,1.513400,1.425730,1.097836
349,285545165,0.027882,-0.438405,-0.730008,0.523558,1.924592,2.385708,1.289237
350,285578499,0.034693,-0.441565,-0.731214,0.518792,1.576359,2.391278,1.656377
351,285611833,0.032356,-0.440198,-0.735241,0.514394,2.142118,3.451354,1.514011
352,285645167,0.018962,-0.431613,-0.743064,0.511087,1.355904,3.896551,1.871251
353,285678501,-0.004076,-0.414100,-0.752326,0.512359,0.426475,3.967054,0.853630
354,285711835,-0.033403,-0.389064,-0.761815,0.516869,-1.260892,2.615508,-0.089495
355,285745169,-0.066000,-0.357944,-0.770507,0.523298,-2.271053,1.238766,-0.551689
356,285778503,-0.096970,-0.322737,-0.778053,0.530163,-1.102017,0.758345,-1.986527
357,285811837,-0.121843,-0.287260,-0.787008,0.532218,-2.049542,-0.976187,-1.834574
358,285845171,-0.137102,-0.255035,-0.791751,0.537859,-2.077435,-2.626184,-1.186351
359,285878505,-0.144787,-0.227754,-0.795157,0.543039,-1.895562,-3.313027,-1.051480
360,285911839,-0.144781,-0.208408,-0.796965,0.548136,-1.449277,-4.323924,-0.847824
361,285945173,-0.135963,-0.198165,-0.798290,0.552250,-1.415827,-5.007068,-0.251499
362,285978507,-0.119357,-0.196182,-0.798005,0.557186,-1.127830,-4.955474,-0.506781
363,286011841,-0.098746,-0.201705,-0.797006,0.560668,-1.298336,-4.361728,0.429086
364,286045175,-0.076525,-0.213839,-0.793033,0.565259,-0.957115,-3.400704,1.405630
365,286078509,-0.051207,-0.228964,-0.784605,0.573890,0.415568,-1.767672,-0.394199
366,286111843,-0.023894,-0.244347,-0.775580,0.581552,0.819085,-0.808036,-1.084777
367,286145177,0.002291,-0.257073,-0.767758,0.586905,1.991342,1.870571,-0.598337
368,286178511,0.022299,-0.264595,-0.763402,0.588823,2.754642,2.085639,-0.093414
369,286211845,0.036045,-0.263316,-0.760942,0.591891,2.405337,2.907571,1.218313
370,286245179,0.043313,-0.252127,-0.760923,0.596283,2.747617,2.853716,-0.586801
371,286278513,0.048607,-0.232506,-0.764180,0.599675,2.244759,2.919762,-2.400211
372,286311847,0.055817,-0.206809,-0.770048,0.600951,0.567290,2.130201,-1.730520
373,286345181,0.066274,-0.176316,-0.775070,0.603150,0.263959,2.175468,-1.872312
374,286378515,0.080395,-0.144990,-0.782915,0.599634,-1.335772,0.641452,0.592828
375,286411849,0.095672,-0.116749,-0.790743,0.593249,-1.802084,-0.820614,1.855490
376,286445183,0.109843,-0.093171,-0.797359,0.586067,-2.312649,-1.792753,3.242433
377,286478517,0.119371,-0.075916,-0.802094,0.580203,-1.826800,-2.534846,3.407192
378,286511851,0.125160,-0.065797,-0.801339,0.581261,-0.340652,-2.061650,3.043269
379,286545185,0.127699,-0.061043,-0.800475,0.582416,-0.054247,-1.776278,1.913237
380,286578519,0.127881,-0.061903,-0.799841,0.583156,0.045005,-2.196621,1.362659
381,286611853,0.126199,-0.068788,-0.797430,0.586047,-0.274832,-2.122871,1.652210
382,286645187,0.122797,-0.081521,-0.793816,0.590028,-0.712052,-2.401387,2.162343
383,286678521,0.118777,-0.099764,-0.787612,0.596329,-1.276495,-2.473787,1.686885
384,286711855,0.116236,-0.123173,-0.778834,0.603936,-1.293154,-1.706657,1.565621
385,286745189,0.116466,-0.150226,-0.768427,0.611057,-1.176978,-0.596755,0.026310
386,286778523,0.119909,-0.179381,-0.756650,0.617194,-0.944298,-0.708500,-1.516313
387,286811857,0.126908,-0.208353,-0.744468,0.621492,-0.147529,0.464845,-1.809319
388,286845191,0.135743,-0.234407,-0.733831,0.622994,1.117167,1.771137,-1.230328
389,286878525,0.144623,-0.254545,-0.726324,0.621890,1.510337,1.325219,-2.568981
390,286911859,0.154617,-0.267194,-0.722415,0.618724,1.990009,2.270535,-2.437820
391,286945193,0.167892,-0.269897,-0.720486,0.616336,2.386005,2.615500,-3.803997
392,286978527,0.182665,-0.261312,-0.724412,0.611211,2.576833,2.528893,-5.133707
393,287011861,0.198418,-0.238728,-0.736133,0.601456,2.246439,3.170732,-5.903183
394,287045195,0.213655,-0.202716,-0.752241,0.589401,0.878272,3.287982,-2.404017
395,287078529,0.228914,-0.155346,-0.765967,0.580313,-0.642145,1.919938,0.391468
396,287111863,0.243151,-0.102985,-0.775086,0.574035,-2.178829,0.676713,1.318297
397,287145197,0.252202,-0.058788,-0.784038,0.564114,-2.411544,-2.227347,7.771145
398,287178531,0.253415,-0.027281,-0.785004,0.564630,-1.534358,-4.000258,7.807045
399,287211865,0.248458,-0.010011,-0.781025,0.572862,-0.666720,-3.972921,4.417756
400,287245199,0.240898,-0.004811,-0.777912,0.580345,0.383146,-2.760247,2.374319
401,287278533,0.232268,-0.007736,-0.776450,0.585764,0.695651,-2.446407,1.761307
402,287311867,0.222798,-0.016225,-0.773630,0.592957,0.502239,-1.981386,0.859902
403,287345201,0.213693,-0.030666,-0.771406,0.598607,0.132427,-1.926350,1.222701
404,287378535,0.205122,-0.048824,-0.767387,0.605525,-0.223391,-1.680685,0.764755
405,287411869,0.197869,-0.070017,-0.762321,0.612221,-0.437442,-0.908585,0.578403
406,287445203,0.191200,-0.092664,-0.758113,0.616541,-0.473663,-0.164626,-0.210011
407,287478537,0.184847,-0.113476,-0.752978,0.621274,-0.395780,0.278874,-1.310892
408,287511871,0.179038,-0.131269,-0.747869,0.625626,0.110880,1.107352,-1.386684
409,287545205,0.175495,-0.144253,-0.743403,0.629084,0.632934,1.687805,-2.583641
410,287578539,0.175420,-0.150871,-0.741372,0.629949,1.223775,2.077087,-3.404156
411,287611873,0.180514,-0.149285,-0.742179,0.627934,1.205575,1.867499,-4.317581
412,287645207,0.190361,-0.137708,-0.746248,0.622828,0.303719,1.811177,-4.035152
413,287678541,0.203587,-0.119485,-0.753660,0.613413,-0.356561,1.594083,-1.552229
414,287711875,0.218703,-0.098555,-0.759792,0.604296,-1.193409,0.061968,1.046990
415,287745209,0.232616,-0.080756,-0.763890,0.596525,-1.116260,-0.679615,3.328808
416,287778543,0.241627,-0.069933,-0.766387,0.591082,-0.521661,-1.833457,4.658433
417,287811877,0.244463,-0.065819,-0.766467,0.590285,0.334000,-1.818531,3.737268
418,287845211,0.241599,-0.067096,-0.765767,0.592225,0.983754,-1.345879,2.522738
419,287878545,0.233696,-0.072827,-0.765180,0.595470,1.225950,-0.931726,1.794678
420,287911879,0.221130,-0.083556,-0.764777,0.599366,0.980860,-1.050705,2.380571
421,287945213,0.204560,-0.099687,-0.763484,0.604410,0.652332,-1.038289,1.972832
422,287978547,0.184847,-0.120694,-0.762047,0.608730,0.364317,-0.815239,1.924540
423,288011881,0.163325,-0.144585,-0.760139,0.612055,-0.051718,-0.583911,0.624678
424,288045215,0.140896,-0.169589,-0.758719,0.612972,-0.426378,0.147476,0.838089
425,288078549,0.118188,-0.194170,-0.756726,0.612942,-0.976106,0.227167,0.226936
426,288111883,0.095697,-0.217545,-0.754270,0.612042,-0.468831,0.448443,-1.038402
427,288145217,0.074338,-0.240019,-0.752637,0.608609,0.042369,0.536370,-0.618899
428,288178551,0.054059,-0.260260,-0.751097,0.604316,0.839224,0.799685,-1.149394
429,288211885,0.033696,-0.277536,-0.751708,0.597307,1.233692,1.200605,-0.878421
430,288245219,0.012657,-0.290749,-0.754980,0.587634,1.032577,1.613134,-0.282114
431,288278553,-0.008096,-0.299398,-0.759983,0.576821,1.020694,1.716192,-0.515542
432,288311887,-0.028939,-0.302377,-0.767257,0.564845,1.178682,2.019004,-1.016899
433,288345221,-0.048224,-0.298974,-0.777035,0.551822,0.880776,1.493391,-1.565227
434,288378555,-0.066044,-0.288568,-0.787156,0.541068,0.072489,1.503420,-1.378674
435,288411889,-0.080490,-0.272504,-0.795804,0.534753,-0.020475,0.215643,-2.273499
436,288445223,-0.091460,-0.251614,-0.805381,0.528856,-1.175554,-0.488558,-2.159175
437,288478557,-0.099798,-0.230297,-0.813821,0.524119,-2.305509,-1.794491,-0.159661
438,288511891,-0.103122,-0.212661,-0.818954,0.522932,-2.168632,-2.859076,-0.111985
439,288545225,-0.102943,-0.200453,-0.824594,0.518911,-2.008976,-3.320084,0.621756
440,288578559,-0.101588,-0.196921,-0.828266,0.514664,-1.872678,-4.123669,1.400520
441,288611893,-0.100173,-0.201696,-0.828414,0.512851,-0.752158,-3.836318,0.955541
442,288645227,-0.099068,-0.213249,-0.825634,0.512875,-0.479856,-2.989712,1.077101
443,288678561,-0.097930,-0.230632,-0.820486,0.513833,-0.457827,-2.268886,0.973733
444,288711895,-0.096971,-0.252418,-0.814214,0.513751,-0.393184,-1.896862,0.574450
445,288745229,-0.095865,-0.277601,-0.806636,0.512921,-0.459569,-0.971226,0.750721
446,288778563,-0.094251,-0.305579,-0.797698,0.511291,-0.548517,-0.522077,0.298982
447,288811897,-0.091469,-0.334877,-0.787668,0.508992,-0.240461,0.085973,-0.447397
448,288845231,-0.088417,-0.363529,-0.778896,0.503342,-0.277596,0.721358,-0.377334
449,288878565,-0.086059,-0.389173,-0.771139,0.496473,0.104880,1.050845,-0.382413
450,288911899,-0.083050,-0.411515,-0.763368,0.490947,-0.048120,1.236426,-0.332319
451,288945233,-0.079644,-0.430554,-0.756709,0.485462,0.914262,1.032158,-0.793353
452,288978567,-0.075804,-0.445978,-0.752029,0.479387,1.139427,0.849949,-0.465989
453,289011901,-0.070438,-0.458134,-0.748728,0.473877,1.200060,0.623257,-0.529658
454,289045235,-0.062445,-0.467128,-0.747976,0.467361,1.625598,0.638662,-1.286563
455,289078569,-0.053325,-0.472284,-0.751345,0.457808,2.305921,1.166645,-1.406008
456,289111903,-0.049768,-0.471682,-0.760561,0.443384,1.616958,1.869436,0.371967
457,289145237,-0.050794,-0.463269,-0.769544,0.436585,1.708519,2.493428,0.832355
458,289178571,-0.055931,-0.444820,-0.781621,0.433680,2.313709,2.693952,-1.103619
459,289211905,-0.063482,-0.417135,-0.796815,0.432499,0.569536,2.217118,-1.244348
460,289245239,-0.070251,-0.383729,-0.810993,0.436015,-1.659036,1.107937,-0.801750
461,289278573,-0.076541,-0.350835,-0.822696,0.440715,-4.145762,-1.172910,-0.176518
462,289311907,-0.081588,-0.325660,-0.828838,0.447569,-4.814574,-3.025641,0.562796
463,289345241,-0.086998,-0.311302,-0.830155,0.454276,-3.873802,-3.725091,1.044540
464,289378575,-0.091914,-0.306443,-0.827211,0.461919,-2.558221,-3.308551,0.540501
465,289411909,-0.095787,-0.307867,-0.821103,0.470993,-1.571060,-1.999742,0.084001
466,289445243,-0.098447,-0.312949,-0.814672,0.478209,-1.099501,-1.113019,0.112138
467,289478577,-0.101274,-0.318991,-0.808671,0.483778,-0.220516,0.047063,0.127962
468,289511911,-0.105364,-0.323589,-0.802720,0.489726,0.051731,0.748966,0.347321
469,289545245,-0.111682,-0.325254,-0.797085,0.496381,0.118167,1.265405,0.476364
470,289578579,-0.121344,-0.323533,-0.792441,0.502634,0.021458,1.174293,0.465144
471,289611913,-0.133532,-0.318599,-0.788700,0.508545,0.852361,1.057479,-0.408947
472,289645247,-0.146142,-0.310638,-0.788339,0.510559,1.286988,0.933736,-0.137600
473,289678581,-0.156992,-0.299830,-0.790805,0.509986,1.974759,0.909071,-0.283556
474,289711915,-0.164944,-0.286074,-0.795963,0.507347,2.761305,1.069833,-0.808789
475,289745249,-0.167804,-0.269636,-0.803951,0.502795,2.510725,1.144260,-0.699865
476,289778583,-0.165224,-0.250756,-0.811124,0.501899,3.128305,0.111576,-2.801255
477,289811917,-0.159693,-0.225075,-0.821823,0.498446,3.237338,1.493394,-3.813604
478,289845251,-0.152928,-0.194119,-0.834892,0.491821,-1.244591,-1.026461,0.299902
479,289878585,-0.142404,-0.161514,-0.839356,0.499117,-1.285054,-1.339244,-0.823980
480,289911919,-0.130564,-0.130587,-0.843695,0.504065,-2.117543,-2.994904,0.116582
481,289945253,-0.118217,-0.108318,-0.845665,0.509064,-2.769775,-4.273155,1.977263
482,289978587,-0.106618,-0.096329,-0.844888,0.515286,-2.136272,-4.472378,2.461636
483,290011921,-0.096574,-0.094784,-0.842352,0.521665,-1.051215,-3.235709,1.879412
484,290045255,-0.087600,-0.101206,-0.838751,0.527809,0.092861,-2.076822,0.867655
485,290078589,-0.078473,-0.111894,-0.834521,0.533759,-0.068290,-1.507819,1.014608
486,290111923,-0.068539,-0.126052,-0.829371,0.539961,0.042116,-1.538508,0.853354
487,290145257,-0.056388,-0.143547,-0.823209,0.546391,-0.155216,-1.505912,0.213949
488,290178591,-0.042134,-0.164307,-0.816796,0.551430,-0.421646,-1.091695,0.350624
489,290211925,-0.026422,-0.188000,-0.809107,0.556154,-0.729449,-1.186364,0.186769
490,290245259,-0.009328,-0.213807,-0.799673,0.561003,-0.690029,-0.448576,0.120679
491,290278593,0.007080,-0.240332,-0.791009,0.562581,-0.253516,0.835918,0.521177
492,290311927,0.020858,-0.265425,-0.783192,0.561896,-0.005820,1.248311,0.745747
493,290345261,0.032241,-0.287401,-0.774675,0.562355,0.228251,1.535086,0.450837
494,290378595,0.042464,-0.305598,-0.765849,0.564167,0.233358,1.532361,-0.336746
495,290411929,0.052350,-0.320375,-0.758547,0.565003,0.918318,1.756850,-0.912860
496,290445263,0.062703,-0.332219,-0.754425,0.562623,1.542009,1.434480,-1.585148
497,290478597,0.073678,-0.338791,-0.753204,0.558998,2.464877,2.157076,-1.806565
498,290511931,0.085261,-0.336601,-0.758209,0.551861,2.025658,2.041831,-3.004804
499,290545265,0.098915,-0.322258,-0.769437,0.542526,2.668770,4.257916,-4.362646
500,290578599,0.112017,-0.293537,-0.786749,0.531335,1.535555,5.296102,-3.226009
501,290611933,0.124580,-0.248090,-0.805247,0.523938,0.097536,5.091446,-2.636318
502,290645267,0.134676,-0.189032,-0.823431,0.517776,-1.957359,3.533385,-0.995305
503,290678601,0.144120,-0.123389,-0.835528,0.515655,-3.247359,1.186180,1.039516
504,290711935,0.152885,-0.058474,-0.839967,0.517363,-3.607805,-2.176467,2.589295
505,290745269,0.159170,-0.003213,-0.841719,0.515913,-2.707567,-4.024659,5.120715
506,290778603,0.159699,0.036051,-0.841245,0.515273,-0.950071,-6.498456,5.822958
507,290811937,0.155454,0.060783,-0.834542,0.525054,0.105805,-5.571715,3.288860
508,290845271,0.151479,0.071430,-0.828122,0.534947,0.497866,-4.380176,0.675211
509,290878605,0.148848,0.069696,-0.824840,0.540951,0.742672,-4.318561,1.747281
510,290911939,0.146348,0.059080,-0.820775,0.549019,0.668496,-3.142069,1.580675
511,290945273,0.144639,0.041638,-0.814963,0.559628,-0.096241,-2.924024,1.364944
512,290978607,0.145573,0.018065,-0.809129,0.569030,-0.957391,-2.044666,0.342901
513,291011941,0.151485,-0.009404,-0.801771,0.578039,-0.782798,-0.378632,-0.467540
514,291045275,0.161532,-0.035954,-0.795088,0.583483,0.329530,1.180869,-1.902302
515,291078609,0.174877,-0.057487,-0.786179,0.589948,0.665721,1.688415,-2.370879
516,291111943,0.190654,-0.070181,-0.778275,0.594151,1.888550,3.355367,-3.572819
517,291145277,0.207388,-0.070370,-0.772437,0.596139,1.248081,3.185311,-4.365928
518,291178611,0.225824,-0.057444,-0.769232,0.594968,1.127274,3.602993,-4.392164
519,291211945,0.245555,-0.035099,-0.768091,0.590347,0.479419,2.535223,-1.128942
520,291245279,0.265039,-0.011224,-0.769520,0.580922,-0.126943,0.943601,2.843332
521,291278613,0.280279,0.004270,-0.770883,0.571985,-0.245811,-1.259615,6.499352
522,291311947,0.287438,0.006285,-0.768716,0.571330,0.553283,-2.586811,6.655800
523,291345281,0.287950,-0.004591,-0.767050,0.573325,2.172537,-1.875618,4.184623
524,291378615,0.285005,-0.023077,-0.766329,0.575310,2.700543,-0.729539,1.785417
525,291411949,0.279732,-0.046000,-0.767898,0.574429,2.206980,-0.750433,0.374585
526,291445283,0.271453,-0.072242,-0.771704,0.570587,1.642312,-0.785474,1.045851
527,291478617,0.259343,-0.100970,-0.775702,0.566423,0.708942,-1.097562,1.490191
528,291511951,0.243852,-0.131822,-0.778329,0.563352,0.318478,-0.884818,2.058836
529,291545285,0.224361,-0.165364,-0.779827,0.560526,0.047864,-0.590861,1.968388
530,291578619,0.200625,-0.201581,-0.781188,0.555753,-0.034036,-0.094351,2.233587
531,291611953,0.172072,-0.240152,-0.781930,0.548914,-0.458095,0.490006,1.617667
532,291645287,0.139091,-0.277740,-0.781024,0.541774,-0.156054,0.999234,0.591904
533,291678621,0.106619,-0.311775,-0.777123,0.536200,0.235461,1.279543,-1.439992
534,291711955,0.074977,-0.342229,-0.777447,0.522337,0.667819,2.596499,-1.279021
535,291745289,0.047985,-0.365619,-0.778544,0.507831,0.437333,2.194124,-1.223934
536,291778623,0.026168,-0.380022,-0.782224,0.492977,1.498711,2.718248,-1.852191
537,291811957,0.008017,-0.384458,-0.790508,0.476683,1.299888,2.561296,-2.255982
538,291845291,-0.004855,-0.378303,-0.803665,0.459334,1.162754,2.000767,-2.905987
539,291878625,-0.013203,-0.361112,-0.819175,0.445396,0.478467,1.874232,-3.705485
540,291911959,-0.021412,-0.337992,-0.835858,0.432026,-3.129608,0.400035,-1.563224
541,291945293,-0.029024,-0.315466,-0.848758,0.423381,-4.205737,-1.043269,0.022998
542,291978627,-0.035360,-0.297692,-0.855880,0.421428,-4.034910,-1.825754,0.336429
543,292011961,-0.042858,-0.285152,-0.859189,0.422668,-3.274531,-2.093496,-0.567084
544,292045295,-0.053022,-0.278563,-0.859575,0.425116,-3.351906,-1.789117,0.636237
545,292078629,-0.064766,-0.276815,-0.856513,0.430775,-3.072971,-1.674237,0.605516
546,292111963,-0.077457,-0.279429,-0.850415,0.438995,-2.847137,-1.213780,0.019503
547,292145297,-0.089368,-0.285728,-0.842875,0.447144,-1.965704,-0.444000,-1.052732
548,292178631,-0.100067,-0.294726,-0.834933,0.453886,-2.215695,-0.209822,-0.429486
549,292211965,-0.110888,-0.304174,-0.826064,0.461305,-1.369640,0.415423,-0.380795
550,292245299,-0.122890,-0.310364,-0.817235,0.469790,0.874682,1.674964,-0.709118
551,292278633,-0.137757,-0.309356,-0.812020,0.475340,1.206716,1.906974,-0.180593
552,292311967,-0.154098,-0.300408,-0.810000,0.479490,1.932670,2.297915,-0.354456
553,292345301,-0.170067,-0.283982,-0.811744,0.481150,2.652404,2.059835,-1.031987
554,292378635,-0.185292,-0.259607,-0.817741,0.479137,2.902269,2.407220,-0.795072
555,292411969,-0.198116,-0.228430,-0.827111,0.473770,2.288133,1.464513,-0.378180
556,292445303,-0.206338,-0.193546,-0.836018,0.470150,2.246963,0.936397,-0.948311
557,292478637,-0.209501,-0.156400,-0.845420,0.465742,2.517883,1.796045,-1.420078
558,292511971,-0.207124,-0.118491,-0.856053,0.458514,0.373111,-1.638999,0.476809
559,292545305,-0.202415,-0.081993,-0.862068,0.457325,-0.069504,-2.365238,-0.525983
560,292578639,-0.195358,-0.047900,-0.868957,0.452169,-1.072401,-3.704407,-0.942634
561,292611973,-0.190078,-0.024049,-0.873854,0.446849,-1.611877,-4.687501,2.357184
562,292645307,-0.187575,-0.009763,-0.873737,0.448672,-1.110500,-4.518705,1.406040
563,292678641,-0.186418,-0.003274,-0.872410,0.451820,-0.288853,-3.218133,0.608772
564,292711975,-0.186089,-0.003874,-0.870582,0.455461,0.221272,-2.517366,0.232745
565,292745309,-0.184982,-0.008333,-0.868303,0.460178,-0.014580,-2.050843,0.091779
566,292778643,-0.183083,-0.015264,-0.865708,0.465618,-0.184209,-1.391098,-0.089528
567,292811977,-0.180110,-0.023752,-0.863291,0.470878,-0.490161,-1.274589,0.000410
568,292845311,-0.175916,-0.034267,-0.860178,0.477467,-1.079214,-2.357667,-0.221930
569,292878645,-0.169727,-0.047593,-0.856054,0.485903,-1.002085,-0.816678,0.070399
570,292911979,-0.161959,-0.063619,-0.852462,0.492983,-0.920355,-1.158508,0.278573
571,292945313,-0.154084,-0.081228,-0.847388,0.501594,-0.874871,0.060222,0.874742
572,292978647,-0.147177,-0.099716,-0.841456,0.510244,-0.726222,0.145151,1.505598
573,293011981,-0.140584,-0.118366,-0.832847,0.522105,-0.321572,0.018047,-0.721308
574,293045315,-0.132411,-0.136154,-0.824060,0.533719,-0.043464,1.146009,-0.624135
575,293078649,-0.122666,-0.150938,-0.816602,0.543447,0.600026,1.154035,-1.123405
576,293111983,-0.109557,-0.160286,-0.808982,0.554848,1.462218,2.150892,-1.763485
577,293145317,-0.093951,-0.162866,-0.804310,0.563680,2.637361,3.161524,-2.297368
578,293178651,-0.074393,-0.156445,-0.801241,0.572718,3.647165,2.846736,-4.319975
579,293211985,-0.048322,-0.138128,-0.800874,0.580679,3.488182,2.409982,-5.885887
580,293245319,-0.014979,-0.107628,-0.805631,0.582369,2.009389,2.522873,-5.612560
581,293278653,0.024214,-0.066983,-0.812522,0.578565,0.000219,0.995491,-2.975463
582,293311987,0.065687,-0.024036,-0.815588,0.574392,-1.669918,-0.404989,2.833938
583,293345321,0.101449,0.007577,-0.817914,0.566276,-2.639982,-5.236393,9.183756
584,293378655,0.125198,0.019740,-0.813844,0.567094,-1.024688,-5.259965,8.895027
585,293411989,0.138959,0.012945,-0.809127,0.570822,0.612170,-3.708064,6.073497
586,293445323,0.147419,-0.004954,-0.803345,0.576959,1.398961,-2.219128,2.488536
587,293478657,0.155273,-0.030079,-0.798148,0.581332,0.990128,-1.474933,0.776865
588,293511991,0.164462,-0.061417,-0.793732,0.582385,0.633905,-1.572775,0.700976
589,293545325,0.174538,-0.097841,-0.788177,0.582016,0.363395,-1.180761,0.799383
590,293578659,0.183585,-0.138384,-0.782305,0.578919,-0.179783,-0.821390,1.723225
591,293611993,0.190608,-0.180237,-0.772724,0.577999,-0.684899,-0.703703,0.390548
592,293645327,0.196543,-0.222360,-0.761135,0.576718,-0.827832,-0.122292,0.086909
593,293678661,0.200797,-0.263051,-0.750083,0.572593,-0.966333,0.031944,0.223557
594,293711995,0.204731,-0.300055,-0.737307,0.569590,-0.765733,0.502495,-0.853034
595,293745329,0.209576,-0.332741,-0.723860,0.566914,-0.299617,0.698146,-0.900119
596,293778663,0.216328,-0.358775,-0.710935,0.564851,0.926776,0.909642,-2.371620
597,293811997,0.224533,-0.378890,-0.703365,0.557949,1.518400,0.966186,-3.258240
598,293845331,0.235338,-0.391558,-0.700231,0.548614,1.991625,0.678089,-3.371890
599,293878665,0.249757,-0.394888,-0.702529,0.536786,2.073164,0.649834,-3.412477
600,293911999,0.270613,-0.386330,-0.707452,0.526339,1.219124,0.777697,-3.395574
601,293945333,0.298212,-0.366248,-0.715481,0.514802,-0.306140,1.244229,-4.627494
602,293978667,0.329290,-0.342075,-0.727445,0.495357,-2.712359,1.206191,-2.690883
603,294012001,0.361842,-0.321293,-0.735676,0.473945,-4.042918,1.059305,1.765636
604,294045335,0.390248,-0.308694,-0.739933,0.452677,-3.763001,0.163687,5.528624
605,294078669,0.413078,-0.305379,-0.737562,0.438309,-2.994878,-0.749435,6.252398
606,294112003,0.430600,-0.308705,-0.728031,0.435039,-1.501473,-0.909653,4.139245
607,294145337,0.443666,-0.314993,-0.714789,0.439340,0.122820,-0.829730,2.398498
608,294178671,0.450926,-0.324535,-0.703098,0.443846,0.841143,-0.638562,1.708356
609,294212005,0.454340,-0.334882,-0.691220,0.451272,1.084633,-0.366899,1.352397
610,294245339,0.454196,-0.345106,-0.679559,0.461312,1.062376,0.280001,0.879050
611,294278673,0.447513,-0.358270,-0.671932,0.468918,0.675082,0.199598,2.047400
612,294312007,0.436842,-0.369946,-0.664172,0.480818,0.111299,0.322061,0.746260
613,294345341,0.420756,-0.381163,-0.659195,0.493096,0.795410,0.476576,-0.266630
614,294378675,0.402242,-0.391146,-0.655807,0.505100,0.284902,0.192811,-0.303437
615,294412009,0.381772,-0.398854,-0.654414,0.516634,1.025462,0.005279,-0.626773
616,294445343,0.361362,-0.404915,-0.655414,0.525258,0.912106,0.111344,-0.902281
617,294478677,0.340937,-0.410556,-0.659457,0.529456,0.720511,0.160881,-0.466262
618,294512011,0.321846,-0.413532,-0.664652,0.532584,0.900596,-0.233256,-0.843935
619,294545345,0.306076,-0.413480,-0.670600,0.534462,1.697834,0.360382,-0.817093
620,294578679,0.293638,-0.408035,-0.677112,0.537406,1.738988,-0.038833,-3.133657
621,294612013,0.285659,-0.391361,-0.687928,0.540363,2.453265,0.061532,-7.107806
622,294645347,0.285046,-0.361234,-0.707299,0.536646,3.509184,1.612123,-9.749469
623,294678681,0.292420,-0.316143,-0.733842,0.525379,1.343706,3.167751,-5.175807
624,294712015,0.306222,-0.256863,-0.759311,0.513515,-3.557652,2.102834,2.881276
625,294745349,0.320932,-0.198151,-0.775673,0.506036,-6.769249,0.833447,5.239071
626,294778683,0.332009,-0.162369,-0.777258,0.509193,-8.390239,-3.364743,9.733210
627,294812017,0.334764,-0.152319,-0.770435,0.520734,-3.149815,-2.766014,6.795238
628,294845351,0.332986,-0.152000,-0.762945,0.532854,0.440338,-1.899325,3.079576
629,294878685,0.329120,-0.154233,-0.754957,0.545834,1.390475,-0.935220,0.091413
630,294912019,0.322477,-0.157973,-0.748381,0.557656,1.632818,-1.236185,-1.120240
631,294945353,0.314237,-0.163313,-0.744660,0.565745,1.670150,-1.278628,0.595325
632,294978687,0.305005,-0.172353,-0.741603,0.572096,1.128733,-1.428744,1.623727
633,295012021,0.294226,-0.186123,-0.738278,0.577700,0.875260,-1.294878,2.366061
634,295045355,0.280457,-0.205484,-0.734253,0.583091,0.929156,-0.569045,3.566772
635,295078689,0.262504,-0.231352,-0.730064,0.587007,1.318635,0.237972,2.585231
636,295112023,0.240465,-0.262267,-0.727237,0.586959,1.464530,1.092794,1.957901
637,295145357,0.213211,-0.295393,-0.726097,0.583154,1.570987,1.291234,1.879360
638,295178691,0.181028,-0.328057,-0.726718,0.575752,1.035779,1.343843,1.317183
639,295212025,0.144375,-0.359028,-0.729205,0.564372,-0.107412,0.969900,0.162404
640,295245359,0.105325,-0.386878,-0.731193,0.551897,0.216838,1.082623,-0.342928
641,295278693,0.067120,-0.411039,-0.732707,0.538224,0.450723,0.499868,-1.311396
642,295312027,0.031873,-0.431560,-0.734167,0.523203,-0.003432,-0.259332,-1.746820
643,295345361,-0.000578,-0.448834,-0.736669,0.505835,-0.231997,0.328386,-1.158074
644,295378695,-0.028170,-0.463491,-0.740439,0.485937,0.014692,-0.461199,-2.234098
645,295412029,-0.050790,-0.475200,-0.745334,0.464850,0.074819,0.000123,-1.398454
646,295445363,-0.068738,-0.484639,-0.749897,0.445036,-0.578389,-0.503875,-0.720036
647,295478697,-0.082617,-0.491832,-0.754303,0.426972,0.147880,0.053676,-1.294533
648,295512031,-0.093188,-0.495722,-0.760199,0.409483,0.926964,0.383177,-1.380402
649,295545365,-0.097865,-0.492601,-0.767375,0.398627,3.371797,1.437451,-2.329263
650,295578699,-0.097194,-0.477023,-0.781101,0.391006,4.523654,2.558237,-3.242912
651,295612033,-0.094360,-0.446315,-0.804235,0.380930,2.276897,2.382389,-4.013049
652,295645367,-0.086409,-0.405626,-0.828243,0.376851,-2.064676,1.760738,-3.017069
653,295678701,-0.075427,-0.365546,-0.846583,0.379455,-7.158041,-0.163667,-1.113881
654,295712035,-0.066585,-0.338569,-0.854799,0.387631,-9.356599,-3.771528,0.205269
655,295745369,-0.061278,-0.328535,-0.851998,0.403003,-6.400499,-4.543669,0.325071
656,295778703,-0.054844,-0.330457,-0.842874,0.421137,-3.312086,-2.934934,-0.782940
657,295812037,-0.046825,-0.338108,-0.833657,0.434176,-2.290767,-1.616036,-0.289600
658,295845371,-0.037341,-0.348160,-0.823366,0.446611,-1.241250,-0.916226,0.823919
659,295878705,-0.027393,-0.358568,-0.811991,0.459730,-1.018199,-0.469618,0.847113
660,295912039,-0.018459,-0.368535,-0.799659,0.473697,-0.895515,0.235587,1.435005
661,295945373,-0.011440,-0.377593,-0.786589,0.488439,-0.439646,1.620989,2.314428
662,295978707,-0.007448,-0.386135,-0.773970,0.501814,0.578837,2.644284,1.586689
663,296012041,-0.010264,-0.391372,-0.764377,0.512302,2.126860,3.056092,1.623758
664,296045375,-0.020350,-0.391109,-0.760179,0.518411,3.010864,3.042756,2.022565
665,296078709,-0.036212,-0.386628,-0.760845,0.519927,3.159291,2.025486,1.218376
666,296112043,-0.058259,-0.377556,-0.767740,0.514427,2.777223,1.718389,0.956603
667,296145377,-0.083247,-0.364535,-0.778663,0.503856,1.961350,0.810316,0.002728
668,296178711,-0.108758,-0.346957,-0.791271,0.491615,1.724083,1.292751,-0.615283
669,296212045,-0.134462,-0.322957,-0.804877,0.479368,2.058143,2.772541,-0.797888
670,296245379,-0.161966,-0.288934,-0.821143,0.464769,1.577102,2.439898,-0.808549
671,296278713,-0.184542,-0.244657,-0.833628,0.459514,1.073589,0.773542,-2.473154
672,296312047,-0.198618,-0.194293,-0.841127,0.464014,-0.666742,-1.149198,-4.389190
673,296345381,-0.206578,-0.148938,-0.849126,0.462742,-4.019826,-6.037895,0.152528
674,296378715,-0.210221,-0.120605,-0.851811,0.464415,-4.381672,-8.460216,2.429242
675,296412049,-0.210611,-0.111508,-0.849624,0.470479,-1.092404,-6.980021,-0.070752
676,296445383,-0.207550,-0.115731,-0.847271,0.475041,-0.018796,-3.793273,0.165852
677,296478717,-0.202441,-0.126735,-0.846047,0.476615,-0.498492,-1.934768,1.517734
678,296512051,-0.198585,-0.141157,-0.842868,0.479806,-0.168657,-0.928021,0.995638
679,296545385,-0.197586,-0.157021,-0.838268,0.483335,-0.146180,0.042326,0.683327
680,296578719,-0.199526,-0.173077,-0.833181,0.485846,-0.139085,0.043392,0.856638
681,296612053,-0.203293,-0.188049,-0.827015,0.489242,-0.053451,0.179039,0.435207
682,296645387,-0.207273,-0.202610,-0.820639,0.492484,-0.389784,0.351209,0.101932
683,296678721,-0.210072,-0.216971,-0.816169,0.492609,-0.040463,0.975326,-0.208197
684,296712055,-0.211892,-0.229086,-0.812249,0.492823,0.105820,1.466503,-0.589119
685,296745389,-0.213460,-0.235818,-0.809089,0.494168,1.071831,2.499928,-1.342588
686,296778723,-0.214441,-0.235137,-0.808285,0.495382,1.612853,2.240826,-1.602812
687,296812057,-0.212857,-0.226016,-0.810138,0.497280,2.528690,2.535102,-2.372945
688,296845391,-0.205357,-0.207810,-0.815788,0.499135,2.490934,2.362662,-2.630122
689,296878725,-0.191074,-0.179698,-0.821516,0.506273,2.485533,2.069170,-4.471549
690,296912059,-0.170520,-0.140281,-0.830825,0.510859,1.007721,0.476783,-4.432487
691,296945393,-0.147017,-0.097716,-0.838218,0.515975,-2.277791,-1.804147,1.438728
692,296978727,-0.124085,-0.062383,-0.840313,0.524011,-2.484463,-4.359427,2.646612
693,297012061,-0.105138,-0.041071,-0.840617,0.529740,-1.850949,-5.501423,4.652972
694,297045395,-0.092528,-0.036838,-0.837681,0.537004,-0.210370,-4.296770,5.039601
695,297078729,-0.084063,-0.044626,-0.833263,0.544625,1.341284,-2.239320,2.617272
696,297112063,-0.076766,-0.060006,-0.828633,0.551249,1.537923,-1.427939,1.467488
697,297145397,-0.070219,-0.081064,-0.824885,0.555036,1.179905,-1.260818,1.670074
698,297178731,-0.064397,-0.107455,-0.819855,0.558700,0.914562,-1.420908,1.348706
699,297212065,-0.059258,-0.138348,-0.814460,0.560361,0.167681,-1.586396,1.255114
700,297245399,-0.054447,-0.173127,-0.807103,0.561828,-0.428508,-1.344240,0.935424
701,297278733,-0.048572,-0.210661,-0.797566,0.563163,-0.984012,-1.144114,0.220563
702,297312067,-0.041788,-0.248682,-0.787255,0.562710,-1.074248,0.068802,-0.185389
703,297345401,-0.034725,-0.284395,-0.775782,0.562208,-0.057084,0.417606,-0.867898
704,297378735,-0.026677,-0.316372,-0.763537,0.562326,0.413862,0.343289,-1.624015
705,297412069,-0.016141,-0.343792,-0.752725,0.561208,1.226397,0.984946,-2.276947
706,297445403,-0.003585,-0.364836,-0.745950,0.557173,1.331564,1.094048,-1.795341
707,297478737,0.010516,-0.378160,-0.743368,0.551626,1.815534,1.586578,-1.592823
708,297512071,0.028480,-0.383185,-0.744087,0.546530,2.041235,1.363469,-2.939292
709,297545405,0.050514,-0.377356,-0.749832,0.541114,2.216017,1.497704,-4.187875
710,297578739,0.075422,-0.361850,-0.762108,0.531573,-0.206330,1.105091,-2.656316
711,297612073,0.103036,-0.341486,-0.773148,0.524419,-1.279104,0.990058,-0.991636
712,297645407,0.129662,-0.323300,-0.781321,0.517885,-4.656430,-0.250574,3.817533
713,297678741,0.152610,-0.313424,-0.782017,0.516651,-4.993221,-1.391240,3.860279
714,297712075,0.169262,-0.315365,-0.777684,0.516822,-3.519815,-2.190358,4.230413
715,297745409,0.181677,-0.326188,-0.768407,0.519758,-1.213788,-1.712229,3.123748
716,297778743,0.190452,-0.342957,-0.757204,0.522258,-0.546657,-1.224990,1.904402
717,297812077,0.196579,-0.365195,-0.744491,0.523187,-0.150677,-0.736064,1.440778
718,297845411,0.199711,-0.392002,-0.730139,0.522828,-0.424240,-0.781227,1.814585
719,297878745,0.202204,-0.420368,-0.712681,0.523921,-0.522941,-0.358282,1.407449
720,297912079,0.204068,-0.449152,-0.693851,0.524587,-0.294825,0.121296,0.010213
721,297945413,0.206115,-0.477163,-0.675110,0.523509,-0.333071,0.312459,-0.516638
722,297978747,0.209367,-0.502059,-0.657192,0.521731,0.104588,0.719397,-1.628368
723,298012081,0.214783,-0.521862,-0.641133,0.520076,1.261668,1.112582,-2.681675
724,298045415,0.221072,-0.535812,-0.630358,0.516415,2.206622,0.626794,-3.144308
725,298078749,0.229976,-0.541540,-0.625975,0.511862,2.729080,0.409662,-3.727200
726,298112083,0.241860,-0.538168,-0.629740,0.505281,3.021411,0.727247,-4.002030
727,298145417,0.258733,-0.524811,-0.641966,0.495492,3.043597,1.212054,-4.871206
728,298178751,0.280656,-0.498111,-0.661208,0.485719,1.744035,2.585178,-4.714808
729,298212085,0.303894,-0.457689,-0.688012,0.474143,0.360673,3.777025,-4.786986
730,298245419,0.326422,-0.408275,-0.715858,0.462936,-1.830667,4.622817,-0.214908
731,298278753,0.347138,-0.353083,-0.738163,0.458198,-3.351095,3.777949,2.589353
732,298312087,0.363281,-0.297818,-0.752378,0.461801,-5.334224,2.152517,6.941824
733,298345421,0.373063,-0.250907,-0.756499,0.474955,-5.161155,0.337131,6.341364
734,298378755,0.376444,-0.216339,-0.754922,0.491510,-3.171314,-0.607160,4.942583
735,298412089,0.375770,-0.189279,-0.750283,0.509949,-1.321092,-1.037411,2.826356
736,298445423,0.371818,-0.167034,-0.747019,0.525181,-0.322643,-1.182467,1.131228
737,298478757,0.366169,-0.147459,-0.743781,0.539415,0.242696,-1.451846,0.290460
738,298512091,0.359185,-0.129199,-0.740320,0.553373,0.437524,-1.408166,-0.323213
739,298545425,0.351009,-0.112418,-0.738567,0.564514,0.665572,-1.640252,0.179488
740,298578759,0.341604,-0.096432,-0.736682,0.575594,0.776108,-1.425944,0.821234
741,298612093,0.329762,-0.082766,-0.735204,0.586417,0.489035,-1.445346,0.618969
742,298645427,0.315297,-0.072834,-0.734898,0.595995,0.824981,-0.993963,2.040249
743,298678761,0.298089,-0.065787,-0.733481,0.607307,0.677585,-0.846716,2.347498
744,298712095,0.278489,-0.062802,-0.732459,0.618066,0.441216,-0.224243,0.983523
745,298745429,0.257395,-0.064775,-0.733798,0.625376,0.840383,0.413161,1.509995
746,298778763,0.234208,-0.068457,-0.735519,0.632039,0.189059,0.600711,0.858422
747,298812097,0.208181,-0.072126,-0.739012,0.636649,0.220324,1.405977,-0.071779
748,298845431,0.178452,-0.074078,-0.747814,0.635172,0.614967,1.633247,-0.772960
749,298878765,0.147759,-0.070577,-0.754027,0.636107,0.968052,1.585586,-1.136189
750,298912099,0.118273,-0.062074,-0.759710,0.636397,1.320778,2.248135,-1.694674
751,298945433,0.091494,-0.048154,-0.766182,0.634253,1.443147,2.140322,-2.417285
752,298978767,0.068317,-0.027248,-0.772514,0.630726,1.760918,2.988465,-3.653640
753,299012101,0.049934,0.000873,-0.780953,0.622592,1.188277,2.703266,-3.603903
754,299045435,0.038457,0.037151,-0.788079,0.613249,0.272909,1.858776,-4.157708
755,299078769,0.036325,0.080172,-0.791578,0.604698,-0.664077,0.809053,-3.932118
756,299112103,0.044544,0.127935,-0.789976,0.597988,-1.267038,-0.414970,-2.483133
757,299145437,0.061540,0.179526,-0.779043,0.597560,-2.178205,-2.215785,-2.848225
758,299178771,0.086589,0.232045,-0.763285,0.596704,-1.992279,-2.951421,-0.926950
759,299212105,0.115622,0.283708,-0.739390,0.599538,-2.911085,-3.011297,1.189873
760,299245439,0.151608,0.328947,-0.727767,0.582380,-1.394428,-4.621590,5.930126
761,299278773,0.179669,0.356995,-0.715258,0.573308,2.428623,-6.171909,7.096867
762,299312107,0.193259,0.369155,-0.698591,0.581677,0.330378,-3.803099,3.160565
763,299345441,0.208839,0.365645,-0.696268,0.581294,1.685133,-2.491611,2.044040
764,299378775,0.225183,0.352908,-0.695391,0.584107,1.823845,-1.866157,1.019550
765,299412109,0.241764,0.335252,-0.694293,0.589166,1.616685,-0.492113,0.290220
766,299445443,0.256688,0.313668,-0.696066,0.592637,2.315296,0.057861,0.976964
767,299478777,0.264948,0.291303,-0.695608,0.600897,2.699646,-0.553450,2.147116
768,299512111,0.267863,0.264729,-0.695765,0.611622,2.611273,0.740392,3.381673
769,299545445,0.266082,0.230248,-0.700458,0.620924,2.240748,0.029381,3.607009
770,299578779,0.257631,0.189102,-0.706693,0.631232,1.892248,1.125040,3.535944
771,299612113,0.242912,0.143214,-0.716566,0.637980,1.416403,1.455678,3.485387
772,299645447,0.221274,0.095731,-0.727440,0.642422,0.319739,1.767328,1.917029
773,299678781,0.195061,0.047738,-0.741514,0.640180,-0.319819,1.592659,1.687119
774,299712115,0.164770,0.001245,-0.756205,0.633249,-1.360799,0.805052,1.331771
775,299745449,0.132193,-0.044796,-0.770324,0.622192,-1.481614,0.373093,1.779456
776,299778783,0.099672,-0.090040,-0.780782,0.610197,-1.825473,-0.366718,0.243463
777,299812117,0.064836,-0.133699,-0.791305,0.593093,-1.406453,0.325874,0.413523
778,299845451,0.030086,-0.178155,-0.798623,0.574073,-1.659160,-0.561653,-0.396547
779,299878785,0.000867,-0.221607,-0.799623,0.558117,-1.499519,-0.801823,-1.913273
780,299912119,-0.021643,-0.261633,-0.798789,0.541312,-0.903625,-0.079369,-3.448592
781,299945453,-0.036535,-0.295917,-0.797463,0.524551,-1.010170,-0.057066,-3.948394
782,299978787,-0.043249,-0.323105,-0.795590,0.510658,-0.135672,0.884912,-4.199123
783,300012121,-0.045837,-0.340460,-0.794925,0.500082,0.397555,1.501211,-4.027512
784,300045455,-0.045315,-0.345174,-0.797157,0.493301,1.279236,1.988260,-4.060383
785,300078789,-0.042087,-0.336434,-0.801764,0.492157,0.470491,2.079362,-3.789062
786,300112123,-0.036371,-0.315449,-0.808581,0.495347,-0.782788,1.280716,-3.392232
787,300145457,-0.028005,-0.286686,-0.815435,0.502091,-1.045511,0.905743,-2.643544
788,300178791,-0.015060,-0.253634,-0.820023,0.512843,-0.768871,-0.434764,-3.384203
789,300212125,0.003018,-0.218223,-0.822795,0.524767,-1.719932,-2.085710,-1.991343
790,300245459,0.024542,-0.186409,-0.823056,0.535939,-2.029105,-3.527670,1.161320
791,300278793,0.051750,-0.163021,-0.820724,0.545125,-1.238487,-4.493066,1.042617
792,300312127,0.086089,-0.150950,-0.816155,0.551086,-0.845160,-3.978630,1.109037
793,300345461,0.127517,-0.153210,-0.806982,0.555921,-0.970038,-4.800777,3.378119
794,300378795,0.169907,-0.167531,-0.792873,0.560731,0.060727,-3.628750,3.068440
795,300412129,0.211282,-0.191975,-0.777157,0.560834,0.984146,-2.101548,3.219028
796,300445463,0.246824,-0.225923,-0.761791,0.554720,1.241431,-2.002254,3.936937
797,300478797,0.274223,-0.265031,-0.745137,0.547114,1.144755,-1.313530,3.231956
798,300512131,0.295323,-0.307787,-0.726987,0.538093,0.886846,-0.047506,2.896559
799,300545465,0.310866,-0.352654,-0.707866,0.527187,0.979816,0.924644,1.898935
800,300578799,0.321054,-0.396656,-0.689588,0.513866,0.103388,1.381295,0.812767
801,300612133,0.328114,-0.438105,-0.671152,0.499962,-1.098510,1.531857,0.561289
802,300645467,0.334331,-0.475520,-0.651937,0.486913,-1.301832,1.951349,-0.637535
803,300678801,0.339321,-0.509030,-0.633248,0.474077,-1.394802,2.565367,-1.594644
804,300712135,0.345123,-0.536660,-0.615782,0.462277,-0.282060,2.463065,-3.540697
805,300745469,0.355165,-0.553456,-0.602006,0.452918,0.897896,2.997281,-4.111778
806,300778803,0.368027,-0.560256,-0.598143,0.439200,1.055470,2.474823,-5.117626
807,300812137,0.383769,-0.558613,-0.603673,0.419826,1.403186,2.947507,-4.409584
808,300845471,0.401198,-0.549302,-0.616459,0.396596,0.592005,3.745111,-1.982423
809,300878805,0.417701,-0.535927,-0.630854,0.374612,-0.483695,4.488755,1.916360
810,300912139,0.432090,-0.520162,-0.639449,0.365837,-1.186948,3.731574,4.250653
811,300945473,0.441886,-0.503155,-0.641364,0.374468,-0.156532,1.508803,4.743041
812,300978807,0.444019,-0.485928,-0.642573,0.392203,1.101132,0.788063,3.003284
813,301012141,0.436538,-0.469733,-0.646964,0.412583,1.262097,0.058344,1.779932
814,301045475,0.422120,-0.453067,-0.653526,0.435260,1.028475,-0.024967,1.401465
815,301078809,0.401365,-0.437182,-0.661359,0.458677,0.091945,0.377308,1.319952
816,301112143,0.375970,-0.421992,-0.669950,0.481393,-0.401193,0.173355,1.165026
817,301145477,0.348781,-0.406207,-0.677556,0.504250,-1.038522,0.263992,0.262925
818,301178811,0.320867,-0.393216,-0.685360,0.522216,-1.755650,-0.253048,0.635233
819,301212145,0.293907,-0.383336,-0.692138,0.536302,-1.179545,-0.721024,0.798748
820,301245479,0.267465,-0.377592,-0.697663,0.546951,-0.707111,-0.805867,1.129745
821,301278813,0.239538,-0.376318,-0.703687,0.553022,0.019468,-0.507801,1.416553
822,301312147,0.209896,-0.377920,-0.709124,0.557015,0.390700,-0.686401,1.438902
823,301345481,0.176379,-0.382379,-0.715943,0.556871,0.870676,-0.187584,1.264163
824,301378815,0.137869,-0.388895,-0.724460,0.552188,0.893963,-0.005790,1.348127
825,301412149,0.096547,-0.395847,-0.732022,0.546013,-0.058258,-0.132095,0.655703
826,301445483,0.052365,-0.402113,-0.740106,0.536478,-0.405425,-0.177642,0.420585
827,301478817,0.007842,-0.406298,-0.748291,0.524332,-0.412383,0.284404,-0.540367
828,301512151,-0.033526,-0.407248,-0.755301,0.512393,-0.288358,0.213272,-2.090762
829,301545485,-0.069176,-0.405060,-0.762447,0.499817,-0.049191,0.583364,-2.450425
830,301578819,-0.098482,-0.399899,-0.770869,0.485949,-0.354238,0.516671,-1.634175
831,301612153,-0.121512,-0.391078,-0.779463,0.474059,0.672057,0.534408,-2.163307
832,301645487,-0.139897,-0.378173,-0.790341,0.461277,1.525627,2.011420,-1.352298
833,301678821,-0.155564,-0.360205,-0.803538,0.447640,0.758990,1.239894,-0.945137
834,301712155,-0.167662,-0.334638,-0.816425,0.439726,1.260146,1.411349,-2.688295
835,301745489,-0.177839,-0.302100,-0.832242,0.429517,-0.118971,0.419198,-2.329665
836,301778823,-0.185602,-0.267623,-0.845915,0.422327,-1.739081,-0.744050,-1.746656
837,301812157,-0.189641,-0.235358,-0.855419,0.420599,-2.726682,-3.011313,-0.887848
838,301845491,-0.189545,-0.207894,-0.860887,0.423943,-2.225423,-3.737917,-1.438367
839,301878825,-0.183866,-0.187795,-0.863848,0.429761,-1.832020,-4.248163,-2.204896
840,301912159,-0.172677,-0.175416,-0.865782,0.435702,-1.712736,-4.132353,-1.221436
841,301945493,-0.157192,-0.169132,-0.865661,0.444205,-1.238765,-3.738776,-0.378482
842,301978827,-0.138893,-0.166937,-0.863112,0.455940,-0.548465,-3.408457,-0.297308
843,302012161,-0.118753,-0.169224,-0.858371,0.469533,-0.306690,-2.951150,0.843448
844,302045495,-0.098055,-0.175086,-0.850586,0.486041,0.400172,-2.633121,0.441453
845,302078829,-0.076289,-0.182949,-0.840987,0.503441,0.424904,-0.602297,0.575152
846,302112163,-0.055475,-0.191867,-0.831460,0.518445,1.183287,0.528915,0.516850
847,302145497,-0.037426,-0.198823,-0.821722,0.532770,1.273122,0.985851,0.292953
848,302178831,-0.020426,-0.202713,-0.812710,0.545888,0.865637,1.724233,0.425623
849,302212165,-0.003609,-0.203344,-0.806024,0.555847,0.574809,2.143911,0.445157
850,302245499,0.012501,-0.200553,-0.801720,0.562912,0.719719,2.979897,0.515597
851,302278833,0.025083,-0.193224,-0.799897,0.567629,1.193478,3.125200,0.139015
852,302312167,0.034313,-0.179013,-0.800810,0.570511,1.295763,2.796154,-1.090735
853,302345501,0.042598,-0.157213,-0.803496,0.572595,1.197167,2.641777,-1.843932
854,302378835,0.052362,-0.127839,-0.807556,0.573385,0.936581,2.177655,-2.388750
855,302412169,0.065334,-0.092443,-0.811262,0.573622,0.227110,1.240615,-1.996205
856,302445503,0.082024,-0.053510,-0.814292,0.572136,-0.206558,0.201680,-0.683159
857,302478837,0.100888,-0.015813,-0.815175,0.570144,-0.708971,-2.349008,0.890695
858,302512171,0.121424,0.013104,-0.812353,0.570236,0.615612,-3.774365,4.312426
859,302545505,0.140912,0.028401,-0.807202,0.572507,1.685428,-5.054313,4.673793
860,302578839,0.158074,0.027617,-0.801749,0.575718,2.151726,-4.876281,3.744285
861,302612173,0.173551,0.011307,-0.797923,0.577125,2.294134,-4.132426,2.697209
862,302645507,0.188433,-0.015619,-0.794100,0.577630,2.010783,-3.201525,1.303639
863,302678841,0.204182,-0.050190,-0.789013,0.577279,1.446794,-2.528424,0.436860
864,302712175,0.221217,-0.089276,-0.782128,0.575648,0.583748,-2.115877,0.383592
865,302745509,0.239558,-0.131029,-0.772490,0.573328,0.003644,-1.677724,0.326651
866,302778843,0.258044,-0.175466,-0.763200,0.565820,-0.680554,-1.383575,0.519761
867,302812177,0.275753,-0.221908,-0.753571,0.553941,-1.607551,-0.740168,1.215301
868,302845511,0.293564,-0.267847,-0.738954,0.544084,-2.086086,-0.051400,1.273177
869,302878845,0.311936,-0.310355,-0.720170,0.536408,-2.435002,0.951603,-0.215955
870,302912179,0.330607,-0.350092,-0.701375,0.525557,-2.774360,1.513610,-1.197629
871,302945513,0.352318,-0.383275,-0.680487,0.515667,-2.637547,2.123194,-1.362041
872,302978847,0.375284,-0.408499,-0.662419,0.503482,-1.538963,3.091509,-2.530865
873,303012181,0.397339,-0.429534,-0.650249,0.484562,-0.747488,2.977692,-2.344653
874,303045515,0.422326,-0.442559,-0.639905,0.465087,-0.268759,2.621584,-2.478257
875,303078849,0.447659,-0.449128,-0.634938,0.441295,0.169318,2.635926,-3.561745
876,303112183,0.468538,-0.454473,-0.634868,0.413365,0.181220,2.745391,0.142803
877,303145517,0.486990,-0.450651,-0.633060,0.398737,1.566573,2.332930,3.202596
878,303178851,0.501732,-0.436553,-0.629055,0.402465,1.328913,2.087810,2.679008
879,303212185,0.508443,-0.420161,-0.626799,0.414821,1.767382,2.171476,1.757834
880,303245519,0.503512,-0.408126,-0.629987,0.427817,1.232279,1.548934,2.855985
881,303278853,0.493098,-0.393749,-0.632820,0.448729,0.674290,1.291135,2.051603
882,303312187,0.479699,-0.374830,-0.633596,0.477441,0.153434,1.361164,0.993508
883,303345521,0.459146,-0.357483,-0.638377,0.503854,0.325701,1.448917,0.265416
884,303378855,0.433936,-0.340832,-0.645771,0.527745,-0.590998,1.022841,0.641732
885,303412189,0.405888,-0.324731,-0.654168,0.549428,-1.320790,0.445863,0.759357
886,303445523,0.376245,-0.310286,-0.661927,0.569224,-1.323669,0.014678,0.965327
887,303478857,0.342964,-0.300226,-0.671272,0.584496,-1.268993,-0.043712,0.802490
888,303512191,0.305555,-0.296148,-0.685640,0.590621,-0.926738,-0.740724,1.843139
889,303545525,0.266966,-0.295470,-0.700854,0.591805,-0.499005,-0.634813,1.943910
890,303578859,0.228643,-0.297217,-0.713829,0.591468,-0.859366,-0.913612,1.161915
891,303612193,0.190938,-0.299076,-0.725402,0.589822,-0.395163,-0.799758,0.576353
892,303645527,0.154343,-0.300365,-0.738658,0.583392,-0.769920,0.333827,1.056702
893,303678861,0.118075,-0.299094,-0.750807,0.576967,-1.454509,-0.286521,0.283719
894,303712195,0.084038,-0.293197,-0.761343,0.572130,-1.029346,-0.222589,-0.026710
895,303745529,0.053640,-0.284212,-0.770256,0.568379,-0.395987,-0.618243,0.270039
896,303778863,0.026280,-0.275823,-0.777824,0.564112,0.490795,-0.846700,-0.775417
897,303812197,0.000748,-0.271920,-0.787114,0.553637,1.408701,-1.266502,-1.985967
898,303845531,-0.023901,-0.272896,-0.797381,0.537720,1.887405,-1.473561,-1.691461
899,303878865,-0.049175,-0.278245,-0.805029,0.521624,2.102095,-1.411965,-1.088610
900,303912199,-0.075382,-0.284340,-0.811345,0.505164,2.324042,-1.377247,-1.678677
901,303945533,-0.100895,-0.290360,-0.814694,0.491718,2.025118,0.008791,-0.785345
902,303978867,-0.123772,-0.296064,-0.815532,0.481598,2.078474,-0.172061,-1.251644
903,304012201,-0.142666,-0.300089,-0.814931,0.474849,2.143937,0.478113,-0.615391
904,304045535,-0.157226,-0.300520,-0.816042,0.468022,1.714692,1.220991,-0.724831
905,304078869,-0.165146,-0.296152,-0.819822,0.461428,1.680590,1.278566,-1.289058
906,304112203,-0.163908,-0.285350,-0.827129,0.455598,2.472756,1.686856,-3.062113
907,304145537,-0.155391,-0.265108,-0.837792,0.451307,0.294814,1.471284,-2.793111
908,304178871,-0.141501,-0.236264,-0.847069,0.454569,-1.301152,0.545977,-3.523978
909,304212205,-0.126518,-0.205558,-0.853305,0.462181,-4.592405,-0.498932,-0.645330
910,304245539,-0.113910,-0.179405,-0.857952,0.467717,-6.211908,-4.800920,1.225121
911,304278873,-0.105056,-0.165304,-0.858106,0.474651,-5.177247,-5.087602,1.564424
912,304312207,-0.099916,-0.163731,-0.856214,0.479697,-3.599615,-4.679163,1.204387
913,304345541,-0.095468,-0.169994,-0.852110,0.485694,-2.752000,-2.645228,0.379690
914,304378875,-0.090664,-0.180480,-0.847167,0.491444,-2.576115,-1.602095,0.492244
915,304412209,-0.085909,-0.193506,-0.840402,0.498900,-1.563095,-1.423849,0.544129
916,304445543,-0.079177,-0.207229,-0.832064,0.508389,-0.702433,-0.823207,-0.147814
917,304478877,-0.070918,-0.222309,-0.823773,0.516671,-1.080118,-0.504530,0.575689
918,304512211,-0.062341,-0.237941,-0.813434,0.527091,0.170550,0.605027,0.023179
919,304545545,-0.054163,-0.251079,-0.804191,0.536008,1.666750,1.904943,-0.507527
920,304578879,-0.047038,-0.259159,-0.797902,0.542198,1.795351,1.632641,0.321216
921,304612213,-0.038894,-0.260948,-0.790318,0.552986,2.076842,1.912250,-1.026450
922,304645547,-0.030423,-0.257371,-0.787334,0.559412,3.063560,3.094246,-1.314514
923,304678881,-0.022001,-0.245528,-0.788628,0.563294,3.550793,3.341869,-1.471129
924,304712215,-0.011505,-0.222319,-0.792708,0.567502,3.773179,3.302980,-3.674845
925,304745549,0.003436,-0.188098,-0.800702,0.568759,2.307283,2.353896,-4.050259
926,304778883,0.023591,-0.143152,-0.809305,0.569192,-0.227705,0.832743,-2.576880
927,304812217,0.049909,-0.093398,-0.815230,0.569375,-1.662577,-0.791509,-1.533175
928,304845551,0.078066,-0.049495,-0.816349,0.570116,-2.873360,-2.297400,3.909191
929,304878885,0.102014,-0.016900,-0.811591,0.575004,-2.619079,-3.835385,6.547604
930,304912219,0.118688,-0.000824,-0.810859,0.573081,-1.625383,-5.036340,6.430202
931,304945553,0.130240,-0.001577,-0.808484,0.573926,0.692256,-3.707424,4.620681
932,304978887,0.140289,-0.010875,-0.802989,0.579147,1.809199,-0.995022,0.661062
933,305012221,0.150194,-0.026007,-0.801180,0.578686,1.954691,-0.305670,0.483836
934,305045555,0.158138,-0.044794,-0.800782,0.575965,1.552794,-1.032186,1.212264
935,305078889,0.163477,-0.064689,-0.798390,0.575904,1.175865,-0.987240,1.321081
936,305112223,0.168286,-0.087025,-0.796551,0.574122,0.342530,-1.406273,0.751625
937,305145557,0.174319,-0.111144,-0.793424,0.572486,-0.398954,-1.542373,0.014245
938,305178891,0.182948,-0.136713,-0.788014,0.571730,-0.991322,-1.192020,-1.075130
939,305212225,0.194887,-0.163347,-0.781395,0.569878,-0.742301,-0.697824,-1.214475
940,305245559,0.211191,-0.188817,-0.773336,0.567186,-0.587057,-0.440370,-2.489172
941,305278893,0.231562,-0.212174,-0.766387,0.560370,0.490074,0.424306,-2.093810
942,305312227,0.255373,-0.232482,-0.761068,0.549103,0.779349,-0.084836,-1.372828
943,305345561,0.282754,-0.246078,-0.754180,0.539175,-0.043855,-0.548913,-2.047814
944,305378895,0.310960,-0.255059,-0.749899,0.525264,-0.223224,0.477459,-0.821955
945,305412229,0.334748,-0.264783,-0.747214,0.509418,-1.118782,-0.149690,3.087244
946,305445563,0.355589,-0.276012,-0.737439,0.503548,-1.295238,-0.440379,4.139126
947,305478897,0.370490,-0.293186,-0.726667,0.498735,-0.846237,-0.291626,3.295851
948,305512231,0.379783,-0.317556,-0.716431,0.491581,-0.323663,-0.609678,2.843905
949,305545565,0.385285,-0.343187,-0.704786,0.486886,0.235121,0.033816,1.585984
950,305578899,0.388160,-0.369613,-0.693204,0.481860,-0.068945,0.196417,0.323562
951,305612233,0.389736,-0.395896,-0.681526,0.476337,-0.247048,0.329971,-0.232952
952,305645567,0.391648,-0.420855,-0.669840,0.469904,-0.319526,0.428881,-0.839395
953,305678901,0.392268,-0.444600,-0.660804,0.460213,-0.353163,0.431032,-1.534997
954,305712235,0.393042,-0.465563,-0.652793,0.450147,-0.575970,0.713395,-1.082568
955,305745569,0.396278,-0.481097,-0.644187,0.443323,-0.719628,0.956602,-1.714101
956,305778903,0.399873,-0.493484,-0.638035,0.435302,-0.507850,1.043075,-2.025455
957,305812237,0.406056,-0.501017,-0.632188,0.429467,0.020220,1.255301,-2.142971
958,305845571,0.416672,-0.501394,-0.627573,0.425609,-0.108469,1.644093,-1.820365
959,305878905,0.429718,-0.496910,-0.627945,0.417266,-0.914458,1.479472,-2.503131
960,305912239,0.445166,-0.487768,-0.630652,0.407664,-0.541546,1.493845,-1.495547
961,305945573,0.461423,-0.475458,-0.636796,0.394363,-0.092790,1.661528,-1.771626
962,305978907,0.479144,-0.461665,-0.644302,0.377046,0.119801,1.942045,-0.798059
963,306012241,0.495784,-0.447147,-0.651449,0.360380,0.481694,1.879957,1.442281
964,306045575,0.507403,-0.432326,-0.658782,0.348776,0.685486,1.548677,2.964805
965,306078909,0.514304,-0.417351,-0.664436,0.346175,0.790789,0.595943,3.822831
966,306112243,0.516744,-0.403298,-0.667734,0.352789,0.855678,-0.026896,3.713991
967,306145577,0.513606,-0.391234,-0.670609,0.365282,0.838706,-0.341811,2.074739
968,306178911,0.506318,-0.382796,-0.673248,0.379273,0.883835,-0.794660,1.807340
969,306212245,0.496322,-0.377217,-0.675449,0.393882,0.597382,-0.608864,1.150690
970,306245579,0.483991,-0.373677,-0.678074,0.407842,0.082915,-0.485839,0.235724
971,306278913,0.470289,-0.372188,-0.681612,0.419179,0.219786,-0.898087,0.611020
972,306312247,0.459008,-0.369641,-0.683474,0.430747,-0.003686,-1.151131,0.834730
973,306345581,0.450025,-0.369591,-0.684208,0.439023,-0.252675,-1.461246,-0.149402
974,306378915,0.443564,-0.376169,-0.682844,0.442125,-0.781861,-2.098198,0.621185
975,306412249,0.439986,-0.387509,-0.679324,0.441326,-0.422984,-2.416306,-0.342135
976,306445583,0.438827,-0.403780,-0.674309,0.435548,-0.686439,-3.055947,-0.511154
977,306478917,0.441686,-0.423897,-0.666061,0.426134,-0.988355,-3.129248,-0.663701
978,306512251,0.447282,-0.446618,-0.655991,0.412492,-1.284800,-2.638702,-1.465848
979,306545585,0.455054,-0.470983,-0.644510,0.394601,-1.743654,-2.067621,-0.820275
980,306578919,0.465544,-0.495262,-0.630868,0.374155,-2.105148,-0.751202,-0.754695
981,306612253,0.475165,-0.520960,-0.617448,0.348682,-2.065026,0.366808,-0.629187
982,306645587,0.484508,-0.546275,-0.603280,0.320768,-1.971515,1.612242,-0.880556
983,306678921,0.494516,-0.569699,-0.587285,0.293249,-1.459529,2.836069,-0.458218
984,306712255,0.503834,-0.590605,-0.570117,0.268898,-0.466093,2.998912,0.409082
985,306745589,0.514249,-0.605983,-0.552033,0.252180,0.515233,2.768581,0.335551
986,306778923,0.523955,-0.616675,-0.535969,0.240671,1.667487,2.183625,0.045210
987,306812257,0.530944,-0.623977,-0.524057,0.232630,2.135820,1.527414,0.132087
988,306845591,0.536541,-0.626672,-0.516618,0.229159,2.452704,1.169394,-0.232394
989,306878925,0.539956,-0.626354,-0.513950,0.228004,2.091900,0.844023,0.120501
990,306912259,0.542309,-0.623331,-0.515031,0.228266,1.790863,0.729469,0.109734
991,306945593,0.542355,-0.618910,-0.519732,0.229526,1.310433,0.969069,0.509577
992,306978927,0.540914,-0.611485,-0.527592,0.234834,0.926682,1.083755,0.384809
993,307012261,0.537728,-0.600640,-0.538171,0.245874,0.744446,1.192293,1.411742
994,307045595,0.531895,-0.585915,-0.550393,0.266196,0.482947,1.683929,1.017673
995,307078929,0.523501,-0.566541,-0.562481,0.297649,0.318989,2.378002,0.230951
996,307112263,0.510643,-0.543018,-0.575434,0.336532,-0.117011,2.810057,0.798679
997,307145597,0.490994,-0.516387,-0.589737,0.380107,-0.588106,3.119094,1.263753
998,307178931,0.463459,-0.488818,-0.604692,0.424986,-0.842064,2.339026,1.786371
999,307212265,0.428057,-0.461976,-0.620758,0.466913,-0.243916,1.592056,2.262197
1000,307245599,0.383600,-0.439004,-0.640722,0.499604,0.559655,0.669988,2.619417
1001,307278933,0.331751,-0.420150,-0.663284,0.522945,0.080996,0.219502,2.217031
1002,307312267,0.275846,-0.404080,-0.685689,0.538945,-0.778030,-0.727015,1.380218
1003,307345601,0.218349,-0.389413,-0.707286,0.548114,-1.207292,-0.604521,0.996467
1004,307378935,0.159146,-0.379755,-0.726228,0.550503,-3.137179,-2.468957,1.333073
1005,307412269,0.102568,-0.373045,-0.740868,0.549030,-2.956189,-2.565582,0.952753
1006,307445603,0.052046,-0.369754,-0.751763,0.543533,-2.539176,-2.713098,-0.402651
1007,307478937,0.008568,-0.371311,-0.761540,0.531144,-1.494749,-3.314841,-1.351443
1008,307512271,-0.028051,-0.375581,-0.769587,0.515646,-0.511831,-2.544333,-0.908573
1009,307545605,-0.059876,-0.380466,-0.776057,0.499398,0.199779,-1.942071,-0.945190
1010,307578939,-0.088044,-0.384822,-0.781234,0.483566,1.315682,-1.188886,-1.495224
1011,307612273,-0.112556,-0.388049,-0.785364,0.468994,1.743202,-0.736090,-1.410451
1012,307645607,-0.133621,-0.390391,-0.788810,0.455545,0.816909,-0.693571,-0.871077
1013,307678941,-0.152302,-0.391945,-0.791668,0.443224,0.400899,-0.292204,-1.180765
1014,307712275,-0.168663,-0.393014,-0.793528,0.432906,0.318248,0.267049,-1.379988
1015,307745609,-0.182331,-0.392195,-0.795589,0.424239,0.867448,0.327297,-1.785213
1016,307778943,-0.191649,-0.387531,-0.800688,0.414719,1.676441,1.085479,-1.803792
1017,307812277,-0.198181,-0.376721,-0.808882,0.405607,1.180040,1.379542,-1.708803
1018,307845611,-0.201923,-0.357892,-0.818829,0.400827,1.252472,1.656847,-3.824281
1019,307878945,-0.202878,-0.333713,-0.829311,0.399651,-0.996048,0.887625,-2.599787
1020,307912279,-0.201106,-0.306526,-0.838372,0.403401,-2.779365,-0.865527,-1.763433
1021,307945613,-0.195674,-0.278625,-0.844959,0.412464,-2.296418,-1.865490,-2.736173
1022,307978947,-0.186710,-0.254695,-0.848387,0.424866,-3.112927,-2.720331,-1.608113
1023,308012281,-0.175736,-0.236888,-0.849674,0.437102,-2.582226,-3.345972,-0.241241
1024,308045615,-0.162828,-0.223687,-0.848907,0.450344,-1.368148,-2.829319,0.297908
1025,308078949,-0.148864,-0.214017,-0.845563,0.465899,-0.853279,-2.431471,0.186980
1026,308112283,-0.134373,-0.207216,-0.841483,0.480536,-0.638552,-2.277600,0.493925
1027,308145617,-0.118187,-0.202822,-0.835833,0.496266,-0.253896,-1.208010,0.702855
1028,308178951,-0.101354,-0.199906,-0.829725,0.511198,0.725245,-0.205791,0.901540
1029,308212285,-0.085496,-0.196250,-0.823287,0.525715,1.405516,0.410307,0.833373
1030,308245619,-0.070127,-0.189889,-0.816177,0.541186,1.980262,0.888105,-0.018455
1031,308278953,-0.054237,-0.181063,-0.810927,0.553782,2.582817,1.640287,-0.194725
1032,308312287,-0.036042,-0.170348,-0.806970,0.564344,2.327429,1.136448,0.161809
1033,308345621,-0.015757,-0.158482,-0.804745,0.571858,2.117638,0.983083,-0.603882
1034,308378955,0.006507,-0.147052,-0.805281,0.574333,1.251119,-0.195559,0.072266
1035,308412289,0.030680,-0.137764,-0.805692,0.575276,0.642045,-0.157164,1.603096
1036,308445623,0.053448,-0.132015,-0.805830,0.574765,0.127077,-0.949901,0.767265
1037,308478957,0.073610,-0.132070,-0.805624,0.572811,0.670558,-0.739918,2.402455
1038,308512291,0.090710,-0.136878,-0.804096,0.571373,0.625866,-1.309753,2.119453
1039,308545625,0.106316,-0.146287,-0.800752,0.571048,0.713007,-1.382160,0.766325
1040,308578959,0.121490,-0.160620,-0.796855,0.569618,0.744566,-1.791345,0.270164
1041,308612293,0.137502,-0.178956,-0.791725,0.567663,0.345162,-1.949248,0.242145
1042,308645627,0.154259,-0.201272,-0.785311,0.564786,0.171334,-1.992672,0.499570
1043,308678961,0.171490,-0.226758,-0.776745,0.561997,0.040054,-1.904100,0.572289
1044,308712295,0.189634,-0.254257,-0.766263,0.558780,-0.126701,-1.822827,0.638512
1045,308745629,0.209012,-0.282585,-0.754509,0.554237,-0.246003,-1.741879,0.529173
1046,308778963,0.229851,-0.311335,-0.740806,0.549042,-0.373556,-1.824965,0.310802
1047,308812297,0.250204,-0.341731,-0.726990,0.540468,-0.299840,-1.619868,0.015657
1048,308845631,0.270315,-0.373070,-0.711930,0.530006,-0.302031,-2.186108,0.426583
1049,308878965,0.290151,-0.404169,-0.695247,0.518742,-0.353480,-2.394480,0.325622
1050,308912299,0.307825,-0.436391,-0.678741,0.504102,-0.666352,-2.241762,-0.220300
1051,308945633,0.325043,-0.468546,-0.661353,0.487265,-1.348152,-2.304490,0.505552
1052,308978967,0.341185,-0.500544,-0.642760,0.468946,-2.360118,-1.872681,0.758655
1053,309012301,0.357208,-0.532096,-0.622624,0.449018,-2.530362,-1.532271,0.020692
1054,309045635,0.374054,-0.562755,-0.601146,0.426634,-3.594022,-0.470943,0.115932
1055,309078969,0.390608,-0.591567,-0.579490,0.402079,-3.822253,-0.807377,-0.007057
1056,309112303,0.406832,-0.619246,-0.557440,0.374547,-3.985314,0.358450,0.485499
1057,309145637,0.420585,-0.647209,-0.534140,0.344855,-3.243675,2.036597,-0.174214
1058,309178971,0.429891,-0.675594,-0.511509,0.311653,-3.752329,3.534715,0.229704
1059,309212305,0.442034,-0.699232,-0.484567,0.284389,-1.360813,4.172075,0.533511
1060,309245639,0.453351,-0.718234,-0.457995,0.262404,0.684951,2.799756,-1.845028
1061,309278973,0.461744,-0.732711,-0.438005,0.240998,0.718402,2.084515,-2.282665
1062,309312307,0.471219,-0.740018,-0.426160,0.220718,2.024378,1.338298,-3.127745
1063,309345641,0.481061,-0.740165,-0.424154,0.202068,3.257905,2.627792,-1.418291
1064,309378975,0.491487,-0.734160,-0.429859,0.186208,2.701635,3.525979,-0.693903
1065,309412309,0.500228,-0.724527,-0.442165,0.171245,2.634729,3.686668,-0.224236
1066,309445643,0.509136,-0.714068,-0.454605,0.155637,3.520217,3.793527,-0.210979
1067,309478977,0.512884,-0.707921,-0.465192,0.139273,2.946102,3.025290,1.040953
1068,309512311,0.515533,-0.703160,-0.472003,0.130410,1.906340,1.811673,2.614367
1069,309545645,0.519898,-0.696991,-0.476398,0.130219,1.819190,0.990735,1.429467
1070,309578979,0.520372,-0.692712,-0.481681,0.131712,0.927680,0.193132,1.447219
1071,309612313,0.521713,-0.686307,-0.487854,0.137113,0.289850,0.076797,1.448627
1072,309645647,0.523284,-0.678550,-0.494856,0.144441,0.331079,0.408328,0.586782
1073,309678981,0.522705,-0.671928,-0.501867,0.153045,0.330925,1.066514,0.499188
1074,309712315,0.520636,-0.666064,-0.508314,0.164060,-0.084703,0.792036,1.454111
1075,309745649,0.519183,-0.658633,-0.514391,0.179041,0.203453,0.880233,1.201159
1076,309778983,0.516616,-0.650478,-0.520789,0.196893,0.479898,1.394959,0.049990
1077,309812317,0.512641,-0.640981,-0.528282,0.217399,0.382892,1.616477,0.022563
1078,309845651,0.509438,-0.627779,-0.536118,0.242788,0.242146,1.774174,0.074979
1079,309878985,0.505448,-0.611483,-0.544605,0.272063,0.219692,2.054636,-0.360701
1080,309912319,0.500223,-0.592696,-0.553645,0.303262,-0.256579,2.067152,-0.723969
1081,309945653,0.491948,-0.572748,-0.564955,0.332829,-0.010339,1.827697,0.162952
1082,309978987,0.480380,-0.552132,-0.578012,0.360956,-0.554461,1.738659,-0.377710
1083,310012321,0.464819,-0.532553,-0.592208,0.386811,-0.901527,1.485199,0.954760
1084,310045655,0.444775,-0.513303,-0.606300,0.413639,-1.276733,1.255625,1.304817
1085,310078989,0.421286,-0.493397,-0.619430,0.442025,-1.413866,0.854184,1.734596
1086,310112323,0.392717,-0.472518,-0.632491,0.471653,-1.686922,0.412164,1.838550
1087,310145657,0.359675,-0.451407,-0.645501,0.500196,-1.852950,0.329617,1.440281
1088,310178991,0.322004,-0.431881,-0.657593,0.526655,-1.760046,0.151879,1.814422
1089,310212325,0.279030,-0.415138,-0.670357,0.548111,-1.236861,-0.231422,1.172349
1090,310245659,0.234699,-0.399700,-0.683986,0.563313,-1.282762,-1.283563,1.057402
1091,310278993,0.189707,-0.386923,-0.697462,0.572583,-1.596956,-1.315149,0.523516
1092,310312327,0.145633,-0.378348,-0.711482,0.573968,-2.070966,-2.509125,0.543675
1093,310345661,0.105836,-0.373220,-0.723700,0.570760,-2.253191,-3.018521,1.068440
1094,310378995,0.070389,-0.373144,-0.732744,0.564710,-0.629513,-2.659873,0.026568
1095,310412329,0.036365,-0.379065,-0.742390,0.551222,0.422533,-2.872380,0.044133
1096,310445663,0.003450,-0.388561,-0.750808,0.534133,1.816314,-1.373497,1.175710
1097,310478997,-0.029712,-0.399077,-0.758455,0.514396,2.152760,-1.377434,1.205336
1098,310512331,-0.062147,-0.409564,-0.764763,0.493492,2.538903,-1.003928,-0.269725
1099,310545665,-0.092883,-0.419939,-0.771225,0.469295,1.847122,-0.944736,-0.524382
1100,310578999,-0.119984,-0.428968,-0.776296,0.446046,1.448925,-0.598528,-0.912066
1101,310612333,-0.143677,-0.435470,-0.780714,0.424513,0.385358,-0.437631,-1.566763
1102,310645667,-0.162668,-0.439322,-0.784923,0.405503,-0.418432,-0.048667,-2.263492
1103,310679001,-0.178163,-0.440479,-0.790292,0.386882,-1.204486,0.188954,-1.966490
1104,310712335,-0.189521,-0.438622,-0.795395,0.372883,-1.136371,0.808727,-2.500766
1105,310745669,-0.198533,-0.433658,-0.801695,0.360295,-1.003683,1.631674,-2.317910
1106,310779003,-0.208384,-0.422703,-0.809234,0.350773,-0.744899,2.287302,-2.613797
1107,310812337,-0.218711,-0.402909,-0.819141,0.344731,-0.339877,2.023362,-3.231755
1108,310845671,-0.226007,-0.376540,-0.828389,0.347724,-1.224241,0.800262,-2.714978
1109,310879005,-0.228445,-0.345969,-0.835653,0.360283,-1.489992,-0.597296,-3.019386
1110,310912339,-0.226823,-0.313426,-0.841964,0.376051,-1.450097,-1.166092,-3.838985
1111,310945673,-0.219293,-0.284955,-0.846390,0.392857,-2.120100,-4.039714,-2.925357
1112,310979007,-0.205610,-0.261779,-0.848025,0.412373,-1.847633,-4.522408,-2.100285
1113,311012341,-0.187944,-0.243985,-0.848188,0.430961,-1.210140,-3.910664,-1.034122
1114,311045675,-0.167618,-0.231241,-0.845459,0.451257,-1.249192,-4.066341,0.326724
1115,311079009,-0.146445,-0.221658,-0.838831,0.475169,-0.894729,-3.170156,1.098495
1116,311112343,-0.125434,-0.216479,-0.831250,0.496415,-0.617356,-2.301495,2.928493
1117,311145677,-0.103294,-0.215076,-0.820702,0.519156,0.151254,-2.556429,1.970098
1118,311179011,-0.081350,-0.215836,-0.809363,0.540121,0.899828,0.294340,2.881414
1119,311212345,-0.061163,-0.219001,-0.798636,0.557208,1.669508,0.212384,2.026996
1120,311245679,-0.040950,-0.222630,-0.785478,0.576008,1.529513,0.457772,1.213024
1121,311279013,-0.019672,-0.225853,-0.773448,0.591933,1.791610,1.044682,-0.505584
1122,311312347,0.000864,-0.226547,-0.767981,0.599069,2.854257,3.371221,-0.911511
1123,311345681,0.018302,-0.221262,-0.769586,0.598705,3.208603,3.872672,-0.645955
1124,311379015,0.033387,-0.206136,-0.772513,0.599683,2.826996,3.623327,-2.157297
1125,311412349,0.047175,-0.180186,-0.779744,0.597754,1.753037,2.806755,-2.513129
1126,311445683,0.062443,-0.145373,-0.788641,0.594151,-0.215178,1.465461,-0.822669
1127,311479017,0.080921,-0.107371,-0.792543,0.594812,-0.793101,-1.999273,-0.785051
1128,311512351,0.097652,-0.076460,-0.793182,0.596223,-0.859225,-3.550865,4.692030
1129,311545685,0.112850,-0.059057,-0.785905,0.605088,0.151095,-6.748970,6.101211
1130,311579019,0.128193,-0.059257,-0.773706,0.617606,0.912532,-6.129744,3.242526
1131,311612353,0.145673,-0.077087,-0.765892,0.621489,1.363874,-5.337456,3.126976
1132,311645687,0.166830,-0.106082,-0.756050,0.623944,1.253863,-4.118303,1.147689
1133,311679021,0.191625,-0.143801,-0.744810,0.622786,0.934581,-2.932522,0.460103
1134,311712355,0.218064,-0.187118,-0.731827,0.617953,0.929324,-2.475144,1.028971
1135,311745689,0.244518,-0.233102,-0.715246,0.611801,0.485861,-2.436884,1.504754
1136,311779023,0.268611,-0.282075,-0.695662,0.603605,-0.680967,-3.051059,1.904655
1137,311812357,0.289382,-0.335076,-0.674659,0.590610,-1.676092,-1.868417,1.674550
1138,311845691,0.308637,-0.389993,-0.650947,0.573514,-2.195344,-0.416198,0.569010
1139,311879025,0.326818,-0.444119,-0.626703,0.550631,-2.293823,0.614792,0.100315
1140,311912359,0.344208,-0.494658,-0.602436,0.523362,-2.739508,0.835822,-1.156550
1141,311945693,0.360576,-0.540510,-0.579550,0.491893,-2.210147,1.223446,-1.330851
1142,311979027,0.376673,-0.580041,-0.557006,0.459801,-1.183233,1.584647,-2.022535
1143,312012361,0.388950,-0.615612,-0.536682,0.426280,-1.894482,1.292548,-2.073992
1144,312045695,0.399622,-0.645065,-0.517835,0.395023,-1.760807,1.265402,-1.013334
1145,312079029,0.410687,-0.667875,-0.500194,0.367542,-1.314327,1.353112,-1.415762
1146,312112363,0.419791,-0.686690,-0.484737,0.342440,-1.170647,1.545216,-1.725240
1147,312145697,0.427372,-0.702178,-0.471338,0.319598,-2.081185,2.633349,-0.086176
1148,312179031,0.439892,-0.707104,-0.460402,0.307460,-0.267198,3.115004,-0.342278
1149,312212365,0.446138,-0.710714,-0.457847,0.293641,0.315134,2.825835,-1.646853
1150,312245699,0.455576,-0.709794,-0.458626,0.279832,1.914972,2.028358,-2.385211
1151,312279033,0.465895,-0.706289,-0.464847,0.260801,1.792330,2.797647,-3.643183
1152,312312367,0.480226,-0.699397,-0.472368,0.238952,1.960600,3.184899,-1.358939
1153,312345701,0.501367,-0.685535,-0.479856,0.220030,2.762917,2.264321,0.528003
1154,312379035,0.531299,-0.660957,-0.486030,0.211266,2.865594,1.721190,0.801572
1155,312412369,0.549563,-0.640619,-0.494703,0.207024,2.367968,1.738992,1.471211
1156,312445703,0.558373,-0.626065,-0.502999,0.207982,0.564310,1.182924,4.207303
1157,312479037,0.566417,-0.610088,-0.509593,0.217443,1.106394,1.042508,3.199184
1158,312512371,0.565647,-0.600144,-0.517647,0.227850,0.032951,1.483786,2.591772
1159,312545705,0.564729,-0.588253,-0.523768,0.246391,0.199537,1.596677,1.465056
1160,312579039,0.559900,-0.577588,-0.529053,0.270204,0.549893,2.007832,2.108221
1161,312612373,0.552307,-0.565749,-0.533129,0.301100,0.516474,2.134214,0.918016
1162,312645707,0.543250,-0.551175,-0.536079,0.337204,0.378502,1.869484,1.150895
1163,312679041,0.529944,-0.534491,-0.538970,0.378144,0.366657,2.234589,1.539902
1164,312712375,0.511160,-0.517202,-0.542839,0.420173,-0.554630,1.133656,2.048926
1165,312745709,0.483207,-0.503497,-0.551549,0.456945,-0.557551,1.023972,1.407912
1166,312779043,0.447378,-0.494458,-0.563940,0.487174,-1.118281,1.349896,0.462406
1167,312812377,0.408938,-0.485382,-0.576899,0.514163,-1.552960,1.039637,0.694445
1168,312845711,0.366851,-0.474924,-0.592057,0.537903,-1.106973,1.228780,0.157296
1169,312879045,0.323614,-0.465722,-0.606747,0.556989,-2.477599,0.798792,1.059535
1170,312912379,0.282586,-0.456548,-0.617165,0.575169,-2.820017,0.160650,0.846641
1171,312945713,0.239759,-0.450690,-0.628630,0.586703,-3.020393,-0.996049,0.487619
1172,312979047,0.197700,-0.445977,-0.640984,0.592589,-1.603666,-1.921435,-0.230808
1173,313012381,0.155383,-0.440334,-0.656522,0.592405,-1.057149,-2.181046,-0.503787
1174,313045715,0.115633,-0.433821,-0.671400,0.589620,-0.570206,-2.096085,-0.711025
1175,313079049,0.077445,-0.428004,-0.686713,0.582444,0.074617,-1.868395,-0.780057
1176,313112383,0.042381,-0.422923,-0.700887,0.572799,0.452809,-1.816783,-0.789238
1177,313145717,0.010811,-0.418846,-0.713945,0.561014,0.611030,-1.449330,-0.329667
1178,313179051,-0.017996,-0.416411,-0.725959,0.547049,0.928992,-1.572297,-0.060985
1179,313212385,-0.044771,-0.415115,-0.737291,0.531111,1.209696,-1.276830,-0.242232
1180,313245719,-0.071159,-0.413096,-0.748739,0.513498,0.712029,-0.177596,0.359366
1181,313279053,-0.096374,-0.409879,-0.759780,0.495427,0.971363,-0.196319,-0.614845
1182,313312387,-0.119901,-0.405236,-0.770189,0.477723,1.336711,0.892573,-0.473593
1183,313345721,-0.140755,-0.401409,-0.778597,0.461355,0.694818,-0.098976,-0.424961
1184,313379055,-0.159231,-0.398388,-0.785109,0.446697,0.737378,-0.051400,-0.462313
1185,313412389,-0.174644,-0.396663,-0.790937,0.431948,1.029648,0.365706,-0.208925
1186,313445723,-0.186932,-0.395458,-0.796368,0.417695,0.789728,-0.219520,-0.684043
1187,313479057,-0.196020,-0.392740,-0.801315,0.406483,1.705506,0.273790,-2.051329
1188,313512391,-0.203271,-0.384896,-0.809287,0.394452,1.248362,0.455751,-1.806423
1189,313545725,-0.207937,-0.371310,-0.818539,0.385860,1.159219,0.525744,-2.364861
1190,313579059,-0.212296,-0.353724,-0.827996,0.379783,-0.543979,1.031770,-1.129022
1191,313612393,-0.214488,-0.333308,-0.835320,0.380976,-0.371195,0.485198,-2.226451
1192,313645727,-0.215638,-0.308476,-0.842476,0.385461,-2.591103,-0.159694,-1.318613
1193,313679061,-0.214052,-0.285818,-0.845848,0.396273,-3.495288,-1.411550,-1.144321
1194,313712395,-0.213733,-0.268843,-0.848155,0.403332,-3.867576,-3.409318,-0.376222
1195,313745729,-0.213416,-0.260773,-0.846674,0.411820,-2.620929,-4.286776,0.025570
1196,313779063,-0.212149,-0.259574,-0.842418,0.421838,-1.361197,-2.701755,-0.172695
1197,313812397,-0.209910,-0.262736,-0.838365,0.429016,-0.942006,-2.745195,0.022428
1198,313845731,-0.205910,-0.269102,-0.832341,0.438629,-0.432836,-1.592613,-0.386889
1199,313879065,-0.201579,-0.276392,-0.825492,0.448931,-0.268216,-0.776562,-0.191491
1200,313912399,-0.197486,-0.282622,-0.816583,0.462946,-0.064380,-1.000823,-0.459584
1201,313945733,-0.190788,-0.287102,-0.806161,0.480916,0.333304,-0.714814,-0.841027
1202,313979067,-0.177728,-0.289434,-0.797118,0.499246,0.906249,-0.157667,-1.459037
1203,314012401,-0.157583,-0.287129,-0.791897,0.515390,1.935637,1.491379,-1.066856
1204,314045735,-0.131720,-0.278192,-0.792059,0.527165,3.447975,1.958605,-2.157836
1205,314079069,-0.103243,-0.259437,-0.797587,0.534687,2.836185,3.579612,-1.162465
1206,314112403,-0.077944,-0.232443,-0.806959,0.537322,1.333209,2.963250,0.554747
1207,314145737,-0.055808,-0.200443,-0.814654,0.541341,-0.039546,1.125152,0.379786
1208,314179071,-0.035338,-0.168427,-0.820936,0.544472,-1.498384,-0.303332,1.383901
1209,314212405,-0.017275,-0.142348,-0.825051,0.546563,-2.431016,-1.672901,3.475548
1210,314245739,-0.003919,-0.125824,-0.827138,0.547721,-2.396610,-2.742268,4.032704
1211,314279073,0.004214,-0.121117,-0.825831,0.550743,-1.577061,-2.763227,3.495865
1212,314312407,0.008123,-0.125176,-0.822729,0.554423,-0.689081,-2.356679,1.975452
1213,314345741,0.010204,-0.133754,-0.818349,0.558850,-0.673403,-1.649980,1.163104
1214,314379075,0.011890,-0.144355,-0.812325,0.564933,-0.596522,-1.481867,0.000158
1215,314412409,0.014707,-0.154858,-0.806094,0.570980,-0.655759,-1.061151,-1.247775
1216,314445743,0.018888,-0.163674,-0.804256,0.570989,-0.019686,-0.401278,-1.345001
1217,314479077,0.027809,-0.170944,-0.803295,0.569846,-0.125485,-1.006119,-1.576644
1218,314512411,0.043577,-0.174167,-0.798711,0.574307,0.782914,0.850860,-2.848871
1219,314545745,0.062693,-0.171955,-0.796720,0.575969,1.763937,1.656740,-2.256752
1220,314579079,0.083720,-0.160693,-0.794044,0.580229,2.840727,2.909581,-2.854590
1221,314612413,0.104376,-0.139317,-0.795051,0.581027,3.362288,3.252363,-2.707637
1222,314645747,0.125573,-0.108891,-0.799471,0.577254,2.471404,2.076868,-0.778671
1223,314679081,0.144603,-0.073142,-0.803201,0.573246,1.587683,1.092866,0.920980
1224,314712415,0.162335,-0.039813,-0.804726,0.569632,-0.159808,-1.245960,3.359099
1225,314745749,0.175591,-0.017273,-0.807126,0.563400,0.001352,-2.848415,4.843298
1226,314779083,0.188148,-0.010257,-0.807600,0.558820,0.317330,-3.934592,4.849249
1227,314812417,0.201446,-0.018956,-0.804825,0.557960,0.810731,-3.736576,3.479574
1228,314845751,0.214229,-0.038717,-0.802493,0.555531,0.989258,-2.934901,1.486222
1229,314879085,0.226730,-0.064626,-0.798521,0.553881,1.428637,-3.368974,1.530951
1230,314912419,0.239900,-0.092963,-0.787230,0.560426,1.100959,-2.900665,0.560801
1231,314945753,0.252968,-0.125384,-0.775289,0.564991,0.660203,-2.178289,-0.995308
1232,314979087,0.265877,-0.161094,-0.765569,0.563263,0.082270,-2.217641,0.405310
1233,315012421,0.280376,-0.197928,-0.754330,0.559645,-0.313817,-1.703811,0.360834
1234,315045755,0.295984,-0.237862,-0.742313,0.552077,-1.044495,-1.466833,0.599294
1235,315079089,0.312157,-0.280764,-0.727368,0.542833,-1.306184,-0.429465,0.588407
1236,315112423,0.329097,-0.325324,-0.711639,0.528614,-1.725890,-0.710155,0.080008
1237,315145757,0.346727,-0.369694,-0.694974,0.510019,-1.941869,-0.219471,0.650002
1238,315179091,0.365429,-0.412502,-0.674996,0.490598,-1.587722,0.112762,0.000734
1239,315212425,0.382747,-0.453976,-0.654752,0.467668,-1.324225,0.058533,0.445026
1240,315245759,0.398194,-0.492879,-0.633006,0.444767,-1.091808,0.404057,-0.214624
1241,315279093,0.410917,-0.530498,-0.610632,0.420535,-1.216844,0.213908,-0.648293
1242,315312427,0.422274,-0.564903,-0.588065,0.395918,-1.202133,-0.004158,-0.240454
1243,315345761,0.432641,-0.595691,-0.565352,0.371960,-1.271099,0.345990,-0.534417
1244,315379095,0.441505,-0.623166,-0.543122,0.348937,-1.080211,0.337437,-0.361073
1245,315412429,0.449868,-0.646319,-0.522261,0.327315,-1.128775,0.431708,-0.359091
1246,315445763,0.457178,-0.665979,-0.503428,0.306632,-0.758537,0.278354,-0.439265
1247,315479097,0.463087,-0.683468,-0.486561,0.285799,-1.091482,0.960055,-0.219624
1248,315512431,0.467088,-0.700132,-0.470608,0.264905,-0.401089,1.006382,-0.844785
1249,315545765,0.466710,-0.716678,-0.457977,0.242514,-0.438898,1.523676,-0.260944
1250,315579099,0.466029,-0.730061,-0.447121,0.223413,0.004899,1.934618,-0.813126
1251,315612433,0.461334,-0.741917,-0.440191,0.207279,1.156605,2.221198,-1.166548
1252,315645767,0.455528,-0.752352,-0.434343,0.194444,1.039250,2.402002,-1.700937
1253,315679101,0.449014,-0.761404,-0.431118,0.181081,0.586327,3.110639,-1.029750
1254,315712435,0.447445,-0.764995,-0.431315,0.168956,0.511966,3.488252,-0.869898
1255,315745769,0.452191,-0.762378,-0.435549,0.156849,1.174314,2.314411,-1.601660
1256,315779103,0.459214,-0.755991,-0.444392,0.141839,0.730328,1.886641,-0.779441
1257,315812437,0.469212,-0.745278,-0.456721,0.125730,1.495096,1.857424,-2.270844
1258,315845771,0.478535,-0.733621,-0.469786,0.110036,1.876819,1.578446,0.411798
1259,315879105,0.489736,-0.719198,-0.482298,0.101505,1.381567,1.547472,2.266541
1260,315912439,0.500330,-0.704612,-0.493115,0.100158,1.121356,1.079208,2.365225
1261,315945773,0.506972,-0.692826,-0.502787,0.100892,0.699940,0.607903,2.693163
1262,315979107,0.510844,-0.683055,-0.511146,0.105859,0.367062,0.400465,2.737511
1263,316012441,0.513954,-0.673161,-0.518190,0.119107,0.263496,0.559393,1.711083
1264,316045775,0.516120,-0.661490,-0.525709,0.140297,0.228446,0.643598,1.657022
1265,316079109,0.517534,-0.645315,-0.534997,0.171777,0.379934,1.124356,0.818791
1266,316112443,0.515182,-0.625614,-0.546907,0.209976,0.134175,1.353559,0.880825
1267,316145777,0.508162,-0.602807,-0.560263,0.253973,0.891896,1.842660,0.961810
1268,316179111,0.495272,-0.578250,-0.573924,0.301572,0.388039,3.142905,0.182099
1269,316212445,0.476455,-0.550936,-0.589251,0.349636,-0.039511,3.290068,0.675390
1270,316245779,0.450384,-0.521664,-0.606621,0.396275,-0.035787,3.538072,0.137693
1271,316279113,0.417969,-0.491804,-0.625654,0.438167,-1.991571,3.351800,0.336680
1272,316312447,0.383631,-0.458928,-0.644644,0.476077,-1.949280,1.874446,1.237149
1273,316345781,0.345038,-0.426293,-0.665207,0.506680,-1.877962,0.814073,1.279612
1274,316379115,0.300711,-0.396805,-0.688178,0.527761,-2.701197,-0.498684,1.239898
1275,316412449,0.254785,-0.369359,-0.708679,0.544458,-2.690395,-1.486342,1.877854
1276,316445783,0.207183,-0.344613,-0.727742,0.555617,-2.039748,-2.026175,0.286022
1277,316479117,0.159214,-0.322703,-0.745988,0.560372,-2.269477,-3.000981,0.090569
1278,316512451,0.113805,-0.302613,-0.760767,0.562770,-2.115372,-3.542560,-1.023164
1279,316545785,0.074185,-0.285398,-0.772050,0.563015,-1.810416,-4.322861,-1.444537
1280,316579119,0.040279,-0.271491,-0.779731,0.562754,-0.670316,-3.789766,-1.646383
1281,316612453,0.011295,-0.260094,-0.784665,0.562607,0.048913,-3.168757,-1.410834
1282,316645787,-0.013844,-0.250989,-0.787268,0.563049,0.649164,-2.369085,-0.952129
1283,316679121,-0.035876,-0.243908,-0.788672,0.563224,1.040653,-1.382807,0.210526
1284,316712455,-0.054509,-0.239036,-0.787196,0.565875,1.498516,-0.648253,0.040233
1285,316745789,-0.070290,-0.236762,-0.786400,0.566198,1.390575,-0.017124,0.278540
1286,316779123,-0.084129,-0.236834,-0.786707,0.563851,1.167828,0.003634,0.225614
1287,316812457,-0.096148,-0.239278,-0.787201,0.560195,1.515424,0.102524,-0.372170
1288,316845791,-0.107086,-0.243598,-0.788679,0.554238,1.396049,-0.158566,0.022329
1289,316879125,-0.116530,-0.249412,-0.789680,0.548291,1.289160,-0.352543,-0.322062
1290,316912459,-0.125015,-0.256614,-0.790769,0.541486,1.022061,-0.240499,-0.390521
1291,316945793,-0.132894,-0.265350,-0.791548,0.534212,0.953111,-0.182486,-0.380655
1292,316979127,-0.137867,-0.275526,-0.791553,0.527755,1.463803,-0.440991,-1.138565
1293,317012461,-0.140435,-0.285328,-0.793653,0.518637,1.624629,-0.027250,-0.474621
1294,317045795,-0.141629,-0.294085,-0.797806,0.506916,0.400774,0.547551,0.997375
1295,317079129,-0.142687,-0.298675,-0.801567,0.497922,1.059932,-0.083732,-1.217761
1296,317112463,-0.141253,-0.298125,-0.806097,0.491304,2.322493,1.220589,-2.483504
1297,317145797,-0.138503,-0.291646,-0.812869,0.484774,0.252950,1.459581,-1.283673
1298,317179131,-0.133440,-0.278683,-0.819731,0.482259,-0.005497,0.244133,-1.934437
1299,317212465,-0.126223,-0.262697,-0.826232,0.482079,-1.744105,-0.113360,-1.290644
1300,317245799,-0.119993,-0.248457,-0.831866,0.481531,-4.009727,-2.489290,0.275517
1301,317279133,-0.114845,-0.239502,-0.833476,0.484529,-4.357530,-2.449392,1.013090
1302,317312467,-0.110859,-0.235700,-0.831229,0.491138,-3.536004,-1.984102,0.283330
1303,317345801,-0.106351,-0.234612,-0.826359,0.500779,-2.124405,-1.114546,-1.145654
1304,317379135,-0.099320,-0.234810,-0.821759,0.509622,-1.654025,-0.064218,-0.318779
1305,317412469,-0.090278,-0.234660,-0.818197,0.517050,-0.960334,-0.166061,0.105479
1306,317445803,-0.079972,-0.233761,-0.814176,0.525434,-0.382215,-0.188922,-0.012368
1307,317479137,-0.069314,-0.231667,-0.810151,0.534026,0.110187,0.111824,0.076461
1308,317512471,-0.060990,-0.226467,-0.808160,0.540252,0.398613,0.623458,0.422181
1309,317545805,-0.055838,-0.217356,-0.806723,0.546661,0.879473,0.840639,0.392838
1310,317579139,-0.050735,-0.204600,-0.804736,0.554948,1.572876,1.176059,-0.673883
1311,317612473,-0.046381,-0.186641,-0.805147,0.561030,2.651712,1.855265,-1.977649
1312,317645807,-0.042904,-0.161298,-0.810309,0.561733,2.477886,2.021091,-1.498044
1313,317679141,-0.038663,-0.127451,-0.815323,0.563482,1.804242,1.547998,-2.396367
1314,317712475,-0.030474,-0.088457,-0.817929,0.567663,1.168005,0.471551,-3.011300
1315,317745809,-0.016250,-0.048399,-0.818182,0.572691,0.049359,-0.523151,-1.132200
1316,317779143,0.003506,-0.010098,-0.815872,0.578136,-0.219260,-1.391616,-0.632018
1317,317812477,0.025323,0.021792,-0.814445,0.579280,-1.328561,-3.308849,3.977678
1318,317845811,0.043480,0.041775,-0.807700,0.586504,-0.766475,-5.350989,5.678309
1319,317879145,0.055418,0.049570,-0.803370,0.590822,-0.985480,-3.272428,5.018752
1320,317912479,0.061503,0.044622,-0.803558,0.590358,-0.128299,-4.358131,4.825542
1321,317945813,0.063137,0.029772,-0.799079,0.597162,-0.218420,-3.070920,2.686965
1322,317979147,0.065270,0.005216,-0.795733,0.602099,-0.440046,-2.868854,1.615238
1323,318012481,0.070858,-0.026119,-0.791018,0.607117,-0.694205,-1.922313,-0.159585
1324,318045815,0.080840,-0.059810,-0.785574,0.610544,-0.693864,-0.439252,-1.051268
1325,318079149,0.092962,-0.091521,-0.781625,0.609957,0.102788,1.371286,-2.004086
1326,318112483,0.106481,-0.117351,-0.777257,0.608904,0.501375,1.995963,-2.271399
1327,318145817,0.122556,-0.134483,-0.771740,0.609355,1.574430,4.052820,-2.796331
1328,318179151,0.140590,-0.140237,-0.770083,0.606253,2.211192,4.879459,-3.229778
1329,318212485,0.155939,-0.129526,-0.772731,0.601494,2.243461,5.588668,-2.900164
1330,318245819,0.168282,-0.101768,-0.778027,0.596657,0.418339,4.529369,-3.564474
1331,318279153,0.178076,-0.063049,-0.785260,0.589647,-0.828602,3.371710,-0.801355
1332,318312487,0.184971,-0.020199,-0.790921,0.582944,-1.022935,0.825281,2.537396
1333,318345821,0.189666,0.021060,-0.788948,0.584077,-1.067515,-1.073481,2.963604
1334,318379155,0.192911,0.052008,-0.789243,0.580670,-0.260788,-3.385077,4.060944
1335,318412489,0.194025,0.070491,-0.786506,0.582062,1.101377,-4.312023,3.956999
1336,318445823,0.194510,0.077706,-0.784172,0.584126,1.162031,-3.841954,1.482029
1337,318479157,0.195762,0.074084,-0.784962,0.583118,1.387464,-4.109194,1.015377
1338,318512491,0.197428,0.062247,-0.783374,0.586068,1.936865,-3.834581,0.970362
1339,318545825,0.201398,0.044751,-0.780821,0.589709,1.684472,-3.482403,0.380404
1340,318579159,0.208607,0.021999,-0.777498,0.592873,1.285680,-3.603745,0.269405
1341,318612493,0.219558,-0.006477,-0.770706,0.598137,0.696286,-3.310699,0.167619
1342,318645827,0.234403,-0.041510,-0.762510,0.601592,0.833298,-2.634496,0.151169
1343,318679161,0.254902,-0.082707,-0.751499,0.602857,0.003540,-2.619806,0.127482
1344,318712495,0.280411,-0.130449,-0.740419,0.596770,-0.632710,-1.477886,-0.178398
1345,318745829,0.306494,-0.184750,-0.730203,0.582009,-0.616495,-1.095850,3.450371
1346,318779163,0.333049,-0.239698,-0.713098,0.568433,-1.081184,0.299859,0.393480
1347,318812497,0.354941,-0.299584,-0.696221,0.547307,-0.702404,0.793629,1.943007
1348,318845831,0.372835,-0.359079,-0.676112,0.524338,-1.002971,0.548311,2.043287
1349,318879165,0.384660,-0.417399,-0.655119,0.498634,-1.108912,0.593739,1.068521
1350,318912499,0.390960,-0.472798,-0.631837,0.473705,-1.498554,0.364319,2.088044
1351,318945833,0.394391,-0.521985,-0.604994,0.453841,-1.119634,0.838001,0.313037
1352,318979167,0.391858,-0.568752,-0.578595,0.433819,-1.252524,0.396814,0.075712
1353,319012501,0.389083,-0.608896,-0.551282,0.417074,-1.620303,0.171835,-0.844120
1354,319045835,0.387015,-0.643254,-0.524633,0.401505,-1.635105,0.058133,-1.807875
1355,319079169,0.385960,-0.672974,-0.499410,0.385659,-2.449124,0.081963,-2.000381
1356,319112503,0.385341,-0.699380,-0.476629,0.367704,-2.201348,0.396748,-1.812053
1357,319145837,0.385530,-0.723142,-0.455065,0.348353,-1.784935,0.432290,-1.976417
1358,319179171,0.386950,-0.743750,-0.435190,0.328203,-1.296257,1.233747,-2.317002
1359,319212505,0.389222,-0.760656,-0.417660,0.308985,-1.047850,2.167604,-1.913602
1360,319245839,0.399508,-0.770499,-0.399069,0.295757,-0.426727,3.040731,-1.632936
1361,319279173,0.409808,-0.776460,-0.385182,0.284262,0.498055,2.881099,-2.608812
1362,319312507,0.419763,-0.778742,-0.376654,0.274763,0.195786,3.944957,0.046926
1363,319345841,0.435701,-0.774367,-0.373584,0.266378,2.384116,2.529305,-2.374571
1364,319379175,0.445420,-0.773933,-0.376474,0.246777,0.882759,3.229706,-1.566358
1365,319412509,0.459385,-0.769752,-0.382477,0.223966,2.717073,0.575067,-1.897936
1366,319445843,0.465680,-0.768096,-0.394168,0.194435,3.349047,1.076323,0.114331
1367,319479177,0.476144,-0.761617,-0.403633,0.174094,3.481029,1.645331,2.740464
1368,319512511,0.485145,-0.752226,-0.413178,0.167558,2.384226,1.533893,2.678450
1369,319545845,0.490915,-0.742287,-0.423677,0.168858,1.344753,0.702604,0.989994
1370,319579179,0.493924,-0.733177,-0.434931,0.171256,0.327129,1.306245,1.595289
1371,319612513,0.496023,-0.724048,-0.445830,0.175936,0.320551,1.713878,0.801296
1372,319645847,0.498243,-0.713372,-0.456959,0.184514,-0.145505,1.725093,-0.046958
1373,319679181,0.498990,-0.701125,-0.470303,0.195576,0.801895,1.497397,0.795566
1374,319712515,0.499419,-0.685076,-0.485467,0.213484,0.534569,1.679404,0.597666
1375,319745849,0.501815,-0.662492,-0.502355,0.238596,0.498187,1.638608,0.132621
1376,319779183,0.500546,-0.637523,-0.521362,0.266838,1.082620,1.368294,0.217067
1377,319812517,0.494764,-0.611322,-0.541470,0.297164,0.447695,1.411105,1.278226
1378,319845851,0.483122,-0.583458,-0.562869,0.330681,-0.008889,1.783542,1.094315
1379,319879185,0.467555,-0.553708,-0.583915,0.365848,-0.577749,1.469269,0.777284
1380,319912519,0.445217,-0.524271,-0.605563,0.400273,0.278670,1.686594,1.452341
1381,319945853,0.417250,-0.493838,-0.626305,0.435627,-0.485202,1.706251,2.867177
1382,319979187,0.384206,-0.461534,-0.644445,0.473355,-3.879538,0.916860,0.744206
1383,320012521,0.347091,-0.431256,-0.661577,0.505830,-1.464059,0.850148,0.371850
1384,320045855,0.305357,-0.403387,-0.678534,0.532569,-3.143773,0.474957,1.451767
1385,320079189,0.264074,-0.372663,-0.693798,0.556807,-3.060618,-0.707494,-0.567131
1386,320112523,0.222655,-0.342783,-0.710638,0.572644,-2.583807,-0.213224,-0.008038
1387,320145857,0.182313,-0.315109,-0.727225,0.581906,-2.496826,-2.090167,-0.178356
1388,320179191,0.144918,-0.288790,-0.741779,0.587678,-1.766135,-2.364251,-0.081528
1389,320212525,0.110403,-0.265179,-0.753784,0.591019,-0.775977,-2.692022,-0.551903
1390,320245859,0.076841,-0.244574,-0.765866,0.589686,0.166526,-2.270704,-0.465421
1391,320279193,0.044317,-0.226719,-0.776351,0.586443,0.306709,-2.669208,-0.873765
1392,320312527,0.013978,-0.212071,-0.784179,0.583007,0.929124,-2.628226,-0.632710
1393,320345861,-0.014915,-0.200434,-0.790311,0.578804,1.506391,-2.061364,-0.977839
1394,320379195,-0.041230,-0.191774,-0.795272,0.573643,1.654562,-2.014468,-0.664183
1395,320412529,-0.063345,-0.185963,-0.798695,0.568765,1.928170,-1.851981,-0.141635
1396,320445863,-0.081410,-0.182550,-0.800801,0.564595,1.955825,-0.948051,-0.165791
1397,320479197,-0.094823,-0.182934,-0.803369,0.558699,1.450390,-0.891465,0.328927
1398,320512531,-0.103036,-0.188257,-0.805377,0.552551,0.558433,-1.365117,0.607273
1399,320545865,-0.106458,-0.198551,-0.805902,0.547511,0.609041,-1.054304,0.313757
1400,320579199,-0.107509,-0.212451,-0.806707,0.540862,0.468549,-0.863281,0.536232
1401,320612533,-0.108432,-0.228279,-0.807810,0.532519,0.653195,-0.704201,0.107583
1402,320645867,-0.109410,-0.244738,-0.809215,0.522787,0.492754,0.110221,0.346097
1403,320679201,-0.110215,-0.260544,-0.810113,0.513506,0.320779,0.675397,0.152792
1404,320712535,-0.110899,-0.274142,-0.810517,0.505580,0.396326,1.303747,-0.417831
1405,320745869,-0.112601,-0.283958,-0.812687,0.496217,0.511384,2.044230,-0.311539
1406,320779203,-0.115040,-0.289224,-0.817826,0.484022,0.607416,1.921472,-0.149335
1407,320812537,-0.116121,-0.288876,-0.823464,0.474315,1.168138,1.886482,-1.062823
1408,320845871,-0.116058,-0.278816,-0.832790,0.463956,1.351264,1.455492,-3.439761
1409,320879205,-0.114351,-0.261662,-0.843916,0.454163,0.218895,1.026510,-1.993317
1410,320912539,-0.112964,-0.240047,-0.853807,0.447920,-2.198389,-0.776228,-0.359898
1411,320945873,-0.110432,-0.217952,-0.859265,0.449409,-2.031075,-2.072461,-1.570909
1412,320979207,-0.107860,-0.200987,-0.862312,0.452096,-3.058110,-3.071909,-0.031771
1413,321012541,-0.104784,-0.191438,-0.861990,0.457545,-2.891171,-4.579928,0.376400
1414,321045875,-0.100322,-0.189457,-0.858622,0.465631,-1.957829,-3.865087,-0.268108
1415,321079209,-0.094633,-0.194105,-0.855144,0.471274,-1.582187,-3.055202,0.073055
1416,321112543,-0.087590,-0.203445,-0.849876,0.478175,-1.573519,-2.840312,0.335146
1417,321145877,-0.079681,-0.216462,-0.842413,0.486968,-1.397220,-1.791224,0.644920
1418,321179211,-0.071008,-0.232253,-0.832999,0.497123,-1.935305,-1.287913,0.994258
1419,321212545,-0.062906,-0.248601,-0.820585,0.510767,-1.111820,-0.500971,0.138442
1420,321245879,-0.055546,-0.262885,-0.807446,0.525204,-0.524706,0.228930,0.080124
1421,321279213,-0.048133,-0.274601,-0.794457,0.539554,0.675391,1.431105,-0.315261
1422,321312547,-0.040923,-0.281040,-0.783993,0.551996,2.272404,2.397069,-0.835313
1423,321345881,-0.034138,-0.279489,-0.776371,0.563888,2.780973,2.384808,-0.742110
1424,321379215,-0.026420,-0.269791,-0.771570,0.575496,3.397714,2.594149,-1.899574
1425,321412549,-0.015977,-0.254353,-0.772604,0.581493,3.314522,2.439018,-1.982565
1426,321445883,-0.003192,-0.231788,-0.777577,0.584500,3.217220,1.746090,-3.474378
1427,321479217,0.010786,-0.200304,-0.789088,0.580607,1.894798,2.439573,-3.138740
1428,321512551,0.026203,-0.162297,-0.801925,0.574362,-0.689461,0.458121,-0.117132
1429,321545885,0.042552,-0.121338,-0.809206,0.573283,-1.349372,0.152996,-0.605415
1430,321579219,0.057596,-0.084783,-0.815336,0.569845,-3.333617,-2.151767,5.548567
1431,321612553,0.067387,-0.059670,-0.815266,0.572051,-3.522570,-3.800442,6.291220
1432,321645887,0.068972,-0.051889,-0.812816,0.576092,-1.935925,-4.176883,5.555164
1433,321679221,0.066324,-0.056541,-0.808902,0.581449,-0.615054,-2.473718,2.607164
1434,321712555,0.062807,-0.066906,-0.804829,0.586371,-0.533678,-1.758928,0.982743
1435,321745889,0.059296,-0.080198,-0.799132,0.592827,-0.137818,-1.062196,-0.271403
1436,321779223,0.058802,-0.092989,-0.792189,0.600278,-0.260093,-0.818040,-1.045980
1437,321812557,0.062556,-0.101542,-0.782937,0.610564,0.328488,0.582078,-2.573282
1438,321845891,0.069307,-0.103507,-0.776442,0.617756,1.280383,1.787494,-2.938425
1439,321879225,0.077813,-0.095870,-0.771547,0.624076,1.816156,2.270973,-3.949279
1440,321912559,0.088557,-0.077748,-0.769223,0.628022,1.937594,3.057411,-3.254592
1441,321945893,0.102580,-0.050334,-0.767286,0.631046,1.345073,2.020387,-2.560474
1442,321979227,0.120577,-0.016753,-0.766126,0.631057,0.713902,1.979865,-1.741291
1443,322012561,0.143894,0.018024,-0.766213,0.626012,0.397946,-1.422538,0.524355
1444,322045895,0.169251,0.050332,-0.756149,0.630128,-0.117406,-1.836203,1.212684
1445,322079229,0.192628,0.072288,-0.753243,0.624737,0.399162,-1.954404,4.532180
1446,322112563,0.210239,0.081156,-0.749346,0.622652,1.698089,-3.640343,5.974996
1447,322145897,0.222301,0.077535,-0.745203,0.623895,1.771405,-2.509338,3.767730
1448,322179231,0.231698,0.063667,-0.744542,0.622834,2.489733,-2.304252,2.306798
1449,322212565,0.238569,0.045023,-0.741947,0.624960,2.044891,-1.786100,0.709191
1450,322245899,0.245800,0.020989,-0.741698,0.623721,1.346650,-1.915681,0.463020
1451,322279233,0.254670,-0.007424,-0.740131,0.622332,0.717904,-2.333405,0.493202
1452,322312567,0.266149,-0.039879,-0.738131,0.618659,0.024278,-1.939534,0.157351
1453,322345901,0.280791,-0.076747,-0.736204,0.610961,-0.433274,-1.605158,0.143858
1454,322379235,0.299556,-0.114269,-0.730204,0.603336,-0.824436,-1.668582,0.971311
1455,322412569,0.322477,-0.153197,-0.719996,0.595103,-1.559851,-1.491847,-0.113674
1456,322445903,0.347964,-0.196936,-0.711336,0.578049,-1.928625,-0.738271,0.064394
1457,322479237,0.374128,-0.243183,-0.700000,0.557577,-2.068408,-0.776665,1.079029
1458,322512571,0.399385,-0.289124,-0.686494,0.534440,-1.525136,0.139998,-0.226830
1459,322545905,0.422406,-0.334895,-0.672082,0.507668,-1.097056,0.264649,-0.069221
1460,322579239,0.443527,-0.377826,-0.655674,0.480234,-0.849715,0.413089,-0.157637
1461,322612573,0.461450,-0.418376,-0.638658,0.451822,-0.754482,0.669279,-0.293836
1462,322645907,0.476156,-0.456155,-0.621009,0.423733,-0.941915,0.474622,-0.107265
1463,322679241,0.488668,-0.490377,-0.602179,0.397639,-0.956321,0.430112,-0.347886
1464,322712575,0.498299,-0.522419,-0.583460,0.371960,-1.154255,0.503571,0.126257
1465,322745909,0.507045,-0.550730,-0.563573,0.349271,-1.213870,0.598682,-0.018332
1466,322779243,0.514551,-0.576622,-0.543051,0.328393,-1.063014,0.984780,-0.196591
1467,322812577,0.520024,-0.601141,-0.522677,0.308246,-1.218302,1.283623,0.007434
1468,322845911,0.526345,-0.622369,-0.501089,0.290740,-1.012993,1.331654,-0.330597
1469,322879245,0.532053,-0.642065,-0.479702,0.273058,-0.799483,1.408027,-0.298093
1470,322912579,0.537786,-0.659593,-0.458577,0.255798,-0.589008,1.483721,-0.447881
1471,322945913,0.544064,-0.674580,-0.438001,0.238942,-0.223208,1.465605,-0.539485
1472,322979247,0.549666,-0.688216,-0.418552,0.221454,0.080725,1.378473,-0.070716
1473,323012581,0.556679,-0.698680,-0.399982,0.204872,0.226819,1.401612,-0.297246
1474,323045915,0.561203,-0.708552,-0.384492,0.187546,0.489021,1.281713,-0.533276
1475,323079249,0.562693,-0.718780,-0.371380,0.169742,0.651226,1.045069,-0.619927
1476,323112583,0.565597,-0.725599,-0.359690,0.155662,0.522968,0.880612,-0.238592
1477,323145917,0.569549,-0.727073,-0.351511,0.153037,2.339680,0.189408,-0.422765
