sep=,
DeviceTag:,D_Leg
FirmwareVersion:,2.2.1
AppVersion:,2023.6.0
SyncStatus:,Synced
OutputRate:,30Hz
FilterProfile:,General
Measurement Mode:,Sensor fusion Mode - Complete(Quaternion)
StartTime: ,2026-09-07_17:32:30_927 AEST
© Movella Technologies B. V. 2005-2026

PacketCounter,SampleTimeFine,Quat_W,Quat_X,Quat_Y,Quat_Z,FreeAcc_X,FreeAcc_Y,FreeAcc_Z
1,653569686,-0.593785,-0.230616,0.744755,-0.199058,-0.251644,-0.300737,0.052597
2,653603020,-0.594149,-0.230186,0.745138,-0.197027,0.196949,-0.468168,0.078251
3,653636354,-0.594369,-0.230087,0.745784,-0.194009,0.020139,-0.595803,0.197531
4,653669688,-0.594913,-0.229178,0.746765,-0.189593,-0.117561,-0.431503,0.139296
5,653703022,-0.596116,-0.227998,0.747311,-0.185032,-0.177036,-0.449462,0.235712
6,653736356,-0.597804,-0.226193,0.747866,-0.179475,-0.137572,-0.177798,0.184475
7,653769690,-0.599962,-0.223929,0.748300,-0.173196,-0.142271,-0.223774,0.213406
8,653803024,-0.602607,-0.221503,0.748362,-0.166743,-0.220199,-0.401710,0.075034
9,653836358,-0.605413,-0.219597,0.748039,-0.160432,0.017927,-0.179761,0.072808
10,653869692,-0.608148,-0.217786,0.747827,-0.153389,-0.145605,-0.298082,0.158780
11,653903026,-0.611050,-0.216405,0.747210,-0.146671,-0.096466,-0.246661,0.282176
12,653936360,-0.614210,-0.215994,0.745749,-0.141415,-0.213102,-0.106573,0.176660
13,653969694,-0.617442,-0.216010,0.744050,-0.136170,0.093187,0.301726,0.201494
14,654003028,-0.620991,-0.215486,0.742344,-0.130032,0.185915,0.302366,0.158424
15,654036362,-0.624752,-0.213906,0.740842,-0.123002,0.411753,0.157316,0.136920
16,654069696,-0.628815,-0.211166,0.739476,-0.114997,0.445371,-0.135995,0.084359
17,654103030,-0.632464,-0.208680,0.738199,-0.107481,0.320784,-0.313409,0.176032
18,654136364,-0.635125,-0.207435,0.737114,-0.101483,0.309561,-0.171553,0.149009
19,654169698,-0.637426,-0.206646,0.736112,-0.095772,0.219200,-0.085328,0.056766
20,654203032,-0.639423,-0.206010,0.735248,-0.090310,0.203654,0.067524,0.146379
21,654236366,-0.641273,-0.205116,0.734506,-0.085120,0.208864,0.271247,0.114361
22,654269700,-0.643236,-0.203801,0.733728,-0.080018,0.060976,0.227343,0.064738
23,654303034,-0.645199,-0.202194,0.732973,-0.075060,0.158008,0.387436,0.131846
24,654336368,-0.647423,-0.200151,0.732105,-0.069657,0.111493,0.214967,0.050257
25,654369702,-0.649761,-0.198106,0.731076,-0.064343,-0.063749,-0.116371,0.112569
26,654403036,-0.651580,-0.197176,0.730015,-0.060758,-0.071110,0.009042,0.099950
27,654436370,-0.653287,-0.196595,0.728891,-0.057721,-0.055941,0.243824,0.159295
28,654469704,-0.655076,-0.196008,0.727670,-0.054767,0.006304,0.336489,0.148172
29,654503038,-0.656892,-0.195394,0.726399,-0.052018,0.021421,0.328202,0.141685
30,654536372,-0.658340,-0.195164,0.725299,-0.049892,0.191087,0.291855,0.187248
31,654569706,-0.659828,-0.194801,0.724167,-0.048059,0.170050,0.262179,0.034588
32,654603040,-0.661349,-0.193801,0.723186,-0.045907,0.123102,0.060833,0.122640
33,654636374,-0.662814,-0.192497,0.722315,-0.043951,0.121958,0.092842,0.154326
34,654669708,-0.664192,-0.191206,0.721488,-0.042345,0.014716,0.128603,0.086165
35,654703042,-0.665243,-0.190280,0.720826,-0.041267,0.043522,0.229829,0.072000
36,654736376,-0.666184,-0.189429,0.720236,-0.040292,0.011065,0.251137,0.025667
37,654769710,-0.666875,-0.188461,0.719903,-0.039337,0.105426,0.165841,0.197523
38,654803044,-0.667510,-0.187517,0.719600,-0.038612,0.034782,0.126109,0.070458
39,654836378,-0.667923,-0.186795,0.719424,-0.038251,-0.048106,0.107205,0.006819
40,654869712,-0.668006,-0.186341,0.719460,-0.038345,-0.006288,0.182306,0.055174
41,654903046,-0.668017,-0.185624,0.719636,-0.038318,0.036193,0.200459,0.110086
42,654936380,-0.667975,-0.184670,0.719925,-0.038241,0.052890,0.101152,0.122992
43,654969714,-0.667863,-0.183724,0.720264,-0.038388,0.006259,0.227881,0.008806
44,655003048,-0.667603,-0.182607,0.720777,-0.038579,-0.004464,0.248625,0.041833
45,655036382,-0.667125,-0.181352,0.721531,-0.038687,0.090932,0.144277,0.059228
46,655069716,-0.666510,-0.179954,0.722454,-0.038586,0.223256,0.165342,0.059590
47,655103050,-0.665721,-0.178452,0.723558,-0.038505,0.164230,0.035874,0.045620
48,655136384,-0.664562,-0.177308,0.724861,-0.039289,0.324258,-0.018384,0.096348
49,655169718,-0.663245,-0.176008,0.726339,-0.040088,0.335754,0.197885,0.171355
50,655203052,-0.661937,-0.174484,0.727868,-0.040623,0.107647,0.177927,0.006721
51,655236386,-0.660116,-0.173818,0.729552,-0.042851,0.053295,0.032189,0.242524
52,655269720,-0.658075,-0.173136,0.731408,-0.045290,0.158505,0.242402,0.244746
53,655303054,-0.656086,-0.172520,0.733185,-0.047715,-0.049767,0.275885,0.134849
54,655336388,-0.654038,-0.172265,0.734867,-0.050778,-0.126362,0.293809,0.094461
55,655369722,-0.651644,-0.172302,0.736736,-0.054223,0.027474,0.278115,0.186977
56,655403056,-0.649161,-0.172493,0.738603,-0.057874,-0.091300,0.152312,0.175552
57,655436390,-0.646872,-0.172756,0.740232,-0.061773,-0.161065,0.164883,0.093204
58,655469724,-0.644116,-0.173176,0.742147,-0.066259,-0.015552,-0.115296,0.309627
59,655503058,-0.640970,-0.173921,0.744186,-0.071723,0.009154,-0.228579,0.175676
60,655536392,-0.638330,-0.174903,0.745653,-0.077417,-0.272628,0.000873,0.106069
61,655569726,-0.635733,-0.176215,0.746937,-0.083208,-0.181299,0.262028,0.189428
62,655603060,-0.632921,-0.177521,0.748373,-0.088783,-0.049613,0.223583,0.160515
63,655636394,-0.630395,-0.178398,0.749659,-0.093994,-0.086922,0.141695,0.087187
64,655669728,-0.628457,-0.178656,0.750605,-0.098812,-0.172256,0.069899,0.236579
65,655703062,-0.626886,-0.178433,0.751430,-0.102841,-0.000076,0.124689,0.164015
66,655736396,-0.625476,-0.177577,0.752458,-0.105361,-0.204578,-0.410459,0.030888
67,655769730,-0.624067,-0.177336,0.753160,-0.109045,-0.367511,-0.734917,0.242023
68,655803064,-0.622902,-0.177948,0.753365,-0.113212,-0.261914,-0.250226,0.322897
69,655836398,-0.621615,-0.179333,0.753525,-0.116970,-0.248864,-0.156643,0.022740
70,655869732,-0.620221,-0.180598,0.753787,-0.120675,0.005593,-0.087901,0.160508
71,655903066,-0.619463,-0.180471,0.754033,-0.123200,0.016289,-0.234276,0.109845
72,655936400,-0.618856,-0.180004,0.754363,-0.124906,0.104441,-0.479575,0.079666
73,655969734,-0.618020,-0.180022,0.754729,-0.126787,0.149045,-0.368249,0.092901
74,656003068,-0.617545,-0.180442,0.754705,-0.128633,-0.077360,-0.419829,0.162690
75,656036402,-0.617189,-0.181512,0.754368,-0.130801,-0.140536,-0.197012,0.342973
76,656069736,-0.617343,-0.181916,0.753967,-0.131818,-0.158915,0.076944,0.041414
77,656103070,-0.617746,-0.181811,0.753643,-0.131927,-0.135996,-0.245806,0.198598
78,656136404,-0.618666,-0.181434,0.752994,-0.131839,-0.155346,-0.343604,0.249199
79,656169738,-0.620423,-0.180969,0.751866,-0.130655,-0.295262,-0.223343,0.210479
80,656203072,-0.622578,-0.180716,0.750417,-0.129075,-0.198488,-0.296594,0.189060
81,656236406,-0.624834,-0.181126,0.748639,-0.127922,0.034780,-0.558770,0.248038
82,656269740,-0.627545,-0.181344,0.746633,-0.126053,0.092955,-0.647508,0.263046
83,656303074,-0.631410,-0.180161,0.744266,-0.122392,0.111442,-0.646709,0.364006
84,656336408,-0.638264,-0.178224,0.739784,-0.116716,0.106710,-0.353465,0.584711
85,656369742,-0.646136,-0.175208,0.735035,-0.107623,0.056910,-0.037642,-0.431416
86,656403076,-0.651970,-0.172624,0.731708,-0.098928,0.721024,-0.507031,-0.349787
87,656436410,-0.656157,-0.169641,0.729812,-0.090011,0.611949,-1.276105,0.062701
88,656469744,-0.663397,-0.166067,0.725287,-0.079571,-0.144892,-0.339143,1.067856
89,656503078,-0.673924,-0.166221,0.716180,-0.073016,-1.483445,0.867489,0.028214
90,656536412,-0.678697,-0.169492,0.711431,-0.067511,0.321270,-0.199797,-0.419902
91,656569746,-0.681271,-0.167709,0.710037,-0.060326,1.055502,-0.957763,-0.119585
92,656603080,-0.683409,-0.165307,0.709202,-0.052026,0.990265,-1.066413,-0.072496
93,656636414,-0.684610,-0.163059,0.709092,-0.044238,0.512429,-0.341740,0.096939
94,656669748,-0.685809,-0.160212,0.709071,-0.035572,-0.398858,0.308025,-0.036704
95,656703082,-0.686885,-0.158615,0.708734,-0.027803,-0.960305,0.354634,0.246587
96,656736416,-0.688132,-0.159036,0.707607,-0.022837,-1.141016,0.641976,0.156361
97,656769750,-0.689532,-0.161615,0.705736,-0.020285,-0.707904,0.812705,0.168496
98,656803084,-0.690878,-0.164248,0.703888,-0.017322,-0.859054,0.314930,0.060422
99,656836418,-0.692268,-0.167264,0.701850,-0.015531,-0.862801,0.058946,0.399037
100,656869752,-0.693598,-0.171599,0.699472,-0.016211,-0.536170,0.267991,0.386302
101,656903086,-0.693959,-0.176322,0.697917,-0.017071,0.381115,0.032809,0.293732
102,656936420,-0.694070,-0.180852,0.696600,-0.018877,0.699203,-0.146904,0.236267
103,656969754,-0.693672,-0.185089,0.695834,-0.020599,0.428833,-0.247684,0.057838
104,657003088,-0.693572,-0.190610,0.694324,-0.024227,-0.684279,-0.333429,0.242608
105,657036422,-0.693152,-0.199647,0.691837,-0.033023,-0.822964,0.149750,0.153171
106,657069756,-0.692431,-0.208135,0.689574,-0.041878,-0.333984,0.418776,0.058362
107,657103090,-0.692184,-0.215608,0.686970,-0.050136,-0.022146,1.008027,-0.027133
108,657136424,-0.692636,-0.219953,0.684817,-0.054310,0.775847,0.688594,0.045689
109,657169758,-0.694559,-0.223395,0.681528,-0.057011,1.748220,2.780250,0.619346
110,657203092,-0.700456,-0.210743,0.680280,-0.047077,-0.392707,-2.366933,-0.470333
111,657236426,-0.702266,-0.208534,0.679336,-0.043436,0.225650,-0.435162,0.283536
112,657269760,-0.704336,-0.212874,0.675636,-0.046467,-0.226455,0.732398,0.832652
113,657303094,-0.706851,-0.219194,0.670597,-0.051616,-0.985993,0.020534,-0.256660
114,657336428,-0.707935,-0.225526,0.666918,-0.056871,-0.745878,-0.163818,0.067873
115,657369762,-0.708024,-0.230845,0.664571,-0.061689,0.340422,-0.455275,0.192255
116,657403096,-0.708494,-0.232051,0.663543,-0.062831,1.605297,-0.359234,0.238265
117,657436430,-0.710124,-0.229378,0.662927,-0.060702,1.774019,-0.354766,0.070456
118,657469764,-0.712203,-0.225506,0.662329,-0.057295,1.786540,0.222073,0.285522
119,657503098,-0.714634,-0.221134,0.661508,-0.053402,1.433164,0.113738,-0.016012
120,657536432,-0.716932,-0.217001,0.660643,-0.050185,0.986256,-0.500984,-0.167425
121,657569766,-0.719356,-0.213304,0.659371,-0.048005,0.521619,-0.024993,0.010594
122,657603100,-0.722337,-0.207231,0.658266,-0.044920,-0.166241,0.376381,-0.293182
123,657636434,-0.724686,-0.195514,0.659714,-0.037821,-0.716651,-0.653463,-0.340896
124,657669768,-0.724219,-0.186135,0.663120,-0.034368,-0.720262,-1.442015,-0.560315
125,657703102,-0.721125,-0.183908,0.666935,-0.037449,0.264385,0.142650,0.106296
126,657736436,-0.716517,-0.179997,0.672941,-0.037458,0.833039,-0.326282,-0.387661
127,657769770,-0.711094,-0.174717,0.680194,-0.034690,1.471568,-0.694159,-0.383638
128,657803104,-0.705548,-0.168540,0.687651,-0.031308,1.043715,-0.415520,0.099854
129,657836438,-0.699609,-0.161983,0.695398,-0.027893,0.943804,-0.030949,0.379762
130,657869772,-0.694308,-0.153883,0.702680,-0.023343,0.606504,0.350558,0.514814
131,657903106,-0.688874,-0.143004,0.710458,-0.017311,-0.001020,-0.168631,0.356091
132,657936440,-0.682388,-0.132758,0.718758,-0.012550,-0.063843,-0.868747,0.588771
133,657969774,-0.676400,-0.124492,0.725901,-0.010019,0.088433,-0.621162,0.144762
134,658003108,-0.670420,-0.117098,0.732668,-0.008397,0.138379,-0.700759,0.051709
135,658036442,-0.664260,-0.110921,0.739210,-0.008482,-0.433910,-1.563996,-0.215379
136,658069776,-0.656041,-0.106534,0.747091,-0.012797,-0.135001,-2.512258,0.001660
137,658103110,-0.647417,-0.105269,0.754523,-0.022670,-0.279201,-1.741488,0.140079
138,658136444,-0.640613,-0.103213,0.760267,-0.031688,-0.078480,0.063441,0.300484
139,658169778,-0.635392,-0.098631,0.764904,-0.038967,0.288433,0.297731,0.183818
140,658203112,-0.631212,-0.091051,0.769003,-0.044312,1.218998,-0.413961,-0.251632
141,658236446,-0.627244,-0.079331,0.773600,-0.043149,2.191800,-1.927466,-0.578571
142,658269780,-0.625079,-0.066707,0.776649,-0.041114,-0.053883,-3.079277,-0.520819
143,658303114,-0.625165,-0.064859,0.776207,-0.050122,-0.421663,5.611931,2.291052
144,658336448,-0.624845,-0.079047,0.774395,-0.060667,-0.781144,8.175778,3.337602
145,658369782,-0.622205,-0.095926,0.773510,-0.073409,-1.527674,-2.090051,0.098046
146,658403116,-0.623734,-0.107946,0.769412,-0.085774,-0.391301,-0.924587,-0.499150
147,658436450,-0.627845,-0.114934,0.764142,-0.093468,-0.073797,2.512882,-0.466984
148,658469784,-0.632256,-0.115922,0.760104,-0.095411,-2.096855,1.917277,0.426647
149,658503118,-0.636724,-0.116232,0.756253,-0.095925,-2.524508,-0.298925,-0.044211
150,658536452,-0.640687,-0.117980,0.752412,-0.097595,-0.658554,-0.718486,0.304790
151,658569786,-0.644175,-0.119237,0.749036,-0.099066,-0.078912,0.148278,-0.216897
152,658603120,-0.647626,-0.118736,0.746118,-0.099189,-0.479677,1.035309,0.088479
153,658636454,-0.651173,-0.117559,0.743388,-0.097855,-0.583441,0.704534,-0.033619
154,658669788,-0.654758,-0.117283,0.740331,-0.097444,-0.861884,0.298814,-0.068141
155,658703122,-0.657951,-0.117839,0.737434,-0.097228,-0.649580,-0.016319,0.151186
156,658736456,-0.659852,-0.119248,0.735490,-0.097347,-0.244666,-0.458013,0.008724
157,658769790,-0.660710,-0.121853,0.734163,-0.098321,-0.136486,0.495891,0.153021
158,658803124,-0.660858,-0.123048,0.733939,-0.097505,-0.181278,0.710643,-0.043138
159,658836458,-0.660435,-0.124380,0.734253,-0.096311,-0.912836,-0.603750,0.164125
160,658869792,-0.659717,-0.128281,0.734080,-0.097426,-2.209625,-2.515077,0.816922
161,658903126,-0.659393,-0.135727,0.732326,-0.102595,-0.144258,0.654745,0.245443
162,658936460,-0.660287,-0.141674,0.729975,-0.105516,1.238378,1.305087,-0.216782
163,658969794,-0.660671,-0.146763,0.728394,-0.107073,0.729806,0.202897,-0.046122
164,659003128,-0.660009,-0.149886,0.728215,-0.108044,0.315617,0.767630,0.033636
165,659036462,-0.660519,-0.149020,0.728398,-0.104839,-0.673515,-0.073557,0.235306
166,659069796,-0.662068,-0.148951,0.727506,-0.101304,-0.774649,-0.441506,0.042117
167,659103130,-0.662852,-0.150184,0.726792,-0.099465,0.000560,0.341960,0.302296
168,659136464,-0.662945,-0.151349,0.726735,-0.097475,-0.012258,0.232058,0.083644
169,659169798,-0.663125,-0.152896,0.726443,-0.096003,-0.297079,-0.247701,-0.015947
170,659203132,-0.663324,-0.154695,0.726055,-0.094674,-0.096683,-0.090412,0.161040
171,659236466,-0.663778,-0.155554,0.725698,-0.092805,0.025559,0.124442,0.207928
172,659269800,-0.664054,-0.156490,0.725512,-0.090687,0.142027,0.054927,0.100998
173,659303134,-0.664026,-0.158266,0.725304,-0.089458,0.149915,0.090662,0.141582
174,659336468,-0.664052,-0.159337,0.725251,-0.087774,0.196818,0.150492,0.081332
175,659369802,-0.664412,-0.158658,0.725476,-0.084361,0.198728,0.234492,0.153766
176,659403136,-0.665057,-0.157099,0.725710,-0.080080,-0.040978,0.298637,0.161081
177,659436470,-0.665620,-0.155529,0.725993,-0.075787,-0.044163,0.039275,0.233328
178,659469804,-0.665822,-0.154809,0.726287,-0.072597,-0.265353,-0.361665,-0.028310
179,659503138,-0.665734,-0.155382,0.726411,-0.070919,-0.074158,0.163697,0.225688
180,659536472,-0.665810,-0.155515,0.726521,-0.068752,0.090684,0.368429,0.226621
181,659569806,-0.665837,-0.154994,0.726862,-0.066004,0.308431,0.529814,0.178467
182,659603140,-0.666210,-0.152787,0.727373,-0.061614,0.114429,0.174339,0.164567
183,659636474,-0.666579,-0.149984,0.728028,-0.056573,0.213922,0.059291,0.134340
184,659669808,-0.667045,-0.146974,0.728612,-0.051199,0.498224,0.118737,0.144581
185,659703142,-0.667410,-0.143406,0.729383,-0.045255,0.446688,0.039713,0.408915
186,659736476,-0.667759,-0.140093,0.730009,-0.040088,0.106515,-0.195413,0.343417
187,659769810,-0.667617,-0.137606,0.730829,-0.035913,0.127700,0.088289,0.322744
188,659803144,-0.667795,-0.135086,0.731315,-0.032050,-0.677943,-0.018361,0.169566
189,659836478,-0.667777,-0.135513,0.731249,-0.032130,-0.793114,-0.415317,0.210065
190,659869812,-0.667611,-0.138556,0.730678,-0.035419,-0.788881,-0.324886,0.047287
191,659903146,-0.667444,-0.143506,0.729585,-0.040974,-0.336924,0.544711,0.088191
192,659936480,-0.668502,-0.147046,0.727633,-0.045614,-0.551954,0.672758,0.243579
193,659969814,-0.670832,-0.147461,0.725207,-0.048598,-0.474790,0.684482,0.313709
194,660003148,-0.674346,-0.145131,0.722342,-0.049636,-0.447709,0.507877,0.099028
195,660036482,-0.678550,-0.141673,0.719039,-0.050289,-0.534360,0.076069,-0.011442
196,660069816,-0.682935,-0.139122,0.715251,-0.052048,-0.436224,-0.022656,0.021192
197,660103150,-0.687017,-0.139487,0.710934,-0.056320,-0.488019,-0.333302,-0.052589
198,660136484,-0.690515,-0.143433,0.706158,-0.063286,-0.158391,0.087284,-0.112758
199,660169818,-0.693464,-0.148960,0.701416,-0.070581,0.379605,0.230192,0.079619
200,660203152,-0.695806,-0.154028,0.697338,-0.076796,0.782169,0.184222,-0.205729
201,660236486,-0.697827,-0.157092,0.694147,-0.081034,0.605453,0.251211,-0.207176
202,660269820,-0.699231,-0.158801,0.691999,-0.083920,0.542825,-0.098295,-0.225440
203,660303154,-0.699373,-0.159806,0.691400,-0.085753,0.549480,-0.450339,-0.486836
204,660336488,-0.697736,-0.162254,0.692082,-0.088933,1.099577,-0.944537,-0.232576
205,660369822,-0.695203,-0.166613,0.692932,-0.093945,0.561718,0.123147,0.457273
206,660403156,-0.693143,-0.171111,0.693126,-0.099493,-0.424495,0.805387,0.373780
207,660436490,-0.691579,-0.174720,0.693101,-0.104165,-0.302541,0.885765,0.438725
208,660469824,-0.690224,-0.177238,0.693231,-0.107961,-0.390720,0.441483,0.093388
209,660503158,-0.689091,-0.179108,0.693310,-0.111541,-0.139008,0.260245,0.022171
210,660536492,-0.688010,-0.180805,0.693346,-0.115193,0.062795,0.129445,0.042413
211,660569826,-0.686531,-0.182836,0.693618,-0.119113,0.246971,0.210007,0.207270
212,660603160,-0.684396,-0.184765,0.694553,-0.122912,0.209944,0.362456,0.101693
213,660636494,-0.682211,-0.186006,0.695760,-0.126320,0.052467,0.089809,0.222026
214,660669828,-0.679903,-0.187086,0.697017,-0.130178,-0.196456,-0.138660,0.167350
215,660703162,-0.677029,-0.189088,0.698281,-0.135382,0.358683,0.456246,-0.055281
216,660736496,-0.674158,-0.189429,0.700317,-0.138679,0.744325,0.495749,-0.228041
217,660769830,-0.671419,-0.187667,0.703076,-0.140391,0.504307,-0.108276,0.001828
218,660803164,-0.668563,-0.185708,0.706016,-0.141867,0.334845,-0.119749,0.239912
219,660836498,-0.665161,-0.184908,0.709039,-0.143809,-0.192422,-0.307794,0.395263
220,660869832,-0.661561,-0.184465,0.712041,-0.146136,-0.215440,0.391925,-0.084235
221,660903166,-0.659301,-0.182097,0.714705,-0.146315,-0.538520,-0.602023,0.425102
222,660936500,-0.656747,-0.180634,0.717268,-0.147071,-0.148767,-0.552491,0.306724
223,660969834,-0.654631,-0.180307,0.718886,-0.148990,-0.745863,-0.245772,0.333627
224,661003168,-0.652834,-0.179663,0.720367,-0.150492,-0.491213,0.020971,0.375726
225,661036502,-0.651758,-0.177535,0.721919,-0.150248,-0.411385,-0.767835,0.282404
226,661069836,-0.651072,-0.175887,0.722909,-0.150398,-0.007520,-0.399811,0.159529
227,661103170,-0.650600,-0.174185,0.723736,-0.150447,-0.223740,-0.088055,0.180880
228,661136504,-0.650090,-0.173918,0.723985,-0.151754,-0.291615,-0.120628,0.282240
229,661169838,-0.649270,-0.175054,0.723852,-0.154567,-0.123165,0.434561,0.007477
230,661203172,-0.648218,-0.175473,0.724352,-0.156154,0.097745,0.335245,0.099099
231,661236506,-0.647120,-0.175362,0.725072,-0.157490,-0.114968,-0.051578,0.257648
232,661269840,-0.646209,-0.175188,0.725639,-0.158803,-0.235792,-0.155488,0.197648
233,661303174,-0.645409,-0.175019,0.726201,-0.159674,0.175665,-0.180492,0.215587
234,661336508,-0.644523,-0.174634,0.727020,-0.159943,-0.051121,-0.472457,0.188370
235,661369842,-0.643736,-0.174765,0.727463,-0.160952,-0.116956,-0.114221,-0.002275
236,661403176,-0.643382,-0.174815,0.727750,-0.161016,0.048858,-0.232552,0.094605
237,661436510,-0.642602,-0.175167,0.728216,-0.161640,0.024155,-0.839699,0.260662
238,661469844,-0.641452,-0.177088,0.728331,-0.163587,0.313561,-0.052291,0.094117
239,661503178,-0.640468,-0.178349,0.728719,-0.164343,0.535563,0.078438,0.086748
240,661536512,-0.639441,-0.179062,0.729438,-0.164377,0.031893,-0.325484,0.271738
241,661569846,-0.638484,-0.180616,0.729678,-0.165329,-0.255868,0.073258,0.007410
242,661603180,-0.637813,-0.182514,0.729600,-0.166175,-0.450720,-0.007082,0.180293
243,661636514,-0.637543,-0.183946,0.729369,-0.166647,-0.360084,-0.142874,0.202217
244,661669848,-0.637393,-0.184662,0.729465,-0.166008,0.308500,-0.140264,0.125604
245,661703182,-0.637289,-0.184782,0.729916,-0.164284,0.296047,-0.538329,0.137695
246,661736516,-0.637107,-0.185842,0.729976,-0.163521,0.049208,-0.279874,0.130116
247,661769850,-0.636935,-0.187145,0.730034,-0.162446,-0.131245,-0.418481,0.168267
248,661803184,-0.636583,-0.189082,0.729996,-0.161750,0.081840,-0.162368,0.035467
249,661836518,-0.636053,-0.191124,0.730244,-0.160313,0.240258,-0.237310,0.177628
250,661869852,-0.635403,-0.192392,0.730966,-0.158067,0.003209,-0.364497,0.198154
251,661903186,-0.635188,-0.193559,0.731367,-0.155631,-0.045708,0.026259,0.037230
252,661936520,-0.635217,-0.195260,0.731423,-0.153106,-0.468538,-0.371819,0.138153
253,661969854,-0.635118,-0.197185,0.731508,-0.150619,-0.471658,-0.765326,0.295348
254,662003188,-0.635216,-0.199468,0.731401,-0.147693,-0.099010,-0.042715,0.224379
255,662036522,-0.636102,-0.200377,0.731355,-0.142798,-0.319748,0.451298,0.356034
256,662069856,-0.638054,-0.199093,0.731212,-0.136476,-1.245950,-0.642537,0.430432
257,662103190,-0.639618,-0.199360,0.730527,-0.132372,-0.804353,-0.420656,0.350114
258,662136524,-0.640508,-0.202406,0.729254,-0.130449,-0.040363,-0.068574,0.234893
259,662169858,-0.640800,-0.206523,0.728087,-0.129081,0.450834,0.504742,-0.021364
260,662203192,-0.641270,-0.209958,0.727039,-0.127092,0.545023,0.224074,0.432992
261,662236526,-0.642080,-0.212039,0.726259,-0.123964,0.638992,0.606848,0.063052
262,662269860,-0.643461,-0.211630,0.726017,-0.118817,0.503730,0.222974,-0.148174
263,662303194,-0.644632,-0.210823,0.725997,-0.113929,0.169185,-0.181764,0.001653
264,662336528,-0.645394,-0.210896,0.725783,-0.110794,0.191759,-0.015593,0.220647
265,662369862,-0.645943,-0.211950,0.725171,-0.109589,0.044944,0.272344,0.283549
266,662403196,-0.646221,-0.213009,0.724790,-0.108414,0.255564,0.396762,0.206786
267,662436530,-0.646558,-0.213260,0.724675,-0.106664,0.473400,0.475681,0.104041
268,662469864,-0.647125,-0.212882,0.724546,-0.104837,0.101169,0.297316,-0.020316
269,662503198,-0.647858,-0.212868,0.724018,-0.103987,-0.315415,-0.074850,-0.114107
270,662536532,-0.648385,-0.214121,0.723102,-0.104501,0.005233,0.404117,0.119464
271,662569866,-0.649165,-0.215086,0.722017,-0.105178,-0.195624,0.238323,-0.067775
272,662603200,-0.650242,-0.215838,0.720767,-0.105555,0.084894,0.646219,0.096754
273,662636534,-0.652115,-0.215497,0.719273,-0.104887,-0.067305,0.308995,0.092261
274,662669868,-0.654157,-0.214769,0.717757,-0.104046,0.008726,0.126205,0.159604
275,662703202,-0.655797,-0.214645,0.716311,-0.103940,-0.009607,-0.014600,0.040623
276,662736536,-0.657025,-0.215502,0.714801,-0.104812,-0.282748,0.073685,0.048904
277,662769870,-0.658012,-0.217096,0.713134,-0.106661,-0.429085,0.153911,0.146091
278,662803204,-0.658847,-0.218787,0.711500,-0.108947,-0.118647,0.217870,-0.079465
279,662836538,-0.659976,-0.220412,0.709585,-0.111293,0.067279,0.045541,0.074216
280,662869872,-0.661088,-0.222543,0.707406,-0.114288,-0.078305,0.033025,-0.001621
281,662903206,-0.661949,-0.225169,0.705169,-0.117928,-0.077119,0.409950,0.246256
282,662936540,-0.662865,-0.226585,0.703355,-0.120864,-0.225783,0.320992,0.165480
283,662969874,-0.663733,-0.227034,0.701944,-0.123438,-0.127863,0.276167,0.010117
284,663003208,-0.664696,-0.226781,0.700719,-0.125658,-0.105455,0.202382,0.012668
285,663036542,-0.665289,-0.227004,0.699528,-0.128717,-0.102052,0.020377,-0.139935
286,663069876,-0.665432,-0.228429,0.698138,-0.132934,-0.049706,0.027782,-0.116965
287,663103210,-0.665118,-0.230863,0.696556,-0.138484,-0.147857,0.086337,-0.065589
288,663136544,-0.664265,-0.233533,0.695189,-0.144827,-0.059839,0.411427,-0.085454
289,663169878,-0.663024,-0.235138,0.694673,-0.150289,0.433047,0.277502,0.170344
290,663203212,-0.661212,-0.236437,0.695267,-0.153454,1.052709,1.704238,0.398483
291,663236546,-0.659844,-0.236078,0.696255,-0.155400,-0.143059,-0.380162,0.097261
292,663269880,-0.656812,-0.238347,0.697247,-0.160259,0.217850,-0.081358,0.074718
293,663303214,-0.653606,-0.240422,0.698294,-0.165620,0.080226,0.162464,-0.153998
294,663336548,-0.650141,-0.242086,0.699695,-0.170839,0.277710,0.653788,-0.132850
295,663369882,-0.646494,-0.243454,0.701550,-0.175077,0.358622,0.560232,0.207706
296,663403216,-0.642215,-0.243855,0.704481,-0.178466,0.343870,-0.771078,0.131706
297,663436550,-0.637448,-0.243843,0.707846,-0.182213,-0.092193,-0.704186,0.084502
298,663469884,-0.633231,-0.243247,0.711080,-0.185103,0.426608,0.827221,0.416472
299,663503218,-0.630057,-0.240664,0.714722,-0.185283,0.338629,0.892284,0.429350
300,663536552,-0.627154,-0.237937,0.717986,-0.186029,-0.587925,-0.084013,0.042871
301,663569886,-0.624500,-0.236556,0.720153,-0.188330,-0.693179,-0.491185,0.389498
302,663603220,-0.621794,-0.235632,0.722216,-0.190532,-0.338520,-0.833051,0.140381
303,663636554,-0.619257,-0.236547,0.723156,-0.194060,0.148782,-0.097782,0.261412
304,663669888,-0.617110,-0.236878,0.724135,-0.196827,-0.049745,-0.366229,0.254319
305,663703222,-0.615058,-0.236729,0.725388,-0.198804,-0.409464,-0.687543,0.285111
306,663736556,-0.613352,-0.237562,0.725750,-0.201736,-0.555849,-0.344048,0.189474
307,663769890,-0.611993,-0.238552,0.725889,-0.204181,-0.309349,-0.304185,0.323997
308,663803224,-0.610916,-0.239208,0.725955,-0.206392,-0.050138,-0.258238,0.194501
309,663836558,-0.609993,-0.239815,0.725998,-0.208260,0.071533,-0.276650,0.149954
310,663869892,-0.608624,-0.241361,0.726056,-0.210265,0.329454,-0.384617,0.170980
311,663903226,-0.606900,-0.244043,0.725737,-0.213236,0.343896,-0.263969,-0.044734
312,663936560,-0.605446,-0.246584,0.725291,-0.215945,0.021665,-0.095666,0.132869
313,663969894,-0.604124,-0.248623,0.725101,-0.217938,-0.034998,-0.258228,0.171847
314,664003228,-0.602825,-0.250300,0.725244,-0.219139,-0.258536,-0.226502,0.210802
315,664036562,-0.601874,-0.251878,0.725182,-0.220145,-0.249985,-0.286925,0.178591
316,664069896,-0.601287,-0.253955,0.724641,-0.221144,-0.150869,-0.335701,0.246585
317,664103230,-0.600659,-0.256496,0.723885,-0.222389,0.038537,-0.481997,0.151238
318,664136564,-0.600129,-0.259000,0.723209,-0.223114,0.276644,-0.289000,0.196301
319,664169898,-0.599938,-0.261134,0.722581,-0.223175,0.202247,-0.336986,0.049071
320,664203232,-0.599847,-0.263721,0.721701,-0.223228,0.188247,-0.130212,0.104327
321,664236566,-0.599732,-0.266212,0.720994,-0.222863,0.103773,-0.271200,0.091975
322,664269900,-0.599668,-0.268579,0.720499,-0.221792,0.048404,-0.255180,0.090220
323,664303234,-0.599476,-0.271366,0.719965,-0.220650,0.041617,-0.176728,0.046615
324,664336568,-0.599251,-0.274090,0.719619,-0.219021,-0.037621,-0.437601,0.203643
325,664369902,-0.599124,-0.276967,0.719199,-0.217119,-0.108466,-0.331146,0.230394
326,664403236,-0.599464,-0.279885,0.718525,-0.214657,-0.016933,-0.444493,0.274334
327,664436570,-0.600580,-0.282184,0.717582,-0.211658,-0.234622,-0.941036,0.354406
328,664469904,-0.602451,-0.284241,0.716211,-0.208205,-0.232522,-0.288222,0.237092
329,664503238,-0.605162,-0.285570,0.714658,-0.203816,-0.494568,-0.086361,0.301764
330,664536572,-0.608353,-0.287562,0.712016,-0.200736,-0.699428,0.226594,0.431816
331,664569906,-0.611652,-0.290423,0.708743,-0.198162,-0.255804,0.710597,0.387005
332,664603240,-0.614936,-0.292331,0.706163,-0.194364,0.485374,0.077570,0.150507
333,664636574,-0.618411,-0.293170,0.703970,-0.189983,0.241669,0.037472,0.162164
334,664669908,-0.621583,-0.294254,0.701615,-0.186636,-0.074459,-0.053533,-0.112441
335,664703242,-0.623543,-0.295851,0.699776,-0.184466,0.211883,-0.240339,0.408682
336,664736576,-0.623934,-0.298788,0.698245,-0.184209,0.138424,-0.472461,0.179331
337,664769910,-0.622508,-0.304689,0.696348,-0.186538,-0.030354,0.292170,0.173543
338,664803244,-0.620746,-0.311000,0.694228,-0.189863,-0.041473,0.525655,0.182199
339,664836578,-0.619028,-0.316624,0.692337,-0.193056,0.209796,1.144835,-0.108715
340,664869912,-0.618192,-0.320342,0.691014,-0.194339,0.385955,0.734206,-0.140067
341,664903246,-0.617817,-0.324007,0.689063,-0.196370,-0.179121,-0.446187,0.051237
342,664936580,-0.616206,-0.330631,0.685627,-0.202327,-0.422494,0.335031,-0.081412
343,664969914,-0.615161,-0.336175,0.682396,-0.207238,0.037363,1.142656,0.045088
344,665003248,-0.615948,-0.338413,0.680029,-0.209032,0.310599,0.647687,0.250451
345,665036582,-0.617168,-0.339925,0.677764,-0.210329,-0.213593,0.306163,0.027855
346,665069916,-0.618196,-0.341932,0.675255,-0.212120,-0.142723,0.198335,0.139230
347,665103250,-0.619600,-0.343630,0.672578,-0.213777,0.313433,0.594953,-0.033729
348,665136584,-0.621770,-0.343892,0.670348,-0.214061,0.156650,0.453519,0.051555
349,665169918,-0.624514,-0.342824,0.668550,-0.213409,-0.038445,0.227653,-0.009634
350,665203252,-0.627216,-0.341922,0.666515,-0.213296,-0.213912,-0.095227,0.031312
351,665236586,-0.629418,-0.341516,0.664435,-0.213946,0.117630,0.094980,0.024381
352,665269920,-0.631609,-0.340917,0.662349,-0.214912,0.133826,-0.049401,0.099116
353,665303254,-0.633312,-0.340466,0.660428,-0.216521,0.012014,0.121243,0.099138
354,665336588,-0.635079,-0.339291,0.658860,-0.217961,-0.053587,0.157088,0.013032
355,665369922,-0.636851,-0.337490,0.657584,-0.219438,-0.052623,0.036392,0.022635
356,665403256,-0.638101,-0.335298,0.656950,-0.221061,0.086892,0.310086,-0.063606
357,665436590,-0.639638,-0.331374,0.657338,-0.221382,0.096770,0.473578,-0.196963
358,665469924,-0.641176,-0.326369,0.658464,-0.221020,0.042163,0.191994,-0.265632
359,665503258,-0.642041,-0.321584,0.660091,-0.220668,-0.100630,0.130025,-0.215184
360,665536592,-0.641956,-0.318213,0.661923,-0.220313,0.451296,1.024201,0.318817
361,665569926,-0.641549,-0.316263,0.663828,-0.218570,0.329355,2.499852,0.033652
362,665603260,-0.642244,-0.312860,0.666093,-0.214498,0.114866,0.979447,0.390354
363,665636594,-0.641971,-0.308785,0.669115,-0.211795,-0.174738,-2.231431,0.402969
364,665669928,-0.639176,-0.306628,0.672127,-0.213838,-0.567529,-0.718719,0.134996
365,665703262,-0.636808,-0.305172,0.674031,-0.216969,-0.311349,0.930250,0.038479
366,665736596,-0.633814,-0.305729,0.675256,-0.221103,0.268477,1.684426,0.243607
367,665769930,-0.630525,-0.305531,0.677385,-0.224246,0.280423,0.109373,0.146518
368,665803264,-0.627309,-0.303331,0.680610,-0.226478,-0.114526,-0.676587,-0.018336
369,665836598,-0.625017,-0.300193,0.683642,-0.227857,-0.559992,-0.368322,0.409816
370,665869932,-0.622093,-0.299166,0.685840,-0.230591,-0.300125,0.279542,-0.033253
371,665903266,-0.618499,-0.299058,0.688004,-0.233928,0.250319,-0.397085,0.111433
372,665936600,-0.615260,-0.298123,0.690458,-0.236415,0.441627,-0.511484,0.364637
373,665969934,-0.613058,-0.295785,0.693329,-0.236671,0.220332,-0.530466,0.252054
374,666003268,-0.610593,-0.293963,0.696067,-0.237277,0.000047,-0.591604,0.104179
375,666036602,-0.607776,-0.293132,0.698337,-0.238864,-0.529057,-0.667899,0.519459
376,666069936,-0.605171,-0.292875,0.700132,-0.240533,-0.594296,-0.581653,0.298285
377,666103270,-0.603292,-0.292567,0.701360,-0.242045,-0.254543,-0.567847,0.072016
378,666136604,-0.601615,-0.292933,0.701938,-0.244090,0.124158,-0.201311,0.174031
379,666169938,-0.599558,-0.294183,0.702237,-0.246775,0.495150,-0.484123,0.029627
380,666203272,-0.597680,-0.295795,0.702180,-0.249549,0.115365,-0.401565,0.217698
381,666236606,-0.595966,-0.297318,0.702180,-0.251830,-0.190617,-0.248562,0.115418
382,666269940,-0.594311,-0.299052,0.701973,-0.254252,-0.414864,-0.140279,0.195745
383,666303274,-0.592844,-0.300884,0.701823,-0.255926,-0.188598,0.142528,0.243629
384,666336608,-0.592036,-0.302037,0.701557,-0.257162,-0.302284,-0.281189,0.280512
385,666369942,-0.591787,-0.302551,0.701398,-0.257564,0.236110,-0.302961,0.042871
386,666403276,-0.591768,-0.303088,0.701275,-0.257311,0.416394,-0.124250,0.225101
387,666436610,-0.591286,-0.304326,0.701255,-0.257012,0.349879,-0.621645,0.178578
388,666469944,-0.590555,-0.306497,0.700718,-0.257576,0.287698,-0.374083,0.100095
389,666503278,-0.590347,-0.309078,0.699749,-0.257604,0.289166,0.350417,0.061982
390,666536612,-0.591114,-0.310133,0.699048,-0.256478,0.160028,-0.372496,0.220608
391,666569946,-0.591776,-0.310529,0.699149,-0.254186,0.120330,-0.401047,0.170437
392,666603280,-0.592599,-0.311095,0.699305,-0.251131,-0.046713,-0.421855,0.048820
393,666636614,-0.593322,-0.312602,0.698952,-0.248520,-0.034343,-0.349352,0.168509
394,666669948,-0.593831,-0.314473,0.698638,-0.245815,0.220538,-0.191542,0.046577
395,666703282,-0.594394,-0.315839,0.698930,-0.241840,0.196832,-0.200226,-0.000400
396,666736616,-0.595384,-0.316543,0.699488,-0.236820,-0.074292,-0.607975,0.195300
397,666769950,-0.596268,-0.318152,0.699535,-0.232256,-0.136625,-1.185960,0.421192
398,666803284,-0.597292,-0.320450,0.698889,-0.228378,-0.275041,-0.804235,0.773709
399,666836618,-0.599366,-0.322190,0.697655,-0.224229,-0.348821,0.097981,0.261083
400,666869952,-0.602977,-0.323523,0.695061,-0.220655,-0.741734,1.256852,0.278715
401,666903286,-0.607873,-0.323608,0.692259,-0.215855,-0.485937,1.127568,0.380088
402,666936620,-0.613832,-0.320743,0.690721,-0.208052,0.019465,0.611472,0.044549
403,666969954,-0.620387,-0.316377,0.689387,-0.199547,0.479894,-1.152743,0.032400
404,667003288,-0.623836,-0.316585,0.687190,-0.196010,0.450546,-0.387227,0.387061
405,667036622,-0.625461,-0.318715,0.685044,-0.194888,0.439695,0.107438,0.494697
406,667069956,-0.626019,-0.320880,0.683399,-0.195320,0.210262,-0.329503,0.207982
407,667103290,-0.624989,-0.324271,0.682039,-0.197757,0.426723,0.339857,0.170257
408,667136624,-0.623858,-0.326679,0.681358,-0.199702,0.177373,0.878464,-0.017323
409,667169958,-0.623450,-0.327710,0.680705,-0.201505,-0.566284,-0.439676,-0.453548
410,667203292,-0.621708,-0.331423,0.678516,-0.208091,-1.126462,-0.664520,-0.237465
411,667236626,-0.619438,-0.337101,0.674933,-0.217193,-1.138835,0.771714,-0.141501
412,667269960,-0.618836,-0.340329,0.671642,-0.223971,-0.683932,1.059967,0.224345
413,667303294,-0.620092,-0.340153,0.669239,-0.227923,-0.366080,0.831607,0.492523
414,667336628,-0.622964,-0.337770,0.667064,-0.230000,-0.247769,0.516276,-0.029359
415,667369962,-0.626640,-0.334992,0.664289,-0.232100,-0.574330,0.697773,0.259621
416,667403296,-0.631241,-0.331196,0.661206,-0.233879,-0.501835,0.644447,0.153634
417,667436630,-0.635720,-0.327068,0.657985,-0.236622,-0.125190,-0.012674,-0.088325
418,667469964,-0.639054,-0.324781,0.654474,-0.240497,0.224553,-0.160204,0.039322
419,667503298,-0.641780,-0.323358,0.650894,-0.244831,-0.115775,0.310999,-0.325726
420,667536632,-0.644083,-0.321032,0.648543,-0.248063,0.024821,0.917728,-0.099615
421,667569966,-0.646578,-0.316047,0.648251,-0.248735,0.388576,0.433967,-0.549417
422,667603300,-0.647854,-0.311213,0.649297,-0.248784,0.593057,-0.391082,-0.732017
423,667636634,-0.646431,-0.310317,0.650227,-0.251165,0.819046,0.081682,-0.786777
424,667669968,-0.643098,-0.312416,0.650928,-0.255269,1.024709,-0.625677,-0.025473
425,667703302,-0.638180,-0.318386,0.651186,-0.259541,0.230554,3.432450,1.044632
426,667736636,-0.635004,-0.319441,0.653227,-0.260901,-0.587730,-0.979174,0.767268
427,667769970,-0.629999,-0.322029,0.655305,-0.264614,-0.432217,0.454271,0.122411
428,667803304,-0.626470,-0.321869,0.658096,-0.266255,0.091576,0.076781,-0.192107
429,667836638,-0.623721,-0.321495,0.660231,-0.267872,0.415693,0.160783,0.302315
430,667869972,-0.619308,-0.323212,0.662132,-0.271331,0.466712,-0.419235,-0.116923
431,667903306,-0.614723,-0.325760,0.663412,-0.275552,0.430462,-0.319834,0.656432
432,667936640,-0.611593,-0.326582,0.664818,-0.278145,0.016558,-0.424045,0.496424
433,667969974,-0.609640,-0.326102,0.666390,-0.279227,0.508024,-0.153247,0.268382
434,668003308,-0.608227,-0.324801,0.667866,-0.280299,0.165813,0.333666,0.139666
435,668036642,-0.607282,-0.322342,0.670267,-0.279452,0.154523,-0.528695,0.333809
436,668069976,-0.606602,-0.320139,0.672231,-0.278744,-0.121966,-0.672058,0.268506
437,668103310,-0.606392,-0.318406,0.673519,-0.278076,-0.137659,-0.197576,0.175635
438,668136644,-0.606383,-0.316445,0.674780,-0.277276,-0.035840,0.205836,0.090313
439,668169978,-0.606426,-0.314306,0.676233,-0.276072,-0.046984,-0.318979,0.260763
440,668203312,-0.606231,-0.313018,0.677144,-0.275730,0.051601,-0.523481,0.036361
441,668236646,-0.605779,-0.312794,0.677778,-0.275420,0.191089,0.251023,0.189951
442,668269980,-0.605200,-0.312111,0.678929,-0.274633,-0.057495,-0.216845,0.194707
443,668303314,-0.604798,-0.311177,0.680015,-0.273891,-0.457856,-0.296883,0.164870
444,668336648,-0.604719,-0.310392,0.681020,-0.272456,-0.361802,-0.406210,0.197233
445,668369982,-0.604386,-0.310743,0.681411,-0.271816,-0.057656,-0.304916,0.087658
446,668403316,-0.604251,-0.311069,0.681667,-0.271100,0.023661,-0.280269,0.147158
447,668436650,-0.604140,-0.311516,0.681945,-0.270133,0.263044,-0.282920,0.185304
448,668469984,-0.604336,-0.311874,0.682137,-0.268794,0.022277,-0.038043,0.088270
449,668503318,-0.604725,-0.311751,0.682791,-0.266391,-0.045041,-0.204225,0.186995
450,668536652,-0.604903,-0.311951,0.683420,-0.264127,-0.023457,-0.412621,0.140608
451,668569986,-0.604686,-0.312775,0.683911,-0.262373,0.004614,-0.259417,0.184074
452,668603320,-0.604686,-0.313916,0.684155,-0.260367,0.009407,-0.093353,0.086305
453,668636654,-0.604849,-0.314816,0.684584,-0.257764,-0.053821,-0.214542,0.151014
454,668669988,-0.605105,-0.315418,0.685255,-0.254623,-0.206419,-0.409835,0.106952
455,668703322,-0.605421,-0.316190,0.685760,-0.251535,-0.323410,-0.863649,0.230723
456,668736656,-0.605554,-0.318132,0.685369,-0.249828,-0.122317,-0.291680,0.206938
457,668769990,-0.606563,-0.319971,0.684565,-0.247223,-0.016892,-0.220517,0.432449
458,668803324,-0.608140,-0.320478,0.684367,-0.243205,-0.074157,-0.420140,0.301381
459,668836658,-0.611233,-0.319205,0.684124,-0.237747,-0.580233,0.144085,0.243096
460,668869992,-0.616217,-0.316988,0.682748,-0.231730,-0.969027,0.574340,0.151968
461,668903326,-0.620975,-0.316387,0.680329,-0.226914,-0.255499,0.042200,0.349099
462,668936660,-0.623781,-0.317584,0.678071,-0.224288,0.646595,-0.041969,0.268091
463,668969994,-0.626830,-0.317556,0.676354,-0.220990,0.501987,0.050166,-0.099725
464,669003328,-0.629656,-0.317165,0.675072,-0.217406,0.702405,0.513766,0.219349
465,669036662,-0.631625,-0.317014,0.674399,-0.213975,0.678415,0.389017,0.531517
466,669069996,-0.632399,-0.317491,0.674210,-0.211565,0.100051,0.133165,0.371635
467,669103330,-0.632239,-0.318753,0.674059,-0.210626,-0.081139,-0.199653,0.176178
468,669136664,-0.631376,-0.320146,0.673935,-0.211496,-0.086874,-0.213303,0.028579
469,669169998,-0.630576,-0.320631,0.674135,-0.212507,-0.128632,0.611455,0.044600
470,669203332,-0.631193,-0.319571,0.673569,-0.214059,-0.830662,-0.366098,-0.020425
471,669236666,-0.631781,-0.320199,0.670911,-0.219662,-1.382830,-1.210294,0.130321
472,669270000,-0.631258,-0.324464,0.665926,-0.229841,-1.094876,0.192243,0.102289
473,669303334,-0.631794,-0.327916,0.660300,-0.239498,-0.560061,0.983409,0.160269
474,669336668,-0.634294,-0.327977,0.655213,-0.246671,-0.337121,0.786405,0.314669
475,669370002,-0.637714,-0.325668,0.651074,-0.251816,-0.056037,0.955306,0.098310
476,669403336,-0.642355,-0.320713,0.647969,-0.254377,-0.015840,0.894921,0.004862
477,669436670,-0.647267,-0.313827,0.645938,-0.255675,0.318777,-0.041677,-0.481787
478,669470004,-0.650727,-0.307520,0.645028,-0.256854,0.723924,0.040991,-0.522530
479,669503338,-0.652611,-0.303828,0.644001,-0.259034,0.787904,-0.164988,-0.960176
480,669536672,-0.651737,-0.304885,0.642665,-0.263273,0.140545,0.237942,-0.652379
481,669570006,-0.648880,-0.309406,0.641325,-0.268278,0.141850,0.757065,-0.365721
482,669603340,-0.645033,-0.313346,0.642122,-0.271060,0.910596,1.214802,-0.175747
483,669636674,-0.641775,-0.313862,0.644909,-0.271581,0.044558,0.066234,1.116083
484,669670008,-0.639503,-0.312792,0.647350,-0.272366,-1.390168,0.957217,0.292617
485,669703342,-0.635895,-0.314288,0.649647,-0.273618,-0.249235,0.547707,0.321712
486,669736676,-0.631049,-0.318914,0.650659,-0.277060,0.045013,0.413629,-0.024593
487,669770010,-0.625938,-0.321913,0.652977,-0.279719,0.270619,0.006310,0.254319
488,669803344,-0.622820,-0.321192,0.656365,-0.279576,0.118516,0.067769,0.078156
489,669836678,-0.620453,-0.319057,0.660326,-0.277954,0.305072,-0.194664,0.583127
490,669870012,-0.617912,-0.317734,0.663556,-0.277436,0.370604,-0.499356,0.339069
491,669903346,-0.615112,-0.318353,0.665198,-0.279015,0.243610,0.067125,0.103583
492,669936680,-0.612901,-0.318219,0.666979,-0.279779,0.079534,-0.225508,0.346231
493,669970014,-0.611284,-0.316900,0.669090,-0.279772,-0.147249,-0.159503,0.285485
494,670003348,-0.610412,-0.314958,0.671136,-0.278967,-0.216181,-0.416570,0.298483
495,670036682,-0.609331,-0.313504,0.673116,-0.278197,-0.090590,-0.467976,0.362916
496,670070016,-0.608290,-0.312385,0.674875,-0.277471,0.253921,-0.255497,0.201614
497,670103350,-0.607697,-0.310933,0.676422,-0.276634,0.282361,-0.214787,0.129390
498,670136684,-0.607412,-0.309427,0.677874,-0.275391,0.210071,-0.180107,0.168602
499,670170018,-0.607078,-0.308078,0.679367,-0.273957,0.063937,-0.208279,0.088662
500,670203352,-0.606327,-0.307281,0.680769,-0.273034,-0.273425,-0.221892,0.061129
501,670236686,-0.605624,-0.306464,0.682366,-0.271520,-0.167292,0.137177,0.217362
502,670270020,-0.604889,-0.305340,0.684403,-0.269291,-0.098405,-0.419776,0.246560
503,670303354,-0.604024,-0.304984,0.685979,-0.267620,0.263178,-0.288581,0.132445
504,670336688,-0.603399,-0.305451,0.686735,-0.266559,0.249917,0.000750,0.041964
505,670370022,-0.602612,-0.305890,0.687674,-0.265408,-0.171721,-0.433743,0.173243
506,670403356,-0.601928,-0.306469,0.688424,-0.264346,-0.304409,0.044517,0.142779
507,670436690,-0.602131,-0.305995,0.689312,-0.262109,-0.609639,-0.240578,0.243705
508,670470024,-0.602975,-0.305220,0.689794,-0.259796,-0.583467,-0.259341,0.139471
509,670503358,-0.603798,-0.305101,0.689930,-0.257654,-0.262177,0.001536,0.169564
510,670536692,-0.604561,-0.305041,0.690355,-0.254782,0.226904,-0.331921,0.080803
511,670570026,-0.605169,-0.305036,0.691002,-0.251568,0.475702,-0.300474,-0.036759
512,670603360,-0.605388,-0.305518,0.691876,-0.248032,0.469936,-0.449120,0.121019
513,670636694,-0.605329,-0.306355,0.692851,-0.244392,0.166683,-0.384216,0.086833
514,670670028,-0.605190,-0.307708,0.693661,-0.240714,-0.174766,-0.377543,0.206078
515,670703362,-0.605215,-0.308800,0.694563,-0.236618,-0.121833,-0.439100,0.137898
516,670736696,-0.605652,-0.309872,0.695273,-0.231966,-0.271894,-0.661961,0.275834
517,670770030,-0.606507,-0.310760,0.695801,-0.226905,-0.366361,-1.193145,0.458055
518,670803364,-0.607712,-0.312145,0.695499,-0.222664,-0.389643,-0.478387,0.278524
519,670836698,-0.609477,-0.313793,0.694513,-0.218566,-0.226741,0.997657,0.259966
520,670870032,-0.612818,-0.313239,0.693694,-0.212536,0.060205,1.319858,0.217890
521,670903366,-0.617872,-0.310294,0.692910,-0.204637,-0.230623,0.703537,0.229381
522,670936700,-0.624306,-0.306763,0.690871,-0.197188,-0.813230,0.110446,0.319855
523,670970034,-0.630581,-0.304148,0.687919,-0.191512,-0.656112,0.077129,0.041770
524,671003368,-0.635490,-0.302638,0.685309,-0.186978,0.200159,0.158984,0.077106
525,671036702,-0.637850,-0.302932,0.683844,-0.183806,1.258104,-0.013008,0.489971
526,671070036,-0.639188,-0.303203,0.683071,-0.181573,0.916704,-0.592027,0.150874
527,671103370,-0.639016,-0.304997,0.682276,-0.182159,0.473162,-0.751726,0.060247
528,671136704,-0.638201,-0.307434,0.681285,-0.184615,0.326935,-0.259071,0.106917
529,671170038,-0.637551,-0.309883,0.679774,-0.188300,-0.114279,0.424655,0.204653
530,671203372,-0.637727,-0.310949,0.677928,-0.192554,-0.830874,-0.039497,0.197278
531,671236706,-0.637831,-0.312260,0.675233,-0.199431,-1.145236,-0.243311,0.185438
532,671270040,-0.637954,-0.314092,0.671830,-0.207493,-1.001641,0.199722,0.150793
533,671303374,-0.639148,-0.315221,0.667671,-0.215378,-0.602278,0.850987,0.251893
534,671336708,-0.641962,-0.313647,0.663936,-0.220788,-0.417997,0.692921,0.194591
535,671370042,-0.645827,-0.310275,0.660438,-0.224736,-0.150062,0.437864,0.323377
536,671403376,-0.650621,-0.305344,0.656955,-0.227851,0.171607,0.617613,0.030783
537,671436710,-0.656439,-0.298172,0.654094,-0.228890,0.215978,0.631007,-0.161129
538,671470044,-0.662655,-0.289442,0.651860,-0.228556,0.321846,0.546451,-0.225322
539,671503378,-0.668391,-0.280619,0.649999,-0.228159,0.240396,0.491757,-0.357162
540,671536712,-0.673598,-0.271005,0.649317,-0.226400,0.322862,-0.022373,-0.680425
541,671570046,-0.676557,-0.264803,0.648921,-0.226051,0.614584,-0.775302,-0.577123
542,671603380,-0.677089,-0.264330,0.647591,-0.228809,0.427728,0.287324,-0.451296
543,671636714,-0.675956,-0.265987,0.647305,-0.231039,0.520253,0.688928,-0.532241
544,671670048,-0.673334,-0.268342,0.648378,-0.232955,0.916799,0.172052,0.072454
545,671703382,-0.670119,-0.270777,0.650033,-0.234785,0.212751,0.587152,1.275190
546,671736716,-0.667171,-0.272731,0.651652,-0.236427,-0.667022,0.661646,0.354623
547,671770050,-0.662112,-0.276817,0.654237,-0.238751,-0.055860,1.253699,0.390875
548,671803384,-0.658355,-0.278588,0.656779,-0.240097,-0.249871,0.703263,-0.190205
549,671836718,-0.654312,-0.278623,0.660427,-0.241100,-0.081212,-0.247953,-0.137889
550,671870052,-0.650048,-0.278796,0.664000,-0.242617,0.056673,-0.023100,0.110531
551,671903386,-0.646315,-0.278896,0.667254,-0.243544,-0.054983,0.498200,0.344139
552,671936720,-0.642851,-0.278974,0.670424,-0.243919,0.093440,-0.359029,0.324767
553,671970054,-0.639061,-0.279576,0.673127,-0.245737,0.588547,-0.067703,0.220971
554,672003388,-0.636894,-0.278786,0.675346,-0.246170,0.332864,-0.000634,0.227667
555,672036722,-0.635043,-0.277260,0.677790,-0.245957,0.221860,0.047666,0.254657
556,672070056,-0.633245,-0.275868,0.680007,-0.246039,0.019841,-0.355281,0.244910
557,672103390,-0.631761,-0.273954,0.682142,-0.246085,-0.287096,-0.499099,0.356241
558,672136724,-0.630281,-0.272151,0.684633,-0.244961,0.025604,-0.718925,0.300518
559,672170058,-0.629481,-0.270259,0.686675,-0.243391,0.034006,-0.296067,0.286889
560,672203392,-0.628878,-0.267865,0.688774,-0.241659,-0.042684,-0.449663,0.174497
561,672236726,-0.629049,-0.265537,0.690024,-0.240212,-0.177311,-0.220601,0.151993
562,672270060,-0.629678,-0.263678,0.690553,-0.239089,-0.047868,-0.305890,0.137840
563,672303394,-0.630211,-0.262375,0.691009,-0.237798,0.155253,-0.213192,0.242720
564,672336728,-0.630404,-0.260774,0.692047,-0.236020,0.747182,-0.338859,0.036941
565,672370062,-0.630558,-0.258720,0.693474,-0.233671,0.731097,0.326790,0.017714
566,672403396,-0.630229,-0.256045,0.695854,-0.230406,0.351935,-0.303839,0.072341
567,672436730,-0.629010,-0.254564,0.698193,-0.228294,0.254373,-0.218658,0.099218
568,672470064,-0.628050,-0.253215,0.700322,-0.225903,-0.247991,-0.023561,0.104170
569,672503398,-0.627789,-0.251174,0.702161,-0.223183,-0.987109,0.039281,0.250088
570,672536732,-0.627687,-0.249389,0.703726,-0.220526,-1.076898,-0.218536,0.472619
571,672570066,-0.627657,-0.247599,0.705469,-0.217034,-0.545902,0.266189,0.043209
572,672603400,-0.627962,-0.246020,0.706763,-0.213711,-0.443529,0.043838,0.226017
573,672636734,-0.628180,-0.244727,0.707950,-0.210602,-0.119240,-0.142085,0.191210
574,672670068,-0.628255,-0.243887,0.709133,-0.207345,0.325084,0.124186,-0.067471
575,672703402,-0.627672,-0.243275,0.710802,-0.204092,0.157747,-0.536611,0.100477
576,672736736,-0.626714,-0.242759,0.712826,-0.200562,0.289930,-0.231853,0.280272
577,672770070,-0.626957,-0.240743,0.714583,-0.195926,-0.298512,-0.456461,0.224014
578,672803404,-0.627728,-0.238312,0.716227,-0.190346,-0.293056,-0.504424,0.217136
579,672836738,-0.628916,-0.236090,0.717549,-0.184115,-0.018365,-0.222090,0.140464
580,672870072,-0.630559,-0.233832,0.718400,-0.177954,-0.033615,0.101862,0.089332
581,672903406,-0.632298,-0.231632,0.719091,-0.171764,-0.493157,-0.128230,0.147617
582,672936740,-0.633726,-0.230302,0.719561,-0.166228,-0.756444,-0.349185,0.153229
583,672970074,-0.635010,-0.230408,0.719332,-0.162126,-0.691693,-0.659908,0.251437
584,673003408,-0.636420,-0.232216,0.717931,-0.160214,-0.605966,0.066154,0.289541
585,673036742,-0.638360,-0.234302,0.716033,-0.157934,-0.208150,0.705565,0.139358
586,673070076,-0.641479,-0.235683,0.713262,-0.155769,-0.162641,0.886202,0.211188
587,673103410,-0.646134,-0.235337,0.709897,-0.152387,-0.266837,0.792457,0.060734
588,673136744,-0.651525,-0.233589,0.706472,-0.147974,-0.066447,0.473199,0.212068
589,673170078,-0.657646,-0.229746,0.703200,-0.142392,-0.012046,0.139450,0.159133
590,673203412,-0.664320,-0.226100,0.699033,-0.137690,-0.386696,0.442354,0.535334
591,673236746,-0.672195,-0.222809,0.693092,-0.134841,-0.785813,0.823257,0.503289
592,673270080,-0.680834,-0.220991,0.685540,-0.133085,0.006773,1.680575,0.463577
593,673303414,-0.687397,-0.217845,0.680732,-0.129153,0.820030,0.372302,0.475868
594,673336748,-0.692495,-0.210735,0.679142,-0.121881,1.475937,-0.995522,-0.042990
595,673370082,-0.696968,-0.199499,0.679417,-0.113472,1.824520,-1.795550,-0.189638
596,673403416,-0.701069,-0.186147,0.680181,-0.106074,0.802212,-2.158808,-0.267970
597,673436750,-0.704793,-0.176396,0.679244,-0.104051,0.289833,-1.287911,-0.224153
598,673470084,-0.707442,-0.168467,0.678610,-0.103349,0.263159,-0.770549,-0.515276
599,673503418,-0.709426,-0.160056,0.678581,-0.103311,-0.598561,-0.641859,-0.303099
600,673536752,-0.709412,-0.154895,0.679163,-0.107365,0.498642,0.163913,-0.394280
601,673570086,-0.709840,-0.147963,0.680458,-0.106106,0.193442,0.354132,0.136815
602,673603420,-0.708522,-0.146598,0.682186,-0.105712,0.972153,0.906161,0.507439
603,673636754,-0.705210,-0.155925,0.682996,-0.109226,0.667182,2.116615,0.157631
604,673670088,-0.700649,-0.160220,0.686107,-0.112812,0.505486,0.334763,0.632001
605,673703422,-0.696050,-0.158417,0.690870,-0.114736,-0.318498,-1.589792,-0.304744
606,673736756,-0.690630,-0.158271,0.696054,-0.116346,1.005453,0.099738,-0.222910
607,673770090,-0.687078,-0.155103,0.701227,-0.110435,0.132036,0.862567,-0.333703
608,673803424,-0.681406,-0.153112,0.707515,-0.108222,-0.586470,-0.078790,0.283456
609,673836758,-0.675843,-0.156094,0.711330,-0.113701,-0.413888,-0.190141,0.428789
610,673870092,-0.672223,-0.158374,0.713757,-0.116756,-0.354695,0.589033,0.257576
611,673903426,-0.669254,-0.157467,0.716963,-0.115390,-0.257765,1.054521,0.446381
612,673936760,-0.667402,-0.155130,0.719483,-0.113579,-0.387963,0.724226,0.360248
613,673970094,-0.666622,-0.153514,0.720603,-0.113257,-0.470764,0.505796,0.065849
614,674003428,-0.666160,-0.152429,0.721191,-0.113699,-0.183842,0.126010,0.099167
615,674036762,-0.665620,-0.151454,0.721864,-0.113899,-0.071549,-0.548063,0.155133
616,674070096,-0.664572,-0.151290,0.722778,-0.114434,0.100584,-0.588248,0.168388
617,674103430,-0.663497,-0.151660,0.723614,-0.114898,0.157664,-0.063072,0.128303
618,674136764,-0.662459,-0.152334,0.724280,-0.115798,0.072150,0.046347,0.150827
619,674170098,-0.661789,-0.152693,0.724641,-0.116896,-0.128620,0.031313,0.069402
620,674203432,-0.661120,-0.152739,0.725152,-0.117451,-0.150797,0.006659,0.234281
621,674236766,-0.660445,-0.153048,0.725573,-0.118241,-0.216186,-0.090802,0.116429
622,674270100,-0.659643,-0.153942,0.725896,-0.119570,-0.094384,-0.070356,0.008952
623,674303434,-0.658680,-0.155124,0.726315,-0.120794,-0.118629,0.028161,0.155359
624,674336768,-0.657527,-0.156167,0.727013,-0.121536,-0.092479,0.117443,0.183154
625,674370102,-0.656441,-0.156815,0.727839,-0.121622,-0.246714,0.140729,0.238737
626,674403436,-0.655463,-0.157611,0.728484,-0.122011,-0.259330,0.020602,0.162230
627,674436770,-0.654621,-0.158539,0.728950,-0.122547,-0.235025,0.061393,0.144259
628,674470104,-0.653650,-0.159700,0.729441,-0.123293,-0.214061,-0.178733,0.079144
629,674503438,-0.652462,-0.161688,0.729787,-0.124938,-0.082198,-0.251066,0.183673
630,674536772,-0.651158,-0.164490,0.729926,-0.127251,-0.036990,-0.074534,0.134716
631,674570106,-0.649628,-0.167499,0.730214,-0.129475,-0.008222,0.159449,0.109961
632,674603440,-0.648244,-0.169979,0.730519,-0.131438,-0.207680,0.124637,0.244098
633,674636774,-0.647155,-0.171912,0.730735,-0.133082,-0.087365,0.068680,0.169415
634,674670108,-0.646244,-0.173681,0.730848,-0.134581,0.092777,-0.048484,0.149088
635,674703442,-0.645344,-0.175520,0.730890,-0.136278,0.195466,-0.067857,0.078943
636,674736776,-0.644548,-0.177071,0.730942,-0.137753,0.052678,-0.264906,0.136106
637,674770110,-0.643541,-0.178913,0.731082,-0.139328,0.200066,-0.080073,0.150427
638,674803444,-0.642600,-0.180716,0.731138,-0.141040,0.039912,-0.084568,0.156143
639,674836778,-0.641881,-0.182421,0.731015,-0.142746,-0.065274,0.124307,0.196634
640,674870112,-0.641250,-0.183773,0.730989,-0.143976,-0.112311,0.054945,0.153384
641,674903446,-0.640806,-0.184862,0.730900,-0.145006,0.041832,0.055539,0.142972
642,674936780,-0.640503,-0.185785,0.730736,-0.145984,0.093829,-0.029780,0.153734
643,674970114,-0.640151,-0.187038,0.730405,-0.147581,-0.045340,-0.237448,0.175540
644,675003448,-0.639788,-0.188497,0.730042,-0.149086,0.038729,0.175833,0.190660
645,675036782,-0.639424,-0.189460,0.729936,-0.149941,0.023876,0.110788,0.164369
646,675070116,-0.639264,-0.189777,0.729919,-0.150303,0.149909,0.103158,0.070233
647,675103450,-0.639340,-0.189585,0.729957,-0.150041,0.123769,-0.065024,0.116315
648,675136784,-0.639516,-0.189730,0.729707,-0.150326,0.035541,-0.152668,0.089542
649,675170118,-0.639575,-0.190057,0.729544,-0.150453,0.033523,0.021003,0.113618
650,675203452,-0.639474,-0.190240,0.729591,-0.150420,0.011340,0.012421,0.177936
651,675236786,-0.639427,-0.190322,0.729611,-0.150420,-0.066339,0.077235,0.150293
652,675270120,-0.639461,-0.190447,0.729491,-0.150702,-0.164012,0.033445,0.187025
653,675303454,-0.639350,-0.190645,0.729488,-0.150931,-0.223256,0.012628,0.155155
654,675336788,-0.639108,-0.190768,0.729704,-0.150758,-0.192286,0.076088,0.157450
655,675370122,-0.639013,-0.190696,0.729917,-0.150223,-0.075326,0.118945,0.127759
656,675403456,-0.639025,-0.190361,0.730129,-0.149563,0.083824,0.044142,0.189042
657,675436790,-0.639132,-0.189765,0.730322,-0.148920,0.270103,-0.072035,0.117298
658,675470124,-0.639392,-0.188899,0.730456,-0.148246,0.299151,-0.263717,0.091179
659,675503458,-0.639691,-0.188312,0.730435,-0.147806,0.200788,-0.252191,0.152698
660,675536792,-0.639964,-0.188115,0.730334,-0.147373,0.044202,-0.065440,0.080299
661,675570126,-0.640078,-0.188101,0.730289,-0.147119,0.038687,0.024946,0.113295
662,675603460,-0.640163,-0.187968,0.730281,-0.146958,-0.007478,0.084964,0.123387
663,675636794,-0.640374,-0.187725,0.730224,-0.146631,-0.062637,0.013955,0.145499
664,675670128,-0.640591,-0.187543,0.730170,-0.146186,0.022215,-0.041734,0.175752
665,675703462,-0.640830,-0.187325,0.730102,-0.145756,0.035193,-0.069964,0.159860
666,675736796,-0.641171,-0.186985,0.729996,-0.145221,0.007204,0.014364,0.127997
667,675770130,-0.641654,-0.186616,0.729768,-0.144708,-0.095689,0.101790,0.148318
668,675803464,-0.642057,-0.186276,0.729569,-0.144365,-0.073227,0.032843,0.143936
669,675836798,-0.642568,-0.185917,0.729258,-0.144124,-0.012425,-0.045606,0.141241
670,675870132,-0.643076,-0.185558,0.728967,-0.143793,0.007522,-0.055606,0.102462
671,675903466,-0.643468,-0.185372,0.728726,-0.143498,0.016183,-0.099843,0.115017
672,675936800,-0.643803,-0.185412,0.728473,-0.143229,-0.032219,-0.054814,0.146435
673,675970134,-0.644109,-0.185476,0.728243,-0.142941,-0.157044,0.032963,0.135119
674,676003468,-0.644418,-0.185633,0.727959,-0.142789,-0.112854,0.099647,0.128839
675,676036802,-0.644719,-0.185643,0.727752,-0.142472,-0.074403,0.046783,0.171908
676,676070136,-0.645082,-0.185479,0.727555,-0.142050,0.056807,0.016594,0.105956
677,676103470,-0.645666,-0.185161,0.727190,-0.141680,0.097917,-0.035523,0.166585
678,676136804,-0.646477,-0.184743,0.726646,-0.141320,0.000846,-0.039276,0.095834
679,676170138,-0.647149,-0.184413,0.726207,-0.140930,0.049409,-0.015698,0.144371
680,676203472,-0.647525,-0.184243,0.725965,-0.140672,0.055102,0.005569,0.119925
681,676236806,-0.647924,-0.184061,0.725699,-0.140446,-0.077828,0.094218,0.125587
682,676270140,-0.648373,-0.183773,0.725420,-0.140192,-0.168870,0.137842,0.170052
683,676303474,-0.648796,-0.183467,0.725174,-0.139908,-0.086264,0.087065,0.163126
684,676336808,-0.649198,-0.183017,0.724990,-0.139582,-0.091005,0.105143,0.126518
685,676370142,-0.649672,-0.182351,0.724826,-0.139102,-0.065842,0.098482,0.130802
686,676403476,-0.650338,-0.181600,0.724495,-0.138691,-0.021296,0.036487,0.141949
687,676436810,-0.650991,-0.180781,0.724208,-0.138203,-0.008544,0.078848,0.139772
688,676470144,-0.651600,-0.179871,0.723955,-0.137840,0.025508,0.031957,0.075829
689,676503478,-0.652380,-0.178742,0.723597,-0.137499,0.097898,-0.007227,0.121765
690,676536812,-0.653082,-0.177636,0.723312,-0.137104,0.106740,-0.073583,0.142809
691,676570146,-0.653497,-0.176743,0.723233,-0.136692,0.095810,0.035471,0.112915
692,676603480,-0.653993,-0.175616,0.723178,-0.136061,-0.150645,0.005893,0.136449
693,676636814,-0.654501,-0.174454,0.723095,-0.135556,-0.037351,0.062729,0.181479
694,676670148,-0.654861,-0.173359,0.723145,-0.134954,-0.057892,-0.031155,0.121616
695,676703482,-0.655038,-0.172685,0.723167,-0.134844,0.039251,0.017117,0.073456
696,676736816,-0.655411,-0.171749,0.723079,-0.134697,-0.042381,-0.120731,0.120891
697,676770150,-0.655583,-0.170982,0.723140,-0.134510,-0.083802,-0.104896,0.072494
698,676803484,-0.655289,-0.170571,0.723532,-0.134353,-0.204170,-0.042069,0.061589
699,676836818,-0.654729,-0.170893,0.723869,-0.134856,-0.181289,0.057343,0.206983
700,676870152,-0.654368,-0.171311,0.723977,-0.135499,-0.295681,0.239455,0.131425
701,676903486,-0.653800,-0.171802,0.724208,-0.136381,-0.182733,0.266702,0.205201
702,676936820,-0.653176,-0.172154,0.724481,-0.137477,-0.144452,0.184286,0.092480
703,676970154,-0.652589,-0.172515,0.724740,-0.138437,-0.101981,0.115391,0.171778
704,677003488,-0.652059,-0.172919,0.724912,-0.139530,-0.070402,0.103205,0.160851
705,677036822,-0.651292,-0.173192,0.725335,-0.140574,0.062384,0.077905,0.112791
706,677070156,-0.650382,-0.173152,0.726011,-0.141339,0.060121,0.039089,0.071498
707,677103490,-0.649673,-0.172922,0.726530,-0.142213,0.024178,0.080329,0.114317
708,677136824,-0.649284,-0.172385,0.726852,-0.142998,-0.072952,0.121156,0.151242
709,677170158,-0.648908,-0.171646,0.727255,-0.143541,-0.060169,0.079373,0.110254
710,677203492,-0.648122,-0.171316,0.727877,-0.144335,0.005869,-0.061375,0.082253
711,677236826,-0.647200,-0.171646,0.728309,-0.145889,-0.010204,-0.043779,0.135444
712,677270160,-0.646629,-0.171821,0.728437,-0.147566,-0.079964,0.107108,0.071062
713,677303494,-0.645636,-0.171628,0.729082,-0.148944,0.205024,0.044835,0.133965
714,677336828,-0.644100,-0.171461,0.730142,-0.150589,0.334465,-0.200064,0.010702
715,677370162,-0.642352,-0.171743,0.731182,-0.152675,0.167766,-0.144056,0.074112
716,677403496,-0.640907,-0.171928,0.731989,-0.154659,-0.139968,0.005988,0.233224
717,677436830,-0.639557,-0.171885,0.732837,-0.156269,-0.220900,0.251764,-0.027855
718,677470164,-0.637986,-0.172091,0.733761,-0.158119,-0.156185,0.055094,0.191285
719,677503498,-0.635951,-0.173103,0.734648,-0.161066,-0.017710,-0.127026,0.229255
720,677536832,-0.634306,-0.173636,0.735539,-0.162902,0.106164,0.188551,0.135724
721,677570166,-0.633962,-0.172852,0.735937,-0.163275,-0.329592,0.044192,0.190462
722,677603500,-0.633747,-0.171716,0.736250,-0.163896,-0.059680,0.087732,0.259667
723,677636834,-0.633435,-0.170214,0.736872,-0.163873,0.049313,0.044184,0.126039
724,677670168,-0.633590,-0.168492,0.737168,-0.163722,-0.046920,0.023611,0.072406
725,677703502,-0.633807,-0.167222,0.737253,-0.163803,0.133340,0.105850,0.219517
726,677736836,-0.634358,-0.165808,0.737160,-0.163524,-0.099922,-0.043936,0.030503
727,677770170,-0.634600,-0.164739,0.737138,-0.163763,0.033607,-0.304067,0.091335
728,677803504,-0.634803,-0.163827,0.737169,-0.163756,0.187860,-0.528523,0.202710
729,677836838,-0.635419,-0.163118,0.736840,-0.163551,-0.005703,-0.609459,0.238517
730,677870172,-0.635276,-0.162746,0.737171,-0.162987,0.197720,-0.331677,0.103431
731,677903506,-0.634343,-0.162829,0.738000,-0.162786,0.212490,-0.352952,0.204694
732,677936840,-0.633592,-0.163210,0.738534,-0.162910,-0.097655,-0.296653,0.255015
733,677970174,-0.633708,-0.162993,0.738663,-0.162089,-0.404063,0.141695,0.290648
734,678003508,-0.634333,-0.161246,0.739054,-0.159588,-0.187374,0.397627,0.134263
735,678036842,-0.635756,-0.158727,0.739056,-0.156411,-0.247661,-0.047339,0.240750
736,678070176,-0.637419,-0.156082,0.738671,-0.154105,-0.110622,-0.403405,0.187464
737,678103510,-0.638248,-0.153460,0.739371,-0.149892,0.486695,-0.171279,0.016351
738,678136844,-0.638531,-0.151371,0.740307,-0.146149,0.184758,-0.766055,0.156706
739,678170178,-0.638177,-0.149834,0.741521,-0.143091,0.204623,-0.462725,-0.050842
740,678203512,-0.637379,-0.148808,0.743228,-0.138793,-0.362273,-0.244138,0.324648
741,678236846,-0.637397,-0.147446,0.744265,-0.134545,-1.198182,0.287217,0.262907
742,678270180,-0.637707,-0.145631,0.745360,-0.128871,-1.326137,0.709975,0.333299
743,678303514,-0.637901,-0.143231,0.746639,-0.123065,-0.812158,0.541687,0.112719
744,678336848,-0.638783,-0.140545,0.747386,-0.116903,-0.207283,0.391610,0.232425
745,678370182,-0.640691,-0.138179,0.747101,-0.110944,-0.331523,-0.263310,0.326622
746,678403516,-0.643205,-0.136636,0.745900,-0.106297,-0.320634,-0.585001,0.294025
747,678436850,-0.645942,-0.135762,0.744369,-0.101442,0.249648,-0.544794,0.189341
748,678470184,-0.649662,-0.135446,0.741953,-0.095637,0.685099,-0.265220,0.334812
749,678503518,-0.654177,-0.135827,0.738562,-0.090431,0.368947,0.009288,0.069673
750,678536852,-0.658198,-0.135094,0.735883,-0.083958,0.404560,0.135897,0.071234
751,678570186,-0.662480,-0.134385,0.732904,-0.077202,0.150136,0.190521,-0.028124
752,678603520,-0.666106,-0.133871,0.730320,-0.071142,0.182332,-0.058432,0.044723
753,678636854,-0.668977,-0.133059,0.728321,-0.066047,0.180053,-0.003093,-0.024241
754,678670188,-0.671402,-0.132901,0.726531,-0.061293,0.377398,-0.003788,0.205641
755,678703522,-0.673767,-0.132096,0.724919,-0.055929,0.545112,0.088112,-0.045195
756,678736856,-0.676125,-0.130602,0.723370,-0.050811,0.008340,0.206679,0.054757
757,678770190,-0.677888,-0.130316,0.721995,-0.047499,0.149479,0.003796,0.132200
758,678803524,-0.679902,-0.130281,0.720297,-0.044495,0.267064,0.026624,0.234852
759,678836858,-0.682239,-0.129791,0.718354,-0.041460,0.391221,0.088063,0.238877
760,678870192,-0.684693,-0.129108,0.716276,-0.039025,0.383267,0.375965,0.276345
761,678903526,-0.687189,-0.127386,0.714339,-0.036209,0.358780,0.418940,0.463899
762,678936860,-0.690731,-0.124727,0.711519,-0.033524,-0.013183,0.712749,0.280640
763,678970194,-0.695406,-0.120218,0.707924,-0.029147,-0.014224,1.174909,0.254405
764,679003528,-0.700966,-0.112405,0.703998,-0.021160,-0.513666,1.849024,0.051748
765,679036862,-0.706241,-0.103797,0.700245,-0.012462,-0.817421,2.235895,0.461587
766,679070196,-0.710491,-0.097241,0.696981,-0.003398,-0.228411,2.211620,0.848758
767,679103530,-0.704324,-0.081300,0.705135,0.012247,3.038252,-4.485433,-2.693882
768,679136864,-0.696270,-0.050727,0.715086,0.036520,1.647183,-9.085571,-1.196300
769,679170198,-0.692481,-0.035767,0.719303,0.042925,0.880143,-5.201496,-0.325797
770,679203532,-0.693366,-0.030708,0.718805,0.040830,-2.035803,1.590417,1.466971
771,679236866,-0.686314,-0.037106,0.725551,0.034923,1.087560,2.705606,0.045411
772,679270200,-0.678434,-0.050241,0.732620,0.022793,-0.371490,3.129333,0.950465
773,679303534,-0.672442,-0.050460,0.738289,0.015900,-2.073204,2.376857,-0.121538
774,679336868,-0.667021,-0.043800,0.743566,0.017968,0.294886,2.178029,0.607587
775,679370202,-0.666390,-0.031600,0.744317,0.031085,0.054625,1.322995,0.002559
776,679403536,-0.665079,-0.025194,0.745501,0.036203,-1.784888,-0.336308,-0.066733
777,679436870,-0.662550,-0.028727,0.747938,0.028967,-0.737327,-1.338167,0.417694
778,679470204,-0.661184,-0.033829,0.749176,0.021795,0.412528,-0.854221,0.304861
779,679503538,-0.660117,-0.034443,0.750119,0.020707,0.913311,0.224704,0.101637
780,679536872,-0.657876,-0.030839,0.752159,0.023533,0.653257,0.619623,-0.022413
781,679570206,-0.655740,-0.028403,0.754129,0.023129,-0.023526,0.271910,0.364797
782,679603540,-0.655148,-0.027996,0.754732,0.020593,-0.532061,0.242457,0.327423
783,679636874,-0.655325,-0.027573,0.754628,0.019327,-0.702507,0.148719,0.152038
784,679670208,-0.655620,-0.026640,0.754399,0.019550,-0.652412,0.114596,0.111891
785,679703542,-0.655633,-0.026539,0.754397,0.019347,-0.079542,0.033583,0.264029
786,679736876,-0.655862,-0.027331,0.754201,0.018089,0.288218,-0.132301,0.125731
787,679770210,-0.656170,-0.028069,0.753941,0.016543,0.257354,-0.268357,0.032651
788,679803544,-0.656266,-0.028096,0.753867,0.016087,0.070990,-0.405944,0.079795
789,679836878,-0.655750,-0.028360,0.754320,0.015423,0.076970,-0.379574,0.128571
790,679870212,-0.654779,-0.029084,0.755162,0.013988,0.030761,-0.230265,0.097881
791,679903546,-0.653867,-0.030211,0.755942,0.012043,-0.057632,-0.000219,0.136570
792,679936880,-0.653239,-0.031117,0.756469,0.010637,0.001295,0.212712,0.197080
793,679970214,-0.652730,-0.031588,0.756902,0.009653,-0.102421,0.114051,0.138301
794,680003548,-0.652183,-0.031802,0.757373,0.008979,-0.088581,0.018371,0.146626
795,680036882,-0.651656,-0.031831,0.757830,0.008575,-0.052995,-0.067110,0.148522
796,680070216,-0.651091,-0.032203,0.758307,0.007872,-0.000292,-0.158990,0.123697
797,680103550,-0.650442,-0.032844,0.758846,0.006861,0.086449,-0.150295,0.107336
798,680136884,-0.649663,-0.033221,0.759503,0.006166,0.180091,-0.117523,0.119407
799,680170218,-0.648794,-0.033374,0.760242,0.005659,0.117697,-0.144018,0.123952
800,680203552,-0.647728,-0.033656,0.761145,0.004695,0.134229,-0.122442,0.126392
801,680236886,-0.646638,-0.033742,0.762071,0.003943,0.065475,-0.091244,0.145534
802,680270220,-0.645601,-0.033844,0.762949,0.003320,0.030149,-0.068128,0.158232
803,680303554,-0.644662,-0.033837,0.763745,0.002785,0.014646,-0.009379,0.138600
804,680336888,-0.643912,-0.033749,0.764383,0.002275,-0.050683,0.051934,0.125295
805,680370222,-0.643423,-0.033541,0.764804,0.002019,-0.023191,0.069002,0.176362
806,680403556,-0.643046,-0.033174,0.765137,0.001951,-0.049492,0.024438,0.166892
807,680436890,-0.642695,-0.032834,0.765447,0.001855,-0.054752,-0.009831,0.113739
808,680470224,-0.642378,-0.032594,0.765724,0.001682,-0.025971,-0.018011,0.156205
809,680503558,-0.642157,-0.032423,0.765917,0.001501,-0.029884,-0.027658,0.160154
810,680536892,-0.641913,-0.032265,0.766129,0.001295,0.000082,0.006778,0.119086
811,680570226,-0.641663,-0.032061,0.766347,0.001163,0.016843,-0.048230,0.141008
812,680603560,-0.641497,-0.031847,0.766494,0.001006,-0.010060,-0.042399,0.112992
813,680636894,-0.641326,-0.031720,0.766643,0.000813,-0.027354,-0.052314,0.143329
814,680670228,-0.641046,-0.031647,0.766881,0.000546,-0.026853,-0.045967,0.148166
815,680703562,-0.640714,-0.031528,0.767163,0.000368,-0.013982,-0.061221,0.131632
816,680736896,-0.640406,-0.031512,0.767421,0.000136,-0.027832,-0.000329,0.150337
817,680770230,-0.640166,-0.031627,0.767617,-0.000237,-0.072772,0.047503,0.114942
818,680803564,-0.639990,-0.031679,0.767761,-0.000534,-0.072858,0.064540,0.154751
819,680836898,-0.639830,-0.031670,0.767894,-0.000705,-0.068607,0.066199,0.135226
820,680870232,-0.639616,-0.031640,0.768073,-0.000883,-0.024125,-0.009537,0.122521
821,680903566,-0.639401,-0.031744,0.768248,-0.001219,-0.010687,-0.082386,0.142126
822,680936900,-0.639236,-0.031881,0.768379,-0.001546,-0.000010,-0.069436,0.124779
823,680970234,-0.639044,-0.031989,0.768534,-0.001737,-0.001733,-0.031942,0.110447
824,681003568,-0.638705,-0.032124,0.768809,-0.002039,0.025908,-0.058994,0.101675
825,681036902,-0.638359,-0.032112,0.769097,-0.002190,0.053602,-0.033517,0.099882
826,681070236,-0.638111,-0.032021,0.769306,-0.002265,-0.035938,-0.022339,0.127605
827,681103570,-0.637685,-0.032058,0.769657,-0.002524,-0.058754,-0.006540,0.140349
828,681136904,-0.637134,-0.032222,0.770104,-0.002874,-0.073353,0.011266,0.111491
829,681170238,-0.636654,-0.032306,0.770497,-0.003114,-0.030364,0.076288,0.156317
830,681203572,-0.636326,-0.032246,0.770770,-0.003227,-0.040551,0.096110,0.164210
831,681236906,-0.635961,-0.032109,0.771077,-0.003299,-0.036432,0.105406,0.137603
832,681270240,-0.635698,-0.031962,0.771300,-0.003263,-0.112806,0.089271,0.196242
833,681303574,-0.635641,-0.031943,0.771347,-0.003279,-0.153606,0.118632,0.155373
834,681336908,-0.635654,-0.031932,0.771337,-0.003355,-0.134798,0.105361,0.158292
835,681370242,-0.635731,-0.031816,0.771279,-0.003208,-0.064800,0.067906,0.120279
836,681403576,-0.635844,-0.031596,0.771196,-0.002971,0.013448,-0.008030,0.117378
837,681436910,-0.635896,-0.031222,0.771169,-0.002625,0.014945,-0.074896,0.081435
838,681470244,-0.635674,-0.030789,0.771371,-0.002230,0.058536,-0.139696,0.115575
839,681503578,-0.635239,-0.030365,0.771747,-0.001901,0.066472,-0.154107,0.074533
840,681536912,-0.634694,-0.029978,0.772212,-0.001643,0.072483,-0.122661,0.130571
841,681570246,-0.633978,-0.029633,0.772812,-0.001510,0.000219,-0.080680,0.080040
842,681603580,-0.633177,-0.029265,0.773483,-0.001336,-0.085354,-0.015517,0.111081
843,681636914,-0.632332,-0.028903,0.774188,-0.001155,-0.083278,0.078078,0.184665
844,681670248,-0.631401,-0.028678,0.774956,-0.001252,-0.223276,0.047379,0.090075
845,681703582,-0.630515,-0.028688,0.775676,-0.001460,-0.214460,0.155264,0.135065
846,681736916,-0.629834,-0.028425,0.776240,-0.001204,-0.159238,0.258887,0.176210
847,681770250,-0.629309,-0.027785,0.776689,-0.000506,-0.004252,0.236210,0.247252
848,681803584,-0.629185,-0.026869,0.776822,0.000513,-0.163712,0.225164,0.301211
849,681836918,-0.629710,-0.026092,0.776422,0.001432,-0.419075,0.170713,0.257112
850,681870252,-0.630620,-0.025750,0.775693,0.001830,-0.093837,0.239952,0.151079
851,681903586,-0.631365,-0.024949,0.775108,0.003448,0.182614,0.157032,0.177219
852,681936920,-0.632264,-0.023879,0.774398,0.005208,0.214555,0.029138,0.099268
853,681970254,-0.633133,-0.022637,0.773711,0.006978,0.147132,-0.195687,0.108019
854,682003588,-0.633767,-0.021221,0.773212,0.008956,0.105230,-0.322975,0.006661
855,682036922,-0.633941,-0.020195,0.773081,0.010237,-0.075254,-0.601123,0.030344
856,682070256,-0.633882,-0.019727,0.773135,0.010717,0.169149,-0.426232,-0.007250
857,682103590,-0.633644,-0.019329,0.773332,0.011327,0.289848,-0.207327,0.159779
858,682136924,-0.633328,-0.018734,0.773593,0.012112,0.278342,-0.091142,0.192385
859,682170258,-0.632993,-0.017950,0.773877,0.012630,0.003026,-0.228914,0.161872
860,682203592,-0.632905,-0.016894,0.773962,0.013306,0.091227,-0.009223,0.245666
861,682236926,-0.633395,-0.015604,0.773559,0.014904,-0.063926,0.133236,0.266192
862,682270260,-0.634291,-0.014840,0.772812,0.016271,0.060989,0.213917,0.241066
863,682303594,-0.635418,-0.014264,0.771875,0.017253,-0.145984,-0.022411,0.116347
864,682336928,-0.636713,-0.013507,0.770796,0.018329,-0.034932,0.000175,0.025419
865,682370262,-0.638228,-0.012475,0.769517,0.020032,0.063608,-0.123074,0.108341
866,682403596,-0.639647,-0.012096,0.768319,0.020949,-0.022856,-0.251075,0.116915
867,682436930,-0.640873,-0.012410,0.767285,0.021190,0.079011,-0.238355,0.184223
868,682470264,-0.641811,-0.012901,0.766496,0.021064,0.115296,-0.246928,0.124742
869,682503598,-0.642121,-0.012809,0.766235,0.021174,0.303539,-0.403189,0.133220
870,682536932,-0.641923,-0.012104,0.766403,0.021511,0.439773,-0.544109,0.162531
871,682570266,-0.641486,-0.011336,0.766776,0.021698,0.315242,-0.583553,-0.015957
872,682603600,-0.640507,-0.011026,0.767616,0.021048,0.293585,-0.595051,-0.070518
873,682636934,-0.639129,-0.010742,0.768800,0.019807,0.199953,-0.665081,-0.092484
874,682670268,-0.637167,-0.010323,0.770466,0.018486,0.351185,-0.568463,0.047900
875,682703602,-0.634485,-0.009770,0.772714,0.017151,0.491411,-0.503567,0.157043
876,682736936,-0.631173,-0.009323,0.775460,0.015596,0.371217,-0.530239,0.119566
877,682770270,-0.627998,-0.009334,0.778069,0.013703,0.153698,-0.187932,0.196887
878,682803604,-0.625507,-0.009214,0.780094,0.012528,-0.163353,0.419401,0.095980
879,682836938,-0.623922,-0.009124,0.781379,0.011542,-0.638465,0.938029,0.245391
880,682870272,-0.623875,-0.009260,0.781425,0.010764,-0.970912,1.340468,0.297974
881,682903606,-0.624779,-0.009580,0.780704,0.010479,-0.950546,1.191401,0.253895
882,682936940,-0.626226,-0.010131,0.779540,0.010222,-0.578384,0.764550,0.278344
883,682970274,-0.628189,-0.010820,0.777950,0.010153,-0.224957,0.197630,0.211066
884,683003608,-0.630133,-0.011832,0.776367,0.009787,0.082795,-0.348576,0.095057
885,683036942,-0.631304,-0.013318,0.775404,0.008681,0.341606,-0.785262,-0.011365
886,683070276,-0.631457,-0.014996,0.775266,0.006953,0.528491,-0.861134,0.062507
887,683103610,-0.631151,-0.016337,0.775501,0.005167,0.421051,-0.760055,-0.035081
888,683136944,-0.630035,-0.017378,0.776395,0.003577,0.504544,-0.471922,-0.049340
889,683170278,-0.628595,-0.018165,0.777548,0.002097,0.084463,-0.123622,0.014167
890,683203612,-0.628089,-0.018899,0.777942,0.001017,-0.345437,0.742497,0.361080
891,683236946,-0.628871,-0.019264,0.777301,0.001156,-0.862870,1.242965,0.277284
892,683270280,-0.630022,-0.019421,0.776364,0.001564,-0.692641,1.072729,0.143923
893,683303614,-0.631718,-0.019451,0.774982,0.002201,-0.475875,0.442742,0.276044
894,683336948,-0.633496,-0.019548,0.773526,0.002576,-0.019683,-0.307453,0.207172
895,683370282,-0.634887,-0.020062,0.772372,0.002449,0.235125,-0.784141,0.000307
896,683403616,-0.635358,-0.021427,0.771951,0.001278,0.539586,-0.884854,0.037384
897,683436950,-0.635108,-0.022799,0.772118,-0.000346,0.419571,-0.723988,0.046144
898,683470284,-0.634134,-0.023526,0.772895,-0.001474,0.338974,-0.282035,0.057826
899,683503618,-0.633520,-0.023695,0.773391,-0.002060,-0.092512,0.416370,0.181454
900,683536952,-0.633936,-0.023187,0.773067,-0.001437,-0.615037,1.073780,0.248532
901,683570286,-0.634827,-0.022430,0.772359,-0.000441,-0.751302,0.916286,0.182294
902,683603620,-0.635953,-0.021659,0.771454,0.000861,-0.495614,0.632874,0.228666
903,683636954,-0.637506,-0.020820,0.770191,0.002557,-0.104808,0.178603,0.182561
904,683670288,-0.639099,-0.020251,0.768879,0.003964,0.112107,-0.356662,0.072455
905,683703622,-0.640155,-0.020565,0.767991,0.004069,0.419972,-0.698491,0.024217
906,683736956,-0.640219,-0.020955,0.767929,0.003772,0.559535,-0.871391,0.018182
907,683770290,-0.639637,-0.020848,0.768415,0.003846,0.508131,-0.775177,0.021873
908,683803624,-0.638526,-0.020399,0.769350,0.004050,0.379990,-0.486025,0.038073
909,683836958,-0.636962,-0.020050,0.770656,0.003805,0.118444,-0.183014,0.036179
910,683870292,-0.636114,-0.019946,0.771360,0.003507,-0.440183,0.491283,0.369174
911,683903626,-0.637520,-0.019991,0.770194,0.004154,-1.052271,1.544981,0.424587
912,683936960,-0.640105,-0.020062,0.768039,0.005159,-1.070202,1.498377,0.238022
913,683970294,-0.643530,-0.019569,0.765170,0.006959,-0.588557,1.173057,0.322041
914,684003628,-0.647421,-0.018296,0.761880,0.009899,-0.092716,0.251195,0.244269
915,684036962,-0.651816,-0.017424,0.758105,0.012504,0.264906,-0.522633,0.215220
916,684070296,-0.657201,-0.017755,0.753394,0.014710,0.317808,-0.842843,0.238085
917,684103630,-0.661206,-0.018245,0.749809,0.017550,0.201865,-0.932754,-0.316329
918,684136964,-0.661500,-0.018735,0.749478,0.019949,1.137934,-1.728983,-0.262197
919,684170298,-0.659647,-0.018295,0.751100,0.020695,1.399680,-1.809538,-0.123796
920,684203632,-0.656603,-0.017324,0.753806,0.019927,0.713637,-1.322455,-0.322620
921,684236966,-0.651066,-0.017601,0.758649,0.017386,0.541528,-1.008938,-0.194304
922,684270300,-0.644546,-0.018712,0.764246,0.013640,0.171851,-0.514484,0.225002
923,684303634,-0.639913,-0.020092,0.768151,0.009928,-0.684040,0.954266,0.402495
924,684336968,-0.638808,-0.021031,0.769065,0.008304,-1.522388,2.674373,0.582441
925,684370302,-0.639887,-0.021570,0.768156,0.008002,-1.759232,2.924387,0.451889
926,684403636,-0.641424,-0.020920,0.766881,0.008952,-0.892038,1.724546,0.445972
927,684436970,-0.643568,-0.018505,0.765097,0.012377,-0.105631,0.500134,0.342308
928,684470304,-0.646501,-0.015504,0.762601,0.016830,0.371897,-0.400049,0.083564
929,684503638,-0.649750,-0.013687,0.759791,0.020090,0.289843,-0.950885,-0.062008
930,684536972,-0.651851,-0.013678,0.757964,0.020985,0.433383,-1.178670,-0.094717
931,684570306,-0.652201,-0.014616,0.757665,0.020278,0.683223,-1.166107,-0.035958
932,684603640,-0.651361,-0.015139,0.758396,0.019573,0.616005,-0.877464,0.066310
933,684636974,-0.649917,-0.014784,0.759640,0.019612,0.466946,-0.474392,0.002418
934,684670308,-0.648667,-0.014394,0.760718,0.019514,0.041184,-0.096347,0.162153
935,684703642,-0.648337,-0.014642,0.761007,0.019008,-0.596115,0.738706,0.306161
936,684736976,-0.649008,-0.015154,0.760433,0.018690,-0.922865,1.197698,0.171523
937,684770310,-0.650269,-0.015226,0.759342,0.019152,-0.778571,1.242044,0.271738
938,684803644,-0.652544,-0.014758,0.757357,0.020663,-0.470202,1.006652,0.375202
939,684836978,-0.655787,-0.013729,0.754504,0.022947,-0.124324,0.532273,0.164841
940,684870312,-0.659421,-0.012556,0.751271,0.025407,0.036976,0.032715,0.115232
941,684903646,-0.662980,-0.011878,0.748091,0.026896,0.156143,-0.404488,0.078076
942,684936980,-0.665818,-0.011267,0.745522,0.028376,0.302199,-0.570609,0.129566
943,684970314,-0.667776,-0.010889,0.743742,0.029212,0.408882,-0.645332,0.016306
944,685003648,-0.668652,-0.010460,0.742949,0.029508,0.504577,-0.703461,-0.025182
945,685036982,-0.668418,-0.009749,0.743159,0.029735,0.546515,-0.756310,0.014829
946,685070316,-0.667236,-0.008802,0.744222,0.030019,0.333640,-0.834528,0.040347
947,685103650,-0.664683,-0.008067,0.746515,0.029918,0.298710,-0.904041,0.036327
948,685136984,-0.660873,-0.007864,0.749920,0.029190,0.347980,-0.801928,-0.057114
949,685170318,-0.655972,-0.008333,0.754276,0.027337,0.314690,-0.658765,0.004737
950,685203652,-0.651285,-0.009519,0.758410,0.024480,0.017933,0.012732,0.207665
951,685236986,-0.648525,-0.010916,0.760833,0.021840,-0.671682,1.219247,0.294297
952,685270320,-0.647717,-0.011846,0.761548,0.020342,-1.158313,1.989377,0.376231
953,685303654,-0.648276,-0.012067,0.761076,0.020076,-1.125254,2.034233,0.423624
954,685336988,-0.649968,-0.011267,0.759608,0.021386,-0.851597,1.342983,0.395161
955,685370322,-0.652536,-0.009916,0.757356,0.023634,-0.383780,0.450043,0.244262
956,685403656,-0.655655,-0.009333,0.754623,0.024909,-0.149185,-0.359582,0.056429
957,685436990,-0.658795,-0.009697,0.751849,0.025819,0.413378,-0.665347,-0.009016
958,685470324,-0.661122,-0.010470,0.749774,0.026354,0.598956,-1.029725,0.094737
959,685503658,-0.661959,-0.011350,0.749031,0.026116,0.711393,-1.209969,-0.085705
960,685536992,-0.661057,-0.011907,0.749848,0.025238,0.841161,-1.281185,-0.026939
961,685570326,-0.658705,-0.011790,0.751938,0.024637,0.924502,-1.166621,-0.049791
962,685603660,-0.654479,-0.011347,0.755648,0.023936,0.683847,-1.310869,-0.103172
963,685636994,-0.648820,-0.011953,0.760580,0.021330,0.526841,-1.081001,-0.032136
964,685670328,-0.643349,-0.013517,0.765286,0.017446,0.047165,-0.100092,0.262460
965,685703662,-0.640364,-0.015229,0.767808,0.014837,-0.811837,1.425609,0.280729
966,685736996,-0.639272,-0.016733,0.768719,0.013081,-1.350573,2.112307,0.390143
967,685770330,-0.639948,-0.017395,0.768149,0.012623,-1.204202,2.326190,0.425333
968,685803664,-0.642736,-0.016479,0.765798,0.014827,-1.018921,1.925421,0.627471
969,685836998,-0.647553,-0.014493,0.761667,0.019421,-0.333063,0.747442,0.288690
970,685870332,-0.652360,-0.012245,0.757449,0.024405,0.062191,-0.341624,0.077552
971,685903666,-0.657046,-0.011997,0.753297,0.027157,0.156110,-0.902740,-0.056999
972,685937000,-0.660921,-0.013607,0.749859,0.027531,0.415495,-1.232962,-0.017245
973,685970334,-0.663474,-0.016368,0.747607,0.025808,0.796453,-1.275178,-0.224743
974,686003668,-0.663608,-0.017458,0.747504,0.024588,1.144815,-1.342592,-0.091672
975,686037002,-0.662188,-0.016521,0.748780,0.024718,0.970799,-1.153795,0.005869
976,686070336,-0.658763,-0.015052,0.751830,0.024589,0.919768,-1.080269,-0.064993
977,686103670,-0.653606,-0.014223,0.756384,0.022983,0.428927,-1.042509,-0.065043
978,686137004,-0.648115,-0.014924,0.761179,0.019446,0.108583,-0.527551,0.173991
979,686170338,-0.643571,-0.015881,0.765074,0.016522,-0.309687,0.361330,0.127526
980,686203672,-0.640514,-0.016994,0.767660,0.014117,-0.766493,1.398965,0.355531
981,686237006,-0.639777,-0.017681,0.768283,0.012743,-1.073754,2.249737,0.516178
982,686270340,-0.640970,-0.017413,0.767294,0.012775,-1.214452,2.103305,0.370977
983,686303674,-0.643115,-0.016192,0.765503,0.013923,-0.847045,1.334841,0.276391
984,686337008,-0.645985,-0.014002,0.763065,0.016937,-0.373668,0.622154,0.231564
985,686370342,-0.649168,-0.012175,0.760320,0.019832,-0.140093,-0.175747,0.103745
986,686403676,-0.652318,-0.011853,0.757592,0.021063,0.041161,-0.625596,0.047413
987,686437010,-0.654668,-0.012610,0.755551,0.021020,0.345960,-0.733293,0.013702
988,686470344,-0.655914,-0.013541,0.754468,0.020471,0.567460,-0.878819,0.014215
989,686503678,-0.656025,-0.013794,0.754371,0.020321,0.786932,-0.900019,0.043743
990,686537012,-0.655175,-0.013329,0.755116,0.020373,0.676002,-0.864232,0.040119
991,686570346,-0.653322,-0.012631,0.756744,0.019940,0.619201,-0.924627,-0.046783
992,686603680,-0.649995,-0.011991,0.759637,0.019028,0.390977,-0.957431,-0.041430
993,686637014,-0.646409,-0.012479,0.762736,0.016801,0.079344,-0.390276,0.256693
994,686670348,-0.644473,-0.013736,0.764398,0.014441,-0.609358,0.847776,0.240370
995,686703682,-0.643897,-0.015010,0.764892,0.012631,-0.945728,1.594597,0.229888
996,686737016,-0.644387,-0.015542,0.764480,0.011936,-0.869536,1.745855,0.308196
997,686770350,-0.645986,-0.015100,0.763129,0.012498,-0.651487,1.223289,0.368251
998,686803684,-0.648413,-0.014016,0.761062,0.014039,-0.263433,0.472036,0.238685
999,686837018,-0.651146,-0.012857,0.758709,0.015833,-0.111033,-0.269975,0.107294
1000,686870352,-0.653992,-0.012610,0.756241,0.016813,0.163447,-0.554003,0.030289
1001,686903686,-0.656310,-0.013139,0.754215,0.017081,0.261246,-0.720578,0.034909
1002,686937020,-0.657728,-0.014184,0.752975,0.016438,0.467773,-0.754694,0.037894
1003,686970354,-0.658181,-0.014748,0.752580,0.015880,0.566365,-0.678278,0.060361
1004,687003688,-0.657707,-0.014526,0.753002,0.015697,0.532030,-0.635687,0.071465
1005,687037022,-0.656596,-0.013899,0.753980,0.015799,0.411672,-0.510046,0.060184
1006,687070356,-0.654539,-0.013336,0.755782,0.015598,0.186018,-0.540081,0.076330
1007,687103690,-0.651662,-0.013443,0.758287,0.014330,0.103761,-0.466773,0.075200
1008,687137024,-0.648576,-0.014066,0.760950,0.012407,0.015601,-0.102136,0.120020
1009,687170358,-0.646348,-0.014910,0.762854,0.010668,-0.248972,0.475352,0.241404
1010,687203692,-0.644527,-0.015557,0.764400,0.009184,-0.430570,0.672797,0.133772
1011,687237026,-0.642889,-0.015804,0.765785,0.008062,-0.402206,0.706772,0.215258
1012,687270360,-0.641967,-0.015765,0.766565,0.007460,-0.330027,0.614879,0.200563
1013,687303694,-0.641715,-0.015485,0.766782,0.007510,-0.201233,0.365943,0.179984
1014,687337028,-0.641851,-0.015155,0.766669,0.008035,-0.119899,0.268185,0.192456
1015,687370362,-0.642323,-0.014828,0.766274,0.008572,-0.188068,0.065092,0.145710
1016,687403696,-0.642680,-0.014676,0.765974,0.008852,0.018153,-0.101385,0.131570
1017,687437030,-0.642829,-0.014471,0.765849,0.009224,0.156921,-0.196097,0.091091
1018,687470364,-0.642904,-0.014382,0.765787,0.009265,0.050121,-0.267679,0.099463
1019,687503698,-0.642796,-0.014406,0.765880,0.008970,0.052956,-0.277120,0.159800
1020,687537032,-0.642568,-0.014509,0.766072,0.008819,0.001225,-0.119564,0.135200
1021,687570366,-0.642131,-0.014697,0.766437,0.008570,-0.001199,0.036480,0.111456
1022,687603700,-0.641694,-0.014861,0.766803,0.008276,-0.036915,0.072156,0.134171
1023,687637034,-0.641443,-0.015043,0.767014,0.007897,-0.118483,0.037189,0.130987
1024,687670368,-0.641157,-0.015145,0.767253,0.007670,-0.091970,0.012740,0.131706
1025,687703702,-0.640817,-0.015298,0.767535,0.007531,-0.051280,0.051541,0.198045
1026,687737036,-0.640655,-0.015610,0.767667,0.007205,-0.031494,0.075182,0.157632
1027,687770370,-0.640555,-0.015792,0.767749,0.006974,-0.040394,0.080356,0.165392
1028,687803704,-0.640704,-0.015814,0.767625,0.006960,-0.108229,0.141095,0.183344
1029,687837038,-0.640943,-0.015763,0.767425,0.007081,-0.164275,0.162684,0.177327
1030,687870372,-0.641238,-0.015531,0.767179,0.007499,-0.052870,0.179433,0.138137
1031,687903706,-0.641617,-0.015171,0.766863,0.008089,-0.028416,0.097258,0.170449
1032,687937040,-0.642141,-0.014722,0.766427,0.008721,0.013466,0.109765,0.145513
1033,687970374,-0.642685,-0.014042,0.765971,0.009759,-0.063855,0.038464,0.125629
1034,688003708,-0.643198,-0.013308,0.765539,0.010826,-0.035054,-0.051270,0.120352
1035,688037042,-0.643715,-0.012651,0.765101,0.011746,-0.071744,-0.117446,0.090518
1036,688070376,-0.644120,-0.012103,0.764757,0.012551,0.063005,-0.015087,0.131410
1037,688103710,-0.644491,-0.011499,0.764437,0.013496,0.154785,-0.061758,0.126141
1038,688137044,-0.644896,-0.010846,0.764086,0.014526,0.084585,-0.067358,0.105938
1039,688170378,-0.645326,-0.010210,0.763716,0.015393,-0.017695,-0.110702,0.108424
1040,688203712,-0.645552,-0.009608,0.763519,0.016044,0.029269,-0.209385,0.135753
1041,688237046,-0.645532,-0.009183,0.763530,0.016556,0.184632,-0.212163,0.126141
1042,688270380,-0.645502,-0.008730,0.763548,0.017127,0.147526,-0.152465,0.115077
1043,688303714,-0.645474,-0.008177,0.763564,0.017721,0.069750,-0.112550,0.143477
1044,688337048,-0.645407,-0.007476,0.763612,0.018369,-0.038238,-0.134273,0.137686
1045,688370382,-0.645165,-0.006968,0.763813,0.018712,-0.021454,-0.137666,0.164663
1046,688403716,-0.645108,-0.006757,0.763859,0.018903,-0.027904,0.003919,0.171996
1047,688437050,-0.645160,-0.006612,0.763809,0.019196,0.056749,0.082584,0.144423
1048,688470384,-0.645243,-0.006313,0.763733,0.019542,0.027654,0.127967,0.128978
1049,688503718,-0.645294,-0.005718,0.763677,0.020192,-0.023875,0.059617,0.115513
1050,688537052,-0.645496,-0.005115,0.763492,0.020915,-0.071004,-0.045806,0.117553
1051,688570386,-0.645663,-0.004665,0.763334,0.021603,-0.084947,-0.039867,0.139702
1052,688603720,-0.645718,-0.004517,0.763280,0.021889,-0.021450,-0.062391,0.114759
1053,688637054,-0.645777,-0.004436,0.763223,0.022144,0.011239,-0.002782,0.164250
1054,688670388,-0.645959,-0.004217,0.763056,0.022632,-0.013355,0.027920,0.145901
1055,688703722,-0.646203,-0.003990,0.762838,0.023045,-0.006383,0.030844,0.117063
1056,688737056,-0.646350,-0.003694,0.762701,0.023510,-0.004529,-0.076561,0.093426
1057,688770390,-0.646344,-0.003552,0.762699,0.023769,0.006170,-0.116447,0.088404
1058,688803724,-0.646356,-0.003541,0.762681,0.023998,0.042049,-0.071194,0.141798
1059,688837058,-0.646462,-0.003545,0.762586,0.024186,0.042853,-0.053944,0.148843
1060,688870392,-0.646446,-0.003483,0.762597,0.024280,0.024055,-0.123438,0.142574
1061,688903726,-0.646346,-0.003360,0.762677,0.024426,0.020677,-0.041565,0.121179
1062,688937060,-0.646331,-0.003246,0.762685,0.024598,-0.055213,-0.007056,0.117488
1063,688970394,-0.646301,-0.003339,0.762710,0.024585,-0.050631,-0.005766,0.115274
1064,689003728,-0.646219,-0.003596,0.762785,0.024408,-0.044783,0.028427,0.168180
1065,689037062,-0.646062,-0.003854,0.762922,0.024247,-0.046709,0.022373,0.151370
1066,689070396,-0.645917,-0.003983,0.763046,0.024161,0.001268,0.009376,0.144078
1067,689103730,-0.645861,-0.003988,0.763090,0.024274,0.015284,0.030818,0.138088
1068,689137064,-0.646080,-0.004022,0.762899,0.024449,-0.031296,0.069875,0.124126
1069,689170398,-0.646626,-0.004195,0.762433,0.024521,-0.103634,0.157393,0.119529
1070,689203732,-0.647304,-0.004232,0.761849,0.024763,-0.181601,0.159261,-0.026457
1071,689237066,-0.648067,-0.004400,0.761193,0.024975,-0.066956,0.125303,0.566427
1072,689270400,-0.648782,-0.004384,0.760570,0.025368,0.012710,0.133325,0.373442
1073,689303734,-0.649733,-0.004503,0.759741,0.025841,0.003446,-0.055999,0.083011
1074,689337068,-0.651110,-0.004428,0.758541,0.026433,0.220801,-0.114136,-0.128127
1075,689370402,-0.652385,-0.004023,0.757424,0.027075,0.303160,-0.351523,-0.171651
1076,689403736,-0.653027,-0.003227,0.756848,0.027826,0.108923,-0.550932,0.027240
1077,689437070,-0.652550,-0.002550,0.757255,0.028009,0.043734,-0.707071,0.323295
1078,689470404,-0.650892,-0.002319,0.758700,0.027487,0.222783,-0.626423,0.307934
1079,689503738,-0.648461,-0.002558,0.760820,0.026323,0.484703,-0.493430,-0.077296
1080,689537072,-0.646233,-0.002864,0.762758,0.024955,0.350030,-0.224152,0.094845
1081,689570406,-0.644430,-0.002946,0.764315,0.023919,0.241993,0.019107,0.058208
1082,689603740,-0.642468,-0.002534,0.765987,0.023240,0.075486,0.023615,0.135077
1083,689637074,-0.640664,-0.001762,0.767513,0.022768,-0.074430,0.128245,0.076849
1084,689670408,-0.639990,-0.000999,0.768065,0.023135,-0.439145,0.584692,0.297257
1085,689703742,-0.640075,-0.000627,0.767990,0.023290,-0.673245,0.817663,0.132588
1086,689737076,-0.640602,-0.000681,0.767554,0.023170,-0.708579,0.911497,0.297338
1087,689770410,-0.641730,-0.000500,0.766600,0.023540,-0.488247,0.929447,0.251690
1088,689803744,-0.643528,-0.000273,0.765061,0.024524,-0.271523,0.521379,0.127745
1089,689837078,-0.645747,-0.000075,0.763153,0.025626,-0.129218,0.180008,0.221284
1090,689870412,-0.647936,0.000211,0.761260,0.026643,0.111383,-0.151869,0.102885
1091,689903746,-0.649581,0.000709,0.759810,0.027935,0.265194,-0.487841,0.094338
1092,689937080,-0.650182,0.001354,0.759254,0.029045,0.357032,-0.763365,0.065126
1093,689970414,-0.649306,0.001962,0.759982,0.029530,0.496224,-1.029052,-0.065184
1094,690003748,-0.647382,0.002285,0.761633,0.029227,0.486081,-1.149229,0.067669
1095,690037082,-0.643834,0.002214,0.764699,0.027482,0.676805,-1.123472,-0.104760
1096,690070416,-0.638879,0.002312,0.768913,0.025484,0.520494,-1.018360,-0.248836
1097,690103750,-0.634759,0.002082,0.772394,0.023062,0.094785,-0.172315,0.244833
1098,690137084,-0.632449,0.001541,0.774345,0.021085,-0.542792,1.115972,0.293748
1099,690170418,-0.631190,0.000999,0.775409,0.019660,-1.157792,1.716056,0.446154
1100,690203752,-0.631280,0.000655,0.775352,0.019007,-1.012511,1.829661,0.358743
1101,690237086,-0.632766,0.000602,0.774127,0.019540,-0.381177,1.198761,0.357752
1102,690270420,-0.634767,0.000945,0.772458,0.020631,0.200841,0.405413,0.178962
1103,690303754,-0.636640,0.001946,0.770860,0.022557,0.175437,-0.421854,-0.019972
1104,690337088,-0.637896,0.002320,0.769792,0.023473,0.137231,-1.138421,0.057581
1105,690370422,-0.638122,0.001490,0.769634,0.022558,0.172427,-1.205501,0.173208
1106,690403756,-0.637642,0.000146,0.770077,0.021013,0.369487,-0.745067,-0.059026
1107,690437090,-0.636834,-0.000996,0.770775,0.019882,0.446376,-0.353096,-0.088908
1108,690470424,-0.636185,-0.001852,0.771346,0.018405,0.093936,-0.099207,0.191571
1109,690503758,-0.635349,-0.002723,0.772070,0.016705,-0.277783,0.184993,0.302567
1110,690537092,-0.634731,-0.003158,0.772597,0.015749,-0.401560,0.511923,0.112549
1111,690570426,-0.634646,-0.003365,0.772664,0.015863,-0.014900,0.594429,0.157304
1112,690603760,-0.635143,-0.003401,0.772247,0.016245,-0.088427,0.453860,0.215736
1113,690637094,-0.635840,-0.003371,0.771670,0.016436,-0.241624,0.099789,0.228699
1114,690670428,-0.636478,-0.003384,0.771140,0.016568,-0.209895,-0.076374,0.108203
1115,690703762,-0.637223,-0.003691,0.770516,0.016905,-0.055655,-0.219238,0.037780
1116,690737096,-0.637762,-0.004823,0.770077,0.016303,0.200776,-0.271885,0.148943
1117,690770430,-0.637997,-0.006194,0.769897,0.015106,0.071267,-0.162993,0.207519
1118,690803764,-0.638266,-0.007015,0.769682,0.014302,0.048494,0.036943,0.124421
1119,690837098,-0.638627,-0.007124,0.769379,0.014455,0.126372,-0.008593,-0.037311
1120,690870432,-0.638978,-0.007169,0.769080,0.014803,-0.052939,-0.017732,0.226168
1121,690903766,-0.639158,-0.007513,0.768935,0.014418,-0.099265,0.018581,0.227309
1122,690937100,-0.639576,-0.007800,0.768589,0.014155,-0.077709,0.042952,0.096043
1123,690970434,-0.640132,-0.007989,0.768123,0.014221,-0.058246,-0.090387,0.081901
1124,691003768,-0.640469,-0.008356,0.767840,0.014133,0.047229,0.041023,0.158654
1125,691037102,-0.640628,-0.008820,0.767707,0.013825,-0.024215,0.122165,0.223659
1126,691070436,-0.640976,-0.009084,0.767416,0.013681,-0.071314,0.211464,0.111446
1127,691103770,-0.641519,-0.008985,0.766955,0.014134,-0.082138,0.043547,0.111110
1128,691137104,-0.642028,-0.008881,0.766524,0.014480,0.074914,0.095557,0.026332
1129,691170438,-0.642255,-0.008922,0.766332,0.014548,-0.109197,-0.006894,0.243758
1130,691203772,-0.642370,-0.009257,0.766238,0.014244,-0.138551,0.098019,0.293670
1131,691237106,-0.642704,-0.009252,0.765951,0.014580,0.005694,0.128169,0.050729
1132,691270440,-0.643272,-0.009135,0.765466,0.015114,0.121243,0.002990,0.064669
1133,691303774,-0.643686,-0.009066,0.765116,0.015212,0.072205,-0.102538,0.166868
1134,691337108,-0.644039,-0.008762,0.764814,0.015608,-0.079048,-0.076304,0.151944
1135,691370442,-0.644438,-0.008696,0.764471,0.015994,0.028253,-0.154172,0.045481
1136,691403776,-0.644873,-0.008780,0.764098,0.016257,0.125893,-0.178155,0.135232
1137,691437110,-0.645295,-0.008788,0.763740,0.016347,0.137123,-0.021029,0.065431
1138,691470444,-0.645648,-0.008398,0.763434,0.016852,-0.037283,0.066410,0.127527
1139,691503778,-0.645925,-0.008204,0.763197,0.017089,-0.075599,-0.048595,0.194525
1140,691537112,-0.646182,-0.008333,0.762980,0.017019,-0.147806,0.047129,0.156309
1141,691570446,-0.646391,-0.008596,0.762801,0.016962,-0.035351,0.029539,0.105985
1142,691603780,-0.646756,-0.008814,0.762488,0.017016,0.054517,0.002615,0.092997
1143,691637114,-0.647011,-0.008591,0.762265,0.017389,0.090650,-0.014907,0.117210
1144,691670448,-0.647110,-0.008113,0.762174,0.017917,-0.025437,-0.032646,0.087935
1145,691703782,-0.647069,-0.007825,0.762205,0.018249,-0.093595,0.000640,0.135468
1146,691737116,-0.646885,-0.007709,0.762355,0.018527,-0.115324,0.015312,0.165341
1147,691770450,-0.646669,-0.007850,0.762536,0.018540,-0.025160,0.117286,0.188394
1148,691803784,-0.646640,-0.008013,0.762562,0.018421,-0.182982,0.235154,0.108861
1149,691837118,-0.646616,-0.008503,0.762589,0.017921,-0.250339,0.266548,0.235633
1150,691870452,-0.646545,-0.009006,0.762652,0.017541,-0.079581,0.246240,0.166090
1151,691903786,-0.646520,-0.009216,0.762669,0.017631,0.113094,-0.023991,0.102841
1152,691937120,-0.646752,-0.009233,0.762468,0.017808,0.065271,-0.109302,0.102990
1153,691970454,-0.646783,-0.009306,0.762442,0.017758,0.019238,-0.074642,0.109534
1154,692003788,-0.646630,-0.009586,0.762573,0.017546,-0.134351,0.012202,0.155973
1155,692037122,-0.646432,-0.010011,0.762743,0.017243,-0.131504,0.107191,0.134895
1156,692070456,-0.646299,-0.010396,0.762854,0.017056,0.004941,0.095715,0.118799
1157,692103790,-0.646222,-0.010679,0.762921,0.016799,-0.001339,0.124234,0.109511
1158,692137124,-0.645941,-0.011058,0.763165,0.016285,-0.029611,0.022302,0.168249
1159,692170458,-0.645632,-0.011536,0.763431,0.015707,-0.052425,-0.028872,0.129705
1160,692203792,-0.645206,-0.012033,0.763792,0.015298,0.000146,0.000207,0.123401
1161,692237126,-0.644764,-0.012549,0.764165,0.014848,-0.015622,0.074115,0.168001
1162,692270460,-0.644404,-0.012973,0.764470,0.014456,-0.003030,0.130546,0.107064
1163,692303794,-0.644118,-0.013268,0.764712,0.014127,0.007603,0.071716,0.187416
1164,692337128,-0.643972,-0.013432,0.764835,0.013955,-0.090765,0.017528,0.132676
1165,692370462,-0.643820,-0.013610,0.764962,0.013832,-0.008042,0.003480,0.107950
1166,692403796,-0.643605,-0.013914,0.765142,0.013610,0.067107,-0.032972,0.130272
1167,692437130,-0.643426,-0.014176,0.765292,0.013348,0.089068,-0.058320,0.127029
1168,692470464,-0.643325,-0.014286,0.765378,0.013131,0.026432,-0.042475,0.058144
1169,692503798,-0.643030,-0.014428,0.765628,0.012901,0.037446,-0.027548,0.120769
1170,692537132,-0.642748,-0.014673,0.765865,0.012592,-0.014248,0.017412,0.225843
1171,692570466,-0.642668,-0.015148,0.765932,0.012007,-0.041009,0.044984,0.187708
1172,692603800,-0.642653,-0.015676,0.765942,0.011455,-0.079778,0.114065,0.144140
1173,692637134,-0.642602,-0.016116,0.765982,0.011089,-0.063994,0.050270,-0.000957
1174,692670468,-0.642634,-0.016502,0.765949,0.010895,0.008147,0.022693,0.232625
1175,692703802,-0.642670,-0.016599,0.765918,0.010802,0.161373,-0.005974,0.038994
1176,692737136,-0.642290,-0.016479,0.766241,0.010727,-0.013341,-0.053643,0.727242
1177,692770470,-0.641764,-0.016752,0.766688,0.009784,-0.500213,0.074412,0.431720
1178,692803804,-0.642276,-0.016915,0.766254,0.009930,-0.230994,0.489516,-0.299754
1179,692837138,-0.644215,-0.016415,0.764610,0.011718,0.786563,0.340062,0.111886
1180,692870472,-0.647455,-0.015504,0.761874,0.012509,0.536654,-0.450767,0.154301
1181,692903806,-0.649098,-0.014880,0.760485,0.012654,0.346961,-1.118124,-0.013831
1182,692937140,-0.649150,-0.014719,0.760443,0.012694,-0.230965,-0.818751,-0.081780
1183,692970474,-0.648525,-0.015232,0.760972,0.012352,0.132357,-0.251335,-0.016088
1184,693003808,-0.648031,-0.015690,0.761386,0.012167,0.289882,0.015481,-0.015197
1185,693037142,-0.647633,-0.015873,0.761731,0.011518,0.135795,0.194412,0.294465
1186,693070476,-0.647269,-0.015327,0.762054,0.011344,-0.413241,0.118061,0.143720
1187,693103810,-0.647149,-0.014728,0.762161,0.011788,-0.494454,0.331296,0.158735
1188,693137144,-0.647164,-0.014860,0.762144,0.011917,-0.180595,0.409025,0.054377
1189,693170478,-0.647323,-0.015926,0.762003,0.010918,-0.171745,0.130680,0.346748
1190,693203812,-0.647426,-0.016603,0.761910,0.010252,-0.190609,0.210419,0.232333
1191,693237146,-0.647719,-0.016442,0.761657,0.010803,0.129907,0.111156,-0.017983
1192,693270480,-0.648140,-0.016073,0.761299,0.011283,0.221198,-0.068884,0.107471
1193,693303814,-0.648092,-0.016547,0.761342,0.010419,-0.218609,-0.198974,0.343357
1194,693337148,-0.647895,-0.017043,0.761506,0.009901,-0.220116,0.156546,0.261384
1195,693370482,-0.648007,-0.016736,0.761410,0.010450,0.276272,0.288357,-0.054233
1196,693403816,-0.648486,-0.016061,0.761009,0.011015,0.318264,-0.194210,0.090704
1197,693437150,-0.648657,-0.015358,0.760877,0.011025,0.096726,-0.108058,-0.103732
1198,693470484,-0.648282,-0.015438,0.761201,0.010611,-0.450803,-0.140212,0.392882
1199,693503818,-0.647568,-0.016213,0.761803,0.009841,-0.409850,0.061414,0.289117
1200,693537152,-0.647297,-0.016629,0.762024,0.009874,0.210133,0.417530,0.081660
1201,693570486,-0.647563,-0.016558,0.761798,0.010000,0.370735,0.047070,-0.155478
1202,693603820,-0.647600,-0.016180,0.761777,0.009844,0.085193,-0.168543,0.049642
1203,693637154,-0.647230,-0.016192,0.762094,0.009591,-0.374434,-0.272575,0.437663
1204,693670488,-0.646733,-0.016818,0.762507,0.009198,-0.216889,-0.120103,0.240868
1205,693703822,-0.646694,-0.017029,0.762532,0.009474,0.404458,0.186224,-0.040074
1206,693737156,-0.646962,-0.016537,0.762310,0.009949,0.319546,-0.164035,-0.102959
1207,693770490,-0.646796,-0.015977,0.762462,0.009892,0.029202,-0.098257,0.041800
1208,693803824,-0.646013,-0.016168,0.763126,0.009592,-0.600423,-0.146561,0.509524
1209,693837158,-0.645608,-0.017225,0.763455,0.008843,-0.269399,0.188387,0.387856
1210,693870492,-0.645937,-0.017513,0.763169,0.008972,0.316844,0.467406,-0.085284
1211,693903826,-0.646417,-0.016985,0.762766,0.009647,0.334418,0.030171,-0.041770
1212,693937160,-0.646814,-0.016399,0.762442,0.009618,0.102532,-0.213470,0.015991
1213,693970494,-0.646822,-0.015973,0.762443,0.009696,-0.092425,-0.257962,0.279943
1214,694003828,-0.646320,-0.016620,0.762865,0.008911,-0.433980,-0.266130,0.279701
1215,694037162,-0.645423,-0.017687,0.763608,0.008174,-0.034569,0.397908,0.442824
1216,694070496,-0.645441,-0.017863,0.763587,0.008333,0.033450,0.577112,-0.097290
1217,694103830,-0.645903,-0.017255,0.763203,0.008982,0.338722,0.090030,-0.137738
1218,694137164,-0.646242,-0.016399,0.762928,0.009581,0.112180,-0.454227,0.112749
1219,694170498,-0.646419,-0.015968,0.762785,0.009711,-0.011690,-0.426769,0.060499
1220,694203832,-0.646096,-0.016251,0.763059,0.009200,-0.057644,-0.307589,0.183915
1221,694237166,-0.645315,-0.016841,0.763713,0.008644,-0.171056,-0.003726,0.180230
1222,694270500,-0.644344,-0.017506,0.764523,0.008171,-0.181933,0.442814,0.133183
1223,694303834,-0.643849,-0.018203,0.764929,0.007678,-0.228181,0.648097,0.644637
1224,694337168,-0.644270,-0.018189,0.764576,0.007591,-0.029162,0.576666,-0.017112
1225,694370502,-0.645329,-0.017680,0.763686,0.008307,0.258634,-0.150573,0.043294
1226,694403836,-0.646300,-0.016831,0.762876,0.009042,0.199500,-0.503927,-0.088169
1227,694437170,-0.646328,-0.016487,0.762857,0.009291,0.138252,-0.507555,0.082826
1228,694470504,-0.646030,-0.016928,0.763108,0.008550,-0.137236,-0.179298,0.194363
1229,694503838,-0.645274,-0.017668,0.763738,0.007914,-0.225225,0.100745,0.447287
1230,694537172,-0.645105,-0.018156,0.763871,0.007727,-0.091844,0.543487,0.166260
1231,694570506,-0.645657,-0.017617,0.763408,0.008549,0.239629,0.488249,-0.100490
1232,694603840,-0.646572,-0.016608,0.762645,0.009448,0.280258,-0.369839,-0.051197
1233,694637174,-0.646932,-0.016128,0.762347,0.009693,-0.166772,-0.706012,0.270771
1234,694670508,-0.646791,-0.016941,0.762457,0.009021,-0.359518,-0.152192,0.334911
1235,694703842,-0.646896,-0.017998,0.762348,0.008594,0.085135,0.316260,0.171647
1236,694737176,-0.647837,-0.018091,0.761542,0.008970,0.563779,0.195428,-0.212447
1237,694770510,-0.648878,-0.017138,0.760668,0.009774,0.420579,-0.155151,-0.021925
1238,694803844,-0.649298,-0.015992,0.760331,0.010066,-0.118175,-0.204023,-0.036193
1239,694837178,-0.648984,-0.016142,0.760603,0.009496,-0.853077,-0.209536,0.511707
1240,694870512,-0.648154,-0.017316,0.761293,0.008821,-0.604649,0.483303,0.505004
1241,694903846,-0.648130,-0.017708,0.761296,0.009464,0.047497,0.862942,0.007154
1242,694937180,-0.649137,-0.017350,0.760437,0.010154,0.444759,0.408541,-0.264460
1243,694970514,-0.649947,-0.016223,0.759759,0.010991,0.058254,-0.295931,0.064342
1244,695003848,-0.650025,-0.015377,0.759702,0.011442,-0.191848,-0.374251,0.090434
1245,695037182,-0.649625,-0.015962,0.760038,0.011075,-0.424811,-0.245990,0.369803
1246,695070516,-0.648776,-0.017383,0.760741,0.010435,-0.209134,0.262603,0.385366
1247,695103850,-0.648637,-0.018219,0.760840,0.010408,0.242077,0.608534,0.118494
1248,695137184,-0.649621,-0.017824,0.760004,0.010782,0.254385,0.270367,-0.175322
1249,695170518,-0.650292,-0.016502,0.759444,0.011829,0.149852,-0.270229,-0.021876
1250,695203852,-0.650153,-0.015543,0.759573,0.012533,-0.259338,-0.535269,0.164217
1251,695237186,-0.649602,-0.016103,0.760038,0.012144,-0.567601,-0.063449,0.273274
1252,695270520,-0.648545,-0.017383,0.760923,0.011482,-0.260823,0.531370,0.246695
1253,695303854,-0.647572,-0.017972,0.761732,0.011796,0.069233,0.766086,0.352337
1254,695337188,-0.647418,-0.017569,0.761866,0.012203,0.128132,0.571246,-0.097913
1255,695370522,-0.647399,-0.016247,0.761892,0.013377,0.136931,0.011161,-0.067559
1256,695403856,-0.647318,-0.015178,0.761963,0.014465,-0.046142,-0.329369,0.069492
1257,695437190,-0.646621,-0.015015,0.762555,0.014637,-0.092644,-0.413818,0.179595
1258,695470524,-0.645271,-0.015584,0.763707,0.013490,-0.038256,-0.505586,0.171766
1259,695503858,-0.644076,-0.016275,0.764715,0.012650,0.362462,0.078659,0.134654
1260,695537192,-0.642900,-0.016044,0.765711,0.012492,0.260943,0.063020,0.084515
1261,695570526,-0.641812,-0.015974,0.766636,0.011811,0.084498,0.072550,0.114667
1262,695603860,-0.640721,-0.015468,0.767561,0.011654,-0.109918,0.211132,0.139932
1263,695637194,-0.639784,-0.015265,0.768347,0.011581,-0.244595,0.235583,0.182711
1264,695670528,-0.638815,-0.015588,0.769156,0.010884,-0.213719,-0.109589,0.219306
1265,695703862,-0.637883,-0.016757,0.769931,0.008819,-0.096637,-0.171781,0.282581
1266,695737196,-0.637299,-0.018280,0.770403,0.006511,0.075752,0.126550,0.064180
1267,695770530,-0.636772,-0.019278,0.770823,0.005503,0.238172,0.252666,0.007611
1268,695803864,-0.636326,-0.019612,0.771187,0.004799,0.195686,0.074155,0.040837
1269,695837198,-0.635987,-0.019081,0.771480,0.004792,0.104549,0.093729,0.141803
1270,695870532,-0.635607,-0.017852,0.771816,0.005778,-0.024618,0.043511,0.152822
1271,695903866,-0.635200,-0.016909,0.772168,0.006299,-0.223488,0.040175,0.307205
1272,695937200,-0.635116,-0.016277,0.772246,0.006797,-0.202165,0.493778,0.260280
1273,695970534,-0.635166,-0.015764,0.772211,0.007253,-0.286668,0.522176,0.339374
1274,696003868,-0.635262,-0.014588,0.772144,0.008441,0.035456,0.400715,0.232081
1275,696037202,-0.635601,-0.012583,0.771873,0.010650,-0.043747,0.139001,0.214941
1276,696070536,-0.635958,-0.010811,0.771578,0.012501,-0.119362,0.052591,0.229487
1277,696103870,-0.636024,-0.009835,0.771518,0.013590,-0.197141,-0.289801,0.334545
1278,696137204,-0.636280,-0.009641,0.771297,0.014267,0.010152,-0.093663,0.093425
1279,696170538,-0.636698,-0.009798,0.770937,0.014985,0.244001,-0.227871,0.166797
1280,696203872,-0.637134,-0.009936,0.770570,0.015226,0.478994,-0.542855,0.195199
1281,696237206,-0.637447,-0.009473,0.770298,0.016175,0.548091,-0.512170,0.097177
1282,696270540,-0.637904,-0.008784,0.769901,0.017386,0.330225,-0.506834,-0.230007
1283,696303874,-0.638292,-0.008287,0.769570,0.017980,0.400685,-0.604217,-0.590381
1284,696337208,-0.639093,-0.007542,0.768907,0.018247,0.199842,-0.529576,-1.078144
1285,696370542,-0.639838,-0.006018,0.768287,0.018817,0.617421,-0.467703,-1.145817
1286,696403876,-0.638921,-0.003293,0.768999,0.021379,0.755987,-1.030777,0.101385
1287,696437210,-0.636624,-0.003436,0.770981,0.018294,0.002472,-1.525982,1.447559
1288,696470544,-0.634330,-0.006200,0.772962,0.012844,-0.101673,-0.283418,0.618627
1289,696503878,-0.631661,-0.009853,0.775175,0.007651,0.133916,0.247202,0.483515
1290,696537212,-0.629556,-0.011747,0.776879,0.005330,0.044855,1.073107,0.083099
1291,696570546,-0.629313,-0.011755,0.777076,0.005363,-0.754230,1.888683,0.190090
1292,696603880,-0.630725,-0.010584,0.775947,0.005282,-0.710215,1.302806,0.348717
1293,696637214,-0.631620,-0.008577,0.775228,0.007258,-0.210997,-0.099667,0.202340
1294,696670548,-0.632205,-0.008572,0.774743,0.008005,-0.326936,-0.901531,0.103885
1295,696703882,-0.633251,-0.010777,0.773877,0.006258,0.163439,-0.679748,0.082134
1296,696737216,-0.634424,-0.012668,0.772892,0.005544,-0.105336,-0.337932,-0.087168
1297,696770550,-0.635653,-0.014669,0.771851,0.004943,-0.206020,0.179654,0.057857
1298,696803884,-0.635787,-0.017394,0.771693,0.003209,0.397747,0.015494,0.333286
1299,696837218,-0.635240,-0.021058,0.772059,0.000427,0.022074,-0.608434,-0.034220
1300,696870552,-0.635030,-0.025957,0.772075,-0.003504,-0.415074,-0.362652,0.197649
1301,696903886,-0.635975,-0.030873,0.771089,-0.007253,-0.773643,0.576508,0.259158
1302,696937220,-0.636465,-0.033625,0.770566,-0.007604,-0.380588,0.702829,0.516206
1303,696970554,-0.636199,-0.035157,0.770721,-0.007189,-0.080819,0.362447,0.053511
1304,697003888,-0.637254,-0.036268,0.769800,-0.006881,-0.370557,0.187033,0.217906
1305,697037222,-0.639169,-0.037776,0.768140,-0.006723,-0.256456,-0.129728,0.139001
1306,697070556,-0.640874,-0.040452,0.766581,-0.006795,-0.164513,-0.183487,0.109506
1307,697103890,-0.642365,-0.043244,0.765177,-0.006943,0.019558,0.108453,0.279802
1308,697137224,-0.647374,-0.046446,0.760775,-0.004437,0.399520,-0.049732,1.191093
1309,697170558,-0.653238,-0.048528,0.755627,-0.000071,-0.824194,0.421843,-0.167925
1310,697203892,-0.658329,-0.053481,0.750859,0.001463,-1.048143,0.716049,0.468390
1311,697237226,-0.662350,-0.059770,0.746839,0.000567,0.657806,0.027732,-0.651919
1312,697270560,-0.664320,-0.064279,0.744712,0.000550,0.805660,-0.248569,0.157519
1313,697303894,-0.666369,-0.065972,0.742728,0.001926,0.714123,-0.179617,0.005260
1314,697337228,-0.668840,-0.066075,0.740484,0.004320,0.168531,0.343608,0.209284
1315,697370562,-0.671769,-0.064724,0.737918,0.007861,-0.198176,0.708048,0.132540
1316,697403896,-0.674959,-0.063184,0.735085,0.011615,-0.217838,0.451353,0.317048
1317,697437230,-0.678015,-0.061665,0.732331,0.015249,0.224450,0.114472,0.126963
1318,697470564,-0.680948,-0.058837,0.729734,0.019594,0.263637,-0.346220,0.053842
1319,697503898,-0.683707,-0.055980,0.727248,0.023870,0.357230,-0.324231,0.255515
1320,697537232,-0.686160,-0.053882,0.724977,0.027170,0.677002,-0.454068,0.318917
1321,697570566,-0.688143,-0.051420,0.723131,0.030746,0.873123,-0.460377,0.159134
1322,697603900,-0.689450,-0.047977,0.721933,0.034880,0.723194,-0.552135,0.378801
1323,697637234,-0.690301,-0.045005,0.721178,0.037532,0.416960,-0.077581,0.328748
1324,697670568,-0.691402,-0.041319,0.720194,0.040302,0.197905,0.459615,0.158346
1325,697703902,-0.692247,-0.036964,0.719425,0.043612,-0.320298,0.162490,0.094455
1326,697737236,-0.693177,-0.035600,0.718569,0.044108,-0.208174,0.358214,0.235161
1327,697770570,-0.694247,-0.035212,0.717615,0.043106,-0.330238,0.853490,-0.087225
1328,697803904,-0.693197,-0.034178,0.718676,0.043160,-0.243810,0.045638,-0.532413
1329,697837238,-0.691122,-0.033640,0.720600,0.044749,0.358570,-0.054225,-0.202727
1330,697870572,-0.688696,-0.034999,0.722846,0.044877,0.076664,-0.062077,-0.139067
1331,697903906,-0.684985,-0.037985,0.726297,0.043519,0.384801,-0.457661,-0.193573
1332,697937240,-0.681475,-0.041471,0.729538,0.041170,0.417518,-0.542171,-0.160239
1333,697970574,-0.677710,-0.043497,0.733015,0.039420,0.072263,0.168128,-0.197893
1334,698003908,-0.673758,-0.042887,0.736630,0.040418,0.553768,0.278236,-0.058980
1335,698037242,-0.670671,-0.040303,0.739501,0.041979,0.043329,-0.011390,-0.136005
1336,698070576,-0.667922,-0.036876,0.742051,0.043921,-0.323937,0.062173,-0.197912
1337,698103910,-0.665658,-0.034305,0.744191,0.044166,-0.168229,0.352312,0.309226
1338,698137244,-0.665136,-0.031137,0.744746,0.045010,-0.350218,1.714716,1.115069
1339,698170578,-0.664403,-0.028800,0.745495,0.044988,-0.622584,0.617352,0.391355
1340,698203912,-0.662696,-0.028564,0.747173,0.042407,-0.222382,0.337216,0.577772
1341,698237246,-0.661623,-0.028947,0.748346,0.037988,-0.101775,-0.352254,-0.027372
1342,698270580,-0.661174,-0.030235,0.748976,0.031903,0.387765,0.106983,-0.033189
1343,698303914,-0.660301,-0.031243,0.749930,0.026050,0.650789,0.010167,-0.272659
1344,698337248,-0.659961,-0.031546,0.750372,0.021131,0.656289,0.489033,-0.292216
1345,698370582,-0.660036,-0.030443,0.750444,0.017519,-0.552564,0.069936,0.406412
1346,698403916,-0.659685,-0.029627,0.750878,0.012963,-0.457026,-0.068225,0.527061
1347,698437250,-0.659434,-0.028554,0.751188,0.009834,-0.301543,-0.111311,0.129980
1348,698470584,-0.659128,-0.028729,0.751491,0.005899,-0.232112,0.115237,0.348112
1349,698503918,-0.658512,-0.030061,0.752001,0.000439,-0.129798,-0.157274,-0.019856
1350,698537252,-0.657719,-0.032463,0.752570,-0.006147,-0.340649,-0.047985,0.584375
1351,698570586,-0.656031,-0.035032,0.753842,-0.012896,-0.155322,-0.193738,0.385158
1352,698603920,-0.655905,-0.036191,0.753814,-0.017050,0.467267,0.304790,-0.289191
1353,698637254,-0.656153,-0.035561,0.753589,-0.018705,0.544244,-0.317347,-0.105657
1354,698670588,-0.656021,-0.034997,0.753668,-0.021077,0.214939,-0.019064,0.173321
1355,698703922,-0.655131,-0.034119,0.754426,-0.023000,-0.722245,0.317454,0.177167
1356,698737256,-0.653681,-0.033033,0.755693,-0.024208,-1.099243,0.385344,0.403917
1357,698770590,-0.653245,-0.032743,0.756049,-0.025233,-0.667547,0.384356,0.112726
1358,698803924,-0.653945,-0.031913,0.755440,-0.026378,-0.723597,0.311756,0.184145
1359,698837258,-0.654659,-0.032048,0.754757,-0.027987,-0.840141,0.184328,0.454826
1360,698870592,-0.655626,-0.033841,0.753708,-0.031318,-0.590840,0.294935,0.130056
1361,698903926,-0.656296,-0.035721,0.752924,-0.033951,-0.260224,-0.109199,0.035764
1362,698937260,-0.657042,-0.037185,0.752093,-0.036277,-0.062180,-0.502312,0.209450
1363,698970594,-0.657772,-0.038393,0.751289,-0.038384,0.429055,-0.158633,-0.075354
1364,699003928,-0.658219,-0.039402,0.750772,-0.039805,0.260204,-0.230771,0.072461
1365,699037262,-0.658175,-0.040020,0.750732,-0.040664,-0.039327,-0.376215,0.258670
1366,699070596,-0.658510,-0.040971,0.750330,-0.041687,-0.036400,0.106573,0.122039
1367,699103930,-0.659031,-0.041548,0.749864,-0.041267,0.194841,-0.296531,0.096397
1368,699137264,-0.659833,-0.041701,0.749184,-0.040662,0.528913,-0.431682,-0.020210
1369,699170598,-0.659882,-0.041576,0.749216,-0.039368,0.108057,-0.619401,0.178941
1370,699203932,-0.659661,-0.041740,0.749455,-0.038348,-0.211853,-0.393969,0.254808
1371,699237266,-0.659518,-0.041636,0.749678,-0.036507,-0.078930,-0.076910,0.079596
1372,699270600,-0.659437,-0.041144,0.749906,-0.033763,-0.498242,0.152715,0.179327
1373,699303934,-0.659555,-0.040958,0.749933,-0.030942,-0.952038,0.351329,0.269011
1374,699337268,-0.660031,-0.041104,0.749633,-0.027711,-0.736187,0.288024,0.131650
1375,699370602,-0.661037,-0.041504,0.748857,-0.023853,-0.219590,-0.499572,0.102482
1376,699403936,-0.661758,-0.041990,0.748310,-0.019838,0.237614,-0.891445,-0.020014
1377,699437270,-0.661932,-0.042719,0.748204,-0.016114,-0.298579,-0.684985,0.382772
1378,699470604,-0.661576,-0.044411,0.748478,-0.013153,-0.938629,-0.214599,0.286276
1379,699503938,-0.661753,-0.045740,0.748304,-0.008958,-0.344261,0.359828,0.197811
1380,699537272,-0.662898,-0.045736,0.747339,-0.002728,0.180592,0.041631,-0.098523
1381,699570606,-0.664180,-0.045739,0.746197,0.003327,0.007150,-0.001186,-0.002749
1382,699603940,-0.665347,-0.046944,0.745042,0.008408,-0.622415,-0.014770,0.357693
1383,699637274,-0.666137,-0.049303,0.744124,0.012561,-0.647449,-0.319667,0.406004
1384,699670608,-0.667556,-0.052186,0.742597,0.015640,0.254201,0.524155,0.283478
1385,699703942,-0.669736,-0.053643,0.740403,0.020698,1.230502,1.051075,0.328931
1386,699737276,-0.672146,-0.052819,0.738047,0.027666,0.924020,0.102636,-0.189866
1387,699770610,-0.674005,-0.052197,0.736145,0.033637,0.736897,-0.637778,-0.070543
1388,699803944,-0.675996,-0.050753,0.734080,0.040343,0.994564,-0.524625,0.326137
1389,699837278,-0.677736,-0.048862,0.732238,0.046489,0.254572,-0.598940,0.058712
1390,699870612,-0.678582,-0.050145,0.731238,0.048480,0.163534,0.350843,0.419355
1391,699903946,-0.678834,-0.051433,0.730765,0.050687,0.314038,0.725314,0.565720
1392,699937280,-0.678936,-0.051194,0.730413,0.054489,0.553086,0.476055,0.220375
1393,699970614,-0.678997,-0.048801,0.730142,0.059342,-0.017521,0.053087,-0.213350
1394,700003948,-0.678504,-0.047582,0.730434,0.062305,-0.639809,0.155141,-0.034121
1395,700037282,-0.678193,-0.048595,0.730609,0.062856,-0.143731,0.847302,0.169345
1396,700070616,-0.677599,-0.049228,0.731002,0.064196,-0.182866,0.410431,-0.160502
1397,700103950,-0.676702,-0.050087,0.731697,0.065060,0.187491,0.440459,0.131940
1398,700137284,-0.675972,-0.050835,0.732236,0.066001,0.111026,0.331556,0.033354
1399,700170618,-0.675716,-0.051681,0.732355,0.066643,-0.238437,0.367356,-0.071145
1400,700203952,-0.675511,-0.052400,0.732434,0.067291,-0.182096,0.428852,0.186579
1401,700237286,-0.675482,-0.051514,0.732370,0.068936,0.209252,0.545262,-0.052571
1402,700270620,-0.675672,-0.047632,0.732076,0.072872,0.173553,0.255013,0.083331
1403,700303954,-0.676118,-0.042806,0.731562,0.076789,-0.398541,-0.289893,-0.072795
1404,700337288,-0.677049,-0.040509,0.730762,0.077448,-0.094082,0.203588,0.014572
1405,700370622,-0.678031,-0.038282,0.729953,0.077619,-0.246725,0.179359,-0.181019
1406,700403956,-0.678515,-0.035642,0.729614,0.077834,0.105317,0.166741,-0.110007
1407,700437290,-0.678877,-0.032111,0.729413,0.078105,0.099508,0.262444,-0.120978
1408,700470624,-0.679054,-0.027871,0.729406,0.078251,-0.378356,0.211929,0.039789
1409,700503958,-0.678835,-0.026467,0.729881,0.076190,0.429476,0.439568,0.301075
1410,700537292,-0.678662,-0.029364,0.730309,0.072475,1.057494,1.383221,0.172450
1411,700570626,-0.678316,-0.030436,0.730844,0.069822,0.000543,0.374069,0.380543
1412,700603960,-0.678151,-0.029335,0.731310,0.066960,-0.708273,-0.161309,0.229089
1413,700637294,-0.678159,-0.028290,0.731678,0.063207,0.157703,0.190709,0.163553
1414,700670628,-0.677982,-0.028579,0.732233,0.058370,0.624356,0.495718,0.234700
1415,700703962,-0.677568,-0.030324,0.733038,0.051826,0.429143,0.375809,0.030084
1416,700737296,-0.676547,-0.031799,0.734371,0.044946,0.350883,-0.053318,0.080542
1417,700770630,-0.675797,-0.031440,0.735393,0.039431,0.325037,-0.063525,-0.030115
1418,700803964,-0.674918,-0.030121,0.736495,0.034665,0.743549,0.541992,0.100260
1419,700837298,-0.673861,-0.027546,0.737727,0.030976,-0.054811,-0.065165,0.075341
1420,700870632,-0.672701,-0.026900,0.739031,0.025104,-0.169838,-0.282390,0.180382
1421,700903966,-0.671398,-0.026312,0.740406,0.019474,-0.059523,-0.105411,0.194250
1422,700937300,-0.670119,-0.025443,0.741716,0.014122,-0.343811,-0.156587,0.083331
1423,700970634,-0.669080,-0.024939,0.742756,0.008476,-0.410407,0.274013,0.126583
1424,701003968,-0.667811,-0.024967,0.743939,0.002937,-0.785959,-0.228804,0.292736
1425,701037302,-0.666660,-0.026268,0.744922,-0.003690,-0.272034,-0.429325,0.193370
1426,701070636,-0.665690,-0.028165,0.745653,-0.010611,-0.196879,-0.151218,0.151690
1427,701103970,-0.664455,-0.029175,0.746622,-0.015875,-0.079899,-0.434234,0.283876
1428,701137304,-0.663028,-0.030113,0.747728,-0.020919,0.109864,-0.381231,0.042237
1429,701170638,-0.661509,-0.029974,0.748964,-0.024639,0.012752,-0.183621,0.088175
1430,701203972,-0.659783,-0.028834,0.750431,-0.027494,-0.310874,-0.260915,0.234092
1431,701237306,-0.657876,-0.027618,0.752041,-0.030311,-0.358122,-0.337204,0.217067
1432,701270640,-0.656035,-0.026888,0.753566,-0.032881,-0.244573,0.101179,0.236753
1433,701303974,-0.654699,-0.026437,0.754647,-0.035014,-0.237977,0.305131,0.087048
1434,701337308,-0.653599,-0.026196,0.755508,-0.037124,-0.122918,0.416318,0.133847
1435,701370642,-0.652731,-0.025400,0.756213,-0.038557,-0.471488,0.302823,0.173409
1436,701403976,-0.652248,-0.024490,0.756605,-0.039614,-0.568216,0.096643,0.383436
1437,701437310,-0.651964,-0.024331,0.756806,-0.040533,-0.064070,0.028000,0.072990
1438,701470644,-0.651897,-0.023650,0.756859,-0.041025,-0.150436,0.077018,0.186352
1439,701503978,-0.651930,-0.022746,0.756841,-0.041338,-0.283862,-0.099295,0.254557
1440,701537312,-0.651818,-0.022234,0.756941,-0.041557,0.075385,-0.126188,0.082668
1441,701570646,-0.651595,-0.021535,0.757170,-0.041257,0.127184,-0.287395,0.211606
1442,701603980,-0.651475,-0.021035,0.757293,-0.041151,0.271015,-0.274890,0.066697
1443,701637314,-0.651358,-0.020360,0.757442,-0.040589,0.015827,-0.202323,0.145722
1444,701670648,-0.651259,-0.019622,0.757597,-0.039645,-0.170746,0.002634,0.203316
1445,701703982,-0.651035,-0.019081,0.757854,-0.038657,-0.097224,0.015413,0.136198
1446,701737316,-0.650822,-0.018576,0.758112,-0.037412,-0.173152,0.028258,0.164917
1447,701770650,-0.650856,-0.018127,0.758159,-0.036075,-0.256123,0.057349,0.205112
1448,701803984,-0.650782,-0.017837,0.758295,-0.034664,-0.082571,-0.123586,0.149355
1449,701837318,-0.650456,-0.017520,0.758663,-0.032848,0.008721,-0.159417,0.150298
1450,701870652,-0.650302,-0.017054,0.758898,-0.030633,-0.162079,-0.144668,0.114346
1451,701903986,-0.649890,-0.016946,0.759327,-0.028766,-0.090858,-0.165785,0.136935
1452,701937320,-0.649592,-0.016530,0.759679,-0.026319,-0.252519,-0.026792,0.229150
1453,701970654,-0.649501,-0.015935,0.759872,-0.023150,-0.514180,0.178859,0.218491
1454,702003988,-0.649799,-0.015708,0.759711,-0.020034,-0.496947,0.194328,0.130489
1455,702037322,-0.649738,-0.015799,0.759844,-0.016649,-0.533732,-0.216634,0.140350
1456,702070656,-0.650004,-0.016178,0.759682,-0.012792,-0.619316,-0.553667,0.262453
1457,702103990,-0.650791,-0.016906,0.759050,-0.008694,-0.189160,-0.122828,0.191268
1458,702137324,-0.651974,-0.017417,0.758065,-0.003459,-0.024744,0.100797,0.195086
1459,702170658,-0.653557,-0.017523,0.756703,0.002143,-0.194796,-0.095113,0.065085
1460,702203992,-0.655160,-0.017631,0.755273,0.008088,-0.322495,-0.106900,0.177180
1461,702237326,-0.656639,-0.017461,0.753878,0.015361,-0.217920,-0.192201,0.104074
1462,702270660,-0.658609,-0.018155,0.751972,0.022155,-0.126979,-0.123589,0.230123
1463,702303994,-0.660437,-0.019879,0.750112,0.028417,0.105026,-0.211395,0.150986
1464,702337328,-0.661929,-0.021932,0.748517,0.033753,0.490879,-0.126486,0.335571
1465,702370662,-0.663289,-0.023917,0.746993,0.039051,0.411038,-0.046164,0.429701
1466,702403996,-0.664335,-0.025355,0.745697,0.044719,0.571579,-0.109423,0.435335
1467,702437330,-0.665268,-0.025851,0.744471,0.050608,0.409497,0.032364,0.141224
1468,702470664,-0.666137,-0.025907,0.743277,0.056367,0.312603,-0.001148,-0.020851
1469,702503998,-0.667526,-0.026824,0.741633,0.060965,0.192837,0.072753,-0.122081
1470,702537332,-0.669271,-0.028208,0.739700,0.064594,0.133091,0.220396,-0.247030
1471,702570666,-0.671094,-0.028976,0.737707,0.068031,0.372036,0.013133,0.155531
1472,702604000,-0.672561,-0.029341,0.736083,0.070930,0.370683,0.196384,0.453247
1473,702637334,-0.673549,-0.030442,0.734963,0.072681,0.457821,0.505637,0.401124
1474,702670668,-0.674649,-0.031268,0.733723,0.074629,0.154362,0.555933,0.198494
1475,702704002,-0.676103,-0.032849,0.732231,0.075448,0.048255,0.417935,0.053975
1476,702737336,-0.677586,-0.034206,0.730717,0.076215,0.102686,0.448146,-0.040444
