Left_Wrist_Acc_X,Left_Wrist_Acc_Y,Left_Wrist_Acc_Z,Right_Wrist_Acc_X,Right_Wrist_Acc_Y,Right_Wrist_Acc_Z,Upper_Leg_Acc_X,Upper_Leg_Acc_Y,Upper_Leg_Acc_Z,Activity
0.528124,-0.035269,0.264579,-0.17585,-0.07016,-0.316666,0.13807,0.211051,0.228644,1
0.101221,-0.175308,0.569093,0.028847,-0.222635,-0.336497,0.505776,-0.015708,0.453297,1
0.167239,0.090605,0.02743,0.048489,-0.350133,-0.669703,0.979427,0.030479,-0.03939,1
0.435999,-0.004373,-0.443081,-0.175718,-0.377605,-0.965586,0.613988,0.543244,-0.009383,1
0.374696,0.182686,-1.22932,-0.038797,-0.415769,-1.361557,0.089435,0.879889,0.144254,1
0.554916,-0.030112,-1.688161,0.224412,-0.182959,-1.249399,0.697541,1.761737,-0.013121,1
0.199977,-0.129738,-1.837984,0.06526,0.036803,-1.506742,0.2921,1.045408,-0.105247,1
0.125202,-0.571603,-1.706718,0.358229,0.323707,-1.300046,-0.08184,0.728663,-0.723297,1
-0.008756,-0.994539,-1.629649,0.20284,0.240019,-1.554824,-0.526342,0.484174,-0.635818,1
-0.20544,-0.682108,-2.250941,-0.048265,0.02485,-1.844542,-0.780045,0.111525,-0.735544,1
-0.179125,-0.895981,-1.923944,-0.227826,0.430862,-1.420754,-0.420186,0.105347,-0.292582,1
-0.325396,0.083699,-2.174988,0.002179,-0.227225,-1.300413,0.491921,0.489963,-1.102421,1
-0.233197,0.059115,-2.032621,0.045102,0.418964,-1.005713,1.168591,0.921084,-1.460373,1
-0.094285,-0.30068,-1.525879,0.15069,0.470041,-1.023228,1.121045,0.167842,-1.264636,1
-0.014678,-0.166011,-1.437461,-0.008136,0.023499,-1.525424,0.514484,-0.451447,-0.671962,1
0.199658,-0.236009,-1.486208,0.441591,0.522911,-2.512635,-1.39664,-1.850715,-0.092393,1
0.059185,-0.39344,-1.431491,-0.177716,0.319297,-2.481432,-1.487497,-1.101769,-0.048738,1
0.787809,0.532123,-0.934299,0.29722,0.158371,-1.467672,-0.197866,-0.90642,0.083063,1
0.540966,0.17727,-0.201499,-0.97267,0.678453,-2.566844,0.679433,-1.444857,-0.3286,1
-0.155181,-1.539785,-0.563772,-0.920429,0.154016,-1.152522,0.382058,-1.860745,-0.113234,1
-0.502441,-1.307437,0.199332,-0.562934,0.920302,-0.757799,1.644427,-1.556817,1.324601,1
-1.339959,-1.200281,0.099368,-1.168576,0.918774,1.531093,0.225509,-2.496594,2.032099,1
-2.011751,-0.66158,0.918986,0.142659,1.304934,1.924664,-1.504086,-1.558004,1.038,1
-1.44824,-0.263093,0.681233,-1.06836,0.806094,3.470011,-0.827482,-0.818105,0.005295,1
-1.103464,0.200237,-0.004202,-0.533256,0.911338,2.508486,-0.080818,0.820237,-0.227183,1
-0.821734,0.855035,0.746995,-0.316228,0.963272,1.582325,0.149135,-0.159569,-0.132873,1
-0.309278,1.607653,1.362043,-0.075947,0.910234,1.743043,1.641438,-0.43156,-0.409373,1
-0.807169,0.573145,1.307838,1.04418,1.161282,1.834473,1.024598,0.258729,-0.453024,1
-0.572048,0.669507,3.48014,0.768035,0.651004,2.145177,-0.928862,-0.859245,1.539221,1
-0.360397,0.480408,3.3498,0.782526,-0.243381,2.574884,-0.52444,-0.261062,0.771024,1
0.236334,-0.496558,3.104295,0.898508,0.1423,2.250636,0.761295,-0.317578,1.009829,1
-0.007754,-0.166392,3.494466,0.672968,-0.504821,2.334791,-0.186522,-1.146584,2.341679,1
-0.953546,-0.848617,1.928991,0.47714,-0.395721,1.765759,-1.258796,-0.0226,0.626811,1
-0.998856,-0.126355,1.929354,0.460593,-0.227369,1.379686,-0.22344,-0.135566,-0.096357,1
-0.200773,-0.180498,0.858557,-0.260148,-0.770088,1.144142,-0.019397,-0.204302,0.535898,1
-0.540155,-0.002375,0.11,-0.091587,-0.373785,0.833596,0.266257,-0.021674,0.550595,1
-0.439054,-0.460554,-0.216548,0.119538,0.160257,0.265675,0.642743,-0.002777,-0.565881,1
-0.771222,-0.497352,0.803251,0.194126,0.190885,1.12453,-0.31702,-0.006589,-0.143041,1
-0.372496,-0.07525,1.037752,-0.06572,0.159531,0.733461,0.040955,-0.271936,0.557618,1
-0.013443,0.24822,1.925056,0.362417,-0.13249,1.026456,0.612362,-0.203742,0.120214,1
-0.264511,0.071198,0.888296,0.360968,-0.551042,0.696753,0.55731,-0.285499,-0.128584,1
0.038296,-1.139031,-0.391418,-0.285715,-0.83513,0.642056,0.55125,-0.229235,0.185341,1
-0.318267,-2.899155,-2.309525,-0.306667,1.404972,-2.080091,0.207333,-0.15387,0.184592,1
0.096625,-0.615752,-0.456388,0.287176,-0.702014,1.722419,-0.630388,0.167195,-0.205664,1
-1.17144,2.931023,1.891647,-0.209227,-1.146878,2.12641,-0.675008,-0.112425,0.376051,1
0.19892,2.599247,2.378086,-0.25574,-0.721718,1.074677,-0.448763,-0.455954,0.466049,1
-0.352946,2.228221,1.951236,0.441075,-0.757052,0.83901,0.285536,-0.349599,-0.107239,1
0.577189,0.786855,0.629874,0.347745,-0.430943,-0.04893,0.775019,-0.527334,0.260226,1
0.492326,-0.078976,1.185678,0.181298,-0.063986,0.010645,0.83024,-0.882521,0.48477,1
-0.699307,0.803836,0.953798,-0.183699,0.121426,0.393709,0.868542,-0.478251,-0.018229,1
-1.074569,0.373709,0.266303,-0.188953,0.086578,0.044775,0.979028,-0.448481,0.10213,1
-0.909371,-0.822772,-0.38665,-0.079513,0.629039,-0.28999,-0.223789,-0.256196,0.072968,1
-0.523601,-1.360771,-0.943455,-0.133242,0.893914,-0.018668,-0.019591,-0.121653,0.244763,1
-0.015452,-1.742599,-1.417648,0.009384,0.948073,-0.078639,0.28846,-0.218406,0.195496,1
0.290864,-1.317469,-1.464855,-0.104776,0.900954,0.065574,0.105578,-0.076493,-0.074707,1
0.171953,-0.803544,-0.950674,-0.134481,0.655005,-0.057748,0.559609,-0.124234,0.104946,1
0.35995,-0.55253,-0.978484,-0.401861,0.59013,-0.247692,0.651526,-0.405529,0.25243,1
0.62078,-1.019794,-0.835166,-0.540287,0.405536,-0.228621,-0.046204,-0.432314,0.092974,1
0.433249,-0.539189,-0.111204,-0.42092,0.01962,-0.193472,-0.013599,-0.506306,0.055582,1
0.156816,0.113924,0.019798,-0.489183,-0.18787,0.041387,0.593287,-0.714937,0.032119,1
0.660615,0.921407,0.754683,-0.857031,-0.842525,0.794426,0.249932,-0.686779,-0.002321,1
0.837098,0.867659,1.987575,-0.636939,-0.960661,1.388577,0.065071,-0.558388,0.13553,1
0.167164,1.58816,2.407454,0.04922,-0.355859,1.192599,0.668332,-0.245923,0.17327,1
-0.639733,1.086438,3.129375,0.132515,0.289848,1.95563,0.238581,-0.379614,0.536791,1
-0.317794,-0.185629,3.436771,0.476819,0.789691,2.255106,0.096372,-0.139658,1.703335,1
-0.383847,-1.248005,3.444337,1.142504,1.132212,2.805309,-0.779077,-0.39177,2.995085,1
-0.506412,-0.336614,3.688253,0.776988,0.6313,3.291052,-0.118733,-0.489079,2.799469,1
0.072913,0.567206,4.104544,0.803242,0.180179,3.304653,0.833018,-0.308612,1.252351,1
0.620293,-0.109447,2.914532,0.967119,0.596648,2.273693,1.687438,-0.097559,0.657897,1
1.38553,-0.702133,1.258009,0.047869,-0.081835,1.551465,0.54207,-0.064013,0.400949,1
1.327983,-1.13148,0.621593,0.361067,-0.51586,1.293891,0.38257,-0.064287,-0.059448,1
0.681857,-0.872577,-0.347126,-0.479723,0.58941,0.068372,0.874148,-0.212996,-0.935017,1
0.837364,-0.681551,-0.691318,-0.553675,-0.648451,0.431219,-0.942411,-0.07367,-0.614464,1
0.25871,-1.152643,-0.882315,-0.492142,-0.057426,0.118481,-0.382862,-0.186979,-0.054309,1
-0.414439,-0.794716,-0.799866,0.419991,1.00589,-0.341736,0.315355,-0.179623,-0.565145,1
-0.608429,-1.053484,-0.552464,0.592423,-0.12591,0.175623,0.044853,0.234691,-0.172651,1
-1.067454,-0.678316,0.184011,0.444719,-0.319755,1.129657,0.846438,-0.395152,0.413196,1
-1.519654,-0.253674,0.585221,-0.630489,0.261643,0.899371,0.762755,-0.449798,0.417792,1
-1.471185,0.29876,1.017484,-0.372483,-0.708202,1.730095,0.045978,-0.676206,0.509948,1
-1.765439,0.280952,1.338408,-0.60596,0.254414,2.467366,-0.226404,-0.765516,0.409697,1
-2.034134,1.97315,1.749496,-1.233324,0.565764,1.311354,-0.723898,-0.336258,0.665673,1
-1.710824,0.935863,0.983961,0.034299,0.522023,0.994019,-0.594733,-1.572231,0.114422,1
-2.266469,-0.212935,1.134967,1.299524,1.158965,0.858006,0.497013,-0.712036,-0.088865,1
-2.033545,0.589583,0.977032,-0.019725,-0.201372,-0.405342,0.094059,-0.383521,0.098734,1
-2.513784,-0.54626,-0.074775,0.053885,0.733868,-0.792518,-0.823454,-1.413103,0.491172,1
-2.495164,-1.225622,-0.751753,0.768682,1.321875,-1.230614,-0.405239,-1.682221,-0.629711,1
-2.036975,-1.630226,-2.409255,0.735682,1.304028,-3.08666,-0.734744,0.088689,-0.951912,1
-1.094001,-2.288501,-3.616424,0.919328,0.746342,-4.003615,-1.345591,0.078457,-1.187495,1
0.223668,-2.373186,-3.835474,0.904947,0.017186,-4.270028,-0.699974,0.362065,-0.930455,1
-0.029934,-1.553025,-4.590319,0.990366,-0.50986,-3.794896,-0.006593,1.377863,-2.251733,1
-0.875302,-0.983035,-5.196037,0.549361,-0.969758,-3.197315,0.301774,0.291111,-2.646054,1
-1.090048,-1.086043,-5.532756,0.042688,-1.757104,-2.661143,-0.789833,1.239502,-0.897202,1
-0.104771,-0.716378,-5.47342,-0.01291,-2.387117,-1.9355,-0.584757,1.028316,-0.255097,1
1.161309,3.244161,0.036292,0.457883,0.390839,0.146711,-0.043645,0.090744,0.117548,2
0.7938,3.061098,0.451522,0.511402,0.09594,0.281717,0.176544,-0.040697,0.126331,2
0.442727,2.43328,0.672164,0.330463,-0.108635,0.404724,0.155738,-0.090829,0.14502,2
0.029658,1.874312,0.827925,0.099152,-0.048785,0.476007,0.086483,-0.231514,0.104495,2
-0.367537,1.471549,1.013408,-0.060487,-0.010669,0.369592,0.079862,-0.170201,0.145151,2
-0.298591,0.994886,0.735955,-0.076882,-0.062283,0.133718,0.086691,-0.127869,0.128971,2
-0.158862,0.688446,0.731323,0.035891,-0.261706,0.004467,0.08208,0.035469,0.128782,2
-0.196111,0.22416,0.651834,0.083669,-0.404213,-0.083143,0.003998,0.162267,0.115784,2
-0.313387,-0.168369,0.447319,0.085589,-0.403073,-0.072425,0.037695,0.056056,0.113456,2
-0.666844,-0.725355,0.143604,0.063425,-0.248083,-0.060966,0.023643,0.0208,0.115244,2
-0.657166,-1.071361,-0.223462,0.025704,-0.119781,0.04326,-0.048376,0.170894,0.156767,2
-0.730461,-1.145368,-0.346824,-0.003293,-0.065202,0.162084,-0.022388,0.19745,0.103518,2
-0.752429,-1.426312,-0.453354,-0.086109,-0.157304,0.182545,-0.219114,0.168145,0.145935,2
-0.571618,-1.490864,-0.541949,-0.161311,-0.196516,0.108638,-0.306962,0.144267,0.122399,2
-0.462853,-1.511526,-0.268975,-0.257282,-0.178191,0.082948,-0.270745,-0.141202,0.10356,2
-0.580546,-1.645007,-0.167668,-0.274677,-0.072945,-0.196287,-0.115515,-0.200523,-0.027435,2
-0.445654,-1.743225,-0.17055,-0.148034,0.149035,-0.189429,0.00974,0.12416,0.160308,2
-0.738579,-1.691529,0.001485,0.018232,0.294298,0.004179,-0.118676,0.310823,0.302546,2
-0.812661,-1.631181,-0.42162,0.144795,0.426448,0.004648,-0.023641,0.205529,0.185134,2
-1.010985,-1.51062,-0.41435,0.299583,0.633092,0.078406,0.019391,-0.014965,0.133218,2
-1.244313,-1.256819,-0.474514,0.320867,0.413686,0.074686,-0.271211,-0.436097,0.217234,2
-1.258075,-1.019257,-0.54788,0.280553,0.114518,0.086645,-0.205927,-0.466553,0.021201,2
-1.227132,-0.666307,-0.436488,0.110283,-0.06199,-0.076151,-0.184416,-0.307221,-0.006896,2
-0.819311,-0.271051,-0.250142,-0.040951,-0.209831,-0.211519,-0.191572,0.390877,0.127226,2
-0.427482,0.328583,0.331735,-0.215692,-0.356726,0.029286,0.074216,0.542811,0.054162,2
-0.001703,0.916253,1.021629,-0.343251,-0.439708,0.457038,-0.114105,0.44451,0.142928,2
0.380512,1.391176,1.197022,-0.280617,-0.253753,0.504793,-0.267157,0.602416,0.280999,2
0.578784,1.892761,1.338105,-0.252456,-0.409368,0.613956,-0.578571,0.410211,0.246832,2
0.613906,2.152604,1.124235,-0.034494,-0.604372,0.700644,-0.479863,0.263913,0.212378,2
0.681452,2.404782,0.288134,0.08382,-0.669908,0.112619,0.05685,0.143939,0.032619,2
0.878617,2.448596,-0.226108,0.161698,-0.73279,-0.335998,0.242174,0.037926,0.02122,2
0.946715,2.42817,-0.211539,0.246999,-0.736572,-0.277624,-0.042933,-0.033896,-0.072292,2
1.320184,2.485912,-0.045809,0.269108,-0.743635,-0.10431,-0.188566,0.176503,0.196107,2
1.248127,2.16615,0.135934,0.392765,-0.561837,-0.060074,-0.227822,0.278336,0.194911,2
1.187205,1.864944,0.24958,0.389965,-0.328252,-0.055363,-0.092772,0.333727,0.143596,2
1.339086,1.711938,0.354395,0.354098,-0.177445,0.011887,-0.08675,0.47196,0.141602,2
1.386937,1.435453,0.407692,0.404964,-0.171859,0.042908,-0.125743,0.537053,0.093555,2
1.478316,1.059803,0.479001,0.436241,-0.096097,0.124891,-0.292142,0.508693,0.13923,2
1.282853,0.482608,0.673429,0.281366,0.105653,0.169059,-0.17534,0.71375,0.154455,2
-0.706743,-0.254652,0.93856,0.149706,0.268362,0.078817,-0.014178,1.070666,0.048828,2
-1.532328,-0.833202,0.49139,-0.098783,0.473401,0.167325,-0.038455,1.079817,0.001397,2
-1.588966,-0.861669,-0.154217,-0.301462,0.466942,-0.034142,-0.119209,1.121726,-0.084064,2
-1.059693,-0.918225,-0.6173,-0.918096,0.61503,-0.088195,0.410908,1.530617,-0.173057,2
-0.820069,-0.965136,-0.83629,-0.578145,0.960133,-0.919763,1.284758,1.209798,-0.524555,2
-0.846321,-1.295257,-1.051723,-0.656946,0.570997,-0.935524,1.331245,0.101803,-0.766315,2
-1.096302,-1.695235,-0.733669,-0.452347,0.41378,-0.427946,1.45021,-1.36454,1.634356,2
-1.573584,-2.226099,0.369424,-0.142469,0.485358,0.92431,-0.59001,-3.469896,2.787489,2
-1.747288,-2.394899,0.857532,-0.466868,0.822884,1.27396,-1.216442,-2.984086,1.620431,2
-1.586722,-2.262609,0.064903,-0.657184,0.808445,0.488316,-0.406473,-1.700828,-0.409212,2
-1.126537,-1.815355,-0.724705,-0.783241,0.80069,-0.184555,-0.457642,-1.372736,-0.761966,2
-0.483393,-1.169065,-1.235053,-0.748417,0.597189,-0.475219,-0.445413,-0.754505,-1.284625,2
0.285334,-0.746719,-1.07637,-0.560741,0.318936,-0.403615,0.446923,0.256533,-1.512805,2
0.621421,-0.657353,-0.179903,-0.378437,0.100833,0.082204,1.516491,1.341411,-0.236831,2
0.203175,-0.637254,0.585889,-0.446168,-0.055568,0.383506,0.856738,0.189379,0.901342,2
-0.28191,-0.761628,1.257871,-0.391237,-0.083572,0.495848,0.622682,0.354394,1.187717,2
-0.284913,-0.360222,1.056491,-0.381005,-0.173344,0.074061,-0.587834,0.738238,0.340937,2
0.450561,0.026947,0.403701,-0.217974,-0.318437,-0.253663,-0.787376,-0.099457,-0.65657,2
1.044528,0.525027,0.073546,-0.151377,-0.400283,-0.175131,-0.876746,0.118916,-0.196835,2
1.706793,1.071404,0.041804,-0.179007,-0.371464,-0.000195,0.239852,0.406372,0.297777,2
1.781961,1.204957,0.239783,-0.042661,-0.250633,0.15213,0.504169,0.275875,0.316681,2
0.987439,1.198573,0.582559,0.010578,-0.376472,0.344055,0.182637,-0.10744,0.164112,2
0.300717,1.198968,0.554779,-0.010824,-0.512698,0.199632,-0.051194,-0.042708,0.110207,2
0.415821,1.235736,0.167716,-0.084445,-0.36415,-0.115514,-0.154703,0.223148,0.010541,2
0.941306,1.311614,0.0135,-0.076187,-0.146492,-0.209842,-0.020888,0.364357,0.110244,2
0.964822,1.315282,0.283613,0.005755,-0.027213,-0.016234,0.220946,0.285918,0.125657,2
0.739767,1.020195,0.422245,0.079049,0.105555,0.130905,0.255887,-0.191568,0.298955,2
0.400585,0.757338,0.817531,-0.208661,0.287613,0.369054,-0.168361,-0.461069,0.137073,2
0.161964,0.5432,0.768945,-0.476759,0.270258,0.400434,-0.329346,-0.458862,0.129597,2
-0.055613,0.267172,0.545221,-0.579617,0.545138,0.236498,0.140794,-0.345177,0.037882,2
-0.198334,0.238997,0.45422,-0.650645,0.783247,0.102474,0.476616,-0.101396,0.173682,2
-0.644121,-0.137594,-0.085763,-0.530658,0.646403,-0.145237,0.725751,0.028552,-0.128077,2
-0.81296,-0.591249,-0.078943,-0.33801,0.503055,-0.172861,0.805985,0.310309,0.646087,2
0.026788,-1.030665,0.345049,-0.303773,0.364649,0.024108,0.123789,-0.237251,0.580256,2
0.471493,-0.803021,-0.025875,-0.270172,0.578297,-0.335216,-0.451109,-0.271722,-0.076391,2
-0.69879,-1.09026,-0.012504,-0.30043,0.771702,-0.153402,-0.363515,-0.390592,-0.310806,2
-0.956021,-0.997728,-0.180161,-0.332807,0.541202,-0.086603,-0.02866,-0.621939,-0.48496,2
-0.59922,-1.072353,-0.355233,-0.43333,0.530895,-0.03532,0.278586,-0.107289,-0.178537,2
-0.14266,-1.357663,0.177843,-0.459603,0.545671,0.321926,0.216409,0.927323,1.076189,2
-0.045342,-1.34091,0.110679,-0.530954,0.351775,0.39137,0.267764,-0.50146,0.520469,2
-0.065191,-1.261333,-0.06656,-0.560825,0.349993,0.383263,0.028034,-0.045339,0.447257,2
-0.04934,-1.024093,-0.337457,-0.553282,0.274771,0.145284,-0.350326,-0.379427,0.211084,2
-0.070305,-0.778562,-0.339258,-0.514992,0.118,0.001535,-0.206986,-0.342513,-0.284741,2
-0.291419,-0.645727,-0.335664,-0.394765,0.047512,-0.023415,-0.203458,-0.345016,0.132848,2
-0.20109,-0.46787,-0.032684,-0.177156,-0.021462,0.144363,-0.159781,-0.094319,0.437018,2
-0.295841,-0.213691,0.144491,-0.130176,-0.125462,0.246693,-0.037964,-0.29699,0.362573,2
-0.389341,-0.083137,0.13856,-0.002839,-0.117974,0.097955,0.306321,-0.359359,0.112202,2
-0.350124,0.185996,0.441944,-0.012556,-0.039005,0.131964,0.177125,-0.45327,0.071366,2
-0.099724,0.356186,0.557806,-0.04373,0.000932,0.125772,-0.110231,-0.524786,0.093333,2
0.102951,0.311248,0.580359,0.021142,0.322306,0.085841,0.064282,-0.414254,0.026125,2
0.141388,0.366154,0.4665,0.112494,0.20056,0.080416,0.305935,-0.422963,-0.070814,2
0.198855,0.319039,0.409276,0.068674,0.121579,-0.002409,0.436452,-0.327202,-0.089767,2
0.089211,0.268655,0.041949,0.037125,0.144724,-0.269882,0.425453,0.074469,0.029586,2
0.313307,0.328186,0.168889,0.026732,0.015973,-0.523719,-0.10016,-0.027158,-0.127178,2
0.436134,0.092156,-0.230702,-0.174913,0.211032,-0.962983,-0.303848,-0.011826,-0.149096,2
0.346416,0.051914,-0.76414,-0.080276,0.141672,-1.134488,0.346199,-0.123975,0.031126,2
-0.894784,0.03224,-0.613324,0.118503,0.032076,-0.858157,0.614364,0.368192,-0.2914,2
-0.742241,0.42271,0.703905,0.340406,-0.048749,0.409941,-0.580248,0.728365,0.124566,2
-0.094147,0.204841,2.012242,0.47534,0.15087,1.741091,-0.608383,0.870563,0.557525,2
-0.102465,0.347981,1.54683,0.248773,0.502818,1.735276,-0.097414,0.950172,0.573744,2
-0.541678,0.619863,1.008181,0.127045,0.479887,1.177658,-0.175657,0.874992,0.44489,2
-0.650086,0.91218,0.376974,-0.15475,0.029538,0.607282,-0.430404,0.442135,0.25095,2
-0.372238,1.122511,-0.409361,0.005478,-0.644286,0.05892,-0.231545,0.009545,-0.08079,2
1.016602,1.343561,0.930481,0.21982,-1.269475,0.299151,0.230311,0.040827,0.013394,2
0.573188,0.775973,0.358591,0.330613,-0.717387,-0.000142,-0.052349,0.28398,0.093797,2
0.632474,0.991786,0.5114,0.45761,-0.753016,0.374572,-0.262207,0.354918,0.071872,2
0.480505,0.609344,0.618209,0.563158,-0.43156,0.73848,-0.284242,0.305252,0.121692,2
0.528423,0.515224,0.081277,0.42573,0.061922,0.126951,-0.153557,0.060711,0.096866,2
0.663555,0.947092,0.843102,0.267407,-0.302865,0.473693,-0.428665,-0.027215,0.059794,2
1.075013,0.560016,1.745146,0.335984,-0.451943,0.804351,0.020475,0.190658,0.292809,2
1.104182,-0.11969,2.477808,1.15052,0.188028,1.445127,0.292866,0.06947,0.106516,2
0.318619,-0.393361,2.15451,-0.250189,-0.458183,1.775658,-0.099866,0.035112,0.157089,2
-1.908141,-0.019885,1.04443,-0.439062,-0.464535,2.001574,-0.257757,-0.109375,0.185604,2
-0.666866,-0.444591,0.683855,-0.252767,-0.335346,1.25106,-0.181412,-0.154964,0.118476,2
-0.734837,-0.111332,-0.640075,-0.080264,-0.333988,0.590539,-0.166732,-0.142422,0.089419,2
-0.968972,0.796621,-2.261234,-0.633166,-0.29641,-0.92612,-0.185173,0.032333,0.146867,2
1.369459,-0.359628,-0.176948,-0.003744,-0.471218,1.139645,-0.134596,0.154066,0.143388,2
0.328458,0.041592,-1.045225,-0.349101,0.099548,-0.986334,-0.101518,0.249323,0.166776,2
-0.860472,-0.374323,-2.069275,-0.115721,0.589301,-1.500866,0.023806,0.178721,0.076247,2
-0.953132,-1.532549,-0.725818,0.205257,1.15221,-1.364499,-0.100875,0.145447,0.176465,2
-2.124417,-0.765581,-1.60132,-0.248284,1.192582,-1.921536,-0.032407,0.095315,0.135353,2
-2.175852,-0.740269,-2.026556,-0.813186,1.581008,-1.449063,-0.070771,-0.028931,0.107104,2
-1.176427,-0.813108,-1.800655,-0.042673,1.507376,-1.046704,-0.203154,-0.0148,0.082944,2
-0.576716,-0.787795,-0.767126,-0.604794,1.245552,0.272412,-0.265789,-0.035216,0.080157,2
-0.586399,-0.760613,-0.475055,-0.315358,0.560513,0.394063,-0.146758,0.025533,0.150641,2
-0.860156,0.005648,-0.82426,-0.162622,0.148315,0.392005,0.124074,0.177296,0.183414,2
-0.644013,0.066119,-0.976997,-1.084102,-0.284576,0.010467,0.131354,0.096304,0.115845,2
-0.355706,0.430736,-1.142742,-0.980263,-0.318847,-0.341219,0.012642,-0.013985,0.097107,2
-0.504096,0.667821,-2.099055,-0.991236,-0.413897,-1.122882,-0.027384,-0.017703,0.119768,2
-0.26523,1.020279,-3.726612,-1.259596,-0.375266,-2.128985,0.055111,-0.001344,0.108531,2
0.247297,0.129934,-1.57244,-1.249158,-0.322194,-3.06667,-0.047827,0.097017,0.12986,2
0.844423,-1.43611,0.173644,-0.694481,0.262449,-2.537289,-0.010129,0.097783,0.097203,2
-0.840098,-1.244303,-1.105989,-0.635567,0.699985,-3.81117,0.25139,0.030446,0.110463,2
-3.266632,-0.39415,-2.061761,0.586619,1.397702,-1.146882,0.215022,0.053268,0.159259,2
-1.751957,-0.820972,1.30514,0.828997,1.785928,0.776903,-0.001855,0.0468,0.139662,2
-0.923765,-1.23243,1.857787,1.366265,2.576554,0.69302,0.168331,0.04978,0.075228,2
-0.395772,-1.310626,1.97078,1.778252,2.192866,1.852573,-0.005484,0.055815,0.158199,2
-0.172866,-1.13503,2.042827,1.671313,1.40281,1.37095,-0.205566,0.049651,0.173913,2
0.350331,-0.572068,2.888305,1.463174,-0.574232,2.261362,-0.071018,0.007678,0.169233,2
0.17714,-0.120549,2.019574,0.613278,-1.00741,1.195017,0.182059,0.073465,0.121559,2
0.144181,0.091271,1.272924,0.264693,-0.465494,0.163903,0.133911,0.018964,0.11375,2
-0.013455,0.49156,0.737443,-0.320833,0.123996,-0.2557,0.135309,-0.107031,0.115425,2
0.613944,0.774204,0.793091,-0.575851,0.21638,0.637671,0.097649,-0.068961,0.087401,2
1.083357,1.013003,0.570885,-0.284482,-0.153469,1.175384,0.003701,0.054651,0.156717,2
1.668067,1.273035,0.591902,-0.524936,-0.552069,1.256883,-0.039898,0.065002,0.139293,2
1.733602,1.442064,0.54235,-0.647325,-0.839782,1.144401,-0.096963,0.07396,0.113501,2
1.379747,1.395316,0.65163,-0.484159,-0.832156,0.813689,-0.034471,0.128543,0.179977,2
0.871499,1.266187,0.458834,-0.409455,-0.773736,0.565865,0.016807,0.105339,0.143042,2
0.568155,1.060472,0.310206,-0.438318,-0.527414,0.427159,0.015331,0.03292,0.101566,2
0.701747,0.981412,0.279699,-0.125244,-0.408671,0.215374,0.027214,-0.000583,0.139532,2
0.721222,0.825555,0.275737,0.071545,-0.280696,0.043073,0.079088,-0.063453,0.112597,2
0.673461,0.633715,0.24791,0.140422,-0.124933,-0.053042,0.081978,-0.112182,0.042119,2
0.639046,0.456481,0.230685,0.363572,-0.121555,-0.035567,-0.005614,0.018337,0.107315,2
0.359789,0.221377,0.346832,0.432108,-0.078986,0.046373,0.05984,0.150481,0.147129,2
0.122243,0.03691,0.346621,0.49449,-0.045011,0.054733,0.046803,0.145587,0.139124,2
-0.043948,-0.118431,0.369374,0.485865,0.164949,0.060653,-0.061014,0.056226,0.150358,2
-0.45591,-0.226745,0.30633,0.372946,0.379316,0.07775,-0.08284,0.01855,0.134775,2
-0.699469,-0.376633,0.138604,0.142721,0.438421,0.034801,0.091345,-0.066167,0.12135,2
-0.8571,-0.428238,-0.147374,-0.076772,0.397157,0.053339,0.124647,-0.008034,0.081809,2
-0.921902,-0.622214,-0.251767,-0.225175,0.300772,0.024059,0.058513,0.106734,0.123601,2
-0.845576,-0.66077,-0.29056,-0.258828,0.069901,0.109634,0.008683,0.137763,0.132319,2
-0.706309,-0.69529,-0.365286,-0.134172,-0.081445,0.105508,0.031843,0.092434,0.12091,2
-0.52121,-0.674901,-0.379069,-0.03381,-0.05034,0.050962,0.01639,0.076225,0.114326,2
-0.422355,-0.670842,-0.254343,0.101631,0.092176,0.038414,-0.042771,0.061175,0.136506,2
-0.558115,-0.538526,-0.18493,0.094929,0.16274,0.059116,-0.004519,0.028552,0.116589,2
-0.429293,-0.477617,-0.137691,-0.100701,0.10335,0.089566,-0.057237,0.026543,0.109058,2
-0.208541,-0.252796,0.09514,-0.385863,0.028298,0.203694,-0.109491,0.101588,0.136688,2
-0.005879,-0.080083,0.32159,-0.702151,-0.030352,0.296977,-0.079163,0.017368,0.117577,2
0.101394,0.080985,0.376257,-0.803709,-0.101012,0.271494,-0.104902,-0.042425,0.099502,2
0.149333,0.221564,0.403758,-0.732589,-0.11442,0.208322,-0.099521,-0.071825,0.09139,2
0.224525,0.379551,0.49364,-0.529441,-0.10874,0.252613,-0.123095,-0.001774,0.15,2
0.237573,0.494459,0.595799,-0.3393,-0.043973,0.301074,-0.054821,0.061482,0.18799,2
0.318944,0.577444,0.338288,-0.149808,0.086599,0.063194,0.13734,0.112524,0.135597,2
0.245115,0.516066,0.164883,0.046097,0.169562,-0.19824,0.140821,0.116893,0.081663,2
0.172117,0.513422,0.153172,0.188903,0.18656,-0.283342,0.044333,0.088831,0.058263,2
0.131827,0.402574,0.22183,0.294258,0.141559,-0.211813,-0.093291,0.131165,0.14287,2
0.198253,0.434375,0.214251,0.285945,0.146441,-0.086405,-0.168905,0.140841,0.161504,2
0.258042,0.410348,0.185534,0.194567,0.178703,-0.002461,-0.003013,0.162311,0.172063,2
0.163465,0.366571,0.225589,0.054389,0.124804,0.130783,0.166535,0.030687,0.0748,2
-0.111307,0.332372,0.105621,-0.140918,-0.043666,0.212156,0.098182,-0.012801,0.116911,2
-0.129648,0.188909,0.046133,-0.246415,-0.132911,0.203931,0.164342,-0.002252,0.128121,2
0.035403,0.217342,0.10164,-0.300472,-0.056579,0.257793,0.112056,-0.028788,0.137773,2
0.030249,0.105732,0.022055,-0.305929,0.022783,0.099594,0.080208,0.050116,0.123874,2
-0.074888,0.034709,0.041984,-0.271243,0.167213,0.035476,-0.040415,0.00405,0.109889,2
-0.069001,0.031585,-0.041818,-0.184758,0.179473,0.04034,-0.030029,-0.067975,0.092929,2
0.03565,-0.012974,0.032748,-0.033209,0.30621,0.025323,0.058105,-0.120401,0.086626,2
0.070628,-0.037959,0.218225,0.057257,0.324283,0.139564,-0.047272,-0.08057,0.142482,2
-0.119858,-0.058219,0.215243,0.13069,0.323396,0.12077,-0.327404,0.123359,0.270544,2
-0.15141,-0.077268,0.03242,0.183896,0.305367,-0.026098,0.033221,0.340041,0.076877,2
-0.138601,0.057365,0.045636,0.19938,0.3038,0.012984,-0.165328,0.210366,0.146503,2
-0.280517,0.065929,-0.027122,0.148149,0.21273,-0.087503,-0.291648,0.031953,0.179053,2
-0.279967,0.174989,0.03512,0.169968,0.113947,-0.026258,-0.250343,-0.053723,0.073275,2
-0.357873,0.281252,0.188352,0.154051,0.007632,0.231074,-0.220331,0.007048,0.168677,2
-0.36596,0.383546,0.396269,0.129825,-0.119353,0.441733,-0.317938,0.169442,0.238091,2
-0.266229,0.560501,0.689952,0.124344,-0.243204,0.597741,-0.376382,0.153387,0.275629,2
-0.304388,0.678748,0.380728,0.09299,-0.328039,0.274301,-0.052812,0.08239,0.10945,2
-0.298864,0.612594,0.132149,0.173258,-0.278113,-0.082931,0.210654,-0.088124,0.014607,2
-0.160021,0.557434,0.097218,0.215095,-0.339691,-0.212511,-0.0164,0.00198,0.00354,2
0.176006,0.461734,0.182006,0.380194,-0.283935,-0.175683,-0.273689,0.205382,0.111283,2
0.191276,0.299051,0.206884,0.407678,-0.194362,-0.094819,-0.355648,0.264611,0.246656,2
-0.07946,0.231932,0.255717,0.373304,-0.103453,0.002803,-0.080116,0.384216,0.201273,2
-0.028495,0.215725,0.238465,0.313187,-0.103758,0.033694,0.063164,0.330843,0.177664,2
0.113092,0.293082,0.018489,0.197546,-0.0553,0.038186,0.180241,0.186154,0.100792,2
-0.034619,0.210917,-0.000548,0.02891,0.018102,0.057413,0.162564,0.145383,0.048901,2
-0.098565,0.11278,-0.122658,-0.089323,0.093575,0.11101,0.067364,0.274083,0.1579,2
0.020383,0.014317,-0.084481,-0.238917,0.191916,0.097196,-0.009976,0.482556,0.159986,2
-0.054737,-0.054131,-0.104157,-0.335864,0.275018,-0.013964,0.061141,0.652855,0.120404,2
0.001635,-0.120672,-0.114893,-0.305941,0.33314,-0.076039,0.182801,0.239654,-0.098529,2
0.131671,-0.149517,-0.108276,-0.255178,0.276909,-0.167118,0.086066,0.107671,0.099402,2
0.165039,-0.268103,0.00503,-0.127184,0.228894,-0.186587,0.076429,-0.09281,0.067063,2
0.032117,-0.284354,-0.030635,-0.042224,0.148806,-0.169975,0.336499,0.467395,-0.024962,2
-0.03183,-0.238889,-0.188003,0.041429,0.074979,-0.201172,0.461717,0.862492,0.006689,2
-0.055992,-0.20745,-0.207748,0.141917,0.065482,-0.193928,0.470094,0.768808,-0.047304,2
0.009482,-0.198964,-0.341377,0.118622,0.075206,-0.212128,0.564418,0.009133,-0.389272,2
0.15253,-0.332278,-0.272851,0.130904,0.211001,-0.2367,-0.53353,-0.590011,-0.011609,2
0.120559,-0.470744,0.301377,-0.068656,0.125088,0.249862,-0.708833,-1.678402,0.616717,2
-0.357511,-0.37842,0.813466,-0.74638,0.26097,0.720353,-1.38655,-1.361668,0.643534,2
-0.739736,-0.233034,0.874703,-0.908678,0.00668,0.71007,-0.325907,-0.649755,0.170938,2
-0.394149,-0.053755,0.522078,-0.858312,-0.282662,0.336986,0.335713,-0.194658,0.111108,2
0.166442,-0.056792,0.041357,-0.722315,-0.150669,-0.134635,0.966088,-0.002496,0.20195,2
0.256225,-0.008289,-0.106702,-0.475662,0.047007,-0.28647,1.023391,-0.117401,-0.014503,2
-0.101224,-1.4e-05,-0.028354,-0.167744,0.038627,0.003523,0.782661,-0.209891,-0.012444,2
-0.230562,-0.089681,0.16984,-0.076032,0.216674,0.225828,0.247736,-0.274306,0.267435,2
0.017326,-0.166826,0.447121,-0.134113,0.405232,0.464641,-0.083266,-0.364741,0.527312,2
0.124581,-0.164783,0.352238,-0.344439,0.335654,0.367319,-0.050387,0.026646,0.272707,2
0.036793,-0.119648,0.154979,-0.482887,0.354106,0.137175,0.441104,-0.052878,0.114848,2
0.092476,-0.088972,-0.167014,-0.593211,0.362113,-0.062592,0.264931,0.151325,0.203159,2
0.294753,-0.123358,-0.253889,-0.369987,0.639413,-0.274724,0.282262,0.315099,0.272882,2
0.292704,-0.234145,0.020818,-0.016847,0.438204,-0.017941,0.481955,0.16451,0.732871,2
0.318321,-0.258638,0.26909,0.04204,0.362753,0.297446,0.162791,0.252988,0.896722,2
0.303174,-0.242032,0.508459,-0.084804,0.436215,0.320396,-0.451172,-0.438456,0.257448,2
0.323197,-0.197897,0.452641,0.015761,0.451844,0.165323,-0.502728,-0.723852,-0.30257,2
0.348037,-0.277412,0.405465,0.231745,0.738052,-0.210114,-0.564968,-0.69713,-0.45951,2
0.238046,-0.146452,0.256909,0.288485,0.79319,-0.389284,-0.431704,-0.706812,-0.498796,2
-0.050887,-0.080853,-0.147013,0.116858,0.934078,-0.508572,-0.434291,-0.60807,-0.308029,2
-0.202973,-0.082544,0.038078,-0.053585,0.64792,-0.351005,-0.239384,-0.153554,-0.15631,2
-0.288893,0.035986,0.042927,-0.533094,0.163591,-0.056567,0.042425,0.165132,0.150705,2
-0.407372,0.067341,0.135921,-0.682704,-0.549808,0.278623,-0.147556,-0.280438,-0.011932,2
-0.339563,0.11395,0.115207,-0.603477,-1.063999,0.408308,0.069393,-0.694005,-0.151722,2
-0.134871,0.041873,0.271824,-0.167997,-0.963792,0.124361,0.085586,0.298571,0.318154,2
-0.144987,0.08448,0.255331,-0.073497,-0.554525,0.075665,0.072847,0.67603,0.563099,2
-0.187895,0.238053,0.022532,-0.045005,-0.643636,0.232566,0.151547,0.475716,0.23301,2
-0.195612,0.239159,-0.059235,-0.084565,-0.522572,0.283302,0.164576,0.550499,0.38378,2
-0.249735,0.310455,-0.115831,-0.201477,-0.158581,0.234212,-0.039646,0.732658,0.282146,2
-0.231966,0.16552,-0.060763,-0.336043,0.065205,0.100414,0.116421,0.63337,0.590317,2
-0.093799,0.014404,0.137259,-0.43599,0.326557,0.13249,0.380944,0.180878,0.450608,2
0.169879,-0.073376,0.207236,-0.511568,0.07809,0.245929,0.229521,-0.521647,-0.132837,2
0.184715,-0.139061,0.350222,-0.58717,0.53959,0.086039,-0.285582,-0.030802,0.022861,2
0.147011,-0.118847,0.463284,-0.431996,0.219973,0.163989,-0.057752,-0.415128,-0.218145,2
0.311853,-0.042812,0.282588,-0.452095,-0.02205,0.136479,-0.081572,-0.510053,-0.321779,2
0.269236,0.027101,0.223206,-0.696158,-0.254824,0.102351,0.076869,-0.361036,-0.210515,2
0.1735,0.131925,0.216413,-0.831843,-0.271295,0.04355,-0.171375,-0.911409,-0.562086,2
0.010466,0.119891,0.20043,-0.61686,-0.42905,-0.089291,0.070058,-0.681999,-0.685657,2
-0.013995,0.05085,0.458381,-0.424692,-0.490911,-0.149864,0.7193,0.344512,0.152533,2
-0.056566,-0.072642,0.405496,-0.365841,-0.481347,-0.08712,-0.195365,0.164506,0.650025,2
-0.094823,-0.216592,0.619961,-0.27881,-0.546463,0.215255,0.109258,0.533106,0.907619,2
-0.12247,-0.367629,0.342914,-0.27857,-0.372999,0.273583,0.035481,1.259344,0.616072,2
-0.043549,-0.482354,0.008526,-0.338176,-0.266044,0.158421,0.115348,0.302043,-0.371288,2
0.071546,-0.551454,0.014002,-0.51534,-0.124809,0.107103,-0.043938,0.051859,-0.042784,2
-0.175155,-0.529039,0.278549,-0.663364,-0.125607,0.217299,-0.100547,0.273134,0.404274,2
-0.545272,-0.50896,0.011217,-0.685526,-0.274583,0.115682,0.047594,-0.098413,0.115644,2
-0.655053,-0.452761,0.044059,-0.566815,-0.389145,0.092875,0.309931,-0.561258,-0.013331,2
-0.68836,-0.435639,-0.07971,-0.292859,-0.383329,0.106015,0.746962,-0.463107,-0.004804,2
-0.95457,-0.75541,-0.209942,-0.161211,-0.267101,-0.177444,0.679806,-0.271013,0.092515,2
-0.307123,-0.777452,-0.008465,0.102743,-0.059154,-0.211333,0.120353,-0.038889,0.116057,2
-0.313299,-0.655852,-0.229034,0.322269,0.067737,-0.311811,0.15116,0.077254,0.082619,2
-0.420312,-0.846153,-0.545386,0.524121,0.213631,-0.401751,0.085611,0.371523,-0.035962,2
0.036003,-0.812983,-0.549518,0.504997,0.236152,-0.470938,-0.240829,-0.051904,0.118355,2
-0.059036,-0.767934,-0.823204,0.614117,0.324871,-0.545402,0.38638,0.223891,-0.004881,2
-0.263619,-0.704372,-0.460769,0.736188,0.46189,-0.110984,-1.100584,-0.192777,0.188165,2
-0.632669,-0.571007,-0.267093,0.807058,0.703915,0.392402,-0.862646,-0.07152,0.412648,2
-0.445211,-0.501112,0.052022,0.810975,0.987288,0.730899,0.10505,0.492657,0.456276,2
0.110107,-0.113811,0.403502,0.901256,1.086209,0.915807,0.181662,0.527311,0.469939,2
-0.161274,0.198693,0.22889,0.774034,0.874606,0.738364,-0.122096,0.012295,0.239902,2
-0.241854,0.536066,0.055819,0.553928,0.741065,0.173639,-0.083715,-0.53638,-0.078788,2
-0.230617,0.687341,-0.005847,0.3166,0.652506,-0.288218,-0.257684,-0.512225,0.089005,2
0.250288,1.233424,0.179145,0.142096,0.538523,-0.390887,-0.065583,-0.230971,0.115158,2
0.589044,1.895993,0.132237,0.027455,0.46511,-0.441112,-0.412755,-0.0187,0.147074,2
0.500356,2.481409,0.37483,-0.052478,0.669233,-0.397805,-0.302845,0.069452,0.187621,2
0.433957,2.955374,0.952372,-0.040767,0.761351,0.03001,-0.248984,0.042961,0.303549,2
0.238997,3.083178,1.280581,-0.063317,0.517594,0.258883,-0.09107,-0.154357,0.231551,2
0.086956,2.95542,0.874026,-0.142203,0.076672,0.187833,0.040092,-0.239505,0.0474,2
0.214669,2.639297,0.535653,-0.253714,-0.387196,0.028367,0.000154,-0.108942,-0.041991,2
0.689744,2.258696,0.419891,-0.322517,-0.467631,-0.241613,-0.068507,0.211563,0.088524,2
1.053181,1.795774,0.520793,-0.203284,-0.302851,-0.185838,-0.005646,0.373728,0.174836,2
1.027038,1.076499,0.678752,-0.047037,-0.151364,-0.073401,0.111235,0.248825,0.182825,2
0.979808,0.435637,0.613055,0.007638,0.04162,-0.020082,0.193898,0.09111,0.148935,2
0.865433,-0.042419,0.502135,0.162376,-0.082529,0.173742,0.124495,0.010047,0.187346,2
0.417713,-0.583059,0.284893,0.319955,-0.216645,0.419347,0.053744,-0.064821,0.108683,2
0.555141,-1.006468,-0.096035,0.373232,-0.366525,0.478066,0.083244,-0.138067,0.070901,2
0.400733,-1.362204,-0.387612,0.169731,-0.336478,0.246528,0.044713,-0.058442,0.090228,2
0.315953,-1.613831,-0.373234,-0.007547,-0.2284,0.093774,-0.059843,-0.012434,0.104193,2
0.099167,-1.989805,-0.187294,-0.048036,-0.25805,0.070022,-0.041879,0.122541,0.15003,2
-0.55894,-2.233107,-0.327999,-0.051431,-0.213759,-0.095552,-0.083457,0.126314,0.159049,2
-0.817735,-2.254944,-0.393953,-0.039754,-0.101875,-0.078702,-0.09122,0.04665,0.14308,2
-1.027034,-2.020998,-0.715749,-0.047771,-0.143138,0.025245,0.041168,-0.014918,0.119372,2
-1.477592,-1.629763,-0.836783,-0.000717,-0.006602,-0.053931,0.059944,-0.032929,0.083789,2
-1.684253,-1.223843,-0.746217,-0.054543,0.061253,-0.107803,0.047935,-0.002549,0.08947,2
-1.851609,-0.866133,-0.647965,-0.033106,0.029994,-0.067886,0.052213,0.012859,0.105973,2
-1.862338,-0.521173,-0.244129,0.055377,0.083415,-0.10011,-0.00565,0.055251,0.145782,2
-1.873648,-0.379697,0.06763,0.021767,0.110791,-0.052176,0.183815,0.101827,0.118017,2
-1.774965,-0.532984,0.152089,0.02973,0.083373,0.053489,0.124103,0.072908,0.155669,2
-1.19439,-0.65407,0.19908,-0.003917,0.093719,0.10064,0.078366,0.056893,0.116633,2
-0.590591,-0.58391,0.323957,-0.045008,0.143838,0.043802,-0.1184,-0.085217,0.132433,2
-0.057691,-0.437445,0.473322,-0.070106,0.062101,0.048884,-0.141391,-0.066919,0.15816,2
0.422541,-0.213662,0.435181,-0.074431,-0.019351,-0.005939,0.022496,-0.110006,0.014502,2
0.970634,-0.228872,0.251896,0.050323,0.030456,-0.066314,-0.162058,0.013261,0.225015,2
0.915304,-0.091279,0.239657,0.103398,-0.116926,-0.009227,-0.026101,0.131481,0.193396,2
0.794508,0.114296,0.19203,0.263431,-0.136639,-0.059383,0.159839,0.23486,0.067388,2
0.843132,0.389139,0.178015,0.295182,-0.054551,0.075549,0.115912,0.153412,0.171832,2
0.79918,0.625115,0.108191,0.274611,-0.073105,0.180276,-0.297971,-0.048794,0.106384,2
0.703872,0.897328,0.061622,0.255863,-0.136115,0.253867,-0.457221,-0.144167,0.171456,2
0.899527,1.329041,0.1908,0.14231,-0.128107,0.380175,-0.050112,0.148006,0.166484,2
0.851307,1.700209,0.370064,0.076008,-0.078102,0.440668,0.076669,0.202332,0.131587,2
1.087967,2.148705,0.439269,-0.046847,-0.143321,0.453728,-0.132478,-0.115862,0.117096,2
1.05204,2.439068,0.746805,-0.138003,-0.084256,0.349023,-0.17282,-0.135936,0.142267,2
0.72966,2.419392,0.835669,-0.265996,-0.026921,0.22548,-0.095305,0.041125,0.13844,2
0.332112,1.960478,0.660355,-0.316755,-0.05741,-0.058198,0.065299,0.116655,0.070049,2
-0.092177,1.514221,0.674714,-0.287204,-0.047058,-0.181838,0.177236,0.240293,0.104944,2
0.010118,1.127897,0.561474,-0.185709,0.016007,-0.211285,0.132574,0.2302,0.109276,2
0.130781,0.648754,0.321638,-0.050844,0.025156,-0.271199,0.02861,0.098197,0.109399,2
0.292955,0.312523,0.272518,0.061935,-0.013779,-0.134802,0.025829,0.039677,0.118028,2
0.378883,-0.068614,0.214737,0.087315,-0.230047,0.176696,0.097647,0.001019,0.123737,2
0.264282,-0.389595,0.223199,0.255543,-0.712844,0.870331,0.026047,-0.044656,0.123932,2
-0.027578,-0.79744,0.054111,0.091026,-1.718226,2.569266,0.115858,-0.025067,0.09679,2
-0.266092,-1.053028,0.095824,-0.117762,-0.869897,2.722078,0.182966,0.010677,0.110466,2
-0.877397,-1.234492,-0.115692,0.333777,-0.408345,3.349208,0.117404,-0.004589,0.108489,2
-0.848413,-1.37014,-0.463477,0.020421,-0.835421,4.194453,0.038986,0.002482,0.122417,2
-0.457501,-1.426724,-0.478259,0.128114,-1.221075,5.144163,0.097561,0.03772,0.164104,2
-0.255674,-1.45382,-0.631696,-0.012898,-0.874432,5.425182,0.116413,0.078142,0.150771,2
-0.148695,-1.360608,-0.650485,0.488097,-0.059605,5.315916,0.010046,-0.03937,0.151531,2
-0.261171,-1.207526,-0.63882,-0.25939,1.373767,3.97984,0.09378,-0.125282,0.123047,2
-0.652167,-1.06724,-0.607149,-0.429318,2.024334,2.883657,0.103116,0.01989,0.107023,2
-0.698381,-0.731178,-0.256076,0.222021,2.954823,1.75267,-0.195029,0.009836,0.084183,2
-0.652894,-0.415022,0.085869,1.289006,4.376894,1.127199,-0.023763,0.074428,0.065062,2
-0.643655,0.014181,0.206545,0.544162,3.311512,-2.258706,-0.248739,0.055298,0.177387,2
-0.577107,0.295736,0.352388,1.114543,3.686877,-3.362413,-0.50999,0.030131,0.242698,2
-0.378072,0.494861,0.728876,0.634776,1.367243,-4.670393,-0.219964,0.17892,0.139729,2
-0.259333,0.589486,0.987445,0.658317,-0.245337,-5.202354,-0.096664,0.183286,0.234235,2
-0.238202,0.869667,0.557333,0.367499,-2.482184,-4.025403,-0.046547,0.060898,0.09873,2
-0.197718,1.05301,0.343171,0.699922,-1.057396,-3.364929,0.003041,0.000986,0.078052,2
-0.042962,1.204035,0.299695,0.408974,-1.632184,-3.603189,-0.06593,-0.040219,-0.022168,2
-0.185591,1.119986,0.103629,-0.792598,-1.671421,-1.548682,-0.310696,0.097854,0.162728,2
0.265978,1.001001,0.233557,-0.336272,-1.522571,-1.945304,-0.588516,0.161889,0.267441,2
0.077858,1.060224,0.661727,-0.980209,-1.537184,-0.861748,-0.222858,0.171422,0.239739,2
0.257855,0.99125,0.453797,-0.185899,-1.029984,-0.787926,-0.075309,0.143444,0.148683,2
0.280457,0.772053,0.34231,0.355024,-0.20237,-1.502625,0.028321,0.112585,0.101437,2
0.455775,0.778198,0.221559,0.480382,0.256664,-0.817383,0.036883,0.069628,-0.022337,2
0.404771,0.645639,0.414422,0.520012,0.486243,-0.371055,-0.371148,0.076544,0.229774,2
0.296646,0.524557,0.47428,0.394933,0.396211,-0.248742,-0.408735,0.287146,0.217148,2
0.064262,0.548309,0.324451,0.269285,0.808875,-0.150562,-0.114882,0.250988,0.053474,2
-0.061327,0.467283,-0.001462,0.278959,0.05012,-0.160157,0.080102,0.345871,0.122116,2
-0.140404,0.357387,-0.031538,0.389216,-0.062052,-0.08127,0.051924,0.3365,0.152146,2
-0.184233,0.203808,-0.181776,0.434922,0.602512,-0.118254,-0.013439,0.487363,0.1014,2
-0.284883,-0.031357,-0.1443,0.224948,0.607224,0.329481,-0.071894,0.50627,0.207703,2
-0.327016,-0.185143,-0.126348,0.292665,0.973808,0.526401,0.428504,0.221618,-0.063192,2
-0.242002,-0.398882,-0.143099,0.136249,0.724503,0.250289,0.29214,0.150209,0.100508,2
-0.201244,-0.556836,-0.215647,-0.155407,0.687782,-0.105432,0.139524,0.101786,0.111496,2
-0.275623,-0.651106,-0.292347,-0.198675,0.592326,-0.177012,0.206614,0.193643,-0.102542,2
-0.281462,-0.687525,-0.155272,-0.060618,0.833512,-0.351731,0.207463,0.137574,0.078655,2
-0.336321,-0.687015,-0.416134,-0.185573,0.089367,-0.661321,0.446486,0.075915,-0.012197,2
-0.4596,-0.700355,-0.156954,-0.150071,0.214992,-0.395232,0.348821,-0.273893,0.121621,2
-0.561552,-0.663252,-0.186147,-0.213686,-0.432602,-0.401182,0.172898,-0.442947,0.08265,2
-0.549591,-0.676369,0.022452,-0.312865,0.508525,0.057278,-0.120836,0.082402,0.141121,2
-0.49323,-0.706109,-0.041226,-0.361932,0.381796,0.115535,0.12783,0.143074,0.038754,2
-0.134469,-0.736823,0.054832,0.49081,0.161532,0.073838,0.566158,-0.236151,0.097751,2
-0.078973,-0.540216,0.009764,0.341408,0.199874,0.52827,0.160302,0.101924,0.608959,2
-0.066844,-0.389076,-0.185092,0.182865,-0.084693,0.589402,0.368516,-0.347385,0.497622,2
-0.02744,-0.162274,-0.043426,-9.8e-05,0.214829,0.560236,0.22654,-0.410111,0.161398,2
0.052998,0.052665,0.026232,-0.41084,0.186113,0.256221,-0.50585,-0.335043,0.26889,2
0.055531,0.195088,0.118841,-0.987225,-0.039258,-0.17276,-0.677321,-0.599202,0.140281,2
0.253946,0.318398,0.09632,-0.713517,-0.193095,-0.67313,-0.152987,-0.372833,-0.210241,2
0.408504,0.27554,0.425353,-0.399707,0.147581,-0.85971,-0.250135,-0.179525,-0.197085,2
0.688554,0.296189,0.455833,-0.266325,0.149216,-1.004103,-0.134906,-0.106873,-0.25128,2
0.769708,0.284737,0.333057,-0.29668,-0.361216,-1.102809,0.188015,0.039583,0.017465,2
0.653768,0.272516,0.158262,-0.50719,-0.98514,-1.672089,0.420374,-0.169822,0.084265,2
0.718967,0.217605,0.011749,-0.450169,-0.984232,-2.711744,0.499633,-0.299379,0.22161,2
0.750285,0.117512,0.267117,-0.174279,-0.279445,-3.440091,0.221183,-0.020416,0.28413,2
0.749403,0.136486,0.309593,0.490041,-0.06589,-3.652229,0.081789,0.043245,0.111494,2
0.429052,0.075244,0.288486,1.568204,-0.179039,-3.766446,0.080508,0.009572,0.012259,2
0.125415,-0.026853,0.798436,1.632964,0.210906,-3.178632,-0.057492,0.05691,0.087673,2
-0.018624,-0.388419,0.736119,-1.836032,1.238374,-1.82379,-0.104904,0.259022,0.206749,2
0.241507,-0.77979,0.52151,-1.286513,2.564428,-0.030824,-0.057263,0.149211,0.340759,2
0.365421,-0.978286,0.266962,-0.449326,0.385807,0.336209,-0.159269,0.012272,0.40731,2
0.42046,-0.698219,0.143373,-1.937337,0.25119,-0.895465,-0.0304,-0.407616,0.199172,2
0.247225,-0.269575,-0.286207,-1.526281,2.742332,3.481099,-0.016615,-0.541007,0.093976,2
-0.200268,0.342067,-0.247916,-0.111215,1.276176,0.590364,-0.052958,-0.338174,-0.027152,2
-0.834693,0.966434,0.070915,2.548329,0.862271,1.218326,0.058654,-0.095276,0.080968,2
-1.934446,1.094858,0.21142,0.517926,2.476683,-0.29234,0.008144,0.175508,0.227712,2
-2.152415,1.319513,0.294861,-1.002377,3.131764,1.078575,-0.055361,0.283536,0.256516,2
-1.863307,1.756424,0.347097,0.841702,2.885039,1.470573,-0.030935,0.159696,0.123797,2
-1.455364,1.219703,0.443896,1.662982,2.504753,2.384092,-0.133094,0.087438,0.027192,2
-1.092239,1.204058,0.528008,2.39202,2.093334,4.065737,-0.192145,0.039808,0.000264,2
-0.587002,0.524988,1.042329,2.094151,0.528897,6.822468,-0.142008,0.099837,-0.004893,2
-0.549781,0.245973,1.0068,-0.612595,-2.255519,6.685711,0.095526,0.055731,0.164195,2
-0.547281,0.040605,0.710077,-3.201617,-1.6448,4.403163,-0.015675,-0.043942,0.319096,2
-0.598036,-0.51843,0.359081,-1.404051,-0.980807,1.013043,-0.295726,-0.255336,0.119993,2
-0.319631,-1.055956,-0.128795,0.851774,0.923946,0.789241,-0.284102,-0.2062,-0.005193,2
0.089069,-1.446465,-0.568594,-0.405688,0.503128,0.294262,-0.187978,0.071365,0.017624,2
0.273213,-1.707233,-0.930761,-0.296691,-0.993517,-1.337568,0.191989,-0.105401,0.185264,2
0.512065,-1.926823,-1.269959,-0.387435,-2.456639,-1.887113,0.50698,-0.209533,0.420623,2
0.962371,-2.14511,-1.545561,-0.244073,-2.309689,-1.737876,0.617005,-0.449699,0.281691,2
1.504694,-2.081252,-1.266257,0.863598,-2.425779,-1.224986,0.489634,-0.59977,0.137167,2
1.955365,-1.809467,-0.642027,1.811696,-2.380814,0.129513,0.337223,-0.483378,0.130026,2
2.210116,-1.564178,-0.157252,2.140429,-2.038096,0.223906,0.093164,-0.21469,0.198729,2
1.683015,-1.039348,0.084286,2.182349,-1.59825,-0.024467,-0.046213,-0.010162,0.114743,2
0.953374,-0.497249,0.561049,1.658174,-1.657285,-0.202272,-0.175854,0.179068,0.136206,2
0.801821,0.347601,0.572989,1.122992,-1.75391,-0.060508,-0.283293,0.244982,0.075097,2
0.570622,1.633358,1.054506,0.794073,-1.869264,0.693583,-0.373422,0.33221,0.031538,2
-0.442722,2.425345,1.109236,0.547113,-1.536876,1.208013,-0.495064,0.394038,0.029937,2
-0.943739,2.315205,0.51683,0.200839,-0.647165,1.074964,-0.309959,0.128641,0.089971,2
-0.722588,2.882114,1.037446,-0.59512,-1.517046,2.094846,-0.83347,0.616443,0.102082,2
-0.855345,2.867682,1.389178,-9.423305,8.788664,0.590822,-0.172846,-0.734748,0.192684,2
-1.348439,2.01225,1.018478,-4.092555,4.422081,-1.970113,0.288988,-0.040086,0.261025,2
-1.766894,1.202845,0.350341,-0.966401,1.207444,-0.350353,0.631171,-0.28321,0.172297,2
-1.48969,0.849376,-0.130716,-0.462164,0.921723,-0.353405,0.528752,0.102244,0.047884,2
-0.700575,0.359314,-0.078506,0.703582,0.276815,-0.236997,-0.247818,0.112062,0.173469,2
0.225834,-0.244887,-0.086437,1.627404,-0.416919,-0.091377,-0.075583,-0.419574,0.088778,2
0.616094,-0.617206,0.139246,1.880562,-0.505892,0.308646,-0.027651,-0.051792,0.113503,2
0.754588,-0.920717,0.053172,1.280523,0.016498,0.19451,-0.062471,0.177699,0.123969,2
0.602036,-1.08892,-0.127632,0.777905,0.659106,0.001916,-0.141479,0.073486,0.138251,2
0.487378,-1.046359,-0.281186,0.66617,0.811889,-0.124445,0.044937,-0.084849,0.095971,2
0.156097,-1.039572,-0.374391,0.756312,0.462787,-0.029555,0.034166,-0.001666,0.076849,2
0.127065,-1.00547,-0.385387,0.829408,0.127267,0.067719,-0.031955,-0.122109,0.184793,2
0.206596,-0.927641,-0.333901,0.667344,0.052482,-0.018963,0.042667,-0.106562,0.15233,2
0.122457,-0.814237,-0.299638,0.472041,0.245847,-0.401015,0.044004,-0.116688,0.098482,2
0.225337,-0.541484,-0.341098,0.208817,0.403631,-0.445773,0.061568,-0.158761,0.118731,2
0.646743,0.572029,-0.089878,-0.080542,0.297498,-0.228089,0.056128,-0.072069,0.168828,2
0.289355,0.878481,0.680032,-0.459946,0.319985,-0.12359,-0.051146,-0.054759,0.057843,2
-0.543636,0.763608,0.561001,-1.809626,0.175623,0.492601,-0.03468,-0.227084,0.13659,2
-1.010083,0.739451,0.414147,-1.59229,-0.912228,0.741282,-0.020148,-0.11542,0.192963,2
-0.859758,0.703548,0.615608,-0.802693,-1.195013,0.502946,0.034455,-0.188352,0.212969,2
-0.178189,0.560269,0.563865,-0.19114,-0.936428,0.382316,0.069847,-0.202109,0.112415,2
0.164942,0.269898,0.454958,0.139817,-0.54925,0.330877,-0.011463,-0.202014,0.100003,2
0.248845,-0.039855,0.269866,0.174391,0.003381,0.157718,0.038271,-0.192461,0.13679,2
0.054539,-0.190156,0.093691,0.242077,0.247525,-0.062403,-0.068786,-0.099748,0.151752,2
-0.333507,-0.393113,-0.049737,0.273493,0.239805,-0.135718,-0.121485,-0.077847,0.143732,2
-0.303281,-0.557556,-0.150853,0.326776,0.046282,-0.04661,-0.053666,0.004984,0.097622,2
-0.233328,-0.626784,-0.199566,0.47065,-0.103682,0.011603,-0.083382,-0.050428,0.095446,2
-0.229897,-0.663446,-0.297717,0.525147,-0.023074,-0.102312,-0.070088,-0.04089,0.12059,2
-0.25989,-0.708074,-0.258766,0.475569,0.079934,-0.115614,-0.010315,-0.103075,0.13377,2
-0.293999,-0.621664,-0.222912,0.359174,0.121662,-0.083734,0.013817,-0.104213,0.134631,2
-0.182461,-0.575492,-0.08887,0.347706,0.071137,-0.092066,-0.003453,-0.105767,0.131158,2
-0.419838,-0.379594,0.018752,-0.159641,0.380056,0.022422,0.006616,-0.121836,0.122765,2
-0.304444,-0.230292,0.070912,-0.582847,0.387584,0.145109,0.051556,-0.165254,0.130732,2
-0.235615,-0.067554,0.134435,-0.781485,0.512864,0.102862,0.051936,-0.120916,0.159663,2
-0.084753,0.128219,0.171453,-0.526542,0.1875,0.140181,0.055255,-0.118747,0.129311,2
-0.149364,0.28826,0.255919,-0.222891,-0.085031,0.148188,0.036131,-0.129994,0.121693,2
-0.312022,0.401138,0.209913,0.072434,-0.266651,0.08994,0.007816,-0.078545,0.166779,2
-0.108129,0.444809,0.247798,0.21231,-0.145622,-0.060665,-0.003205,-0.032383,0.146607,2
0.083628,0.483334,0.256733,0.213636,-0.121845,0.013303,0.033022,-0.067234,0.108547,2
0.184811,0.470522,0.309173,0.177264,-0.042372,0.085968,-0.018088,-0.016072,0.143769,2
0.169103,0.468696,0.295168,0.086192,-0.134063,0.188848,-0.061655,-0.062195,0.115923,2
0.269823,0.414021,0.317281,-0.079874,-0.10347,0.165897,-0.102007,-0.053604,0.119253,2
0.356168,0.349936,0.255266,-0.167541,-0.062337,0.113433,-0.080283,-0.067286,0.115127,2
0.41756,0.285933,0.221671,-0.11268,0.003443,0.053778,-0.0332,-0.075994,0.109238,2
0.39184,0.234713,0.173932,-0.091957,-0.025616,-0.021134,0.020152,-0.078712,0.101546,2
0.383537,0.124604,0.206624,0.043682,-0.088927,0.022892,-0.007161,-0.138827,0.128485,2
0.317434,0.100517,0.184545,0.120018,-0.157457,0.026036,-0.012197,-0.153767,0.112429,2
0.305295,0.000637,0.159794,0.120096,-0.123723,0.033136,-0.003574,-0.088567,0.152342,2
0.226732,-0.031709,0.130609,0.045784,-0.039588,0.039738,0.047784,-0.096314,0.138854,2
0.1165,-0.066088,0.128023,-0.017588,0.008559,0.097894,0.034701,-0.107105,0.142357,2
-0.011283,-0.053184,0.069156,-0.092118,0.063026,0.104517,0.027976,-0.098457,0.13986,2
-0.099681,-0.052634,0.095106,-0.118593,0.143489,0.161805,0.018193,-0.139467,0.133155,2
-0.112779,-0.045744,0.067178,-0.042787,0.146059,0.084578,0.034616,-0.139751,0.103814,2
-0.173425,-0.045494,0.027939,-0.066643,0.112085,0.038751,0.003155,-0.095389,0.12665,2
-0.327392,0.03373,0.080592,0.054322,0.017072,0.101092,0.0273,-0.109304,0.151779,2
-0.461296,0.070892,0.035704,0.077956,-0.095377,0.074619,0.014969,-0.137498,0.112982,2
-0.428383,0.083956,0.068399,0.039122,-0.109974,0.045444,0.012374,-0.09153,0.122117,2
-0.38053,0.091733,0.091021,0.02148,-0.085282,0.062709,0.001592,-0.071999,0.120155,2
-0.463579,0.109531,0.088025,-0.042973,-0.043897,0.060048,-0.024382,-0.090105,0.144154,2
-0.319162,0.071342,0.094117,-0.016775,0.009315,0.06389,-0.044929,-0.104974,0.131755,2
-0.155384,0.037439,0.154258,0.002802,0.012489,0.058363,-0.056107,-0.090676,0.111506,2
-0.123802,-0.029387,0.119346,0.006977,-0.041425,0.04985,-0.059918,-0.092997,0.115901,2
-0.097414,-0.029651,0.099801,0.074757,-0.069378,0.02919,-0.091633,-0.075764,0.111852,2
-0.013908,-0.09553,0.140685,0.03647,-0.10652,0.022203,-0.076272,-0.105907,0.13098,2
0.028188,-0.104344,0.154033,-0.009112,-0.168563,0.084012,-0.027629,-0.098863,0.145915,2
0.041076,-0.110801,0.123875,-0.03783,-0.15884,0.127092,-0.030269,-0.07576,0.142365,2
-0.037411,-0.072291,0.121276,-0.026542,-0.105082,0.091843,-0.031724,-0.101878,0.158845,2
-0.044425,-0.021878,0.151569,-0.046598,-0.07446,0.083677,0.003346,-0.108895,0.12018,2
0.123794,-0.008481,0.164755,-0.036705,-0.012383,0.053826,-0.005702,-0.122645,0.13696,2
0.114473,-0.008117,0.16359,0.020777,0.021297,0.053221,-0.040942,-0.111503,0.168749,2
-0.006533,0.036305,0.095399,-0.010123,-0.002291,0.06396,-0.053448,-0.111449,0.159244,2
0.023918,0.050569,0.130905,0.001175,0.001051,0.073684,0.005909,-0.124899,0.142711,2
0.030285,0.054437,0.119083,-0.029329,-0.012291,0.09143,0.026634,-0.100322,0.117448,2
0.005751,0.079586,0.087997,0.001127,-0.03382,0.060475,0.022147,-0.091853,0.146427,2
-0.07944,0.090002,0.117019,-0.034664,-0.010229,0.11436,0.038632,-0.117533,0.134722,2
0.005305,0.086144,0.087167,-0.057609,0.020435,0.069637,0.036234,-0.044783,0.171753,2
0.040485,0.10535,0.091928,-0.034472,0.051136,0.022037,0.117041,-0.046547,0.147491,2
-0.061292,0.109446,0.063351,-0.0105,0.043058,-0.007797,0.089496,-0.136051,0.022584,2
-0.003741,0.088804,0.127844,0.108603,0.04407,0.078453,-0.053906,-0.116684,0.106193,2
0.083256,0.060535,0.112465,0.115078,0.006028,0.115574,-0.039182,-0.13311,0.178712,2
0.076546,0.029517,0.163439,0.116949,-0.04081,0.083311,-0.12768,-0.113728,0.185679,2
0.063561,0.02603,0.217729,-0.022642,0.001548,0.11541,0.086706,0.210392,0.301489,2
0.057384,0.052352,0.159559,-0.225475,0.030004,0.088111,0.778468,0.265191,0.337037,2
-0.01233,0.087905,0.027015,-0.386304,-0.027394,0.065534,0.135923,-0.475077,-0.060938,2
0.057566,0.065855,0.052163,-0.285291,0.034555,0.005693,-0.365254,0.035048,0.189132,2
0.068377,0.026025,0.068812,0.038188,-0.2363,0.105008,0.09278,-0.361986,0.157572,2
0.050407,-0.063134,0.172827,0.083286,-0.133577,0.142562,0.088742,-0.209613,0.2606,2
0.054824,-0.101837,0.142004,0.116711,-0.00772,0.074394,-0.12257,-0.073675,0.084767,2
0.165817,-0.155499,0.154274,0.1005,0.07418,0.020503,0.145495,-0.518188,0.062183,2
0.179071,-0.184066,0.020876,-0.011389,0.285035,-0.075312,0.153065,-0.42776,-0.055803,2
0.126425,-0.108332,0.046286,-0.1434,0.397097,-0.084213,0.152501,-0.042035,0.094992,2
0.031742,-0.142087,-0.018282,-0.210401,0.485559,0.052611,0.228765,-0.031795,0.322431,2
0.219292,-0.055819,0.136771,-0.299432,0.123072,0.302458,0.038141,-0.177045,0.262241,2
0.345192,0.06833,0.133876,-0.254758,-0.16068,0.117034,0.035598,-0.057887,0.086192,2
0.17394,0.275672,0.09059,-0.125848,-0.202248,0.038828,0.193755,-0.074364,0.014674,2
0.179458,0.342134,0.267832,-0.01888,-0.127054,-0.01692,0.187258,-0.225599,-0.034834,2
0.386761,0.384839,0.184901,0.057765,0.072665,-0.071922,0.132614,-0.355216,-0.281623,2
0.353006,0.273578,0.200715,0.022354,0.248261,-0.184464,-0.189105,-0.626217,-0.382168,2
0.343549,0.272376,0.174755,0.123947,0.04873,0.030423,-0.191787,-0.684085,-0.46999,2
0.317404,0.098605,0.176625,0.075884,-0.03271,0.064663,-0.29476,-0.768448,-0.452463,2
0.320304,0.016802,0.454661,0.110225,0.008233,0.268796,-0.085251,0.063624,0.521887,2
0.345155,-0.169105,0.560481,-0.0043,-0.03676,0.455984,-0.035932,1.17085,1.358854,2
0.311259,-0.269481,0.478304,-0.227913,0.0146,0.330328,-0.016252,0.851034,1.014345,2
0.530029,-0.099495,0.264268,-0.471102,0.033948,0.110039,0.336759,-0.152896,-0.267477,2
0.029772,0.014545,0.041406,-0.334499,-0.127768,-0.16247,0.008483,-0.130838,-0.48116,2
-0.5492,0.251128,0.06356,-0.230767,-0.139565,-0.190769,0.060419,0.260752,0.07513,2
-0.722485,0.164751,0.04797,-0.203812,-0.140903,-0.087214,-0.273862,0.380289,0.337396,2
-0.612436,-0.129164,0.215041,-0.219706,-0.208049,0.030745,-0.484459,0.173301,0.329691,2
-0.868117,-0.280812,0.028519,-0.163988,-0.275158,0.17202,-0.20002,-0.140286,0.119565,2
-0.800287,-0.675692,-0.142634,-0.207234,-0.377846,0.166556,0.061452,-0.251552,-0.012914,2
-0.440265,-0.896574,-0.213511,-0.284274,-0.437896,0.145606,0.160285,-0.066372,0.153375,2
-0.213433,-0.933755,-0.165512,-0.19901,-0.280973,0.162699,0.113966,0.024039,0.098208,2
-0.733648,-0.62996,-0.414677,-0.130229,-0.141453,-0.01441,0.248435,-0.017249,0.096148,2
-0.578664,-0.541229,-0.309551,0.003872,-0.084768,-0.006374,0.289008,-0.098875,0.032038,2
-0.583241,-0.3901,-0.03903,0.048954,-0.051188,0.092839,0.118175,-0.166784,0.084121,2
-0.593534,-0.183287,0.175876,0.061852,0.039955,0.017044,-0.021221,-0.210036,0.233523,2
-0.588513,-0.019013,0.295345,0.08074,0.142392,-0.003386,-0.098035,-0.39931,0.186043,2
-0.452953,0.058058,0.461658,0.013636,0.152749,0.051941,-0.209236,-0.664438,0.321157,2
-0.251354,0.124925,0.569662,-0.129567,0.173503,0.064687,-0.337754,-0.500247,0.396317,2
-0.065546,0.082934,0.423713,-0.231667,0.195417,0.102647,0.09782,-0.416043,0.218225,2
0.08003,0.020754,0.374821,-0.354505,0.130179,0.102715,0.084071,-0.345732,0.205901,2
0.248578,-0.032599,0.251416,-0.352585,0.103146,0.118476,-0.072463,-0.081471,0.286793,2
0.409922,-0.16072,-0.09277,-0.35412,0.033273,0.036425,0.116575,-0.234593,-0.011882,2
0.313619,-0.181144,-0.212442,-0.325683,-0.055683,-0.01756,-0.051039,-0.230124,0.125918,2
0.384586,-0.156188,-0.360318,-0.247051,-0.005309,-0.146658,0.153117,0.020244,0.036115,2
0.396104,-0.119902,-0.357173,-0.129021,-0.00059,-0.166434,0.855423,0.007478,-0.091279,2
0.448774,-0.076886,-0.179414,-0.006838,-0.00527,-0.056582,0.468961,0.017788,-0.023173,2
0.328781,0.047439,0.069036,0.079754,0.055126,0.139225,0.248387,0.066987,0.042894,2
0.3281,0.153613,0.428891,0.278635,0.244308,0.330315,-0.265428,0.1067,0.071487,2
0.541609,0.468035,0.636719,0.365059,0.300271,0.5629,-0.238321,0.098096,0.149078,2
0.418809,0.7554,0.391943,0.200642,0.138538,0.331481,-0.028134,-0.035953,0.024858,2
0.46849,0.892465,0.430882,0.122192,0.069579,-0.121333,-0.149833,-0.087883,0.047931,2
0.276977,1.079286,0.47896,0.080677,-0.076121,-0.362991,-0.504599,-0.02713,-0.02337,2
-0.074408,0.954756,0.418189,0.081008,-0.281169,-0.362078,-0.293299,0.134404,-0.018062,2
-0.379046,0.796697,0.207302,0.160809,-0.389837,-0.34601,-0.008408,0.12603,0.035133,2
-0.478362,0.539807,0.159602,0.278595,-0.450888,-0.188343,0.001586,0.169357,0.019732,2
-0.317484,0.239572,0.204535,0.377597,-0.525366,0.115888,-0.108356,0.086972,0.186193,2
-0.268589,-0.027658,0.130804,0.542614,-0.479298,0.259095,0.131556,0.132851,0.181417,2
-0.317753,-0.228725,0.099601,0.534663,-0.44488,0.425282,0.178214,0.20827,0.183555,2
-0.329723,-0.366673,0.029883,0.500446,-0.413965,0.512346,0.044508,0.180699,0.17508,2
-0.25925,-0.457561,-0.095901,0.407524,-0.385759,0.410041,-0.06337,0.150297,0.133454,2
-0.320327,-0.472274,-0.180748,0.282193,-0.286911,0.169777,-0.056344,0.222855,0.178134,2
-0.361839,-0.484825,-0.212828,0.22512,-0.203611,0.12499,-0.108508,0.434874,0.224889,2
-0.298306,-0.462962,-0.119243,0.154484,-0.129482,-0.031123,-0.057059,0.169349,0.229686,2
-0.288653,-0.348712,-0.013645,0.150035,-0.016613,-0.229536,0.172022,0.046148,0.117368,2
-0.556082,-0.239421,0.05608,0.126003,0.098589,-0.309586,0.104968,0.05937,0.164943,2
-0.516531,-0.081261,0.236215,0.104404,0.186183,-0.300412,0.116589,-0.04869,0.119871,2
-0.413087,0.100784,0.259404,0.095693,0.301106,-0.190282,0.138956,-0.217863,0.001178,2
-0.372476,0.250272,0.208074,0.022667,0.422883,-0.03966,-0.057285,-0.207745,0.136721,2
-0.299388,0.312898,0.059054,-0.054687,0.536311,-0.091627,0.104521,0.099744,0.159705,2
-0.086669,0.336147,0.207181,-0.064502,0.496997,0.072588,-0.436528,0.070245,-0.027994,2
0.024143,0.286241,0.362833,-0.042043,0.422928,0.243661,-0.268864,0.151308,0.19075,2
0.161899,0.249488,0.434192,-0.107432,0.331426,0.300031,-0.043642,0.410507,0.332239,2
0.176909,0.23045,0.164837,-0.167123,0.118284,0.208815,0.030663,0.41939,0.133107,2
0.221556,0.238826,-0.069213,-0.245072,-0.091243,0.057871,-0.075781,0.19356,0.061466,2
0.409483,0.217594,-0.108677,-0.270104,-0.19081,0.003288,0.007013,0.156708,0.066371,2
0.544365,0.13442,-0.232325,-0.255682,-0.264108,-0.061481,-0.099061,0.202409,0.124669,2
0.508564,0.084215,-0.081138,-0.078583,-0.260168,0.058254,0.204067,-0.004923,0.093711,2
0.377393,0.089024,0.182857,0.07986,-0.253772,0.193174,0.110582,-0.027904,0.117727,2
0.287033,0.121088,0.219316,0.142835,-0.242936,0.206202,0.019917,0.051597,0.141572,2
0.242563,0.247689,0.367293,0.245532,-0.237558,0.24011,-0.072524,0.074125,0.193266,2
0.076392,0.334802,0.543682,0.28598,-0.294013,0.273125,0.045807,0.082681,0.227245,2
-0.073845,0.282355,0.44374,0.242753,-0.325935,0.173545,0.173257,0.027589,0.157793,2
-0.185858,0.341315,0.13219,0.157547,-0.361597,-0.126875,0.040788,-0.130033,0.007715,2
-0.357863,0.218808,-0.108112,0.048255,-0.323691,-0.222638,0.091083,-0.082235,-0.00646,2
-0.046461,0.022803,-0.067761,-0.041333,-0.271495,-0.12465,0.124205,0.044462,0.106995,2
-0.016444,-0.126311,0.0492,-0.058621,-0.206553,0.070115,0.017705,0.124125,0.164606,2
-0.085371,-0.268642,0.14933,-0.102886,-0.082737,0.200339,0.007751,0.110569,0.160433,2
-0.281529,-0.124372,0.187714,-0.150768,-0.062745,0.28674,0.071218,0.132006,0.134665,2
-0.125243,-0.088474,0.111908,-0.22517,-0.084034,0.176431,0.138045,0.054519,0.13363,2
-0.235924,-0.07085,0.021139,-0.203144,0.001567,0.070092,0.141584,0.02453,0.103751,2
-0.231328,-0.162572,-0.037828,-0.153712,-0.024259,0.040488,-0.089515,-0.010449,0.091769,2
-0.044429,-0.121312,0.058144,-0.072804,-0.050107,-0.022232,-0.120366,0.068964,0.107648,2
-0.149013,0.096623,0.117734,-0.021143,0.002256,-0.033584,-0.10614,0.093414,0.158859,2
-0.299462,0.031602,0.027658,0.027023,-0.044602,0.005555,0.033929,0.09821,0.097607,2
0.073195,-0.026843,0.111707,0.146168,-0.057968,0.016657,-0.00282,0.040102,0.108525,2
-0.047644,-0.003036,0.079141,0.175451,-0.011431,-0.000288,0.017564,0.02053,0.096588,2
-0.020027,-0.132074,0.051874,0.185204,-0.022686,0.057072,-0.028509,0.010417,0.159673,2
0.096573,-0.244631,0.01934,0.158748,-0.081172,0.003759,0.035876,0.009509,0.142126,2
0.205291,-0.282304,0.077225,0.114297,-0.053195,0.006346,-0.002003,-0.046698,0.109995,2
0.104397,-0.20427,0.069921,0.036761,-0.068735,0.014767,-0.000176,-0.049017,0.114539,2
-0.073292,0.003336,0.144805,0.006462,-0.126585,0.022908,0.030899,-0.013751,0.091869,2
-0.109765,0.099072,0.188442,-0.009699,-0.103548,0.077357,-0.018243,0.008832,0.147048,2
-0.157431,0.217586,0.214478,0.030566,-0.046692,0.1057,0.017614,0.037927,0.154758,2
-0.225376,0.232778,0.170518,0.033486,-0.080076,0.043267,0.011939,0.020941,0.127588,2
-0.166144,0.224773,0.128231,0.008224,-0.044407,0.037893,0.041137,0.018617,0.09615,2
-0.173428,0.214137,0.188753,-0.007288,-0.041814,0.070622,0.014718,0.057095,0.157809,2
-0.076002,0.158128,0.18812,-0.013026,-0.036933,0.053788,0.01475,0.040567,0.109857,2
-0.03277,0.082025,0.164445,0.007011,-0.029433,0.059963,0.017947,0.019133,0.122466,2
0.127203,0.021174,0.181832,0.003184,-0.058943,0.105319,-0.010042,0.029281,0.134165,2
0.170894,-0.028841,0.140855,0.014853,-0.082068,0.072701,-0.038571,0.071906,0.151844,2
0.111621,-0.049409,0.074224,0.004349,-0.10476,0.061976,0.026128,0.040998,0.10171,2
0.129274,-0.05981,0.074294,0.013559,-0.117639,0.036636,0.030625,0.071594,0.116531,2
0.139939,-0.066046,0.068112,0.047291,-0.112426,0.022492,-0.031247,0.057054,0.155888,2
0.037558,-0.029844,0.099044,0.061921,-0.113413,0.066575,0.072884,0.123027,0.129434,2
-0.06525,0.038994,0.067667,0.091342,-0.111237,0.075664,0.035655,0.188782,0.188361,2
-0.141527,0.06777,0.045706,0.0717,-0.090222,0.06022,0.109553,0.11946,0.115944,2
-0.145343,0.053919,0.087007,0.019834,-0.051147,0.072752,0.048658,-0.062566,0.083312,2
-0.139192,0.059458,0.143987,-0.020511,-0.07779,0.106541,0.020491,-0.053705,0.093096,2
-0.196156,0.053258,0.096682,-0.034683,-0.079264,0.081697,0.012085,-0.063914,0.114422,2
-0.183366,0.04975,0.193506,-0.047413,-0.083098,0.104474,0.04394,-0.034855,0.141484,2
-0.12683,0.036703,0.203855,-0.000472,-0.121876,0.134782,0.00394,-0.023127,0.115639,2
-0.076544,0.018551,0.193423,0.015413,-0.068074,0.111034,0.015753,0.030607,0.148318,2
0.016014,-0.004028,0.179711,0.06419,-0.080978,0.037582,0.027323,0.027381,0.154482,2
0.035631,-0.034928,0.194703,0.119458,-0.056385,0.065881,-0.022605,-0.044413,0.079857,2
0.068755,-0.018686,0.148562,0.12256,-0.062647,0.040595,-0.139728,-0.08185,0.123664,2
0.074835,-0.030763,0.065126,0.140522,-0.075694,-0.07909,0.008554,-0.014087,0.089801,2
0.002775,-0.002295,0.1545,0.091595,-0.060204,0.017694,0.011403,0.040727,0.111984,2
-0.144405,-0.004892,0.253586,0.142682,-0.056693,0.09116,-0.070496,-0.002299,0.187971,2
-0.096684,0.017246,0.155746,0.137354,-0.002918,0.016277,0.237318,0.258424,0.093802,2
-0.172274,0.069829,0.178328,0.126314,0.126061,0.027073,0.071296,-0.051558,0.079602,2
-0.342992,0.095961,0.115932,0.192366,0.126421,0.049921,-0.29499,0.049435,0.125912,2
-0.296096,0.062498,0.062627,0.246541,0.045976,-0.090679,-0.250779,0.037852,0.154412,2
-0.316024,0.094517,0.0557,0.274173,-0.00959,-0.06272,-0.203649,0.090499,0.096374,2
-0.389237,0.124456,0.10302,0.247626,-0.157035,-0.048523,-0.201299,0.117804,0.162607,2
-0.361288,0.213774,0.087435,0.214275,-0.255466,-0.02094,-0.176801,0.285494,0.175979,2
-0.417805,0.288124,-0.012604,0.140464,-0.374518,0.098277,-0.210048,0.238537,0.094296,2
-0.196466,0.403213,-0.024514,0.107851,-0.526442,0.143285,-0.234486,0.252509,0.11478,2
-0.092247,0.424254,0.069817,0.107505,-0.6296,0.213884,-0.187324,0.310726,0.126317,2
-0.033405,0.493615,0.391657,0.253252,-0.645574,0.38115,-0.574721,0.169365,0.195472,2
-0.012703,0.489797,0.666214,0.44262,-0.607258,0.42905,-0.695924,0.162387,0.297038,2
-0.154507,0.509414,0.862003,0.52238,-0.579045,0.377683,-0.100104,-0.025953,0.173454,2
-0.3911,0.481887,0.27713,0.556805,-0.61483,-0.125883,0.341017,-0.068939,0.050539,2
-0.370502,0.39108,-0.044496,0.596876,-0.668318,-0.302668,0.426842,0.154093,0.044706,2
-0.205258,0.208019,0.085332,0.532761,-0.47264,-0.144837,0.088354,0.494513,0.178041,2
0.063995,0.161171,-0.076553,0.48337,-0.26082,-0.038902,0.119572,0.693522,0.143646,2
0.035212,0.083856,-0.160583,0.35378,-0.104178,-0.051821,0.093284,1.150326,0.386637,2
-0.023631,0.089456,-0.270282,0.12864,0.044153,-0.238839,0.468112,0.805147,-0.019607,2
0.272167,0.183636,-0.238049,0.061221,0.077504,-0.357558,0.612377,0.214503,-0.163242,2
0.219174,0.060216,-0.071325,-0.042474,0.123857,-0.223851,0.546492,-0.010449,-0.245415,2
-0.055187,0.011726,0.164836,-0.023646,-0.063597,0.09744,0.254659,-0.506858,0.12123,2
0.108117,-0.061024,0.331218,-1.289241,0.321076,0.436736,0.011886,-0.782222,0.224225,2
0.415257,-0.157704,0.313025,-2.46669,0.820807,0.604357,-0.236444,-0.834443,0.080494,2
0.488625,-0.21096,0.179347,-1.635836,1.112221,-0.088317,-0.061604,-0.287037,0.235045,2
0.657041,-0.251457,0.037088,-0.416177,0.628331,-0.161155,0.404871,-0.074394,-0.01208,2
0.741227,-0.358051,-0.120742,0.028724,0.05212,-0.13219,0.519003,-0.011644,-0.034407,2
0.740857,-0.49531,-0.086841,0.206693,-0.193239,-0.113763,0.13121,-0.06478,0.103716,2
0.661342,-0.611868,-0.022723,0.25748,-0.137849,-0.064752,-0.176178,-0.261257,0.333684,2
0.418647,-0.69884,0.095706,0.241478,-0.275918,0.206955,-0.418944,-0.259273,0.212983,2
0.238366,-0.671939,0.003666,0.347355,-0.399271,0.334342,-0.134188,-0.249491,0.112641,2
0.384822,-0.532507,-0.037172,0.291,-0.253485,0.135338,0.191014,-0.166038,0.143087,2
0.181884,-0.320777,-0.107776,0.196634,-0.070588,-0.071793,0.260833,0.156662,0.174403,2
-0.250918,0.047549,-0.05853,0.188406,-0.117364,-0.064288,0.214294,0.253922,0.082689,2
-0.839386,0.535262,0.157943,0.117842,-0.110327,-0.059729,0.164718,0.530614,0.047934,2
-0.928475,0.784838,0.083594,0.038589,-0.030073,-0.131845,0.109695,0.402697,0.079855,2
-0.986438,0.80034,0.178174,-0.132172,0.132972,-0.067185,-0.043981,-0.000941,0.314616,2
-0.739465,0.54496,0.301936,-0.211081,0.240341,0.078083,-0.075338,-0.323026,0.444923,2
-0.409707,0.316776,0.67564,-0.246696,0.29983,0.212419,-0.373368,-0.652452,0.313307,2
-0.293816,-0.031011,0.80908,-0.254471,0.401473,0.232389,-0.212273,-0.863152,0.230027,2
0.117602,-0.165685,0.666135,-0.159524,0.304662,0.162899,-0.077921,-0.728798,0.199937,2
0.536452,-0.358215,0.244815,-0.135033,0.045466,-0.070204,0.383286,-0.15202,0.390558,2
0.823842,-0.419783,-0.078587,-0.09797,-0.256583,0.105342,0.84064,-0.651319,0.027397,2
1.044417,-0.330231,-0.211382,-0.197341,-0.230693,0.149207,0.395451,-0.266587,-0.100101,2
1.001606,-0.402012,-0.294894,-0.15798,-0.102814,0.11497,0.161439,0.207169,-0.117877,2
0.816315,-0.418856,-0.205523,-0.19521,-0.168277,0.287839,-0.137643,0.046204,-0.074243,2
0.65039,-0.347823,0.027881,-0.121831,-0.100385,0.331712,-0.552182,0.285996,0.085867,2
0.243554,-0.198994,0.05656,0.050215,-0.172661,0.12723,-0.398423,0.47463,0.251215,2
-0.188634,0.036132,0.167747,0.04664,-0.191075,0.175897,-0.135308,0.347484,0.212329,2
-0.037975,0.150167,0.076593,-0.114392,-0.11718,0.13028,-0.061378,0.305234,0.13701,2
0.418093,0.261985,0.129819,-0.203804,-0.120482,0.053502,0.067264,0.136095,-0.005475,2
0.360245,0.35381,0.001081,-0.22716,-0.19473,-0.046782,0.418028,0.065529,-0.032907,2
-0.235747,0.301121,0.113356,-0.322871,-0.211363,0.021561,0.399472,0.15844,0.108803,2
-0.468012,0.209681,0.111958,-0.342299,-0.29159,0.15163,0.168468,0.002384,0.334234,2
-0.168701,0.119006,0.242767,-0.261533,-0.238995,0.21412,-4.2e-05,-0.305039,0.120869,2
-0.028188,-0.015923,0.261391,-0.17075,0.004227,0.084604,-0.129704,-0.327613,0.103271,2
-0.016179,-0.152629,0.411654,0.046739,0.147116,0.107471,0.064947,-0.418912,0.030548,2
0.178808,-0.217271,0.215642,0.089666,0.275429,-0.020878,-0.0305,-0.326353,-0.064416,2
0.239351,-0.261206,0.024783,0.15011,0.343595,-0.190337,-0.063264,-0.323194,-0.058872,2
0.32924,-0.234738,-0.099517,0.060788,0.150923,-0.16469,-0.031424,-0.303721,0.070043,2
0.297856,-0.229221,0.086715,0.062961,0.059344,0.006417,0.020074,-0.046015,0.241091,2
0.022771,-0.158746,0.210426,0.010107,0.01475,0.130433,0.018001,0.137289,0.300097,2
-0.069356,-0.069618,0.205991,-0.115755,-0.101662,0.10505,-0.076933,0.131608,0.212188,2
0.080454,-0.025988,0.271387,-0.10073,-0.203439,0.109781,-0.267605,-0.019452,0.086555,2
-0.113544,0.096448,0.147435,-0.064233,-0.246979,0.080317,-0.353507,-0.09413,0.075408,2
-0.500157,0.194119,0.036712,-0.008013,-0.160876,0.077938,-0.271198,-0.108293,-0.021317,2
-0.690259,0.20406,-0.069635,-0.00317,-0.149792,0.202825,-0.313801,0.106801,-0.003374,2
-0.418336,0.11982,0.027663,-0.025044,0.164043,0.178596,-0.174074,0.04041,0.213984,2
-0.301812,-0.019763,0.190926,-0.01817,0.130005,0.110929,-0.109503,-0.010141,0.281475,2
-0.404741,-0.102184,0.295297,-0.078824,0.222864,-0.182363,-0.008436,-0.044437,0.050734,2
-0.411684,-0.14918,0.435098,-0.024797,-0.020247,-0.204228,0.0778,-0.052256,0.107862,2
-0.331452,-0.18401,0.382211,-0.055488,-0.097329,-0.173988,0.085334,-0.182504,0.278335,2
-0.114272,-0.148995,0.156166,0.084626,-0.228357,-0.096166,0.17491,-0.239579,0.210095,2
-0.008183,-0.155196,0.059972,0.160175,-0.460327,0.023643,0.199962,-0.295884,0.130219,2
0.016989,-0.136699,-0.002016,0.106317,-0.568328,0.121306,0.105453,-0.203302,0.095585,2
0.205401,-0.075347,0.055305,0.06996,-0.620141,0.272471,0.085132,-0.130667,0.139887,2
-0.28925,0.048215,0.089393,-0.008246,-0.468017,0.250949,0.078009,-0.023528,0.180604,2
-0.801814,0.273458,0.054011,-0.072639,-0.143841,0.132263,0.033451,0.07109,0.11912,2
-1.65344,0.228867,0.319679,-0.189581,0.113098,0.133221,-0.169213,0.203092,0.245465,2
-0.349733,0.077202,0.123993,-0.164693,0.254265,0.042347,-0.150741,-0.056889,0.251076,2
0.565085,0.430566,0.244901,-0.030682,0.317594,0.02128,-0.033016,-0.139219,0.006067,2
0.404602,0.187703,0.029757,0.101302,0.315274,-0.049802,-0.032704,-0.134591,0.013103,2
-0.050442,-0.08692,-0.030648,0.081437,0.246546,-0.078339,0.103886,-0.098647,0.080503,2
0.264995,-0.145432,0.04593,-0.009014,0.142645,-0.045549,0.158944,-0.141395,0.17674,2
0.896812,-0.072847,0.076401,-0.123117,0.092625,0.03648,0.230506,-0.054475,0.191942,2
0.809747,-0.184779,0.004027,-0.232257,-0.090567,0.092123,0.183961,-0.12603,0.080022,2
0.769031,-0.209749,0.034165,-0.077555,-0.11612,0.105653,0.001113,-0.167128,0.097475,2
0.91133,-0.09936,0.046,-0.047727,-0.215484,0.012796,-0.047207,-0.080519,0.226907,2
0.854153,-0.000333,-0.011322,-0.019909,-0.3429,0.045383,-0.027859,-0.140007,0.172102,2
0.588872,0.040186,0.080415,-0.017658,-0.24506,-0.014201,-0.045816,0.072195,0.217786,2
0.443863,0.158594,0.214641,0.007776,-0.212413,0.050001,0.124694,0.066494,0.138222,2
0.229978,0.194077,0.264491,-0.044468,-0.154149,0.121449,0.132754,0.14943,0.164226,2
0.070011,0.231803,0.26884,-0.085533,-0.085523,0.194386,0.196038,0.276655,0.348243,2
0.126039,0.267288,0.24076,-0.283951,0.052287,0.227595,-0.181913,0.320586,0.294834,2
-0.065415,0.115507,0.442789,-0.281106,0.041853,0.30205,-0.338813,-0.361569,0.004843,2
-0.070703,0.060379,0.296053,-0.230185,0.000221,0.061699,-0.394232,-0.203459,-0.008724,2
0.319343,-0.03462,0.294431,-0.050936,-0.117226,-0.042216,-0.305567,-0.040577,-0.053777,2
0.675664,-0.213015,0.300438,0.049501,-0.210279,-0.094224,-0.011155,-0.285859,-0.150546,2
0.483209,-0.454629,0.186117,0.106026,-0.260978,-0.083372,0.071543,-0.433313,-0.164889,2
0.146428,-0.603881,0.080276,-0.016172,-0.359164,-0.079824,0.088787,-0.301797,-0.055962,2
0.365832,-0.631453,-0.00525,-0.262402,-0.24203,0.15906,0.042174,-0.335574,-0.040572,2
0.384839,-0.707545,-0.036342,-0.397936,-0.119592,0.148409,0.077737,-0.464946,-0.189652,2
-0.656899,-0.682683,-0.027645,-0.341736,-0.125824,0.063848,-0.033381,-0.381882,-0.072151,2
-1.239351,-0.641861,0.252173,-0.248226,-0.085926,-0.041987,0.482253,-0.028529,0.38391,2
-0.665864,-0.544879,0.49751,-0.093458,-0.141911,0.095472,1.367669,-0.623966,0.274954,2
-0.141555,-0.357516,0.32811,-0.252075,-0.035782,0.078394,0.320023,0.891934,0.877467,2
-0.7128,-0.1596,0.171474,-0.707752,0.210931,0.033431,-0.341367,0.039026,0.846657,2
-1.106696,-0.033017,-0.271313,-0.19896,-0.164889,-0.001339,-0.230236,0.036207,-0.102341,2
-0.521538,0.090645,-0.455366,0.158809,-0.157788,0.058682,0.791998,0.251952,-0.208797,2
-0.030744,0.062039,-0.362455,0.072094,0.022878,0.209398,0.647121,0.300705,0.052269,2
0.319086,0.053992,-0.193088,0.058492,0.244559,0.244522,0.006028,0.302932,0.1763,2
0.549068,0.035838,0.171324,-0.155093,0.411471,0.107291,-0.010954,-0.056358,0.073636,2
0.73955,0.001819,0.521347,-0.306877,0.40133,0.082941,0.109514,-0.355618,0.151417,2
0.94735,0.037187,0.610617,-0.318472,0.336429,0.023091,-0.324576,-0.421252,0.41629,2
0.898825,0.087062,0.553615,-0.411157,0.342645,-0.026282,-0.576138,-0.559828,0.330144,2
0.943471,0.131804,0.33405,-0.483072,0.23557,-0.018047,-0.071066,-0.559362,0.281081,2
1.071232,0.183021,0.249665,-0.412463,0.025373,0.064814,0.078282,-0.250225,0.271427,2
0.923737,0.142997,0.030687,-0.213525,-0.187101,0.052166,0.560174,0.014126,0.056267,2
0.73912,0.145735,-0.070673,-0.097435,-0.226455,0.051132,0.149491,-0.046843,0.008246,2
0.275431,0.190645,-0.099736,-0.122713,-0.22198,0.03404,0.002394,-0.060497,0.041677,2
-0.06343,0.277336,0.01218,-0.095921,-0.170602,0.071964,-0.243835,-0.261285,0.029182,2
-0.018592,0.381723,0.20877,0.001106,-0.220136,0.2524,-0.145766,-0.122043,0.172471,2
-0.356072,0.379092,0.309519,0.082411,-0.243514,0.244552,0.465231,0.136173,-0.08803,2
-0.826195,0.344334,0.403744,0.201638,-0.114382,-0.013216,0.459609,0.204319,-0.11299,2
-1.131483,0.196301,0.276267,0.306071,-0.142478,-0.17164,-0.356512,0.154168,0.03745,2
-1.217614,0.073613,-0.045382,0.467183,-0.246703,-0.349787,-0.665712,0.192636,0.052798,2
-1.104151,-0.045253,-0.385187,0.533589,-0.247308,-0.516795,-0.428741,0.162884,0.022758,2
-0.884341,-0.270949,-0.379667,0.634464,-0.155391,-0.345148,0.441899,0.341868,-0.008741,2
-0.60489,-0.519783,0.042033,0.737249,-0.004852,0.065425,0.019966,0.37334,0.117578,2
-0.516296,-0.633792,0.466438,0.777313,0.154306,0.52426,-0.535677,0.220437,0.420083,2
-0.643576,-0.75714,0.131382,0.734595,0.255862,0.47804,0.218884,0.786871,0.210783,2
-0.375765,-0.606164,0.169745,0.720623,0.264017,0.505204,-0.067696,0.30709,0.165661,2
-0.073615,-0.221517,-0.329951,0.51858,0.001787,0.051651,0.042524,0.008046,0.105693,2
-0.110002,-0.162293,-0.490666,0.454257,-0.045129,-0.43232,-0.163867,-0.49324,-0.127521,2
-0.219536,0.06167,-0.108042,0.136159,-0.18812,-0.480402,0.142416,-0.297802,0.181438,2
0.157902,0.169905,-0.072738,0.018865,-0.024713,-0.580916,0.941468,0.025482,-0.1658,2
0.242275,0.311866,0.568743,-0.098457,0.061314,0.049733,-0.324811,-0.036128,0.393725,2
0.319892,0.58234,0.331904,-0.201437,-0.206751,0.430577,-0.363876,-0.033009,0.21629,2
0.35924,0.731942,-0.057165,-0.410848,-0.316883,0.184623,-0.052992,0.239656,-0.01342,2
0.199878,0.860492,0.046335,-0.559073,-0.360073,0.030091,0.33738,0.195398,0.009681,2
0.391992,1.075993,0.428509,-0.340317,-0.443547,0.181564,-0.345715,-0.21918,0.197142,2
0.53634,1.082531,0.435822,-0.059512,-0.521011,0.011996,-0.10793,0.145435,0.198831,2
0.417335,1.01604,0.402496,0.071258,-0.44409,0.068019,0.320469,0.238757,-0.080308,2
0.514124,1.034146,0.424808,0.199871,-0.281395,0.310228,0.217862,0.347501,0.188336,2
0.631367,0.914232,0.384726,0.384786,-0.213093,0.39826,-0.174434,0.571083,0.327003,2
0.483867,0.780631,0.251586,0.452017,-0.227683,0.255466,-0.448193,0.599809,0.274014,2
0.189118,0.645442,0.224925,0.416139,-0.25187,0.056986,-0.149592,0.338219,0.050733,2
0.079201,0.480328,0.139842,0.436507,-0.212163,-0.075981,0.229925,0.295119,0.010949,2
-0.081213,0.324927,0.290022,0.410643,-0.11127,0.066459,-0.175534,0.097761,0.213498,2
-0.344134,0.187569,0.096003,0.246219,0.046265,0.05687,-0.454575,-0.50199,-0.291624,2
-0.30479,0.038614,0.082797,0.215564,0.080297,-0.111743,-0.515271,-0.346793,0.315788,2
-0.196096,-0.101465,0.023546,0.176876,-0.165943,-0.177949,-0.057344,0.04057,0.035902,2
-0.302535,-0.266672,-0.074018,0.006258,-0.390589,-0.010954,-0.243279,0.656565,0.195535,2
-0.183828,-0.420172,0.103057,-0.111795,-0.264364,0.0325,0.168423,1.076657,0.292926,2
-0.272868,-0.531096,0.174183,-0.173354,-0.207176,0.055148,-0.026195,0.493561,0.166882,2
-0.437656,-0.529145,-0.046366,-0.238543,-0.18756,0.072847,0.143215,-0.036468,0.034464,2
-0.408849,-0.465641,-0.228324,-0.206,-0.072868,0.158957,0.299431,-0.366677,0.16428,2
-0.232287,-0.363123,-0.124176,-0.125834,-0.033336,0.265872,0.576627,-0.268591,0.022519,2
-0.14126,-0.302154,-0.267412,0.04156,-0.022539,0.25508,-0.288024,-0.109326,0.125354,2
-0.152284,-0.164932,-0.342359,0.127619,0.042387,0.018007,-0.080019,0.320968,0.101638,2
-0.038509,-0.02748,-0.111163,0.168401,0.013001,-0.021998,-0.147343,-0.038602,0.280638,2
0.102446,0.186851,0.057146,0.125986,-0.00508,-0.192677,-0.084434,0.251974,0.105479,2
0.055529,0.292607,0.158819,0.10401,0.019322,-0.228052,-0.255853,0.301463,0.198855,2
0.156226,0.484817,0.142638,0.065991,-0.072207,-0.191303,-0.211507,0.173246,0.109307,2
0.477974,0.644064,0.468934,0.176016,-0.115256,0.034319,0.211139,0.012185,0.022565,2
0.538354,0.813095,0.918436,0.20456,-0.197449,0.391043,-0.065423,0.086698,0.306289,2
0.266446,0.72905,0.725307,0.166119,-0.220383,0.316834,0.083257,0.274833,0.11488,2
0.269923,0.609271,0.517447,0.151985,-0.325254,0.24354,0.148464,0.106154,0.138041,2
0.490341,0.469534,0.377598,0.131237,-0.102917,0.128881,0.227514,-0.086086,0.017942,2
0.647141,0.151628,0.246133,-0.041071,0.055117,0.003469,0.106787,-0.115076,0.100894,2
0.568255,-0.126562,0.096519,-0.049658,0.003892,-0.106209,0.025463,-0.069531,0.010522,2
0.353618,-0.22348,0.244091,-0.15282,-0.012651,-0.077544,-0.057159,0.033049,0.116613,2
-0.367343,0.042191,0.672392,-0.28003,-0.069112,0.119298,0.015281,0.121218,0.118269,2
-1.055197,0.083061,0.220575,-0.447781,-0.217881,0.145278,0.142448,0.131652,0.17772,2
-1.151462,-0.082692,-0.181857,-0.490286,-0.200758,0.079892,0.353483,0.185981,0.117597,2
-0.089581,-0.274323,0.038604,-0.466366,-0.219347,0.014476,0.228591,-0.018013,0.011712,2
-0.680515,-0.310018,-0.09281,-0.257926,-0.186249,-0.032778,-0.101385,-0.039702,0.135634,2
-0.838806,-0.594559,-0.429048,-0.094581,-0.147282,-0.086464,0.112772,0.083921,0.085407,2
-0.758776,-0.765241,-0.386488,0.015112,-0.151517,-0.039335,0.121198,0.043482,0.214648,2
-0.266618,-0.870562,-0.446479,0.119286,-0.143508,-0.030597,0.247747,0.014296,0.040674,2
0.065729,-1.078891,-0.308875,0.189665,-0.097823,0.029748,0.101548,0.031249,0.077539,2
0.395106,-1.171672,-0.17347,0.176615,-0.073432,-0.008204,0.123276,0.032418,0.109536,2
0.570681,-1.172982,-0.16384,0.175578,-0.058423,-0.113925,0.274507,-0.100081,0.093958,2
0.703992,-1.186486,-0.084073,0.140775,-0.082341,-0.111053,0.009973,-0.125579,0.070241,2
0.673646,-1.128727,-0.107437,0.068854,-0.088713,-0.072025,0.068626,-0.040295,0.079595,2
0.459143,-0.916816,-0.079272,-0.011692,-0.065525,0.013126,0.167827,0.13547,0.165217,2
0.89266,-0.646162,-0.026863,-0.035529,-0.039715,0.116871,0.060771,0.196173,0.176722,2
0.515084,-0.026008,0.234991,-0.07825,-0.007156,0.232051,-0.062242,0.136002,0.15078,2
-1.578757,0.02097,-0.091475,-0.113756,0.065022,0.238731,-0.048496,-0.01228,0.064447,2
-1.518017,0.648816,0.149404,-0.145288,0.113435,0.165082,-0.142523,-0.024638,0.161115,2
-0.822599,1.59183,0.860722,-0.181122,0.045519,0.055459,-0.059507,0.063273,0.134616,2
-0.845131,1.555225,0.898041,-0.151725,0.032873,-0.038941,-0.057502,-0.037274,0.084437,2
-0.731391,0.991509,0.505501,-0.131917,0.012846,-0.123683,0.331978,-0.111435,0.088884,2
-0.247923,0.711989,0.357944,-0.032914,0.006853,-0.094515,0.141358,0.11354,0.172994,2
0.270324,0.736992,0.410889,0.084883,0.038427,0.043009,-0.033925,0.255133,0.213619,2
0.710961,0.527174,0.483663,0.147766,0.08148,0.047039,0.053111,0.024222,0.140175,2
1.206549,0.159,0.220666,0.163703,0.102991,0.019513,0.046087,-0.061483,0.053745,2
1.268458,-0.046635,0.138544,0.158914,0.037583,0.01463,-0.079587,0.007213,0.175351,2
1.132704,-0.195873,0.045666,0.1232,-0.069067,0.020146,-0.025818,-0.011499,0.090417,2
0.901331,-0.347836,-0.101585,0.07738,-0.111733,0.020262,-0.116399,-0.040664,0.109385,2
0.695147,-0.451182,-0.184276,0.023416,-0.179704,0.026989,0.100919,0.079192,0.121588,2
0.603148,-0.418275,-0.191419,0.012559,-0.220353,0.038336,0.003561,0.106216,0.144055,2
0.405628,-0.373105,-0.107432,0.031202,-0.228897,0.10794,-0.065571,0.105904,0.13325,2
0.012503,-0.258542,0.072888,0.002326,-0.240632,0.110452,0.017723,0.146609,0.133573,2
-0.345496,-0.031818,0.203179,0.004853,-0.208501,0.056931,0.130456,0.089348,0.099625,2
-0.801,0.076698,0.264162,0.009634,-0.213018,0.097635,0.043634,0.103442,0.118267,2
-1.269379,0.101578,0.204778,0.014543,-0.190815,0.160381,0.02802,0.114433,0.150167,2
-1.432955,0.097668,0.101059,0.011045,-0.139567,0.099006,0.242888,0.232255,0.18386,2
-1.26337,0.052714,0.203237,-0.005607,-0.096679,0.088901,0.140967,0.103546,0.189426,2
-0.730294,0.08831,0.283692,0.063151,-0.117117,0.030949,-0.270581,0.118617,0.157743,2
-0.355822,0.008717,0.279831,0.142103,-0.143269,-0.078727,-0.283661,0.05474,0.138789,2
-0.18593,-0.125908,0.335629,0.232255,-0.144684,-0.110026,-0.195531,0.17013,0.15872,2
-0.023947,-0.146115,0.358942,0.350476,-0.222059,-0.159731,-0.358474,0.206637,0.278729,2
0.088936,-0.16971,0.115427,0.443747,-0.16851,-0.167245,-0.017957,0.001491,0.068392,2
0.207019,-0.090814,0.021057,0.422617,-0.206643,-0.087786,-0.169694,-0.411987,0.059745,2
0.098622,0.048584,0.042148,0.373514,-0.1787,0.070351,-0.0306,-0.161627,0.150285,2
0.181391,0.158624,-0.202856,0.238341,-0.143016,0.027632,0.122218,-0.037929,0.124876,2
0.251458,0.39491,0.011024,0.194001,-0.08231,0.032592,-0.020927,-0.185991,0.057614,2
0.054339,0.656979,-0.174575,0.170889,-0.124817,0.196033,-0.307674,-0.198536,0.052201,2
0.030018,0.965764,-0.103712,0.186982,-0.109258,0.401579,-0.59434,-0.030505,0.191323,2
0.123408,1.407575,0.16769,0.187114,-0.072039,0.483237,-0.313618,0.027554,0.112044,2
-0.044232,1.344217,0.347361,0.196095,-0.169443,0.323547,-0.308345,0.116452,0.12671,2
-0.269649,1.118576,0.523717,0.228539,-0.202603,0.185087,-0.481197,0.247678,0.208257,2
-0.389893,0.946255,0.479339,0.260653,-0.285014,0.131316,-0.519771,0.540887,0.115475,2
-0.066884,0.926605,0.219086,0.321509,-0.294325,0.049812,-0.53161,0.450514,0.087731,2
-0.081304,0.673369,1.000468,0.598358,-0.081304,0.649529,-1.147145,0.41993,0.345408,2
0.089769,0.131366,1.344298,0.691508,-0.071548,0.835579,-0.856927,0.510361,0.367036,2
0.874831,0.032809,-0.061035,0.725093,-0.227364,-0.200559,0.076939,0.606773,0.003331,2
0.114888,-0.385749,-0.770443,0.795065,-0.4906,-0.862237,0.046433,0.504034,-0.005819,2
0.099897,-0.618925,-0.716386,0.973527,-0.567694,-0.682451,0.083696,0.7387,-0.055624,2
0.915008,-0.808595,-0.800361,0.941591,-0.365708,-0.201192,-0.177838,1.34343,0.52653,2
2.402019,-1.03813,-0.213399,0.795869,-0.134826,0.290836,-0.081823,2.151499,0.462143,2
2.365117,-1.53269,-0.063191,0.506287,0.20938,0.104176,-0.446664,2.915269,0.26761,2
-0.413296,-1.593425,-0.481359,0.359516,0.087198,-0.46792,1.285287,1.603649,-1.190894,2
-2.437631,-0.296895,-1.221626,0.379566,-0.185786,-0.999223,2.690681,0.630694,-2.461223,2
-3.262941,0.292142,-1.840405,0.667734,-0.725034,-0.569287,0.492141,-3.449892,-0.428661,2
-2.788684,0.048605,-0.163839,-3.900808,0.616224,0.600295,-3.621433,-4.331815,3.327615,2
-0.042876,0.327228,0.336325,0.095406,0.37649,-0.066442,-0.026812,-0.080378,0.157208,3
-0.076549,0.573831,0.791034,0.068753,0.497676,-0.206393,-0.055789,-0.068848,0.114462,3
0.093014,0.86398,0.626059,0.063662,0.705041,-0.471066,-0.046022,-0.050967,0.12254,3
-0.005991,0.825853,0.786372,0.559343,0.615468,-0.924428,-0.106224,-0.005533,0.109712,3
0.1136,0.906756,0.729232,0.374312,0.821407,-0.662384,-0.074266,0.07569,0.125727,3
-0.024422,1.099427,0.826528,0.037744,1.707772,0.197236,-0.083469,0.147623,0.151984,3
-0.18331,0.681923,0.580308,-0.857858,1.131112,0.22548,0.115206,0.122275,0.140281,3
-0.125151,-0.356016,0.550982,-0.825892,-0.357981,1.368994,0.002178,0.12376,0.225871,3
-0.048929,-0.756385,-1.003095,-0.130467,-3.199222,0.66276,0.174907,-0.075879,0.290445,3
0.05252,-1.414179,-0.879113,0.099519,-3.356101,2.217115,0.520383,-0.540843,0.169267,3
-1.529972,-3.191885,-0.858299,-0.924629,-3.359477,2.940142,0.12544,-0.443552,0.033821,3
0.128308,-3.520179,-2.101484,-0.713902,-2.711509,2.005027,-0.279536,0.000574,0.183821,3
0.4849,-3.042911,-2.280817,0.173832,-2.135728,0.738004,-0.603245,0.175151,0.247512,3
-0.506594,-1.315025,-2.620802,-0.887805,-1.551068,-0.511167,-0.444493,0.230015,0.184756,3
-2.042318,1.536215,0.18192,-0.126027,-0.426329,-1.156219,-0.564463,0.19365,0.234062,3
-1.039369,3.060938,0.39045,1.161782,0.357899,-0.846827,-0.498994,-0.083488,0.033565,3
-1.227947,2.598288,1.930737,0.618292,2.55254,0.185748,-0.621528,0.096738,0.083062,3
-0.73543,2.771238,2.405121,0.9311,1.995048,-1.785072,-0.824616,0.284859,0.24339,3
-0.745223,2.826027,1.896115,1.075484,1.281353,-3.482003,-0.58391,0.131536,0.197047,3
0.308432,1.49818,1.648393,1.053355,3.559165,-1.168772,-0.285106,0.260448,0.059424,3
-0.485201,3.232691,0.956392,1.73759,3.670824,-1.883407,-0.315483,0.068854,-0.017579,3
0.060286,1.877864,1.700704,0.587491,3.43323,-3.352021,-0.59914,0.445829,0.040566,3
1.485434,0.893928,1.624874,0.2924,3.123084,-3.309137,-1.300989,0.953137,0.281416,3
1.263813,1.270137,-0.135256,1.026881,1.882429,-4.384267,-1.410232,1.200467,0.516467,3
2.465791,-0.390492,-0.563145,0.108674,2.209148,-0.425924,-0.602121,1.282668,0.553224,3
2.533169,-1.127756,-1.502143,-0.40015,0.828125,0.515813,1.081103,-0.622121,0.167081,3
2.05639,-2.19954,-2.562672,-1.085196,-0.485949,1.041273,2.562922,-3.013861,-0.265546,3
2.620553,-3.769467,-2.495114,-1.625287,-0.182869,2.125516,1.022965,-2.917158,0.476228,3
1.981245,-4.68381,-3.794788,-1.06083,-0.036879,1.205106,1.342997,-2.536557,0.757013,3
0.205115,-8.549389,-0.277293,-2.906357,0.403814,2.10134,0.367232,-1.997578,0.318514,3
0.915851,-6.958154,-4.153878,-2.486033,1.786241,2.13771,-0.283568,-1.276875,0.017306,3
-2.119313,-6.810321,-4.921444,-2.529802,2.234372,2.088415,0.197847,-0.692339,-0.089659,3
-3.707476,-6.086798,-4.543346,-2.372562,2.495773,1.029269,0.491833,-0.157808,-0.255169,3
-5.43725,0.150685,-0.822025,-1.36388,2.42101,0.043226,0.222987,-0.232276,-0.552863,3
-1.36833,1.438716,1.089097,-0.784706,2.590683,-0.034781,0.138839,-0.330559,-0.65202,3
0.378993,2.58302,6.070041,1.151548,2.068945,0.952063,0.171119,-0.561099,-0.427608,3
3.215448,4.441673,5.575086,2.235974,0.260039,-0.8784,0.519227,-0.820272,-0.03016,3
3.541114,3.30428,6.313507,2.959507,0.203357,-1.774866,0.797068,-0.787598,0.345813,3
3.24362,3.197892,4.70066,2.830312,-1.136017,-2.462532,0.863324,-1.141805,0.447991,3
2.596689,2.217278,2.416558,3.290273,-2.682202,-0.795711,0.1477,-1.000719,0.005021,3
1.334727,0.240564,2.009792,2.252212,-2.636176,0.325795,-0.352824,0.036576,-0.211647,3
0.397291,-1.066971,0.363419,0.924313,-1.76009,0.081833,0.22523,0.753564,0.051294,3
-0.535767,-1.718084,-0.178285,-0.051067,-1.37821,0.137144,0.457633,1.375919,-0.242261,3
-0.932111,-2.509335,-1.02485,-0.7872,-2.029129,0.007903,0.128421,1.985075,-0.325723,3
-1.863269,-3.067234,-1.637594,-2.53444,-0.423102,1.043129,0.236161,1.713196,-0.366665,3
-1.919804,-3.11662,-2.133662,-3.138142,-0.124326,1.363935,-0.228598,1.450532,-0.266742,3
-2.495498,-2.784402,-3.510484,-3.254159,0.175299,1.12344,0.030381,1.043422,0.544571,3
-2.038349,0.35154,-2.618454,-3.103092,1.04459,0.85825,0.412042,1.358018,1.363627,3
-1.582847,-0.982525,-4.351094,-2.564781,1.194731,0.765381,1.532123,-0.087828,1.291309,3
-3.138538,-0.855157,-2.213955,-2.120839,1.222158,0.411909,0.904922,-1.64059,-0.44742,3
-2.357644,0.57853,-3.538797,-1.728246,1.714687,0.043512,-0.106294,-0.333022,-0.644269,3
-1.11817,3.287576,-4.222193,-0.774564,1.231153,-1.087787,-1.190242,1.297405,0.846612,3
-2.61252,3.262453,-0.468838,-0.015028,-0.038507,-0.492612,-0.968515,0.738949,0.223921,3
-0.399307,5.281746,0.810137,0.87691,1.901828,-0.258554,-0.485218,-0.124014,-0.032005,3
-1.028583,4.647513,0.978599,0.299712,-0.926261,-3.447428,-0.295216,-0.624145,-0.06112,3
0.633645,2.905298,8.577803,-0.690277,-0.439693,-3.409043,-0.402158,-0.492258,0.199765,3
1.593435,1.470614,4.571071,1.235918,-2.208886,-2.209148,-0.832729,0.237099,0.171379,3
1.452395,-0.181048,5.137809,1.193199,-2.506603,3.051789,-1.017333,0.550928,0.077938,3
1.357351,-0.234731,3.224348,1.529811,-2.396843,1.027903,-0.860144,0.658721,0.15122,3
2.562418,1.74009,1.197362,0.830971,-1.729837,0.312794,-0.623421,0.748697,0.180356,3
1.803839,1.609506,0.714627,0.041872,-1.097036,0.200549,-0.557048,0.644606,0.131215,3
0.626957,1.371163,0.19622,0.227339,-0.881723,0.043133,-0.298723,0.210036,0.165886,3
0.414893,2.210104,-1.243808,-0.297106,-1.021951,0.577594,0.02161,-0.265851,-0.014153,3
-0.397427,2.15162,-1.408866,-0.978967,-1.687872,1.771461,-0.176696,-0.07383,0.102382,3
-1.143862,2.224116,-2.29423,-1.401753,-2.319477,3.149323,-0.240079,0.127971,0.312325,3
-1.491199,1.713098,-3.24663,-1.592743,-2.76857,3.500793,-0.09916,-0.205136,0.06308,3
-1.748212,0.974337,-2.918793,-1.302264,-3.407052,5.242051,-0.177703,-0.087098,0.055811,3
-2.372316,0.132724,-2.537386,-0.146604,-3.144088,4.972795,-0.046179,0.256446,0.166952,3
-0.982311,6.28926,-4.410949,1.946993,-3.382756,6.021687,-0.026592,0.545121,0.125552,3
-2.790172,2.846442,4.46586,2.92601,-1.84701,3.488898,0.041556,0.520055,0.106383,3
-1.210701,0.898302,6.257275,2.633288,0.483828,2.181467,-0.116711,0.517048,0.113287,3
0.243913,-1.425176,4.686518,1.635414,-0.01589,0.11777,-0.143863,0.335295,0.179225,3
1.686691,-0.657598,3.63727,0.458119,-0.036163,1.099855,-0.334572,0.256182,0.181433,3
1.232212,-1.024127,3.638338,-0.343949,1.097703,1.736794,-0.594325,0.391669,0.042901,3
1.667091,-0.632626,3.299848,0.583229,1.577306,0.472518,-0.704967,0.513839,0.112331,3
1.562868,1.195019,2.655308,0.289625,2.150052,-2.040977,-0.528167,0.338691,0.135361,3
0.283377,-0.157548,3.093826,-0.966941,0.804001,-4.361779,-0.018785,0.277371,0.063018,3
0.151213,0.875479,4.534581,0.211382,1.163676,-4.731866,0.094743,0.266806,0.201737,3
0.223059,1.124464,2.613757,-1.035958,4.163409,-5.13688,0.187804,0.068158,0.125325,3
-0.169746,-1.830352,2.81157,0.535886,1.093476,-6.912421,0.205132,0.032928,0.124521,3
-0.636208,-0.735985,3.23527,3.267353,2.983976,-5.551531,0.37894,-0.376893,-0.000732,3
-0.139421,0.293942,1.230853,3.368462,1.341499,-7.036233,0.283163,-0.527397,0.069299,3
-1.084747,0.334033,-0.176237,2.722786,0.7706,-6.85118,0.077172,-0.450946,0.086901,3
0.528527,-1.70272,-1.708455,1.160812,1.882385,-5.231335,0.073342,-0.199664,0.213112,3
-1.187311,-2.431722,-2.624942,-0.206238,2.038799,-0.338027,0.032881,-0.688348,0.22508,3
-1.004672,-2.307856,-4.222165,0.290216,1.316318,3.505167,0.131927,-1.00103,0.176296,3
0.190564,-1.399641,-6.54938,-1.744517,0.762172,8.997665,-0.144504,-1.000117,0.294577,3
-3.263468,-6.486113,-5.864318,-2.950134,-0.618747,9.650658,-0.335855,-0.805247,0.128749,3
1.436687,0.138384,-7.212432,-3.365703,-0.328367,9.135962,-0.438724,-0.314793,0.20309,3
2.445524,-1.040599,-7.99649,-2.786254,1.196179,6.422953,-0.588357,0.060883,0.124243,3
3.600188,0.363332,-7.958409,-2.397575,1.635181,3.437208,-0.441736,0.399441,0.061404,3
-2.733399,-2.580201,0.142498,-0.783949,0.609384,0.750691,-0.272249,0.587645,0.011111,3
-2.203834,-0.004005,5.673231,-0.274719,0.679007,-2.037283,-0.190075,0.620497,0.002744,3
-0.182927,2.986969,5.695441,-0.407969,-0.237122,-3.789804,0.058752,0.38367,0.101941,3
0.455526,2.090376,5.532012,0.335448,-0.045651,-5.84161,0.39515,-0.188615,0.277045,3
-0.272647,-0.056171,5.317406,1.607426,0.664361,-5.297081,0.136276,-0.293835,0.254201,3
0.146735,-0.312629,3.861585,0.358452,2.237345,-6.998838,0.09482,-0.409523,0.144653,3
1.305854,-0.373358,0.8146,2.413426,1.477378,-4.379624,0.374653,-0.433832,0.099161,3
0.654099,-0.289718,0.208591,2.318321,0.041024,-3.260392,0.228104,-0.257958,0.377981,3
1.048647,-0.752036,-2.103207,0.607157,-1.611193,-1.118496,0.30802,-0.555658,0.415673,3
0.502952,-1.830679,-3.706223,0.355058,0.167692,3.052356,0.281131,-0.556469,0.163956,3
-5.178186,-3.48094,-2.344683,-1.695401,0.706936,4.74559,0.079793,-0.552181,0.099531,3
6.438378,2.893483,-7.570531,-3.983217,3.239259,4.627645,-0.050221,-0.417498,0.262444,3
3.598929,-2.202714,-7.386839,-2.305344,-0.034786,2.198161,0.098901,-0.247604,0.284363,3
-4.12912,-1.338119,-6.256352,-0.743976,1.244756,0.373054,0.15707,-0.010483,0.241766,3
-4.468812,-0.27239,3.379988,0.837202,2.198217,-1.506267,0.208721,-0.04475,0.176285,3
-0.735971,0.405379,3.999309,1.172606,1.195322,-3.424367,0.428709,-0.274363,0.107398,3
2.306978,1.021913,2.414805,0.639314,0.098667,-5.928701,0.468605,-0.583536,0.256725,3
0.754473,0.219491,3.166088,1.022855,1.695351,-6.459556,0.350827,-1.126386,0.164392,3
-1.582187,-3.444913,1.930753,2.44493,3.368326,-6.031916,0.200863,-0.939283,0.018913,3
-0.750522,-3.870947,1.257804,1.49647,1.007564,-6.410519,-0.180695,-0.343077,-0.213375,3
0.330188,-1.690085,-0.343909,2.794568,1.532605,-4.331328,-0.201224,0.023963,-0.111685,3
1.399624,-0.590587,-1.827644,2.314342,3.257382,-2.612315,0.096585,0.142485,-0.090165,3
0.682687,-1.03983,-1.692606,1.369294,1.985823,-2.431528,0.269536,0.334938,0.067657,3
1.403769,-2.695978,-2.94052,1.286405,0.713875,-1.417899,0.3179,0.273359,0.278001,3
0.299723,-3.395506,-2.968543,1.927251,0.597459,2.16025,0.233404,0.127351,0.18126,3
-0.229599,-2.22424,-2.903074,-0.71886,0.357374,4.487466,0.020627,0.097029,0.153498,3
-0.294994,-2.472305,-3.124239,-1.570835,-1.052609,0.211474,-0.389631,0.11733,0.045594,3
-1.661037,-1.851301,-2.777186,-3.02177,1.236695,-0.016109,-0.791097,0.56473,0.22678,3
-3.234326,-0.43797,-0.647427,-1.01824,2.767512,2.412043,0.016815,-0.086268,-0.145739,3
-2.500856,1.904395,-0.902292,-0.163335,1.73684,5.195012,-0.1854,-0.589195,-0.141276,3
-2.908798,2.554922,0.418418,-0.693393,-2.220337,5.892982,0.465239,-0.484042,0.330615,3
-0.748567,4.044343,1.426563,-2.018543,-3.373023,6.720226,0.603337,-0.179623,0.104069,3
2.753192,4.417216,3.065837,-2.652818,-2.873465,4.909421,0.175497,0.238482,-0.144667,3
-3.203751,-0.344413,1.596488,-2.546332,-2.231265,3.671283,0.295465,0.494603,-0.004865,3
4.104144,4.910931,-10.751733,-3.069844,-1.869358,3.564232,0.795352,0.356132,0.357815,3
-2.125046,11.323174,1.47239,-1.970061,-1.023616,3.126546,0.332574,0.269851,0.160247,3
3.391167,5.597883,4.84293,-1.24296,-2.095738,2.648005,0.077876,0.220216,-0.068901,3
3.316729,2.188704,5.004602,-1.548461,-2.497286,1.700459,-0.256227,0.52858,-0.15429,3
0.996646,1.465353,5.246157,-1.960453,-1.590554,1.040802,-0.647457,0.987893,0.205759,3
-0.321353,0.644592,3.979949,-1.968543,-2.134163,2.041576,-0.746356,0.7407,0.118652,3
0.25583,0.943822,2.950522,-2.568012,-3.858708,3.611617,-0.543463,0.541519,0.162469,3
0.289991,1.310763,1.813936,-2.201482,-4.181997,3.750655,-0.477181,0.386336,0.036207,3
-0.145437,0.88304,1.922506,0.469145,-4.503475,4.570971,-0.153455,0.412499,0.064894,3
-0.428164,0.598428,1.454355,-0.511211,-2.782814,1.600322,0.160517,0.260553,0.14286,3
-0.619763,0.568407,0.804513,-0.009304,-2.631944,1.061167,-0.175257,0.339516,0.094546,3
-0.816879,0.847595,0.86337,1.490061,-1.940487,1.424703,-0.495646,0.491415,0.059537,3
-0.451463,1.010779,0.152685,3.28325,1.059806,0.566597,-0.361815,0.890058,0.192844,3
-0.764393,0.226283,1.466611,2.082629,0.753663,-3.591286,-0.396853,0.863352,0.140538,3
-0.710379,0.355329,1.863486,1.856658,1.168929,-4.555947,-0.216403,0.592336,0.067487,3
-0.518908,1.247904,0.927736,1.409415,0.451285,-5.057837,-0.304295,0.364381,0.053044,3
0.512025,2.136012,1.862691,2.101887,-0.023541,-5.693058,-0.498677,0.507572,0.094283,3
0.398153,2.792665,1.586246,3.122844,1.427364,-5.086214,-0.366557,0.313351,0.340326,3
0.428126,1.684796,2.227926,1.114136,7.515847,-5.405431,-0.003038,-0.290975,0.088324,3
1.415689,0.624391,3.506712,1.830151,3.302542,-4.305608,0.245692,-0.457813,-0.041439,3
0.555204,-0.284438,4.482699,3.11188,0.540076,-3.349627,0.080855,-0.297305,0.269201,3
1.441733,0.409054,3.96395,2.726811,-1.784492,-0.718522,0.230392,-0.496683,0.246417,3
-0.545788,-0.908309,3.008905,0.96417,1.529303,0.151869,-0.041709,-0.365515,0.244868,3
-1.497261,-1.853049,1.483838,-1.062056,1.181088,-0.238792,0.038648,-0.485822,0.254029,3
-2.00581,-1.88021,-1.267017,-1.413766,-0.123791,-1.094016,-0.190146,-0.208137,0.244583,3
-1.02399,-3.330191,-2.850215,-1.634591,0.480321,0.933567,-0.470186,-0.153557,0.055701,3
-0.69837,-2.868433,-3.881225,-0.574,0.608266,2.504318,-0.617916,0.015928,0.193237,3
0.704307,-1.832384,-5.180138,-0.037003,0.045,2.743215,-0.290173,-0.125423,0.167465,3
0.38348,-1.174174,-5.137588,0.026011,-0.373909,2.57117,-0.22139,-0.267725,0.112672,3
-3.732788,-0.111227,-2.640732,0.280334,-0.438423,2.762429,-0.202934,-0.385774,0.077032,3
1.541518,-2.568747,-2.413353,-0.502217,0.944077,2.36296,-0.118354,-0.280232,0.104733,3
3.056633,-1.443483,-6.851414,-0.231182,0.754693,1.662307,-0.102903,-0.237972,0.025114,3
-4.654201,-1.836855,0.132471,0.8499,0.37088,0.136354,-0.072898,0.059549,0.214373,3
-1.026194,1.432663,-0.108829,0.417766,1.010084,-0.324982,0.114685,0.039286,0.029531,3
-0.103401,1.507806,0.76492,0.201069,1.685463,-1.555091,0.00858,0.05636,0.057375,3
0.339307,0.532122,1.973655,0.585419,0.703782,-2.589932,0.026641,-0.034426,0.074636,3
-0.047992,-0.423046,2.837444,0.060964,1.435645,-3.517733,-0.024068,-0.064248,0.230029,3
0.647484,-0.518171,2.013357,-0.381677,2.704891,-4.35457,0.116079,-0.134686,0.207347,3
0.476472,0.189129,1.481335,0.815079,-0.345594,-3.914333,0.311113,-0.242455,0.196618,3
-0.870164,-0.341804,0.874302,1.100407,1.390082,-1.254337,0.163646,-0.007983,0.120866,3
-0.408381,0.821452,-1.020947,-0.633851,0.227508,-0.316267,0.040068,-0.071409,0.087118,3
-1.145056,-0.411225,-1.267696,-1.330226,0.814803,1.725639,0.178714,-0.213214,0.099382,3
-1.484417,-1.091713,-2.39487,-0.45902,0.197167,3.626554,-0.271461,0.02075,0.122276,3
-1.469512,-1.139841,-5.924073,-0.188687,0.107371,4.236875,-0.432071,-0.019632,0.025771,3
2.825449,2.029847,-3.261784,0.182465,-0.792099,3.748958,-0.318635,0.04761,0.07553,3
1.149118,3.070132,-2.619099,0.377746,-1.294851,2.630115,-0.59391,0.263141,0.200535,3
0.285007,0.714905,-0.720862,-0.10508,-1.480362,1.415916,-0.404571,0.381693,0.075689,3
-0.815711,-3.284394,-0.934634,0.188954,-1.544062,0.267858,-0.237725,0.376952,0.096154,3
-4.094366,-3.109699,3.368211,0.214771,-1.328956,-0.614102,-0.153948,0.06899,0.152426,3
-1.119687,1.973613,3.456395,-0.319346,-1.041142,-2.230164,0.198308,0.102681,0.058611,3
-0.631477,2.034358,3.386522,0.495566,-1.121561,-3.779871,0.346489,-0.617792,0.017072,3
-0.607317,1.582752,3.409311,-0.382555,-0.172613,-3.934436,0.270485,-0.689672,0.444381,3
-1.352678,0.231388,2.660493,-0.037768,0.880152,-4.050484,-0.077402,-0.424266,0.252951,3
-0.675222,-0.617876,1.144328,-0.789521,0.091809,-5.221028,-0.161857,-0.226796,0.29207,3
0.213642,-0.046812,-0.146548,-0.78266,1.432277,-2.961087,0.325027,-0.55865,0.265854,3
0.819668,-0.468312,-1.000487,0.285905,1.578011,-0.292923,0.488202,-0.425451,0.17823,3
2.262245,-1.222828,-1.426014,-0.216325,2.420667,-0.50655,0.361644,-0.144334,0.30813,3
1.882643,-0.448625,-2.391518,-0.058786,1.715187,-0.001132,0.316342,-0.389744,0.57029,3
1.440939,-0.90018,-2.685256,0.476594,2.294725,-0.406809,-0.152663,-0.638395,0.254086,3
2.836861,-1.323594,-3.037292,0.28861,3.918968,-1.216691,-0.084948,-0.203389,-0.123626,3
2.921129,1.191306,-5.014447,0.125739,4.035887,-2.684396,0.11428,0.132779,-0.235233,3
1.44437,-3.822348,-6.035525,-0.72764,3.805757,-3.778303,0.141311,0.229162,0.086825,3
2.211996,-8.818434,-1.223346,-0.510199,4.306249,-3.076632,0.045323,-0.060343,0.313419,3
1.522801,-3.720446,-4.346885,0.001355,4.173728,-3.780632,0.089969,-0.234975,-0.001456,3
2.01527,-4.662506,-2.66332,-0.266121,3.572489,-2.294724,0.148915,-0.513318,0.044488,3
1.381266,-4.308517,-1.908028,0.6702,4.21343,-1.974351,0.013293,-0.543241,0.016086,3
0.1038,-5.515168,-1.657388,0.896113,4.128238,0.005432,-0.139405,-0.606034,0.049753,3
-2.339339,-3.727125,0.822504,1.888555,3.377765,4.361629,0.048488,-0.510817,0.39634,3
-2.316218,-3.482712,0.622762,0.870856,2.410313,5.099401,-0.033547,-0.57266,0.291978,3
-2.923321,-3.103563,-0.582635,0.655703,0.090204,4.21168,0.201769,-0.980106,0.385122,3
-2.698486,-0.707528,0.425353,-0.403389,-0.930498,3.628116,-0.007409,-1.482979,0.15954,3
-3.184965,-1.256872,-0.200792,0.322518,-1.722824,1.649143,-0.308866,-0.936559,0.141338,3
-3.715784,0.589974,-0.002102,0.378278,-3.724836,2.434228,-0.308608,-0.263083,0.436236,3
-1.850772,2.30817,-0.118767,-1.91036,-3.913679,5.400295,0.057555,-0.169375,0.565538,3
-1.106425,2.214033,-0.894526,-1.541399,-3.820165,1.654884,-0.046301,0.246385,-0.015103,3
-0.331453,4.398916,0.609644,-0.059665,-1.084965,1.333457,0.653614,-0.001387,-0.069213,3
0.766321,4.523955,3.484418,-0.913209,-4.182041,-0.695199,1.187323,0.449044,-0.306705,3
-3.376733,2.910296,0.860476,-1.892176,-3.242177,1.828606,0.667023,1.08313,-0.192752,3
0.068407,6.517979,5.804493,-0.827726,-2.291395,1.137377,0.469328,1.220265,-0.136287,3
3.501086,5.641284,5.883078,-0.091495,-1.676965,0.077125,0.321126,1.087648,0.05465,3
3.124887,3.994526,4.290728,-0.798872,-1.806929,0.089291,0.391177,0.815907,-0.206336,3
3.11648,3.690631,3.547663,-1.492499,-1.716427,0.168705,-0.062759,0.915114,-0.226171,3
2.263346,4.126695,4.344563,-1.638167,-2.031958,0.864842,-0.622608,1.628918,0.095078,3
1.201863,4.739112,3.878139,-1.547574,-2.345344,1.515663,-0.713527,1.409059,0.058346,3
0.809029,5.60948,3.000044,-1.590485,-2.301636,1.992724,-0.798483,0.966232,0.022588,3
-0.732082,4.419408,1.513058,-1.571859,-2.895477,1.825741,-0.628878,0.62383,0.052362,3
-1.29621,3.202707,0.60373,-1.454534,-3.045358,2.46991,-0.264739,0.125,0.17583,3
-1.519053,1.851626,0.464856,-1.629714,-2.324972,1.96738,-0.198666,-0.097272,0.244157,3
-1.508388,2.484956,-0.356071,-0.987682,-2.647786,2.925297,-0.50721,0.020629,0.241302,3
-4.155178,0.203577,-1.0412,-0.635853,-2.398806,1.490725,-0.500353,-0.221649,0.24159,3
-2.665189,-0.97105,-1.395141,-0.880122,-1.068824,0.256148,-0.205755,-0.412611,0.304524,3
-3.185647,-1.665401,-0.163763,-1.280913,-1.180431,-1.632107,-0.658146,-0.184554,0.13602,3
-1.334628,-3.616649,-1.504147,-0.142725,-2.00733,-0.513565,-0.607507,-0.200232,0.164676,3
-0.761826,-2.301357,0.514191,0.489069,-0.672361,-1.901308,-0.288021,-0.081605,0.136259,3
0.806006,-0.759955,0.29987,2.028301,0.209686,-2.478101,-0.233269,0.256139,0.249126,3
3.174004,-0.915358,0.234235,3.460126,2.490411,0.439798,-0.564796,0.336423,0.058349,3
3.634386,-1.084191,1.131875,3.583195,5.331262,-0.268352,-0.64383,0.4968,0.15466,3
2.784814,0.006179,1.21108,5.954211,2.017454,-2.783683,-0.252897,0.316316,0.12915,3
1.499078,0.46542,-0.423182,4.993622,2.021432,-2.064422,0.039299,0.159332,0.148029,3
0.759909,-0.097073,-1.450622,3.114788,-0.325211,-1.008859,0.161825,-0.341497,0.124888,3
-0.495006,-1.174227,-0.687334,0.434423,-0.825306,0.810489,0.332149,-0.504192,0.093158,3
-0.386266,-1.256188,-0.429041,-1.868768,-1.129174,1.584908,-0.02026,-0.173069,0.175781,3
-4.921644,-1.221572,3.50679,-0.522217,-2.047752,0.670622,-0.121282,0.106607,0.079342,3
1.926131,-2.910692,-5.680733,-0.943879,0.544444,1.430382,-0.438663,0.386273,0.076732,3
-4.525165,1.037714,2.056378,0.29813,1.037864,0.154045,-0.543883,0.314762,0.049545,3
-1.519213,2.711617,-0.914062,0.636009,0.796839,-2.071013,-0.631895,0.511263,0.010326,3
-0.567507,1.891665,-0.732946,0.211677,1.830015,-2.582365,-0.303663,0.365696,-0.018502,3
0.193891,-0.412368,0.001216,1.949514,-0.176731,-2.961854,-0.009743,0.162835,-0.02846,3
0.6675,-0.856499,-0.243486,1.593604,1.022124,-2.647113,0.176078,0.17735,0.058269,3
-0.619821,-0.269121,-0.870891,0.400327,0.347004,-1.582267,0.252762,-0.034289,0.260944,3
-0.009371,-1.472944,-1.593015,0.159669,-0.12488,0.281042,0.155604,-0.451907,0.212233,3
-1.303849,-1.763525,1.386286,-0.407705,-1.107127,2.878076,0.129615,-0.633032,0.142924,3
-1.270515,-0.530829,-1.653062,-0.439583,-1.260767,2.504095,-0.07007,-0.373892,0.173239,3
-0.315653,-1.583231,-3.861157,-0.109229,-0.938776,2.164642,-0.077732,-0.226616,-0.027563,3
0.356775,-3.969768,-2.186482,0.064522,-0.094971,1.583741,-0.098222,0.153047,0.214222,3
-1.464361,-0.555049,3.418265,0.099696,0.608502,-0.163651,-0.001279,0.289932,0.265396,3
-0.186653,1.487552,1.034354,-0.714818,1.5038,-0.852716,0.065312,0.336693,0.109644,3
-0.503955,1.615413,2.345929,-1.138041,2.529899,-0.021113,0.391969,0.048557,0.27002,3
0.571842,0.806089,2.897857,0.305108,1.580877,-1.965834,0.367878,-0.445574,0.201723,3
0.788666,-0.149451,1.409163,1.987703,0.520059,-1.929355,0.13809,-0.47574,0.436909,3
0.918849,-0.276947,0.430021,0.361999,0.62621,-4.598448,0.632714,-0.903662,0.429658,3
0.65173,0.104327,-0.733428,-1.72871,1.740944,-4.493518,0.542833,-0.652168,0.326626,3
0.639822,-0.254731,-1.671771,-1.327777,2.30497,-2.445467,0.336008,-0.717601,0.39088,3
1.460967,-0.950881,-1.280904,-0.790225,2.540549,-1.607781,-0.016247,-0.322302,0.238752,3
1.800789,-0.125181,-5.767416,-0.659636,3.470618,-1.469978,-0.186389,-0.722048,-0.03957,3
6.145334,-5.29593,-0.785097,-1.260175,3.855622,-1.209498,-0.223988,-0.305353,-0.294953,3
3.978402,-5.220292,-3.683012,-1.341974,3.701349,-1.178202,-0.159771,-0.113438,-0.112736,3
2.89265,-6.241454,-1.888297,-1.071215,4.506708,-1.354259,0.333437,-0.320223,0.221869,3
2.371029,-5.700759,-1.588548,-1.893422,4.594177,-0.921216,0.334194,-0.260286,0.191666,3
1.61564,-5.124571,-1.165036,-1.770001,4.794842,-0.365395,0.282298,-0.184112,0.098473,3
1.294284,-4.904634,-0.658499,-1.440438,4.514156,1.053873,0.349208,-0.328107,0.205036,3
-0.3092,-4.199626,-0.118359,-2.00344,3.161252,2.462407,0.505823,-0.513311,0.229098,3
-0.726242,-3.205619,0.64194,-1.210861,2.993325,3.28847,0.461705,-0.583605,-0.005672,3
-1.691024,-3.005316,0.709848,-0.087681,2.067393,4.554427,0.478796,-0.579611,0.096474,3
-2.783711,-0.360727,2.54435,0.640355,0.020784,4.511488,0.517149,-0.796671,0.527088,3
-1.851057,-0.772019,1.986515,1.272483,-1.515068,4.896305,0.342936,-0.826181,0.492416,3
-2.136495,-0.523154,1.497251,0.930147,-2.571548,3.077958,0.220124,-0.835409,0.46228,3
-2.299174,-0.317809,1.389654,0.395268,-2.76311,1.531996,0.049632,-0.461828,0.329391,3
-2.384998,-0.290148,0.699282,0.52688,-2.887448,0.610289,0.225772,0.052819,0.059267,3
-2.284095,0.948079,-0.464728,0.319657,-2.703561,-0.955958,0.684447,-0.078548,-0.036553,3
-1.452473,1.513009,-0.821076,0.157223,-2.410112,-3.204786,0.928439,-0.31468,-0.303491,3
-0.934618,1.898656,-2.296847,-0.705589,-2.018432,-3.708928,1.223713,0.247171,0.13378,3
-0.28987,3.295786,-1.811537,-0.395624,-1.722089,-2.555267,0.076175,1.19895,-0.075211,3
-0.141168,3.193642,-1.069924,-0.409454,-1.521446,-3.10175,-0.842556,1.230626,-0.255348,3
-0.88518,2.906837,0.698472,-0.221267,-1.615923,-1.347596,-0.711937,1.01471,-0.066978,3
1.114537,5.182866,0.923203,0.292967,-2.626315,1.081963,-0.625064,0.710464,-0.026843,3
-1.184739,1.488496,3.152047,0.853531,-1.686006,0.754246,-0.525688,0.566921,0.006937,3
0.481988,5.484897,-0.932657,-0.147672,-3.01295,1.925322,-0.874262,0.996796,-0.026129,3
0.748187,5.083542,2.410579,0.398904,-2.932161,1.135684,-1.108642,1.400283,0.175354,3
0.704303,3.356715,3.742303,-0.171091,-1.882062,1.351469,-0.911509,0.75237,0.119365,3
0.755163,3.28687,3.551403,-0.357765,-1.806053,1.579373,-0.758209,0.286018,0.109631,3
0.539721,3.627268,4.696446,-0.583558,-1.966423,1.679945,-0.108932,-0.001752,0.178494,3
-0.694508,4.450589,5.006679,-0.619709,-2.228785,1.969054,-0.444971,0.33899,0.16312,3
-0.995354,5.814393,3.237876,-0.39248,-2.954559,2.140817,-0.354664,0.101706,0.016957,3
-1.958112,5.469176,1.256706,-0.467255,-3.105187,1.444655,-0.180157,0.624467,0.047875,3
-2.401328,4.914379,-0.621853,-0.10352,-2.849442,0.17422,-0.226411,0.779073,0.214614,3
-3.044031,3.729579,0.18159,-0.039977,-2.791319,0.545906,-0.601253,0.916948,0.103944,3
-3.070114,2.585222,0.835316,-0.178576,-2.163201,-0.179071,-0.649346,0.963979,0.050874,3
-3.055214,0.106054,0.598414,0.113834,-2.552773,-1.117925,-0.511215,0.966326,0.080977,3
-2.808732,-0.862497,2.142196,0.328644,-3.900457,-1.092814,-0.550303,1.036705,0.246448,3
-1.169944,-2.671352,1.173775,1.182218,-3.730118,0.171367,-0.897734,0.89972,0.021073,3
-2.656902,-3.745053,1.719714,1.803392,-3.239551,1.397656,-0.686287,0.769683,-0.010508,3
-1.364993,-3.394917,-0.224622,2.685306,-3.42254,2.733816,-0.478699,0.426023,0.050596,3
0.411211,-3.308667,-1.961007,3.174783,-1.943226,6.055932,-0.487984,-0.073551,0.074501,3
1.545776,-3.076266,-2.627085,2.651505,-0.830993,5.874035,-0.709814,-0.357128,-0.0431,3
1.757545,-2.321692,-3.424776,2.001955,0.804158,5.518743,-0.518006,-0.102745,-0.148133,3
2.081934,-0.434428,-2.377656,1.673513,3.103547,3.479881,-0.239548,-0.07077,-0.058185,3
-0.465694,-0.69671,-1.017691,2.165899,3.666233,1.6486,0.183865,-0.179281,0.15405,3
1.422274,-1.470425,-1.010943,0.596921,4.975403,0.618711,0.033202,-0.225231,0.199628,3
1.939661,-3.712148,-0.529421,-0.192304,3.557992,-1.591081,-0.377515,-0.193608,0.079276,3
0.052021,-3.7356,-0.557631,-2.055694,2.864937,-1.506002,-0.29735,-0.142351,0.195895,3
0.233693,-0.302034,-1.094128,-1.806138,2.03106,-2.499187,0.017703,-0.316941,0.461211,3
-0.254921,0.92677,-0.529512,-0.787791,1.456192,-2.410722,-0.07439,-0.150536,0.152144,3
0.116338,-1.001007,0.626686,-0.594933,2.598988,-2.817182,-0.120097,-0.382318,-0.015561,3
1.095531,-0.208969,0.465135,-1.890977,2.392224,-4.591196,0.138688,-0.188047,0.236472,3
1.003886,-0.934036,1.702456,-0.18787,3.600705,-4.868169,0.3831,-0.223794,0.538696,3
0.308895,-0.057559,3.754612,-1.694906,1.439748,-6.738492,0.389141,-0.274972,0.228429,3
0.42559,1.602825,3.278519,2.982666,-0.018517,-6.249354,0.627824,-0.552562,0.420471,3
1.324994,-0.586926,3.675512,1.312889,2.3196,-2.719121,0.621297,-0.794894,0.255667,3
1.362939,-1.261013,1.884082,-1.589687,0.60603,0.448637,0.644272,-1.211653,0.295762,3
1.248109,-0.669222,-1.120347,-0.815118,-1.491026,1.54044,0.89053,-1.810458,0.263,3
2.791837,0.295182,-3.134181,-0.158814,-0.6293,4.025642,0.357289,-1.628832,0.336212,3
-1.842968,-0.165235,-5.143672,0.172405,-0.175547,4.341912,-0.041713,-1.171007,0.02296,3
0.10017,-1.822458,-3.598124,-0.616377,0.224491,3.976524,0.0276,-0.470317,0.291246,3
2.830103,0.574836,-8.627817,-0.131895,-0.299553,2.749448,-0.011831,0.149642,0.152091,3
-0.550475,-6.947345,-0.981603,-0.251174,0.077209,1.192061,-0.003098,0.507214,0.149119,3
-0.846064,-1.620999,-1.273289,0.014654,0.125641,-0.157713,0.223151,0.695144,0.100964,3
-0.642517,1.816342,-0.793006,-0.282235,-0.575258,-2.161127,0.130183,0.655434,-0.009466,3
-0.474532,1.248071,0.381227,-0.171226,-0.526457,-3.406979,-0.055753,0.286839,0.091702,3
-0.651243,-0.997896,1.847494,-1.191487,0.302545,-3.88643,0.062201,0.188721,0.125123,3
-0.887732,0.052284,1.889797,-5.241747,4.17258,-0.59499,-0.215449,-0.045665,0.103215,3
-1.249437,1.310448,1.350892,1.008185,-2.364869,-3.248254,-0.235464,-0.239909,0.160173,3
-0.788658,1.049364,0.720592,1.998296,0.329589,0.310023,-0.161529,-0.320124,0.086915,3
0.463704,-0.509339,0.937087,1.516226,0.448312,2.513958,0.268903,-0.455614,0.092133,3
0.344946,-1.751301,0.636739,-1.277172,-1.816828,2.308503,0.291845,-0.384746,0.14904,3
0.349273,-0.528961,-0.242741,-0.190538,-0.821394,2.417684,0.023653,-0.2742,0.182251,3
0.078387,-0.359171,-0.79082,1.002287,0.036462,1.427138,-0.267452,0.041771,0.108579,3
0.073582,-0.308955,-0.557677,-0.824247,0.202429,-0.166803,-0.639042,0.525268,0.085808,3
-0.08,-0.230293,-0.315994,-1.576154,0.95378,-1.870576,-0.965294,0.636357,-0.149274,3
0.071228,0.436004,-0.769365,-2.689086,2.572066,-1.717164,-0.36562,0.331708,-0.120552,3
-0.234152,0.307456,-0.103102,-0.874812,0.602261,-2.619401,0.856873,-0.047788,0.36262,3
0.153461,0.425483,-0.00242,0.935641,-0.493837,-2.921872,0.890958,-0.295937,0.424553,3
0.443722,-0.246927,0.322533,0.444332,1.380079,-3.02996,0.664201,-0.46837,0.305582,3
0.805619,-0.598033,0.637675,-2.263408,-0.744238,-0.645288,0.026847,-0.402336,0.108461,3
0.632456,-0.594896,0.379292,-2.144702,-0.048337,0.811542,-0.154029,-0.622873,0.154746,3
0.883384,-0.295342,0.263343,-3.547026,0.909515,1.886827,-0.117793,-0.756694,0.341187,3
0.979077,-0.586492,0.244049,-1.984847,0.218646,-0.956504,-0.044257,-0.740242,0.451042,3
1.041926,-0.547185,0.221247,-0.209807,0.338307,-2.323543,0.133711,-0.610449,0.431846,3
1.175361,0.028038,-0.222515,-0.306751,2.214053,-1.59853,0.262934,-0.454396,0.031218,3
1.1167,-0.195796,-0.490861,-1.009193,3.553864,-2.834054,0.033639,-0.141905,-0.161898,3
0.857949,-0.654176,-0.457464,-0.715008,0.759878,-5.067397,-0.135407,0.059779,-0.100482,3
1.166046,-0.412074,-0.707357,-0.243564,3.031724,-4.726331,0.375892,-0.601447,0.279233,3
0.713065,-0.912805,-0.809708,-0.717655,5.635389,-5.110487,0.062167,-0.493412,-0.033636,3
0.526017,-1.521801,-0.618345,-0.835074,3.852319,-5.358685,-0.01227,-0.417994,-0.058122,3
0.758556,-1.582455,-0.80397,-0.74861,4.390358,-5.778797,0.710759,-0.566199,0.234625,3
0.646195,-1.598721,-1.012793,0.348463,3.508127,-5.094533,0.556108,-0.454736,-0.101108,3
1.134189,-1.706624,-0.890501,1.05845,4.484655,-3.40257,0.184581,-0.215964,-0.158474,3
0.180452,-1.580412,-1.167966,2.235659,4.916496,-0.264933,-0.184988,0.311464,0.307967,3
-0.385478,-0.941338,-1.195017,3.135848,3.759737,2.447528,-0.541086,1.419886,0.720683,3
-0.155366,-0.487352,-0.685082,3.596574,3.124112,6.167137,-0.453504,1.422336,0.834168,3
-1.139038,-0.844864,-0.313844,2.558667,1.377726,1.005024,-0.078648,0.105131,0.096994,3
0.016737,-0.35079,-0.324261,2.328998,-3.866897,6.692696,-0.378529,-0.839751,-0.183155,3
-0.089882,-0.618338,0.383246,0.653829,-5.6845,9.043108,-0.380312,-1.277719,-0.163769,3
-1.609757,-0.81398,1.543554,0.259419,-2.75667,7.093452,-0.112974,-0.410689,0.134998,3
-1.568537,0.022046,0.864033,-0.106684,-4.480372,2.061172,-0.131734,-0.008131,0.324684,3
-1.017884,0.419689,0.393988,-0.783674,-6.139237,2.989708,0.090034,0.134504,-0.173507,3
-1.625465,0.489043,1.346431,-1.039924,-6.327418,2.677284,0.183889,0.152966,-0.334287,3
-1.988508,1.110931,1.438721,-0.86866,-6.482387,3.304747,0.716665,0.189565,-0.051765,3
-1.494159,2.012959,0.667979,-1.480451,-5.746476,1.93735,0.281724,0.866194,-0.000697,3
-2.054683,2.365554,1.036509,-1.070703,-4.691251,0.944473,-0.198175,1.301723,0.102633,3
-2.363555,2.467121,0.618285,-0.110151,-4.560282,-0.022074,-0.472857,1.25472,-0.145282,3
-2.508452,2.585523,1.492617,0.747196,-4.918623,-0.101584,-0.504691,1.259737,0.003818,3
-2.579933,2.757503,2.312473,1.269788,-3.106013,0.372614,-0.164695,0.821198,0.190352,3
-2.070997,2.307497,2.572921,1.871474,-1.385606,0.39135,-0.034379,0.623605,0.166405,3
-2.329886,3.155741,5.341524,0.826201,-0.812777,0.778076,-0.357499,0.861275,0.092008,3
1.588949,3.235412,1.686917,-0.148345,-0.651361,0.502834,-0.779655,1.087189,0.01801,3
1.29241,5.069264,0.53484,0.242073,-0.847863,-0.137902,-0.818964,1.118958,0.149333,3
0.744965,3.899431,0.66243,-0.082313,-0.206166,-0.138986,-0.650182,0.391854,0.156446,3
0.71597,1.739906,0.369452,0.253602,0.203626,-0.115208,-0.368345,0.266933,0.105783,3
0.473434,1.581358,-1.094944,-0.026176,0.616831,0.254349,-0.247467,0.168008,0.217062,3
0.500653,-0.924169,-0.85646,-0.115834,0.923628,0.367792,-0.270475,0.106444,0.128828,3
-1.271845,-1.184362,-2.364852,0.424394,1.151468,0.257441,-0.214018,0.265414,0.095497,3
-1.135262,-2.206195,-2.749804,0.349188,1.499398,-0.29518,-0.371649,0.282771,0.154508,3
-2.120501,-3.612326,-2.833133,0.498066,1.320024,-0.572984,-0.334271,0.300587,0.017912,3
1.104267,-6.933088,1.597458,0.615204,1.051598,-0.355843,-0.216159,0.318012,0.090795,3
0.126755,-4.343909,-1.815728,0.118496,1.018373,-0.192987,0.021515,0.047335,0.153152,3
1.080108,-1.182908,-3.541287,0.250366,0.964416,-0.213503,-0.020965,-0.020129,0.069901,3
3.17631,-0.109288,-3.149839,0.53808,0.834841,-0.455966,-0.022358,-0.098542,0.163567,3
1.201111,-1.583179,1.518877,0.371939,0.88057,-0.67397,0.108786,-0.196622,0.156371,3
3.919132,1.772366,1.92691,0.238395,0.954774,-0.481258,0.058043,-0.24559,0.184537,3
4.125982,0.910522,-0.991989,0.617691,0.596328,-0.717962,-0.011552,-0.418169,0.31446,3
-0.092846,-1.49085,2.107403,-0.166758,1.053859,-0.457666,-0.126255,-0.576886,0.300233,3
-1.754637,-4.258316,1.629612,-0.217934,0.978115,-0.01874,-0.15588,-0.588173,0.320463,3
-0.27169,-3.934757,-0.005689,0.082102,0.865607,-0.423728,0.132438,-0.62541,0.096334,3
2.015912,-2.687457,-2.625937,0.097161,0.916913,-0.75828,0.104502,-0.424029,-0.014518,3
-1.663126,-0.888431,-0.977527,0.021922,0.805274,-0.611809,0.182203,-0.251132,0.225865,3
-0.35232,3.607156,-0.240062,-0.135032,0.865986,-0.265841,0.267367,-0.225852,0.456343,3
1.19534,1.851224,0.159054,-0.297345,1.01197,-0.123617,0.325033,-0.402221,0.375844,3
2.400937,-0.679226,0.371737,-0.347065,1.034688,0.045998,0.608225,-0.488987,0.473464,3
1.426882,-3.055349,0.995691,-0.274402,1.230846,-0.116928,0.688994,-0.476173,0.634135,3
-0.916009,-1.514125,0.209334,-0.196958,1.299754,-0.240849,0.513533,-0.444218,0.473569,3
-1.642094,-0.225376,-0.684649,-0.03212,1.323661,-0.265245,0.409787,-0.255896,0.063431,3
1.829145,-7.737125,-1.258249,-0.121071,1.428977,-0.390047,0.118874,-0.129131,-0.276047,3
1.5672,-6.590055,-1.604796,-0.304516,1.345254,-0.249488,-0.159858,-0.261809,-0.271613,3
-2.117885,-3.174255,-0.105947,-0.327151,1.286239,-0.16547,-0.300466,-0.243384,-0.256405,3
-1.403898,2.946672,-1.850757,-0.183471,1.307028,-0.155646,-0.087091,-0.30167,-0.180405,3
-0.211312,1.611575,-0.820747,0.02964,1.205136,-0.054797,0.047294,-0.412625,0.032334,3
0.678117,-2.344245,2.521227,-0.097898,1.460222,-0.065454,0.299553,-0.713804,0.080814,3
-0.392017,-2.992265,2.441054,-0.039527,1.129244,-0.447078,0.151596,-0.388464,-0.042179,3
-1.374784,-3.385358,-0.057943,0.054676,0.991117,-0.723718,0.25564,0.063553,0.074196,3
-2.848355,-1.892251,2.1342,0.138514,0.792796,-0.6902,0.339021,0.174527,0.003177,3
0.461615,-2.030382,-2.459832,0.257073,0.46529,-0.433963,0.007984,0.375947,-0.018436,3
-2.082051,-4.41435,0.316227,0.267081,0.341689,-0.146959,0.525009,0.453399,0.495638,3
-3.487654,-2.638159,0.953955,0.163867,0.213557,0.271294,0.883257,-0.233278,0.161813,3
-3.292898,0.075252,-1.879842,0.130058,0.013213,0.117225,0.358988,0.006117,0.143863,3
-2.129653,1.379299,-4.04216,0.140057,-0.148497,-0.247859,0.074874,0.321389,-0.004079,3
-3.187334,0.08815,-3.906478,0.209325,-0.214242,-1.225046,-0.25928,0.766568,0.149777,3
-2.064122,5.01705,-0.991373,0.270887,0.194377,-2.979028,-0.434325,0.538936,0.359084,3
0.420809,5.474234,-2.841909,0.451984,0.302098,-2.952399,-0.523022,-0.027362,0.011924,3
0.789458,4.678776,-0.739235,1.197045,-1.131128,-2.629577,-0.214681,-0.281131,-0.087278,3
-0.126474,4.300287,0.658382,1.780355,-0.504826,-0.865567,-0.390246,-0.208489,0.159079,3
0.040768,4.272118,1.875878,1.006535,-3.118062,1.771524,-0.841949,0.066403,-0.018299,3
0.208304,5.4652,4.325679,-0.82979,-3.187279,4.057044,-0.238369,0.305977,-0.292624,3
1.428743,5.277699,5.040006,-0.817979,-2.754048,2.320469,-0.284122,0.809542,0.375151,3
1.886507,4.971087,5.433511,-1.817114,-3.241303,2.751226,-0.225089,0.897864,0.190922,3
2.65234,4.960147,5.789463,-2.774646,-2.246982,4.067223,0.029327,0.862821,0.10288,3
2.297377,4.699493,4.933214,-3.209048,-3.158347,4.546048,0.085655,0.661747,0.151687,3
2.107402,3.604556,4.407201,-2.919546,-2.62623,3.890378,0.006581,0.388686,0.088651,3
2.611868,2.0166,2.569413,-2.64524,-2.437808,0.750151,0.169131,0.188139,0.172523,3
1.134596,0.396097,0.145507,-2.21728,-2.478758,0.557304,0.148481,0.430554,0.22024,3
0.378395,-0.810893,1.530218,-2.06166,-2.368305,-0.278452,-0.090821,0.751938,0.206333,3
-0.403377,-0.537096,1.791632,-1.41228,-1.845029,0.299309,-0.28433,0.73796,0.134089,3
-1.805851,-0.213464,0.76141,-0.657738,-0.672,1.439506,-0.512157,0.725214,0.253435,3
-2.352975,-1.590757,1.837814,0.352142,-0.739157,-0.73229,-0.389103,-0.007004,-0.035606,3
-1.499373,-0.863566,0.765036,2.054268,1.063836,-1.300017,-0.109189,0.012185,-0.002392,3
1.196346,-1.790084,0.227419,3.222133,1.922655,-1.530152,0.025112,0.197275,0.207395,3
0.39267,-1.585959,-0.028955,4.098311,3.931614,0.080923,0.151049,-0.023887,0.08986,3
-0.201502,-2.341483,-0.447555,4.891251,1.784725,-6.087456,-0.018004,-0.100775,0.076098,3
-0.58376,-1.379079,-2.743015,4.372818,0.401605,-5.896292,-0.020046,-0.522007,0.085356,3
-0.551038,-2.370361,-3.391878,2.362935,1.159479,1.096435,0.217409,-0.840086,0.162639,3
-1.958977,1.16344,-2.845436,-0.430197,0.730893,0.41945,0.033024,-0.894966,0.147208,3
0.692068,1.481166,-4.097475,-0.652481,0.03307,1.34779,-0.065352,-0.632943,0.134763,3
0.700465,-0.459365,-6.295979,-0.617707,0.172484,1.268477,-0.6017,0.10627,0.180042,3
-4.544402,-3.582965,1.329492,0.672017,-0.841568,-0.379381,-0.487135,0.179692,0.128593,3
-1.307967,1.155472,2.740248,0.836798,1.077242,-0.400373,-0.478858,0.259846,0.12798,3
1.830308,1.896685,0.768671,0.925598,0.32322,-1.080595,-0.282565,0.425151,0.208265,3
1.526214,-0.017781,2.334683,0.619973,1.464715,-2.615139,-0.229859,0.262883,0.00318,3
0.167422,-0.009524,2.942537,0.533867,0.427543,-1.29197,-0.465042,0.141156,0.165926,3
0.327883,-0.671036,-0.251866,1.319136,-0.79258,1.739212,-0.45042,0.332334,0.274055,3
-0.424666,0.506542,0.878089,0.078471,0.25723,3.892739,-0.060618,-0.286574,0.414794,3
1.617309,-3.268913,-5.156204,-0.550448,1.032959,1.984227,-0.660667,-0.989504,-0.293173,3
1.214979,-1.840933,-5.764281,-0.246347,1.525038,0.487576,-0.932089,-0.718162,-0.085036,3
-2.243462,-3.830498,-2.445032,1.000229,1.782265,-1.125594,-0.008161,-0.170797,0.320897,3
-0.54817,-1.678958,-2.740264,0.817723,2.868809,-3.749657,0.425923,0.188992,0.155551,3
-0.255247,-0.238069,-1.725283,1.098266,3.264655,-4.706159,0.956202,0.301208,0.182772,3
1.147127,-3.506794,-1.691615,1.182131,3.601253,-5.809577,1.214811,0.273993,0.216864,3
-1.206661,-3.807202,-0.732393,1.475153,3.742622,-5.44392,0.723727,-0.023623,0.216459,3
-1.370971,-1.022204,-2.643772,2.379626,3.88925,-4.896218,0.148638,-0.345067,0.179584,3
