Left_Wrist_Acc_X,Left_Wrist_Acc_Y,Left_Wrist_Acc_Z,Right_Wrist_Acc_X,Right_Wrist_Acc_Y,Right_Wrist_Acc_Z,Upper_Leg_Acc_X,Upper_Leg_Acc_Y,Upper_Leg_Acc_Z,Activity
0.457472,-0.960199,0.20663,-0.226888,-0.48288,0.106219,0.355899,-0.033296,0.05811,1
0.242832,-0.544511,0.251859,-0.387371,-0.4175,0.151906,0.296847,0.015933,0.167925,1
0.126492,-0.251598,0.240026,-0.659322,-0.050258,-0.067066,0.321789,0.13284,0.140939,1
0.088465,-0.258191,0.07531,-0.712932,0.331602,-0.223035,0.459147,0.158169,0.231234,1
0.141041,-0.453663,-0.064838,-0.719145,0.476624,-0.356358,0.436726,-0.024,0.251483,1
0.133406,-0.656103,-0.118265,-0.729093,0.410298,-0.233104,0.248008,-0.12068,0.080439,1
0.161472,-0.773272,-0.076243,-0.77469,0.310681,-0.084843,0.135803,-0.220023,0.043893,1
0.148031,-0.824656,0.002475,-0.872764,0.233316,-0.023195,0.167616,-0.082722,0.127324,1
0.106152,-0.722811,0.131835,-0.953588,0.276334,0.080656,0.153476,0.007752,0.023038,1
0.013343,-0.359355,0.169812,-0.974413,0.241382,0.165628,0.017917,-0.004787,0.092263,1
-0.029877,-0.21534,0.048195,-0.955439,0.152471,0.23961,0.032716,0.15536,0.038785,1
-0.012784,0.022847,0.045178,-0.966522,0.161718,0.122587,0.261424,0.121575,0.176304,1
-0.049613,0.096613,0.01899,-0.877958,0.239526,0.03645,0.286266,0.30688,0.027358,1
-0.081677,0.203751,-0.119547,-0.650521,0.122735,-0.083832,0.335043,0.474717,0.105817,1
-0.006737,0.304042,-0.120132,-0.360109,-0.132449,-0.057201,0.351538,0.315788,0.236731,1
0.278274,0.474007,0.27016,-0.15124,-0.141249,-0.03979,0.069115,0.28848,0.006489,1
0.48031,0.64649,0.703989,-0.0655,-0.258207,0.245597,-0.036026,0.307974,0.151264,1
0.769859,0.841465,0.487442,0.033039,-0.52977,0.154415,0.195358,0.296774,0.297062,1
1.016635,0.68555,0.347971,-0.012499,-0.592668,-0.167284,0.301587,0.318226,0.256005,1
1.159366,0.48285,-0.122009,0.162854,-0.652313,-0.488651,-0.004603,0.51283,0.322077,1
1.117302,0.873352,-0.371308,0.261384,-0.952842,-0.862983,0.083975,0.788924,0.342854,1
1.048871,0.819452,-1.066375,-0.001109,-1.089198,-1.406868,0.772494,1.468842,0.569174,1
1.239703,0.33189,-1.797314,-0.196128,-1.10875,-1.895428,1.511055,0.94933,0.308119,1
1.551171,0.286519,-2.059371,0.036619,-0.958631,-2.352978,1.369299,0.17918,-0.344624,1
1.399769,0.181596,-2.133969,0.139831,-1.001241,-2.431316,1.461576,1.72195,0.035444,1
1.534274,0.298327,-2.203766,-0.013318,-0.956671,-2.135329,0.988398,-1.919086,-0.483603,1
1.531268,0.339741,-2.099414,-0.036222,-0.610716,-2.444958,0.753217,-0.58702,-0.321018,1
1.014598,0.502115,-2.547088,-0.128359,-0.639679,-2.360625,0.278876,0.695628,0.13265,1
0.440013,0.344267,-2.449992,0.114149,-0.4427,-1.787066,-1.120956,-1.539638,-1.700415,1
0.571403,0.053269,-2.121534,-0.121347,-0.405599,-1.83178,-1.231136,0.745341,-0.192886,1
0.472223,-0.014066,-2.418963,-0.103292,-0.788783,-2.280379,0.454674,-0.789037,-0.246709,1
0.035489,-0.164221,-2.271367,0.021295,-0.992573,-1.456663,-0.834302,0.25639,-1.34713,1
-0.272833,-0.382198,-1.950849,0.160059,-0.651697,-0.968427,-0.942841,0.437156,-0.07076,1
-0.212559,-0.720298,-1.928328,0.149028,-0.553583,-1.554376,-1.037358,0.378411,-0.425137,1
-0.670975,-0.96255,-1.882358,0.221273,-0.829845,-0.932169,-1.743168,0.671369,-0.760313,1
-0.75054,-1.354831,-1.070646,-0.144081,-0.257021,-0.271566,0.296692,-0.345842,-0.049083,1
-0.917147,-0.600636,-0.085444,-0.51803,0.038983,-0.086326,-0.399574,-0.559527,-0.00375,1
-1.002033,-0.995595,1.451274,0.138495,0.949557,1.551205,1.101163,-1.19065,-0.929349,1
-0.942338,-0.547905,2.842672,0.05228,1.245731,2.1575,0.696103,-1.314489,0.708912,1
-1.27776,-0.256022,3.074729,0.273206,2.028778,1.456453,-0.221196,-1.611623,1.123815,1
-1.092289,-0.470712,2.933012,1.01483,2.446965,1.422604,0.425034,-0.601745,0.389303,1
-1.045705,0.093041,3.174228,0.343277,1.992793,2.097698,-0.898353,-0.856514,1.398256,1
-1.128788,-0.003656,2.534909,0.375909,1.603282,1.644244,-0.597718,-1.061922,0.811154,1
-0.67699,-0.254495,2.241879,0.132808,1.945355,1.949579,-0.185475,-0.55718,0.167772,1
-0.492583,0.099483,1.707906,0.453783,0.897186,1.74607,0.881265,-0.617498,1.205724,1
-0.373324,0.142865,1.518993,0.59242,0.439797,1.260042,0.346246,-0.207527,0.275854,1
-0.554015,-0.09505,1.701928,0.334597,1.159379,1.015588,-0.312149,0.596744,-1.315132,1
-0.196781,0.029485,1.640111,0.068695,0.882013,1.279992,-1.391957,0.218897,0.104377,1
-0.476238,0.816763,1.630572,-0.240655,0.437355,1.746313,-0.691257,0.549857,0.736627,1
-0.364779,0.280228,2.417436,-0.505239,0.957095,2.030666,1.176039,-0.250929,-0.682274,1
-0.421543,0.309241,1.160898,-0.463385,0.706039,1.431611,0.052275,-0.840383,0.180813,1
0.141031,0.200142,0.249963,-0.607686,-0.074429,0.799548,-0.099926,-0.205462,-0.061424,1
-0.118096,-0.796512,0.51361,-0.175573,-0.081993,0.255425,-0.194615,-0.614935,0.215436,1
0.273518,-1.007067,-0.241052,-0.06667,0.019678,0.047075,-0.009644,0.068291,0.542633,1
-0.487483,-1.714468,1.047039,0.290254,0.176102,1.274227,-1.678715,0.102192,1.354846,1
-1.101243,-1.446343,1.565183,0.187384,0.246348,1.661654,-1.525661,0.718548,-1.654249,1
-0.5258,-0.776838,2.145205,0.132833,0.556849,1.573784,0.129091,-0.281038,0.817502,1
-0.562497,-0.55048,2.786306,0.384668,0.430777,2.231083,1.115738,-1.72307,1.425684,1
0.192271,0.047459,2.144063,0.402567,0.380773,2.051332,1.342612,-0.897459,0.354321,1
0.63884,0.197193,1.693541,0.011939,0.305309,1.234259,-0.440835,-0.473468,0.145678,1
0.52971,-0.181948,1.222071,-0.033318,0.029571,0.958241,-1.214466,-0.088191,0.822135,1
0.311525,-0.530773,0.818373,0.121039,0.281113,1.106603,-1.951451,-1.123562,3.316958,1
-0.326311,-1.008639,1.878808,0.647474,1.140887,1.846967,-0.537992,-1.211398,1.317878,1
-0.647779,-1.318808,2.214304,1.007955,1.865918,2.204761,-0.412338,-0.534125,0.084159,1
-0.414342,-1.033899,1.589611,0.750418,1.552304,1.779987,0.569294,-0.343657,-0.228677,1
-0.122848,-0.748534,1.131682,0.455258,1.053743,1.116426,0.02595,-0.571758,1.007379,1
-0.061784,-0.473843,0.513218,0.292323,0.704126,0.85554,-0.144215,-0.319472,1.049321,1
0.250353,-0.459918,0.77974,0.258231,0.608447,0.652057,0.947107,-0.589277,-0.185895,1
0.005484,-0.299988,1.219794,0.246436,0.506851,0.752891,0.448399,-0.451001,0.351197,1
-0.25966,-0.103702,1.460127,0.231865,0.605316,1.379375,-0.039034,-0.453506,-0.578368,1
-0.811609,-0.117578,1.622978,0.44848,0.824385,1.460555,0.359782,-0.345044,-0.774216,1
-0.815634,-0.100216,1.773547,0.289563,0.971211,1.219398,0.249852,-0.509749,-0.589128,1
-0.511222,-0.014896,1.788304,-0.097126,0.695827,1.036845,0.21216,-0.295266,0.289266,1
-0.669211,0.162758,1.713022,-0.167983,0.566418,1.111633,0.555183,-0.853604,0.244857,1
-0.874072,0.244345,1.72712,-0.251797,0.559097,1.323069,0.204978,-0.595485,-1.066911,1
-0.924714,0.247907,1.936597,-0.233196,0.804842,1.34547,-0.789755,-0.463693,-0.608736,1
-0.748999,-0.053143,1.599354,-0.324323,0.676582,0.783048,-0.737581,-1.054491,-0.319701,1
-1.111268,0.870498,0.599592,-0.19715,0.098106,0.298061,-0.373198,0.409913,2.109776,1
-0.511548,0.977992,0.350839,-0.186601,-0.168814,0.187435,-1.450344,-0.36431,3.069927,1
-0.025181,0.45888,0.224402,-0.075487,0.04732,-0.173699,0.673817,-1.638935,-1.193669,1
0.186309,0.043945,-0.38024,0.071777,-0.015977,-0.472756,0.612577,-0.698247,-0.4096,1
0.21426,-0.197162,-0.335577,0.136095,0.016254,-0.392184,-0.303999,-1.337336,0.550316,1
-0.082317,-0.670006,-0.59516,0.125727,0.25468,-0.272227,0.251909,-1.316918,0.258558,1
-0.281124,-0.696599,-1.072274,0.146538,0.260694,-0.705877,-0.179516,-0.979884,-0.132936,1
-0.932076,-0.116254,-1.933125,0.029539,0.347851,-1.779744,-1.217687,-1.061645,-0.28851,1
-1.001857,-0.149877,-2.869484,-0.18706,0.086246,-2.672783,-1.537629,0.285393,-0.905199,1
-0.853553,-0.279123,-3.320578,-0.437626,-0.31389,-3.077092,-1.644028,1.313807,-1.075047,1
-0.650667,-0.299896,-3.768026,-0.487752,-0.696334,-3.216798,-1.852176,1.818063,-1.072225,1
-0.731336,-0.038539,-4.083183,-0.3381,-0.972412,-3.169926,-0.428491,1.776067,-1.029967,1
-0.791613,0.060184,-4.025215,-0.09552,-0.88934,-3.168785,-0.472999,2.467962,-0.698256,1
-0.669574,0.832825,-3.872756,0.0047,-0.703156,-2.894959,0.090974,1.999678,-0.389733,1
-0.089206,1.284732,-2.971722,0.027471,-0.623919,-2.208477,3.026535,0.628185,-0.127688,1
0.650738,0.833844,-1.333805,-0.168439,0.076229,-2.062228,3.560226,0.593717,0.644651,1
1.030373,-0.335725,0.715893,-0.20601,0.363856,-1.316771,1.812698,-0.276299,0.685985,1
0.221932,-2.063383,0.623922,-0.443372,0.393771,-1.161435,-0.280194,0.730433,0.284761,1
0.960866,0.211126,0.800082,-0.485345,0.311769,-1.240216,-1.370212,0.029695,0.073452,1
1.253993,5.89278,0.958674,0.176062,-0.077977,-0.23713,-0.698314,-0.219171,-0.147354,1
1.479159,4.834558,0.670233,0.241745,-0.438891,0.038338,-0.965057,-0.381431,0.220553,1
1.943795,-0.538403,2.023779,0.090906,-0.85871,0.193203,1.146839,-0.46179,0.086106,1
1.076436,-1.392765,0.919026,0.223478,-0.492907,0.137129,0.19283,-0.327459,0.136261,1
0.025018,-1.130085,-0.59276,-0.919742,-0.26103,0.694452,-0.354432,-0.382637,0.078872,1
-0.020038,-0.678093,-0.507682,0.491831,-1.635137,1.130084,-0.61656,-0.255475,0.296993,1
0.171136,0.069158,-1.091796,0.606955,-1.667601,0.454844,0.043692,-0.295665,0.207899,1
,,,,,,-0.197801,-0.323354,-0.223892,1
-0.600156,-0.884956,-0.180382,-0.454627,0.08954,-0.126363,-0.01212,-0.118725,-0.55289,2
-0.461674,-0.783745,-0.097078,-0.474843,0.008722,-0.101812,0.045655,0.237153,-0.548365,2
-0.214309,-0.773172,-0.004829,-0.383066,0.29437,-0.422939,0.102373,0.482747,-0.268139,2
0.016008,-0.662038,-0.053664,-0.259981,0.047257,-0.193827,0.174151,0.638453,-0.054371,2
0.22158,-0.47724,0.116953,-0.333372,-0.016193,-0.060987,0.176704,0.341507,-0.021871,2
0.343746,-0.272389,0.412777,-0.259205,-0.220883,0.061053,0.2521,0.563233,0.107303,2
0.465753,-0.002509,0.702448,-0.238905,-0.396122,0.055513,0.450169,0.43337,0.090253,2
0.59985,0.247014,0.88602,-0.308311,-0.512753,-0.043048,0.416127,0.336705,0.034151,2
0.799575,0.499504,0.814337,-0.336781,-0.569274,-0.147997,0.0875,0.103192,-0.242703,2
0.928856,0.604813,0.631467,-0.379142,-0.585703,-0.092453,0.61427,-0.463088,0.366864,2
0.952123,0.478732,0.583456,-0.404186,-0.524024,0.162653,0.782353,0.228367,0.707111,2
0.982322,0.255567,0.636906,-0.422637,-0.434494,0.345565,0.620714,0.427597,0.885449,2
1.004134,0.006786,0.723742,-0.49013,-0.325227,0.369619,0.337206,0.501744,0.517299,2
0.971853,-0.002038,0.587307,-0.50677,-0.333097,0.319044,0.561038,0.077852,0.187733,2
0.87381,0.046623,0.225163,-0.520655,-0.317623,0.209614,0.351734,-0.245297,0.035773,2
0.745278,-0.017012,-0.033604,-0.486214,-0.330085,0.145476,0.065566,-0.171592,0.007152,2
0.749698,-0.204665,-0.181044,-0.585227,-0.250422,0.094768,-0.304456,-0.065604,0.056302,2
0.718242,-0.338236,-0.173482,-0.553035,-0.198022,0.185403,-0.312158,0.053198,0.190285,2
0.540685,-0.352236,-0.137425,-0.54327,-0.147214,0.380244,0.006331,-0.313083,0.208037,2
0.302432,-0.262846,0.066181,-0.542789,-0.061706,0.384233,0.054507,-0.273583,0.198444,2
0.100784,-0.219144,0.111537,-0.396828,-0.020159,0.168105,0.140579,-0.406144,-0.005855,2
-0.087649,-0.29456,0.076941,-0.204702,-0.08213,0.110899,-0.306925,-0.064411,0.158577,2
-0.21809,-0.424744,0.010502,-0.021765,-0.09154,0.03723,-0.668187,0.079907,0.100111,2
-0.281994,-0.625082,-0.116285,0.182895,-0.052253,0.018584,-0.226055,-0.089512,0.107459,2
-0.36567,-0.72913,-0.237972,0.355738,0.052339,0.009881,-0.140614,-0.094609,0.137646,2
-0.476643,-0.677393,-0.245612,0.483421,0.072055,0.02639,-0.405792,0.048793,0.215055,2
-0.655956,-0.480469,-0.145764,0.657718,0.072656,0.005395,-0.501586,0.253998,0.151147,2
-0.754813,-0.156435,0.060962,0.796028,0.12798,-0.01665,-0.551291,0.194868,0.185431,2
-0.819605,0.123591,0.216649,0.938939,0.216846,0.051324,-0.385587,-0.131866,0.079977,2
-0.832521,0.429394,0.295683,0.947297,0.250795,-0.15979,-0.145713,-0.141025,0.093003,2
-0.977746,0.890527,0.151504,1.140994,0.22797,-0.215502,-0.324086,-0.006166,0.203494,2
-1.195053,3.387388,0.256164,1.264575,0.149719,-0.174812,-0.121537,0.112201,0.091116,2
-0.990638,3.587924,0.192608,1.365849,0.072938,-0.06212,-0.111809,0.008316,0.222069,2
-0.79593,2.92539,-0.115351,1.350508,-0.001256,-0.027408,-0.292824,0.024119,0.190849,2
-0.238578,1.129294,0.110928,1.220382,-0.041322,-0.080934,-0.32656,0.074829,0.177003,2
-0.060078,0.197852,0.061417,1.050331,0.026691,-0.092579,0.106773,-0.035044,-0.010837,2
-0.319289,0.152916,0.050437,0.786016,0.036466,-0.058604,-0.00021,0.03123,0.116315,2
-0.556279,0.623557,0.046983,0.590445,0.012282,0.000813,0.164535,0.228811,0.231504,2
-0.485391,0.860325,0.171733,0.373695,-0.036704,0.051673,0.084371,0.11335,0.146083,2
-0.157545,0.32321,0.237262,0.19502,-0.029513,0.13374,-0.153332,-0.216119,-0.005757,2
0.132467,-0.203205,0.233485,-0.018796,-0.019765,0.213328,-0.077401,-0.451936,0.080673,2
0.347256,-0.537413,0.130087,-0.218159,-0.034134,0.231341,0.086084,-0.330344,0.104688,2
0.485651,-0.637055,0.023197,-0.391198,-0.072096,0.209959,0.106767,0.020091,0.178249,2
0.544533,-0.636047,0.072631,-0.542652,-0.168067,0.264953,0.209856,0.124994,0.155806,2
0.664838,-0.694877,0.054944,-0.691434,-0.242699,0.180046,0.174943,0.14651,0.170316,2
0.729874,-0.764721,0.02619,-0.779208,-0.291609,0.006009,0.141164,0.195641,0.137626,2
0.742464,-0.77108,-0.038445,-0.87162,-0.356228,-0.031579,0.115769,0.162897,0.05764,2
0.762303,-0.717361,0.017418,-0.917049,-0.34696,0.0226,0.145079,0.212461,0.036937,2
0.7717,-0.585663,0.053754,-1.099713,-0.286344,0.057336,0.171711,0.086965,-0.005522,2
0.728417,-0.456772,-0.007303,-1.213535,-0.219878,0.086935,-6e-05,0.148151,0.061049,2
0.71908,-0.295723,-0.005405,-0.705213,-0.408742,0.204174,-0.502903,0.248377,0.083899,2
0.68558,-0.158287,0.163014,-0.601697,-0.350952,0.314703,-0.211879,-0.217681,0.040557,2
0.644306,0.0221,0.341804,-0.482318,-0.232571,0.416922,0.358376,-0.141004,0.197474,2
0.574403,0.204665,0.41022,-0.399851,-0.268923,0.339474,0.186915,-0.379439,0.120706,2
0.477724,0.378091,0.399781,-0.299703,-0.204284,0.078184,-0.323037,-0.031988,-0.024835,2
0.331086,0.601406,0.2722,-0.129955,-0.212626,0.151932,-0.210268,0.168129,0.099956,2
0.189239,0.69176,0.403779,0.034832,-0.276503,0.218763,0.076085,-0.016265,0.161518,2
0.034662,0.732648,0.506331,0.169636,-0.190042,0.08379,0.031524,-0.154254,0.104368,2
-0.146892,0.681626,0.363461,0.259774,-0.057546,-0.048436,-0.095294,-0.090573,0.200077,2
-0.341138,0.641923,0.267372,0.366194,-0.051679,-0.105602,-0.048789,-0.063723,0.074971,2
-0.435558,0.461322,0.134344,0.47458,-0.086242,-0.132429,0.111298,0.208906,0.183372,2
-0.641432,0.18399,-0.100129,0.600807,-0.134566,-0.074857,0.152922,0.277217,0.204347,2
-0.689671,0.359314,-0.155316,0.665986,-0.144237,-0.017195,0.031534,0.268545,0.138664,2
-0.746275,0.144346,-0.110293,0.664679,-0.04685,0.066494,0.020421,0.18227,0.13441,2
-0.964041,0.292541,0.020645,0.603188,0.061907,0.132435,-0.089565,-0.025676,0.157119,2
-0.797179,0.311541,-0.046478,0.517173,0.058804,0.119994,-0.196685,-0.164967,0.10041,2
-0.795483,-0.156829,-0.129793,0.453366,-0.028163,0.120575,-0.225778,0.0959,0.174122,2
-1.00285,0.334267,0.111357,0.383508,-0.117425,0.061749,-0.008029,0.326447,0.237391,2
-0.548907,0.11371,0.155769,0.301487,-0.142649,0.019708,0.079401,0.286286,0.294813,2
-0.342823,-0.231956,-0.047347,0.200016,-0.171474,-0.010232,-0.14802,-0.014526,0.113701,2
-0.39327,-0.112713,-0.275174,0.104116,-0.159755,0.021449,-0.217529,0.146911,0.126269,2
-0.550302,-0.012067,0.116927,0.026535,-0.112208,0.082817,0.000661,0.377077,0.230095,2
-0.125992,0.052957,0.553352,-0.042796,-0.078203,0.143051,-0.01694,-0.035917,0.318065,2
0.126511,-0.040679,0.327449,-0.083115,-0.009641,0.240567,-0.188181,-0.396991,0.125155,2
0.390262,0.5585,0.090774,-0.094877,-0.015032,0.273603,-0.107351,-0.147782,0.048174,2
0.464592,-0.262693,-0.025498,-0.076187,-0.019678,0.250263,-0.083002,-0.165893,0.162436,2
0.506321,-0.049303,-0.135816,-0.064407,-0.068893,0.270944,-0.226716,-0.07342,0.269077,2
0.787157,-0.04699,-0.299871,-0.047709,-0.083627,0.227277,-0.19027,-0.168404,0.344457,2
0.48924,-0.506567,0.21526,-0.06461,-0.118183,0.14986,-0.050848,-0.056673,0.248979,2
-0.010525,0.211935,0.016318,-0.119284,-0.088195,-0.015003,0.070496,-0.086813,0.096246,2
0.572276,-0.74821,0.013526,-0.140374,-0.017355,-0.189182,0.002345,-0.035903,0.051266,2
0.549463,-0.685259,0.168692,-0.125185,-0.014411,-0.323957,-0.051798,0.304675,-0.010009,2
0.293823,-0.277823,0.146768,-0.08157,0.002108,-0.430761,-0.001602,0.27972,0.018044,2
-0.595832,-0.083175,0.475636,0.051835,-0.030784,-0.377193,0.229815,-0.172787,0.456895,2
-0.572922,0.481521,0.147273,0.142316,-0.045365,-0.075315,0.126284,-0.226292,0.366615,2
-0.409013,-0.352174,0.174201,0.181795,0.008199,0.127547,-0.209325,-0.276241,-0.033997,2
-0.310265,-0.150398,0.431151,0.091392,0.074832,0.26164,-0.464029,-0.301658,-0.215103,2
-0.016175,-0.274081,0.225012,-0.005753,0.226268,0.107009,-0.325644,-0.040168,-0.312706,2
-0.081873,-0.433201,-0.180428,-0.080042,0.246971,0.089682,-0.204021,0.039641,-0.384484,2
-0.069623,-0.176541,-0.143293,-0.136821,0.253752,0.147466,0.041479,-0.017759,0.095425,2
0.192757,-0.417845,-0.214413,-0.186093,0.295945,0.181949,0.427104,-0.13957,0.218076,2
0.366877,-0.608307,0.013884,-0.271414,0.258006,0.245116,0.46401,0.105436,0.291712,2
0.628867,-0.982315,-0.004991,-0.407462,0.20938,0.124898,0.420691,0.20977,0.405668,2
0.534979,-0.376503,0.369779,-0.510792,0.137052,-0.071724,0.353501,0.231112,0.173314,2
0.636684,-0.492903,0.219346,-0.589354,0.115258,-0.133331,0.250475,0.38112,0.082836,2
0.237758,-0.062378,0.193723,-0.680168,0.179076,-0.144949,0.068371,0.301791,-0.083599,2
-0.072242,0.722522,0.27454,-0.713257,0.277284,-0.165209,-0.075065,-0.303448,-0.305256,2
-0.03648,1.093223,0.288947,-0.773904,0.39852,-0.15036,-0.271815,-0.850666,-0.156991,2
0.10103,0.907387,0.252953,-0.669514,0.417588,0.130322,0.507675,-0.494746,0.250326,2
0.395114,0.158116,0.545919,-0.546354,0.295122,0.316844,0.16537,-0.335213,0.110856,2
0.715418,-0.498544,0.759093,-0.462169,0.124243,0.232676,0.591097,-0.209262,0.498402,2
0.812547,-0.712754,0.547601,-0.355268,0.002609,0.191081,0.580197,0.054187,0.345503,2
0.682886,-0.561758,0.306569,-0.297814,-0.081233,0.17615,0.580074,-0.081578,0.253543,2
0.653054,-0.433381,0.182357,-0.274015,-0.061958,0.106014,0.122472,0.256869,0.076558,2
0.709042,-0.492881,-0.01865,-0.294916,-0.01788,-0.00588,-0.08547,0.236761,0.010406,2
0.628665,-0.558839,-0.151438,-0.243971,0.005711,0.02341,-0.076642,0.05534,-0.012761,2
0.462256,-0.442563,-0.174833,-0.159802,-0.000909,0.139055,0.231424,-0.337451,0.08046,2
0.333027,-0.314292,-0.043861,-0.088308,0.009956,0.227562,0.429329,-0.263108,0.225731,2
0.230584,-0.255031,0.081492,-0.038984,0.020059,0.197593,0.436502,-0.005645,0.260307,2
0.198892,-0.216171,0.154846,-0.010709,-0.003484,0.120227,0.298008,-0.169106,0.196896,2
0.206616,-0.236132,0.187654,0.062961,-0.046884,0.065373,0.079022,-0.097742,-0.010888,2
0.183266,-0.256161,0.231351,0.082996,-0.039806,-0.012704,0.061138,-0.195045,0.044659,2
0.168485,-0.259964,0.216033,0.050624,0.059567,-0.076813,0.197437,-0.126626,0.091477,2
0.042457,-0.245676,0.183033,-0.000155,0.195028,-0.036235,0.293481,0.173793,0.315381,2
-0.036007,-0.214984,0.192484,-0.074157,0.208401,-0.008978,0.034969,0.241774,0.269665,2
-0.083249,-0.138964,0.194749,-0.100481,0.177212,-0.031898,-0.048506,0.323802,0.157302,2
-0.096197,-0.104378,0.053301,-0.079748,0.122926,-0.072911,0.12103,0.224341,0.192394,2
-0.061895,-0.126927,-0.041346,-0.105503,0.053688,-0.085337,0.058168,-0.083132,0.1345,2
-0.055248,-0.171063,-0.064512,-0.087519,0.034099,-0.019019,-0.127734,-0.190454,0.125375,2
0.022047,-0.176703,0.034653,-0.138622,0.001037,0.07899,-0.211931,0.092797,0.110628,2
0.015242,-0.111626,0.158608,-0.133116,-0.075624,0.144645,-0.036883,0.257235,0.07135,2
-0.030681,0.012791,0.210746,-0.160664,-0.127227,0.204974,0.248792,0.424076,0.160852,2
-0.10841,0.079656,0.215104,-0.178941,-0.149908,0.216392,0.162269,0.522414,0.270059,2
-0.192362,0.120489,0.211172,-0.137757,-0.213254,0.214592,0.053165,0.390752,0.112531,2
-0.171327,0.167146,0.137913,-0.126801,-0.315837,0.090281,-0.127571,0.210653,0.043106,2
-0.110882,0.125295,-0.041001,-0.073834,-0.442885,-0.079241,-0.174275,0.00747,0.06827,2
-0.039919,0.161142,-0.282445,-0.035586,-0.53211,-0.129792,-0.056819,0.2557,0.047528,2
0.001481,0.238803,-0.329186,0.054831,-0.48197,0.025868,-0.055486,0.172051,0.189835,2
0.06038,0.353096,-0.067605,0.078225,-0.459257,0.187969,0.075124,0.246999,0.020838,2
0.138662,0.55677,0.218773,0.060732,-0.397742,0.13456,0.043391,0.122301,0.346048,2
0.082726,1.049074,0.287554,0.16439,-0.38525,0.164858,-0.158885,0.082804,0.076508,2
0.138228,1.071214,0.497396,0.215518,-0.440183,0.163037,0.012799,-0.122235,0.093087,2
0.132184,1.146463,0.496402,0.294535,-0.49847,0.134153,-0.113371,-0.075335,0.10334,2
0.193483,0.844862,0.255417,0.33088,-0.511262,0.102995,-0.167005,0.126881,0.215525,2
0.159789,0.605269,0.178067,0.353817,-0.452253,0.092937,-0.142003,-0.146852,0.094908,2
0.068121,0.553934,0.09399,0.330983,-0.304074,0.121066,-0.114794,-0.22657,0.092864,2
0.04667,0.397335,-0.034886,0.298663,-0.225803,0.110742,-0.119306,-0.039944,0.186655,2
0.042667,0.226107,-0.072174,0.307961,-0.192353,-0.000302,-0.355806,-0.203892,0.01185,2
0.035688,0.255383,-0.135348,0.331852,-0.196445,-0.001478,-0.377646,-0.149578,0.064715,2
0.084105,0.075297,-0.073794,0.312885,-0.15528,0.054544,-0.174758,0.132745,0.200739,2
0.118181,0.004981,0.101701,0.278894,-0.082226,0.070952,-0.037749,0.122665,0.081134,2
0.063119,0.046808,0.251701,0.266353,-0.017293,0.213981,-0.238444,0.150219,0.113015,2
0.070885,0.068551,0.438515,0.214327,0.060917,0.146392,-0.280879,0.126649,0.072583,2
0.053688,0.081101,0.400461,0.206703,0.076945,0.083263,-0.230231,-0.199978,0.085472,2
0.038616,0.132272,0.360895,0.219594,0.043451,0.006463,-0.187505,-0.164332,0.123715,2
-0.065447,0.21119,0.299902,0.236533,-0.036609,-0.020731,0.0318,-0.019211,0.140301,2
-0.159531,0.205166,0.214228,0.20793,-0.075631,-0.011222,0.063537,0.11943,0.12817,2
-0.23897,0.19438,0.111758,0.142782,-0.067305,0.001331,0.062425,0.143759,0.255345,2
-0.366424,0.164846,0.102133,0.109244,-0.15641,0.05709,0.044656,0.063391,0.165782,2
-0.486904,0.120488,0.134298,0.072668,-0.23058,0.126606,-0.032847,-0.123588,0.042886,2
-0.518991,-0.004986,0.132707,0.007053,-0.289439,0.205245,-0.08277,-0.134401,0.190965,2
-0.540332,-0.114571,0.067775,-0.040539,-0.281548,0.202086,-0.075039,-0.194561,0.058702,2
-0.570642,-0.177397,-0.063957,-0.119231,-0.254935,0.12666,0.009957,-0.12115,0.072902,2
-0.575391,-0.25245,-0.168868,-0.100771,-0.208461,0.194187,0.123429,-0.186682,0.264326,2
-0.503448,-0.312779,-0.221324,-0.080513,-0.196388,0.179493,0.00478,-0.165825,0.083494,2
-0.438651,-0.353997,-0.211048,-0.017842,-0.196427,0.146801,-0.06923,-0.111988,0.061786,2
-0.365486,-0.3095,-0.207195,-0.018064,-0.076561,0.144876,0.051015,0.023822,0.395753,2
-0.262028,-0.237232,-0.14533,0.016987,-0.010592,0.138882,0.118609,-0.136689,0.203411,2
-0.100892,-0.225584,-0.087098,0.09036,0.052451,0.150072,-0.126791,-0.110757,0.240227,2
0.022067,-0.171461,-0.025609,0.150518,0.127757,0.065115,-0.376801,0.197852,0.066375,2
0.141239,-0.159627,0.089846,0.199888,0.139638,0.035535,-0.252574,0.125964,0.12414,2
0.209954,-0.079888,0.171673,0.194015,0.165082,0.032673,-0.038538,-0.041464,0.122012,2
0.228382,-0.01789,0.31897,0.311337,0.200156,0.059721,-0.269747,-0.25458,0.145226,2
0.215068,0.109245,0.349582,0.322335,0.191965,0.19451,-0.445117,0.007793,-0.079993,2
0.191802,0.231377,0.327768,0.282724,0.265257,0.258366,-0.45059,0.181278,0.040727,2
0.199296,0.324798,0.133477,0.306594,0.307938,-0.041392,-0.245277,-0.139501,0.061226,2
0.27582,0.327099,-0.08283,0.410705,0.34952,-0.210353,0.235771,-0.188817,0.210474,2
0.319802,0.357625,-0.200399,0.413308,0.270155,-0.213723,0.192223,-0.133629,0.109755,2
0.314349,0.447736,-0.207815,0.460669,0.219175,-0.190264,0.025721,-0.12432,0.105124,2
0.280455,0.451432,-0.021434,0.489715,0.201355,-0.213411,-0.110742,-0.255171,0.188042,2
0.238538,0.588955,0.212734,0.426019,0.115711,-0.018717,-0.140093,-0.079526,0.066439,2
0.109073,0.600562,0.489121,0.261581,0.031417,0.148432,-0.259916,0.063821,0.113004,2
0.050163,0.609789,0.442303,0.150011,0.105173,0.14188,0.088746,-0.150207,0.385836,2
-0.010683,0.459201,0.17554,0.044835,0.145667,0.232589,0.425455,-0.029395,0.36624,2
0.001258,0.146593,-0.062781,-0.088235,0.185564,0.304538,0.478253,-0.212107,0.339507,2
0.069394,-0.253466,-0.376636,-0.109273,0.183199,0.433258,0.294477,-0.522393,0.462766,2
0.139137,-0.532804,-0.340563,-0.111934,0.239985,0.569635,0.061584,-0.197326,0.744584,2
0.150822,-0.619213,-0.219692,-0.223038,0.192052,0.521102,1.307426,0.047852,1.311667,2
0.117772,-0.596171,-0.137535,-0.2806,0.094325,0.315661,-1.567354,-1.769099,-0.298923,2
-0.016588,-0.485671,0.351132,-0.433035,0.039798,-0.030001,-0.543822,-0.249447,0.067514,2
-0.059539,-0.2806,0.935837,-0.539722,-0.084651,-0.681682,0.76861,0.212658,0.221244,2
-0.012222,-0.292618,0.561508,-0.514237,-0.231359,-0.901795,0.711724,0.545444,-0.013738,2
0.167041,-0.490105,0.449299,-0.536644,-0.07598,-0.725505,0.513289,0.311904,-0.442235,2
0.402554,-0.728379,0.558158,-0.54283,0.13909,-0.318146,0.193591,0.279097,-0.205712,2
0.652021,-0.977091,0.77027,-0.678559,0.408188,-0.006783,0.413746,-0.010548,-0.247191,2
0.727227,-1.065597,0.786176,-0.693456,0.482754,0.260037,0.149781,-0.130715,-0.116169,2
0.642446,-0.758759,0.736806,-0.649524,0.539683,0.377986,0.298133,0.336977,0.109143,2
0.510445,-0.315184,0.662786,-0.558974,0.349169,0.288846,0.683788,0.438359,0.308559,2
0.411008,0.037378,0.489478,-0.449396,-0.015762,0.152118,0.800002,0.393283,0.269011,2
0.309918,0.034963,0.308599,-0.40537,-0.260928,0.040424,0.31411,0.575818,-0.185113,2
0.266902,-0.129186,0.085888,-0.568019,-0.22775,-0.098612,0.090199,0.402742,-0.238093,2
0.13643,-0.304911,0.025281,-0.837766,-0.11976,-0.213947,-0.260969,-0.290022,-0.367199,2
0.051297,-0.495333,0.050863,-0.915939,0.034542,-0.223891,0.33389,0.104683,-0.051069,2
-0.014451,-0.585223,0.131492,-0.883592,0.020698,-0.079623,-0.234725,-0.944879,-0.336426,2
-0.08356,-0.696909,0.20452,-0.682205,0.078766,0.010148,0.066117,-0.46462,-0.355072,2
-0.150748,-0.52169,0.272131,-0.618148,0.114399,0.022696,0.066661,1.007741,-0.183792,2
-0.2026,-0.605742,0.094081,-0.740041,0.163923,0.068091,0.810427,0.723206,0.324282,2
-0.278552,-0.750963,-0.143618,-0.604019,0.160634,0.28235,1.004057,-0.317956,0.640594,2
-0.342681,-0.950016,-0.215818,-0.51642,0.142567,0.437049,1.377342,-0.879687,0.909825,2
-0.196564,-1.01443,-0.052382,-0.525313,0.254313,0.514399,-0.667772,0.300708,0.880293,2
-0.273405,-1.406181,-0.053959,-0.4709,0.765875,0.296518,-0.83168,-0.424236,0.18602,2
-0.081308,-1.558213,-0.00101,-0.373072,0.687828,-0.020584,0.148132,-1.077965,0.080238,2
0.134298,-1.315794,-0.22838,-0.153732,0.638117,-0.424907,0.724114,-0.833157,0.032551,2
0.391492,-1.345624,-0.528757,-0.170547,0.601527,-0.66642,-0.208253,-0.375941,0.010813,2
0.546095,-1.239904,-0.489939,-0.238737,0.636662,-0.602172,-1.001082,0.316045,0.063652,2
0.590085,-0.937328,0.002751,-0.266245,0.410589,-0.535332,-0.26193,0.106803,0.049065,2
0.548684,-0.705405,0.118763,-0.215271,0.156479,-0.509745,0.480221,0.159023,0.148597,2
0.323872,-0.27135,0.101413,-0.113225,-0.06117,-0.591251,-0.250348,0.660897,0.318095,2
0.209591,0.11748,0.131386,-0.03498,-0.363094,-0.395509,-0.545937,0.809969,-0.170675,2
0.334802,0.061334,0.307875,0.026549,-0.691469,0.026859,-0.433794,0.92709,0.208529,2
0.491221,0.064441,0.549606,0.293649,-0.982993,0.759388,-0.289919,0.991468,0.29356,2
0.620415,0.055095,0.956891,0.463223,-1.272941,1.54176,-0.333374,0.82703,0.16545,2
0.001091,1.624495,1.472734,0.386443,-1.340711,1.507376,-0.008436,0.798661,0.182334,2
-2.27526,7.103366,1.391601,0.213862,-1.143467,0.927659,0.160102,0.291349,0.202207,2
-2.350434,5.723233,-0.005913,0.15116,-0.99215,0.365928,-0.200738,-0.113357,-0.005422,2
-1.891107,3.674584,-0.438925,0.552397,-1.227804,0.097013,-0.032033,-0.181748,0.149903,2
-0.87899,2.08162,0.021807,1.149357,-1.832953,-0.009008,-0.219984,-0.018652,0.132625,2
-0.089906,0.209607,-0.349075,1.472913,-2.248881,0.137105,-0.26574,-0.367767,0.061619,2
0.257952,-0.856661,-0.419793,1.438593,-2.082051,0.252704,-0.269415,-0.312506,-0.003115,2
0.666491,-1.401217,-0.596209,1.221179,-1.51122,0.327935,-0.27706,0.193065,0.196599,2
0.557568,-0.830715,-0.329682,0.996177,-0.818137,0.319558,-0.173631,0.167214,0.196041,2
0.769129,-0.655125,-0.253607,0.814301,-0.377489,0.161007,-0.39876,0.003722,0.072136,2
1.079893,-0.64358,-0.216836,0.824754,-0.314021,0.263449,-0.32022,-0.113148,0.108468,2
1.282607,-0.644933,-0.228943,0.643398,-0.094133,0.329301,0.081475,0.038617,0.173349,2
1.208523,-0.333289,-0.149872,0.689929,0.616437,0.112381,0.232764,0.521928,0.225492,2
0.881499,0.074641,-0.108582,0.781103,0.515468,0.201072,0.332181,0.523583,0.141322,2
0.66828,0.512759,-0.163972,0.546291,0.740206,0.095716,0.078414,0.37032,0.265693,2
0.55585,0.938164,-0.038717,0.436141,0.98443,-0.013589,-0.186126,0.439325,0.212576,2
0.681692,0.764092,0.203905,0.363847,0.978654,-0.172664,-0.352491,0.279551,0.217926,2
0.186851,1.025232,0.39307,0.312887,0.872488,-0.297865,-0.634422,0.270599,0.17293,2
-0.446755,1.433326,0.431588,0.174622,0.777503,-0.407278,-0.32388,0.275466,0.139226,2
-0.915679,1.707649,0.512615,0.030312,0.660557,-0.462052,-0.223574,0.389567,0.150491,2
-0.925242,1.644793,0.555414,-0.117145,0.500017,-0.454576,-0.19245,0.353395,0.134153,2
-0.67036,0.927556,0.572912,-0.265012,0.371892,-0.347252,-0.294362,0.261515,0.239783,2
-0.500199,0.388718,0.517575,-0.307308,0.173997,-0.111984,-0.427293,0.318637,0.211469,2
-0.390336,-0.058131,0.38923,-0.39755,-0.083458,0.07156,-0.03128,-0.0367,0.060241,2
-0.452531,-0.380226,0.104567,-0.429479,-0.321575,0.247597,0.25382,-0.310965,0.109113,2
-0.598536,-0.238618,-0.11415,-0.36158,-0.513223,0.470699,0.10568,-0.303481,0.184954,2
-0.759556,-0.029972,-0.183951,-0.320685,-0.612205,0.507613,-0.266357,-0.302983,-0.017493,2
-0.894923,0.084501,-0.169492,-0.228941,-0.677626,0.478324,-0.277719,-0.087047,0.119422,2
-0.902731,0.019255,-0.247481,-0.013137,-0.848854,0.490859,0.01102,-0.209907,0.239485,2
-0.818816,-0.085072,-0.284666,0.172612,-0.899171,0.372034,0.152054,-0.421188,0.105112,2
-0.769583,-0.123199,-0.305614,0.37456,-0.909312,0.139803,0.031663,-0.200984,0.094084,2
-0.653191,-0.127532,-0.214723,0.496322,-0.970614,-0.060021,-0.15195,-0.078063,0.089983,2
-0.523958,-0.160144,-0.120133,0.625376,-0.825255,-0.135984,-0.227989,0.124979,0.08881,2
-0.370905,-0.222724,0.02832,0.764649,-0.524841,0.107819,0.087868,0.249397,0.16846,2
-0.153752,-0.237604,0.362177,0.668094,-0.278948,0.245503,0.417184,0.182722,0.174797,2
0.032493,-0.169572,0.47965,0.55423,-0.196686,-0.005622,0.421588,0.233109,0.088704,2
0.224726,-0.119678,0.396875,0.50074,-0.144037,-0.253141,0.319312,0.255221,0.178477,2
0.375061,-0.168428,0.290911,0.448249,-0.042971,-0.388116,0.161056,0.053702,0.092652,2
0.539252,-0.153139,0.276118,0.345505,0.095219,-0.314935,-0.012122,-0.210714,-0.08765,2
0.713608,-0.171598,0.258045,0.200266,0.263375,-0.063361,-0.119213,-0.028078,-0.014695,2
0.812798,-0.208147,0.320971,-0.036649,0.413838,0.047236,0.04995,0.093486,0.145473,2
0.83938,-0.11963,0.350785,-0.289294,0.486041,-0.046937,0.189787,-0.018128,0.044058,2
0.831045,-0.118081,0.418955,-0.51006,0.494879,-0.048337,0.217886,0.1091,0.161234,2
0.803508,-0.164109,0.449594,-0.63706,0.429602,-0.019758,0.283596,-0.000858,0.083537,2
0.771229,-0.339708,0.27959,-0.81423,0.341669,0.008876,0.284934,-0.015953,0.21734,2
0.740953,-0.537534,0.141924,-0.984995,0.274796,-0.022746,0.284115,-0.061575,0.182055,2
0.663559,-0.766215,-0.023787,-1.142627,0.242775,0.128704,0.282979,-0.118973,0.196701,2
0.439799,-0.717303,0.113787,-1.230465,0.195973,0.328214,0.098656,-0.024594,0.154182,2
0.19623,-0.488845,0.319777,-1.302216,0.169567,0.309214,0.165394,0.235074,0.105742,2
-0.22436,0.380281,0.12415,-1.287969,0.053085,0.170638,0.545477,-0.024902,0.189997,2
-0.343613,0.136333,-0.054451,-1.179435,-0.039201,0.243356,0.577114,-0.131772,0.233064,2
-0.443914,0.068454,-0.112508,-1.031747,-0.054079,0.353828,0.189405,0.063994,0.146176,2
-0.25825,0.613113,0.278278,-0.90027,-0.130136,0.389748,0.181776,-0.013101,-0.025084,2
0.399371,-0.405169,0.034707,-0.702254,-0.184599,0.324127,-0.090088,-0.059288,0.082768,2
0.551188,-1.026367,-0.1569,-0.481787,-0.174808,0.273095,0.035347,0.068964,0.196246,2
0.34903,-0.578279,-0.44557,-0.264901,-0.139895,0.15831,0.212318,-0.084361,0.027369,2
0.029378,-0.465098,0.186026,-0.074273,-0.19124,0.027668,-0.112268,0.078838,-0.006869,2
-0.093354,-0.367299,0.027946,0.116806,-0.235998,0.00908,-0.043371,0.212661,0.243968,2
0.01888,-0.206841,0.473499,0.299453,-0.281359,0.001574,0.334518,0.109069,0.176745,2
0.154748,-0.469405,0.30998,0.398597,-0.245209,-0.056293,0.179176,0.048194,0.050286,2
0.227597,-0.229931,0.433276,0.472629,-0.188965,-0.267597,-0.118681,0.186203,0.168858,2
0.40305,-0.382417,0.304956,0.54587,-0.229598,-0.233201,0.024713,-0.065329,0.206995,2
0.695258,-0.536081,0.334566,0.690085,-0.248019,-0.163681,0.004232,-0.16947,0.134717,2
1.104217,-1.152829,0.11884,0.697536,-0.232543,-0.231665,-0.161192,-0.118954,-0.000962,2
0.805041,-1.274335,-0.423722,0.737606,-0.176012,-0.29448,-0.122782,-0.170793,0.149233,2
0.395972,-1.070941,-0.819599,0.805956,-0.114531,0.071311,0.096356,-0.129536,0.099719,2
-0.332355,-1.18261,-0.551846,0.727074,-0.054065,0.317591,0.076439,-0.210872,0.225477,2
-1.19803,-0.595044,-0.250919,0.621211,-0.021799,0.227244,-0.234856,-0.09601,0.085402,2
-1.69784,1.047207,-0.12222,0.559323,0.01902,0.294861,-0.199226,-0.177462,0.09801,2
-1.458598,1.737103,0.283908,0.41939,0.019984,0.241324,-0.197931,-0.171802,0.100173,2
-1.046143,1.824109,0.462189,0.379392,0.136419,0.180156,-0.15675,-0.107806,0.111034,2
-0.194417,0.921,0.462406,0.306275,0.282467,0.316572,-0.306987,-0.041297,0.124372,2
0.601208,-0.106719,0.422032,0.152148,0.445187,0.268761,-0.228447,0.020338,0.123163,2
0.91066,-0.485133,0.370887,0.018063,0.611924,-0.030095,0.07346,-0.010446,0.277636,2
0.781051,-0.077238,0.305145,0.079509,0.58667,-0.21116,-0.168018,-0.071962,0.095793,2
0.374741,0.673461,0.163406,0.13851,0.496907,-0.2775,-0.357737,0.113564,0.114961,2
0.066445,1.244785,0.073673,0.262073,0.436258,-0.184287,-0.112879,0.122377,0.11144,2
-0.002884,1.563677,0.152414,0.15876,0.497051,-0.109262,-0.025198,-0.207412,0.199333,2
0.36749,1.170274,0.310703,0.113336,0.575773,0.103142,-0.32468,-0.260993,0.155586,2
0.439831,1.07934,0.600467,0.104143,0.438502,0.223157,-0.258523,-0.189836,0.061807,2
0.381326,1.070876,0.638073,0.084617,0.285835,0.056128,-0.05772,-0.363159,0.162605,2
0.225407,1.115694,0.464889,0.158883,0.121221,-0.110008,-0.054155,-0.199155,0.160792,2
0.156555,0.905318,0.226103,0.200447,-0.029322,-0.170382,-0.109073,0.159968,0.098106,2
0.183818,0.546482,0.097038,0.243037,-0.122227,-0.130061,-0.141177,0.150354,0.121636,2
0.13491,0.264906,0.024104,0.227787,-0.126621,-0.071586,-0.115351,0.259011,0.11313,2
0.012732,0.041574,0.010099,0.28804,-0.106282,0.102051,0.067373,0.105875,0.242991,2
-0.080893,-0.152337,0.054531,0.293114,-0.127551,0.177113,-0.068219,-0.055349,0.121388,2
-0.079372,-0.309646,0.057454,0.34094,-0.191123,0.122251,-0.292524,0.072818,0.07015,2
-0.067852,-0.485786,0.0089,0.446955,-0.333533,0.048656,-0.197009,0.040332,0.144358,2
-0.080752,-0.562345,-0.084044,0.476718,-0.51761,0.047443,-0.014844,-0.12026,0.124426,2
-0.115982,-0.593541,-0.133591,0.461815,-0.587969,0.023004,-0.000975,-0.024847,0.0587,2
-0.156971,-0.588081,-0.129251,0.371482,-0.579315,0.064756,0.007076,0.009035,0.153909,2
-0.217621,-0.55199,-0.08578,0.172171,-0.467764,0.035484,0.141063,-0.123631,0.119297,2
-0.262923,-0.501054,-0.030847,0.042522,-0.403124,0.077801,0.228741,0.01267,0.047438,2
-0.32239,-0.503928,-0.005136,-0.096984,-0.336691,0.111328,0.281892,0.026789,0.121686,2
-0.28663,-0.566074,-0.036254,-0.220806,-0.429758,0.11664,0.078576,0.136144,0.110456,2
-0.26134,-0.626352,0.013633,-0.30988,-0.452403,0.239335,0.108554,0.349243,0.070716,2
-0.175132,-0.680239,-0.009655,-0.45354,-0.457977,0.276289,0.033451,0.488765,0.076143,2
-0.075276,-0.679321,0.040683,-0.578488,-0.423679,0.233089,0.166226,0.389566,0.13887,2
-0.045172,-0.564629,0.108928,-0.674242,-0.354331,0.238903,0.374309,-0.059081,0.302167,2
-0.017277,-0.372734,0.231948,-0.749629,-0.3028,0.237314,0.251538,0.126887,0.155791,2
0.011891,-0.256902,0.378428,-0.819025,-0.236837,0.290593,0.270511,-0.001121,0.132911,2
0.101947,-0.191251,0.498906,-0.856743,-0.049163,0.13213,0.30619,0.438556,0.179374,2
0.0725,-0.021453,0.34549,-0.782171,0.166893,-0.010406,0.126885,-0.040336,0.281964,2
-0.080119,0.111649,0.190266,-0.68057,0.187054,0.058208,0.134084,-0.620541,-0.074925,2
-0.177786,0.110175,0.230364,-0.523578,0.104036,0.124147,0.169373,0.096154,0.192431,2
-0.102077,-0.030842,0.170674,-0.38223,-0.00878,0.055548,0.376649,0.226855,0.418633,2
-0.03803,-0.081852,0.035033,-0.311648,-0.079985,0.077685,0.198652,0.374044,0.202909,2
-0.093622,0.105463,0.033806,-0.295739,-0.044076,0.042175,0.208631,0.349312,0.018761,2
-0.012243,0.27262,-0.027931,-0.268369,-0.004328,-0.014375,0.098404,0.05736,-0.049782,2
0.12073,0.23054,-0.016341,-0.211453,-0.037201,0.029896,0.092268,0.22466,0.029543,2
0.204216,0.279629,-0.013789,-0.155792,-0.104331,0.10308,0.255037,0.365492,0.082008,2
0.329222,0.447967,0.07516,-0.132335,-0.096499,0.065523,0.21066,0.4248,0.021726,2
0.637539,0.464676,0.253036,-0.08255,-0.056453,0.04104,0.157618,0.146027,0.026389,2
0.647342,0.470194,0.367776,-0.043433,-0.111876,0.084157,0.346453,0.175826,0.08694,2
0.690193,0.499894,0.544193,-0.019738,-0.190149,0.058374,0.234739,0.222504,0.179009,2
0.627803,0.46235,0.523526,0.03526,-0.279963,0.040703,0.00586,0.051834,0.129428,2
0.576127,0.235029,0.49054,0.003735,-0.348631,0.030399,0.247403,0.242609,0.116753,2
0.570864,-0.058195,0.308192,-0.045697,-0.356048,0.009492,0.285359,-0.276954,0.072894,2
0.557788,-0.249067,0.141984,-0.129432,-0.312632,0.022406,0.299857,0.126541,0.130423,2
0.477796,-0.4636,0.019447,-0.164004,-0.347784,0.197674,-0.116067,0.028616,0.213934,2
0.344152,-0.510796,0.098176,-0.274472,-0.302202,0.270349,-0.03448,-0.165462,0.051468,2
0.241754,-0.488359,0.068283,-0.316598,-0.286085,0.053771,0.132605,-0.10249,0.070171,2
0.234501,-0.178509,-0.033639,-0.287279,-0.182269,-0.063523,0.095713,-0.172994,0.139054,2
0.142467,-0.175665,-0.233029,-0.290756,-0.138337,-0.095025,0.144126,-0.356677,0.15698,2
0.083996,-0.197341,-0.296889,-0.223123,-0.103115,-0.071463,-0.314055,0.092351,0.163768,2
0.02973,-0.28224,-0.174891,-0.143622,-0.019873,0.034554,-0.330767,0.431024,0.223448,2
-0.096183,-0.17283,0.152527,-0.046224,-0.076002,0.123801,0.19111,0.04646,0.39813,2
-0.171367,-0.053413,0.268143,0.056009,-0.087157,0.187633,0.357858,0.099113,0.218604,2
-0.208779,0.022128,0.153115,0.177727,-0.066002,0.155203,-0.325732,0.152086,0.280703,2
-0.136108,-0.051672,-0.014712,0.355356,-0.092283,0.269652,-0.812165,-0.024312,0.137543,2
-0.091515,-0.073126,0.134736,0.499228,-0.13363,0.385159,-0.600795,0.152149,-0.02607,2
-0.108026,0.119377,0.276804,0.572988,-0.068836,0.343909,-0.435023,-0.044489,0.078145,2
-0.283442,0.542289,0.189708,0.69624,0.060982,0.336073,-0.449367,-0.168644,0.242085,2
-0.545056,0.9574,0.218387,0.815863,0.239112,0.314913,-0.586967,0.002381,0.220389,2
-0.738549,1.321053,0.374598,0.993534,0.220224,0.238412,-0.234707,0.546599,0.42135,2
-0.807626,1.51446,0.208358,1.164566,0.155552,0.010968,-0.393766,-0.375084,0.111608,2
-0.731019,1.367776,-0.009973,1.351332,-0.031456,-0.176537,-0.783546,-0.626559,-0.155581,2
-0.616666,1.042863,-0.253047,1.466273,-0.177348,-0.321178,-0.824019,-0.345989,-0.124468,2
-0.594152,0.853714,-0.371775,1.453534,-0.215092,-0.378592,-0.615441,-0.550996,-0.150908,2
-0.740968,0.75547,-0.432583,1.293447,-0.049638,-0.28524,-0.636401,-0.840316,-0.299997,2
-0.861567,1.15947,-0.436325,1.114691,0.096402,-0.202198,-0.336367,-1.12067,0.301718,2
-0.740088,0.98348,-0.488154,1.023584,0.08726,-0.036293,0.24905,-0.907912,0.584886,2
-0.644405,0.72561,-0.345284,0.853263,-0.022134,0.063584,0.324851,-0.618587,0.217605,2
-0.547429,0.551078,-0.197438,0.638898,-0.054805,-0.010211,-0.040769,-0.379297,0.728318,2
-0.469055,0.356337,-0.13662,0.413795,-0.122799,0.045896,0.121678,0.001257,0.93019,2
-0.360694,-0.051629,0.057189,0.155184,-0.168093,0.398977,1.224401,1.122715,0.176265,2
-0.205118,-0.442095,0.463825,-0.131129,-0.179331,0.476896,1.166652,1.148841,0.42788,2
0.062999,-0.672859,0.629255,-0.423384,-0.12443,0.411624,1.118756,0.857294,0.429548,2
0.244919,-0.925552,0.659349,-0.818372,0.012076,0.329229,0.27493,0.209527,-0.262104,2
0.339317,-1.081205,0.69008,-1.087986,0.103293,0.145947,-0.477241,-0.001431,-0.590772,2
0.243941,-1.272337,0.756186,-1.716147,-0.521161,0.293931,-0.79831,-1.223774,-0.88264,2
0.341186,-1.179347,0.811911,-2.999198,0.156281,-0.416406,-0.33123,-0.377555,-0.245333,2
0.701468,-1.358104,0.546721,-2.386027,0.325188,-0.486427,0.118234,-1.999264,-0.079559,2
0.733847,-1.630875,0.059889,-1.287722,0.110436,-0.22703,-0.815452,-0.274406,-0.235319,2
0.590217,-1.506851,0.024074,-0.519213,-0.409741,0.139731,-0.953776,0.670346,0.013332,2
0.46722,-1.378749,-0.138996,-0.333899,-0.176184,-0.005263,0.290402,1.288609,0.310161,2
0.339335,-1.121295,-0.35622,-0.441777,0.13286,-0.16074,1.377174,1.998995,0.533906,2
0.304954,-1.031559,-0.6241,-0.75245,0.729679,-0.434639,2.014285,2.038757,0.587342,2
0.36345,-0.968002,-0.699992,-0.2997,0.426276,-0.161962,1.888887,1.214903,0.422797,2
0.629714,-1.006502,-0.478105,-0.065844,0.327005,0.028615,1.041762,1.346048,0.309614,2
0.817148,-0.670503,0.04902,0.153945,0.291749,0.227498,0.202883,1.796494,0.408737,2
0.953424,-0.235763,0.525073,0.14639,0.29033,0.434311,-0.298795,1.088696,0.596326,2
1.046313,0.13709,0.905148,0.147517,0.225095,0.50181,0.148618,0.263029,0.483635,2
0.958673,0.613379,1.253592,0.289961,0.078273,0.477985,-0.03444,-0.310613,0.250238,2
0.787998,1.186146,1.227357,0.301731,-0.076696,0.26242,-0.263758,-0.578063,0.021948,2
0.574079,1.58667,0.984797,0.289786,-0.120499,-0.053772,-0.331624,-1.083792,-0.000638,2
0.406331,1.666837,0.641604,0.106815,-0.231145,-0.031835,-0.420495,-1.546413,-0.331429,2
0.324484,1.509434,0.57019,-0.193307,-0.211191,-0.140857,-0.078605,-1.626007,-0.415163,2
0.191849,1.164186,0.28018,-0.164963,-0.2503,-0.16372,-0.916917,-1.932058,-0.468644,2
0.065761,0.867196,0.02592,-0.318013,-0.309367,-0.348179,-1.087212,-1.321682,-0.381758,2
-0.049652,0.650038,-0.157654,-0.261016,-0.400831,-0.34839,-1.174975,-1.415146,-0.585735,2
-0.228241,0.614459,-0.190619,-0.143288,-0.424717,-0.135719,-1.112162,-1.075532,-0.311608,2
-0.52646,0.471906,-0.131353,-0.126929,-0.170596,-0.046944,-0.834308,-1.06111,-0.184965,2
-0.519653,0.067881,-0.001187,-0.031902,-0.02081,0.16697,0.037055,0.048459,0.366213,2
-0.52113,-0.367148,0.036449,-0.250383,0.173693,0.321688,0.845089,1.234923,1.043428,2
-0.325035,-0.91389,-0.020022,-0.345266,0.348901,0.233856,2.718751,2.176881,1.120204,2
-0.283791,-1.23287,0.263075,-0.306528,0.327722,0.147309,1.976846,2.643997,0.836605,2
-0.433313,-1.321284,0.334416,-0.267462,0.268674,0.036922,0.675711,3.024578,0.598722,2
-0.416798,-1.157343,0.331785,-0.287469,0.385556,-0.326582,0.763575,0.576622,-0.124799,2
-0.261763,-1.16659,-0.06406,-0.317787,0.424264,-0.419484,-0.679772,-1.157574,-1.203098,2
-0.044314,-1.213207,-0.024953,-0.444205,0.504757,-0.334729,-1.45241,-1.216668,-1.349181,2
0.360554,-1.253919,0.238773,-0.509012,0.42411,-0.202931,-0.439012,-0.739009,-0.364231,2
0.831879,-1.367446,0.311182,-0.655141,0.261836,-0.023378,-0.101367,-1.52255,0.069975,2
0.954776,-1.127305,0.343703,-0.795915,0.15424,0.312812,1.903819,0.270697,1.263881,2
0.736724,-0.629271,0.569124,-1.046209,0.182749,0.540773,1.399591,0.459652,1.372557,2
0.819903,0.069517,0.581964,-1.184565,0.186219,0.414391,0.332593,0.237457,0.384843,2
0.648992,0.373223,0.492074,-1.103824,-0.0129,-0.077335,0.398582,-0.204275,-0.185869,2
0.393893,-0.376675,-0.051288,-0.906722,-0.255156,-0.353214,-0.304864,-0.160236,-0.171494,2
0.578874,-1.182558,-0.644759,-0.662917,-0.37174,-0.105325,-0.364131,-0.145574,0.002718,2
0.582962,-1.317951,-0.387013,-0.588589,-0.350169,0.246351,0.014377,-0.067598,0.173998,2
0.609023,-1.098366,-0.176068,-0.456916,-0.220929,0.478679,0.402073,-0.102204,0.284379,2
0.715072,-0.880168,0.023088,-0.347579,-0.193212,0.594448,0.511489,0.147789,0.190367,2
0.589293,-0.585156,0.039734,-0.208366,-0.211423,0.351243,0.358056,0.352509,0.150311,2
0.454619,0.00104,-0.029283,0.136346,-0.330611,-0.058407,-0.122861,0.252381,0.155741,2
0.239013,0.57813,0.00817,0.478242,-0.527034,0.062049,-1.159753,0.272485,0.060342,2
-0.120079,1.016851,0.387085,0.7972,-0.629522,0.403398,-1.767722,0.694906,-0.094524,2
-0.285226,1.072633,0.533026,1.034815,-0.542408,0.622618,-0.045008,-0.311367,0.191455,2
-1.624867,3.120581,0.607997,1.031055,-0.301147,0.587602,-0.285348,-0.643605,0.108059,2
-2.246753,3.383349,0.310256,1.048993,-0.066754,0.316169,-0.686584,-0.36716,0.07708,2
-2.286565,3.438326,0.154296,1.13769,-0.070844,0.07011,-0.035948,-0.438304,0.201163,2
-1.791612,2.211717,0.011403,1.274186,-0.287755,-0.22845,-0.169073,-0.289211,0.16035,2
-0.983569,0.537627,0.019032,1.518156,-0.590241,-0.438862,-0.227914,-0.369382,-0.005044,2
-0.153266,-0.893602,-0.113131,1.626496,-0.815189,-0.516765,-0.203628,-0.152924,0.196788,2
0.147541,-1.379929,-0.306926,1.609164,-0.777272,-0.45176,0.070492,0.018955,0.211372,2
0.009093,-1.006767,-0.376101,1.399108,-0.507542,-0.137967,0.156521,0.201713,0.139832,2
-0.224383,-0.567475,-0.210135,1.092994,-0.168581,0.049392,0.332314,0.477893,0.177364,2
-0.126272,-0.400449,-0.12117,0.882978,0.09313,0.147141,0.14024,0.604677,0.356236,2
-0.101113,-0.045017,0.083837,0.631404,0.220304,0.173602,-0.369889,0.545134,0.355696,2
0.119102,0.097305,0.206969,0.57139,0.150986,0.183551,-0.252012,0.252528,0.098988,2
0.22061,0.397335,0.286159,0.608688,0.008101,0.278833,-0.177856,-0.034136,0.150843,2
0.237569,0.980777,0.165168,0.520844,-0.104923,0.226606,-0.334071,0.093731,0.093053,2
0.598315,0.842627,-0.104122,0.309024,-0.009982,0.131043,-0.2441,0.072844,0.10175,2
0.67056,0.908436,-0.130651,0.062803,0.087736,0.151879,-0.354869,-0.152137,0.140947,2
0.572074,0.8342,0.212329,-0.180229,0.142946,0.204088,-0.191031,-0.225301,-0.017443,2
0.595785,0.397609,0.244191,-0.340539,0.093937,0.18003,-0.282874,-0.152992,0.207127,2
0.330196,0.285338,0.270779,-0.442695,0.023375,0.09462,-0.186478,-0.106921,0.084433,2
0.072192,0.288061,0.415425,-0.530597,-0.028124,0.130921,-0.066983,0.016457,0.164289,2
-0.176535,0.242697,0.402884,-0.630144,-0.051914,0.107365,-0.13873,0.088651,0.286295,2
-0.317637,0.310765,0.390723,-0.677218,-0.090149,0.024613,0.060291,0.090047,0.084348,2
-0.165537,-0.086756,0.222815,-0.61017,-0.149532,-0.028358,0.191833,0.134907,0.189723,2
0.052487,-0.364197,-0.014008,-0.381824,-0.282233,0.090469,-0.003342,0.115444,0.141845,2
0.036867,0.06964,-0.137705,-0.23883,-0.328676,0.158212,-0.137461,0.182879,0.083008,2
-0.617287,-0.024595,-0.237128,-0.037127,-0.305861,0.213435,-0.078241,-0.017058,0.169602,2
-0.417364,-0.434891,-0.203681,0.024431,-0.231309,0.211587,-0.291889,0.017466,0.102036,2
-0.728148,0.526631,-0.219295,0.189245,-0.15466,0.163634,-0.264116,-0.029698,0.098829,2
-0.47676,0.522321,0.145679,0.349452,-0.131408,0.167471,0.070501,-0.058576,0.052547,2
-0.46942,0.303255,-0.01866,0.520984,-0.166834,0.166345,0.019651,-0.033598,0.17296,2
-0.444431,-0.01504,0.181684,0.673466,-0.178659,0.069468,-0.077697,0.111003,0.154917,2
-0.24529,0.097445,0.346684,0.753766,-0.256797,-0.11177,0.125678,0.133161,0.114535,2
-0.242772,0.154536,0.224836,0.793894,-0.28262,-0.266978,0.130207,0.038459,0.167007,2
-0.197479,0.096007,0.026191,0.832412,-0.291276,-0.310291,0.030237,0.083618,0.150926,2
-0.079658,0.143772,-0.178638,0.81076,-0.23376,-0.299685,-0.01229,0.010654,0.160326,2
-0.093262,0.241664,0.055133,0.732744,-0.154843,-0.132953,-0.024866,-0.149755,0.077978,2
-0.078863,0.01813,0.182051,0.577379,-0.110342,-0.183823,-0.084171,-0.159517,0.13865,2
-0.010474,-0.131165,0.181966,0.455228,-0.026588,-0.406537,-0.308426,0.051056,0.136515,2
-0.047478,-0.142125,0.022724,0.569799,-0.034864,0.002434,-0.412881,0.093786,0.155747,2
-0.121787,-0.223239,0.473145,0.534762,0.006769,0.458016,-0.190081,-0.047329,0.074075,2
-0.201144,-0.253866,0.761592,0.466769,0.092967,0.689801,0.158541,-0.261455,0.129306,2
-0.087157,-0.28524,0.74779,0.274913,0.129377,0.393529,-0.009212,-0.074753,0.180718,2
0.087169,-0.101779,0.21178,0.136268,0.00998,-0.009344,-0.054867,-0.053097,0.010606,2
0.044588,0.13091,-0.301481,0.088008,-0.205435,-0.126081,-0.126817,-0.241089,0.062975,2
-0.040635,0.274991,-0.547954,0.021931,-0.346355,0.141048,0.002266,-0.200899,0.054717,2
-0.090973,0.332756,-0.23675,-0.114252,-0.346518,0.324632,0.142219,-0.14192,0.128015,2
-0.09472,0.478657,0.125722,-0.329909,-0.229413,0.279269,0.1687,0.004242,0.086712,2
-0.054565,0.631771,0.263186,-0.580201,-0.052407,0.076621,0.308274,-0.027995,0.284702,2
-0.012923,0.490506,0.180867,-0.731927,0.04848,0.052564,0.347029,0.002848,0.169641,2
0.001426,0.188351,0.139194,-0.697868,-0.021455,0.101604,0.42802,0.031497,0.117763,2
0.093769,-0.204138,0.261764,-0.599776,-0.314655,0.08619,0.465432,0.107333,0.120917,2
0.229312,-0.406778,0.259585,-0.520015,-0.419634,0.149442,0.406166,0.181253,0.094464,2
0.293492,-0.484561,0.17614,-0.578628,-0.289455,0.12273,0.201495,0.371171,0.067871,2
0.252026,-0.437318,0.066538,-0.65519,-0.116986,0.12959,0.036442,0.421448,-0.003243,2
0.242518,-0.30833,0.063346,-0.674637,0.023827,0.153625,0.086558,0.219251,0.002019,2
0.255459,-0.198195,0.09428,-0.624754,0.091701,0.213762,0.155684,0.160587,0.059719,2
0.324767,-0.155815,0.254521,-0.539148,0.113797,0.105623,0.509895,0.34595,0.232611,2
0.381043,-0.085192,0.25458,-0.441591,0.14729,-0.003891,0.510906,0.455953,0.211847,2
0.39412,-0.096167,0.339642,-0.391718,0.179693,-0.121416,0.25338,0.565147,0.295512,2
0.450518,-0.151271,0.347136,-0.332671,0.163224,-0.247132,0.077099,0.152316,-0.087464,2
0.519664,-0.313212,0.425082,-0.30893,0.108695,-0.278872,0.038695,-0.110992,-0.103171,2
0.559543,-0.388413,0.27448,-0.198631,0.010972,-0.270998,0.138104,-0.024733,0.212403,2
0.483628,-0.440036,0.18436,-0.180548,-0.120537,-0.190428,0.281892,0.102052,0.05858,2
0.430559,-0.438009,0.141001,-0.219252,-0.209224,-0.199406,0.341956,0.210545,0.061114,2
0.344743,-0.332288,0.14868,-0.232631,-0.256296,-0.133151,0.312683,0.44833,0.174893,2
0.338254,-0.222324,-0.087693,-0.280768,-0.353568,0.023258,0.455935,0.53557,0.067828,2
0.316152,-0.204618,-0.159384,-0.296726,-0.401596,0.193902,0.223851,0.287246,0.211784,2
0.310367,-0.135301,-0.087425,-0.325281,-0.402318,0.381796,-0.062851,-0.04858,0.269447,2
0.296339,-0.135452,-0.048854,-0.285349,-0.339662,0.53985,0.221389,-1.047953,0.046786,2
0.279516,-0.129043,-0.002098,-0.257211,-0.278875,0.667443,-0.134714,-0.152163,0.146307,2
0.278597,-0.093202,0.174879,-0.18186,-0.155175,0.523296,-0.088719,-0.067293,0.174873,2
0.268817,-0.044485,0.161129,-0.07625,-0.134414,0.310834,0.080553,-0.108089,0.107089,2
0.292466,-0.044393,0.07268,0.052279,-0.136417,0.109042,0.161022,-0.434178,0.16656,2
0.327414,0.029797,0.018718,0.183255,-0.103716,-0.083014,-0.201062,-0.246368,0.075406,2
0.298413,0.149778,-0.049339,0.278079,-0.051008,-0.11764,-0.248201,0.043275,0.190922,2
0.21882,0.280236,0.068091,0.339698,0.081398,-0.110199,-0.061165,-0.270694,0.124714,2
0.13045,0.41183,0.158383,0.346501,0.188085,-0.049795,-0.172965,-0.25377,0.128388,2
0.039669,0.503639,0.289141,0.374672,0.228952,0.00943,-0.054606,0.007531,0.105909,2
-0.082949,0.564798,0.468326,0.439406,0.257779,-0.038022,-0.030826,-0.083044,0.096905,2
-0.169572,0.563085,0.455686,0.475273,0.293896,-0.070707,-0.206596,-0.06678,0.144131,2
-0.251088,0.377202,0.438891,0.491884,0.270654,-0.098161,-0.168962,0.034139,0.170447,2
-0.316919,0.210966,0.259336,0.527641,0.150104,-0.138994,-0.072293,-0.005779,0.138405,2
-0.44573,0.124366,0.093393,0.540153,0.071818,-0.284165,-0.106178,-0.130304,0.135004,2
-0.534788,0.048043,0.050016,0.548719,0.006347,-0.175648,-0.318248,0.071134,0.139995,2
-0.55703,-0.029619,-0.014233,0.485626,-0.092931,-0.060871,-0.159459,0.119717,0.099459,2
-0.67005,0.052273,-0.035473,0.402634,-0.159491,0.007112,-0.119432,0.160657,0.168139,2
-0.76593,0.141044,-0.124128,0.316886,-0.265078,0.138599,-0.046186,0.121512,0.138827,2
-0.787039,0.063836,-0.033518,0.272677,-0.33764,0.204859,-0.227248,0.132718,0.084823,2
-0.769366,0.017599,0.019628,0.224008,-0.465908,0.185647,-0.241335,0.187582,0.072069,2
-0.714737,-0.064065,-0.026537,0.154647,-0.589667,0.142219,-0.111953,0.155835,0.152304,2
-0.684207,-0.134557,-0.073686,0.063964,-0.609588,0.145004,-0.1456,0.067766,0.19127,2
-0.564872,-0.222455,-0.036073,0.002957,-0.627624,0.192579,-0.179589,0.114226,0.082272,2
-0.439453,-0.209986,0.036177,-0.017986,-0.63968,0.225054,-0.154822,0.12865,0.172704,2
-0.415353,-0.025628,0.063567,-0.054923,-0.633843,0.231782,0.100243,0.067576,0.244457,2
-0.348277,0.070701,0.14484,-0.05062,-0.59839,0.191021,0.248684,-0.089749,0.170276,2
-0.190996,0.081365,0.200148,-0.01402,-0.516572,0.204477,-0.022414,-0.132192,0.171125,2
-0.063992,0.127347,0.193918,-0.004457,-0.463825,0.204275,-0.207971,-0.008823,0.081649,2
0.017412,0.165604,0.178372,0.005458,-0.331501,0.169308,-0.148797,-0.20225,0.204426,2
0.097161,0.190999,0.184524,0.036128,-0.184813,0.17141,-0.066002,-0.237144,0.092196,2
0.16992,0.20022,0.188858,0.027707,-0.078935,0.127877,-0.057026,-0.158836,0.190975,2
0.265041,0.137404,0.190681,0.077851,0.013251,0.088879,-0.00245,-0.073082,0.168728,2
0.353143,0.094249,0.145307,0.08722,0.091155,0.096341,0.095581,-0.102969,0.128722,2
0.383321,-0.000932,0.129398,0.107058,0.206494,0.116424,0.071648,-0.105676,0.24911,2
0.432759,-0.039906,0.101159,0.100614,0.244665,0.152031,0.014991,-0.031241,0.109404,2
0.498873,-0.088111,0.12457,0.111807,0.358196,0.19335,-0.125931,0.075728,-0.004025,2
0.519189,-0.097655,0.120508,0.091277,0.43035,0.169841,-0.074782,0.024513,0.227826,2
0.521235,-0.048046,0.137816,0.074404,0.485952,0.148418,0.213989,-0.005791,0.272134,2
0.487233,-0.022295,0.143213,0.014629,0.509779,0.119319,0.269728,0.007322,0.265419,2
0.481356,0.017021,0.179433,-0.003003,0.49351,0.046679,0.253804,-0.043826,0.276139,2
0.492207,-0.030023,0.135041,0.010238,0.48691,0.020178,0.138936,0.016238,0.130975,2
0.437244,-0.047749,0.112159,-0.026637,0.473048,-0.045877,0.039253,-0.110443,0.133146,2
0.364323,-0.002571,0.07321,-0.052763,0.441376,-0.115967,0.048422,-0.101727,0.15968,2
0.245984,0.006386,0.151392,-0.094939,0.367493,-0.110432,0.146106,0.179117,0.058119,2
0.164348,0.000711,0.171366,-0.143301,0.272713,-0.215772,0.143588,0.32057,-0.088116,2
-0.00244,-0.034913,0.205554,-0.151953,0.254232,-0.303371,0.221968,-0.060083,0.219735,2
-0.010603,-0.106586,0.17282,-0.180066,0.314355,-0.023211,0.271264,-0.050771,0.156197,2
0.061888,-0.270154,0.204535,-0.214624,0.312604,0.163324,0.256545,0.116633,-0.033453,2
0.047506,-0.139417,0.07361,-0.187334,0.275892,0.148146,0.324349,-0.109948,0.105815,2
-0.09275,-0.062525,-0.003638,-0.140417,0.036969,0.269788,0.320113,-0.141885,0.446671,2
-0.175543,-0.067201,0.251986,-0.167896,-0.164559,0.19832,0.040819,0.086862,0.037215,2
-0.157776,-0.213365,0.422822,-0.224154,-0.257259,-0.022768,-0.301295,0.014801,-0.233814,2
-0.101591,-0.417622,0.325879,-0.375186,-0.307048,-0.156783,-0.24294,0.024801,-0.157287,2
-0.021472,-0.526202,0.151934,-0.427534,-0.364224,-0.122925,-0.070537,-0.111845,0.006058,2
0.00867,-0.68865,0.033955,-0.473695,-0.360954,0.017588,0.042882,-0.246052,0.083038,2
-0.0048,-0.779758,0.141511,-0.481095,-0.2891,0.057224,0.106765,-0.247067,-0.03366,2
-0.012635,-0.710995,0.156014,-0.411097,-0.294782,0.030085,0.047499,-0.22228,0.031979,2
-0.08354,-0.547139,0.075269,-0.308567,-0.366139,0.08769,0.126149,-0.122677,0.192539,2
-0.085637,-0.407088,0.085429,-0.182609,-0.372328,0.078479,0.24642,-0.029607,0.017436,2
0.043003,-0.440569,0.162035,-0.129217,-0.312681,0.082466,0.159421,-0.134833,-0.021678,2
0.212902,-0.498836,0.097571,-0.117076,-0.232768,0.092185,-0.032146,-0.392809,0.033031,2
0.210677,-0.410768,0.065365,-0.124958,-0.068047,0.109366,0.029871,-0.412537,-0.024473,2
0.232883,-0.272249,0.090226,-0.107089,0.08038,0.082173,0.05049,-0.334418,-0.251592,2
0.294434,-0.211491,0.064821,-0.080529,0.183048,0.007627,0.013446,0.170809,-0.5121,2
0.332201,-0.089726,-0.095615,-0.090289,0.25473,-0.196593,-0.65437,-0.821422,-0.404449,2
0.349608,-0.037934,-0.348193,-0.027844,0.355666,0.044652,-0.142926,-0.421194,1.062368,2
0.312821,-0.091419,-0.085524,-0.033671,0.498897,0.496713,1.046333,0.29644,1.166053,2
0.353596,-0.138599,0.562021,-0.060288,0.600861,0.630524,0.924969,0.223103,0.833635,2
0.410942,-0.218697,0.907535,-0.234631,0.565113,0.13684,0.353704,0.309699,0.062253,2
0.418445,-0.118543,0.561604,-0.214396,0.475326,-0.333159,0.086008,0.319106,-0.068144,2
0.484218,-0.161634,0.059865,-0.183948,0.305933,-0.362043,0.314876,0.466085,0.202579,2
0.612166,-0.39313,-0.037679,-0.180724,0.198212,-0.217332,0.045858,0.546791,0.211928,2
0.717674,-0.548168,0.032546,-0.165017,0.18785,-0.058754,-0.406295,0.674571,0.160047,2
0.510655,-0.292984,0.070711,-0.175097,0.130996,0.068005,-0.345904,0.451692,0.155451,2
0.106927,0.274655,0.072255,-0.0808,0.045272,0.131891,0.033328,0.197795,0.140907,2
-0.167189,0.762969,-0.019508,0.064272,-0.165724,0.170062,-0.023586,-0.021843,0.117017,2
-0.261165,0.983674,-0.006971,0.158954,-0.390304,0.153332,-0.245749,0.138103,0.127443,2
-0.113047,0.89174,0.208213,0.292126,-0.524885,0.193498,-0.368231,0.000722,0.10292,2
-0.023274,0.690408,0.364533,0.298544,-0.523493,0.239901,-0.172646,-0.125573,0.081897,2
-0.169868,1.026037,0.470261,0.287793,-0.511484,0.2173,-0.005993,-0.088725,0.080767,2
-0.34104,1.181076,0.341022,0.347495,-0.581365,0.09554,0.046463,0.279247,0.146937,2
-0.430718,1.267012,0.194377,0.421308,-0.747738,-0.082462,-0.01784,0.425548,0.129127,2
-0.397723,1.077292,-0.084289,0.524603,-0.903253,-0.121319,-0.097185,0.338485,0.196712,2
-0.327009,0.829608,-0.15749,0.601342,-0.980021,0.008075,0.001967,0.248656,0.121623,2
-0.31442,0.609968,-0.108073,0.551417,-0.984345,0.123329,0.003106,0.054245,0.044181,2
-0.335419,0.6208,0.055184,0.433708,-0.883953,0.202591,-0.135556,0.104946,0.058722,2
-0.31763,0.538082,0.164425,0.339678,-0.761533,0.217596,-0.013642,0.238678,0.072383,2
-0.248078,0.449104,0.24842,0.253358,-0.733771,0.179187,0.109815,0.260471,0.086284,2
-0.168959,0.291424,0.349048,0.22692,-0.736192,0.109171,0.034634,0.357353,0.049756,2
-0.075671,0.134614,0.251399,0.161803,-0.677125,0.056386,-0.451307,0.509788,0.228404,2
-0.016381,0.063244,0.065563,0.099122,-0.653904,-0.076979,-0.158499,-0.001581,0.39467,2
0.007737,0.006655,-0.106203,0.13784,-0.514573,0.12716,0.615448,-0.898491,0.020378,2
0.040997,-0.098554,0.012572,0.051409,-0.336745,0.590782,-0.173148,0.215134,0.356339,2
0.144746,-0.066787,0.410319,-0.13899,-0.101637,0.363837,-0.573834,0.03386,-0.173009,2
0.203712,0.085493,0.198414,-0.227056,0.054078,0.058512,-0.337692,-0.102819,0.023367,2
0.206267,0.188451,-0.014312,-0.122809,0.097703,-0.044679,0.008938,-0.211415,0.220577,2
0.27207,0.180503,0.070486,-0.027135,0.05808,-0.033018,0.141911,0.034748,0.047547,2
0.346967,0.054672,0.165277,0.045995,0.095219,0.011864,0.090035,0.457122,0.140847,2
0.319398,-0.032289,0.103081,0.047755,0.211649,0.01339,0.104217,0.279256,0.23038,2
0.205612,0.030838,0.113503,0.010445,0.29289,0.105082,-0.011142,0.0457,0.233459,2
0.117135,0.009852,0.24668,0.022831,0.098716,0.455585,-0.047364,0.450848,0.164895,2
0.060229,-0.073636,0.363553,0.083056,-0.243704,0.862748,0.160484,0.564628,0.179928,2
0.009665,-0.105339,0.494711,0.287475,-0.435969,0.941734,0.292574,-0.074811,0.210282,2
-0.056697,-0.066061,0.603209,0.659911,-0.478844,0.399003,-0.045759,-0.34513,0.139595,2
0.138056,-0.147794,0.700354,0.338384,-0.615334,0.257981,-0.122361,-0.103313,0.160181,2
0.361145,-0.288167,0.849751,0.350326,-0.63701,-0.026118,-0.005096,-0.282265,0.214042,2
0.959232,-0.05409,1.881143,0.288842,-0.460306,-0.342892,0.23541,-0.473649,0.114245,2
1.177788,0.292104,2.331176,0.197465,-0.126672,-0.592248,-0.303075,-0.246984,0.071389,2
1.033798,-0.326495,3.641002,0.003629,0.297665,-0.773815,-0.23898,-0.14177,0.154536,2
1.561018,0.142922,4.873509,-0.169936,0.559721,-0.795903,0.010925,-0.245707,0.107261,2
1.320925,0.631683,6.158133,-0.180934,0.682667,-0.62279,-0.030737,-0.228222,0.014729,2
0.290331,-0.836748,5.750137,-0.248372,0.763785,-0.404626,-0.242588,-0.091589,-0.032793,2
-0.460959,-0.848369,5.681087,-0.314423,0.841384,-0.347466,-0.19821,-0.077593,0.235491,2
-1.127168,-1.525858,5.260612,-0.417143,0.87237,-0.174765,-0.042235,-0.013105,0.22614,2
-2.679091,-2.126532,3.538239,-0.490517,0.849528,-0.017849,-0.093134,0.118649,-0.024979,2
-3.502179,-1.617004,0.137033,-0.473944,0.664237,-0.016234,-0.042108,0.127672,0.022989,2
-3.921675,-1.382789,-2.03226,-0.365504,0.498277,0.026564,0.035881,0.06502,0.13017,2
-3.239747,-0.182044,-5.119605,-0.297055,0.376651,0.230252,0.105836,0.051372,0.205757,2
-1.135185,0.499926,-6.468358,-0.298103,0.263139,0.342539,0.177411,-0.0008,0.13316,2
0.2319,0.926321,-5.59365,-0.219654,0.247306,0.396524,0.172209,-0.105018,0.07433,2
0.344412,0.038759,-4.359371,-0.158024,0.098288,0.488169,0.21607,-0.23629,0.271138,2
0.545738,-0.777758,-3.232146,-0.058718,-0.057773,0.425733,0.294629,-0.123134,0.178371,2
0.716856,0.22345,-3.006263,-0.016611,-0.16751,0.272467,0.340021,-0.224934,0.116966,2
0.678949,0.214192,-2.159464,0.0251,-0.229386,0.169772,0.35011,-0.102773,0.144873,2
0.396983,-0.155414,-1.216907,0.060448,-0.168112,0.126945,0.154315,-0.025319,0.109775,2
0.493385,0.111991,-1.061375,0.053627,-0.192679,0.127478,0.119828,-0.1908,0.274535,2
0.745332,-0.373941,-1.033535,0.104452,-0.24506,0.132105,0.195366,-0.056016,0.088634,2
0.481121,0.235097,-0.879755,0.099567,-0.338195,0.146818,-0.008334,0.011928,-0.101714,2
0.186716,0.31521,-0.554193,0.060939,-0.451164,0.104115,0.170757,-0.18695,0.087472,2
0.079818,0.457703,-0.457651,0.011824,-0.353318,0.180156,0.095921,0.008483,0.181764,2
-0.02461,0.173853,-0.235298,-0.070234,-0.291727,0.219301,-0.070041,0.446763,0.207202,2
-0.180324,-0.227595,-0.309813,-0.120266,-0.239806,0.208186,0.198674,0.115307,0.190486,2
-0.48664,-0.261839,-0.146685,-0.178704,-0.140589,0.124139,0.270377,0.111082,0.206004,2
-0.366603,-0.300097,-0.160475,-0.176153,-0.023671,0.082553,0.13737,0.052597,0.168313,2
-0.183408,-0.089068,-0.270896,-0.175579,-0.003432,0.000265,0.034094,-0.057059,0.113446,2
-0.346483,-0.040618,-0.062644,-0.16507,0.030642,-0.044746,-0.180329,-0.051136,0.119571,2
-0.314448,0.004046,0.053477,-0.161686,0.122127,-0.060878,0.010113,-0.309113,0.108496,2
-0.162565,0.157668,-0.018231,-0.133253,0.227211,-0.001767,-0.301383,-0.255832,0.040123,2
-0.019449,0.287269,-0.050829,-0.077143,0.24695,0.018748,-0.202979,-0.165519,0.120389,2
-0.10199,0.456919,-0.225975,-0.042153,0.238635,-0.009673,-0.136599,-0.183242,0.197629,2
0.046538,1.066154,-0.327641,0.043846,0.242972,-0.085481,-0.078848,-0.241128,0.139522,2
1.236526,1.674377,-1.04783,0.148985,0.185717,-0.108502,-0.247245,-0.11626,0.136127,2
2.289885,1.726952,-2.419399,0.181359,0.141566,-0.119774,-0.124841,0.036936,0.18195,2
3.025106,1.604155,-4.042832,0.252174,0.074388,-0.07186,-0.115425,-0.096737,0.14748,2
3.016731,3.994798,-6.08896,0.233382,-0.016934,-0.006903,-0.228979,0.101357,0.069904,2
1.711728,2.960199,-7.984736,0.26552,-0.080376,-0.044024,-0.076232,0.267216,0.207151,2
0.242036,1.764495,-9.382133,0.279139,-0.099193,0.058238,-0.125905,0.116756,0.215395,2
-2.536922,-0.202885,-9.425053,0.340052,-0.135681,0.316051,-0.058755,0.158535,0.169278,2
-4.601778,-1.236867,-8.174565,0.396309,-0.097702,0.522809,-0.039815,0.220488,0.124551,2
-6.873337,-5.455365,-4.354373,0.397663,0.081573,0.579777,-0.174461,-0.045319,0.170589,2
-6.825735,-8.136707,-1.858896,0.385312,0.24879,0.533909,-0.301302,-0.087391,0.148073,2
-9.621906,-4.31981,3.422453,0.431286,0.296856,0.376044,-0.224428,-0.386482,0.108539,2
-7.75959,-2.015741,7.184435,0.519759,0.21221,0.043913,-0.452225,-0.848096,-0.1223,2
-3.622715,-2.525766,8.852333,0.622315,0.083095,-0.197364,-0.442558,-0.859367,-0.250341,2
0.711818,-3.3604,10.032867,0.567577,0.061054,-0.641839,-0.35797,-0.374387,0.150861,2
3.27112,-1.692017,8.057955,0.579575,0.079704,-0.881593,-0.152133,-0.207766,0.394695,2
3.728564,0.011706,5.939682,0.517842,0.022717,-0.78837,-0.201563,-0.034777,0.10846,2
3.349778,1.49839,4.487614,0.452835,-0.217422,-0.538849,-0.153276,0.47895,0.130441,2
3.378877,3.727269,3.332691,0.451602,-0.4723,-0.077892,-0.007656,0.778164,0.294464,2
4.001062,5.03501,2.817109,0.413498,-0.867846,0.407592,-0.066381,0.829049,0.144304,2
4.198253,2.867267,1.89317,0.195927,-1.211481,0.478595,-0.404391,0.977698,0.007616,2
3.222698,3.960016,0.551188,0.100177,-1.336829,0.671838,-0.840261,0.956346,-0.028961,2
2.645169,3.778538,0.758868,-0.129184,-1.371874,0.849371,-0.041271,0.5693,0.09219,2
2.352323,3.08788,0.792092,-0.243882,-1.220817,0.634041,0.31757,0.163644,0.075467,2
1.977842,2.071614,0.399315,-0.341947,-1.094948,0.423977,0.472134,0.348824,0.146311,2
1.736925,0.866884,0.27863,-0.308215,-1.016929,0.339078,0.696042,0.032459,0.103031,2
1.530464,-0.108435,0.384138,-0.140149,-0.880594,0.242743,0.333733,-0.5686,0.082825,2
1.332678,-0.751735,0.294696,-0.055464,-0.71798,0.158947,-0.150297,-0.245429,0.254364,2
1.040739,-1.055221,0.290136,-0.010691,-0.419234,0.056039,-0.169465,0.016847,0.135877,2
0.566589,-1.050723,0.293202,-0.071166,-0.080776,0.049088,0.112571,0.208919,0.232574,2
-0.07254,-1.000577,0.214155,-0.104381,0.20351,-0.022589,0.113028,-0.302921,0.083741,2
-0.794508,-0.879857,0.292227,-0.024142,0.319143,0.033983,-0.027491,-0.118648,0.141559,2
-1.392408,-0.581826,-0.196268,0.042844,0.510129,0.056778,0.070844,0.173405,0.28131,2
-1.811459,-0.194854,-0.503237,0.048923,0.801165,-0.016703,-0.044921,0.085501,0.195033,2
-1.969448,0.118263,-0.892658,-0.030564,1.060976,-0.145578,-0.120996,-0.185231,0.248773,2
-1.833215,-0.031369,-1.156418,0.06461,1.250609,-0.052531,-0.029522,-0.488636,0.128067,2
-1.573979,-0.248589,-1.1758,0.116102,1.33707,-0.109381,-0.004916,-0.659756,0.054678,2
-1.301448,-0.303938,-1.11448,0.168939,1.349562,-0.266913,-0.158994,-0.61125,0.125677,2
-1.144465,-0.21037,-0.997328,0.230057,1.269684,-0.312474,0.120849,-0.228035,0.229709,2
-0.969199,-0.142604,-0.736119,0.261263,1.147756,-0.138185,0.192964,-0.26065,0.083241,2
-0.702344,-0.01846,-0.389404,0.237482,1.018585,-0.013389,0.327246,-0.112613,0.257019,2
-0.343328,0.103134,-0.07922,0.100491,0.906627,0.017782,0.17634,-0.285641,0.207711,2
0.067903,0.25655,0.119246,0.002747,0.70091,0.171804,0.212672,0.20288,0.297105,2
0.334578,0.413308,0.313313,-0.109758,0.431348,0.246877,0.448643,0.385627,0.241578,2
0.63964,0.444365,0.574884,-0.156491,0.116938,0.239417,0.603098,0.331339,0.373427,2
1.00107,0.38244,0.609751,-0.275651,-0.179471,0.336446,0.294654,0.736235,0.608963,2
1.369979,0.255851,0.801225,-0.381609,-0.304172,0.413033,0.196799,-0.137904,0.351084,2
1.618747,0.089835,1.067619,-0.522081,-0.434346,0.385182,0.859896,-0.665527,0.178282,2
1.906211,-0.012164,1.093174,-1.202162,-0.243253,0.210437,0.413761,-0.204592,-0.053835,2
1.986081,-0.210138,0.778572,-1.397912,-1.132019,0.48642,0.459792,0.03386,0.027984,2
1.860559,-0.420901,0.478431,-0.692555,-1.395554,0.116323,0.190218,-0.435779,0.042062,2
1.643706,-0.585127,0.340859,-0.44806,-1.03535,-0.139168,0.062752,0.133761,-0.124086,2
1.48937,-0.734816,0.530238,-0.311452,-0.867696,0.022578,0.023126,0.197342,0.039564,2
1.15923,-0.841574,0.560144,-0.324666,-0.576773,0.000213,0.044667,0.225112,0.025692,2
0.81604,-0.804753,0.543181,-0.300317,-0.391743,0.115613,0.105208,0.351103,0.053974,2
0.368643,-0.647653,0.674666,-0.265078,-0.429308,0.072937,0.187022,0.224153,0.016566,2
-0.012413,-0.559492,0.646226,-0.479598,-0.436999,0.07925,-0.103597,0.153996,-0.249972,2
-0.322163,-0.589687,0.391631,-0.667114,-0.176994,0.05494,-0.040142,0.089729,-0.262979,2
-0.490839,-0.789656,0.235971,-0.728482,-0.564719,0.492414,0.213049,0.330081,-0.205259,2
-0.633002,-0.893759,0.02851,-0.946398,-0.514889,0.722984,-0.050375,0.296084,-0.405046,2
-0.798352,-0.871293,0.07806,-0.303263,-1.066742,0.693734,-0.212946,0.158151,-0.497505,2
-1.004346,-0.643431,-0.116929,-0.285949,-0.915869,0.209208,-0.31579,0.278917,-0.488655,2
-1.235122,-0.400685,-0.296129,-0.418262,-1.01161,0.266693,-0.509961,-0.606682,-0.072245,2
-1.358976,-0.331598,-0.432317,-0.57474,-0.633437,-0.048013,1.514351,0.247621,0.995697,2
-1.366943,-0.362579,-0.404508,-0.507663,-0.310463,-0.585967,1.176644,0.677882,0.401163,2
-1.242117,-0.367987,-0.506999,-0.415575,0.060415,-0.971385,0.854693,-0.025777,0.440065,2
-0.953664,-0.415579,-0.543497,-0.344091,0.431372,-1.227661,0.719455,-0.043214,0.452456,2
-0.783451,-0.475532,-0.340819,-0.231777,0.68268,-1.068747,0.37987,0.257231,0.465159,2
-0.649115,-0.501313,0.187724,-0.288682,1.071857,-0.880872,0.433206,-0.238491,0.512029,2
-0.454953,-0.509157,0.680551,-0.307165,1.371252,-0.914926,0.201805,-0.224321,0.338054,2
-0.141604,-0.525031,0.775029,-0.391407,1.509925,-0.86393,-0.674271,-0.003937,0.037634,2
-0.014372,-0.445099,0.578956,-0.394338,1.472652,-0.65953,-0.807046,-0.117159,-0.146172,2
0.04862,-0.361947,0.410664,-0.339621,1.418857,-0.549212,-0.486089,-0.307207,-0.08862,2
0.080494,-0.467929,0.101039,-0.09462,1.185413,-0.209152,-0.231257,-0.078644,0.192189,2
0.274131,-0.630293,-0.032466,-0.068799,0.879096,0.449286,-0.404443,0.11698,0.007138,2
0.208132,-0.485011,0.065656,0.374091,0.77488,0.559141,-0.374545,0.07009,0.083049,2
-0.103285,-0.379106,0.126572,0.856862,0.481369,0.589767,-0.037088,-0.075164,0.163745,2
-0.253725,-0.149846,-0.390849,0.994238,0.297137,0.327761,0.041994,-0.009915,0.218228,2
0.407217,-1.173072,-0.296757,0.369901,0.447158,0.380832,-0.501422,0.102243,0.134731,2
1.212172,-1.526939,-0.30386,0.397752,0.601179,0.391591,-0.346895,0.025046,0.138337,2
1.604632,-0.932491,0.167104,-0.049689,0.532563,0.621971,-0.390062,0.09502,0.038908,2
1.919842,-0.622509,0.269823,0.889598,-1.602193,1.356984,-0.0788,0.384072,0.339338,2
2.26105,-0.062476,0.604984,0.838325,-1.637846,0.948653,-0.362879,0.884114,0.459869,2
-3.264275,5.599919,0.85644,1.033663,-1.326205,0.2647,-0.214616,-0.165397,-0.098309,2
-4.386092,8.759113,0.023987,1.18864,-1.100423,0.107376,-0.888611,-0.494007,0.125872,2
0.333293,3.783093,-0.525895,1.365452,-1.141107,0.237256,-0.842561,-0.268861,0.145013,2
2.439148,1.328902,-0.357265,1.238796,-0.765795,0.224329,-0.734382,-0.139362,0.101366,2
1.969839,1.148988,0.543683,1.153982,-0.568675,0.185956,-0.304897,-0.031538,0.200125,2
0.525826,1.401367,0.723991,1.096301,-0.427401,0.069628,-0.266991,0.088753,0.254226,2
0.34512,0.639641,0.173102,0.97986,-0.297441,-0.000999,-0.456486,0.090719,0.166912,2
0.635073,-0.366315,0.155025,0.846193,-0.405759,-0.004436,-0.532617,-0.030109,0.12027,2
0.709977,-0.491526,0.158896,0.731457,-0.430941,0.111814,-0.617039,-0.313311,0.143802,2
0.348254,-0.008698,0.409948,0.74276,-0.343657,0.249394,-0.611492,-0.608431,0.039614,2
-0.405423,0.428088,0.666418,0.716788,-0.135661,0.101523,-0.424297,-0.556601,0.086954,2
-0.844494,0.583269,0.408519,0.534918,0.185395,0.039228,-0.285849,-0.588591,0.054857,2
-1.162856,0.759301,0.132249,0.281728,0.369254,-0.112904,-0.339983,-0.425907,0.085265,2
-1.236938,0.75971,-0.03379,0.083547,0.456417,-0.243912,-0.288715,-0.073543,-0.055388,2
-1.17381,0.776389,-0.281887,0.082472,0.295031,-0.288734,-0.383718,0.296494,0.127079,2
-0.858012,0.571217,-0.417247,0.321362,0.157935,-0.114147,-0.390138,0.020849,0.099265,2
-0.616053,0.442352,-0.397538,0.514711,0.215302,-0.169303,-0.216124,-0.306603,-0.040146,2
-0.36368,0.391118,-0.507229,0.719748,0.530068,-0.055553,-0.019973,0.075695,0.159642,2
-0.399468,0.452712,-0.220775,0.686164,0.789388,-0.17967,0.331835,0.443243,0.242222,2
-0.5275,0.60615,-0.192302,0.753359,0.660504,-0.317465,0.438408,0.53173,0.301356,2
-0.657555,0.607618,-0.173276,0.762331,0.39273,-0.290242,0.447672,0.494632,0.359019,2
-0.55787,0.471515,-0.332121,0.714542,0.094664,-0.087357,0.179128,0.128198,0.327822,2
-0.337359,0.051129,-0.216276,0.46954,-0.085933,0.148493,0.111817,-0.32541,0.189002,2
-0.123016,-0.322294,-0.012407,-1.657814,-0.348309,1.04501,0.284361,-0.60142,0.410068,2
0.130552,-0.634763,0.157766,-2.940725,-0.193801,1.418024,0.665232,-0.47492,0.490253,2
0.292559,-0.88116,0.261557,-2.841098,-0.007967,1.101733,0.722284,-0.201565,0.614488,2
0.369638,-0.891326,0.412663,-2.157687,-0.41226,0.660641,1.070184,0.249994,0.568244,2
0.470525,-0.72313,0.524214,-1.515608,-0.896702,0.29847,1.240832,0.962186,0.286111,2
0.620161,-0.691475,0.265081,-0.913712,-0.922967,-0.163293,-0.014948,1.130326,-0.448038,2
0.709005,-0.77117,0.058842,-0.735951,-0.668764,-0.537003,-0.515815,1.189271,0.073943,2
0.8879,-0.96483,-0.058517,-0.491866,-0.279084,-0.682409,0.103184,0.84939,-1.203423,2
1.196662,-1.271182,0.053868,0.051648,-0.527906,-0.562649,-0.110553,-2.444666,-1.163557,2
1.468344,-1.576056,0.351065,0.37003,-0.576511,-0.364457,-0.25746,-1.54903,-0.050353,2
1.512476,-1.579826,0.525043,0.351354,-0.543035,-0.335821,0.513754,1.5518,0.492702,2
1.286882,-1.268757,0.500416,0.119723,-0.319236,-0.339997,1.629372,3.05173,1.302827,2
0.986623,-0.976609,0.509114,-1.122728,0.475519,0.092828,1.702574,0.942868,0.561153,2
0.730322,-0.744149,0.475062,-1.647596,0.440055,0.281672,1.513563,0.282745,0.593536,2
0.577896,-0.595721,0.522484,-1.221605,0.515171,-0.118962,0.333966,0.159315,0.391893,2
0.458521,-0.525225,0.452806,-0.399721,0.296063,-0.273684,-0.901355,-0.521986,0.012676,2
0.323812,-0.401788,0.380255,0.137846,0.076226,-0.09094,-1.162541,0.103835,-0.2651,2
0.065303,-0.183262,0.318356,0.366955,-0.019188,-0.038404,-1.452624,-0.175733,-0.363421,2
-0.161979,0.024131,0.187086,0.272906,-0.022074,-0.151557,0.015606,-0.367293,-0.377641,2
-0.362223,0.19447,0.065509,0.001719,0.202695,-0.335821,0.389332,-0.098794,-0.147926,2
-0.551733,0.402554,-0.062575,-0.441399,0.203938,-0.265594,0.50839,0.136924,-0.023518,2
-0.673753,0.595322,-0.125072,-1.108445,0.387666,-0.080347,0.173052,0.574912,0.072884,2
-0.741592,0.67641,-0.072433,-1.284757,0.508077,-0.135534,0.298464,0.688789,0.144226,2
-0.739629,0.64129,0.06066,-0.785662,0.176268,-0.230727,1.281703,0.414587,-0.005091,2
-0.599503,0.4864,0.127635,-0.693323,-0.156517,-0.327,0.513245,0.052015,-0.324497,2
-0.421513,0.161544,0.190437,-0.67213,-0.454297,-0.373775,0.136059,-0.313587,-0.677876,2
-0.207712,-0.152425,0.33436,-0.661256,-0.394941,-0.468309,0.188389,-0.081214,-0.79176,2
0.064489,-0.235917,0.589831,-0.54193,-0.265188,-0.378854,-0.171423,-0.576855,-0.80732,2
0.223288,-0.224588,0.623464,-0.554239,-0.360018,-0.1065,0.257237,-0.992401,0.680031,2
0.302003,-0.156567,0.714974,-0.692407,-0.117161,0.432103,1.436866,0.785507,2.392304,2
0.377865,-0.117718,1.030002,-0.720959,-0.123889,1.041205,1.451761,-0.253822,0.898741,2
0.576181,-0.261764,1.081485,-0.781823,-0.072377,0.653132,0.646672,0.093557,-0.066715,2
0.963353,-0.545642,0.386013,-0.479036,0.222161,-0.234931,0.273463,-0.450937,-0.263836,2
1.267655,-0.871156,-0.633024,-0.094257,0.196128,-0.560914,-0.131017,0.085911,0.102411,2
1.39326,-1.079084,-0.84674,0.099425,0.079472,-0.285199,-0.392069,-0.045644,0.04151,2
1.586607,-1.106403,-0.469351,0.181573,0.097397,0.239389,0.004466,-0.118313,0.264686,2
1.622299,-1.098471,0.020162,0.16804,0.347559,0.52339,-0.096597,-0.857184,-0.191291,2
1.442649,-0.973449,0.002215,0.136849,0.608,0.531817,-0.689159,-0.151276,0.232711,2
1.055534,-0.679234,0.109083,0.085328,0.597959,0.289369,-0.437181,-0.608711,0.191567,2
0.763654,-0.339386,0.157889,0.280993,0.391388,0.257495,-0.543499,-0.2703,0.1779,2
0.624117,-0.159184,0.343536,0.566457,0.135534,0.380685,-0.496101,0.067729,0.155848,2
0.578466,-0.204418,0.592978,0.854045,0.065246,0.651271,-0.641844,0.475179,0.401142,2
0.150868,0.356371,0.474515,0.904854,0.204548,0.496733,-0.466468,0.184252,0.368363,2
-3.235643,3.490662,0.896196,1.028052,0.196615,0.065569,-0.603056,-0.12845,0.227977,2
-5.278309,6.551467,-0.684105,1.141157,0.12551,-0.148937,-0.287228,-0.508064,-0.039686,2
-3.489057,3.874897,-1.332375,1.301495,-0.035245,-0.182581,-0.528786,-1.547618,-0.033592,2
-2.48597,2.636236,-0.494886,1.506526,-0.174153,-0.130991,-0.632585,-1.117738,-0.161981,2
-1.763585,1.234342,-0.152067,1.484156,-0.165355,0.034448,-0.626893,-0.643428,0.048645,2
-0.104469,-1.61844,-0.059418,1.299332,-0.065966,0.145082,-0.213559,0.096065,0.355271,2
1.477254,-3.377141,-0.115212,1.212698,-0.024919,0.077621,-0.004533,0.256527,0.329948,2
1.165547,-2.457374,-0.147426,1.188887,-0.083502,0.008524,0.30284,0.856687,0.195322,2
0.147946,-0.936545,-0.322634,1.11802,-0.173719,-0.024399,-0.388003,0.983858,0.642022,2
-0.382742,0.118339,-0.337924,1.14782,-0.182834,0.022962,-0.823027,0.901502,0.375113,2
-0.721675,0.693888,-0.214386,1.163488,-0.191678,0.241583,-0.712983,0.514359,0.131484,2
-0.786548,0.978321,0.281897,1.090718,-0.165475,0.302102,-0.046162,0.039994,0.243245,2
-0.613207,1.277611,0.314542,0.994269,-0.317824,0.24306,0.038569,-0.176252,-0.076425,2
-0.227928,1.600522,0.315889,0.859794,-0.413878,0.157183,-0.370546,0.030199,0.1161,2
-0.316654,2.016246,0.088327,0.756751,-0.399095,0.039204,-0.836682,0.340847,0.374939,2
-0.029974,1.220132,0.011259,0.628501,-0.259077,0.133517,-0.880784,-0.056555,0.083715,2
-0.085424,1.098633,0.516162,0.522313,-0.147875,0.459463,-0.424409,-0.359606,-0.015913,2
-0.160429,0.846242,0.863037,0.363835,-0.115185,0.170519,-0.052294,-0.706976,-0.081948,2
-0.165117,0.657827,0.538628,0.315582,-0.031907,-0.258682,-0.235528,-0.634521,0.046846,2
-0.218871,0.591571,-0.052454,0.312591,-0.005221,-0.502324,-0.045532,-0.334585,0.090697,2
-0.355049,0.730007,-0.13608,0.196212,-0.061003,-0.454255,0.114696,-0.291208,0.075593,2
-0.374647,0.808059,-0.136062,0.090289,-0.184791,-0.198563,0.387862,-0.543381,0.081252,2
-0.237378,0.728265,-0.067572,-0.020623,-0.042785,-0.108984,0.681369,-0.536774,0.290964,2
-0.162047,0.510576,-0.01936,-0.467447,0.379803,0.057215,0.658244,-0.410076,0.363421,2
-0.207297,0.346728,-0.176172,-1.882978,0.951699,0.143016,0.684908,-0.115535,0.325507,2
-0.157997,-0.006718,-0.216501,-2.020273,0.975034,0.273125,0.66108,0.009948,0.455775,2
0.031896,-0.569156,-0.156343,-1.564577,0.815471,0.271241,0.589017,-0.198211,0.258451,2
0.421025,-1.135595,-0.062726,-1.186731,0.301468,0.525722,0.494899,0.172863,0.000175,2
0.872845,-1.703215,0.295719,-1.233362,0.080645,0.484365,0.339796,0.362556,-0.000815,2
1.183604,-1.987429,0.619884,-1.106114,0.148224,-0.126195,-0.204665,0.915164,0.035212,2
0.995292,-1.622688,0.661384,-0.782975,0.011287,-0.377347,0.047452,0.507999,-0.416555,2
0.87278,-1.207532,0.605281,-0.586515,-0.193864,-0.379577,0.698959,0.56017,-0.149694,2
0.849279,-0.754132,0.517846,-0.340899,-0.294439,-0.39274,0.484794,0.195518,0.212575,2
0.977561,-0.858107,0.606362,-0.14682,-0.225648,-0.233277,-0.071845,-1.491908,-0.366551,2
1.26076,-1.325341,0.700329,-0.205481,-0.051464,-0.181603,0.088836,-0.782696,-0.015807,2
1.554097,-1.85477,0.60401,-0.190844,-0.069479,-0.205706,0.498762,0.282965,-0.054749,2
1.464079,-1.755412,0.171644,-0.348707,-0.077099,-0.101712,0.710911,0.508421,0.095726,2
1.168115,-1.315284,-0.070826,-0.544782,-0.109448,-0.032467,0.784746,0.979879,-0.018372,2
0.849856,-0.703453,-0.119874,-0.889836,-0.051725,-0.005191,0.777229,0.033949,-0.29072,2
1.109313,-0.945842,-0.324051,-1.4724,0.137936,0.058343,0.638442,-0.452292,-0.356568,2
0.989517,-0.716239,-0.095369,-1.335719,0.454269,0.102442,0.953081,-0.580155,0.367488,2
0.70907,-0.612088,-0.006493,-0.959539,0.441254,0.740449,-0.023476,0.451284,1.023545,2
0.42697,-0.382822,0.474836,-0.703754,0.454353,0.892811,0.250549,0.581229,0.395103,2
0.158194,-0.034665,0.808182,-0.503006,0.342077,0.563419,0.383389,0.080006,0.016077,2
0.064219,0.254604,0.53892,-0.343034,0.27305,-0.029492,-0.101673,-0.03462,0.043612,2
-0.067188,0.406962,0.236608,-0.341891,0.039214,-0.383057,-0.397979,0.096361,0.038416,2
-0.295237,0.295799,0.04385,-0.353777,-0.133703,-0.37118,-0.480641,0.356046,0.051581,2
-0.444967,0.019548,0.173607,-0.224474,-0.232076,-0.221023,-0.050029,0.421077,0.300985,2
-0.574383,-0.121768,0.20806,-0.141201,-0.174546,-0.091178,0.345247,0.359804,0.274311,2
-0.831021,-0.047009,0.035306,-0.114463,-0.123413,0.010534,0.091855,0.322949,0.174347,2
-1.098698,0.154709,-0.060228,-0.048829,-0.180566,-0.052245,-0.231175,0.194983,0.193774,2
-1.257605,0.2287,-0.261375,0.17437,-0.395235,-0.043376,-0.50936,-0.220995,0.055567,2
-1.284773,0.170244,-0.43521,0.372784,-0.688535,0.166928,0.001551,-0.164088,0.08585,2
-1.261805,0.156827,-0.417465,0.62125,-0.825693,0.328418,-0.279412,0.003162,0.163038,2
-1.323906,0.284889,-0.253742,0.697343,-0.765293,0.396724,-0.305125,0.209641,0.164911,2
-1.372344,0.518643,-0.293604,0.715859,-0.629719,0.361855,-0.191003,0.152244,0.127597,2
-1.292783,0.615974,-0.304335,0.757982,-0.572489,0.156082,-0.26616,0.105652,0.197392,2
-1.202082,1.08509,-0.192363,0.969092,-0.57039,0.090778,-0.309175,0.194461,0.224517,2
-0.718331,0.741947,0.03553,1.15001,-0.596945,0.125574,-0.261542,0.148605,0.147115,2
-0.584115,1.119848,0.227528,1.204841,-0.527025,0.079373,-0.353775,0.044826,0.083957,2
-0.436297,1.405035,0.387499,1.209377,-0.307997,0.111257,-0.459379,-0.091367,0.273891,2
0.077991,1.09802,0.403517,1.172721,-0.048179,0.043707,-0.393362,-0.181708,-0.028346,2
0.298709,0.948281,0.508078,1.105503,0.066838,-0.066999,-0.18246,-0.06385,0.217581,2
0.553873,0.855434,0.461791,1.091638,0.176656,-0.088509,-0.139246,-0.049961,0.198034,2
0.548081,0.921379,0.471153,1.000114,0.236338,-0.076906,-0.108761,0.009652,0.114072,2
0.676928,0.65154,0.428789,0.915948,0.278605,-0.086423,-0.113263,-0.159672,0.157621,2
0.723454,0.609757,0.368709,0.831444,0.329438,-0.046873,-0.178242,-0.266035,0.169897,2
0.617165,0.850071,0.327219,0.698114,0.387366,0.080424,-0.333703,-0.423331,0.129278,2
0.527968,0.701339,0.452943,0.503268,0.375495,0.144814,-0.244531,-0.415045,0.073769,2
0.282171,0.684596,0.474086,0.277772,0.411642,0.149559,-0.11766,-0.255995,0.034165,2
-0.469381,1.586838,0.645536,0.082907,0.437576,0.056164,0.000521,-0.166569,0.20461,2
-0.140704,0.48446,0.035455,-0.091064,0.441579,0.051843,0.088254,-0.20969,0.150795,2
0.335247,-0.041816,0.28855,-0.220544,0.42214,0.056562,-0.025172,-0.313753,0.073681,2
0.952834,-1.018502,-0.033081,-0.298513,0.301872,0.021486,-0.135968,-0.129946,0.112318,2
0.86308,-1.058127,-0.149986,-0.328104,0.233998,-0.013367,-0.027113,-0.080044,0.194519,2
0.451978,-0.684266,-0.470023,-0.376251,0.178985,-0.030024,0.120465,0.029928,0.059652,2
0.164071,-0.701919,-0.545846,-0.398749,0.119305,0.006367,0.232015,0.346662,0.231527,2
-0.084914,-0.435013,-0.552477,-0.421784,0.06235,0.09171,0.261142,0.3655,0.249736,2
0.013305,-0.345279,-0.472488,-0.412722,0.03553,0.1799,0.152027,0.091965,0.138037,2
-0.495921,-0.042871,0.108251,-0.352758,0.037076,0.208371,-0.082737,-0.051346,0.12986,2
-0.357099,-0.22991,0.056359,-0.293367,-0.002012,0.209154,-0.048327,-0.19764,0.087244,2
0.195477,-0.464611,0.238032,-0.234284,-0.100876,0.131964,-0.088344,-0.287264,0.002697,2
0.036671,-0.079224,0.518406,-0.153278,-0.16124,0.053445,0.131301,0.191911,0.04796,2
0.414729,-0.496689,0.182705,-0.126624,-0.279318,-0.056675,0.461699,0.428513,0.042871,2
0.485618,-0.788087,0.198931,-0.110371,-0.369737,-0.077621,0.342025,0.408482,0.165697,2
-0.285374,0.2227,0.120927,-0.065804,-0.457207,0.008498,0.050191,0.305759,0.171269,2
-0.300386,0.283533,0.065918,-0.133796,-0.499188,-0.021992,-0.249035,0.11999,-0.04229,2
0.101566,-0.261222,0.04906,-0.1394,-0.535221,-0.11622,-0.287696,0.150034,0.013428,2
0.000422,-0.039526,0.12192,-0.146898,-0.611543,-0.056818,-0.066518,0.068086,0.117037,2
0.058077,-0.313485,0.101483,-0.158218,-0.666993,0.115573,0.13893,0.041788,0.077151,2
0.427086,-1.131916,0.170403,-0.181666,-0.670951,0.141643,0.280923,0.211057,0.164071,2
0.345089,-0.943648,0.102332,-0.152694,-0.593037,0.101221,0.255238,0.314562,0.230138,2
-0.320526,0.396372,0.126289,-0.184795,-0.551224,0.105515,0.061876,0.116529,0.11313,2
-0.4383,0.589235,0.08423,-0.128203,-0.535164,0.104327,0.091104,0.128835,0.011183,2
-0.196669,-0.050192,0.014743,-0.093342,-0.462842,0.15036,0.18961,0.164548,0.047667,2
-0.359171,0.290889,0.120238,-0.169349,-0.318852,0.086796,0.309635,0.306223,0.155065,2
-0.19404,0.775027,0.017859,-0.150774,-0.189693,0.017636,0.292892,0.2853,0.151184,2
0.061587,0.107569,-0.1633,-0.170683,-0.148509,0.142625,0.307053,0.158204,0.140842,2
-0.015625,0.248191,-0.098477,-0.159771,-0.076684,0.228538,0.186633,0.15981,0.141404,2
0.076456,0.131724,0.109182,-0.189538,0.005087,0.137649,0.115881,0.071532,0.132001,2
0.156261,0.162881,0.170432,-0.237661,0.108889,0.161435,-0.02793,-0.070455,0.131841,2
0.075855,0.270227,0.304979,-0.266806,0.327616,0.311909,-0.026459,-0.201842,0.08714,2
0.2228,0.178682,0.457266,-0.3575,0.446818,0.321373,0.017426,-0.27202,0.123098,2
0.448115,-0.022119,0.484907,-0.404664,0.453947,0.047226,0.144535,-0.24449,0.153354,2
0.473996,-0.078308,0.256185,-0.330597,0.41259,-0.175801,0.328497,0.126319,0.192769,2
0.55381,-0.105358,0.049443,-0.266299,0.330734,-0.266774,0.603631,0.380179,0.249131,2
0.562729,-0.129822,-0.084624,-0.200173,0.326161,-0.165418,0.616072,0.175828,0.178207,2
0.668338,-0.276479,-0.022885,-0.197499,0.369609,-0.087815,0.179025,-0.244136,-0.056434,2
0.681374,-0.327999,0.194545,-0.254098,0.452153,-0.020381,0.320381,0.794111,0.101904,2
0.630822,-0.327946,0.250315,-0.289996,0.507975,0.159261,0.016314,-0.519951,0.289498,2
0.447036,-0.247031,0.426828,-0.270181,0.53822,0.378786,0.173608,-0.678004,0.169553,2
0.34262,-0.273381,0.681548,-0.301381,0.503764,0.41185,0.319638,-0.140758,0.071386,2
0.354643,-0.251891,0.631143,-0.300275,0.456185,0.295708,0.17374,-0.157727,0.192212,2
0.320203,-0.435616,0.438439,-0.30797,0.358587,0.158176,0.243233,-0.006557,0.224009,2
0.270167,-0.604574,0.242682,-0.255836,0.346004,0.064982,0.473901,-0.145566,0.105799,2
0.214308,-0.624243,0.018503,-0.280845,0.350979,-0.04246,0.283532,-0.346996,0.154765,2
0.1921,-0.642065,-0.102832,-0.291759,0.343339,-0.01697,0.184191,-0.157998,0.134677,2
0.141173,-0.602083,-0.16007,-0.341113,0.396139,-0.034704,0.11997,-0.216635,0.18201,2
0.105211,-0.493575,-0.318953,-0.332634,0.399997,-0.012025,0.312458,-0.329203,0.15848,2
-0.015468,-0.343894,-0.256927,-0.274125,0.322365,0.196752,0.306298,-0.229118,0.176381,2
-0.043067,-0.230788,-0.029634,-0.291324,0.293164,0.163642,0.3104,-0.381558,0.133451,2
0.043157,-0.280272,0.080436,-0.326336,0.300352,0.078365,0.145499,-0.236007,0.061229,2
0.147832,-0.395119,0.121452,-0.315468,0.200427,0.068054,0.043746,-0.111245,0.109345,2
0.178335,-0.457305,0.293059,-0.293179,0.154593,0.023164,-0.143412,-0.143261,0.00187,2
0.171067,-0.437035,0.310446,-0.368436,0.175406,-0.101132,-0.047989,-0.040479,0.061931,2
0.090799,-0.416431,0.243756,-0.339907,0.231728,-0.158355,-0.031714,0.018085,0.147624,2
0.050525,-0.413147,0.218693,-0.269532,0.170173,-0.21867,0.070092,0.10855,0.098043,2
-0.035803,-0.408154,0.049578,-0.138069,0.040044,-0.138867,0.034987,0.111462,0.14549,2
-0.119964,-0.366314,0.04188,-0.014556,-0.077792,-0.073504,-0.194624,0.277902,0.070569,2
-0.186246,-0.274647,-0.005904,0.09338,-0.111378,-0.026999,-0.210475,0.41677,0.137132,2
-0.179433,-0.241775,-0.040215,0.119,-0.167844,-0.054198,0.004865,0.055268,0.172281,2
-0.213058,-0.155367,-0.080677,0.202473,-0.296814,-0.113126,-0.110135,-0.065008,0.024123,2
-0.27521,-0.024548,-0.106088,0.31797,-0.403939,0.049696,-0.330692,0.142283,0.134812,2
-0.374922,0.100182,0.149467,0.376626,-0.482143,0.072952,-0.034653,0.067774,0.027699,2
-0.416694,0.269811,0.310966,0.445416,-0.540654,0.072548,-0.167067,0.175726,0.168717,2
-0.461312,0.415423,0.279998,0.449403,-0.639769,0.016255,-1.006862,0.55344,0.170385,2
-0.554807,0.54912,0.24496,0.575856,-0.731389,0.062233,0.222438,-0.870246,0.025507,2
-0.57583,0.67185,0.107583,0.669864,-0.774831,0.185888,-0.114181,0.293599,0.188479,2
-0.733904,1.197346,0.269358,0.695924,-0.740363,0.1404,-0.519463,0.7929,0.29845,2
-0.642544,0.987436,0.386099,0.72812,-0.721242,0.124073,-0.562026,0.477969,0.158287,2
-0.927745,1.544919,0.332315,0.776135,-0.692096,0.134406,-0.499635,-0.128567,0.073017,2
-0.889039,1.598882,0.297935,0.846136,-0.60137,0.19741,-0.516037,-0.344722,0.077514,2
-0.556815,1.002657,0.33048,0.886819,-0.444604,0.201321,-0.210538,-0.199827,0.165351,2
-0.418154,0.630978,0.423738,0.862907,-0.327391,0.158675,0.034328,0.18213,0.204897,2
-0.397139,0.468743,0.236714,0.825086,-0.261791,-0.01142,-0.029295,0.467342,0.22373,2
-0.423342,0.355884,-0.00982,0.852799,-0.267067,-0.107289,-0.306526,0.316114,0.159691,2
-0.460119,0.501216,-0.172026,0.84631,-0.283396,-0.109844,-0.489156,0.117836,0.0959,2
-0.232983,0.267783,-0.174687,0.773146,-0.150314,-0.061131,-0.684653,-0.191856,0.00608,2
-0.125797,0.193528,-0.116122,0.635794,0.013066,0.16364,-0.211509,-0.087462,0.185832,2
-0.022026,0.206898,0.076626,0.399998,0.070543,0.225651,0.020581,-0.001166,0.213198,2
0.063094,0.33611,0.219259,0.211729,0.210014,0.091653,-0.10372,-0.03929,0.093312,2
0.120144,0.294212,0.097557,0.111115,0.172632,0.077582,-0.248128,0.029881,0.128334,2
0.21631,0.281631,0.094584,0.025511,0.075151,0.108912,-0.355645,0.264626,0.086741,2
0.251539,0.204703,0.195991,-0.04634,-0.024683,0.112111,-0.097973,-0.054413,0.150358,2
0.326766,0.106444,0.199079,-0.172492,-0.017899,0.086187,-0.037757,0.118476,0.1156,2
0.340883,0.185313,0.175744,-0.279306,-0.026345,0.051661,-0.058549,-0.03267,0.031105,2
0.315278,0.286756,0.070464,-0.335236,-0.023355,0.057342,-0.037262,0.000812,0.116352,2
0.316802,0.345047,0.034271,-0.415298,-0.062524,0.163959,0.10883,0.194835,0.141,2
0.301532,0.343602,0.200499,-0.424507,-0.124618,0.163965,0.029563,0.169171,0.102778,2
0.280086,0.258744,0.215581,-0.363575,-0.217059,0.172054,-0.080047,0.115486,0.131587,2
0.194954,0.278947,0.233694,-0.27918,-0.258311,0.191476,-0.105471,-0.015908,0.044826,2
0.098446,0.280893,0.344278,-0.275526,-0.283951,0.115081,-0.083843,0.026067,0.019996,2
0.085427,0.119994,0.295851,-0.242625,-0.313773,0.010677,0.053583,0.138874,0.139986,2
0.073819,0.060967,0.15887,-0.17912,-0.271961,-0.082484,0.244851,0.135531,0.146877,2
-0.00622,0.056086,-0.045763,-0.145236,-0.272637,-0.118411,0.415574,0.051683,0.141687,2
-0.081369,0.007124,-0.147616,-0.079548,-0.270192,-0.067245,0.335101,0.133686,0.094182,2
-0.110853,-0.004677,-0.17498,-0.042518,-0.251995,0.003591,0.288324,0.358593,0.096204,2
-0.098633,-0.032297,-0.131914,0.022162,-0.277674,0.045657,0.299072,0.20696,0.090426,2
-0.090653,-0.04239,-0.04915,-0.03858,-0.233838,0.104278,0.281117,0.150649,0.032769,2
-0.060804,-0.021801,0.077137,-0.072233,-0.183181,0.112249,0.311171,0.235469,0.011039,2
0.03927,-0.057238,0.131525,-0.121057,-0.107624,0.184837,0.398586,0.044746,0.128056,2
0.166644,-0.078386,0.064722,-0.23229,-0.045147,0.226736,0.275897,-0.034035,0.208511,2
0.279753,-0.10009,0.062323,-0.298757,0.011066,0.245378,0.328338,0.138528,0.142206,2
0.391459,-0.074169,0.177381,-0.368701,0.041669,0.262508,0.414629,-0.415079,-0.032726,2
0.481861,-0.040765,0.187971,-0.451508,0.08196,0.148376,-0.141998,-0.019344,-0.311743,2
0.584728,0.030339,-0.01113,-0.444149,0.125013,0.131666,0.399063,-0.384153,0.841166,2
0.659553,-0.050233,-0.071885,-0.487094,0.212169,0.345854,0.065693,-0.704358,0.088956,2
0.759799,-0.04775,0.222406,-0.552235,0.291826,0.284762,-0.028681,0.420769,0.175752,2
0.829853,-0.019653,0.248465,-0.527051,0.421417,0.236662,0.26204,0.090995,0.193438,2
0.800539,-0.013987,0.249671,-0.547453,0.496544,0.143061,0.327795,0.056511,0.176842,2
0.815845,-0.039164,0.22996,-0.446233,0.485488,-0.188903,0.41373,-0.40262,0.246181,2
0.856192,-0.205171,0.131185,-0.279086,0.420862,-0.194026,0.028906,-0.287276,0.16526,2
0.794435,-0.368853,0.261415,-0.158783,0.413996,-0.013115,-0.264748,0.014625,0.049573,2
0.605302,-0.394345,0.526175,-0.073567,0.428026,-0.016705,0.030625,0.239161,0.117152,2
0.335359,-0.344961,0.425571,-0.066128,0.478975,-0.086308,0.017025,-0.291878,0.168173,2
0.133085,-0.362824,0.39196,-0.016853,0.438623,-0.111423,0.105719,-0.385614,0.061761,2
0.003352,-0.517381,0.289761,0.055215,0.360109,-0.043788,-0.231838,-0.179363,0.043614,2
-0.105408,-0.618723,0.267895,0.077474,0.288122,-0.002057,-0.039129,0.098743,0.079686,2
-0.30725,-0.658906,0.181368,0.130116,0.27475,0.071441,-0.025535,-0.335344,0.087017,2
-0.483428,-0.628275,0.079172,0.07482,0.20478,0.064109,0.005,-0.154353,0.055237,2
-0.610205,-0.601736,0.011774,0.0057,0.098644,-0.068395,0.207065,0.115223,0.087438,2
-0.711208,-0.527475,-0.068233,0.015838,-0.069169,-0.040541,0.165881,-0.014218,0.084601,2
-0.740051,-0.38649,-0.078484,-0.058229,-0.141608,-0.101761,0.360667,0.33279,0.170471,2
-0.728064,-0.454782,-0.084183,-0.129778,-0.177838,-0.053099,0.575497,0.310991,0.219545,2
-0.719438,-0.359349,-0.122925,-0.240644,-0.206474,-0.029927,0.636485,0.138072,0.152739,2
-0.642655,-0.322031,-0.142403,-0.303224,-0.204883,0.127137,0.4064,0.41979,0.18801,2
-0.532734,-0.364756,0.006917,-0.394676,-0.192094,0.225924,0.309098,0.300569,0.145281,2
-0.430673,-0.33165,0.057931,-0.476726,-0.138401,0.170856,0.227352,0.153967,0.072145,2
-0.287999,-0.32378,0.005206,-0.53499,-0.132394,0.106239,0.015226,-0.097121,0.232577,2
-0.168452,-0.24596,0.100479,-0.493352,-0.1895,0.16885,-0.191571,-0.405107,-0.021906,2
-0.128107,-0.30738,0.218063,-0.521696,-0.14939,-0.012727,-0.259405,-0.201461,-0.051985,2
-0.01471,-0.287162,0.329389,-0.452233,-0.073669,-0.076735,-0.033241,-0.027214,0.026753,2
0.114633,-0.274144,0.378376,-0.406692,-0.033034,-0.069052,-0.007388,0.243193,0.15577,2
0.171163,-0.410591,0.358923,-0.327206,-0.099195,-0.080557,0.153145,0.08584,-0.021415,2
0.221197,-0.321944,0.317943,-0.24354,-0.148524,-0.065513,-0.107417,0.041705,0.146988,2
0.228052,-0.246301,0.421292,-0.150008,-0.144656,-0.010786,-0.174584,0.017398,0.196403,2
0.070353,-0.268785,0.220012,-0.052389,-0.209161,-0.048568,-0.240329,-0.195077,0.03072,2
0.020891,-0.335982,0.233404,0.040222,-0.257666,-0.078765,-0.285289,-0.242514,0.045938,2
-0.082221,-0.333692,0.123454,0.134857,-0.289715,0.070932,-0.259256,-0.064856,0.150117,2
-0.186829,-0.495807,0.123188,0.196011,-0.339333,0.058818,-0.23213,0.101265,0.108949,2
-0.173961,-0.537844,0.143442,0.277114,-0.353223,-0.029841,-0.23917,0.232856,0.175794,2
-0.166679,-0.469137,0.046715,0.414752,-0.456335,-0.090261,-0.228717,0.170917,0.125634,2
-0.225874,-0.526493,-0.159359,0.545074,-0.546994,0.071504,-0.427259,0.273195,0.126546,2
-0.537052,-0.284456,-0.079211,0.659648,-0.63889,0.148256,-0.084965,0.33188,0.12896,2
-0.917841,0.458427,0.205427,0.730342,-0.638505,0.125589,-0.247728,-0.043834,0.185089,2
-0.859222,0.63279,0.164102,0.740298,-0.594767,0.105831,-0.413453,-0.17651,0.155083,2
-0.779649,0.6374,0.019371,0.769289,-0.549963,0.082041,-0.281012,-0.441319,0.084348,2
-1.114616,1.531327,0.089576,0.837734,-0.503635,0.095278,-0.162065,-0.208258,0.145363,2
-0.584012,1.147299,0.166739,0.924371,-0.443561,0.321978,0.008225,0.163076,0.237877,2
-0.25187,0.793907,0.355723,0.933126,-0.362936,0.404943,0.103986,0.310662,0.181229,2
0.152893,0.334256,0.252284,0.924319,-0.297481,0.189316,0.119703,0.262784,0.173749,2
0.551284,0.064151,0.003858,0.862707,-0.201203,-0.093148,-0.136833,-0.063537,0.187469,2
0.377483,0.160405,-0.270722,0.864766,-0.097696,-0.049019,-0.028722,-0.160229,0.11833,2
0.397388,0.26695,-0.379424,0.823206,0.050775,0.205479,-0.00275,0.01273,0.272424,2
0.425989,0.464375,-0.087255,0.653946,0.243594,0.332098,0.109026,-0.083754,0.097095,2
0.574993,0.657502,0.13922,0.478527,0.443021,0.24888,0.097319,-0.135161,0.197914,2
0.655617,0.752326,0.145555,0.278922,0.650147,0.203769,0.110448,-0.078696,0.128009,2
0.666741,0.869336,0.215631,0.158817,0.79779,0.241357,0.01558,0.043968,0.175838,2
0.640973,1.083497,0.341118,0.102998,0.904455,0.253956,-0.097061,0.091889,0.184274,2
0.854677,0.974098,0.341305,-0.008792,0.94005,0.117985,-0.112179,0.043662,0.10899,2
0.824997,0.939075,0.212545,-0.113287,0.916888,-0.098354,0.021853,0.050281,0.203421,2
0.669765,0.6804,0.010373,-0.219329,0.914504,-0.169065,0.035725,-0.093893,0.177813,2
0.306769,0.768664,0.022812,-0.344353,0.883464,-0.220351,-0.147138,-0.086004,0.093611,2
0.213198,0.753942,0.162077,-0.440142,0.778595,-0.285181,-0.21631,0.126263,0.156713,2
0.237292,0.588638,0.164933,-0.50341,0.684746,-0.27274,-0.081422,0.180944,0.191949,2
0.230936,0.337408,0.324135,,,,,,,2
0.895241,2.27965,-1.607785,1.439677,3.373191,-4.623229,0.5137,0.466401,0.460115,3
1.746389,1.68182,-2.736722,0.638104,3.441942,-3.600016,0.343661,0.139946,0.778257,3
1.777688,2.164048,-3.367952,0.464152,2.540836,-1.900742,-0.082957,-0.311786,0.743134,3
1.629821,1.919181,-3.874595,0.270365,2.118445,-0.152831,-0.305132,-0.305454,0.31186,3
0.59384,1.710634,-4.977355,-0.22395,0.763856,1.339664,-0.232794,-0.396128,0.238029,3
-1.072734,0.442179,-5.69674,-0.890568,-0.559696,3.679055,-0.179459,-0.591118,-0.033033,3
-1.917691,-2.683519,-6.813998,-1.729766,-1.569756,5.074911,-0.439931,-0.793617,-0.412825,3
-2.526287,-8.530683,-6.885537,-2.06602,-2.870118,5.546095,-0.268859,-0.858696,-0.450015,3
-3.709532,-10.914342,-7.148554,-2.290644,-2.803661,5.805626,-0.167211,-1.042415,-0.239614,3
-3.3317,-11.479328,-7.137814,-1.730024,-1.987433,4.791282,-0.074799,-0.494715,-0.064185,3
-3.443074,-10.147736,-4.902125,-1.223982,-1.273782,2.473644,0.510003,-0.137994,0.063895,3
-3.432501,-5.456642,-1.991947,-0.948197,-1.187412,0.254737,1.113807,-0.118995,0.304929,3
-2.871018,-2.853732,0.877183,-0.822359,-1.113603,-1.234616,0.980315,0.293495,0.348817,3
-2.074333,0.898785,4.381315,-0.119484,-0.930873,-2.178438,0.388045,0.383749,0.108921,3
0.634603,4.877187,7.339245,-0.241569,-0.648383,-2.981395,0.131971,0.916619,-0.021461,3
2.250546,6.681712,8.202509,0.191896,-0.063615,-3.708688,-0.207124,1.270935,-0.003963,3
3.176677,7.398351,8.093143,0.439513,0.780251,-4.294435,-0.301468,1.369291,-0.307711,3
2.921153,7.496811,7.005653,0.80636,1.261164,-4.638973,-0.145936,0.539824,-0.485319,3
1.65664,5.682083,4.477399,1.060832,2.394983,-4.914,0.14923,0.51735,0.045561,3
0.874227,4.51506,1.776721,1.636625,2.447612,-4.379241,0.537105,-1.700848,-0.593975,3
0.725669,2.458583,-0.360269,1.748349,3.197763,-3.415166,0.704674,-0.830683,0.439849,3
1.095181,-0.038719,-1.331415,0.545925,3.26721,-2.869206,0.628704,-0.396585,0.291771,3
1.291223,-0.709052,-2.976078,-0.795906,3.471595,-1.98402,0.570348,-1.394908,0.169788,3
3.05183,-4.146682,-5.212567,-1.250425,3.385999,-0.859129,0.122401,-1.009825,0.31355,3
4.546532,-8.260484,-5.361964,-0.478105,4.215294,0.204984,0.758058,-0.113686,0.305349,3
4.568912,-8.544647,-5.433671,-2.945283,3.535744,-0.083856,0.468161,0.117534,-0.212219,3
3.833711,-6.440889,-5.594896,-3.160213,3.452447,0.937479,0.397856,0.284071,-0.093367,3
2.595763,-5.376881,-4.795797,-3.169024,3.410874,1.788687,-0.057764,-0.436899,0.118587,3
1.36606,-5.875819,-3.713911,-2.35272,3.178557,2.600707,0.165143,-1.190039,0.528698,3
0.179448,-4.402718,-2.325852,-1.443033,2.373267,2.840914,-0.092515,-1.038427,0.191703,3
-0.117928,-3.662423,-1.305975,-0.924295,1.529177,2.514926,-0.150388,-0.827241,-0.024348,3
-0.813887,-3.691121,-0.115337,-0.400755,1.575241,2.014673,-0.203689,-0.925688,0.285731,3
-1.695767,-2.390796,1.087788,0.483277,1.580141,1.882017,-0.287959,-0.669223,-0.224374,3
-3.519364,-2.177315,2.382667,1.594402,1.147354,2.167089,-0.397338,0.147868,0.003049,3
-4.903692,-1.00376,4.057049,2.719301,-0.626539,2.803175,-0.449367,0.091564,0.714395,3
-4.977827,-0.538876,3.917361,2.190145,-1.559963,1.815371,1.216002,-0.114152,0.531709,3
-6.58257,0.428921,3.053732,2.59218,-2.634317,2.473985,0.595516,0.089571,-0.137804,3
-0.50795,2.720782,7.806841,2.22869,-3.914215,1.247062,-0.042432,0.084013,0.144048,3
4.012543,5.854366,-3.286031,1.536466,-3.299387,2.254397,-0.570866,1.73003,0.195989,3
-4.829465,6.606634,-0.163591,0.863184,-3.676819,1.443175,-1.035078,1.575152,0.382585,3
0.847892,5.220238,2.404245,-0.479284,-4.323974,-0.879464,-0.800864,1.095179,0.020467,3
1.712341,4.135381,0.940803,0.953164,-2.357212,-1.673865,0.105138,-0.121163,0.112694,3
1.065526,4.675047,0.521302,0.358942,-3.412423,-0.112855,0.109908,-1.024256,-0.232212,3
-0.394576,3.903927,0.745884,-0.447279,-2.299186,0.497612,0.047842,0.400873,0.156617,3
-0.506409,3.807564,0.770002,-0.404228,-1.494227,0.046293,-0.293801,1.077077,0.427815,3
-0.068527,4.058402,0.525011,-0.549257,-1.748608,-0.137136,-0.036386,0.843435,0.272997,3
-0.15242,4.704171,0.683813,-0.529032,-2.017656,0.076069,-0.1593,0.633481,-0.121171,3
-0.729243,5.545322,0.991223,-0.531673,-1.712866,0.308982,0.015127,0.650381,-0.013664,3
-1.5962,6.795588,2.008459,-0.940797,-1.935595,1.354044,0.041636,0.366563,0.082211,3
-0.63913,7.066955,1.44341,-1.121681,-2.21359,1.578111,-0.027003,0.241001,0.234842,3
-3.390354,4.688569,0.57664,-1.229811,-3.659942,1.255034,0.198319,0.531291,0.149246,3
-3.449991,3.462177,1.244901,-1.308973,-5.921826,2.151293,0.271476,0.722715,0.224518,3
-1.320356,2.289259,0.58232,-0.789499,-4.554526,2.455788,0.252226,0.646593,0.290548,3
-2.463212,0.567354,0.812681,-1.63472,-3.415315,3.184055,0.010728,0.819005,0.175277,3
-2.208626,-1.321525,0.549211,-1.390562,-4.005406,4.120272,-0.264681,1.046168,0.197682,3
-1.757698,-1.427913,0.914362,-0.430859,-2.976156,4.526601,-0.447317,1.086287,0.145163,3
-1.273909,-1.995743,0.357399,0.837122,-1.975034,4.758748,-0.62261,0.988315,0.142946,3
-0.40879,-2.837597,0.119039,2.000811,-0.832143,4.467053,-0.604946,0.25458,0.100518,3
-0.761951,-2.971382,0.0684,2.737808,0.546596,3.527262,-0.71055,-0.117281,-0.015117,3
0.092169,-3.509048,-0.357344,3.231169,1.786245,2.086905,-0.410533,-0.518263,-0.104684,3
0.399051,-3.192547,-0.491106,2.914821,2.446196,0.758392,-0.486119,0.068354,-0.01179,3
0.382746,-2.777351,-0.436993,2.177359,3.263402,-0.177159,-0.674602,0.341283,0.262583,3
0.808158,-2.045166,-0.451946,1.544727,2.894506,-1.096569,-0.292642,-0.129651,0.378559,3
0.772205,-1.902677,0.006649,0.600903,2.226785,-1.510068,0.580859,0.014443,0.100739,3
1.032544,-1.322351,0.361405,-0.17165,1.008346,-2.33503,0.147411,-0.176248,0.266558,3
1.516697,-0.533,0.986,-1.118691,0.331648,-2.750003,0.921777,-0.54554,0.228082,3
1.731633,0.421626,1.895083,-0.810461,0.520789,-3.327989,0.341216,-0.567396,-0.038126,3
1.85106,1.007336,2.252006,-0.914189,2.11932,-3.833526,-0.295872,-0.585071,0.053815,3
1.812642,1.375657,2.553586,0.665803,3.346273,-4.338939,0.044569,-0.935446,0.053735,3
1.734924,1.819402,2.615127,2.454775,4.309319,-4.511229,0.2095,-1.084128,-0.019291,3
1.460869,1.889854,2.415269,2.782363,4.547885,-4.308114,-0.066946,-0.598379,-0.050948,3
1.218686,1.586487,1.983682,2.954318,4.566448,-3.709293,0.167565,-0.291958,0.111554,3
0.815242,1.48378,1.109948,1.343579,3.535396,-3.809836,0.311056,-0.160442,0.005767,3
0.600345,1.098577,0.108188,1.07557,3.582084,-2.718029,0.273195,-0.064796,0.087949,3
0.369081,0.619996,-0.941163,0.300582,2.961571,-2.001157,0.344919,-0.040923,0.18108,3
-0.518508,0.972505,-0.939848,0.096419,2.180159,-1.201925,0.072178,0.128042,0.235756,3
-0.376821,0.540932,-1.721288,-0.552971,1.390795,-0.176786,-0.048784,-0.055516,0.292139,3
0.577573,-0.668766,-2.389153,-0.516325,0.747224,1.358809,0.24215,0.039444,0.201803,3
0.301337,-0.199115,-2.560619,-1.586573,0.067325,2.092063,-0.009603,0.158282,0.055113,3
1.06141,-0.503746,-2.571544,-2.35675,-1.378845,3.474982,-0.064585,0.08576,0.271095,3
0.395071,-2.007515,-3.082392,-3.077395,-2.997526,4.460824,-0.112909,-0.048244,0.183046,3
0.18691,-3.368603,-3.775437,-2.873924,-3.561577,5.162825,0.011511,-0.188168,0.23794,3
-0.143827,-3.93937,-4.074,-2.733683,-3.552566,4.914668,0.119574,-0.164411,0.14236,3
-0.049498,-5.139422,-4.230073,-2.092685,-3.300265,3.956261,-0.05329,-0.111911,0.129361,3
-0.500884,-5.248665,-3.990507,-1.107503,-2.007058,2.810054,-0.13069,0.033618,0.138008,3
-1.097102,-4.070355,-3.838223,-0.503707,-1.381439,1.893579,-0.15554,0.112489,0.007862,3
-0.794237,-3.147487,-3.79395,0.443341,-0.855576,1.081197,0.009144,0.125073,0.055925,3
-0.638722,-3.051279,-2.56952,0.989991,-0.775107,0.309287,-0.128442,0.057982,0.066277,3
0.325724,-2.67767,-1.631074,0.780094,-1.013218,-0.73497,-0.05241,0.193827,0.256513,3
1.219982,-2.406162,-0.467253,0.804231,-0.802934,-1.466865,0.294861,0.487098,0.264279,3
0.188213,-2.413419,1.797958,1.294888,0.749178,-1.474879,0.484307,0.352185,0.233473,3
-0.125465,-1.236104,3.402998,0.428891,0.745712,-2.457274,0.44828,0.207741,0.330295,3
-1.334515,0.367649,5.138998,0.454489,0.995309,-3.313529,0.10251,0.179877,0.266361,3
-1.65205,2.907787,5.90025,2.126956,2.157308,-3.863309,-0.01351,-0.024366,0.070552,3
-0.684367,4.811666,5.454106,-0.986278,1.61227,-4.113532,0.023816,-0.256922,-0.052478,3
-0.293923,6.044605,4.329388,0.430202,2.655247,-3.561262,0.110305,-0.485094,0.0842,3
0.493004,5.421111,2.730499,0.189831,3.245894,-3.381993,-0.056483,-0.801127,0.104306,3
1.091777,6.016226,1.117905,-0.350219,3.077083,-3.420918,-0.147262,-0.72314,-0.06467,3
2.043627,4.835681,-0.972222,0.306451,2.942428,-3.084695,-0.087793,-0.669575,0.106046,3
1.854202,4.849655,-1.45377,0.015187,2.841996,-2.99673,-0.019679,-0.635736,0.14705,3
1.25649,3.368136,-1.526796,0.333885,2.765295,-1.866321,0.104957,-0.518893,0.10458,3
1.284945,1.873931,-2.327071,0.669051,2.741213,-1.166781,0.088932,-0.279152,0.232968,3
1.155892,0.686579,-2.644417,-0.69472,2.825629,-1.082296,0.058973,-0.101436,0.125466,3
0.878752,-0.063976,-2.419305,-0.613847,3.922946,1.084682,0.108227,-0.045021,0.192373,3
0.790458,-0.960074,-2.515195,0.03111,3.520163,2.300671,0.095015,-0.116432,0.169312,3
0.613377,-0.999301,-2.761996,0.062611,3.476455,3.977431,-0.1056,-0.19872,0.158119,3
0.358127,-3.01595,-1.727206,-0.695261,2.347304,5.351704,-0.123793,-0.240771,0.010028,3
0.727162,-5.212309,-2.005015,-1.085219,1.335015,4.521193,0.078768,-0.166977,0.211905,3
0.684878,-4.717578,-0.596435,-1.239368,0.958438,3.081565,0.055825,-0.259952,0.081184,3
2.346849,-6.7582,0.070636,-0.299948,-0.960629,3.906482,0.093352,-0.081765,0.135915,3
2.719319,-6.649836,-0.05426,-0.795928,-1.058604,2.494534,0.253299,0.303999,0.28092,3
2.871387,-6.333921,0.756381,-0.462938,-0.784879,0.701006,0.402996,0.558662,0.444294,3
2.532276,-6.224248,0.950794,-0.011553,-0.994625,0.106482,0.196106,0.379905,0.515146,3
2.328042,-7.046948,0.594345,0.22974,-1.457894,0.331649,0.503068,-0.355129,0.203027,3
0.921968,-6.776012,0.397384,0.473019,-1.230908,-0.352525,0.567768,-0.825002,-0.179372,3
-0.744092,-6.121943,0.325322,0.56166,-0.660774,-0.426687,0.21737,-0.443021,-0.345523,3
-2.055099,-5.698313,0.360973,1.044621,-0.567146,-0.708447,-0.161551,-0.081804,-0.187312,3
-3.478625,-5.153541,0.406398,1.085574,-0.970339,-0.382233,0.017869,-0.345269,-0.187861,3
-4.893039,-3.876849,1.386636,0.618268,-0.731015,-0.587962,-0.102935,-0.03647,0.030201,3
-5.863913,-1.733059,1.792975,0.161849,-0.474759,-0.449357,-0.852785,1.125835,0.320012,3
-5.338337,1.311237,2.596655,0.382053,-0.425602,0.089192,-0.541439,0.938915,0.237526,3
-3.965502,3.981399,3.150976,-0.054654,-0.624215,0.543032,0.402704,0.498501,0.241448,3
-2.125761,5.90068,2.873672,0.066616,-0.528068,1.516236,0.266485,0.183612,0.132344,3
1.231935,6.853686,1.743163,0.185198,-1.546652,2.157699,-0.280117,0.243304,0.275319,3
2.779916,6.847582,1.429543,-0.180599,-1.605239,2.038696,-0.20037,-0.034706,0.096592,3
2.216608,6.599131,0.560348,-0.242454,-1.800581,1.790017,-0.183557,-0.112765,-0.049929,3
2.35653,6.04597,0.353,-0.494415,-1.515387,0.769889,-0.239996,-0.076568,0.084619,3
1.466053,4.759114,-0.697341,-0.865449,-1.120734,0.389301,-0.058797,-0.174329,0.145987,3
1.662236,3.328846,-0.87396,-1.197671,-1.158987,0.790375,-0.084706,-0.406232,-0.106272,3
-1.541882,-0.594421,1.398003,-1.391774,-2.546287,1.543818,0.078214,-0.416325,0.130437,3
4.147252,2.746166,-1.407071,-2.468874,-0.710539,-1.031111,0.084227,0.279958,0.17438,3
-1.16092,3.704323,-2.408679,0.9223,2.180346,-2.817905,0.198235,0.959078,0.186604,3
-0.976649,2.71502,0.076921,0.204728,-1.779496,-0.173267,0.166558,0.602628,0.098855,3
-0.483928,2.562129,0.765984,-0.45924,-1.175928,0.67482,0.243594,0.476574,0.297527,3
-0.205449,3.296814,0.247972,-0.260286,-1.009806,0.164433,0.023335,0.284937,-0.041121,3
-1.096609,3.373525,-0.192788,-0.083211,-1.489378,0.289484,0.070116,0.532193,0.112755,3
-1.274955,3.115461,0.105333,-0.160132,-2.253436,0.840606,0.32454,0.180528,0.379779,3
-1.499872,3.457493,0.951712,-0.267886,-2.046265,0.924356,0.31025,0.296723,0.150985,3
-1.668223,3.648222,0.726933,-0.287054,-2.038276,1.268102,-0.007278,0.380621,0.068324,3
-1.584198,3.84579,1.082438,-0.481138,-2.323872,2.060118,-0.042206,0.237572,0.16987,3
-1.235629,2.785582,0.830733,-0.633317,-2.023565,2.799895,-0.267191,0.188321,-0.02357,3
-1.639512,1.973661,1.04338,-0.699868,-1.635086,3.196989,-0.571359,0.241797,-0.078156,3
-1.47583,2.079221,0.677592,-0.83691,-1.707866,3.269015,-0.514031,0.288678,0.017885,3
-1.236968,-0.599688,0.237574,-0.873685,-1.528245,3.756429,0.091749,0.451435,0.312977,3
-0.801771,0.094793,0.915426,-0.491942,-1.44783,3.479461,0.492174,0.738414,0.371766,3
-1.039254,-0.391109,0.264641,0.393031,-1.142037,3.052967,0.148706,0.611914,0.28937,3
-0.411572,-2.474503,-0.23273,0.967735,-0.833247,2.269853,-0.37692,0.562168,0.114888,3
-1.376123,-2.214704,0.264198,1.076345,-0.514188,1.039874,-0.485403,0.275115,0.043597,3
0.24275,-2.793578,-0.052987,1.736809,0.122261,-0.082659,-0.362086,-0.014241,0.106276,3
0.638464,-2.947163,0.515698,1.257787,0.337173,-0.729187,-0.304688,0.091085,0.118813,3
0.917449,-2.126169,1.078023,1.109949,0.641986,-0.440653,-0.212553,-0.020151,0.178252,3
1.433905,-1.847642,1.59814,0.041601,0.89401,-0.966745,-0.091217,-0.182812,0.079259,3
1.980633,-0.866224,1.793633,-0.64765,0.630708,-0.939816,0.01792,-0.299547,0.198936,3
2.078584,-0.374369,2.326303,-0.837972,0.578091,-1.694777,0.097436,-0.265185,0.165282,3
2.311663,0.444789,2.51661,-0.677988,1.259251,-2.994048,0.098342,-0.203675,0.14751,3
2.191944,0.83934,2.38602,1.980724,3.057936,-3.307669,0.132335,-0.202018,0.08272,3
2.247635,0.860773,1.882837,2.835038,3.808952,-4.167381,0.280811,-0.201536,0.218852,3
2.219725,1.621435,1.426177,3.609004,1.820564,-5.021036,0.456642,-0.319659,0.130946,3
2.456864,2.072344,1.182023,4.658704,2.900234,-5.300842,0.365791,-0.422041,0.021993,3
2.251619,2.939423,1.586721,3.896525,3.107789,-4.508452,0.061555,-0.600102,-0.004868,3
1.86472,2.73863,0.055811,2.367516,2.790691,-3.886446,-0.12547,-0.657779,0.042991,3
0.926063,1.820196,-1.052133,1.302009,2.395668,-3.073151,0.049674,-0.710901,0.059634,3
0.278533,2.115949,-1.311353,0.866053,2.572642,-1.889381,0.194224,-0.533225,0.121533,3
0.14274,1.113393,-2.441781,1.062878,2.537757,-0.518132,0.023407,0.132563,0.145929,3
-0.806851,0.776175,-3.100811,0.229548,2.492659,0.864982,-0.032144,0.254072,0.284993,3
-1.307895,-0.571086,-4.211196,-1.394396,0.897569,2.56532,0.122757,0.073913,0.290567,3
-2.386581,-0.968646,-4.435051,-2.545529,0.11041,4.649907,0.081301,-0.008333,0.117075,3
-3.450553,-1.966451,-3.902251,-4.775749,-0.914523,5.28802,-0.044496,0.129865,0.142201,3
-2.718608,-4.779275,-5.109595,-5.236103,-1.946343,5.808936,-0.230098,0.008496,0.131534,3
-3.95991,-4.241136,-4.126163,-4.748849,-2.390124,5.420462,-0.297652,-0.052773,0.076785,3
-3.548522,-5.633871,-3.818029,-3.554461,-2.511916,4.372104,-0.186753,0.103851,-0.026694,3
-2.68591,-4.980796,-3.233,-2.243918,-2.439085,2.7306,-0.002905,0.256388,0.052214,3
-2.215712,-4.737874,-2.586461,-0.570251,-1.933918,2.05158,-0.150837,0.320813,0.073073,3
-1.810863,-4.687025,-1.46894,-0.024935,-1.698263,1.29528,-0.159623,0.315521,0.051893,3
-0.742193,-3.771357,-0.406767,0.39592,-2.748844,0.331534,-0.015919,0.024586,0.194337,3
0.510135,-2.962569,0.795345,0.541028,-2.336082,-0.822864,0.079673,0.003278,0.261912,3
1.302183,-1.314424,2.326968,0.134743,-2.536863,-1.853263,0.230806,0.063441,0.25742,3
1.271953,-0.258503,3.880196,0.761971,-1.396285,-1.86711,0.245312,-0.009788,0.260025,3
1.808768,1.987593,4.936953,1.194845,0.40247,-2.135037,0.119183,-0.141394,0.172862,3
2.140728,3.686616,5.112943,1.402673,1.342292,-2.646456,0.051757,0.019246,0.055161,3
2.285985,4.688239,5.219698,1.170881,1.933698,-3.025851,-0.004977,-0.233821,0.147813,3
2.180374,5.234692,4.446715,1.396824,3.266105,-3.054114,-0.085523,-0.403877,0.088161,3
2.506566,5.061825,3.345151,1.663503,3.434858,-3.020881,-0.110395,-0.221864,0.022911,3
1.98272,4.63212,2.035671,2.682162,3.978612,-3.254599,0.098059,-0.286879,0.068642,3
1.8169,3.43714,1.028788,0.290163,3.343624,-3.458317,0.191281,-0.301748,0.093044,3
2.147137,2.708484,-0.199595,0.879659,3.711095,-1.991959,0.262255,-0.249802,0.156999,3
1.976801,2.572754,-1.056628,0.410768,3.302749,-1.347889,0.326364,-0.211956,0.218709,3
1.996693,2.4722,-1.921937,-0.122516,3.469543,-0.741385,0.155609,-0.36761,0.236098,3
1.004099,0.713101,-2.017133,-0.308665,3.439135,-0.637177,0.089082,-0.434747,0.159859,3
1.819533,0.534384,-3.241465,-0.922155,3.273249,-0.119453,0.064231,-0.300101,0.13008,3
1.855474,0.688811,-4.105774,-0.68083,2.699624,0.684704,0.184137,-0.2596,0.241014,3
2.22477,2.126962,-5.414602,-1.412462,3.225039,0.819649,0.29409,-0.283888,0.187416,3
2.831738,4.913303,-8.189083,-0.673963,2.698265,2.41895,0.10465,-0.261995,0.162791,3
0.688776,1.363203,-7.125264,0.046342,2.438928,1.989164,-0.068023,-0.160006,0.017282,3
-3.158778,-2.867213,-5.441525,-1.35313,1.46326,2.087298,-0.008898,-0.115111,0.097124,3
-4.988293,-9.908051,-2.788433,-0.885765,0.589555,1.816307,0.210382,-0.174201,0.274785,3
-1.764176,-13.241914,2.572875,-0.534507,0.034474,0.937713,0.121438,-0.343994,0.205365,3
1.648663,-10.82594,2.869829,-1.148979,-0.335894,0.516505,-0.00099,-0.219395,0.148362,3
3.623333,-7.810605,1.510918,-0.699303,-0.507495,-0.149486,0.082091,0.020785,0.075191,3
3.533905,-6.015272,0.899855,-0.250504,-0.478844,-1.408557,-0.008052,0.126233,0.006912,3
2.8143,-7.15963,0.985826,0.012463,-0.965011,-1.348772,-0.021317,0.257196,0.142568,3
-0.143133,-4.74102,2.579156,0.256068,-0.649266,-0.296854,0.028231,0.360783,0.182892,3
-0.800314,-5.59852,2.133354,0.592958,-0.513182,-0.074422,0.041628,0.23152,0.067087,3
-2.096652,-3.987374,2.128037,0.226759,-0.634644,-0.520724,0.169277,0.125365,0.007262,3
-2.416606,-1.564621,3.145082,0.275847,-1.577596,0.472704,0.122718,0.448586,0.069921,3
-3.003542,-1.550063,3.095909,-0.002584,-1.19482,1.152184,0.0289,0.416027,0.205435,3
-2.548676,2.467977,3.671649,0.531667,-1.405285,2.085096,0.415763,0.106674,0.20081,3
-2.885651,1.734659,3.500463,0.389484,-1.231464,2.084824,0.110621,-0.262121,-0.026933,3
-2.032341,3.452617,2.892815,0.178311,-1.532906,2.636358,-0.32739,0.025336,-0.005575,3
-1.76625,3.923594,2.153432,0.008051,-1.559882,1.999598,-0.347223,-0.067046,0.039181,3
-1.889845,3.799235,2.308121,-0.374384,-1.836557,2.155791,-0.272637,-0.231284,0.098167,3
-1.397814,4.66688,1.788071,-0.695478,-1.515827,1.554817,-0.25964,-0.250822,0.065436,3
-1.073158,4.79432,0.394688,-0.673501,-0.933946,0.693765,-0.190969,-0.307747,0.12254,3
-0.825071,4.168646,-0.967656,-0.454079,-0.855255,0.311131,-0.06275,-0.522942,0.15937,3
0.062721,1.679554,0.823294,-0.770404,-0.682139,0.684198,-0.004549,-0.392391,0.073897,3
10.362632,4.270617,-2.021043,-1.294827,-2.327222,3.575233,0.489374,0.080369,0.259218,3
-0.168465,4.773772,-3.927088,-2.141058,-0.009475,-1.954856,0.362156,0.38149,0.287237,3
0.413042,3.609025,-2.871128,0.320146,0.987829,-1.711101,0.02742,0.777929,0.316298,3
0.462666,2.515418,-0.614055,0.608761,-1.174424,-1.186962,-0.288354,0.271957,0.152245,3
0.909115,2.918908,-0.017504,-0.42162,-1.057217,-0.086254,-0.321209,-0.148093,-0.176224,3
0.246026,2.939305,-0.029122,-0.694403,-0.925807,1.410732,-0.149271,-0.47942,-0.046771,3
0.149077,2.573771,0.636226,0.032877,-0.004148,0.467821,0.024331,-0.060816,0.015134,3
0.234525,2.60178,0.665045,-0.248574,-0.663355,0.318158,0.201618,0.463564,0.318757,3
0.945464,2.84682,0.877973,-0.408628,-0.650382,0.136574,0.284283,0.489711,0.112702,3
0.271723,3.188993,0.63212,-0.266436,-0.361135,0.166948,0.069962,0.899061,0.088255,3
-0.326509,3.765464,0.434265,-0.18719,-0.451279,0.225985,0.205356,0.789836,0.178096,3
-0.831998,4.502072,0.659879,-0.261237,-1.03766,0.293285,0.370379,0.472191,0.206527,3
-1.26353,5.08907,1.24173,-0.439155,-1.254699,0.542548,0.426224,0.52236,0.253688,3
-1.425832,4.982895,1.241413,-0.639826,-1.536719,0.696787,0.233039,0.481495,0.216948,3
-1.526157,4.319208,1.766243,-0.761459,-1.981894,0.785908,0.070944,0.642782,0.085435,3
-1.328624,3.583557,0.082002,-0.899199,-2.616969,1.398548,-0.011614,0.966908,0.216219,3
-2.909208,1.149052,0.495096,-1.672393,-2.35682,1.444541,0.079804,1.207343,0.232016,3
-3.01795,0.758506,0.095348,-1.704391,-3.397209,1.569711,-0.040698,0.932266,0.227044,3
-0.336707,0.016761,1.67738,-2.030373,-3.418528,3.527818,-0.319988,0.634839,0.077554,3
-0.675123,-1.412525,2.302016,-2.711936,-2.639946,3.798252,-0.718943,0.433281,0.096801,3
-0.616837,-2.583086,1.490344,-2.585932,-2.888722,4.008955,-0.771522,0.284792,0.039592,3
-1.241313,-3.176899,0.305037,-2.019956,-2.39174,4.42052,-0.536366,0.128795,0.205812,3
-1.185978,-3.521378,0.293065,-0.75957,-2.175434,4.537456,-0.154065,-0.076943,0.224397,3
0.047298,-3.548959,0.575573,0.700279,-1.404739,4.140542,-0.168715,-0.225092,0.159668,3
0.630032,-2.349009,0.838748,2.263401,-0.542962,3.82907,-0.550381,-0.39297,0.079729,3
0.861332,-2.023503,0.874217,3.144544,0.72461,2.269678,-0.677182,-0.292534,-0.046056,3
1.59631,-1.008604,1.044224,2.88883,1.477697,0.103695,-0.500267,-0.100249,0.035548,3
1.716982,0.010985,1.167111,2.320798,2.511966,-2.297212,-0.391688,-0.238542,0.121863,3
1.768383,0.604896,0.888041,2.362163,3.284235,-4.064074,-0.244468,-0.375482,0.121738,3
1.493803,0.597873,1.138378,3.119332,4.586862,-4.941018,0.271416,-0.357329,0.101548,3
1.637394,0.582899,0.860359,4.307792,4.315732,-6.139096,0.570399,-0.323287,0.052405,3
1.457048,1.289262,0.641967,3.079163,4.496799,-6.29221,0.596,-0.425373,0.230846,3
1.429192,1.329291,0.493739,4.08422,3.396081,-5.512884,0.509975,-0.378902,0.196087,3
2.058605,1.969122,0.511123,3.2213,2.813147,-5.697023,0.278822,-0.542424,-0.033566,3
2.444322,2.008075,0.310998,2.313216,2.565951,-5.662774,0.154575,-0.64307,-0.004014,3
3.429029,2.177645,0.10586,2.025657,2.408266,-4.545783,0.121504,-0.703189,0.28072,3
3.690312,2.135274,0.042024,1.984924,2.821537,-3.099247,0.042813,-0.465932,0.08993,3
3.07749,1.615027,-0.47239,1.798372,4.169536,-2.166806,0.016136,-0.234002,0.178064,3
2.884633,-0.022683,-1.20106,-0.386975,1.397605,-1.067433,0.144147,-0.446739,0.209663,3
2.056966,0.303181,-2.051146,-0.169801,1.612793,0.922917,0.171344,-0.604567,0.019315,3
0.57592,0.33277,-2.880754,-0.985511,1.598767,1.845248,-0.341555,-0.505954,-0.039613,3
-1.299216,-0.471459,-3.373389,-2.321324,0.405675,3.563908,-0.246143,0.045385,0.094753,3
-3.994903,-1.864523,-3.680234,-3.492814,-0.051306,4.687707,0.051337,0.03705,0.193787,3
-5.402275,-0.58806,-2.50168,-4.78422,-0.872081,5.464864,0.576206,-0.011159,0.170155,3
-5.130311,-3.19599,-2.142227,-5.929543,-1.292902,5.439739,0.498749,-0.143576,0.238164,3
-4.836595,-2.93969,-2.414145,-5.812131,-1.736318,5.189286,0.113238,-0.135157,0.132692,3
-4.167413,-3.142196,-3.027275,-5.035571,-2.324384,4.212349,-0.31589,0.390265,0.034227,3
-3.810567,-3.649603,-3.829166,-3.498445,-2.575656,3.419836,-0.283187,0.328353,0.049995,3
-4.482385,-4.066195,-3.579057,-1.972028,-3.100027,2.921795,-0.096469,0.757952,0.007066,3
-4.724561,-4.261761,-3.527616,-0.196561,-2.774502,2.386366,0.174898,1.017683,0.217133,3
-4.492796,-5.243299,-2.521701,0.43215,-2.909101,1.311532,0.778281,0.792865,0.330183,3
-3.159835,-3.716246,-0.911187,1.224927,-2.633447,0.156255,0.730537,0.329153,0.343948,3
-2.64484,-0.97183,1.00744,1.793685,-2.063593,-0.797207,0.239346,0.080114,0.186632,3
-0.016317,1.225331,1.786365,2.216076,-1.520576,-1.422855,-0.229644,0.071769,0.252911,3
1.196915,3.483758,3.485141,2.459076,-0.929373,-2.070639,-0.196127,-0.553957,-0.021644,3
2.870173,4.230282,3.436246,2.996732,-0.526731,-2.790306,-0.513328,-0.540896,-0.141612,3
4.1821,3.93221,4.655745,2.412925,-0.626882,-3.58398,-0.695517,-0.52616,-0.028918,3
4.263832,4.224716,4.935663,2.552306,0.350111,-3.212714,-0.357783,-0.216603,0.116663,3
3.539759,3.681724,4.180174,1.250936,1.315689,-3.675167,-0.023067,-0.228665,0.136329,3
2.864369,3.345427,3.497793,6.409584,1.335477,-4.807323,0.152555,0.062791,0.187376,3
2.834159,4.494904,2.176286,-0.044497,3.952394,-4.062882,0.165181,0.25257,0.190955,3
2.905813,4.358454,1.045163,1.614132,3.676405,-3.515735,0.245008,0.255073,0.280235,3
2.560971,4.513853,0.153421,1.482237,3.806036,-3.536527,0.349886,-0.017664,0.341257,3
2.682049,4.127238,-0.505482,0.692018,4.08154,-2.336944,0.161118,-0.198458,0.230702,3
2.475953,3.752989,-1.245722,0.278089,4.224787,-1.496456,-0.137568,-0.36014,0.059958,3
2.905958,3.31642,-1.5094,-0.324524,4.159907,0.152607,0.093455,-0.43991,0.076905,3
3.083263,3.075591,-2.762369,-0.219297,4.353862,1.546165,0.220291,-0.544245,0.23082,3
1.091613,3.047482,-1.870465,-1.965899,3.400745,2.246524,0.104403,-0.561206,0.089117,3
0.295583,-1.140254,-1.590163,-2.321358,2.93713,2.575433,0.07237,-0.478137,0.040331,3
-0.577374,-4.616093,-0.752575,-3.111322,2.073149,2.772323,0.119818,-0.541032,0.106448,3
1.968084,-9.987698,-1.043126,-2.428479,1.232481,2.420843,0.098042,-0.406941,0.232639,3
1.294314,-8.36392,-0.136511,-2.471811,1.00549,1.28869,0.234216,-0.175289,0.150355,3
