SampleTimeFine,D_Leg_Acc_X,D_Leg_Acc_Y,D_Leg_Acc_Z,D_Wrist_Acc_X,D_Wrist_Acc_Y,D_Wrist_Acc_Z,Activity
3926116534,-0.149625,-0.229615,0.071433,0.701279,-1.316141,-0.994994,0
3926149868,0.004896,-0.207448,0.083069,0.499854,-1.409303,-1.094087,0
3926183202,-0.013365,-0.117214,0.065715,0.960628,-1.55325,-1.409491,0
3926216536,0.283869,-0.047416,0.012424,0.77755,-0.296553,-0.850891,0
3926249870,0.412376,-0.049163,-0.253136,0.628509,0.475898,-0.666406,0
3926283204,0.524942,-0.150668,0.239482,-0.794757,-0.267956,-0.20483,0
3926316538,0.29898,-0.402412,0.299338,-0.707574,1.71155,0.500184,0
3926349872,0.131932,-0.585391,0.173081,-0.903604,2.312302,0.416106,0
3926383206,-0.177241,-0.299368,0.027033,-1.357503,2.606116,1.390941,0
3926416540,-0.256635,-0.071869,0.074132,-1.460944,3.645391,1.166628,0
3926449874,-0.079254,0.031556,-0.015362,-1.313569,2.707822,1.35272,0
3926483208,-0.09945,0.04513,0.055154,-1.320679,2.492437,1.367836,0
3926516542,0.183281,0.056783,0.276093,-0.819245,1.768087,1.265926,0
3926549876,0.467936,0.394307,-0.053817,-1.005396,1.063197,1.904074,0
3926583210,0.448243,0.413187,-0.380273,-0.924479,1.089887,1.482907,0
3926616544,0.509676,-0.341873,-0.440664,-1.120217,0.359329,-0.10347,0
3926649878,-0.036293,-0.634881,0.109398,-0.472251,0.483223,-0.113112,0
3926683212,-0.874704,-0.676482,-0.914268,-0.568897,-0.404271,-0.739865,0
3926716546,-0.197755,-0.322419,0.096735,-0.182459,-0.792177,-1.991255,0
3926749880,-0.365218,0.462206,-0.121817,0.844608,-2.40327,-1.457993,0
3926783214,0.178924,1.208769,0.089528,1.586615,-2.676255,-1.376997,0
3926816548,0.116283,1.374248,0.460186,2.047563,-3.206894,-0.884803,0
3926849882,-0.05203,0.269881,-0.286957,2.575063,-2.974472,-0.561747,0
3926883216,-0.051309,0.18871,0.339862,1.905685,-2.970642,-2.375739,0
3926916550,-0.284594,0.186707,0.115417,1.896584,-2.552291,-1.814751,0
3926949884,-0.363526,0.235863,0.259959,1.933917,-1.240718,-0.723212,0
3926983218,0.104186,0.128616,0.196022,1.604598,-1.668885,-0.439466,0
3927016552,-0.18045,-0.223686,-0.045724,0.785281,0.273452,0.119278,0
3927049886,-0.046007,-0.335091,0.096649,0.496103,-0.724502,-0.909705,0
3927083220,-0.061405,-0.619241,0.041484,0.110254,0.216863,0.028705,0
3927116554,-0.391939,-0.18221,-0.032078,-0.367361,1.35809,-0.260745,0
3927149888,0.175894,-0.354596,0.105448,-1.02066,1.230426,-0.32661,0
3927183222,0.289755,0.133381,-0.181299,-1.755794,4.267176,1.251582,0
3927216556,0.358448,0.165988,0.220399,-2.182769,4.637514,0.762073,0
3927249890,-0.151399,0.123723,0.514683,-3.030759,3.57714,1.205464,0
3927283224,-0.204412,0.090085,0.466604,-2.097253,4.678894,3.045219,0
3927316558,-0.269586,0.237579,0.117664,-1.725153,2.32282,1.667933,0
3927349892,-0.273714,0.194971,0.256598,-1.194832,1.368257,1.688228,0
3927383226,-0.236399,0.112466,0.185052,-0.479268,-0.212523,1.360945,0
3927416560,-0.196656,-0.209723,-0.269246,-0.137531,-1.240723,0.19244,0
3927449894,-0.024799,-0.42433,-0.04955,0.714105,-1.898682,-0.482821,0
3927483228,-0.166281,0.047454,0.264289,1.08984,-2.122451,-0.651535,0
3927516562,0.069114,0.054178,-0.20959,1.722881,-2.931211,-1.382512,0
3927549896,0.165025,0.429508,-0.353731,2.096116,-3.10105,-0.755996,0
3927583230,-0.176296,0.431633,0.07797,2.174424,-2.899219,-1.452194,0
3927616564,0.078281,0.066423,-0.173246,2.12212,-3.104073,-2.657319,0
3927649898,0.36657,0.288858,-0.126014,2.083382,-3.153839,-1.719367,0
3927683232,-0.068436,0.071862,-0.159055,2.05156,-2.213255,-1.587849,0
3927716566,0.422954,-0.079819,-0.164088,1.362972,-4.617527,-2.905488,0
3927749900,0.238712,0.896166,0.671578,2.733522,-1.271029,-1.212132,0
3927783234,0.146071,0.007952,0.033156,0.294017,3.023053,-0.965318,0
3927816568,0.404756,0.41002,0.242622,-2.680536,6.083781,1.564551,0
3927849902,-0.368359,0.5043,0.395015,-4.199048,7.061632,1.096848,0
3927883236,-0.144351,0.300989,0.144459,-5.272577,6.508314,0.844795,0
3927916570,0.501782,0.384744,0.055558,-4.876901,5.612604,3.468762,0
3927949904,-0.245679,-0.067123,0.314313,-3.268621,2.322859,2.37746,0
3927983238,-0.258544,-0.2493,-0.11444,-1.769676,-0.035588,1.332745,0
3928016572,-0.201035,-0.292173,-0.364045,-0.746962,-1.523182,1.857203,0
3928049906,0.271511,-0.052748,-0.103204,0.208546,-1.867095,2.151851,0
3928083240,0.704619,0.409681,0.004667,1.182896,-1.063694,2.176448,0
3928116574,-0.164978,0.349748,-0.102271,1.332503,-1.812204,1.180722,0
3928149908,0.046457,-0.200755,0.353553,2.202971,-2.185093,-0.187079,0
3928183242,0.373052,0.369204,-0.125835,2.386361,-2.190755,-0.99718,0
3928216576,-0.224115,0.217492,-0.098513,2.122157,-3.201673,-1.755599,0
3928249910,0.448788,0.113026,-0.445833,2.344638,-3.177999,-2.290151,0
3928283244,0.575351,0.647912,0.01827,1.817781,-3.835739,-2.262793,0
3928316578,0.537507,0.004153,0.527617,1.518474,-3.372205,-1.25499,0
3928349912,0.504509,0.010615,0.043027,2.054339,-2.025875,-1.523499,0
3928383246,-0.291686,-0.064962,0.403675,0.643837,-2.206835,-0.879634,0
3928416580,-0.040844,-0.010138,0.183463,-0.369512,2.621834,1.181756,0
3928449914,-0.099499,0.072605,0.070498,-1.722924,2.306512,0.888632,0
3928483248,-0.159299,0.195379,0.518504,-1.42229,4.310163,0.981888,0
3928516582,-0.017908,-0.276022,0.750486,-2.143225,5.292705,0.788065,0
3928549916,0.414816,0.19703,0.047442,-2.410152,4.655428,1.180379,0
3928583250,0.883988,0.33052,0.972781,-2.695877,3.657508,1.422514,0
3928616584,0.878845,0.10626,0.831547,-2.209782,2.874492,0.579186,0
3928649918,-0.151362,0.139264,0.596509,-1.688417,3.084203,0.873144,0
3928683252,-0.336445,-0.150839,0.697835,-1.384572,-1.206113,2.436631,0
3928716586,-0.473086,-0.211767,1.15311,-0.610163,-2.298666,1.260986,0
3928749920,-0.587611,0.4028,1.560308,-0.451991,-0.347048,2.788287,0
3928783254,0.451872,1.042483,0.931076,-0.020845,-2.259648,0.07921,0
3928816588,0.361049,0.780161,0.3467,0.746159,-2.428636,-1.170631,0
3928849922,-0.015299,0.188998,0.099373,1.10599,-1.667585,-0.654529,0
3928883256,0.116401,0.09695,-0.050082,1.740446,-1.785601,0.282878,0
3928916590,0.232924,-0.130092,-0.167723,2.059799,-1.626393,0.844781,0
3928949924,0.215308,-0.121267,-0.602462,2.3308,-1.981367,0.925825,0
3928983258,0.039744,-0.135363,-0.607718,2.542042,-1.627287,0.814078,0
3929016592,-0.137915,-0.082993,-0.086868,2.298389,-1.776416,0.367438,0
3929049926,-0.174992,0.251834,0.496056,1.665813,-0.795515,0.31167,0
3929083260,-0.593385,0.219614,0.987851,1.013042,-0.124182,0.868501,0
3929116594,-1.649433,0.449112,1.287282,-0.093535,-0.105027,0.709046,0
3929149928,-0.435448,0.998798,2.085305,-1.03445,1.147009,0.770395,0
3929183262,0.00119,0.963361,1.21021,-1.244583,0.962998,2.831935,0
3929216596,-0.684303,0.433658,1.953125,-2.397973,3.849401,4.073637,0
3929249930,-0.782542,-0.14305,2.915859,-2.136848,4.079316,4.373843,0
3929283264,0.052723,0.009667,1.410378,-2.192023,2.913191,3.085561,0
3929316598,0.995724,0.810171,0.672194,-2.357731,2.830432,3.40822,0
3929349932,1.079472,0.011145,0.411087,-1.867797,1.695859,2.252732,0
3929383266,1.085474,-0.782793,0.091642,-0.949879,1.165164,1.439148,0
3929416600,0.257934,-0.829905,0.74722,-0.287244,0.559619,1.195889,0
3929449934,0.237571,-0.336105,0.145009,0.121412,-0.826277,-1.048972,0
3929483268,0.467584,0.701463,-1.000825,0.520383,0.600353,-1.208241,0
3929516602,-0.049395,-0.008337,-0.682702,0.844081,-1.026691,-1.777589,0
3929549936,-0.35349,-0.067744,-0.128407,0.991312,-1.39477,-1.697979,0
3929583270,-0.215945,-0.090583,0.017998,1.133975,-1.471579,-1.128198,0
3929616604,-0.17218,-0.359467,-0.078184,1.285391,-2.459665,-0.91763,0
3929649938,0.23079,0.256096,-0.546702,1.121116,-3.014179,-1.384379,0
3929683272,0.615413,0.689733,-0.572822,1.922429,-2.921556,-0.878026,0
3929716606,0.226295,0.278028,-0.074331,1.682117,-2.753668,-1.662008,0
3929749940,0.287224,0.264296,-0.09972,1.755183,-2.745862,-0.885365,0
3929783274,0.33941,0.133407,-0.246608,1.626472,-0.827672,-0.742275,0
3929816608,0.599007,0.216652,-0.400009,0.772135,-0.621468,0.131917,0
3929849942,0.36319,0.213879,-0.193143,0.487438,-0.164084,0.461843,0
3929883276,-0.033306,0.376305,-0.005587,-0.32571,-0.116588,-1.007843,0
3929916610,-0.23408,-0.268808,-0.0951,-0.471583,0.302041,1.104061,0
3929949944,0.089319,0.213906,0.359241,-0.918644,0.806238,0.552175,0
3929983278,-0.263815,0.285662,0.124983,-2.272142,3.068693,1.221725,0
3930016612,0.027223,0.140999,0.030271,-3.501439,4.76589,2.317847,0
3930049946,-0.182112,0.214962,0.169309,-3.781697,4.317742,1.981798,0
3930083280,-0.554542,-0.171837,0.191508,-3.578398,4.301136,2.219262,0
3930116614,0.018744,0.092638,0.301737,-2.698025,2.779337,1.607107,0
3930149948,-0.041632,0.0072,-0.073929,-1.608771,1.810649,0.997183,0
3930183282,0.041139,-0.205839,-0.453106,-0.537036,0.754305,0.350361,0
3930216616,0.299071,0.530818,0.322711,0.335654,0.425442,-0.004089,0
3930249950,-0.243184,0.360921,0.085147,0.376159,-1.158985,-0.98247,0
3930283284,0.303458,-0.369524,0.122898,0.782126,-1.321933,-0.870415,0
3930316618,0.345204,0.167165,-0.061481,1.094435,-1.334476,-1.391218,0
3930349952,0.247262,-0.007642,-0.801568,0.788276,-2.171801,-2.373047,0
3930383286,0.304559,-0.21931,-0.736675,1.826038,-2.502616,-0.6934,0
3930416620,0.386107,0.173463,0.337402,2.132862,-3.015385,-0.803112,0
3930449954,-0.043126,0.41571,0.379886,1.894368,-3.97772,-1.656706,0
3930483288,-0.168402,0.155819,0.059134,2.488611,-3.210764,-0.698629,0
3930516622,0.15958,0.460171,0.090975,1.87179,-2.774676,-1.995318,0
3930549956,0.064693,0.434121,-0.125861,1.659266,-1.088574,-1.99845,0
3930583290,0.167664,0.153435,-0.415949,1.007863,1.309634,-2.114854,0
3930616624,-0.113558,0.408113,0.06423,0.336809,0.640994,-1.380074,0
3930649958,-0.323993,0.096023,0.378876,-0.088036,3.104461,-0.153866,0
3930683292,0.047446,-0.160907,0.049341,-1.047163,2.426754,1.253019,0
3930716626,-0.13574,0.050615,-0.114118,-1.848265,4.045483,0.293989,0
3930749960,-0.326586,0.117377,0.018843,-1.797095,4.404212,3.41504,0
3930783294,-0.477427,0.320974,0.501282,-2.095895,2.355811,1.556309,0
3930816628,-0.512708,0.563757,0.810547,-1.962469,2.769988,1.587314,0
3930849962,-0.499013,0.729361,0.419323,-1.170452,1.600455,2.84485,0
3930883296,-0.257557,0.552536,0.013788,-0.809364,-0.756892,2.566624,0
3930916630,-0.150932,0.115755,-0.064754,-0.355261,-1.061474,1.587732,0
3930949964,0.208176,-0.634436,-0.258848,-0.104142,-1.853483,1.106707,0
3930983298,-0.385717,-1.100145,-0.893949,-0.124429,-1.885952,-0.140554,0
3931016632,-0.118881,-0.614043,-0.915882,-0.113363,-1.541407,-0.986597,0
3931049966,0.404763,0.309086,0.032573,-0.234352,-1.70016,-1.25127,0
3931083300,0.17626,0.911303,0.480639,0.088542,-1.087453,-1.538385,0
3931116634,0.140282,1.014673,0.420171,0.313282,-0.746213,-1.437136,0
3931149968,0.322361,0.830176,0.304432,0.548689,-0.942831,-1.284282,0
3931183302,-0.097279,0.467303,-0.285849,1.051324,-0.800609,-0.714126,0
3931216636,-0.147846,0.493032,-0.343744,1.422263,-1.027561,-0.737124,0
3931249970,0.08293,-0.019708,-0.381448,1.627562,-0.709272,-1.108298,0
3931283304,-0.322238,-0.727086,-0.728824,1.288835,-0.589559,-1.842919,0
3931316638,-0.244657,-0.716032,-0.385546,0.674248,-1.652647,-2.587745,0
3931349972,-0.057583,-0.071226,-0.03786,1.200746,-1.684968,-2.359458,0
3931383306,-0.102081,0.125723,-0.228231,1.740656,-0.89066,-1.829195,0
3931416640,-0.172897,-0.175818,0.323609,1.044001,-1.44624,-2.208968,0
3931449974,-0.43731,-0.096496,-0.151743,1.048159,-0.425149,-1.513789,0
3931483308,-0.795031,-0.458787,-0.172536,0.4138,-0.618347,-1.299831,0
3931516642,-0.458449,-0.687926,1.101918,0.421736,0.257439,-0.029805,0
3931549976,0.104605,-0.195159,-0.405043,0.347393,1.077678,0.31746,0
3931583310,0.763152,0.323196,1.074271,-0.127679,0.844988,0.666416,0
3931616644,-0.090279,0.122811,1.394736,-0.181035,1.525011,0.798096,0
3931649978,0.734774,-1.435948,0.924028,-0.532864,1.008083,0.039618,0
3931683312,0.210474,-0.9801,0.135309,0.171462,1.755883,1.324273,0
3931716646,-0.45847,-0.514539,-0.418934,0.698703,1.910182,2.752968,0
3931749980,0.227849,0.389273,-0.440551,-0.729185,0.542254,0.230137,0
3931783314,0.826617,1.61307,0.1217,-1.373291,0.550433,-0.344093,0
3931816648,0.755286,0.780174,0.277435,-0.749953,0.629916,1.124312,0
3931849982,0.830607,0.216424,0.21512,-0.259955,0.498126,2.065722,0
3931883316,0.712796,-0.231914,0.342052,-0.032303,0.214823,1.708884,0
3931916650,0.473202,-0.378189,0.053802,-0.401988,0.01305,0.332347,0
3931949984,0.267561,-0.168224,0.010785,-0.749404,-0.144366,-0.42721,0
3931983318,0.236832,0.111369,-0.010506,-1.01137,0.024864,-0.392282,0
3932016652,0.293248,0.122938,0.175382,-1.058984,0.131188,-0.213469,0
3932049986,0.261416,0.224067,0.114001,-1.183068,0.073785,-0.05224,0
3932083320,0.394313,0.345776,-0.170588,-1.287129,-0.075246,-0.316381,0
3932116654,0.404083,0.468034,-0.035892,-0.997706,-0.079761,-0.043343,0
3932149988,0.792798,0.686324,0.060445,-0.672535,0.180422,0.427716,0
3932183322,-0.434214,0.214468,0.840663,-0.560566,0.639197,0.834349,0
3932216656,-1.396916,-1.948594,-0.073951,-0.322223,0.683906,1.163424,0
3932249990,-0.082731,-0.575365,-0.013179,-0.233595,0.839882,0.658479,0
3932283324,0.056072,0.506478,0.186749,-0.304821,0.712591,0.119417,0
3932316658,0.005967,-0.172099,0.237429,-0.458257,0.425476,-0.186554,0
3932349992,0.044374,-0.411185,0.128534,-0.370857,0.129052,0.13209,0
3932383326,-0.064908,-0.027918,0.126505,-0.264873,-0.208031,0.107611,0
3932416660,0.047625,0.188042,0.187662,-0.144433,-0.409004,0.277983,0
3932449994,-0.040081,0.043136,0.035933,-0.113471,-0.473988,0.1049,0
3932483328,-0.176761,-0.146034,0.051552,-0.133269,-0.568963,-0.087813,0
3932516662,-0.151151,-0.119576,0.1567,0.080563,-0.434487,-0.539125,0
3932549996,-0.060141,-0.019331,0.150624,0.34971,-0.572169,1.285295,0
3932583330,-0.111784,0.052012,0.153847,0.181633,-0.898605,0.855265,0
3932616664,-0.033412,0.003238,0.164582,0.111474,-0.345982,-0.403602,0
3932649998,0.007139,-0.1714,0.088106,0.269264,0.042448,-0.50416,0
3932683332,-0.058557,-0.132557,0.158884,0.2043,-0.010363,-0.954897,0
3932716666,-0.075587,-0.176906,0.071014,0.804988,0.673512,1.550753,0
3932750000,0.016265,-0.02461,0.107467,0.835827,1.353761,0.701668,0
3932783334,-0.086893,-0.041982,0.191292,0.1578,0.768055,-1.397838,0
3932816668,-0.028458,-0.10528,0.112125,0.548275,-0.00409,-0.016102,0
3932850002,0.009326,-0.101687,0.112185,1.084854,0.088242,0.392219,0
3932883336,-0.083775,-0.169059,0.149005,0.821141,0.224137,0.092688,0
3932916670,-0.041241,-0.092498,0.084311,0.625539,0.063041,0.54924,0
3932950004,0.063135,-0.068374,0.199189,0.440394,0.044108,0.205956,0
3932983338,-0.01895,-0.153757,0.139238,-0.144413,0.684449,0.218695,0
3933016672,-0.017122,-0.151094,0.05724,0.23035,0.318782,0.296273,0
3933050006,-0.022009,-0.056513,0.133557,-0.142026,1.025607,-0.897265,0
3933083340,-0.012977,-0.152277,0.129723,-0.095859,0.162807,-0.323084,0
3933116674,-0.007715,-0.181533,0.145132,-0.359222,-0.507046,-0.165281,0
3933150008,-0.036836,-0.138495,0.077799,-0.108536,-0.307629,1.314871,0
3933183342,-0.00513,-0.00508,0.059011,-0.434575,0.087074,0.058022,0
3933216676,0.068782,0.030898,0.141233,-0.602892,-0.211956,-0.71273,0
3933250010,0.049486,-0.026898,0.156207,-0.808313,-1.590747,-0.239461,0
3933283344,-0.072815,-0.012829,0.056852,0.609849,-2.03888,2.261957,0
3933316678,-0.015977,0.024096,0.056118,1.35149,0.679971,-0.115878,0
3933350012,0.035563,-0.003008,0.172968,0.343304,0.564616,-0.21649,0
3933383346,0.089028,-0.052129,0.148959,0.017762,0.031883,-0.630606,0
3933416680,0.125355,-0.0747,0.144313,-0.027213,0.3185,-0.55153,0
3933450014,0.081627,-0.037012,0.112316,-0.099502,-0.00404,-0.843814,0
3933483348,0.067158,-0.064202,0.11027,0.113662,0.115682,-0.272029,0
3933516682,-0.006537,-0.001898,0.157959,0.099888,-0.01861,0.276792,0
3933550016,-0.017869,-0.069203,0.13549,0.186322,-0.449419,0.713293,0
3933583350,-0.069001,-0.047758,0.084515,-0.002435,-0.452745,0.619247,0
3933616684,-0.040454,-0.019883,0.108503,-0.262872,-0.210223,-0.407313,0
3933650018,-0.024656,0.034599,0.129766,-0.175488,-0.053791,0.100647,0
3933683352,0.008072,-0.018614,0.099902,-0.243654,0.029843,-0.039884,0
3933716686,-0.00143,-0.00418,0.129632,-0.244944,0.048918,0.611695,0
3933750020,0.009789,-0.083248,0.094596,-0.145155,0.209465,0.66462,0
3933783354,0.066933,-0.0064,0.120352,-0.228143,0.126451,0.453229,0
3933816688,0.025123,0.000675,0.118179,-0.214074,0.114173,0.029712,0
3933850022,0.044282,-0.068313,0.120704,-0.154672,-0.048117,0.29434,0
3933883356,-6.2e-05,-0.144453,0.132042,-0.116557,-0.09634,0.243613,0
3933916690,0.067236,-0.053365,0.089545,-0.096564,-0.111928,0.015305,0
3933950024,0.032066,-0.026816,0.082291,-0.05488,-0.193234,-0.13169,0
3933983358,-0.016272,-0.16563,0.097878,0.042666,-0.220805,-0.117126,0
3934016692,0.110564,-0.159173,0.099493,0.019907,-0.254584,0.083828,0
3934050026,0.077798,-0.0292,0.127817,0.062526,-0.076413,0.089522,0
3934083360,0.108322,-0.071734,0.120397,-0.003667,-0.018818,0.180546,0
3934116694,0.105171,-0.020617,0.053986,0.02213,0.0605,0.379993,0
3934150028,0.057125,0.056796,0.066312,0.048892,-0.024013,0.27115,0
3934183362,0.063814,-0.051457,0.123723,-0.030847,-0.043143,0.474459,0
3915249650,0.051909,0.435693,0.223959,0.63583,-1.362966,-0.178413,0
3915282984,-0.064945,0.105388,0.062093,0.241902,-0.682257,0.219186,0
3915316318,-0.35242,-0.133844,-0.269238,0.823317,-1.014693,-0.184536,0
3915349652,-0.207781,-0.440113,-0.243586,0.684982,-1.181702,-1.337905,0
3915382986,-0.079391,-0.097783,-0.077855,1.061228,-1.094598,-1.639216,0
3915416320,0.090766,-0.1649,-0.040392,1.20003,-1.867894,-2.53062,0
3915449654,0.214483,-0.578464,-0.236629,1.262893,-2.146471,-2.987567,0
3915482988,0.353775,-0.406675,-0.316667,2.873437,-2.367216,-3.452512,0
3915516322,0.35362,-0.110391,-0.002125,2.515038,-1.990351,-3.314508,0
3915549656,0.633325,-0.160899,-0.038595,2.566327,-1.914348,-2.246565,0
3915582990,0.447276,-0.223452,-0.179308,1.797174,-0.726069,-0.663277,0
3915616324,0.208989,-0.015225,-0.212997,0.152564,1.177664,1.144827,0
3915649658,0.136748,0.065222,-0.026518,-1.035445,1.552642,-0.830852,0
3915682992,0.079376,0.055252,0.021935,-2.012558,2.433254,0.202447,0
3915716326,0.322602,0.209917,-0.100166,-2.05017,3.69117,1.037072,0
3915749660,0.390549,0.094991,-0.23355,-3.022969,4.166446,2.171441,0
3915782994,0.306996,0.227072,-0.203752,-2.657928,3.856487,1.349469,0
3915816328,-0.030336,0.269705,-0.022717,-2.30659,2.570233,0.043342,0
3915849662,0.28086,-0.345266,-0.091146,-1.821291,2.285609,0.993864,0
3915882996,0.359611,-0.04263,-0.027447,-1.064664,0.591841,0.929606,0
3915916330,-0.188375,0.009819,-0.039564,-0.248396,-0.315909,2.497811,0
3915949664,-0.098223,-0.309717,-0.067983,0.380909,-1.515577,1.074107,0
3915982998,0.061401,0.094686,0.257671,0.855407,-1.990923,-0.16888,0
3916016332,-0.160193,0.384148,0.034195,0.928258,-1.106239,1.081872,0
3916049666,-0.359269,-0.006741,0.073081,1.560496,-1.505386,-0.304968,0
3916083000,-0.695456,0.17856,0.188591,1.886725,-1.164005,-0.64296,0
3916116334,-1.083373,-0.628732,0.219904,2.163423,-0.648925,-0.90993,0
3916149668,-1.386314,-0.870915,0.518313,1.385204,-1.761529,-3.289826,0
3916183002,-0.917713,-0.222968,0.505094,1.447819,-0.696968,-2.044105,0
3916216336,0.322086,0.964584,0.024745,0.879443,-2.091436,-2.455547,0
3916249670,0.329695,0.347967,-0.475387,0.789954,-2.296605,-3.185742,0
3916283004,0.902001,0.295658,-0.206568,1.278686,0.166088,-2.167334,0
3916316338,1.17604,1.182667,-0.272353,0.164422,-2.329132,-3.744639,0
3916349672,0.60054,0.113502,-0.668965,-0.624248,1.442145,-1.563025,0
3916383006,0.778013,0.455474,-0.305231,-1.258044,1.383095,-0.501772,0
3916416340,-0.220164,-0.426028,-0.275784,-2.53194,1.387472,0.001884,0
3916449674,-0.945485,-1.020123,-0.359661,-3.621439,6.329408,5.109875,0
3916483008,-1.167584,-0.758434,-0.664014,-4.287182,4.947955,4.986668,0
3916516342,-1.108642,0.361343,-0.236745,-3.262476,3.718834,3.327418,0
3916549676,0.573048,1.295109,-0.330056,-1.617551,2.625286,3.176521,0
3916583010,0.613484,1.39134,0.404903,0.733104,-1.779602,0.080262,0
3916616344,0.328132,0.966808,0.58756,1.906848,-2.765133,-0.924522,0
3916649678,0.746493,0.220063,-0.107116,1.937774,-3.103987,-0.420364,0
3916683012,0.512728,-0.308668,-0.155224,2.463768,-4.034277,-1.226812,0
3916716346,0.478113,-0.197273,0.467669,2.675104,-3.561371,-1.170596,0
3916749680,-0.303109,-0.31449,0.788209,2.400231,-2.472636,-0.998992,0
3916783014,0.144074,-0.132842,0.157475,1.947765,-2.711417,-1.514874,0
3916816348,0.01834,0.363582,1.36295,1.988568,-1.375987,-0.166476,0
3916849682,0.224098,0.301697,1.898746,1.643906,-1.393286,-0.817816,0
3916883016,0.863179,0.505342,0.437825,0.479319,-1.725229,0.621597,0
3916916350,-0.143248,0.045409,1.423853,-0.194706,1.889911,3.240511,0
3916949684,-0.417991,-0.225027,1.587608,-0.625592,0.222153,2.046762,0
3916983018,-0.540761,0.149932,1.29258,-1.917747,2.467115,3.540324,0
3917016352,-0.435475,0.727041,1.328343,-2.843946,3.361524,3.949333,0
3917049686,-0.193152,0.155238,0.972869,-3.158618,4.055314,3.221883,0
3917083020,0.110869,0.472893,0.036524,-2.215493,4.184187,0.979053,0
3917116354,0.231334,0.514869,0.213104,-2.018675,4.343095,0.607714,0
3917149688,0.256845,0.177947,0.071373,-1.448506,2.00296,-0.601076,0
3917183022,0.355841,-0.150774,-0.428557,-1.023455,3.40785,0.006543,0
3917216356,0.444194,-0.19416,-0.493359,-0.926956,0.5644,0.152005,0
3917249690,0.420113,0.111116,-0.238707,0.029994,-0.656451,1.118176,0
3917283024,0.140403,-0.191978,0.006501,0.37013,-0.237537,1.088262,0
3917316358,0.3514,0.265329,-0.035382,1.250183,-2.783956,-0.83707,0
3917349692,0.219,0.33001,0.001459,1.620174,-2.414551,-0.472556,0
3917383026,-0.164006,-0.126553,0.162229,1.145116,-2.137594,0.210569,0
3917416360,0.03538,-0.032968,0.204982,1.174918,-3.121657,1.120079,0
3917449694,-0.0467,-0.166386,0.399355,1.310059,-2.773533,0.473146,0
3917483028,-0.048881,0.05468,0.172512,1.181699,-3.354377,0.208114,0
3917516362,-0.066338,-0.053619,0.243576,1.748458,-2.217972,0.379992,0
3917549696,-0.186674,-0.104831,0.390589,1.016024,-1.012351,0.29984,0
3917583030,-0.748368,-0.302006,0.427958,0.747984,-0.933275,-0.377365,0
3917616364,0.284431,0.745011,1.140035,0.515048,1.946131,1.605438,0
3917649698,0.279231,0.717076,1.414704,-1.177664,2.811766,2.541833,0
3917683032,-0.087716,0.144015,2.228018,-2.304728,3.341672,4.065275,0
3917716366,0.378991,0.676741,1.335298,-2.573762,4.047109,3.961872,0
3917749700,0.70869,0.792947,0.982056,-2.863752,4.684904,3.46267,0
3917783034,0.473529,0.868122,0.920423,-2.417385,2.485481,2.384257,0
3917816368,0.406734,0.247666,0.560206,-1.602126,1.662826,0.972376,0
3917849702,0.036759,-0.26044,0.541699,-0.880002,-0.145192,0.281398,0
3917883036,0.094063,-0.067056,0.292634,0.084258,-1.306031,-1.139703,0
3917916370,0.163137,0.179365,0.185793,0.49965,-0.786809,-0.997694,0
3917949704,0.233832,0.712956,0.160972,1.104915,-1.206228,-1.67277,0
3917983038,-0.030815,-0.054773,-0.038228,1.417448,-1.33219,-2.293429,0
3918016372,-0.439383,-0.032122,-0.276004,1.362576,-0.756929,-1.880903,0
3918049706,-0.625553,-0.534028,0.251636,1.515222,-1.235998,-1.058376,0
3918083040,-0.416894,-0.045278,0.018076,1.493341,-2.647966,-1.304335,0
3918116374,-0.578315,-0.251403,-0.454684,2.021147,-1.569617,-0.941708,0
3918149708,-0.15798,-0.188184,0.275033,1.861285,-2.82143,-1.921221,0
3918183042,0.027043,-0.127989,0.21501,1.430082,-2.574495,-0.335127,0
3918216376,0.6695,-0.082985,-0.377687,1.064484,-2.126749,0.033317,0
3918249710,0.398069,-0.077324,-0.077373,1.023016,-1.206325,1.223263,0
3918283044,0.095825,0.148452,0.261577,-0.80752,1.009992,3.343124,0
3918316378,0.261168,0.254798,0.001669,-1.472244,2.666727,2.574968,0
3918349712,0.109135,0.328756,-0.284607,-1.819329,3.762012,2.802419,0
3918383046,0.238804,0.042561,-0.012415,-1.970008,4.358117,3.00254,0
3918416380,-0.140035,0.327231,-0.256502,-2.101093,3.93995,2.619483,0
3918449714,-0.300702,-0.470281,0.253249,-1.416083,3.239335,2.068235,0
3918483048,-0.002263,0.135856,0.22945,-1.810283,1.754921,1.342731,0
3918516382,-0.134523,-0.021158,0.079509,-1.408476,1.050396,0.287846,0
3918549716,-0.120424,0.143381,0.264791,-1.216845,0.608722,0.125636,0
3918583050,-0.405415,-0.063257,0.028241,-0.96483,-0.289733,0.313891,0
3918616384,0.187292,-0.20008,0.30971,-0.283104,-0.908674,-0.467062,0
3918649718,0.219355,0.551362,0.053942,0.360842,-1.709442,-1.520285,0
3918683052,0.194239,0.433693,0.149787,1.029129,-0.976339,-3.125914,0
3918716386,0.265186,0.437781,-0.026416,1.511953,-1.585333,-1.998168,0
3918749720,0.287313,0.200148,-0.242877,1.737499,-2.85421,-1.50379,0
3918783054,0.373095,-0.245282,-0.077954,2.280275,-2.415925,-1.720817,0
3918816388,0.471309,0.160196,-0.131953,2.736725,-2.592492,-1.560219,0
3918849722,-0.02398,0.166403,0.079693,2.367707,-2.139396,-0.478347,0
3918883056,-0.171374,-0.35213,-0.146939,1.631347,-2.300687,-1.573536,0
3918916390,0.19354,0.019444,-0.00975,1.244328,-0.982502,0.604383,0
3918949724,-0.239536,0.4217,-0.271585,0.322623,-1.139728,-0.283951,0
3918983058,-0.329422,0.096881,-0.739941,-0.049565,1.62591,-0.185046,0
3919016392,-0.47515,0.009448,-0.18099,-0.823273,1.268417,-0.228161,0
3919049726,-0.35869,-0.103027,0.217765,-1.741156,2.52738,0.731864,0
3919083060,-0.445562,0.132409,-0.025557,-1.762656,3.653985,1.311787,0
3919116394,-0.342602,-0.118162,-0.200242,-1.756528,3.735426,0.888235,0
3919149728,-0.087115,-0.207502,-0.212332,-1.370958,3.625642,0.645103,0
3919183062,-0.072558,0.169883,0.009722,-1.230797,1.851203,-0.179397,0
3919216396,0.284487,0.329711,0.095162,-1.257742,0.763737,0.79465,0
3919249730,0.49126,0.905346,-0.009212,-0.717851,1.84091,1.329712,0
3919283064,0.048851,1.161137,0.587152,-0.836341,-0.236859,1.080811,0
3919316398,0.123157,0.451597,-0.135198,-0.71197,-1.35336,1.070115,0
3919349732,-0.122334,0.182123,-0.293945,0.405733,-0.271157,1.436125,0
3919383066,-0.337675,0.02721,-0.09578,0.393978,-1.269207,-0.822417,0
3919416400,-0.508207,-0.454785,-0.447157,0.705872,-1.653595,-1.413008,0
3919449734,-0.334253,-0.839025,-0.461945,1.171852,-1.577114,-2.210508,0
3919483068,0.073269,-0.200524,-0.044491,1.349499,-1.954333,-2.644009,0
3919516402,0.19222,0.01497,0.176081,1.95638,-2.746093,-2.249961,0
3919549736,-0.748855,-0.139526,0.148477,2.179557,-2.570269,-2.245991,0
3919583070,-0.929775,-0.084131,-0.164079,2.136297,-2.085962,-1.77966,0
3919616404,-1.173853,-0.132843,-0.348676,1.732621,-2.250282,-1.320535,0
3919649738,-0.408085,-0.662264,-0.362623,1.039948,-1.402846,-1.5718,0
3919683072,0.926262,0.188627,0.251432,1.197379,0.477096,-1.179644,0
3919716406,0.792065,0.992994,-0.325325,0.17969,-0.111662,-1.579988,0
3919749740,0.71217,0.218194,0.025676,-0.448966,0.589172,-1.011086,0
3919783074,0.273112,-0.504869,0.649159,-0.425021,1.818294,-1.100501,0
3919816408,0.089405,-0.189783,0.512186,-1.275885,0.96663,-0.738698,0
3919849742,0.505298,-0.102629,0.648289,-1.057972,2.303874,1.530571,0
3919883076,-0.066507,-0.168421,0.265479,-1.284864,2.558463,0.410239,0
3919916410,0.119144,-0.865151,0.082053,-1.562201,2.410119,0.776769,0
3919949744,0.217929,-0.106256,0.226667,-0.678087,3.173529,3.282605,0
3919983078,0.402844,0.504811,0.097201,-0.819956,2.423719,2.679981,0
3920016412,0.519745,0.356211,0.08308,-0.959796,1.669986,1.199795,0
3920049746,0.14146,-0.269608,0.080012,-0.145324,1.912868,2.240308,0
3920083080,0.13348,-0.918948,0.037588,-0.692444,1.061163,2.024402,0
3920116414,0.36486,-0.241503,0.308879,-0.080699,0.260993,2.086862,0
3920149748,0.426934,0.236259,0.274269,-0.193297,0.023615,1.399529,0
3920183082,0.130117,0.152813,-0.037198,-0.429514,-0.672062,0.201909,0
3920216416,0.010901,0.045024,0.100548,-0.553186,-1.103224,-0.724128,0
3920249750,0.360835,0.172944,0.082168,-0.636353,-0.953546,-1.127495,0
3920283084,0.653817,0.540462,-0.000291,-0.38381,-1.335783,-1.55482,0
3920316418,0.228697,-0.262532,0.436311,0.085903,-1.216701,-1.379829,0
3920349752,-0.216054,-1.175266,0.213918,-0.050471,-1.152208,-1.171123,0
3920383086,0.176904,0.067058,-0.060357,0.236594,-0.800016,-0.857544,0
3920416420,0.064493,0.613166,-0.122981,0.467716,-0.716463,-0.696475,0
3920449754,-0.14522,-0.069904,0.064558,0.648647,-0.708192,-0.552551,0
3920483088,-0.139129,-0.256216,0.24257,1.058005,-0.356786,-0.257331,0
3920516422,-0.242877,-0.346133,0.219957,0.433821,-0.107411,-0.730964,0
3920549756,-0.001177,-0.202235,0.119869,-0.19211,-0.158451,-0.513194,0
3920583090,-0.156677,-0.180953,0.174541,-0.500162,0.583902,-0.114858,0
3920616424,-0.108882,-0.19172,0.216699,-0.432622,0.671509,-0.14749,0
3920649758,-0.165306,-0.19666,0.081233,-0.160144,0.412889,0.217978,0
3920683092,-0.111447,-0.02874,0.11571,0.421625,0.842273,0.446458,0
3920716426,-0.087694,0.081421,0.146195,0.479347,0.622236,0.527284,0
3920749760,-0.097046,-0.034669,0.148812,0.500056,0.303521,0.668388,0
3920783094,-0.099316,-0.073758,0.11583,0.49021,0.809087,0.297434,0
3920816428,-0.1928,-0.160006,0.119967,0.31732,0.384595,0.048387,0
3920849762,-0.150588,0.019675,0.091229,0.163486,0.271833,-0.13736,0
3920883096,-0.170651,0.008094,0.136045,0.532726,0.917242,-0.052599,0
3920916430,-0.195525,-0.025322,0.11279,0.35073,0.852481,-0.479269,0
3920949764,-0.107363,-0.23624,0.143183,-0.051927,0.631681,-0.862243,0
3920983098,-0.035656,-0.065296,0.177694,0.051117,-0.231364,-0.080377,0
3921016432,0.101859,0.04621,0.183251,-0.005865,-0.646242,0.340017,0
3921049766,0.039365,0.047735,0.15738,-0.174107,0.089463,0.293294,0
3921083100,-0.025698,0.000376,0.129606,-0.277996,0.075267,0.413272,0
3921116434,-0.070257,0.057452,0.119284,-0.262145,0.506683,0.602291,0
3921149768,-0.110263,-0.018117,0.128312,-0.375011,0.483799,0.652814,0
3921183102,-0.04655,-0.069242,0.140834,-0.43313,0.563578,0.677381,0
3938950124,0.010431,-0.09845,0.149389,0.906438,-0.41634,0.185531,0
3938983458,0.204185,-0.079398,0.189953,0.52567,-0.29512,-0.181206,0
3939016792,0.180779,-0.075012,0.130751,0.459001,-0.507465,-0.156402,0
3939050126,0.06699,0.055751,0.24438,0.395282,-0.48918,-0.204225,0
3939083460,-0.142803,0.03967,0.061975,0.161598,-0.570605,-0.443167,0
3939116794,-0.021983,-0.0207,0.071338,0.449479,-0.614211,-0.75063,0
3939150128,0.274488,-0.158177,0.177727,0.537276,-0.776,-0.668598,0
3939183462,0.718798,-0.273358,0.303858,0.557573,-1.015341,-0.80349,0
3939216796,0.825314,-0.325079,0.426421,0.708325,-1.575442,-0.111458,0
3939250130,0.631196,-0.284601,0.267341,0.505884,-1.780293,-0.222902,0
3939283464,0.178212,-0.364256,0.172966,-0.155017,-1.424199,-1.909418,0
3939316798,0.219173,0.146091,-0.03191,1.332823,-0.837985,-0.708004,0
3939350132,0.147003,0.181655,-0.396645,0.637423,-1.263811,-2.123172,0
3939383466,-0.077687,-0.184765,-0.443958,1.63949,-0.742456,-0.665706,0
3939416800,-0.217259,-0.106606,-0.042409,0.383837,0.634677,-0.567557,0
3939450134,-0.228979,0.091305,0.222137,-0.191618,1.208989,0.591984,0
3939483468,-0.161769,-0.06193,-0.12444,-1.872546,3.005482,1.44113,0
3939516802,0.086552,-0.324997,0.078134,-2.911957,3.543738,1.986943,0
3939550136,-0.245497,-0.031869,0.30495,-2.498079,3.529365,3.431439,0
3939583470,-0.09785,0.11117,0.082998,-1.537008,2.666109,3.168963,0
3939616804,-0.278713,0.299455,-0.330873,-0.993229,1.71128,2.392304,0
3939650138,0.330996,0.389062,0.264373,-0.700358,0.487087,0.838503,0
3939683472,0.057113,0.628234,0.128893,-0.210733,0.550625,-0.26104,0
3939716806,-0.259378,0.275607,-1.043669,0.386906,-0.232868,-0.909974,0
3939750140,-0.082637,0.075226,0.11932,0.21699,-1.124589,-1.598336,0
3939783474,-0.621399,-0.170388,-0.20734,0.857264,-1.764302,-1.644088,0
3939816808,0.212549,-0.432893,-0.461739,1.232883,-1.945537,-1.601804,0
3939850142,0.069329,0.059355,0.399671,1.20185,-2.295217,-1.87372,0
3939883476,-0.29373,0.23924,-0.306728,1.627401,-2.154258,-1.958627,0
3939916810,0.341874,0.175306,-0.374112,1.193822,-2.040588,-2.586904,0
3939950144,-0.440298,0.412361,0.463544,1.032603,-1.802932,-2.218915,0
3939983478,-0.428032,0.260424,0.118963,0.637064,-0.663916,-2.58883,0
3940016812,-0.3434,-0.391967,-0.366703,0.480322,-0.832202,-2.99432,0
3940050146,-0.164301,-0.125928,0.427842,1.991097,-0.151101,-0.556417,0
3940083480,-0.241214,0.083652,0.48111,1.406633,-1.041122,0.148121,0
3940116814,0.005882,-0.165981,-0.471419,0.976384,0.237667,0.577679,0
3940150148,0.045983,0.036828,-0.173179,0.266981,2.077905,1.298789,0
3940183482,-0.052717,0.058922,0.246148,-1.384643,3.113541,1.768646,0
3940216816,-0.108725,0.091044,0.675062,-2.433653,4.011824,3.004994,0
3940250150,-0.231317,-0.094542,0.613102,-2.41572,3.773271,4.381797,0
3940283484,-0.037555,-0.046539,0.170902,-2.16906,2.517537,3.145242,0
3940316818,0.129539,0.356328,0.209161,-1.324184,1.6025,2.551266,0
3940350152,0.16367,-0.054799,0.140306,-0.987278,0.551956,1.116885,0
3940383486,0.276502,-0.128928,0.411539,-0.518607,0.378607,0.422609,0
3940416820,-0.037789,-0.118106,0.280487,-0.041294,-0.414937,-0.172248,0
3940450154,-0.156108,-0.444974,0.233613,0.462504,-0.657428,-1.139613,0
3940483488,0.032144,-0.382862,-0.033865,1.278721,-1.119412,0.312326,0
3940516822,-0.130796,0.023625,0.056331,1.313738,-1.499132,-1.068563,0
3940550156,-0.182128,0.23284,0.222242,1.206765,-1.858052,-1.919701,0
3940583490,-0.146949,0.154024,0.126585,1.584104,-2.410827,-1.115388,0
3940616824,-0.311721,-0.102333,0.146786,1.613288,-2.803067,-1.154453,0
3940650158,0.379471,1.140823,0.513931,1.569059,-3.250515,-1.196187,0
3940683492,0.11384,0.788158,0.138349,1.720049,-2.992488,-1.464579,0
3940716826,-0.026347,0.137105,-0.750679,1.166162,-2.411386,-2.411241,0
3940750160,0.058026,0.069394,-0.942872,0.645312,-1.173299,-2.19263,0
3940783494,-0.192521,0.44636,-0.012865,-0.279643,-0.27121,-0.347216,0
3940816828,-0.281642,0.141565,0.273249,-0.928156,1.299897,0.322592,0
3940850162,-0.304264,0.14661,0.047659,-1.707953,1.602467,1.385659,0
3940883496,-0.141228,0.18552,-0.089509,-1.938572,3.000735,2.210927,0
3940916830,-0.088014,0.314119,-0.106384,-1.826956,4.571488,3.643955,0
3940950164,0.313085,0.35953,0.485548,-1.76475,4.77466,2.845499,0
3940983498,0.051768,0.068341,0.428543,-1.337727,4.058102,1.981639,0
3941016832,0.279361,0.214795,0.323022,-0.516025,2.844345,1.335899,0
3941050166,0.073047,0.045876,0.017697,-0.100909,1.655105,0.609166,0
3941083500,0.088109,-0.012111,0.063448,-0.178629,0.2161,-0.187872,0
3941116834,0.598898,0.258272,0.147529,0.190649,0.167068,-0.310309,0
3941150168,-0.000931,-0.330289,0.368372,-0.69581,-1.384858,-1.711667,0
3941183502,-0.235167,0.070618,0.102143,0.225277,-1.61473,-0.824944,0
3941216836,-0.267401,-0.540087,0.056435,0.254922,-1.605597,-0.316549,0
3941250170,0.503233,0.76976,-0.519255,0.500559,-1.697899,-1.533508,0
3941283504,0.237876,0.75875,-0.57342,0.597829,-1.958106,-2.14147,0
3941316838,-0.343938,-0.050466,-0.169704,0.545965,-2.432454,-2.26263,0
3941350172,0.074408,-0.106211,-0.069393,0.873015,-2.982464,-2.108615,0
3941383506,0.298074,0.548808,0.017514,1.036333,-3.099628,0.115054,0
3941416840,-0.508991,0.164219,0.315247,0.39565,-2.303241,-0.555824,0
3941450174,-0.286051,-0.054174,0.102457,-0.024646,-2.239246,-0.205082,0
3941483508,0.076717,0.266249,0.124669,-0.263508,-0.554744,0.450563,0
3941516842,0.02615,0.344089,0.40847,-0.697757,-0.604492,0.80571,0
3941550176,0.629058,0.694608,0.647072,0.064029,1.278471,1.610045,0
3941583510,0.689025,0.423363,0.492605,-0.352198,0.704841,1.882694,0
3941616844,0.205797,0.268291,0.974433,0.412076,0.952812,1.906794,0
3941650178,0.07596,-0.138606,0.844153,0.277933,0.296369,1.437474,0
3941683512,0.042146,-0.068292,0.618817,0.209251,1.54174,1.715827,0
3941716846,0.317913,0.054019,0.753274,0.052549,1.256137,1.777241,0
3941750180,0.649304,0.186651,0.701094,0.124465,1.398157,1.854586,0
3941783514,0.727918,0.850154,1.228395,-0.144808,0.841635,1.677912,0
3941816848,0.232046,0.200993,0.703148,-0.210861,1.061904,1.916062,0
3941850182,-0.339838,-0.453057,-0.187588,-0.066273,1.575576,1.34504,0
3941883516,0.037251,0.142145,0.149714,-0.073469,1.597867,0.787212,0
3941916850,0.21404,0.03571,0.328556,-0.910622,2.463681,1.49145,0
3941950184,0.035026,-0.439245,-0.179545,-1.282186,2.722755,0.138794,0
3941983518,-0.206121,0.223833,0.239362,-2.78216,2.24117,0.490821,0
3942016852,0.358498,0.4182,0.116215,-2.509116,2.581567,-0.263344,0
3942050186,0.459053,0.479325,-0.041316,-1.99047,2.168924,-0.631209,0
3942083520,0.044892,0.679475,0.24444,-1.176887,0.922189,-0.287222,0
3942116854,-0.337466,0.4329,0.817096,0.056915,1.023499,-0.896029,0
3942150188,-0.155066,0.066687,0.488959,0.925663,0.073873,-0.882215,0
3942183522,-0.554831,0.092327,0.399766,1.403308,-1.874776,-1.994311,0
3942216856,-0.444286,0.784885,0.499918,2.012514,-2.797554,-0.756602,0
3942250190,-0.152594,0.427246,0.176341,1.981405,-3.314632,1.50512,0
3942283524,-0.23769,0.239692,-0.073275,2.139554,-2.760851,1.788217,0
3942316858,0.174974,-0.263362,0.896062,1.524315,-3.123675,1.832459,0
3942350192,0.748238,0.384642,1.688364,1.308462,-3.334456,1.102776,0
3942383526,0.564541,0.346593,1.791106,1.483195,-2.415855,-0.197565,0
3942416860,0.914388,0.046864,1.306233,2.268627,-0.927974,-0.731256,0
3942450194,0.389011,0.062315,0.912354,0.837275,-0.69214,-0.025701,0
3942483528,-0.158566,-0.196631,1.274194,-2.073858,1.335512,1.850968,0
3942516862,-0.045997,-0.112196,0.77626,-4.643544,2.893724,4.941752,0
3942550196,0.193769,0.146419,0.024272,-4.511392,3.384892,4.978107,0
3942583530,0.293999,0.094817,0.043757,-3.857403,3.928185,5.025291,0
3942616864,0.782208,0.425347,-0.369926,-1.962027,2.789511,2.542648,0
3942650198,0.676191,0.133618,-0.047624,-0.682545,2.298832,1.292544,0
3942683532,0.553146,0.349203,-0.245242,0.432513,1.28963,1.31618,0
3942716866,0.161719,-0.256231,-0.339498,0.877234,0.246393,0.824143,0
3942750200,0.197268,0.393104,-0.279863,1.167517,-0.993247,-0.592988,0
3942783534,-0.052883,0.140398,-0.263556,1.180619,-1.155987,-0.958709,0
3942816868,-0.002147,0.300843,0.500307,0.979084,-2.116901,-1.659286,0
3942850202,-0.284974,-0.138159,0.668214,1.039312,-2.793346,-2.366003,0
3942883536,0.105457,0.056822,0.338074,1.581535,-2.831293,-0.812188,0
3942916870,0.069318,0.133221,-0.676257,1.357406,-3.428137,-1.459232,0
3942950204,0.185835,-0.08347,-0.438625,1.613612,-3.787377,0.083714,0
3942983538,0.16355,0.412952,-0.215666,1.586929,-2.574745,0.557401,0
3943016872,-0.549976,-0.078486,-0.169893,1.52208,-1.341011,-0.298843,0
3943050206,-0.433705,0.050271,0.445417,0.325757,-0.454899,-1.175232,0
3943083540,-0.748949,0.363367,0.643394,-0.41656,2.37076,0.570776,0
3943116874,-0.753147,0.469407,0.840505,-1.999647,2.335322,-0.848614,0
3943150208,-0.451627,0.606578,0.52979,-2.4371,3.16854,0.158067,0
3943183542,-0.87813,-0.172073,0.695794,-3.006648,3.703941,1.76213,0
3943216876,-1.020697,-0.067036,0.86192,-2.810932,2.862346,2.013568,0
3943250210,-0.569384,0.49269,0.118981,-2.070685,2.380766,1.084782,0
3943283544,0.536637,0.444961,-0.272701,-1.973306,0.853472,0.547048,0
3943316878,0.288755,0.4356,-0.433154,-1.206093,0.787783,0.706275,0
3943350212,-0.099475,-0.293415,0.161024,-0.662525,0.639849,0.571713,0
3943383546,0.086195,0.02595,0.510821,-0.184929,0.405654,-0.373216,0
3943416880,0.47595,0.542201,-0.59012,0.301726,-0.282596,-1.26949,0
3943450214,0.570987,0.675261,-0.675945,0.889222,-0.444374,-0.632459,0
3943483548,0.557262,0.389272,-0.315105,1.388565,-0.659741,-0.396666,0
3943516882,0.512807,0.503769,-0.465976,1.534184,-0.875495,-0.930661,0
3943550216,0.741666,0.741712,-0.790974,1.806253,-0.976491,-1.189181,0
3943583550,1.087109,0.914663,-0.458436,2.450018,-1.15,-1.621827,0
3943616884,0.394492,0.77254,0.301149,2.333523,-1.70554,-2.052832,0
3943650218,0.056611,0.826115,0.192971,2.017737,-2.409164,-2.371432,0
3943683552,-0.603494,0.753048,0.040871,1.63283,-2.559898,-2.308103,0
3943716886,-0.941726,0.084696,0.107519,0.541495,-2.850772,-2.525622,0
3943750220,-0.655477,-0.285619,-0.030361,0.306645,-1.941336,-1.388205,0
3943783554,-0.881075,-0.368455,-0.316575,-0.495192,0.237247,0.554405,0
3943816888,-0.639858,-0.433787,-0.357943,-1.390569,1.728045,0.556113,0
3943850222,-0.346438,-0.261547,-0.318721,-2.166078,3.462933,1.86937,0
3943883556,-0.402478,0.22458,0.425297,-3.037976,4.136147,3.9824,0
3943916890,-0.229297,0.217762,-0.124599,-2.744104,4.075878,3.456499,0
3943950224,0.030521,0.228068,-0.627263,-2.01046,2.809297,1.899323,0
3943983558,0.181722,-0.166442,-0.402946,-1.120414,1.166849,1.371058,0
3944016892,0.261216,-1.045492,-0.936864,-0.367997,-0.127606,0.384146,0
3944050226,-0.062703,-1.016731,-0.50377,0.425615,-0.297408,-1.021366,0
3944083560,0.230181,-0.404342,-0.558567,1.134615,-0.593676,-0.807359,0
3944116894,0.844705,0.216465,-0.483722,0.936858,-1.54035,-1.181646,0
3944150228,0.93898,0.555052,-0.001432,1.049677,-2.06855,-0.450466,0
3944183562,0.397891,0.237612,-0.079127,1.669255,-2.085308,0.07433,0
3944216896,0.616882,-1.119417,0.132118,1.364959,-2.385976,-0.503337,0
3944250230,1.17304,-1.218186,0.258193,1.560153,-2.501843,-0.286614,0
3944283564,0.844769,-1.1082,0.950375,1.078377,-2.820804,-0.983129,0
3944316898,0.923026,-0.814355,0.672696,0.423443,-2.364189,-1.582135,0
3944350232,0.344498,-0.220733,0.522991,0.81214,-0.43078,-1.7079,0
3944383566,-0.826105,-0.036364,0.137706,0.677039,1.036841,-0.520719,0
3944416900,-1.09094,0.225136,0.021735,-0.200248,1.710603,0.115168,0
3944450234,-1.179665,0.434828,-0.155856,-0.629342,2.317728,-0.368605,0
3944483568,-0.913959,0.363094,-0.315056,-0.414133,2.629294,-0.728569,0
3944516902,-0.37862,0.434977,-0.393347,-0.16145,2.111296,-0.946677,0
3761979918,-0.378926,-1.079816,0.125059,-1.428209,0.201372,0.812881,1
3762013252,0.136728,-1.277188,0.43714,-1.028153,0.653923,0.267985,1
3762046586,-0.07647,-1.163901,0.426211,-0.537459,0.190313,0.263086,1
3762079920,-0.195933,-0.924116,0.01874,-0.236878,-0.406347,0.116501,1
3762113254,-0.140892,-0.832707,-0.627466,0.293547,-0.629489,-0.385822,1
3762146588,0.067681,-0.701997,-0.988734,0.978437,-0.826491,-0.501005,1
3762179922,0.162037,-0.224118,-1.348277,1.553118,-1.039079,-0.444465,1
3762213256,0.375953,-0.16177,-1.319612,1.869999,-1.208799,-0.436147,1
3762246590,0.513984,-0.157679,-0.585721,2.011591,-1.588586,-0.354282,1
3762279924,1.110263,-0.792978,-0.414278,1.966285,-2.204381,-0.427331,1
3762313258,1.676101,-1.238698,0.187181,1.814222,-2.798068,-0.586124,1
3762346592,0.731328,-3.127829,1.516602,2.032795,-3.149363,-0.166444,1
3762379926,1.639595,-4.213002,0.192855,2.296658,-4.25932,0.588955,1
3762413260,-4.172714,2.107598,3.832891,3.107069,-3.911067,1.549756,1
3762446594,-3.278762,-1.593243,0.568344,3.565511,-2.324301,1.121867,1
3762479928,0.786724,-0.819599,-1.814626,3.699772,-0.972891,1.118079,1
3762513262,-0.624892,-0.079896,-0.069496,3.571491,0.818911,1.624714,1
3762546596,-1.63659,-1.269656,0.818621,3.666544,1.010558,2.417151,1
3762579930,-0.099257,0.509195,-0.295961,3.382889,2.128667,2.554347,1
3762613264,-0.767749,-0.155755,-0.179663,2.979828,2.578094,3.387029,1
3762646598,-0.595529,-0.601255,-0.399517,3.0074,2.594423,2.885713,1
3762679932,-0.190835,0.031729,0.268916,3.030545,2.449467,2.561353,1
3762713266,-0.442264,-0.078018,0.22747,3.255596,1.672935,4.132023,1
3762746600,-0.620928,0.447314,0.047662,1.86831,1.972576,5.121992,1
3762779934,-0.81054,0.824021,0.123878,-0.184143,3.12464,3.785385,1
3762813268,-0.817942,0.874609,0.112157,-0.993613,3.746165,3.550113,1
3762846602,-0.711983,1.311419,0.08341,-2.103539,4.477874,1.479271,1
3762879936,-0.638606,1.176508,0.010547,-1.613522,4.11061,-0.90169,1
3762913270,-1.295856,0.122969,0.172869,-2.222399,2.665475,-1.006418,1
3762946604,-0.85545,-0.558535,-0.029848,-2.638422,1.605104,-1.61183,1
3762979938,-0.722694,0.217196,-0.436896,-1.220077,0.626272,-2.538563,1
3763013272,-0.279184,0.210561,-0.030766,-0.915494,0.10565,-2.600482,1
3763046606,-0.271364,0.400085,0.572688,-0.032895,-0.397047,-2.678369,1
3763079940,-0.223221,0.632134,0.511975,0.175877,0.241368,-4.100127,1
3763113274,-0.394938,2.123123,-0.06266,-1.476871,0.87135,-4.006259,1
3763146608,-0.856835,2.658209,-0.046422,-0.386366,-0.539964,-5.16872,1
3763179942,-1.39757,1.489441,0.268066,-1.397345,-1.136289,-4.69385,1
3763213276,-0.665449,0.654764,0.598779,-1.683125,-1.731345,-4.483014,1
3763246610,0.13531,0.361127,1.756956,-1.424991,-2.027565,-3.24211,1
3763279944,0.068813,-0.498971,1.777481,-2.46375,-2.710181,-2.224745,1
3763313278,0.409566,-1.717333,1.0811,1.317947,-1.415139,-0.401957,1
3763346612,0.670322,-2.872505,1.44479,-0.513576,-0.534789,1.491696,1
3763379946,1.084831,-2.799529,0.084968,-1.341576,-0.772525,1.61473,1
3763413280,1.464559,-1.80157,-0.882982,1.283749,-1.392979,0.398843,1
3763446614,1.645213,-0.876422,-1.199192,0.680575,-1.835327,-0.123626,1
3763479948,1.364304,0.131764,-1.214266,0.454109,-0.446653,-1.14191,1
3763513282,0.818646,0.052777,-0.495544,-0.945643,-1.021681,-1.792188,1
3763546616,0.647959,1.040772,0.203869,-0.80783,-2.036665,-2.037914,1
3763579950,0.488103,0.826889,-0.157928,0.097335,-2.110297,-2.835904,1
3763613284,0.190888,-0.860138,-0.593846,0.671262,-0.832765,-3.491127,1
3763646618,0.174144,-0.931306,-0.464956,-0.714672,0.606694,-2.721393,1
3763679952,0.455277,-0.340442,-0.305748,-0.472053,-0.610801,-2.99595,1
3763713286,1.373547,0.26443,0.378864,-1.215068,0.208034,-3.92719,1
3763746620,1.44586,1.033358,0.765024,-3.940686,0.000256,-1.969432,1
3763779954,-0.125538,-0.356676,1.892241,-3.385367,0.12446,-1.15357,1
3763813288,0.237542,0.29433,0.166699,-1.002878,1.384702,-0.990664,1
3763846622,-0.13239,-0.080083,-0.231857,-0.836956,0.134241,0.648056,1
3763879956,0.029214,-0.195406,-0.181108,-0.71686,-0.341464,0.042202,1
3763913290,0.165089,-0.291857,0.333717,-2.665138,-1.395353,3.069331,1
3763946624,0.048719,-0.376838,0.349716,1.277498,1.679824,1.655885,1
3763979958,0.131312,-0.288813,-0.033693,2.471151,2.255654,4.724969,1
3764013292,0.327263,-0.371867,-0.10191,1.654196,2.452824,1.613854,1
3764046626,0.0212,-0.52653,-0.174854,0.324419,1.216176,2.437456,1
3764079960,-0.068025,-0.611764,0.094421,0.621868,0.647242,2.008735,1
3764113294,-0.083182,-0.368347,0.232574,0.504066,1.152124,0.47038,1
3764146628,0.042747,-0.036565,0.013879,0.280367,1.281592,0.514133,1
3764179962,-0.303418,0.049358,0.11735,1.027712,0.553009,2.918031,1
3764213296,-0.410244,0.102892,0.235672,0.868605,0.185686,3.275896,1
3764246630,-0.517157,0.14687,0.283966,1.61504,0.238427,3.685255,1
3764279964,-0.64494,0.176395,0.286897,0.232732,0.606124,2.081715,1
3764313298,-0.707858,-0.040904,0.155813,-1.826805,-0.641532,1.011464,1
3764346632,-0.454474,-0.236775,0.164369,-2.757392,-2.359243,0.574608,1
3764379966,-0.136252,-0.169181,0.056526,-0.070635,-1.157476,0.019061,1
3764413300,-0.147568,0.039351,0.095682,0.925389,-0.3621,0.108766,1
3764446634,0.019607,0.094652,0.172306,2.703161,-0.187064,0.421873,1
3764479968,0.03189,0.127737,0.199317,2.337554,-0.147814,0.261167,1
3764513302,-0.006039,0.062593,0.142948,1.441102,0.137369,-0.075914,1
3764546636,0.047754,-0.084529,0.1203,0.769131,0.37172,-0.206373,1
3764579970,0.039345,-0.187639,0.135481,0.228931,0.445582,-0.150592,1
3764613304,-0.021282,-0.130242,0.040463,-0.010177,0.457243,0.081116,1
3764646638,-0.081396,-0.126669,0.116322,0.004913,0.38339,0.224587,1
3764679972,-0.147531,0.007834,0.111382,-0.056415,0.403339,0.239171,1
3764713306,-0.229899,-0.135432,0.12519,-0.095523,0.341827,0.199204,1
3764746640,-0.197824,-0.093015,0.087593,-0.221294,0.282876,0.105498,1
3764779974,-0.147476,-0.071015,0.131401,-0.241282,0.198597,-0.05275,1
3764813308,-0.138262,-0.069203,0.091207,-0.194607,0.104277,-0.092126,1
3764846642,-0.051028,-0.035421,0.092486,-0.059514,0.075799,-0.004594,1
3764879976,-0.007571,0.082373,0.178546,-0.009524,0.119255,0.076752,1
3764913310,-0.04181,-0.008441,0.164062,0.023767,0.111787,0.185481,1
3764946644,0.050456,-0.092735,0.123034,-0.04676,0.176825,0.237646,1
3764979978,0.145891,0.058062,0.131422,0.003456,0.228504,0.220367,1
3765013312,0.15926,0.063309,0.149059,0.090851,0.214291,0.144322,1
3765046646,0.22523,0.044089,0.121368,0.305629,0.283863,0.088504,1
3765079980,0.115617,0.097849,0.151106,0.347455,0.372047,0.130682,1
3765113314,0.048104,0.045696,0.15364,0.207257,0.359588,0.185067,1
3765146648,0.087888,0.02478,0.148342,0.077092,0.360149,0.174402,1
3765179982,0.077866,0.095765,0.108471,-0.015906,0.318245,0.135992,1
3765213316,-0.004814,0.121841,0.117553,-0.118796,0.284231,0.08549,1
3765246650,-0.037235,0.056923,0.160578,-0.189906,0.168107,0.100192,1
3765279984,-0.085833,0.016333,0.140245,-0.163894,-0.072199,0.050966,1
3765313318,-0.072625,0.016378,0.174955,-0.258079,-0.049585,0.199928,1
3765346652,-0.042466,0.029241,0.117868,-0.311355,-0.029151,0.156224,1
3765379986,-0.063113,0.022329,0.103073,-0.349033,0.066525,-0.032515,1
3765413320,-0.051035,-0.028848,0.116869,-0.249708,0.17239,-0.068735,1
3765446654,0.010466,-0.058613,0.11973,-0.092295,0.266771,-0.05197,1
3765479988,0.046384,0.008589,0.100556,-0.011074,0.367559,-0.042439,1
3765513322,0.019983,-0.018604,0.110527,0.058869,0.428686,-0.062813,1
3765546656,0.046382,0.019611,0.176441,0.226052,0.342353,0.015584,1
3765579990,0.079279,0.013211,0.15157,0.234145,0.407625,0.169783,1
3765613324,-0.012878,0.009923,0.132047,0.195559,0.343831,0.163074,1
3765646658,0.04277,0.014004,0.170361,0.210905,0.361914,0.114432,1
3765679992,0.189411,0.087224,0.113153,0.281881,0.298906,0.133184,1
3765713326,0.125568,-0.015648,0.116004,0.277803,0.34802,0.116309,1
3765746660,0.008108,-0.083956,0.170771,0.211544,0.396492,0.054932,1
3765779994,0.012957,-0.06121,0.174877,0.206179,0.403192,0.068604,1
3765813328,-0.039553,0.022413,0.148914,0.169344,0.472475,0.110098,1
3765846662,0.001916,0.054655,0.12378,0.134125,0.471181,0.114887,1
3765879996,0.027251,0.011576,0.121978,-0.015894,0.519389,0.150208,1
3765913330,0.062394,0.160951,0.1828,-0.275223,0.220944,0.057238,1
3765946664,0.006994,0.006575,0.10636,-0.415732,0.367714,0.062228,1
3765979998,-0.032016,-0.047594,0.169554,-0.151194,0.1608,0.016269,1
3766013332,-0.078709,0.013561,0.15618,-0.045496,0.089524,0.045075,1
3766046666,0.003838,-0.00034,0.132104,-0.012036,0.085814,0.094836,1
3766080000,-0.023586,0.019253,0.088436,-0.073719,0.137682,0.110228,1
3766113334,-0.047224,-0.028628,0.13209,-0.172197,0.067052,0.151873,1
3766146668,-0.02068,-0.035887,0.107357,-0.246871,0.120431,0.140914,1
3766180002,-0.049509,0.05128,0.123852,-0.161873,0.183959,0.21977,1
3766213336,-0.041116,0.055588,0.131379,0.027896,0.081448,0.186787,1
3766246670,-0.011029,0.011804,0.147147,0.359907,0.237999,0.159348,1
3766280004,-0.013264,0.018094,0.142888,0.138343,0.160789,0.084719,1
3766313338,0.040251,0.070713,0.169916,0.086039,0.172191,0.036077,1
3766346672,0.063237,0.095153,0.147049,0.280888,0.212158,0.168344,1
3766380006,0.01935,0.071382,0.166725,0.334627,0.268642,0.108631,1
3766413340,0.021037,0.036696,0.171209,0.363949,0.266044,0.116714,1
3766446674,0.039269,0.002664,0.129667,0.429851,0.306629,0.081894,1
3766480008,0.028826,-0.014782,0.109912,0.43584,0.262149,0.08952,1
3766513342,0.066889,-0.002471,0.153184,0.342734,0.316375,0.096996,1
3766546676,0.011173,0.031161,0.124327,0.275027,0.296534,0.06513,1
3766580010,0.060759,0.016989,0.151556,0.193988,0.304509,0.132624,1
3766613344,0.021435,0.015439,0.1436,0.178639,0.235213,0.07721,1
3766646678,0.025144,0.032781,0.114858,0.088802,0.25801,0.056008,1
3766680012,-0.026198,0.01075,0.115026,0.045107,0.212027,0.060125,1
3766713346,-0.007452,-0.017501,0.173756,-0.008157,0.214054,0.093827,1
3766746680,-0.053798,-0.008602,0.145466,-0.049791,0.209493,0.093853,1
3766780014,-0.051159,-0.007791,0.177242,-0.088631,0.163772,0.075339,1
3766813348,-0.029371,0.059587,0.138115,-0.104914,0.188,0.092937,1
3766846682,0.021725,0.050621,0.038851,-0.137775,0.162029,0.080942,1
3766880016,0.039352,-0.023575,0.071227,-0.133453,0.18231,0.070256,1
3766913350,0.007675,-0.013585,0.100745,-0.112484,0.183124,0.087285,1
3766946684,0.007301,0.02832,0.142893,-0.03507,0.170247,0.085831,1
3766980018,-0.020313,0.075822,0.174072,0.030031,0.190232,0.077362,1
3767013352,-0.083394,0.108175,0.18253,0.061359,0.196626,0.091576,1
3767046686,0.000296,0.080173,0.136692,0.095922,0.192114,0.126915,1
3767080020,-0.074445,0.076753,0.157659,0.108042,0.185606,0.123898,1
3767113354,0.004681,0.021385,0.154818,0.117997,0.189567,0.166508,1
3767146688,-0.022541,0.02728,0.155354,0.128557,0.170138,0.108894,1
3767180022,0.025085,-0.02103,0.123081,0.09124,0.231398,0.185377,1
3767213356,0.007359,0.06322,0.138527,0.182938,0.146796,0.086884,1
3767246690,-0.03148,0.058152,0.123229,0.147908,0.183767,0.060875,1
3767280024,-0.036137,0.069155,0.143136,0.146803,0.163952,0.084645,1
3767313358,-0.055191,0.049513,0.15779,0.105164,0.142259,0.121537,1
3767346692,-0.03644,-0.001707,0.117701,0.081321,0.190758,0.128148,1
3767380026,-0.026212,0.001,0.144787,0.08587,0.13333,0.064017,1
3767413360,0.057492,0.007817,0.099684,0.093304,0.172526,0.086216,1
3767446694,-0.004256,-0.000893,0.143948,0.088628,0.146899,0.073269,1
3767480028,-0.006953,0.041875,0.136327,0.083729,0.158926,0.043674,1
3767513362,-0.059772,0.01463,0.13585,0.114851,0.180379,0.08338,1
3767546696,-0.033193,0.016516,0.147352,0.102946,0.1785,0.090843,1
3767580030,-0.011254,0.043885,0.123341,0.127236,0.220584,0.090777,1
3767613364,0.022317,0.018215,0.149991,0.116112,0.209225,0.083914,1
3767646698,-0.051419,0.018556,0.14393,0.114501,0.209646,0.104914,1
3767680032,-0.00053,0.01292,0.128172,0.066625,0.228561,0.111038,1
3767713366,0.023947,0.01031,0.128475,0.02088,0.297719,0.070711,1
3767746700,0.020937,-0.021441,0.117203,0.097264,0.27029,0.039885,1
3767780034,0.024406,-0.02769,0.110304,0.06888,0.284583,0.015615,1
3767813368,0.037271,0.010078,0.152716,0.043958,0.245327,0.098005,1
3767846702,0.06535,0.059491,0.140898,0.049486,0.226962,0.061584,1
3767880036,0.018187,0.005297,0.135488,0.026369,0.193871,0.085595,1
3767913370,0.015438,0.032181,0.143814,-0.00066,0.160162,0.122331,1
3767946704,-0.02705,0.024902,0.176066,-0.004955,0.187502,0.176576,1
3767980038,0.005668,0.03572,0.139162,-0.050971,0.171621,0.163734,1
3768013372,0.029793,0.023985,0.133343,-0.035031,0.161856,0.103414,1
3768046706,-0.00698,-0.006347,0.160387,-0.03563,0.188664,0.119815,1
3768080040,0.049421,0.022867,0.118322,0.017857,0.159118,0.071944,1
3768113374,0.0454,0.046664,0.147967,0.01391,0.201186,0.061997,1
3768146708,0.025375,0.042174,0.141343,0.049806,0.224238,0.106179,1
3768180042,0.069522,0.020892,0.100645,0.049706,0.205764,0.10502,1
3768213376,-0.008604,0.013132,0.145293,0.067982,0.204399,0.12909,1
3768246710,0.004412,0.032214,0.152228,0.067957,0.159081,0.127187,1
3768280044,0.024591,0.036613,0.131616,0.041234,0.155547,0.124204,1
3768313378,0.019228,0.039646,0.149927,0.024244,0.129785,0.118677,1
3768346712,0.034003,0.016295,0.121116,0.032855,0.165245,0.108482,1
3768380046,0.007552,-0.012889,0.149598,0.034181,0.144398,0.087976,1
3768413380,0.025082,-0.018035,0.109786,-0.001039,0.213949,0.163852,1
3768446714,0.086874,-0.007611,0.104421,0.043497,0.153423,0.132131,1
3768480048,0.064572,-0.018105,0.105989,0.04132,0.190135,0.052402,1
3768513382,0.027577,0.000106,0.130248,0.046806,0.161266,0.083332,1
3768546716,0.031063,0.02596,0.133821,0.135833,0.189728,0.154016,1
3768580050,0.029235,0.009415,0.136909,0.16994,0.147485,0.159354,1
3768613384,-0.058589,0.052243,0.218192,-0.034546,0.164993,0.078531,1
3768646718,-0.092092,0.059874,0.169581,-0.079074,0.203149,0.097345,1
3768680052,-0.001749,0.051757,0.173766,0.034293,0.232181,0.150503,1
3768713386,0.005418,0.046851,0.117829,0.031878,0.244438,0.123488,1
3768746720,0.049521,0.009526,0.146063,0.017769,0.247676,0.14137,1
3768780054,0.014599,0.018351,0.147066,0.046841,0.184631,0.117023,1
3768813388,0.04054,0.039162,0.166871,0.036318,0.169951,0.066487,1
3768846722,0.015724,0.060405,0.198686,0.027171,0.149434,0.042039,1
3768880056,-0.063705,0.135497,0.227102,0.056131,0.100632,0.042816,1
3768913390,-0.076775,0.055343,0.147846,0.100239,0.074458,0.035072,1
3768946724,0.042867,0.003267,0.063307,0.117922,0.09901,0.030463,1
3768980058,0.057684,-0.099728,0.027951,0.117046,0.073945,0.050039,1
3769013392,0.073033,-0.090804,0.10814,0.146873,0.122844,0.146297,1
3769046726,0.008309,-0.00992,0.100996,0.204321,0.089936,0.192999,1
3769080060,-0.075551,0.08535,0.110684,0.221839,0.07732,0.116092,1
3769113394,-0.109129,0.105113,0.17659,0.195487,0.038114,0.07437,1
3769146728,-0.089362,0.075996,0.179096,0.200081,0.006487,0.087044,1
3769180062,-0.026767,0.082331,0.117323,0.14926,0.047229,0.12695,1
3769213396,0.002641,0.006616,0.119798,0.11921,0.043933,0.119782,1
3769246730,0.006623,-0.010718,0.136225,0.09552,0.088705,0.115561,1
3769280064,0.035056,-0.003722,0.116322,0.081474,0.062444,0.108009,1
3769313398,0.053514,0.047747,0.140722,0.054908,0.102776,0.090206,1
3769346732,-0.006933,0.05127,0.119701,0.049187,0.119158,0.079105,1
3769380066,-0.004594,-0.026111,0.130521,0.056339,0.1321,0.080706,1
3769413400,-0.034068,0.019727,0.113115,0.04326,0.132269,0.091864,1
3769446734,-0.048028,0.049593,0.131639,0.008798,0.138562,0.083461,1
3769480068,-0.008839,0.073251,0.144779,-0.001637,0.134426,0.085438,1
3769513402,-0.068143,0.037448,0.129519,-0.022472,0.132394,0.071321,1
3769546736,-0.036089,0.033688,0.160672,-0.017111,0.194257,0.118141,1
3769580070,-0.042478,0.046302,0.142419,0.044135,0.141364,0.069562,1
3769613404,0.022097,0.000908,0.134281,-0.030631,0.210495,0.130772,1
3769646738,0.030932,0.035833,0.150439,0.021512,0.122612,0.077353,1
3769680072,-0.002594,0.043075,0.144643,0.023569,0.157503,0.058998,1
3769713406,-0.017642,0.078718,0.144059,0.045208,0.125852,0.063304,1
3769746740,-0.042456,0.074732,0.167583,0.044475,0.164285,0.09341,1
3769780074,0.024302,0.016245,0.160307,0.024815,0.19527,0.137358,1
3769813408,0.029219,0.007882,0.109632,0.031334,0.160267,0.109403,1
3769846742,0.03678,-0.001387,0.12955,0.018533,0.145427,0.088843,1
3769880076,0.032581,0.026293,0.136124,0.005908,0.144423,0.093424,1
3769913410,0.043319,0.060061,0.13909,0.015299,0.123937,0.080558,1
3769946744,0.025199,0.055283,0.150371,0.038164,0.135804,0.108071,1
3769980078,0.013782,0.036111,0.157459,0.052785,0.137481,0.117136,1
3770013412,0.080688,-0.00466,0.126063,0.016732,0.117652,0.120964,1
3770046746,0.037681,-0.003928,0.139288,-0.00864,0.122968,0.113594,1
3770080080,0.006033,0.051898,0.146607,0.03415,0.110342,0.115024,1
3770113414,0.033619,0.026758,0.145434,0.009067,0.09833,0.115371,1
3770146748,0.035172,0.002712,0.140648,-0.033392,0.12945,0.13274,1
3770180082,0.016014,3.7e-05,0.132423,0.011138,0.109153,0.108749,1
3770213416,-0.009681,0.007729,0.147716,-0.007125,0.152806,0.193486,1
3770246750,-0.001473,0.049408,0.146353,0.045997,0.070088,0.129732,1
3770280084,-0.004042,0.083556,0.129883,0.028854,0.128282,0.113252,1
3770313418,-0.018112,0.0552,0.137182,0.083288,0.09535,0.151026,1
3770346752,-0.012635,0.041275,0.168612,0.048661,0.100874,0.152438,1
3770380086,0.006847,0.052246,0.144697,0.043449,0.092844,0.106642,1
3770413420,0.018179,0.024585,0.094299,0.072045,0.081697,0.049109,1
3770446754,0.045778,-0.022217,0.136092,0.048363,0.127414,0.181822,1
3770480088,0.036425,-0.006432,0.164719,0.023577,0.085249,0.139353,1
3770513422,0.067345,-0.018259,0.122757,0.020864,0.082067,0.077888,1
3770546756,0.000461,0.014243,0.141307,0.139801,0.032734,0.090837,1
3770580090,-0.009345,0.097739,0.169788,0.122163,0.00923,0.089434,1
3770613424,-0.013961,0.103781,0.149087,0.103347,-0.022337,0.047114,1
3770646758,-0.038982,0.091623,0.152781,0.14334,-0.035344,0.084437,1
3770680092,-0.001308,0.090685,0.140647,0.15066,-0.047023,0.13968,1
3770713426,-0.008178,0.081605,0.15394,0.120927,-0.034784,0.108021,1
3770746760,0.007541,0.052457,0.138863,0.077231,-0.013361,0.097778,1
3770780094,0.032607,-0.028664,0.092583,0.126839,-0.028807,0.043904,1
3770813428,0.003874,-0.023773,0.092766,0.034466,0.042623,0.05039,1
3770846762,-0.016525,0.034408,0.125209,-0.00169,0.07837,0.078856,1
3770880096,-0.0036,0.020591,0.137301,-0.001428,0.17106,0.076104,1
3770913430,0.024826,0.007103,0.128335,0.035394,0.145953,0.059488,1
3770946764,0.056496,0.016928,0.145039,-0.005529,0.164104,0.04045,1
3770980098,0.027901,0.033938,0.117339,-0.121817,0.190662,0.015886,1
3771013432,0.014366,0.011994,0.117974,-0.082291,0.15691,0.031527,1
3771046766,0.022806,0.011408,0.148366,-0.078788,0.19254,0.075998,1
3771080100,0.037075,0.016436,0.15127,-0.064699,0.13794,0.115954,1
3771113434,0.028168,-0.016978,0.11367,-0.059176,0.093306,0.109886,1
3771146768,0.009515,-0.034698,0.120298,-0.041426,0.054143,0.100862,1
3771180102,-0.015615,0.005365,0.139416,-0.011496,-0.001782,0.111179,1
3771213436,0.020847,-0.006078,0.148245,-0.016262,0.014538,0.119237,1
3771246770,0.045223,-0.036735,0.130333,0.04945,0.020206,0.16053,1
3771280104,0.024719,-0.015821,0.136089,0.10284,0.030619,0.153728,1
3771313438,0.003177,0.011141,0.13758,0.091655,0.040007,0.09477,1
3771346772,0.014676,0.025728,0.138433,0.086004,0.088701,0.081715,1
3771380106,0.017965,-0.013925,0.12367,0.124646,0.090407,0.054655,1
3771413440,0.006399,-0.026212,0.133678,0.091976,0.142035,0.08012,1
3771446774,0.014811,-0.05245,0.13132,0.118279,0.123743,0.107211,1
3771480108,0.014994,-0.013172,0.124606,0.150979,0.111799,0.080517,1
3771513442,-0.014031,0.060086,0.154541,0.1101,0.061372,0.076557,1
3771546776,0.002525,0.143669,0.286671,0.093545,0.007666,0.06172,1
3771580110,0.052777,0.256974,0.130856,0.051194,-0.005017,0.072351,1
3771613444,0.011303,0.232976,0.103544,0.042521,-0.048594,0.120082,1
3771646778,0.05385,0.190198,0.132486,-0.000527,-0.117979,0.139216,1
3771680112,0.042791,0.164137,0.04767,-0.091417,-0.274004,0.145682,1
3771713446,0.043264,0.21965,0.127238,-0.136029,-0.418278,0.117868,1
3771746780,0.044983,0.267702,0.138795,-0.178161,-0.514888,0.068254,1
3771780114,0.026011,0.277756,0.115356,-0.168648,-0.52354,0.119033,1
3771813448,0.03348,0.28598,0.120925,-0.166608,-0.450924,0.128063,1
3771846782,0.031014,0.126064,0.118292,-0.115902,-0.369268,0.123251,1
3771880116,0.002204,0.15837,0.134007,-0.07534,-0.302043,0.097234,1
3771913450,0.073076,0.247479,0.074457,0.001313,-0.205362,0.021128,1
3771946784,0.044819,0.431915,-0.010875,0.085808,-0.144461,-0.028678,1
3771980118,-0.149236,0.167384,0.064623,0.15736,-0.069929,-0.053878,1
3772013452,-0.288497,0.076768,0.193196,0.168042,0.022755,-0.064922,1
3772046786,-0.36127,-0.132451,0.216608,0.17737,0.171831,0.123439,1
3772080120,-0.086404,-0.195909,0.073845,0.241739,0.201486,0.186872,1
3772113454,-0.078541,-0.215466,0.109588,0.349255,0.277887,0.19723,1
3772146788,0.058036,-0.229449,0.121035,0.47522,0.272901,0.213525,1
3772180122,0.103351,-0.148492,0.170628,0.534408,0.289828,0.178128,1
3772213456,0.078768,-0.094501,0.103252,0.512029,0.292863,0.158634,1
3772246790,0.059429,-0.236259,0.137763,0.377533,0.342714,0.211432,1
3772280124,0.111459,-0.310594,0.160845,0.310296,0.405765,0.283209,1
3772313458,0.0944,-0.236989,0.163304,0.320824,0.494313,0.251247,1
3772346792,0.24189,-0.101802,0.113632,0.269246,0.523763,0.199873,1
3772380126,0.171244,-0.108022,0.132542,0.152107,0.562972,0.155549,1
3772413460,0.132827,-0.114014,0.153758,0.045402,0.550426,0.106915,1
3772446794,0.123186,-0.12292,0.14824,-0.085326,0.537997,0.150328,1
3772480128,0.179801,-0.0855,0.13376,-0.242669,0.489148,0.119249,1
3772513462,0.087184,-0.101935,0.131999,-0.354469,0.404144,0.098166,1
3772546796,0.124962,-0.033658,0.114259,-0.417733,0.301117,0.030737,1
3772580130,0.076816,-0.025802,0.125971,-0.368687,0.224968,0.012272,1
3772613464,-0.002221,-0.062233,0.151218,-0.343595,0.133447,0.008185,1
3772646798,0.021096,-0.047031,0.111132,-0.277855,0.06413,0.028939,1
3772680132,0.073002,-0.016741,0.122528,-0.225663,0.060531,0.087357,1
3772713466,0.06551,0.022573,0.121772,-0.065653,0.059306,0.203125,1
3772746800,0.089234,-0.006048,0.125371,0.063731,0.069427,0.150248,1
3772780134,0.130705,0.020075,0.092543,0.141564,0.06498,0.154514,1
3772813468,0.050478,0.10085,0.085409,0.245412,0.082754,0.152434,1
3772846802,-0.027222,0.076971,0.180964,0.246808,0.093557,0.131562,1
3772880136,-0.02782,0.059689,0.148143,0.264729,0.084147,0.124551,1
3772913470,0.023813,0.028121,0.082832,0.334061,0.065503,0.092201,1
3772946804,0.010358,0.029059,0.109693,0.323477,0.014082,0.112198,1
3772980138,0.007562,0.059045,0.131023,0.295224,-0.026409,0.056596,1
3773013472,-0.023263,0.09355,0.12733,0.254629,-0.034493,0.05969,1
3773046806,0.009134,0.052776,0.101077,0.224581,-0.058157,0.123981,1
3773080140,0.032157,0.012717,0.115075,0.106731,-0.073874,0.11613,1
3773113474,0.028722,0.049961,0.111183,0.022047,-0.080928,0.105547,1
3773146808,-0.025776,0.034906,0.124867,-0.004128,-0.068902,0.113104,1
3773180142,-0.045314,0.069461,0.136679,-0.076701,-0.028535,0.098083,1
3773213476,-0.004637,0.071212,0.116837,-0.118491,-0.000636,0.085529,1
3773246810,0.032227,0.03229,0.133451,-0.092907,0.040246,0.070659,1
3773280144,0.038785,0.055309,0.13502,-0.107327,0.04423,-0.001073,1
3773313478,0.061624,0.075557,0.13568,-0.203696,0.121717,0.043318,1
3773346812,0.10492,0.06084,0.163136,-0.087417,0.079597,0.15898,1
3773380146,0.188348,0.091775,0.199143,-0.204803,0.144958,0.020799,1
3773413480,0.1428,0.213717,0.117143,-0.247808,0.149143,-0.045701,1
3773446814,-0.085768,0.179984,0.232627,-0.081835,0.163558,0.06064,1
3773480148,0.06932,0.128,0.196418,-0.102559,0.178131,0.141033,1
3773513482,0.034771,0.031235,0.108964,-0.086654,0.03831,0.119138,1
3773546816,-0.19007,0.042474,0.074647,-0.054159,-0.066101,0.205705,1
3773580150,-0.084587,-0.125361,0.031564,-0.020217,-0.193526,0.214492,1
3773613484,-0.005701,-0.195453,0.11095,0.059747,-0.235414,0.296325,1
3773646818,0.094271,-0.170863,0.053958,0.123439,-0.170216,0.283048,1
3773680152,0.106153,-0.077315,0.127054,0.25804,-0.105244,0.231751,1
3773713486,0.063675,0.011653,0.126335,0.276897,0.118707,0.149048,1
3773746820,0.066863,0.014457,0.119907,0.27555,0.101867,0.141459,1
3773780154,0.033702,0.015584,0.150496,0.197909,0.161201,-0.049548,1
3773813488,0.019621,0.033531,0.120309,0.141579,0.151659,-0.101953,1
3773846822,-0.004526,-0.053875,0.134852,0.216288,0.21588,-0.098826,1
3773880156,-0.05686,0.002179,0.12028,0.14677,0.249235,0.002895,1
3773913490,-0.074618,-0.005587,0.098988,0.069138,0.439233,-0.013606,1
3773946824,-0.123488,-0.064467,0.148533,0.161745,0.519566,-0.000787,1
3773980158,-0.070269,-0.156478,0.074789,0.12155,0.417283,-0.056831,1
3774013492,-0.075425,-0.113593,0.07943,0.088233,0.303358,-0.016765,1
3774046826,-0.04126,0.008195,0.080281,0.076304,0.117912,0.052038,1
3774080160,-0.059162,0.117562,0.126525,-0.119626,0.0079,0.013241,1
3774113494,-0.052299,0.169359,0.089254,0.04332,-0.008633,0.053328,1
3774146828,-0.140637,0.078204,0.119857,0.323916,-0.26718,0.268133,1
3774180162,-0.262745,0.10202,0.1041,0.205953,-0.51739,0.29587,1
3774213496,-0.273029,0.146685,0.067307,0.075153,-0.648444,0.38156,1
3774246830,-0.197269,0.11514,0.197266,0.006643,-0.423472,0.449477,1
3774280164,-0.12338,0.001104,0.174029,0.24756,-0.06361,0.324283,1
3774313498,0.003241,-0.020139,0.231488,0.044213,-0.018757,0.204553,1
3774346832,0.180533,0.139341,0.173355,-0.056402,-0.025177,0.177584,1
3774380166,0.243662,0.160866,0.204382,-0.00238,0.123767,0.256529,1
3774413500,0.317318,0.138948,0.15669,-0.11382,0.14466,0.239408,1
3774446834,0.347158,0.014552,0.142848,-0.246291,0.131823,0.208665,1
3774480168,0.34848,0.002614,0.185328,-0.414243,0.088108,0.160869,1
3774513502,0.40415,0.074734,0.175703,-0.667141,0.070557,0.176996,1
3774546836,0.388605,0.07565,0.095065,-0.838332,0.081884,0.188302,1
3774580170,0.399023,-0.051583,0.185255,-0.903421,0.126874,0.104803,1
3774613504,0.419689,-0.029869,0.164642,-0.809135,0.068992,0.075077,1
3774646838,0.268173,0.066682,0.121218,-0.688381,0.03421,-0.100075,1
3774680172,0.24737,0.065533,0.193791,-0.644218,-0.040264,-0.236539,1
3774713506,0.156179,0.144115,0.172202,-0.655611,-0.165877,-0.189254,1
3774746840,0.043169,0.061538,0.139591,-0.614895,-0.222057,-0.081082,1
3774780174,-0.045903,0.010406,0.134912,-0.41047,-0.238132,0.048486,1
3774813508,-0.072315,-0.004919,0.140667,-0.255903,-0.170438,0.165257,1
3774846842,-0.112277,-0.029693,0.16618,-0.129535,-0.166811,0.202284,1
3774880176,-0.090183,-0.001732,0.156665,0.016166,-0.100611,0.218102,1
3774913510,-0.013715,-0.057408,0.11371,0.199706,-0.028916,0.270446,1
3774946844,0.015708,-0.077948,0.060389,0.327155,0.007056,0.204226,1
3774980178,-0.002122,-0.063065,0.121831,0.406663,0.033913,0.114096,1
3775013512,0.020998,-0.043455,0.136589,0.692882,0.088377,0.064876,1
3775046846,0.032401,-0.033571,0.113887,0.735862,0.214188,0.051029,1
3775080180,0.057263,-0.034651,0.103354,0.524817,0.296464,0.190555,1
3775113514,-0.008134,-0.018909,0.167843,0.78672,0.301342,0.188054,1
3775146848,-0.090238,-0.004768,0.183704,0.798218,0.250896,0.073645,1
3775180182,-0.123143,0.029034,0.133018,0.524063,0.135281,0.006112,1
3775213516,-0.096896,-0.036613,0.134336,0.342322,0.142788,0.097898,1
3775246850,-0.109249,-0.012717,0.104926,0.362748,0.170672,0.077289,1
3775280184,-0.07136,-0.057177,0.103092,0.266135,0.192863,0.055311,1
3775313518,-0.036209,-0.102647,0.127737,0.132733,0.167835,0.113431,1
3775346852,-0.003509,-0.054402,0.119446,-0.002699,0.140766,0.103329,1
3775380186,-0.017052,-0.020974,0.124803,-0.114247,0.081958,0.086921,1
3775413520,0.015221,-0.011091,0.1625,-0.203419,0.053933,0.049006,1
3775446854,0.049657,-0.047401,0.156229,-0.313777,0.041161,0.054543,1
3775480188,0.037016,-0.062978,0.122207,-0.382683,0.030888,0.09054,1
3775513522,0.045198,-0.008644,0.176498,-0.425077,0.038283,0.077755,1
3775546856,0.073542,-0.036559,0.155703,-0.452361,0.044564,0.031754,1
3775580190,0.009889,-0.137279,0.111474,-0.427621,0.047211,0.115617,1
3775613524,0.043092,-0.075204,0.18585,-0.464997,0.050145,0.169719,1
3775646858,0.098265,0.05335,0.205204,-0.355184,0.044186,0.173901,1
3775680192,0.121722,0.053328,0.091145,-0.26145,-0.004679,0.161956,1
3775713526,0.126954,-0.025557,0.126,-0.278693,-0.035417,0.175154,1
3775746860,0.089657,-0.061719,0.129593,-0.125171,-0.078617,0.107501,1
3775780194,0.037817,-0.056548,0.068779,-0.078016,-0.063695,0.02567,1
3775813528,-0.000889,-0.025501,0.083015,0.021705,-0.054855,0.000144,1
3775846862,-0.059253,0.025449,0.148901,0.099696,-0.044311,0.098488,1
3775880196,-0.108447,0.044252,0.142713,0.140922,-0.010829,0.05663,1
3775913530,-0.104411,0.048157,0.114173,0.175893,-0.010801,0.061491,1
3775946864,-0.077597,0.063427,0.155096,0.188003,0.00163,0.086711,1
3775980198,-0.065286,0.033699,0.152928,0.180001,0.02995,0.084462,1
3776013532,0.00092,0.014723,0.153506,0.160233,0.090072,0.139605,1
3776046866,0.0381,0.011362,0.115235,0.14901,0.087189,0.115959,1
3776080200,0.041124,-0.042396,0.125813,0.143184,0.129347,0.137536,1
3776113534,0.033252,-0.013096,0.139649,0.148338,0.081379,0.126693,1
3776146868,0.016569,-0.008318,0.117124,0.143161,0.003851,0.088403,1
3776180202,-0.013861,-0.029226,0.150483,0.084775,-0.040191,0.086802,1
3776213536,-0.015546,-0.000758,0.153179,0.041097,-0.103193,0.065331,1
3776246870,-0.010544,-0.01407,0.114394,0.030246,-0.066902,0.132699,1
3776280204,-0.022328,-0.047725,0.109358,-0.018683,-0.04448,0.150444,1
3776313538,-0.057694,-0.037497,0.146914,-0.043189,-0.008992,0.194222,1
3776346872,-0.019999,-0.012981,0.15595,-0.031879,-0.019864,0.152328,1
3776380206,-0.027811,-0.00561,0.134161,-0.086638,0.020894,0.045375,1
3776413540,-0.012468,0.01143,0.121495,-0.084636,0.028222,-0.058738,1
3776446874,-0.003467,-0.024598,0.155853,-0.029861,0.046677,0.041254,1
3776480208,-0.045138,-0.018397,0.159957,-0.013854,0.084107,0.077248,1
3776513542,8e-06,-0.01697,0.128551,-0.042625,0.114771,0.044148,1
3776546876,0.014271,-0.054431,0.098544,-0.041528,0.067939,0.114929,1
3776580210,0.016498,-0.061916,0.132936,-0.02733,0.073916,0.132714,1
3776613544,0.001717,-0.089262,0.139256,-0.00933,0.04374,0.153822,1
3776646878,0.000993,-0.037054,0.131856,0.035566,0.032523,0.179304,1
3776680212,0.004998,-0.009207,0.125521,0.068093,-0.031234,0.142947,1
3776713546,0.001489,0.002157,0.170038,0.077196,-0.054577,0.140047,1
3776746880,-0.011568,-0.001015,0.158051,0.050543,-0.059253,0.137958,1
3776780214,-0.022448,-0.02696,0.1434,0.043511,-0.009596,0.138276,1
3776813548,-0.024519,-0.017973,0.144126,0.027458,0.027141,0.178795,1
3776846882,0.007981,-0.040341,0.137959,0.042604,0.052794,0.148658,1
3776880216,0.045427,-0.028497,0.147141,0.041203,0.078672,0.12387,1
3776913550,0.046509,-0.023659,0.146696,0.045065,0.060465,0.111242,1
3776946884,0.001868,-0.012424,0.123666,0.022458,0.083079,0.103242,1
3776980218,0.001127,-0.004481,0.149031,0.028435,0.076856,0.092415,1
3777013552,0.073385,-0.026903,0.135537,0.004614,0.06002,0.111939,1
3777046886,0.059728,-0.011975,0.137941,0.017046,0.055468,0.104925,1
3777080220,0.032658,-0.020451,0.126911,-0.068872,0.0587,0.111701,1
3777113554,0.051352,-0.029883,0.174477,-0.085944,0.086227,0.17276,1
3777146888,0.02499,-0.04574,0.133016,-0.027754,0.101679,0.10712,1
3777180222,-0.021803,-0.054262,0.09794,-0.081796,0.059779,0.090342,1
3777213556,-0.021287,-0.050431,0.158201,-0.102349,0.04069,0.065133,1
3777246890,-0.018244,-0.029268,0.165432,-0.087469,0.033725,0.102349,1
3777280224,0.006486,-0.032166,0.142421,-0.101083,0.06246,0.119223,1
3777313558,0.04911,-0.034636,0.133009,-0.080083,0.036726,0.052139,1
3777346892,0.091937,-0.116139,0.122738,-0.045173,0.052492,0.08447,1
3777380226,0.028768,-0.096826,0.09487,-0.023075,0.031401,0.118096,1
3777413560,-0.017826,-0.029434,0.12047,0.012655,0.019479,0.072871,1
3777446894,-0.042369,0.015844,0.151218,0.065066,0.011915,0.074389,1
3777480228,-0.080272,0.032756,0.122439,0.058811,-0.012786,0.02628,1
3777513562,-0.075991,-0.022266,0.113291,0.080009,0.017477,0.088389,1
3777546896,-0.095926,-0.093843,0.11942,0.067976,0.017397,0.099977,1
3777580230,-0.089591,-0.094668,0.119538,0.045438,0.048392,0.069122,1
3777613564,-0.079378,-0.112262,0.104613,0.103718,0.074444,0.103544,1
3777646898,-0.1132,-0.067763,0.086117,0.111036,0.08478,0.082585,1
3777680232,-0.115752,-0.081425,0.202622,0.13859,0.130167,0.11715,1
3777713566,-0.087258,-0.109251,0.102147,0.192891,0.109909,0.063049,1
3777746900,-0.089241,-0.040243,0.0745,0.165712,0.125649,0.036721,1
3777780234,-0.063165,-0.106283,0.114299,0.213536,0.145073,0.141413,1
3777813568,-0.094934,-0.122061,0.060285,0.253244,0.170759,0.123187,1
3777846902,-0.108276,-0.125674,0.092828,0.223943,0.18983,0.0865,1
3777880236,-0.109463,-0.143675,0.176367,0.267761,0.159045,0.123237,1
3777913570,-0.126618,-0.012695,0.170861,0.244559,0.117785,0.079717,1
3777946904,-0.245704,0.156189,0.218188,0.189547,0.078591,0.071881,1
3777980238,-0.3303,0.01969,0.177387,0.147356,-0.096389,0.112906,1
3778013572,-0.079146,0.002518,0.498775,0.234065,-0.090502,0.207688,1
3778046906,0.029377,0.144324,0.223439,0.228989,-0.101863,0.351991,1
3778080240,0.185441,0.223073,0.131385,0.096572,-0.045536,0.260961,1
3778113574,0.200576,0.107952,-0.066265,-0.004286,-0.114429,0.173492,1
3778146908,-0.216113,-0.284768,-0.126488,0.138806,-0.059237,0.057703,1
3778180242,0.047956,-0.337541,0.228935,-0.025008,-0.104958,-0.054347,1
3778213576,0.029629,-0.074165,0.155874,0.081088,-0.045894,0.09849,1
3778246910,0.041621,0.162073,0.026111,-0.053542,-0.142453,0.067215,1
3778280244,0.044137,0.239827,0.040368,0.10057,-0.111384,-0.040688,1
3778313578,-0.008282,0.252511,0.057186,-0.079775,-0.287753,-0.073009,1
3778346912,-0.11872,0.09174,0.156417,-0.112849,-0.282028,0.067788,1
3778380246,-0.051748,0.088944,0.221589,-0.142089,-0.252443,0.175291,1
3778413580,-0.041948,-0.00573,0.128236,-0.128266,-0.177386,0.227428,1
3778446914,0.076021,-0.105235,0.186027,-0.141595,-0.050053,0.304156,1
3778480248,0.164372,-0.019754,0.166063,-0.088357,-0.045761,0.141831,1
3778513582,0.226172,-0.030417,0.092429,-0.129546,-0.055834,0.064025,1
3778546916,0.236215,-0.055005,0.060192,-0.095108,-0.034467,0.065766,1
3778580250,0.251649,-0.046149,0.154339,-0.093979,-0.020119,0.114821,1
3778613584,0.205069,-0.05249,0.162266,-0.171064,0.01885,0.124124,1
3778646918,0.152354,-0.098175,0.128274,-0.05722,0.036785,0.121207,1
3778680252,0.130992,-0.148176,0.148442,-0.107883,0.051687,0.068329,1
3778713586,0.097957,-0.05546,0.178629,-0.11816,0.051394,0.047218,1
3778746920,0.030244,-0.079011,0.1881,-0.114418,0.086499,0.10581,1
3778780254,-0.038515,-0.104973,0.103148,-0.131443,0.134393,0.120871,1
3778813588,-0.043521,-0.078819,0.142014,-0.030602,0.128704,0.081273,1
3778846922,-0.061767,-0.025062,0.128264,0.079275,0.16482,0.076875,1
3778880256,-0.102257,-0.021765,0.112234,0.109894,0.14018,0.056729,1
3778913590,-0.102092,-0.059292,0.166394,0.149511,0.127615,0.100812,1
3778946924,-0.153967,-0.068194,0.208221,0.229879,0.121069,0.16027,1
3778980258,-0.109197,-0.062944,0.214684,0.193855,0.079427,0.210329,1
3779013592,-0.087104,-0.026616,0.167478,0.133118,0.057808,0.165137,1
3779046926,-0.033954,-0.037011,0.161159,0.150384,0.044001,0.153149,1
3779080260,0.059362,-0.027485,0.17899,0.120216,0.028256,0.11945,1
3779113594,0.126653,-0.079639,0.178314,0.004392,0.012036,0.19932,1
3779146928,0.117317,-0.17899,0.092867,0.028517,-0.033716,0.147519,1
3779180262,0.100395,-0.13087,0.059186,-0.04095,-0.063421,0.103299,1
3779213596,0.046847,-0.009027,0.068901,-0.112386,-0.126249,0.060987,1
3779246930,0.047249,0.062528,0.114231,-0.10114,-0.13777,0.022099,1
3779280264,-0.025268,0.028001,0.150983,-0.096945,-0.107653,0.064785,1
3779313598,-0.025339,-0.050205,0.176859,-0.101874,-0.097209,0.167377,1
3779346932,-0.036168,-0.084719,0.154602,-0.084235,-0.055583,0.169357,1
3779380266,0.005715,-0.05409,0.141797,-0.028505,-0.055651,0.167326,1
3779413600,0.029494,-0.010502,0.106144,-0.00595,-0.002872,0.132938,1
3779446934,0.032179,0.024494,0.09901,0.061546,0.048946,0.091712,1
3779480268,0.02465,0.031183,0.17821,0.046744,0.060059,0.070897,1
3779513602,0.056886,-0.030361,0.188776,0.027219,0.011208,0.108709,1
3779546936,0.10673,-0.034938,0.136969,0.009204,-0.019596,0.146574,1
3779580270,0.099222,-0.067659,0.077457,0.02741,-0.03912,0.115063,1
3779613604,0.050586,-0.123394,0.076215,0.100035,-0.065593,0.146358,1
3779646938,0.082202,-0.076298,0.127647,0.102403,-0.048127,0.103302,1
3779680272,0.007114,0.005393,0.158432,0.113315,-0.097654,0.089186,1
3779713606,0.003663,0.036852,0.169728,0.031603,-0.107969,0.072281,1
3779746940,0.048071,-0.07071,0.123055,0.08859,-0.084095,0.074039,1
3779780274,0.037096,-0.139975,0.149514,0.066668,-0.093235,0.126521,1
3779813608,0.037458,-0.07509,0.142474,0.087594,-0.06688,0.106757,1
3779846942,0.032669,-0.008164,0.100081,0.051145,-0.040923,0.094391,1
3779880276,-0.036861,0.030077,0.130724,0.051545,-0.058601,0.076251,1
3779913610,-0.017474,-0.001565,0.155786,0.014124,-0.038917,0.068569,1
3779946944,-0.019194,-0.022844,0.145504,0.010779,0.001983,0.097317,1
3779980278,0.021687,-0.040722,0.111617,-0.044383,-0.007186,0.009894,1
3780013612,0.0472,-0.027285,0.132808,-0.067615,0.039037,0.076135,1
3780046946,0.048338,-0.039502,0.13125,-0.041168,0.023521,0.082047,1
3780080280,-0.008067,-0.046919,0.177523,-0.090342,0.002973,0.05931,1
3780113614,-0.003499,-0.035932,0.132789,-0.089362,-0.002917,0.057335,1
3780146948,0.036889,-0.05054,0.077127,-0.036672,0.028557,0.127071,1
3780180282,0.041793,-0.026248,0.109309,-0.006299,0.040272,0.256907,1
3780213616,0.018707,-0.034564,0.159863,0.118926,0.001944,0.151347,1
3780246950,-0.003107,-0.022625,0.255832,0.024518,-0.058841,0.124896,1
3780280284,-0.035119,0.00682,0.128593,-0.085319,-0.113015,0.054212,1
3780313618,0.013509,-0.05601,0.047566,0.068815,-0.055474,0.042107,1
3780346952,-0.028605,-0.130864,0.084972,0.062815,0.035621,0.057587,1
3780380286,0.062509,-0.116398,0.169541,0.06621,0.071196,0.138422,1
3780413620,0.0604,-0.091484,0.162532,0.070103,0.114566,0.119668,1
3780446954,0.057952,-0.029652,0.141454,0.085003,0.047082,0.112597,1
3780480288,0.016466,-0.004013,0.148859,0.104425,0.03112,0.023829,1
3780513622,-0.052499,-0.051598,0.09501,0.058305,-0.00848,0.052492,1
3780546956,-0.059768,-0.04576,0.139723,0.10399,0.001752,0.113567,1
3780580290,-0.043076,-0.04767,0.156096,0.100447,0.004105,0.153254,1
3780613624,-0.062694,-0.050433,0.151998,0.119328,0.014199,0.143849,1
3780646958,-0.067205,-0.043138,0.120664,0.109243,-0.024222,0.095274,1
3780680292,-0.01041,-0.052519,0.125003,0.075429,-0.053146,0.050494,1
3780713626,-0.00614,-0.04973,0.131954,0.065483,-0.048481,0.070183,1
3780746960,-0.021047,-0.017256,0.130492,0.031191,-0.030526,0.07554,1
3780780294,-0.050457,-0.025661,0.142827,0.071487,0.023037,0.124565,1
3780813628,-0.062352,-0.013471,0.144893,0.054617,0.019916,0.091986,1
3780846962,-0.017063,-0.01058,0.126748,0.047741,0.005219,0.094733,1
3780880296,-0.030112,-0.046826,0.104292,0.026252,-0.012472,0.099225,1
3780913630,-0.03968,-0.0338,0.125935,0.058488,-0.028936,0.115026,1
3780946964,-0.023383,-0.005671,0.154024,0.037364,-0.017997,0.145391,1
3780980298,-0.021543,-0.0474,0.113008,-0.019394,-0.050462,0.176923,1
3781013632,0.005429,-0.051371,0.099088,-0.004898,-0.060811,0.182498,1
3781046966,0.011133,-0.025571,0.140216,-0.075488,-0.054429,0.184561,1
3781080300,-0.002645,0.0241,0.166425,-0.072511,-0.07775,0.118305,1
3781113634,0.058928,0.049869,0.20054,-0.120653,-0.046154,0.196117,1
3781146968,0.070022,0.059147,0.184141,-0.041871,-0.074563,0.11742,1
3781180302,0.054495,0.006665,0.095623,-0.045799,-0.005094,0.061347,1
3781213636,0.006024,-0.065271,0.084816,-0.001563,-0.024695,0.067664,1
3781246970,-0.038001,-0.050731,0.149495,0.00581,0.042793,0.107306,1
3781280304,-0.016265,-0.038775,0.157266,0.041139,0.094112,0.108404,1
3781313638,-0.018111,-0.06176,0.123711,0.090681,0.077925,0.054525,1
3781346972,0.039444,-0.037706,0.11914,0.069264,0.109542,0.06682,1
3781380306,0.026946,-0.017761,0.148355,0.06374,0.083891,0.045868,1
3781413640,0.028056,-0.029036,0.142015,0.089175,0.096421,0.034226,1
3781446974,0.04215,-0.045796,0.139873,0.07346,0.095868,0.040331,1
3781480308,0.006376,-0.051065,0.127036,0.062542,0.058193,0.075674,1
3781513642,-0.017823,-0.047878,0.124417,0.048016,0.067717,0.068597,1
3781546976,-0.037149,-0.03038,0.130535,0.039785,0.020055,0.110476,1
3781580310,-0.050803,-0.015016,0.14959,0.016207,-0.000471,0.108615,1
3781613644,-0.059695,-0.020159,0.116717,-0.003364,-0.012269,0.103655,1
3781646978,-0.037805,-0.038298,0.141398,-0.001707,-0.037583,0.115693,1
3781680312,-0.008675,-0.026862,0.125897,-0.058955,-0.038108,0.096828,1
3781713646,-0.006655,-0.053698,0.105145,0.001125,-0.063698,0.085154,1
3781746980,0.004012,-0.009507,0.131796,-0.005332,-0.042935,0.099975,1
3781780314,0.001943,-0.007531,0.136633,-0.008487,-0.029534,0.096279,1
3781813648,-0.013348,-0.021071,0.163213,-0.001418,0.033428,0.204729,1
3781846982,-0.045903,-0.035542,0.130373,0.08026,0.018565,0.1069,1
3781880316,-0.031994,-0.021429,0.111897,0.049262,0.020346,0.084191,1
3781913650,-0.03191,-0.005215,0.134874,0.077326,-0.009838,0.091335,1
3781946984,-0.011569,0.032669,0.148086,0.04734,0.028296,0.136298,1
3781980318,0.000957,-0.026641,0.185973,0.069655,0.021306,0.148819,1
3782013652,-0.002034,-0.022689,0.172647,0.091721,-0.013659,0.130714,1
3782046986,-0.013451,-0.009175,0.14179,0.048216,-0.021257,0.089166,1
3782080320,0.014741,-0.021857,0.126486,0.033275,-0.059173,0.080417,1
3782113654,-0.003261,0.024495,0.121618,-0.014867,-0.02044,0.071231,1
3782146988,-0.009071,-0.006627,0.143075,0.009043,0.022469,0.097195,1
3782180322,0.002823,-0.032841,0.150527,-0.056517,0.048394,0.148048,1
3782213656,-0.002845,-0.001356,0.159063,-0.045144,0.057885,0.12633,1
3782246990,0.023648,0.013135,0.155008,-0.040347,-0.001365,0.099844,1
3782280324,0.038608,0.032151,0.152831,-0.08214,-0.028956,0.087166,1
3782313658,0.049015,0.017924,0.135356,-0.084591,-0.011461,0.108125,1
3782346992,0.028944,0.00987,0.170087,-0.090322,0.009002,0.091103,1
3782380326,0.007996,0.007625,0.140539,-0.107276,0.012406,0.10033,1
3782413660,0.019157,0.027084,0.149289,-0.097311,0.027419,0.134913,1
3782446994,-0.003603,0.031488,0.133656,-0.104774,0.003695,0.126772,1
3782480328,-0.026564,0.00982,0.111931,-0.075494,-0.030549,0.089161,1
3782513662,-0.054948,-0.013313,0.102796,-0.080103,-0.041054,0.059957,1
3782546996,-0.024194,0.008009,0.205773,-0.016185,-0.024585,0.130828,1
3782580330,0.003979,0.024332,0.146847,0.017627,-0.048483,0.079682,1
3782613664,0.003975,0.067653,0.081707,-0.015561,-0.061382,0.073709,1
3782646998,-0.033728,0.04475,0.146121,0.04182,-0.124145,0.093492,1
3782680332,-0.023425,0.030849,0.133356,0.037629,-0.041939,0.118636,1
3782713666,-0.079516,0.007213,0.156096,-0.0092,-0.008386,0.108231,1
3782747000,-0.057228,-0.015477,0.144014,-0.019378,-0.0365,0.067373,1
3782780334,-0.054868,-0.024723,0.12786,-0.023425,0.021938,0.074394,1
3782813668,-0.05019,-0.016044,0.160733,-0.018654,0.041879,0.124185,1
3782847002,-0.067605,-0.031804,0.142425,-0.006799,-0.051317,0.105165,1
3782880336,-0.137478,-0.00843,0.1806,0.171071,-0.152681,0.182103,1
3782913670,-0.164775,-0.032255,0.169829,0.285393,-0.08905,0.211093,1
3782947004,-0.126376,-0.066445,0.090951,0.205648,0.030271,0.17942,1
3782980338,-0.108344,-0.023261,0.097516,0.010082,0.093186,0.114511,1
3783013672,-0.039416,0.062484,0.190023,-0.319799,0.129315,0.034672,1
3783047006,0.028852,0.064904,0.214269,-0.1046,0.228942,-0.004398,1
3783080340,0.057646,-0.02048,0.182508,-0.368096,0.360233,-0.185214,1
3783113674,0.181469,-0.285264,0.031457,-0.635724,0.348345,-0.201674,1
3783147008,0.12084,-0.304131,0.046675,-0.39377,-0.071303,0.086975,1
3783180342,0.036327,-0.198391,0.091279,0.091565,-0.429845,0.099112,1
3783213676,0.067986,-0.215679,0.047688,0.779022,-0.292383,0.196542,1
3783247010,0.028123,-0.006342,0.078345,0.726,-0.05848,0.203133,1
3783280344,-0.070123,0.150791,0.152822,0.436729,0.07242,0.028846,1
3783313678,-0.096518,0.197071,0.192204,0.222234,-0.03904,0.142186,1
3783347012,-0.155896,0.197302,0.223876,0.08723,-0.157049,0.149303,1
3783380346,-0.216372,0.09606,0.202457,-0.129613,-0.224026,0.162401,1
3783413680,-0.252847,0.00967,0.16768,-0.060127,-0.297428,0.173652,1
3783447014,-0.185785,-0.028905,0.111923,0.110883,-0.185794,0.103564,1
3783480348,-0.102842,-0.0388,0.110101,0.201931,-0.042157,0.055492,1
3783513682,-0.070408,-0.022501,0.079803,0.270898,-0.028362,0.022716,1
3783547016,-0.050627,0.032537,0.172762,0.334669,-0.185551,0.091371,1
3783580350,-0.057447,0.058707,0.148105,0.320817,-0.242309,0.139235,1
3783613684,-0.065248,0.029042,0.164155,0.280994,-0.227614,0.163431,1
3783647018,-0.077411,0.033194,0.161703,0.153849,-0.115612,0.136429,1
3783680352,-0.049931,0.000492,0.132467,0.083164,-0.076537,0.126331,1
3783713686,-0.022805,-0.041088,0.18081,0.021354,-0.00606,0.07306,1
3783747020,0.046651,0.079517,0.212104,0.042718,-0.076431,0.18715,1
3783780354,-0.034092,-0.040725,0.022265,0.016261,-0.120709,0.097313,1
3783813688,-0.011125,-0.117387,0.155287,0.107047,-0.111488,0.086209,1
3783847022,-0.04205,-0.05178,0.152982,0.085751,-0.088981,0.145402,1
3783880356,0.0083,0.065182,0.121438,0.094113,-0.083373,0.131227,1
3783913690,0.052541,0.071557,0.213076,0.066793,0.013798,0.130518,1
3783947024,0.061955,0.038338,0.197939,-0.065788,-0.123595,0.132027,1
3783980358,0.040635,0.069043,0.080636,-0.346218,-0.273448,0.075068,1
3784013692,-0.045124,-0.021158,0.129725,-0.235666,-0.141238,0.094754,1
3784047026,-0.034404,-0.0497,0.112181,-0.133232,-0.21213,0.114202,1
3784080360,-0.00492,-0.021506,0.194537,0.042192,-0.164346,0.129932,1
3784113694,0.046032,0.015963,0.117494,0.003284,-0.048068,0.118024,1
3784147028,0.053054,0.060578,0.086686,0.104566,-0.037999,0.13465,1
3784180362,0.039959,0.035632,0.128894,0.219988,-0.021414,0.158365,1
3784213696,0.05287,0.022587,0.113155,0.209579,-0.051891,0.116681,1
3784247030,0.009785,0.027446,0.088019,0.209803,-0.00223,0.151211,1
3784280364,-0.042906,-0.024225,0.024227,0.256644,-0.07398,0.088434,1
3784313698,-0.111043,-0.059893,0.05428,0.302368,-0.13546,0.059728,1
3784347032,-0.28266,-0.141302,0.128242,0.21794,-0.220864,-0.073718,1
3784380366,-0.284543,0.033122,0.123029,0.234143,-0.174699,-0.179325,1
3784413700,-0.417872,0.218841,0.19015,0.38595,-0.21906,-0.119165,1
3784447034,-0.431872,0.323232,0.228164,0.543056,-0.23993,-0.13623,1
3784480368,-0.484519,0.325415,0.199528,0.633174,-0.192177,0.046625,1
3784513702,-0.41168,0.157578,0.130754,0.712361,-0.257898,0.13353,1
3784547036,-0.345444,-0.005592,0.099097,0.728902,-0.354117,0.060426,1
3784580370,-0.213206,-0.092245,0.07445,0.639063,-0.359296,0.038872,1
3784613704,-0.054541,-0.095771,0.056256,0.577393,-0.357376,0.195704,1
3784647038,-0.013553,-0.149271,0.036023,0.632318,-0.332708,0.30604,1
3784680372,0.12801,-0.120597,0.122665,0.578531,-0.232282,0.33402,1
3784713706,0.380337,-0.015938,0.200065,0.356813,0.006642,0.272499,1
3784747040,0.474562,0.222344,0.157147,0.152748,0.202519,0.221828,1
3784780374,0.358825,0.105352,0.120946,-0.061127,0.300401,0.204931,1
3784813708,0.327849,0.048372,0.147593,-0.369481,0.295578,0.173699,1
3784847042,0.15066,0.097467,0.308647,-0.399866,0.375393,0.140045,1
3784880376,0.112477,0.404718,0.20649,-0.545407,0.329304,0.089476,1
3784913710,-0.002418,0.484603,0.018632,-0.880695,0.272435,0.038152,1
3784947044,0.087131,0.183327,0.142861,-1.045393,0.220837,0.10377,1
3784980378,0.084653,0.097624,0.158214,-1.164926,0.07047,0.078547,1
3785013712,0.092091,0.065485,0.061501,-1.182945,-0.191411,0.003143,1
3785047046,0.21828,0.073131,0.100602,-0.996249,-0.407812,0.071675,1
3785080380,0.264671,0.014169,0.03937,-0.766023,-0.409245,0.07403,1
3785113714,0.288691,-0.172738,0.067986,-0.491599,-0.329975,0.092978,1
3785147048,0.421011,-0.348105,0.220095,-0.186443,-0.138434,0.099521,1
3785180382,0.3357,-0.07377,0.00317,0.167456,-0.004943,-0.044817,1
3785213716,0.05753,0.087532,-0.047165,0.348701,0.199578,-0.179853,1
3785247050,-0.044391,-0.131733,0.250169,0.335738,0.360936,0.091036,1
3785280384,-0.110434,0.354639,0.289861,0.431588,0.386287,-0.120631,1
3785313718,-0.207897,0.627852,0.188794,0.403586,0.407144,-0.23466,1
3785347052,-0.053328,0.598506,0.127108,0.489906,0.302343,-0.00746,1
3785380386,0.020738,0.420537,0.109807,0.408324,0.357778,0.030242,1
3785413720,0.227371,0.378105,0.028104,0.107048,0.362242,0.258782,1
3785447054,0.266491,0.166159,0.038913,0.177227,-0.179675,0.829728,1
3785480388,0.105716,-0.091043,0.183384,-0.077237,-0.608746,0.770758,1
3785513722,-0.024761,0.119181,0.132277,-0.118498,-0.654519,0.46757,1
3785547056,-0.266567,0.064714,0.018877,-0.337903,-0.582824,0.133993,1
3785580390,-0.307084,-0.09,0.212239,-0.377681,-0.416772,-0.110315,1
3785613724,-0.253356,-0.011229,0.173615,-0.244841,-0.220366,-0.180547,1
3785647058,-0.193887,0.031175,0.194167,-0.235763,-0.075434,-0.089612,1
3785680392,0.003697,0.214801,0.04166,0.177198,0.090344,-0.249304,1
3785713726,-0.088876,0.045114,0.070986,0.310965,0.238315,-0.081756,1
3785747060,0.025815,-0.204366,0.19092,0.166141,0.381791,0.133895,1
3785780394,0.06405,-0.062745,0.166627,0.198447,0.444735,0.28339,1
3785813728,0.108083,0.003095,0.050051,0.203858,0.438051,0.321942,1
3785847062,0.167839,-0.14844,0.133218,0.215025,0.406214,0.308809,1
3785880396,0.130971,-0.107631,0.127753,0.266384,0.438194,0.304258,1
3785913730,0.198066,-0.171429,0.115786,0.211416,0.374339,0.088057,1
3785947064,0.071669,-0.205023,0.107218,0.10136,0.300765,-0.020989,1
3785980398,0.005481,-0.172578,0.158567,0.010225,0.28833,-0.018186,1
3786013732,-0.112814,-0.087476,0.144936,0.001435,0.277479,-0.05667,1
3786047066,-0.227871,-0.115836,0.166536,-0.008446,0.270012,0.029422,1
3786080400,-0.162938,-0.07049,0.144826,-0.013504,0.212459,0.179338,1
3786113734,-0.16764,-0.156492,0.161783,-0.123266,0.161882,0.165887,1
3786147068,-0.069294,-0.176538,0.155746,0.019057,0.245459,0.122087,1
3786180402,0.018086,-0.072513,0.098357,0.122247,0.139106,0.127875,1
3786213736,0.044619,-0.157438,0.108429,0.05408,0.379804,-0.039734,1
3786247070,0.018899,-0.145198,0.126608,0.153193,0.561717,-0.126667,1
3786280404,0.029419,-0.136391,0.087744,0.17245,0.492077,0.00041,1
3786313738,-0.00997,-0.08573,0.12018,0.129328,0.444494,-0.080729,1
3786347072,0.019568,-0.024865,0.141788,0.059111,0.495743,-0.080459,1
3786380406,0.090264,-0.001675,0.078464,0.037856,0.340138,0.103176,1
3786413740,0.076795,0.018998,0.16046,-0.018144,0.29988,0.094052,1
3786447074,0.071811,0.0379,0.147266,0.381206,-0.033443,0.374281,1
3786480408,0.117926,0.053074,0.099366,0.240059,-0.201314,0.215544,1
3786513742,0.151253,0.061644,0.118714,0.488318,-0.434516,0.5248,1
3786547076,-0.120436,0.156282,0.146775,-0.098694,-0.412406,0.625017,1
3786580410,0.007411,0.286296,0.045703,0.365863,-0.824935,0.02427,1
3786613744,0.225004,0.119901,0.086668,0.021913,-1.088503,0.677968,1
3786647078,-0.029653,0.139294,0.124384,-1.302285,-0.512688,-0.42481,1
3786680412,0.097752,0.095263,0.137573,-0.002805,0.619376,-0.202814,1
3786713746,-0.121083,0.285133,0.143061,-0.876306,0.241975,-0.069095,1
3786747080,0.034654,0.224394,0.164828,0.029766,1.044558,0.148143,1
3786780414,0.128438,0.206666,0.105537,0.133351,0.691424,0.06576,1
3786813748,0.109703,0.223081,0.105862,-0.765293,0.143337,0.368816,1
3786847082,0.198236,-0.010873,0.104458,0.60301,0.220217,0.245393,1
3786880416,0.132525,0.099806,0.157972,-0.004849,-0.759909,0.277283,1
3786913750,0.108081,0.179432,0.048579,0.196003,-0.480609,0.127946,1
3786947084,0.135026,0.213345,0.078224,0.121373,-0.392049,-0.073007,1
3786980418,0.176151,0.250858,0.123006,-0.291567,-0.099017,-0.30845,1
3787013752,0.145247,0.17904,0.132946,-0.147973,-0.256077,-0.202449,1
3787047086,0.172169,0.149435,0.160809,0.322131,-0.194591,0.162714,1
3787080420,0.136335,0.160262,0.124586,0.221779,-0.173522,0.220139,1
3787113754,0.076099,0.090624,0.124406,0.097289,-0.103293,0.194071,1
3787147088,0.108155,0.111444,0.114934,-0.134289,-0.165709,0.172395,1
3787180422,0.109698,0.117656,0.088121,-0.246657,-0.180494,0.014634,1
3787213756,0.088666,0.09222,0.13102,-0.132407,-0.140912,0.131828,1
3787247090,0.117352,0.16385,0.129615,0.102534,-0.062598,0.146257,1
3787280424,0.13958,0.173816,0.090809,0.181384,-0.098993,0.112792,1
3787313758,0.159214,0.121081,0.145425,0.252259,-0.180951,0.183334,1
3787347092,0.152947,0.130205,0.13246,0.208792,-0.275264,0.17509,1
3787380426,0.140073,0.143921,0.090026,0.201807,-0.219596,0.192561,1
3787413760,0.025903,0.120734,0.139794,0.031606,-0.215771,0.117268,1
3787447094,-0.017649,0.129381,0.106445,0.140156,-0.114168,0.178417,1
3787480428,-0.053042,0.130331,0.106575,0.175995,-0.112153,0.117941,1
3787513762,-0.061728,0.119165,0.098725,0.197037,-0.115178,0.135167,1
3787547096,-0.033129,0.111362,0.140196,-0.081561,-0.251315,0.078197,1
3787580430,-0.046777,0.137374,0.13168,-0.205147,-0.23999,0.115794,1
3787613764,0.01736,0.175425,0.128331,-0.17781,-0.230825,0.052011,1
3787647098,0.039031,0.146702,0.130052,-0.101401,-0.199737,0.099285,1
3787680432,0.034113,0.098345,0.126676,-0.107494,-0.149392,0.071047,1
3787713766,0.084789,0.076136,0.129923,-0.106455,-0.116686,0.058945,1
3787747100,0.110028,0.070074,0.124719,-0.02492,-0.106602,0.087158,1
3787780434,0.079635,0.067974,0.117404,-0.012986,-0.010053,0.101446,1
3787813768,-0.001916,0.037116,0.132667,-0.006544,-0.011064,0.070274,1
3787847102,0.031611,0.023899,0.127589,0.070805,-0.029264,0.069456,1
3787880436,0.07293,0.045481,0.133804,0.212556,-0.045144,0.16599,1
3787913770,0.011693,0.073672,0.117204,0.247734,-0.104131,0.125464,1
3787947104,0.043189,0.075092,0.126514,0.198816,-0.087133,0.108679,1
3787980438,0.073721,0.069269,0.143914,0.139135,-0.087419,0.100472,1
3788013772,0.112811,0.057874,0.124249,0.067253,-0.061808,0.145378,1
3788047106,0.099039,0.045131,0.14389,-0.039251,-0.030658,0.092984,1
3788080440,0.073924,0.059286,0.139729,-0.059921,-0.081812,0.025753,1
3788113774,0.052566,0.069637,0.13563,-0.134634,0.043529,0.055915,1
3788147108,0.07842,0.066154,0.155716,-0.157908,-0.089525,0.048247,1
3788180442,0.038493,0.042444,0.152843,-0.097275,-0.049275,0.069077,1
3788213776,0.048976,0.067907,0.101276,0.062499,-0.041889,0.09425,1
3788247110,0.099717,0.064892,0.150687,0.049363,-0.07772,0.128565,1
3788280444,0.109415,0.036292,0.133741,0.029872,0.00403,0.105064,1
3788313778,0.079921,0.052349,0.131795,-0.036483,-0.033185,0.023534,1
3788347112,0.082765,0.05327,0.123496,-0.166861,0.025831,0.059478,1
3788380446,0.129416,0.020005,0.1392,-0.129039,0.001428,0.044234,1
3788413780,0.128178,0.060864,0.134601,-0.081375,0.035478,0.10829,1
3788447114,0.119735,0.053285,0.142415,-0.187304,0.060665,0.113912,1
3788480448,0.12002,0.048202,0.15476,-0.222869,0.057247,0.151557,1
3788513782,0.115551,0.048222,0.140792,-0.227585,0.013024,0.116862,1
3788547116,0.049756,0.057818,0.094448,-0.138176,0.038019,0.021223,1
3788580450,0.021726,0.028859,0.106599,-0.072294,-0.021339,0.07152,1
3788613784,-0.043874,0.019842,0.12522,0.001249,-0.02388,0.0783,1
3788647118,-0.081864,0.053685,0.14637,0.243781,-0.099259,0.186779,1
3788680452,-0.065827,0.079686,0.114088,0.263186,-0.085079,0.175109,1
3788713786,-0.116959,0.089107,0.105501,0.270443,-0.178678,0.164292,1
3788747120,-0.11356,0.063948,0.149848,0.234672,-0.15354,0.134232,1
3788780454,-0.065893,0.04377,0.106129,0.302021,-0.126695,0.120523,1
3788813788,-0.094917,0.050589,0.096161,0.21673,-0.119521,0.08329,1
3788847122,-0.081768,0.064005,0.125384,0.150168,-0.127233,0.116968,1
3788880456,-0.058727,0.065715,0.143209,0.150086,-0.121775,0.138529,1
3788913790,-0.073868,0.048477,0.111669,0.150522,-0.103133,0.121263,1
3788947124,-0.069524,0.055887,0.119637,0.131741,-0.110314,0.09563,1
3788980458,-0.069248,0.043667,0.113057,0.165943,-0.093026,0.085175,1
3789013792,-0.058179,0.036541,0.123766,0.206149,-0.137118,0.08813,1
3789047126,-0.046916,0.034714,0.116649,0.223819,-0.089414,0.089705,1
3789080460,-0.06726,0.045169,0.115998,0.203395,-0.145081,0.064065,1
3789113794,-0.05185,0.048307,0.110938,0.122927,-0.087999,0.097894,1
3789147128,-0.041468,0.058422,0.146875,0.083229,-0.057178,0.160113,1
3789180462,-0.020712,0.04201,0.108454,0.100613,-0.036461,0.090105,1
3789213796,0.008334,0.012906,0.115909,0.022902,-0.051298,0.086226,1
3789247130,0.01343,0.031891,0.13987,0.039335,0.003267,0.100144,1
3789280464,-0.006287,0.047603,0.142512,-0.003492,-0.007029,0.10264,1
3789313798,0.030202,0.041044,0.141654,-0.0362,-0.003798,0.104048,1
3789347132,0.033894,0.031894,0.122613,-0.020083,-0.000694,0.072297,1
3789380466,0.030252,0.04309,0.146111,-0.077149,-0.004629,0.107964,1
3789413800,0.057372,0.018154,0.127473,-0.049475,0.035839,0.104165,1
3789447134,0.053758,0.022131,0.123998,-0.072898,0.02058,0.085105,1
3789480468,0.059037,0.021453,0.116454,-0.041565,-0.012084,0.100583,1
3789513802,0.031618,0.01815,0.143191,-0.04969,-0.013813,0.130708,1
3789547136,0.020556,0.056683,0.123898,0.009649,0.011529,0.144857,1
3789580470,0.03183,0.059462,0.131732,-0.036762,-0.049759,0.110281,1
3789613804,-0.026233,0.062193,0.132517,-0.021343,-0.038038,0.098991,1
3789647138,0.014974,0.047315,0.10599,0.036604,-0.012435,0.102693,1
3789680472,-0.010142,0.062974,0.147941,0.00655,-0.026754,0.101975,1
3789713806,-0.009642,0.078543,0.148198,0.011186,-0.036811,0.130041,1
3789747140,0.056611,0.045952,0.106514,-0.003664,-0.060152,0.106613,1
3789780474,0.055782,0.033129,0.136742,0.017718,-0.003914,0.12084,1
3789813808,0.046973,0.030119,0.13673,0.027531,-0.018022,0.068721,1
3789847142,0.042439,0.049883,0.130623,-0.061733,0.015809,0.186006,1
3789880476,0.022189,0.033043,0.135752,0.018565,-0.009757,0.119093,1
3789913810,0.034444,0.032792,0.107996,0.03555,0.003614,0.143538,1
3789947144,0.023381,0.030167,0.144615,0.062101,-0.032071,0.159633,1
3789980478,-0.018639,0.041101,0.143426,0.060952,-0.014093,0.17882,1
3790013812,-0.015033,0.057997,0.140679,0.042929,-0.022533,0.198179,1
3790047146,-0.070016,0.006487,0.12431,0.028546,0.011434,0.158722,1
3790080480,-0.034491,-0.034063,0.148744,0.061478,0.017076,0.158862,1
3790113814,0.026944,-0.060205,0.145801,0.060294,0.05085,0.086213,1
3790147148,0.098952,-0.111929,0.121424,0.103954,0.045472,0.000832,1
3790180482,0.149531,-0.127568,0.113204,0.266944,0.047702,0.011065,1
3790213816,0.210021,-0.125062,0.049223,0.449978,-0.061113,0.007507,1
3790247150,0.075027,-0.08768,0.058746,0.441717,-0.146303,0.001617,1
3790280484,-0.114738,0.010967,0.116467,0.328735,-0.131865,0.059958,1
3790313818,-0.173856,0.169134,0.122561,0.233664,-0.093235,0.047802,1
3790347152,-0.238539,0.193086,0.12851,0.035124,-0.063825,-0.026222,1
3790380486,-0.216655,0.125852,0.155249,-0.368937,0.065153,0.10146,1
3790413820,-0.111667,0.11217,0.165031,-0.420949,0.088052,0.217748,1
3790447154,-0.028732,0.091202,0.157844,-0.35672,-0.029001,0.232217,1
3790480488,0.014008,0.04013,0.135433,-0.20027,-0.066918,0.185316,1
3790513822,0.106188,-0.016498,0.115327,0.019345,0.020628,0.089934,1
3790547156,0.161589,-0.016734,0.129022,0.043199,0.103985,0.142536,1
3790580490,0.150516,-0.013181,0.143487,0.006755,0.071963,0.063041,1
3790613824,0.120273,-0.003163,0.134667,-0.073497,0.016195,0.083513,1
3790647158,0.106107,-0.048094,0.138403,-0.09139,0.017949,0.060906,1
3790680492,0.079797,0.004597,0.131973,-0.108676,0.054017,0.059996,1
3790713826,0.078809,-0.002239,0.126558,-0.034312,0.071937,0.134096,1
3790747160,0.029083,0.021777,0.125457,0.094542,-0.060977,0.153459,1
3790780494,-0.01002,0.044119,0.115222,0.191353,-0.031721,0.206002,1
3790813828,-0.031016,0.056646,0.146473,0.185843,-0.063233,0.206354,1
3790847162,-0.079514,0.10452,0.152213,0.084718,-0.073293,0.113929,1
3790880496,-0.093334,0.122882,0.152424,0.010622,-0.070023,0.106191,1
3790913830,-0.065183,0.093062,0.142281,-0.00184,-0.030547,0.108119,1
3790947164,-0.075976,0.052817,0.136756,0.009079,-0.019609,0.10467,1
3790980498,-0.088343,0.02934,0.136642,-0.026102,-0.001081,0.08706,1
3791013832,-0.085495,0.007348,0.141517,-0.045048,0.020119,0.057963,1
3791047166,-0.064347,-0.014614,0.115251,-0.019133,0.020428,0.036718,1
3791080500,-0.016257,-0.02065,0.098017,0.068112,0.014436,0.02154,1
3791113834,-0.01012,-0.049294,0.105857,0.090846,0.017842,-0.026016,1
3791147168,0.011464,-0.039011,0.133728,0.025569,0.034715,-0.009265,1
3791180502,-0.00784,-0.054263,0.110961,0.009008,0.055193,-0.072978,1
3791213836,-0.017461,-0.088136,0.125162,-0.076912,0.149475,0.021162,1
3791247170,0.038956,-0.097447,0.138695,0.028525,0.152562,-0.09209,1
3791280504,-0.001459,-0.124958,0.079744,0.147777,0.084274,-0.124718,1
3791313838,-0.022788,-0.136262,0.092323,0.030254,0.129272,-0.065058,1
3791347172,0.07643,-0.046571,0.155462,-0.016501,0.196963,0.480609,1
3791380506,0.14011,-0.049614,0.205026,0.061258,-0.002341,0.663731,1
3791413840,0.177164,0.032341,0.210464,-0.050484,-0.013241,0.518345,1
3791447174,0.090027,0.127948,0.162708,0.095877,-0.085104,0.315408,1
3791480508,0.033643,0.084981,0.137865,0.279402,-0.109414,0.158262,1
3791513842,0.001433,-0.040325,0.12887,0.238809,0.001345,0.1076,1
3791547176,-0.264567,0.003585,0.088722,0.224481,0.039346,0.126195,1
3791580510,-0.414171,0.031264,0.072418,0.170243,0.089613,0.105798,1
3791613844,-0.3717,0.069019,0.146008,0.329873,-0.033108,0.084221,1
3791647178,-0.38782,0.101891,0.147552,0.338149,-0.199609,-0.038229,1
3791680512,-0.494783,0.099574,0.082049,0.329751,-0.20433,-0.052912,1
3791713846,-0.473229,0.110672,0.101897,0.380203,-0.093604,-0.056832,1
3791747180,-0.510981,0.083909,0.165866,0.307263,-0.007372,-0.099133,1
3791780514,-0.598792,0.116562,0.167467,0.129698,0.017824,-0.170601,1
3791813848,-0.716049,0.289879,0.109876,0.0854,0.137568,-0.198874,1
3791847182,-0.43289,0.176834,-0.10564,-0.019816,0.031243,-0.333867,1
3791880516,-0.225635,0.163616,-0.168843,-0.070924,-0.089628,-0.274454,1
3791913850,0.071163,-0.215021,0.259937,-0.245687,-0.192316,-0.161963,1
3791947184,0.256313,-0.414211,0.092222,-0.131555,-0.161026,0.039245,1
3791980518,0.513838,-0.553806,0.057618,0.077534,0.023855,0.397818,1
3792013852,0.674161,-0.727494,0.250098,0.288005,-0.034276,0.698499,1
3792047186,0.532634,-0.494907,0.367323,0.480276,0.091385,0.642105,1
3792080520,0.552803,-0.053801,0.279432,0.5105,-0.079806,0.475166,1
3792113854,0.477992,0.375056,0.145086,0.097448,-0.375261,0.181994,1
3792147188,0.294076,0.486771,0.106029,-0.274966,-0.46502,0.016211,1
3792180522,0.226247,0.459003,0.222512,-0.373118,-0.209796,-0.097903,1
3792213856,-0.023229,0.230952,0.124772,-0.243722,-0.159248,0.139005,1
3792247190,-0.057848,0.104973,0.233339,-0.237829,-0.008787,0.220597,1
3792280524,-0.014316,-0.016017,0.267906,-0.006406,0.016657,0.292152,1
3792313858,0.078912,-0.205692,0.31106,0.085817,-0.004301,0.277252,1
3792347192,0.168875,-0.242263,0.0982,0.134267,0.04745,0.112234,1
3792380526,0.28035,-0.057371,-0.030102,0.067777,0.217031,0.021383,1
3792413860,0.26226,0.100436,0.026459,-0.154426,0.284981,-0.052622,1
3792447194,0.159925,0.228952,0.165863,-0.364622,0.212574,0.057043,1
3792480528,-0.037908,0.231272,0.298573,-0.724393,-0.022958,0.160806,1
3792513862,-0.154893,0.03792,0.199849,-0.86363,-0.277377,0.229114,1
3792547196,-0.056778,0.017331,0.13284,-0.897078,-0.319543,0.114546,1
3792580530,-0.002474,-0.016768,0.102266,-0.505264,-0.04699,0.100616,1
3792613864,-0.050337,-0.004809,0.131821,-0.278633,0.185779,0.27218,1
3792647198,0.003189,0.118474,0.206477,-0.02283,0.126244,0.165953,1
3792680532,0.086253,0.104649,0.197346,0.139651,-0.050568,0.091019,1
3792713866,0.07823,0.05409,0.149576,0.203628,-0.236216,0.088115,1
3792747200,0.039453,0.007324,0.138502,0.225059,-0.238285,0.084084,1
3792780534,0.045564,0.042562,0.187922,0.289679,-0.156312,0.053123,1
3792813868,0.070464,0.089577,0.182384,0.17303,-0.057279,0.06177,1
3792847202,0.129996,0.017333,0.10621,0.032498,0.010385,0.001963,1
3792880536,0.114847,-0.046306,0.041999,-0.074594,0.042965,-0.005286,1
3792913870,0.013746,-0.097662,0.111827,-0.182701,0.061222,0.049765,1
3792947204,-0.018114,-0.036325,0.185461,-0.149174,0.077552,0.203569,1
3792980538,-0.043535,0.035246,0.21284,-0.094207,0.087099,0.363623,1
3793013872,-0.052958,-0.025749,0.179214,0.057184,-0.069238,0.111028,1
3793047206,0.005859,-0.058851,0.147338,0.11227,-0.066939,0.036775,1
3793080540,0.046649,-0.048199,0.111775,0.079434,-4.7e-05,0.010178,1
3793113874,0.030569,-0.045367,0.097646,0.022085,0.097609,0.044966,1
3793147208,0.020458,-0.07651,0.134381,-0.123631,0.093928,0.054011,1
3793180542,-0.005453,-0.086035,0.154357,-0.118363,0.017149,0.048265,1
3793213876,-0.022627,-0.031852,0.157216,-0.0772,0.016074,0.127766,1
3793247210,-0.026132,-0.013807,0.139208,-0.020928,0.020068,0.107932,1
3793280544,0.009016,-0.025117,0.147836,0.043262,0.015911,0.099111,1
3793313878,-0.021181,-0.036354,0.125504,0.059874,0.025184,0.081109,1
3793347212,-0.027291,-0.034562,0.169991,0.081834,-8.2e-05,0.084706,1
3793380546,0.026007,-0.044223,0.221248,0.05242,0.021009,0.172838,1
3793413880,0.053087,-0.074007,0.177488,0.008686,0.014045,0.173206,1
3793447214,0.072312,-0.044484,0.111722,-0.014647,0.005618,0.089252,1
3793480548,0.066384,-0.035526,0.10081,-0.067138,0.036222,0.004214,1
3793513882,0.028376,-0.025162,0.143909,-0.058033,0.02958,0.001729,1
3793547216,-0.020991,-0.029663,0.146865,-0.071062,0.0141,0.028289,1
3793580550,-0.055081,-0.037129,0.166801,-0.056692,0.01267,0.124841,1
3793613884,-0.039251,-0.046477,0.161432,-0.02035,0.05674,0.144281,1
3793647218,-0.001164,-0.040224,0.122487,-0.038465,0.078866,0.113749,1
3793680552,-7.3e-05,-0.063398,0.139028,-0.066204,0.036766,0.141207,1
3793713886,-0.000223,-0.039616,0.148883,-0.012404,0.017538,0.196095,1
3793747220,0.003125,-0.017665,0.175714,0.079813,-0.011668,0.143658,1
3793780554,-0.000703,0.003817,0.14419,0.127136,-0.007421,0.131218,1
3793813888,-0.00925,0.038348,0.141704,0.073545,-0.021707,0.064694,1
3793847222,-0.013397,0.014974,0.162424,-0.04345,0.016087,0.143285,1
3793880556,-0.018605,0.000409,0.154978,-0.022454,-0.008524,0.137609,1
3793913890,-0.018535,-0.00976,0.141559,0.014029,0.005283,0.153333,1
3793947224,-0.011589,-0.032681,0.175187,0.001796,-0.014626,0.12606,1
3793980558,0.009529,-0.036702,0.194214,-0.0553,0.003813,0.160152,1
3794013892,0.041476,-0.030387,0.177482,-0.075515,0.021124,0.150414,1
3794047226,0.062411,-0.064711,0.084674,-0.059684,-0.006952,0.033706,1
3794080560,0.068781,-0.029385,0.089235,0.023875,0.022953,0.048821,1
3794113894,0.001975,-0.018888,0.13465,0.02571,0.012361,0.032312,1
3794147228,-0.04282,0.014936,0.146091,0.109466,0.011134,0.047706,1
3794180562,-0.058738,0.026174,0.167727,0.099934,-0.021584,0.10318,1
3794213896,-0.072598,-0.012567,0.130054,0.05487,-0.047919,0.111731,1
3794247230,-0.01776,-0.035168,0.154983,0.042959,0.000725,0.119945,1
3794280564,0.014333,-0.059084,0.139863,-0.051513,0.027411,0.106952,1
3794313898,0.03877,-0.013975,0.127388,-0.090053,0.027397,0.08413,1
3794347232,0.022253,0.037201,0.150047,-0.125996,-0.020419,0.060021,1
3794380566,0.012639,0.041225,0.163154,-0.076996,-0.023332,0.090485,1
3794413900,-0.01472,0.060539,0.168912,0.048176,-0.033412,0.103239,1
3794447234,0.008821,0.040925,0.16115,-0.037053,0.004851,0.177803,1
3794480568,0.11078,0.079846,0.209692,-0.045475,-0.010853,0.207438,1
3794513902,0.155047,0.066901,0.156713,-0.062175,-0.06185,0.14718,1
3794547236,0.152066,0.069669,0.106113,-0.080736,-0.033466,0.111884,1
3794580570,0.061009,0.014455,0.170376,-0.010804,-0.007106,0.137174,1
3794613904,-0.008324,-0.018674,0.183815,-0.028961,0.041707,0.125441,1
3794647238,-0.120619,-0.012664,0.206613,-0.157191,0.023429,0.09421,1
3794680572,-0.06661,-0.02939,0.160694,-0.233591,-0.033865,0.078278,1
3794713906,-0.012294,0.060625,0.136584,-0.287053,0.004958,0.065038,1
3794747240,0.318087,0.039317,0.156386,-0.235266,-0.016141,0.074635,1
3794780574,0.433498,-0.151521,0.209538,-0.120754,0.030301,0.15236,1
3794813908,0.21989,-0.142835,0.134922,0.022347,0.11153,0.108295,1
3794847242,0.130659,-0.104387,0.153316,0.123582,0.107377,0.073722,1
3794880576,0.012675,-0.068742,0.157812,0.002256,0.026845,0.0986,1
3794913910,-0.128764,0.017526,0.129049,-0.081648,-0.01099,0.052677,1
3794947244,-0.142855,0.009987,0.155147,0.029891,-0.023087,0.108838,1
3794980578,-0.095145,0.024532,0.071296,0.106874,0.055899,0.079124,1
3795013912,-0.181141,0.070553,0.083112,0.093286,-0.00235,0.116362,1
3795047246,-0.174566,-0.125189,0.195531,-0.162944,-0.061881,0.051587,1
3795080580,-0.037762,-0.157923,0.210756,-0.154663,0.040686,0.225219,1
3795113914,0.040524,0.022652,0.172343,-0.020172,0.028675,0.149544,1
3795147248,0.164979,0.066181,0.21836,-0.078403,-0.012361,0.063195,1
3795180582,0.161488,0.124732,0.230019,-0.020474,-0.067942,0.067456,1
3795213916,0.18997,0.083716,0.164044,0.009565,-0.033786,0.160555,1
3795247250,0.091392,0.043693,0.121826,-0.109283,-0.033757,0.191874,1
3795280584,0.142852,-0.074825,0.167647,-0.229876,-0.105141,0.132813,1
3795313918,0.197839,0.065123,0.222508,-0.231545,-0.02494,0.283908,1
3795347252,0.182101,0.079962,0.056973,-0.278197,-0.028898,0.153849,1
3795380586,0.110278,-0.018186,0.138083,-0.409821,-0.037492,0.036554,1
3795413920,-0.003995,0.05966,0.2015,-0.358097,0.074387,0.055369,1
3795447254,-0.118328,0.127526,0.145843,-0.271172,0.053849,0.050819,1
3795480588,-0.253345,0.18494,0.16682,-0.269462,0.013833,0.004188,1
3795513922,-0.34865,0.207158,0.174946,-0.194768,-0.022552,0.002758,1
3795547256,-0.061275,0.18739,0.049269,-0.060313,-0.026828,0.019618,1
3795580590,0.074598,-0.099855,0.082064,-0.189338,-0.126274,0.06144,1
3795613924,0.252166,-0.212448,0.138056,0.015151,-0.294853,0.135122,1
3795647258,0.281333,-0.195118,0.127245,0.713769,-0.172832,0.342191,1
3795680592,0.163175,-0.078979,0.164694,0.46036,-0.193219,0.22506,1
3795713926,0.034736,0.106332,0.181117,0.321819,-0.211967,0.162138,1
3795747260,0.037103,0.114988,0.127443,0.173612,-0.219411,-0.024399,1
3795780594,0.162342,0.092288,0.226592,-0.040346,-0.139683,0.005366,1
3795813928,0.263167,-0.038925,0.173898,-0.138161,-0.099672,0.156983,1
3795847262,0.085624,-0.261205,0.118509,-0.15985,-0.115132,0.120084,1
3795880596,-0.100594,-0.331275,0.130171,-0.298382,-0.140346,0.153707,1
3795913930,-0.050898,-0.207739,0.058058,-0.281184,-0.179055,0.089666,1
3795947264,-0.009889,0.095531,0.079565,-0.115938,-0.176749,0.042843,1
3795980598,-0.070323,0.159535,0.006266,0.009815,-0.093447,0.036603,1
3796013932,-0.188489,-0.118853,0.198414,0.022021,-0.041006,0.097769,1
3796047266,-0.171691,0.046708,0.029214,0.157262,0.034775,0.088867,1
3796080600,-0.12105,-0.033599,0.142056,0.198677,0.072714,0.06721,1
3796113934,-0.065742,0.080219,0.118723,0.175424,0.137597,-0.006113,1
3796147268,-0.090595,0.127194,0.057961,0.443426,0.286988,0.014319,1
3796180602,-0.096996,0.018031,0.016847,0.451319,0.249122,0.072732,1
3796213936,-0.028295,-0.22872,0.011804,0.089751,0.042096,0.048064,1
3796247270,-0.096238,-0.214656,0.136338,0.119497,-0.045575,0.1401,1
3796280604,-0.170148,-0.092945,0.089094,0.147559,-0.165377,0.086473,1
3796313938,-0.252638,0.206507,0.118814,0.138783,-0.146961,0.023179,1
3796347272,-0.466674,0.4279,0.334385,0.174231,-0.066105,0.083484,1
3796380606,-0.399437,0.435298,0.22443,0.047051,-0.028546,0.074413,1
3796413940,-0.300123,0.122753,0.243288,0.448956,0.163158,0.120964,1
3796447274,-0.095873,-0.163563,0.069868,0.418488,0.208017,0.044309,1
3796480608,0.065698,-0.285138,0.017765,0.34509,0.191998,0.037601,1
3796513942,0.158666,-0.160922,0.059111,0.318312,0.132586,0.053953,1
3796547276,0.100365,-0.018783,0.082564,0.293384,0.038962,0.129122,1
3796580610,0.008336,-0.01482,0.126816,0.282022,-0.03124,0.17891,1
3796613944,-0.033813,-0.142091,0.178102,0.2327,-0.001334,0.213392,1
3796647278,-0.014288,-0.155052,0.19777,0.175417,0.077431,0.23489,1
3796680612,-0.010983,0.026109,0.10289,0.142453,0.193062,0.194614,1
3796713946,0.081524,0.021474,0.155256,0.039812,0.291628,0.125604,1
3796747280,0.113325,-0.050696,0.122861,-0.003205,0.298386,0.036851,1
3796780614,0.166345,-0.049226,0.111064,-0.07041,0.319439,0.084827,1
3796813948,0.053737,-0.024877,0.182747,-0.119219,0.277526,0.088626,1
3796847282,0.084803,0.071269,0.102526,-0.119222,0.217829,0.085179,1
3796880616,0.012549,0.062767,0.115251,-0.150419,0.132115,0.068555,1
3796913950,-0.053192,0.024676,0.161173,-0.146755,0.06717,0.096682,1
3796947284,-0.053708,0.07507,0.154661,-0.115385,0.015113,0.122391,1
3796980618,-0.016328,0.087661,0.117418,-0.092543,0.002127,0.139051,1
3797013952,-0.009988,0.087029,0.127831,-0.01932,-0.013126,0.114789,1
3797047286,-0.014848,0.062194,0.138211,0.072035,-0.006078,0.101706,1
3797080620,-0.020153,0.045873,0.12028,0.121977,0.002435,0.07986,1
3797113954,-0.004513,0.069887,0.119097,0.121935,0.055133,0.09143,1
3797147288,-0.009963,0.053893,0.125823,0.191584,0.074745,0.117238,1
3797180622,-0.010544,0.047482,0.132936,0.184857,0.066522,0.096157,1
3797213956,-0.017372,0.0564,0.113074,0.136206,0.049833,0.113686,1
3797247290,-0.023774,0.056617,0.117995,0.108127,0.016364,0.076941,1
3797280624,-0.043008,0.035863,0.140026,0.084719,0.024904,0.093107,1
3797313958,-0.014051,0.098091,0.110224,0.047172,-0.048859,0.049959,1
3797347292,0.00418,0.132351,0.081953,0.025839,-0.010216,0.129841,1
3797380626,0.111177,0.070263,0.11759,0.042978,-0.080195,0.133101,1
3797413960,-0.055913,0.165005,0.123989,0.03415,-0.0495,0.074636,1
3797447294,-0.065902,0.125587,0.067495,0.074957,-0.049916,0.122107,1
3797480628,-0.035707,0.134081,0.096588,0.099749,-0.0305,0.118145,1
3797513962,-0.069902,0.072573,0.142514,0.115697,-0.005054,0.104719,1
3797547296,-0.094437,0.090014,0.10409,0.141534,-0.051292,0.070065,1
3797580630,-0.008647,0.107219,0.103275,0.130181,-0.047195,0.091115,1
3797613964,-0.03197,0.063576,0.100676,0.142567,-0.066622,0.133649,1
3797647298,-0.016427,0.072106,0.100001,0.12093,-0.080711,0.123502,1
3797680632,0.003077,0.080742,0.087154,0.088651,-0.070121,0.11305,1
3797713966,-0.019844,0.104461,0.099087,0.113903,-0.079371,0.110861,1
3797747300,-0.05932,0.099228,0.136818,0.12188,-0.072418,0.082305,1
3797780634,-0.092191,0.154584,0.140574,0.082257,-0.050749,0.096938,1
3797813968,-0.065859,0.134516,0.118847,0.056081,-0.053266,0.087038,1
3797847302,-0.073274,0.147877,0.12535,0.084329,-0.00702,0.0924,1
3797880636,-0.050686,0.104083,0.108343,0.022687,-0.047267,0.060241,1
3797913970,-0.022876,0.087217,0.131274,0.00573,-0.00946,0.124141,1
3797947304,0.005211,0.076255,0.131086,0.032173,-0.081154,0.117505,1
3797980638,0.013736,0.090956,0.097175,0.004489,-0.034941,0.071034,1
3798013972,0.022717,0.100066,0.11188,-0.005427,-0.056742,0.106209,1
3798047306,-0.012429,0.097913,0.157633,0.016748,-0.024691,0.093409,1
3798080640,0.010744,0.095604,0.129348,-0.016604,0.010584,0.105566,1
3798113974,0.065301,0.093327,0.09384,-0.00216,0.008159,0.107191,1
3798147308,0.049247,0.060059,0.134863,-0.007705,0.042184,0.116876,1
3798180642,0.026963,0.065656,0.130611,-0.027065,-0.005551,0.135055,1
3798213976,0.060832,0.109323,0.087694,-0.042653,0.002952,0.113281,1
3798247310,-0.002429,0.093305,0.116417,-0.04872,-0.035634,0.092024,1
3798280644,0.001308,0.068304,0.120566,-0.038367,-0.025807,0.103556,1
3798313978,-0.006697,0.090656,0.127692,-0.03875,-0.026557,0.120825,1
3798347312,-0.013647,0.091314,0.116376,0.030288,-0.008222,0.149992,1
3798380646,-0.028908,0.080963,0.145926,0.031461,-0.032792,0.099615,1
3798413980,-0.054933,0.135216,0.128938,0.046891,-0.034495,0.069767,1
3798447314,-0.287058,0.251054,0.197899,-0.075802,-0.146676,-0.279241,1
3798480648,-0.685326,0.198476,0.476086,-0.304792,0.17612,0.050542,1
3798513982,-0.393054,-0.094321,0.17818,-0.243954,0.305258,-0.204897,1
3798547316,0.517822,-0.565286,0.139734,0.093363,0.601814,-0.526877,1
3798580650,1.17085,-0.67206,0.095304,0.067403,0.697241,-0.411615,1
3798613984,0.914277,-0.519149,-0.043025,-0.080895,0.871668,0.061897,1
3798647318,1.027824,-0.077849,-0.431953,1.155812,-0.062232,-0.253142,1
3798680652,0.793862,-0.072179,-0.434258,0.572418,0.063129,0.379082,1
3798713986,0.415394,-0.324103,0.119904,-0.711218,-0.332465,0.454782,1
3798747320,-0.564295,0.457655,0.227325,-0.897529,-0.306771,0.268248,1
3798780654,-1.43375,0.922555,0.717458,-0.398978,-0.570826,0.332224,1
3798813988,-0.991766,0.912821,0.478656,0.736862,-0.689262,0.364094,1
3798847322,-0.135115,0.011778,-0.166706,0.791145,-0.612334,0.410603,1
3798880656,0.296229,-0.766697,-0.015636,0.354327,-0.384784,0.258607,1
3798913990,-0.156284,-0.229481,0.211922,0.467309,-0.419905,0.094614,1
3798947324,-0.923927,0.517136,0.266561,0.76073,-0.419049,0.016207,1
3798980658,-0.501637,0.914184,0.103644,0.814674,-0.232061,0.238109,1
3799013992,-0.032183,0.315989,0.080652,0.462857,-0.089533,0.453639,1
3799047326,0.039721,-0.277129,0.130748,0.125631,-0.198796,0.402215,1
3799080660,-0.358952,-0.141148,0.301379,-0.057954,-0.199637,0.182275,1
3799113994,-0.762553,0.212604,0.244778,-0.06591,-0.172011,-0.145917,1
3799147328,-0.076804,0.381641,0.012749,0.011326,0.239512,-0.055487,1
3799180662,0.486814,-0.188393,-0.058231,0.219559,0.120558,0.290701,1
3799213996,0.497489,-0.520027,0.109999,0.277054,0.068184,0.301235,1
3799247330,0.133026,-0.04188,0.101475,0.160806,-0.222955,-0.333189,1
3799280664,-0.508925,0.216137,0.159976,-0.062519,-0.129829,-0.193741,1
3799313998,-0.454066,0.148345,0.144419,0.007116,0.244847,0.414941,1
3799347332,-0.1399,-0.099298,0.192098,0.055054,0.36046,0.368788,1
3799380666,0.24555,-0.161195,0.13611,0.06992,0.325188,0.308919,1
3799414000,0.454843,-0.121649,0.053535,0.280614,0.094478,0.215038,1
3799447334,0.419013,-0.120064,0.05549,-0.343921,-0.033004,0.065064,1
3799480668,0.007444,0.088337,0.132699,-0.36926,-0.726961,0.254184,1
3799514002,-0.296819,0.336427,0.267489,-0.525181,-0.692551,0.091403,1
3799547336,-0.634414,0.36042,0.377737,-0.916453,0.246917,-0.016578,1
3799580670,-0.668974,0.096574,0.083083,0.372178,0.493584,0.186061,1
3799614004,-0.103069,0.02469,0.102861,0.415139,-0.353382,0.492503,1
3799647338,0.171677,-0.09602,0.291056,0.703126,0.223943,0.600883,1
3799680672,0.116406,-0.131735,0.063437,0.536728,-0.084961,0.255734,1
3799714006,0.122587,-0.25739,-0.048638,0.076727,-0.502044,0.378379,1
3799747340,0.233846,0.033806,-0.001494,-0.103704,0.298935,-0.072428,1
3799780674,0.090516,0.192479,0.23623,0.139048,0.510827,-0.016593,1
3799814008,0.163845,-0.053461,0.155697,0.169468,0.484375,-0.077618,1
3799847342,0.163713,-0.142414,0.001757,0.199377,0.030237,-0.031381,1
3799880676,0.203094,-0.122473,0.004427,-0.036892,0.12082,-0.286452,1
3799914010,-0.022809,-0.047101,0.173897,-0.071044,0.20583,-0.24952,1
3799947344,-0.056769,0.094187,0.158294,0.003376,0.078857,0.043458,1
3799980678,-0.112552,0.204573,0.090792,-0.316634,0.039392,-0.122624,1
3800014012,-0.132893,-0.035654,0.176136,-0.162948,0.101293,-0.052095,1
3800047346,-0.245703,-0.246509,0.195836,-0.203376,-0.073784,0.068123,1
3800080680,-0.241938,-0.125082,0.213557,0.051545,-0.105313,0.059432,1
3800114014,-0.212396,-0.154113,0.165522,-0.002473,-0.158259,-0.01282,1
3800147348,-0.253914,-0.016843,0.10695,0.148852,-0.1415,0.040204,1
3800180682,-0.158357,0.136829,-0.06252,0.117255,-0.194411,0.040909,1
3800214016,-0.149338,0.154091,0.098382,-0.140669,-0.199182,-0.061511,1
3800247350,-0.085865,0.132691,0.204543,-0.192275,-0.134187,0.118244,1
3800280684,0.03329,0.066632,0.129748,0.085778,-0.205905,0.152655,1
3800314018,0.118249,-0.386539,0.166021,0.247497,-0.292248,0.196027,1
3800347352,0.038706,-0.595984,0.040035,0.240419,-0.220592,0.085229,1
3800380686,0.167218,-0.601282,0.134023,0.550654,-0.099824,0.188208,1
3800414020,0.190855,-0.224503,0.167925,0.585549,-0.131052,0.271194,1
3800447354,0.21615,0.228825,0.254157,0.442825,-0.330207,0.30988,1
3800480688,0.307265,0.534445,0.255623,-0.050542,-0.40103,0.204581,1
3800514022,0.325587,0.436855,0.208673,-0.563189,-0.414792,0.066181,1
3800547356,0.285736,0.256948,0.155142,-0.469222,-0.209925,0.164981,1
3800580690,0.148679,0.070148,0.062142,-0.429336,-0.014377,0.12284,1
