SampleTimeFine,D_Leg_Acc_X,D_Leg_Acc_Y,D_Leg_Acc_Z,D_Wrist_Acc_X,D_Wrist_Acc_Y,D_Wrist_Acc_Z,Activity
2922160758,0.135616,0.023574,0.118871,0.121434,-0.499528,-0.126184,0
2922194092,0.241907,0.090295,0.110071,0.133394,-0.376917,-0.152413,0
2922227426,0.239189,0.076734,0.158808,0.58507,-0.460138,0.396502,0
2922260760,0.237536,0.020908,0.182576,-0.008137,-0.296909,0.549498,0
2922294094,0.20887,-0.058566,0.128869,0.004142,-0.379137,-0.166887,0
2922327428,0.167971,0.024422,0.038616,-0.047847,-0.269094,-0.080751,0
2922360762,0.053169,0.04206,0.116424,-0.252778,-0.53017,-0.41674,0
2922394096,0.092064,0.191455,0.164344,0.06307,-0.924289,-0.702019,0
2922427430,0.114234,0.247182,0.136494,0.364988,-1.348728,-0.473187,0
2922460764,0.195218,0.207262,0.137198,0.218511,-1.513056,-1.666273,0
2922494098,0.162776,0.14419,0.159506,-0.159993,-1.124801,-1.402403,0
2922527432,0.340524,-0.186973,-0.12026,-0.149495,0.135202,-0.800677,0
2922560766,0.561398,-0.22381,-0.311618,0.575718,1.787657,-0.027366,0
2922594100,0.239337,-0.231572,-0.022013,0.561354,3.272202,1.461144,0
2922627434,0.049175,-0.211257,0.180366,0.666437,4.167276,2.446597,0
2922660768,0.0144,-0.149276,0.368831,0.528081,3.850772,2.251157,0
2922694102,0.001283,-0.26913,0.398873,0.361468,2.830056,1.761523,0
2922727436,-0.250696,-0.27269,-0.20172,0.126618,1.085129,1.979923,0
2922760770,-0.453887,-0.316302,-0.628384,-0.756563,-0.630916,1.044498,0
2922794104,-0.664465,-0.093779,-0.285261,-0.644858,-0.58159,-0.104201,0
2922827438,-0.194822,0.104236,0.18081,-0.722574,-0.518544,-1.009317,0
2922860772,0.77083,0.542597,-0.225571,-1.164544,-0.805711,-2.169306,0
2922894106,0.895235,0.58289,0.278677,-0.656045,-1.454728,-2.341932,0
2922927440,-0.140673,-0.176836,0.580845,-0.366904,-2.204216,-2.163295,0
2922960774,-0.318067,-0.806316,-0.081046,-0.35217,-3.709482,-1.628574,0
2922994108,-0.574131,-1.09039,-1.045835,0.061228,-4.716819,-2.685744,0
2923027442,-1.144243,-0.259816,-1.512922,0.473276,-3.422548,-2.34084,0
2923060776,-1.599199,-0.076217,-0.910939,-0.059721,-2.590844,-1.64508,0
2923094110,-0.481203,0.521595,0.400089,-0.15964,-1.328491,-1.960654,0
2923127444,1.399914,1.308648,2.060849,-0.460793,1.515145,0.3473,0
2923160778,1.844822,-1.0267,0.06237,0.304779,3.864036,0.640575,0
2923194112,1.398475,0.275235,-1.618336,0.139004,5.927186,2.165633,0
2923227446,-0.991057,-0.214634,-0.436789,0.251317,5.786761,3.064783,0
2923260780,-1.176749,0.282853,0.062037,0.012464,4.118383,2.264388,0
2923294114,-0.835959,1.002092,0.093052,-0.001622,1.793689,1.147853,0
2923327448,-0.801029,0.523757,-0.242358,-0.243524,-0.365082,-0.628302,0
2923360782,-0.259698,-0.339903,-0.31021,-0.302966,-2.396733,-1.263915,0
2923394116,0.211668,-0.277708,-0.193894,-0.056162,-3.153482,-2.375243,0
2923427450,0.627989,0.04623,-0.09347,-0.876593,-4.729631,-1.971672,0
2923460784,0.215943,-0.517381,0.148518,-0.715607,-5.429475,-2.731575,0
2923494118,0.875714,-0.574687,-0.379667,-0.052299,-4.518772,-2.819745,0
2923527452,0.411333,-0.259246,-0.065132,0.085355,-4.660654,-2.128042,0
2923560786,-0.112007,-0.214631,0.217855,-0.755549,-2.234582,-1.315974,0
2923594120,-0.181191,-0.469967,0.669953,-0.039314,1.757204,0.360251,0
2923627454,-0.23844,-0.522419,-0.117891,-0.205135,4.373573,1.421478,0
2923660788,-0.29655,-0.11182,0.030569,0.271237,6.085221,5.244782,0
2923694122,0.322022,-0.708114,0.072519,0.78045,7.179412,4.623713,0
2923727456,1.04693,-0.642937,-0.075234,0.208898,5.168262,2.988814,0
2923760790,0.245313,0.185272,-0.158101,0.14024,3.189867,0.662954,0
2923794124,-1.573751,0.593897,-0.398561,0.749394,1.425947,-1.723161,0
2923827458,-0.224007,1.001359,-0.486029,0.837382,-1.30012,-2.845155,0
2923860792,-1.373709,0.691808,0.023227,0.378546,-3.652977,-2.749392,0
2923894126,0.169944,0.184051,-0.065261,0.328866,-5.748803,-2.165861,0
2923927460,-0.889957,0.632602,-0.295451,-0.567263,-6.177667,-0.684361,0
2923960794,-1.182131,1.234326,-0.276656,-1.607328,-7.200755,-0.549954,0
2923994128,0.283576,-0.189863,0.73727,-0.855825,-5.056753,0.182529,0
2924027462,-1.065801,0.817989,0.208008,-1.260902,-3.240448,-0.793995,0
2924060796,-0.549365,-0.097957,0.499868,1.85475,-0.83291,1.596439,0
2924094130,0.133033,-0.011044,0.226024,1.019001,3.102658,2.156698,0
2924127464,0.118151,-0.229385,0.95024,1.265577,6.063128,2.611482,0
2924160798,1.251914,-0.70746,1.413984,0.58577,7.497239,2.2271,0
2924194132,0.161858,-0.785559,0.627304,0.039321,8.442447,1.099432,0
2924227466,-0.115422,-0.81567,0.542093,-0.350441,7.981599,0.147022,0
2924260800,0.872729,-0.289694,0.276203,-0.481741,5.820438,-0.80911,0
2924294134,1.12815,0.00889,0.763347,0.728301,0.761339,-1.6649,0
2924327468,0.510911,0.490797,0.277544,0.302559,-2.500438,-0.121313,0
2924360802,-0.99041,0.412311,0.353213,0.128356,-5.692469,0.491612,0
2924394136,0.327523,0.304608,0.700534,-0.724485,-8.118276,1.823029,0
2924427470,-1.032543,0.663422,0.363355,-0.404966,-6.313792,4.011247,0
2924460804,-0.040089,0.890359,0.120109,-0.727001,-5.366861,2.320148,0
2924494138,0.266741,0.568659,0.151439,0.124792,-3.826662,3.561848,0
2924527472,0.230956,0.450011,0.011009,-0.041088,-2.29302,3.013534,0
2924560806,-0.044921,0.403463,-0.686794,1.163854,-1.022278,3.086641,0
2924594140,-0.07942,0.023612,-0.442968,0.290281,0.283047,1.980972,0
2924627474,0.137412,-0.101179,0.457022,0.270487,2.275529,2.909473,0
2924660808,-0.106217,0.273777,0.434407,-0.51483,6.570451,2.854832,0
2924694142,-0.149362,0.198975,0.263682,-1.525905,7.119572,1.456556,0
2924727476,0.258304,-0.202453,1.21845,-1.092731,6.708124,2.593161,0
2924760810,-0.251806,-0.051166,1.480703,-1.161878,4.990643,3.605446,0
2924794144,0.144446,0.00215,1.633251,-0.171121,1.558147,2.772625,0
2924827478,-0.730338,0.626051,1.953219,0.976328,-1.048994,1.562108,0
2924860812,-0.902914,0.874901,1.048649,1.279878,-2.783304,-0.423795,0
2924894146,-0.208189,0.502379,0.559906,0.845778,-3.79248,-0.215392,0
2924927480,-0.363649,0.229593,0.672713,0.174203,-4.978076,-0.347602,0
2924960814,0.337184,0.373882,0.000878,-0.506385,-4.622674,-1.06158,0
2924994148,0.48585,-0.129567,-0.072297,0.158818,-3.896604,-0.488627,0
2925027482,-0.019133,-0.091055,0.162595,0.302748,-1.800044,1.093106,0
2925060816,-0.295844,0.033871,-0.432296,0.414307,0.479516,2.126729,0
2925094150,0.128536,-0.19038,-0.003232,-0.148196,3.346411,1.112873,0
2925127484,0.289313,-0.179541,-0.218951,-1.283726,4.686512,2.020968,0
2925160818,0.524941,-0.078642,0.019592,-1.557252,4.69151,2.140792,0
2925194152,0.055667,-0.22464,0.16638,-0.186825,4.435846,1.90099,0
2925227486,-0.325995,-0.050521,-0.05899,-0.125957,2.636583,1.511254,0
2925260820,0.241541,-0.004733,0.132672,0.649562,0.241588,0.576275,0
2925294154,-0.255211,0.106843,0.453018,1.22061,-1.193932,-0.572012,0
2925327488,-0.711899,0.031682,0.1496,0.895894,-3.238181,-1.305813,0
2925360822,0.07183,0.022146,-0.413343,0.546967,-4.20135,-2.271043,0
2925394156,-0.336906,0.168626,0.112817,0.144073,-4.262256,-2.137844,0
2925427490,-0.320705,-0.401334,-0.010013,-0.346698,-3.271313,-1.839231,0
2925460824,-0.138512,-0.255147,-0.182557,0.280638,-4.023258,-0.485419,0
2925494158,0.176396,-0.298803,-0.174167,1.063269,-0.279723,1.355223,0
2925527492,0.32622,-0.332671,-0.019069,-0.301734,-0.177099,0.531158,0
2925560826,0.342545,-0.216316,-0.434375,-0.1613,4.569356,2.765706,0
2925594160,0.049508,-0.22915,-0.439088,-0.877987,6.168451,2.49889,0
2925627494,-0.667906,-0.131679,0.127254,-0.865329,5.864611,2.55186,0
2925660828,-1.146374,-0.09294,0.071837,-0.224524,4.482983,1.580212,0
2925694162,-0.579859,0.038308,-0.60269,-0.145059,2.308083,-0.369177,0
2925727496,-0.277448,0.211458,-1.209056,0.558477,0.363408,-1.750051,0
2925760830,-0.209474,0.21735,-0.743606,0.854572,-1.296957,-2.785938,0
2925794164,0.302708,0.112444,-0.390686,0.922921,-2.787192,-3.32183,0
2925827498,0.326507,0.331851,-0.686016,0.641335,-4.636852,-3.969429,0
2925860832,0.052576,0.263843,-1.084373,0.130885,-4.086986,-3.663719,0
2925894166,-0.955635,0.985823,0.040021,-1.05014,-3.285972,-3.610339,0
2925927500,-1.091545,0.04181,0.650027,-0.790489,-2.517702,-2.183602,0
2925960834,0.723731,0.191029,-0.851186,-1.133805,-0.453537,-0.672212,0
2925994168,1.041055,0.040296,-0.944849,-0.239731,2.681776,2.417151,0
2926027502,1.403732,-0.213241,0.100903,0.425532,3.872303,4.497885,0
2926060836,1.069647,-0.04479,0.250901,-0.637904,3.756575,2.267575,0
2926094170,0.673633,0.229785,0.848101,0.091188,3.210908,2.021438,0
2926127504,-0.271173,-0.044107,-0.100029,-0.016237,1.551149,-0.000854,0
2926160838,-1.048895,-0.051683,0.005244,0.233107,-0.159911,-0.953793,0
2926194172,-0.187454,-0.256654,0.062943,0.841845,-2.258492,-1.801903,0
2926227506,0.289825,-0.241696,-0.208326,0.673771,-3.129668,-2.621537,0
2926260840,0.317448,0.28261,0.112798,-0.204948,-3.706409,-3.611075,0
2926294174,0.543735,0.127677,0.033861,0.33153,-3.389904,-3.005369,0
2926327508,0.175715,0.062339,0.423781,-0.644752,-1.993146,-2.054591,0
2926360842,0.54574,0.060839,0.276114,-0.75604,-0.002711,-0.310507,0
2926394176,0.72466,-0.14637,0.203455,-0.561745,1.328079,1.957629,0
2926427510,0.149307,-0.434233,0.246957,-0.201075,1.846307,2.686211,0
2926460844,0.163568,-0.560005,-0.021548,0.12362,2.007438,2.013703,0
3313368582,-1.081571,0.560394,0.371175,-1.215223,-2.378496,-2.334802,0
3313401916,-0.047936,0.410063,0.295921,-1.670536,-2.543415,-1.97893,0
3313435250,-0.769693,0.131988,0.288035,-2.182101,-2.236912,-2.563497,0
3313468584,-0.529052,0.031278,0.165041,-1.986632,-2.28005,-1.834771,0
3313501918,-0.09036,-0.28243,-0.214699,-1.844431,-2.774348,-1.818126,0
3313535252,0.152591,-0.893411,0.236824,-0.850908,-2.111341,-0.764753,0
3313568586,0.165947,-0.386498,0.251965,0.286469,0.080324,0.790334,0
3313601920,0.172611,-0.112265,0.382435,1.023769,1.204458,1.737608,0
3313635254,-0.453998,0.62603,0.732222,1.921635,3.121763,3.916931,0
3313668588,-0.689228,0.20176,0.540315,2.217598,4.00437,4.56945,0
3313701922,-0.329148,-0.345638,0.406356,1.897639,3.143289,3.51484,0
3313735256,0.083675,-0.183291,0.26745,1.121184,1.382983,1.11329,0
3313768590,-0.486383,-0.399851,0.126162,0.670217,-0.003572,-0.279949,0
3313801924,-0.156076,0.024078,-0.116628,-0.274721,-1.51883,-2.335742,0
3313835258,-0.427059,0.027864,0.621583,-1.296766,-2.144035,-3.065829,0
3313868592,-0.641797,-0.312735,-0.09393,-1.854918,-2.6115,-2.208459,0
3313901926,-0.197144,-0.041909,-0.324679,-2.591004,-3.500952,-2.822088,0
3313935260,-0.020755,-0.555341,0.076704,-1.693491,-2.595104,-1.985293,0
3313968594,-0.181807,-0.680332,-0.976596,-1.839408,-2.478878,-2.116113,0
3314001928,0.672867,-0.34229,-0.594544,-0.51687,-2.251385,-0.81572,0
3314035262,-0.837913,0.505248,0.043499,0.250459,-0.496257,-0.392276,0
3314068596,-0.476355,1.08745,-0.058867,1.219017,2.009957,1.301745,0
3314101930,-0.021307,0.608188,0.681827,1.348128,3.087209,3.37008,0
3314135264,-0.38724,0.406271,-0.116025,1.776704,4.701793,4.436333,0
3314168598,0.633741,0.286686,-0.532562,1.347474,3.065807,4.177459,0
3314201932,0.360718,0.246375,0.430924,0.710079,0.912013,3.112104,0
3314235266,0.037166,-0.013267,-0.138584,0.411373,0.130134,1.762679,0
3314268600,0.417573,-0.206839,-0.110401,-0.145913,-1.246671,-0.175913,0
3314301934,0.191803,-0.276884,0.207697,-1.2393,-2.048848,-1.677742,0
3314335268,-0.395144,0.689026,0.404153,-1.153004,-1.977063,-1.955667,0
3314368602,-0.807607,0.956571,0.349289,-1.931915,-3.035478,-2.400946,0
3314401936,-0.013084,0.134193,-0.05893,-1.70523,-2.705554,-1.945363,0
3314435270,0.097307,-0.292173,0.508662,-1.449081,-2.656901,-1.276368,0
3314468604,0.297933,-0.354703,0.038137,-0.837786,-1.729859,0.173489,0
3314501938,0.287414,-0.509044,0.006469,-0.064815,-0.284739,0.609974,0
3314535272,-0.031992,-0.697952,0.350943,1.92183,1.940035,2.214462,0
3314568606,-0.247822,-0.036219,0.330915,3.085225,3.868242,3.605378,0
3314601940,-0.28821,0.249105,0.086436,3.397385,4.268965,3.063638,0
3314635274,-0.396701,0.375295,0.505219,2.297938,3.08333,1.295394,0
3314668608,0.143477,0.197537,-0.353686,1.288767,1.20298,-0.247604,0
3314701942,0.109683,0.289637,-0.256007,0.067424,-0.627563,-1.44184,0
3314735276,0.244022,-0.035889,0.285103,-1.801975,-2.700637,-1.966133,0
3314768610,0.082783,0.665085,-0.071399,-2.197855,-3.720887,-1.149806,0
3314801944,-0.292377,1.152987,0.192234,-3.05977,-3.765085,-1.097947,0
3314835278,0.321539,0.557257,0.286759,-2.659087,-2.752079,-0.708594,0
3314868612,0.359102,0.042326,-0.093436,-2.033437,-2.059474,-0.569758,0
3314901946,0.524224,-0.259392,0.217935,-1.244836,-1.15336,0.089027,0
3314935280,0.281374,-0.052881,-0.325691,-0.226555,-0.169672,0.827968,0
3314968614,-0.242414,0.355566,0.44806,0.998465,0.805181,1.590934,0
3315001948,-0.620228,0.756156,0.569014,1.134767,2.083006,1.345291,0
3315035282,-0.145597,0.006441,-0.086132,2.126526,3.613638,2.097997,0
3315068616,-0.032343,0.25274,0.077426,2.418691,4.249106,2.516576,0
3315101950,0.248594,-0.815486,-0.088647,1.885862,3.81415,2.392202,0
3315135284,-0.183941,-0.176264,0.37416,1.426026,2.753536,1.940214,0
3315168618,-0.653587,0.100521,0.821211,0.943793,1.803854,1.354468,0
3315201952,-1.385223,0.908315,0.486921,-0.102327,0.006274,0.342864,0
3315235286,-0.632856,0.497349,0.249759,-0.968033,-1.474359,-0.740271,0
3315268620,0.442723,-0.137787,0.014617,-0.919209,-1.970409,-1.820179,0
3315301954,0.592836,0.013898,0.036191,-1.391559,-2.752981,-2.136406,0
3315335288,0.808664,-0.042588,-0.155895,-1.999967,-3.145083,-2.118477,0
3315368622,0.718814,-0.042702,-0.258609,-1.925709,-3.406448,-1.241553,0
3315401956,0.7437,-0.313135,-0.089152,-2.0876,-3.248361,-0.506318,0
3315435290,0.178894,0.146493,0.161123,-1.182176,-1.947716,-0.466916,0
3315468624,-0.221881,0.256947,0.275278,-1.61337,-2.157862,-0.799397,0
3315501958,-0.352904,0.146543,0.270207,-0.487257,-1.172906,0.255493,0
3315535292,-0.06907,-0.205709,0.237987,-0.047386,0.056828,1.156608,0
3315568626,-0.140416,-0.220984,-0.134483,0.43918,1.915295,3.165291,0
3315601960,0.197282,0.123189,0.176091,1.506929,4.463346,4.388891,0
3315635294,0.254151,0.67298,0.515126,2.210167,4.467148,3.648964,0
3315668628,0.134737,0.21521,0.426291,2.090403,3.47182,2.35357,0
3315701962,-0.134983,0.19813,-0.058397,1.773051,3.144973,2.399573,0
3315735296,0.295219,0.77093,0.124121,1.528774,2.515755,2.062986,0
3315768630,0.711229,0.167622,-0.303969,1.205132,0.839936,1.041475,0
3315801964,0.302931,0.024657,-0.241777,0.313615,-0.385442,0.714935,0
3315835298,-0.032187,0.349352,0.259061,-0.409366,-0.761659,0.15426,0
3315868632,-0.12314,0.200332,0.402413,-1.380166,-1.704956,-0.935229,0
3315901966,-1.295988,1.571744,0.758393,-2.515485,-2.447801,-1.677475,0
3315935300,-0.548378,1.982476,0.992459,-3.461716,-4.067672,-2.168144,0
3315968634,0.62902,0.660944,0.998412,-3.989306,-5.060801,-2.221668,0
3316001968,0.82789,-0.66303,1.732637,-1.850822,-3.800312,0.61734,0
3316035302,1.08989,-0.756297,0.614559,-0.283307,-1.155078,1.821826,0
3316068636,0.787955,-0.822339,0.161459,1.946507,2.267553,3.155393,0
3316101970,0.308922,-0.879791,0.58207,2.921684,4.754647,4.50016,0
3316135304,-0.284966,-0.473157,0.472118,2.567772,4.714135,3.797502,0
3316168638,-0.016887,-0.064329,0.046621,2.009536,3.365821,2.284966,0
3316201972,-0.114771,-0.159343,0.224763,0.671883,1.242388,1.107889,0
3316235306,-0.112603,-0.073819,0.115062,0.111943,-0.262046,0.38799,0
3316268640,0.732163,-0.800229,-0.898585,-0.34253,-1.289565,-0.300376,0
3316301974,0.661245,-0.676876,-0.549946,-0.345718,-1.170705,-0.537982,0
3316335308,-0.008655,-0.329282,-0.164773,-0.175098,-1.251375,-0.974321,0
3316368642,0.18661,-0.155333,-0.75025,-0.652229,-1.808695,-0.847801,0
3316401976,0.201542,0.087422,-0.53881,-0.872814,-2.107408,-1.189707,0
3316435310,-0.695357,1.038424,0.676935,-1.029193,-1.861954,-1.535777,0
3316468644,-0.83807,0.742468,0.385957,-1.308118,-1.912468,-1.199996,0
3316501978,-0.731684,0.493154,-0.433011,-1.485409,-2.14235,-0.754813,0
3316535312,-0.323094,0.480515,-0.317238,-1.623733,-2.292133,-0.443432,0
3316568646,0.053568,0.243379,0.013566,-0.228996,-0.790564,0.831772,0
3316601980,0.529187,-0.27267,0.08073,0.318775,0.936504,1.550858,0
3316635314,-0.000449,0.16994,-0.580224,1.51703,2.622139,3.109683,0
3316668648,-0.009329,0.277054,-0.071066,2.09494,3.643641,3.546133,0
3316701982,-0.156347,-0.136427,0.083579,2.131825,3.942421,3.192701,0
3316735316,-0.260301,0.024902,0.559754,1.641546,2.877291,2.387293,0
3316768650,-0.82967,0.044925,0.427327,0.651056,1.112421,1.249964,0
3316801984,-0.810148,-0.257997,0.263329,0.035157,-0.520479,0.052998,0
3316835318,-0.210619,-0.017569,0.216082,-0.813792,-1.22831,-1.399141,0
3316868652,-0.489797,0.372486,-0.271576,-1.530295,-2.112705,-2.270216,0
3316901986,-0.642427,0.19538,-0.306562,-1.942801,-2.736663,-3.157803,0
3316935320,-0.093413,0.000201,0.498822,-1.87528,-2.615284,-3.298728,0
3316968654,0.123442,-0.28081,0.200156,-1.743301,-2.600662,-2.6335,0
3317001988,-0.421635,-0.192913,-0.005479,-0.951425,-1.57389,-1.576648,0
3317035322,-0.213498,-0.444027,-0.280749,-0.328431,-0.541989,-0.470919,0
3317068656,0.508833,-0.250624,-0.588623,0.940995,1.24441,1.14393,0
3317101990,-0.453839,-0.568053,-0.899757,2.009059,3.161747,2.80438,0
3317135324,-0.623845,-0.574781,-1.104131,1.885572,2.779082,3.24162,0
3317168658,0.116636,0.365401,-0.194871,1.92356,1.598029,2.427082,0
3317201992,0.304728,0.855502,0.682924,0.922334,0.358225,0.424117,0
3317235326,-0.297229,0.913576,-0.119983,-0.241007,-0.727002,-0.730154,0
3317268660,-0.64051,1.132223,-0.850902,-0.69356,-1.406643,-2.083871,0
3317301994,-0.517296,0.990306,-0.334047,-0.847223,-1.219275,-3.359661,0
3317335328,-0.050327,-0.262438,-0.019277,-0.730611,-1.141342,-3.251119,0
3317368662,0.888685,-0.99413,-0.44156,-1.322097,-1.984026,-2.899738,0
3317401996,1.193915,-0.40847,0.073484,-2.179513,-2.207301,-2.818086,0
3317435330,0.777475,-1.078434,0.131146,-0.785966,-1.676333,-1.530298,0
3317468664,0.590975,-1.078232,0.020017,-0.292029,-0.508069,-0.629426,0
3317501998,-0.271795,-0.061717,0.432039,0.253968,0.604009,1.288123,0
3317535332,-0.237374,-0.737316,0.277758,2.339059,2.097103,3.273443,0
3317568666,0.61934,-1.160157,-0.54205,2.399803,2.731559,3.211515,0
3317602000,0.752278,-0.606956,-0.409095,1.863359,1.720169,2.181578,0
3317635334,-0.071537,0.149403,0.070989,1.285058,0.918994,0.63448,0
3317668668,-0.018092,0.208785,-0.031452,0.584298,-0.121891,-0.623813,0
3317702002,0.540963,0.019228,-0.5584,0.327468,-0.317376,-2.177399,0
3317735336,-0.055041,0.253251,-0.200977,-0.010273,-0.987271,-3.016162,0
3317768670,-0.611354,-0.180632,-0.844421,-0.839913,-2.678039,-3.534314,0
3317802004,-0.633663,-0.012363,-1.408025,-1.23636,-2.718161,-3.772889,0
3317835338,-1.141617,1.396588,0.713052,-1.080593,-3.103578,-3.245126,0
3317868672,1.454514,-0.685344,4.268014,-2.782564,-2.930129,-3.39502,0
3317902006,1.816007,-1.02446,-0.186155,-1.943448,-1.004299,-2.639086,0
3317935340,-0.826951,0.493582,-0.614943,1.033266,-0.05225,-0.087725,0
3317968674,-1.239537,0.090988,0.122149,0.813835,0.764378,1.681556,0
3318002008,1.057129,-0.164047,0.14605,1.208258,1.984468,3.210028,0
3318035342,2.578919,-0.821075,0.381782,2.165572,1.960365,2.831123,0
3327902206,0.100197,0.348898,0.069366,0.237413,-0.531851,0.231722,0
3327935540,-0.262343,0.599776,0.320718,0.071771,-0.487365,-0.083681,0
3327968874,-0.079228,0.646302,0.163607,0.33262,-0.219901,-0.218127,0
3328002208,-0.168187,0.676832,0.156462,0.414105,0.083379,0.201093,0
3328035542,-0.241813,0.797494,0.312096,0.104587,-0.257949,0.132831,0
3328068876,-0.14806,0.769758,0.230977,-0.214106,-0.123605,0.19987,0
3328102210,-0.288786,0.559085,0.052075,-0.200012,-0.253373,0.359332,0
3328135544,-0.32464,0.34215,0.156035,-0.363794,-0.242198,0.495412,0
3328168878,-0.048512,0.272983,0.235464,-0.256629,-0.074793,0.52905,0
3328202212,0.253324,0.000638,0.06945,-0.344748,-0.088613,0.18582,0
3328235546,-0.186833,-0.020124,0.335171,-0.341813,0.072043,0.131568,0
3328268880,0.154855,-0.213743,0.166394,-0.293922,0.311789,-0.132772,0
3328302214,0.924596,-0.065129,0.069152,-0.263427,0.14377,-0.318467,0
3328335548,1.032564,0.545525,0.030021,-0.056603,-0.36762,-0.15927,0
3328368882,0.074272,0.975447,0.168969,0.070488,-0.830469,-0.267922,0
3328402216,0.050114,0.778066,0.15693,0.001815,-1.28402,-0.649027,0
3328435550,0.696615,0.683829,-0.280951,-0.094038,-1.652343,-1.230237,0
3328468884,1.295693,0.855252,-0.593165,0.223337,-0.816286,-0.81162,0
3328502218,1.02904,0.920812,0.118581,-0.033035,-0.606096,-1.338138,0
3328535552,-0.255068,-0.83491,-0.243696,-0.398853,-1.511783,-1.160466,0
3328568886,-1.403951,-0.797733,0.218812,-0.143996,-1.929703,-0.113917,0
3328602220,-0.705747,-0.921628,0.392616,-0.502998,-1.966467,-0.432486,0
3328635554,-0.274459,-1.18915,-0.567391,0.020186,-2.234714,-1.860974,0
3328668888,0.050471,-0.343635,-0.417556,0.351568,-0.168588,-0.432447,0
3328702222,0.31461,-0.099768,-0.19756,0.602993,1.046121,-0.147239,0
3328735556,0.000377,0.161183,-0.196052,0.665294,2.886955,0.492014,0
3328768890,0.266365,-0.507494,-0.70332,0.662825,4.636171,2.614667,0
3328802224,0.331029,-0.163939,-0.000916,0.356617,4.803307,3.162749,0
3328835558,-0.542889,-0.002598,0.364624,0.152821,3.453489,2.353955,0
3328868892,-0.387092,0.259561,0.271279,0.245351,1.504327,1.782153,0
3328902226,-0.459769,-0.323821,-0.284681,0.029064,-0.521152,0.909176,0
3328935560,-0.154654,-0.194019,-0.181192,-0.154984,-1.967668,-0.970601,0
3328968894,0.14277,-0.041281,0.25824,-0.323396,-2.196589,-1.516728,0
3329002228,0.654789,-0.3918,0.417352,-0.749797,-3.039433,-2.187631,0
3329035562,0.285474,-0.330118,0.044671,-0.930832,-2.853539,-3.373727,0
3329068896,-0.1806,-0.305421,-0.044585,-0.606278,-3.030667,-3.320067,0
3329102230,0.080476,-0.471294,-0.270652,-0.503028,-3.135473,-2.406235,0
3329135564,-0.184614,-0.029051,0.254252,0.408073,-2.41936,-1.170835,0
3329168898,-0.223049,-0.315357,-0.16626,-0.175127,-2.2589,-1.177001,0
3329202232,-0.059075,0.053886,-0.067966,0.837349,0.739907,1.276658,0
3329235566,0.098224,-0.025752,0.039104,0.393863,3.334491,2.973217,0
3329268900,0.234729,-0.284591,-0.358624,0.609274,5.797022,5.19459,0
3329302234,0.071185,-0.275542,0.34707,0.818985,5.748934,4.830102,0
3329335568,0.07865,-0.067743,-0.018941,0.557034,4.113785,2.364068,0
3329368902,-0.018119,-0.229112,-0.279486,0.913979,2.042798,-0.346425,0
3329402236,-0.244625,-0.033007,0.312665,0.800674,-0.618813,-1.481153,0
3329435570,-0.388384,0.209133,0.627182,-0.658745,-3.485854,-2.930112,0
3329468904,-0.581539,0.395975,0.307469,-0.528649,-4.542426,-3.91466,0
3329502238,-0.507387,0.487748,0.336232,-0.835653,-5.687984,-2.295711,0
3329535572,0.102035,0.28231,-0.177672,-0.451822,-4.336393,-2.305685,0
3329568906,0.359116,0.317406,-0.075546,-0.236126,-2.365513,-1.533456,0
3329602240,-0.064017,-0.47393,-0.222943,0.315949,-1.0931,-0.962309,0
3329635574,0.131686,-0.154849,-0.235092,0.265127,1.57993,0.8321,0
3329668908,0.137637,-0.034639,0.302658,0.705099,3.877311,2.926597,0
3329702242,0.106837,-0.54963,0.375327,0.503371,4.974982,4.109375,0
3329735576,0.293084,0.183872,-0.04898,-0.076737,4.494962,3.507755,0
3329768910,0.238451,-0.629057,0.134246,0.207122,2.735542,2.592911,0
3329802244,0.09578,-0.431914,-0.052338,0.343423,1.901687,0.950133,0
3329835578,-0.780165,0.232101,-0.175495,0.186735,-0.47654,-0.666386,0
3329868912,-0.300683,0.353174,-0.080294,0.15386,-2.597404,-2.165493,0
3329902246,-1.37049,1.166244,-0.342955,-0.190886,-3.009693,-1.663075,0
3329935580,-0.835058,0.914233,-0.275312,-0.935339,-4.694332,-2.893536,0
3329968914,-1.138643,0.616854,0.217897,-0.66808,-4.047465,-2.228011,0
3330002248,0.192428,-0.047325,-0.2127,-0.439055,-3.505391,-1.729698,0
3330035582,0.711979,-0.152773,-0.050823,-0.26692,-2.640851,-1.146676,0
3330068916,0.479288,-0.448693,-0.09555,0.922291,0.845981,1.118105,0
3330102250,0.188322,-0.345772,0.091068,0.979152,3.691248,2.513152,0
3330135584,-0.271593,-0.340517,0.31228,-0.455355,5.332969,3.949876,0
3330168918,-0.082147,-0.236248,0.419746,-0.586086,6.02131,4.320522,0
3330202252,0.236713,-0.584225,0.191522,-0.638593,3.68855,2.975569,0
3330235586,0.345505,-0.242271,0.001029,-0.325146,1.631732,1.55794,0
3330268920,-0.10971,-0.426019,0.341067,-0.313444,-1.232535,-0.611093,0
3330302254,0.295566,-0.324848,-0.35539,-0.478602,-2.914067,-3.017559,0
3330335588,-0.432607,0.324384,-0.065776,-0.26895,-4.079018,-3.604267,0
3330368922,-0.509406,0.45714,0.098958,0.301785,-6.400974,-3.715563,0
3330402256,0.139582,0.246955,-0.443163,0.220604,-6.197278,-3.530926,0
3330435590,0.196082,-0.049579,0.004551,0.892618,-4.857435,-2.971364,0
3330468924,0.2598,-0.108279,-0.031225,0.88453,-3.031247,-2.258905,0
3330502258,-0.094799,0.219165,-0.798245,1.249175,1.186935,0.322847,0
3330535592,0.07469,-0.323817,0.396303,0.589163,3.508888,2.728457,0
3330568926,0.723619,-0.503102,1.008813,-0.403017,6.352757,5.787749,0
3330602260,-0.303474,-0.108953,0.190346,-0.622168,6.307022,5.955884,0
3330635594,-0.505631,-0.185228,0.380441,-0.496259,4.302484,5.015018,0
3330668928,0.218519,-0.198946,0.436916,-0.008558,2.151791,3.210505,0
3330702262,-0.547895,0.334509,-0.484813,0.207156,-0.231671,0.784344,0
3330735596,0.25085,0.065601,0.237593,0.579929,-1.59839,-1.109821,0
3330768930,0.030012,0.278458,0.289055,0.36267,-2.876961,-2.257194,0
3330802264,-0.329724,0.478131,-0.06517,0.315092,-3.443154,-2.632379,0
3330835598,-0.525463,0.647978,-0.078899,-0.118968,-3.683497,-2.522342,0
3330868932,-0.141825,0.247062,0.739488,-0.433106,-4.081297,-2.424678,0
3330902266,0.065186,0.283854,0.588247,-0.574565,-3.636624,-1.67181,0
3330935600,0.684618,-0.281666,0.69483,-0.418531,-2.84897,-0.806557,0
3330968934,-0.271923,-0.185344,1.030792,-0.157865,-2.122031,0.157113,0
3331002268,-0.568644,-0.114507,1.128999,0.021695,-0.71647,2.02282,0
3331035602,-0.3266,-0.179886,0.62723,-0.089567,2.130929,3.618274,0
3331068936,-0.410015,-0.212363,0.230113,-0.090255,3.933489,4.302285,0
3331102270,-0.462598,-0.110501,0.167429,-0.198384,5.131216,4.416727,0
3331135604,-0.452429,0.095938,0.156976,-0.013624,5.812882,3.872666,0
3331168938,-0.439765,0.380725,-0.284459,0.239453,4.704595,2.70293,0
3331202272,0.179925,0.35474,-0.681942,0.467236,2.954298,1.446268,0
3331235606,0.22516,0.550926,-0.63479,0.246724,0.864284,0.400401,0
3331268940,-0.052221,0.61238,-0.163234,0.041277,-0.442633,-0.110197,0
3331302274,-0.281647,0.612112,0.123842,-0.45371,-2.15954,-0.570208,0
3331335608,0.052948,0.247137,0.109679,-0.649243,-2.72911,-0.894169,0
3331368942,-0.124072,0.286878,0.035222,-0.763735,-3.01313,-1.590226,0
3331402276,0.236392,0.117788,0.08429,-1.304955,-3.419623,-2.478565,0
3331435610,0.452516,0.014069,-0.032181,-1.336139,-3.164942,-2.736369,0
3331468944,0.37797,0.044281,-0.13994,-1.004499,-3.116666,-1.926881,0
3331502278,0.344149,0.088113,-0.220388,-0.508552,-2.368194,-1.221643,0
3331535612,0.330334,0.057429,-0.204966,0.400014,-0.20983,0.511,0
3331568946,0.289586,-0.031028,-0.101446,0.834679,2.143568,1.65207,0
3331602280,-0.102021,0.124766,0.08135,0.423972,3.747726,2.720464,0
3331635614,-0.475329,0.199055,0.20267,0.002614,4.956116,3.422192,0
3331668948,-0.387708,0.354944,0.292877,0.027319,4.545014,4.120763,0
3331702282,-1.246265,0.352093,1.058943,0.016642,3.182837,3.756016,0
3331735616,-0.48772,0.43674,1.862393,-0.022028,1.137513,2.636149,0
3331768950,0.965583,-0.083339,2.248996,-0.376168,-0.701924,1.528632,0
3331802284,0.17136,0.468836,0.799525,-0.588105,-2.403559,0.959906,0
3331835618,-0.140507,0.374061,0.954008,-0.383136,-3.553378,0.546303,0
3331868952,-1.958146,1.561548,0.861755,0.062728,-3.134649,-0.23363,0
3331902286,-0.802133,0.887578,1.015239,0.368841,-2.982408,-1.187911,0
3331935620,1.527107,-0.329404,0.428176,0.36316,-2.387691,-0.729824,0
3331968954,0.848377,-0.423017,-0.589153,0.087098,-2.210522,-0.494807,0
3332002288,0.574679,-0.217928,-0.630614,0.115792,-1.313868,-0.508159,0
3332035622,0.183374,-0.370599,-0.361944,0.468933,0.387458,0.609987,0
3332068956,0.005965,-0.354909,-0.102292,0.939561,1.998927,1.458538,0
3332102290,0.07415,-0.398762,-0.109005,0.677987,3.392244,1.339233,0
3332135624,0.404679,-0.128233,-0.303852,0.200492,2.914285,1.171973,0
3332168958,0.139492,-0.15981,-0.226513,-0.020866,1.659559,0.913514,0
3332202292,-0.341863,-0.101513,-0.255745,0.367053,0.630094,0.360819,0
3332235626,-0.04155,0.038258,-0.284647,0.072494,-0.751528,-0.069362,0
3332268960,-0.239865,0.061682,-0.303615,0.320886,-1.160213,-0.709237,0
3332302294,-0.321504,-0.043106,-0.435749,0.310454,-1.344432,-0.775672,0
3332335628,-0.417056,0.079106,-0.151757,-0.27645,-2.173643,-1.820591,0
3332368962,-0.37945,-0.298574,0.029901,-0.48266,-2.23117,-1.878487,0
3332402296,0.441335,-0.337694,-0.16347,-0.77188,-2.512651,-1.779192,0
3332435630,0.483254,-0.238947,-0.37749,-0.646775,-1.780056,-1.520414,0
3332468964,0.394176,-0.296063,-0.242616,0.520393,-0.09178,0.240768,0
3332502298,-0.267391,-0.18882,-0.199591,-0.679658,1.685516,0.84194,0
3332535632,-0.01041,-0.347297,-0.129165,-0.039143,5.241568,3.283349,0
3332568966,-0.429928,0.187072,0.200975,-0.307198,4.433805,3.997533,0
3332602300,0.316628,-0.689318,0.101014,-0.166337,2.812762,3.682675,0
3332635634,0.346356,-0.229788,0.283768,0.658989,1.375703,2.671511,0
3332668968,-0.31151,0.482992,0.172833,0.826898,-0.776228,1.257549,0
3332702302,-0.433432,0.074946,-0.093399,0.739098,-1.91232,-1.258848,0
3332735636,-0.206903,0.103378,0.095575,0.519371,-2.464259,-2.546752,0
3332768970,-0.106423,0.447955,-0.060978,-0.146616,-3.680875,-3.238199,0
3332802304,-0.154552,0.351264,-0.179783,-0.328098,-3.214465,-3.585312,0
3332835638,-0.212829,0.137093,-0.117867,-0.518537,-3.298484,-2.844509,0
3332868972,-0.10022,0.185896,-0.205692,-0.595944,-2.607846,-2.052446,0
3332902306,-0.263545,0.358451,-0.183374,-0.338278,-1.096048,-0.606789,0
3332935640,-0.320038,-0.004863,0.127395,0.183981,1.670179,1.450966,0
3332968974,-0.466563,0.025379,0.103651,0.82373,4.415893,4.244052,0
3333002308,-0.446004,-0.240203,-0.056075,0.509322,4.567876,4.992596,0
3333035642,-0.175802,-0.174207,0.067177,0.17074,3.626068,3.613262,0
3333068976,-0.605181,0.392125,0.037586,0.538755,2.254229,2.411659,0
3333102310,-1.435897,0.202859,0.010849,0.339703,0.447518,0.383287,0
3333135644,-0.485664,0.011692,-0.302645,0.132719,-0.692159,-1.181937,0
3333168978,-0.592381,0.050226,-0.277276,-0.197407,-2.257848,-2.401854,0
3333202312,-1.016278,-0.316713,-0.450922,-0.469031,-3.404648,-3.327219,0
3333235646,-0.882341,-0.39208,-0.646706,-0.653068,-3.567492,-3.995763,0
3333268980,-0.070598,-0.164639,-0.802657,-0.956479,-3.706894,-4.627492,0
3333302314,1.148701,-0.006889,-0.921304,-1.32704,-3.497161,-4.937151,0
3333335648,1.782271,0.014524,-1.16974,0.229865,-1.459944,-2.757087,0
3333368982,0.6582,0.04645,0.139166,0.865613,1.450477,0.661635,0
3333402316,0.265947,-0.298969,0.237857,0.892808,4.441402,5.027934,0
3333435650,-0.193131,-0.266627,-0.567933,1.193599,4.256094,4.988669,0
3333468984,-1.008168,-2.32894,0.211324,0.893906,3.41172,2.700742,0
3333502318,2.02923,3.275607,1.827594,0.163659,2.077316,0.56204,0
3333535652,2.945669,3.308317,2.182137,-0.262428,0.15972,-1.544832,0
3333568986,2.381228,-1.236578,-0.880872,0.014132,-0.9749,-3.13888,0
3333602320,-0.197323,0.118999,-1.066683,0.115171,-1.732395,-3.25042,0
3333635654,-0.832925,0.664675,0.125513,-0.358536,-3.51381,-3.422464,0
3333668988,-0.614844,0.14409,1.056851,0.112894,-3.842424,-3.259788,0
3333702322,0.26488,-0.215384,-0.099008,-0.297228,-2.520937,-2.581908,0
3333735656,0.447061,0.207537,-0.072834,-0.851329,-1.728606,-2.175042,0
3333768990,0.089015,0.069334,0.549572,-1.348328,-0.390576,-1.018602,0
3333802324,0.315352,-0.366116,-0.027538,-0.186414,1.096197,1.181354,0
3333835658,-0.134206,-0.561947,-0.001347,0.858701,2.266614,3.032521,0
3333868992,-0.094891,-0.249679,0.196343,0.810013,2.239314,3.145948,0
3333902326,0.177265,-0.075278,0.128597,0.904442,1.947038,2.448678,0
3333935660,-0.057977,-0.084559,0.164363,0.650385,1.361529,1.658103,0
3333968994,-0.328997,0.122767,0.156844,0.548408,0.27332,1.000968,0
3334002328,-0.228051,0.093019,0.113761,0.014491,-0.4817,-0.236612,0
3334035662,-0.070786,-0.002209,0.031434,-0.292978,-0.561607,-0.679148,0
3334068996,-0.131645,-0.245332,0.123199,-0.059771,-0.131671,-0.870421,0
3334102330,-0.189693,-0.319723,0.161438,-0.026269,-0.018654,-0.997341,0
3384636674,-2.92646,-2.106785,0.060257,-0.358128,-1.166443,1.797741,0
3384670008,1.087606,2.809945,4.053161,-0.168213,-1.653508,0.054634,0
3384703342,2.868507,-0.346003,1.750065,0.497894,-2.213641,0.17483,0
3384736676,3.778395,0.55405,0.077383,-0.22499,-3.832534,-1.443545,0
3384770010,2.013758,0.314915,-1.334763,0.006623,-3.279114,-2.313766,0
3384803344,-0.558887,0.373655,-0.579353,0.49392,-2.463532,-2.70639,0
3384836678,-1.72804,0.919641,0.670901,0.314347,-2.332643,-2.967633,0
3384870012,-0.605685,0.460013,0.025779,0.669587,-1.578577,-2.887958,0
3384903346,0.74539,0.060148,0.032687,1.097334,-1.336808,-2.604393,0
3384936680,1.149105,-0.072233,0.330426,0.855664,-1.08994,-2.260647,0
3384970014,-0.223566,0.420828,0.322705,0.705709,-0.733948,-1.925481,0
3385003348,-0.381894,0.113973,0.017585,0.512085,-0.045766,-1.57071,0
3385036682,-0.286135,-0.166207,-0.094959,-0.146011,0.033399,-0.587854,0
3385070016,0.434064,-0.43733,-0.077932,-0.653524,0.379284,-0.554705,0
3385103350,1.03273,-0.63035,-0.312445,-0.486562,0.420816,-0.259206,0
3385136684,0.685136,-0.102802,-0.503311,-0.688721,-0.281531,0.103637,0
3385170018,-0.169257,0.037963,0.774441,-0.933296,-0.809506,-0.887491,0
3385203352,-0.054909,-0.17204,0.007833,-0.641755,-1.080498,-2.145135,0
3385236686,0.424829,0.819837,-0.862287,-0.65813,-1.168575,-2.214294,0
3385270020,0.579976,1.746632,-0.207654,-0.131668,-2.455786,-2.500055,0
3385303354,-0.548205,0.849266,-0.808158,-0.510861,-3.078328,-2.252222,0
3385336688,-0.850812,1.82358,-0.107885,-0.216855,-2.043751,-2.470625,0
3385370022,-0.958832,-0.1158,0.047926,-0.601176,-3.141076,-2.333427,0
3385403356,0.565182,-0.543143,-0.316123,-0.514528,-1.594866,-2.329912,0
3385436690,0.559774,0.733369,-0.246367,0.788131,-1.067927,-1.379418,0
3385470024,-0.394849,-0.576764,-0.199657,0.761422,2.210279,1.11952,0
3385503358,-0.155189,-0.135466,-0.082699,1.619301,4.008224,3.127551,0
3385536692,-0.381101,-0.286593,0.204124,1.061808,5.353428,4.816838,0
3385570026,-0.62172,-0.196118,0.435022,0.872914,5.888579,4.261961,0
3385603360,-0.551143,-0.294966,0.094087,0.942154,4.666451,2.440183,0
3385636694,-0.357518,-0.051077,-0.025496,0.455385,2.513902,0.612085,0
3385670028,0.079666,-0.739065,0.651164,-0.003761,1.267883,0.561092,0
3385703362,0.493774,-1.162006,0.515414,-0.70462,-1.627871,-0.67304,0
3385736696,0.233686,-0.988079,0.157973,-0.807096,-2.556815,-1.180541,0
3385770030,-0.030041,-0.637116,0.200338,-0.508709,-3.534613,-1.372559,0
3385803364,-0.170612,-0.24873,-0.158468,-0.733421,-4.709255,-1.63103,0
3385836698,-0.084331,0.216156,-0.009137,-0.227146,-4.870196,-1.805435,0
3385870032,0.166157,0.345298,0.652161,-0.184513,-4.980306,-2.814455,0
3385903366,0.299789,0.236161,-0.320947,0.639601,-4.976841,-2.544689,0
3385936700,-0.644481,0.837361,-0.020595,0.706599,-2.671412,-2.092202,0
3385970034,-1.030493,0.13345,0.455501,0.687655,0.4162,-1.675417,0
3386003368,0.395068,-0.040327,0.069527,1.098765,4.351799,0.504135,0
3386036702,0.019775,-0.583196,0.449958,0.961108,6.985864,4.144196,0
3386070036,-0.029085,-0.941012,0.407981,0.989727,8.320992,5.731054,0
3386103370,0.068548,-0.912982,0.35483,0.367651,5.598443,3.36432,0
3386136704,0.460094,-0.539959,-0.211505,-0.243377,2.814221,1.998506,0
3386170038,0.25753,-0.349729,-0.347834,-0.180784,0.353946,-0.051887,0
3386203372,-0.251061,0.335743,-0.115793,-1.076741,-2.563721,-2.403832,0
3386236706,-0.0502,-0.149487,0.033171,-0.349002,-4.173369,-0.076104,0
3386270040,0.170133,0.234529,-0.128675,-0.392517,-4.397753,-0.630503,0
3386303374,-0.639745,0.208641,-0.443575,-0.381614,-4.916264,-1.962885,0
3386336708,-0.181505,0.630474,-0.185583,0.300497,-3.75164,-1.600408,0
3386370042,-0.366898,0.36184,0.39399,-0.006846,-3.047387,-2.430698,0
3386403376,0.628541,0.139178,0.160983,0.288958,-2.932091,-1.338362,0
3386436710,-0.783416,0.620027,0.086004,0.714479,-1.445759,-0.053652,0
3386470044,-1.044712,0.408325,-0.293281,0.26555,1.407622,0.372258,0
3386503378,0.197141,-0.081985,-0.057527,0.528274,4.298008,1.681986,0
3386536712,0.552164,-0.638713,0.564997,0.005109,6.455774,4.497907,0
3386570046,0.296183,-0.741724,-0.045453,-0.246828,6.821645,4.121712,0
3386603380,0.152399,-0.332903,-0.329203,0.198983,4.691316,2.331496,0
3386636714,-0.244435,0.23805,0.389581,0.377317,2.889639,0.282123,0
3386670048,-0.31158,0.168163,-0.093521,0.233888,-0.566991,-2.918534,0
3386703382,-0.35587,0.114004,-0.282335,0.525808,-2.509538,-2.453027,0
3386736716,-0.115746,0.065898,-0.048083,-0.606778,-5.011273,-2.575863,0
3386770050,-0.253618,-0.027811,-0.044391,-0.299382,-5.940403,-2.011444,0
3386803384,-0.055044,-0.102166,-0.188415,-0.573538,-6.133088,-1.478508,0
3386836718,0.860316,-0.202469,-0.11276,-0.030471,-4.899168,-1.011045,0
3386870052,0.120039,0.015249,0.052312,0.168859,-3.91376,-0.726441,0
3386903386,-0.666197,0.133366,0.460488,0.583732,-1.22729,0.146853,0
3386936720,0.185965,-0.330098,0.3669,0.726364,0.82112,0.8267,0
3386970054,-0.067172,0.011861,0.365257,0.702336,4.271475,2.804727,0
3387003388,-0.471613,0.030316,0.604011,0.158805,7.622666,4.592605,0
3387036722,-0.088129,-0.184844,0.454308,-0.071442,7.547798,4.089166,0
3387070056,-0.056151,-0.233803,0.147799,0.079599,5.034343,2.941811,0
3387103390,0.209346,-0.467319,0.4764,0.370785,1.954811,1.626854,0
3387136724,0.160846,-0.343581,0.331673,0.177552,-0.86168,-1.132506,0
3387170058,-0.107142,-0.002189,-0.020353,0.061831,-2.631789,-1.441508,0
3387203392,-0.021923,0.396016,-0.426617,-0.027494,-3.714389,-1.320957,0
3387236726,0.538064,0.429122,0.085723,-0.043484,-5.030692,-1.325602,0
3387270060,-0.020768,0.927891,0.577236,0.097965,-4.183767,-0.651692,0
3387303394,-0.138281,1.085565,-0.120176,-0.188676,-3.679091,-1.341187,0
3387336728,0.251696,0.528731,-0.396685,-0.264884,-3.065206,-0.971092,0
3387370062,0.021424,0.247848,-0.131895,-0.121949,-2.142562,-0.154174,0
3387403396,0.294499,0.00899,0.131969,-0.04338,-1.147027,0.028361,0
3387436730,0.039762,-0.02011,0.354378,0.228374,0.61203,0.802319,0
3387470064,-0.234429,-0.282734,0.736735,0.24875,1.498257,1.048916,0
3387503398,-0.699156,0.200787,1.214511,-0.026229,3.56442,1.981535,0
3387536732,-0.781672,0.065334,1.257068,-0.228033,4.897855,3.66257,0
3387570066,-0.570494,-0.02971,0.530087,-0.544749,5.075629,3.627296,0
3387603400,-0.349557,0.358544,-0.365866,-0.629954,5.35447,3.682123,0
3387636734,-0.570537,0.605562,-0.643213,-0.119715,4.390744,2.266875,0
3387670068,0.143932,0.039016,0.089992,-0.034687,2.533254,0.782743,0
3387703402,0.34583,0.114309,-0.084511,0.110659,0.920331,-0.355492,0
3387736736,0.071954,0.443462,-0.515006,-0.386035,-1.657385,-1.678622,0
3387770070,-0.099505,0.669845,-0.671468,-0.658601,-3.513606,-1.158815,0
3387803404,-0.127694,0.66888,-0.230998,-0.516422,-4.237618,-0.742034,0
3387836738,0.028779,0.516162,0.368828,-0.882657,-4.58508,-0.919924,0
3387870072,0.502445,0.019234,0.311212,-0.243597,-3.515347,-0.994305,0
3387903406,0.496989,0.046945,-0.16621,-0.184259,-3.173112,-0.901983,0
3387936740,0.446266,-0.486228,0.077859,0.44936,-1.779727,0.454658,0
3387970074,0.489737,-0.481819,0.29188,-0.390129,-1.711453,1.157397,0
3388003408,-0.361115,-0.290699,0.451533,-0.535213,-1.910973,0.243967,0
3388036742,-0.058397,-0.061183,0.450305,0.362991,0.476049,0.750862,0
3388070076,0.519268,0.082407,0.090794,0.637478,1.326883,1.806973,0
3388103410,0.098988,0.038705,1.034071,1.202611,3.795944,2.630401,0
3388136744,0.514651,-0.42269,0.603661,0.745681,4.042358,2.232137,0
3388170078,-0.282965,0.090753,-0.669469,-0.011598,3.807867,2.218402,0
3388203412,-0.708817,0.383357,0.352519,0.257779,3.443803,2.002733,0
3388236746,-0.526822,0.612195,0.698576,-0.144802,1.689611,1.073294,0
3388270080,-0.321919,0.578141,0.875469,0.154283,0.518378,1.658025,0
3388303414,-0.457401,0.657697,0.883335,0.236561,-1.965078,1.291047,0
3388336748,0.554817,0.395666,0.139582,0.348297,-1.477865,0.956662,0
3388370082,0.850394,-0.287435,1.002845,0.275396,-2.561997,0.475665,0
3388403416,-0.202138,0.315845,0.703621,0.270746,-2.597332,0.358048,0
3388436750,-0.600883,0.845248,-0.003697,0.396705,-1.082961,-0.790942,0
3388470084,-0.229602,0.178803,0.240986,-0.28285,-2.494741,-1.200503,0
3388503418,-0.372662,0.51673,-0.358855,-0.022195,-1.633661,-0.993568,0
3388536752,0.28004,0.147957,-0.600584,-0.381089,-2.557183,-0.45573,0
3388570086,0.330035,-0.217295,-0.033687,-0.368636,-2.63849,-0.367094,0
3388603420,-0.054296,0.028703,-0.010653,-0.303631,-1.324854,-0.20512,0
3388636754,0.092259,0.110617,-0.348692,0.070812,0.16499,0.076267,0
3388670088,-0.127344,-0.042944,0.068831,0.200394,1.264101,0.879708,0
3388703422,0.026008,0.081665,-0.051087,0.041717,3.145016,1.326854,0
3388736756,0.007321,0.098407,0.022521,-0.050723,4.581872,2.406689,0
3388770090,-0.970695,0.267247,0.377722,0.015171,4.136014,2.984299,0
3388803424,-0.024891,-0.143984,0.222342,0.181047,3.53871,1.648511,0
3388836758,0.208713,-0.153654,0.014091,0.087135,2.431793,0.976944,0
3388870092,-0.253596,0.252909,0.087739,-0.077985,-0.200926,0.19754,0
3388903426,-0.119351,-0.105366,0.040545,0.025446,-1.187066,-1.002155,0
3388936760,-0.195445,0.145387,0.022178,0.227729,-1.297729,-1.436067,0
3388970094,-0.646315,0.160235,-0.10304,-0.118763,-2.962028,-2.122687,0
3389003428,-0.307959,0.229718,0.319148,-0.109834,-3.166083,-2.229419,0
3389036762,-0.90888,0.601833,0.388355,-0.188938,-2.967457,-1.870848,0
3389070096,-0.134987,0.003356,-0.250345,0.04659,-3.352582,-1.226442,0
3389103430,0.232252,0.054908,-0.592395,-0.095179,-2.448855,-1.511454,0
3389136764,0.428601,-0.188916,-0.474656,1.139798,-0.816871,-0.052148,0
3389170098,0.137833,-0.227496,0.053426,0.550403,0.14923,0.014394,0
3389203432,0.001774,-0.660827,0.068769,0.409433,0.973536,0.665059,0
3389236766,0.42063,-0.594105,-0.100366,0.145372,2.505649,1.230592,0
3389270100,0.279139,-0.376542,0.244227,0.270858,3.906456,2.527045,0
3389303434,0.038516,-0.754256,0.166367,0.182464,3.767199,2.61405,0
3389336768,-0.219115,-0.366539,-0.422096,0.096063,2.787355,2.013525,0
3389370102,-0.208555,-0.19364,0.257749,0.34377,1.441773,1.043797,0
3389403436,0.076339,-0.405723,0.559407,0.485506,-0.199345,0.287207,0
3389436770,0.121793,-0.32768,-0.116653,0.332754,-0.872644,-1.215563,0
3389470104,-0.149693,-0.113047,0.014345,0.033593,-1.913391,-2.178303,0
3389503438,0.174368,-0.58885,0.033756,0.020193,-3.21477,-2.327634,0
3389536772,0.587954,-0.255948,-0.483776,0.037186,-3.121067,-1.911898,0
3389570106,-0.341051,0.142259,0.153484,-0.528943,-3.412135,-1.937115,0
3389603440,-0.910329,-0.617512,0.458684,-0.673168,-2.476565,-2.005298,0
3389636774,-0.474392,-0.518614,-0.414044,-0.600428,-2.653148,-0.901431,0
3389670108,-0.023638,-0.291829,-0.623603,-0.356886,0.079468,0.551769,0
3389703442,-0.267294,-0.248072,0.416139,-0.440657,2.456735,1.567407,0
3389736776,-0.681122,-0.306599,0.434309,-0.319747,4.19499,3.318225,0
3389770110,-0.386092,-0.205987,-0.211713,-0.30702,4.09154,2.955004,0
3389803444,-0.180523,0.051236,0.304628,-0.00691,3.500754,1.980174,0
3389836778,0.521483,-0.259317,-0.953498,0.480831,2.337967,0.85742,0
3389870112,0.819009,0.088624,-0.924443,0.11431,0.028371,-0.354581,0
3389903446,0.075802,0.484335,-0.156871,-0.004692,-0.960657,-0.987503,0
3389936780,0.871596,0.546712,-0.012162,-0.072572,-1.720837,-2.036621,0
3389970114,1.243681,1.116036,-0.24135,0.065369,-1.925019,-2.852467,0
3390003448,0.601385,0.256785,-0.144397,0.51616,-2.295274,-2.631049,0
3390036782,0.051773,0.149205,0.153805,0.389782,-3.023725,-2.60383,0
3390070116,0.05006,-0.360035,-0.166568,0.405846,-2.825526,-2.688017,0
3390103450,-0.262497,-0.251286,0.249625,0.304143,-3.432743,-2.103198,0
3390136784,-0.138472,-0.198697,0.347454,0.242995,-3.499672,-2.225358,0
3393103510,0.167366,0.575943,0.027257,-0.377399,-1.158298,-2.838986,0
3393136844,0.062347,0.647611,0.005478,0.059267,-0.523583,-2.111399,0
3393170178,-0.41301,0.80215,0.439983,0.202133,-0.102346,-1.074086,0
3393203512,0.606459,0.429769,0.386101,-0.645087,-0.438359,-1.159154,0
3393236846,0.967539,0.607649,0.286571,0.329785,-0.765309,0.247726,0
3393270180,0.276302,0.241877,0.206388,0.506019,-0.108008,-0.087579,0
3393303514,-0.106401,0.13156,0.094203,0.25902,0.129974,0.252041,0
3393336848,-0.329992,-0.42792,0.190928,0.736758,0.585069,0.125161,0
3393370182,-0.030321,-0.538254,0.382526,-0.483366,0.629709,-1.109584,0
3393403516,0.273609,-0.302304,0.239904,-0.057451,-0.448039,-1.311005,0
3393436850,0.185728,0.019343,0.022606,0.277355,-1.058437,-1.28257,0
3393470184,0.259129,0.420115,0.02363,-0.735312,-2.27991,-3.050179,0
3393503518,0.552661,1.25726,0.178593,-0.253152,-3.512295,-4.096016,0
3393536852,0.745348,1.692885,0.272491,-0.100025,-5.088864,-5.338826,0
3393570186,0.795932,0.530259,-0.689503,0.447788,-3.637887,-4.78228,0
3393603520,-0.007099,0.153289,-0.561504,0.025872,-1.799593,-3.64751,0
3393636854,-0.382632,-0.782627,-0.49654,1.386394,1.028877,-0.173748,0
3393670188,0.405526,-0.453936,-0.275883,1.195473,3.28341,2.271959,0
3393703522,0.678712,-0.500504,0.524448,0.99353,5.373672,5.382412,0
3393736856,0.700423,-0.39738,-0.235212,1.472206,6.206014,6.160303,0
3393770190,-0.060363,0.299537,-0.246407,0.838183,5.477009,4.351177,0
3393803524,-1.055653,-0.216994,0.035001,0.958484,3.792427,2.202089,0
3393836858,-1.149003,0.647178,0.573371,-0.048575,1.977922,0.272654,0
3393870192,0.528158,-0.257246,-0.227708,-0.426336,-0.8354,-1.549369,0
3393903526,1.301675,-0.200422,-0.626084,-0.638688,-2.794401,-0.769916,0
3393936860,-0.451261,-0.289241,0.225558,-1.534224,-4.188591,-2.195791,0
3393970194,-0.16184,-0.216997,-0.387802,-1.248401,-4.896102,-2.409824,0
3394003528,-0.098232,0.676895,-0.020904,-0.749736,-5.426466,-3.078043,0
3394036862,-0.109597,-0.640661,0.028172,-0.20962,-6.057663,-3.406089,0
3394070196,0.422721,-0.130293,0.072649,0.35282,-4.121676,-3.258726,0
3394103530,0.869083,-0.35104,0.104106,0.565288,-3.129155,-2.232209,0
3394136864,0.169048,-0.792465,-0.514896,1.021672,1.371481,0.275233,0
3394170198,-0.226268,-0.872098,0.363026,0.60295,5.727108,3.347329,0
3394203532,-0.607454,-0.789283,-0.153501,-0.080869,8.280592,6.260235,0
3394236866,0.073947,-0.576643,0.553414,-0.014115,8.751912,5.267874,0
3394270200,-0.337805,-0.564164,0.558679,-0.039934,5.574631,2.897233,0
3394303534,-0.575637,-0.064699,-0.204306,0.231352,2.963729,1.350093,0
3394336868,-0.681299,0.763971,0.181783,-0.118535,-0.215758,-1.536465,0
3394370202,-0.66832,0.273254,0.281333,-0.102139,-3.347646,-1.615878,0
3394403536,-0.863777,0.436408,0.044469,-0.441388,-4.231639,-3.199352,0
3394436870,-0.01054,0.294282,-0.297225,-0.073916,-5.632441,-1.376855,0
3394470204,0.312813,-0.204743,-0.576369,-0.193102,-5.502129,-1.53089,0
3394503538,0.233042,0.121017,0.077812,-0.186034,-4.557862,-2.294447,0
3394536872,0.075428,0.22786,0.252216,-0.430645,-4.727972,-2.620929,0
3394570206,-1.120278,0.626751,-0.30219,0.599151,-3.622301,-1.880959,0
3394603540,-1.177319,0.891777,0.138056,1.084736,-1.186864,-1.372688,0
3394636874,-1.821745,0.850388,0.345276,1.099989,3.071167,1.041619,0
3394670208,-0.91288,0.499935,-0.325191,1.095911,6.486178,3.66658,0
3394703542,0.522496,-0.275584,0.227632,0.09295,8.835514,4.358297,0
3394736876,1.124567,-1.140183,-0.219946,-0.211851,7.764353,3.100182,0
3394770210,0.930834,-0.684523,-0.222751,0.470487,5.137708,1.997055,0
3394803544,0.695947,-0.88882,-0.19195,0.380354,2.19646,0.318753,0
3394836878,0.497744,-0.096447,-0.479777,0.136747,-0.762102,-0.752548,0
3394870212,-0.98911,0.666466,0.49431,-1.029435,-3.341325,-2.522299,0
3394903546,-0.986347,0.167206,0.209552,-0.653015,-5.225024,-1.01414,0
3394936880,0.446956,0.140791,-0.00429,-1.23274,-6.708618,-0.895543,0
3394970214,0.067177,0.233267,0.745726,-0.49903,-5.563811,-1.949553,0
3395003548,0.042205,-0.383803,-0.21555,0.002253,-4.049238,-2.926518,0
3395036882,0.549642,-0.022114,-0.259733,0.541458,-4.170845,-2.417619,0
3395070216,0.145857,0.167217,0.377077,0.842757,-0.877785,-0.771193,0
3395103550,-0.402218,0.135298,0.599507,0.941754,0.599644,-0.105124,0
3395136884,-0.322873,-0.018281,0.429835,0.845674,4.250149,3.291029,0
3395170218,-0.472909,0.095381,0.496068,-0.342575,5.748888,4.700462,0
3395203552,-0.589072,0.08938,0.789147,-0.71632,5.974382,4.90407,0
3395236886,-0.135134,-0.411922,0.443406,-0.712503,4.220201,4.069815,0
3395270220,0.291419,-0.572119,0.370482,-0.034472,3.162667,2.467194,0
3395303554,0.193766,-0.834517,0.3838,0.345266,1.823348,-0.074386,0
3395336888,0.20611,-0.482405,-0.476698,0.484777,-0.259252,-2.299941,0
3395370222,0.435605,0.063417,-0.357554,0.122612,-2.187911,-2.163483,0
3395403556,0.227126,0.127968,0.293177,-0.296924,-3.740914,-2.066376,0
3395436890,0.094361,0.144327,-0.090872,-0.276239,-5.18048,-1.969593,0
3395470224,-0.217748,0.705017,-0.485149,-1.071376,-6.716022,-0.586931,0
3395503558,-0.416159,0.681179,-0.366861,-0.307948,-5.736862,-0.781806,0
3395536892,0.730711,-0.0766,0.158724,0.110939,-5.043893,-0.57024,0
3395570226,0.459102,0.219355,-0.300087,0.775485,-2.604747,-0.866543,0
3395603560,-0.968118,0.626334,-0.03009,1.561237,0.820693,0.614,0
3395636894,0.534424,-0.233393,0.734798,0.947216,4.299984,2.520267,0
3395670228,-0.515469,0.088262,0.165101,-0.264866,7.87521,3.534656,0
3395703562,-0.363746,-0.309424,0.443694,-0.567945,7.918688,3.747492,0
3395736896,0.427663,-0.628389,0.578531,-0.685478,6.098704,3.299821,0
3395770230,0.338423,-0.315641,-0.307235,-0.517291,3.236884,2.787896,0
3395803564,-0.028555,-0.083183,-0.214942,-0.317794,1.041498,1.373863,0
3395836898,0.244023,0.098184,0.054364,-0.137755,-0.469473,-0.571784,0
3395870232,0.296203,0.220818,0.170813,0.090612,-1.913517,-1.376677,0
3395903566,0.616613,0.076423,-0.172941,-0.030437,-3.784227,-1.635445,0
3395936900,0.891303,-0.164549,-0.25327,0.160628,-4.217006,-1.64114,0
3395970234,0.109646,0.458081,-0.558357,0.226344,-4.355227,-1.528149,0
3396003568,-0.403655,0.875274,-0.352822,0.112008,-4.424708,-2.137905,0
3396036902,-0.613976,0.640616,0.621414,0.340142,-3.664073,-1.632338,0
3396070236,-0.218653,0.281285,0.999569,0.491338,-3.54876,-1.002159,0
3396103570,-0.67425,0.583542,0.347132,0.598962,-1.548197,-0.02067,0
3396136904,-0.567612,0.290935,0.556904,0.500345,-0.260146,0.242263,0
3396170238,-0.374393,0.044718,0.62451,0.923013,2.389103,1.788809,0
3396203572,-0.134677,-0.202138,0.679859,-0.418576,4.323413,3.613122,0
3396236906,-0.486371,0.059162,0.265017,-0.091414,5.175369,2.595647,0
3396270240,-0.140227,0.043784,-0.062688,-0.592797,5.572292,2.426053,0
3396303574,0.250198,-0.12788,-0.205923,-0.645494,4.95989,2.05274,0
3396336908,0.405752,-0.032598,-0.136264,-0.133223,3.523571,0.866695,0
3396370242,0.120554,-0.050286,-0.021637,-0.66972,1.622405,0.71377,0
3396403576,-0.138627,0.163473,-0.05477,-0.767968,0.246338,0.451142,0
3396436910,0.122764,0.06627,-0.059807,-0.478792,-0.406935,-0.412128,0
3396470244,0.00395,0.047784,0.120512,-0.338187,-1.42746,-0.948458,0
3396503578,-0.094214,0.195871,0.412898,-0.122857,-2.31468,-1.185412,0
3396536912,0.037199,0.286908,0.168364,-0.149219,-2.993767,-0.364866,0
3396570246,0.048737,0.583042,-0.147073,-0.253261,-3.482043,0.280101,0
3396603580,0.155852,0.67229,-0.366287,-0.155159,-3.747591,-0.696293,0
3396636914,1.067359,0.362645,-0.693042,-0.011333,-3.450902,-1.012786,0
3396670248,-0.671044,1.270383,-0.295138,0.128619,-1.836222,-0.15907,0
3396703582,-0.196078,0.709093,0.767803,0.515782,-2.87078,-0.336915,0
3396736916,0.297398,0.087433,0.270033,0.835548,-0.113232,0.891674,0
3396770250,0.324838,-0.106266,-0.387646,0.645373,2.060503,1.031418,0
3396803584,0.128971,-0.165089,-0.553352,0.210932,3.798487,2.109824,0
3396836918,0.341354,-0.491215,-0.134848,-0.402362,5.07437,2.168036,0
3396870252,0.079431,-0.340454,0.377591,-0.500864,4.767933,1.958568,0
3396903586,-0.190358,0.29408,-0.210558,-0.051076,4.616735,2.309781,0
3396936920,-0.151676,0.824666,-0.875271,0.00768,3.490968,2.418915,0
3396970254,-0.422615,0.280771,0.639576,0.433059,0.399156,1.844268,0
3397003588,-0.350768,0.043319,1.101086,0.36324,-2.012315,1.675079,0
3397036922,-0.654523,0.26204,0.74387,0.098411,-2.741139,-0.214084,0
3397070256,-0.064237,-0.120597,0.891576,-0.63141,-3.514375,-1.144448,0
3397103590,0.366253,-0.310603,1.330624,-0.968465,-4.278812,-1.656382,0
3397136924,0.39459,-0.040392,0.638064,-0.870658,-4.292872,-2.018235,0
3397170258,-0.275038,0.611949,0.851639,-0.319756,-5.109317,-1.821852,0
3397203592,-0.681793,0.7716,1.541044,0.446053,-4.04893,-1.02623,0
3397236926,0.743612,-0.041325,1.085691,0.153412,-2.084917,-0.120886,0
3397270260,0.241202,0.075155,0.291994,0.73152,0.464739,2.089809,0
3397303594,-0.308687,0.13081,-0.149426,-0.058181,2.290249,1.944238,0
3397336928,-0.197691,-0.095845,-0.085485,-0.049006,4.296321,3.152848,0
3397370262,-0.089461,-0.233578,0.17491,-0.149204,5.878465,3.76702,0
3397403596,-0.331494,-0.027305,-0.254301,-0.267363,6.335268,2.834209,0
3397436930,0.08437,-0.049162,-0.566364,-0.134462,4.699699,2.198136,0
3397470264,0.292773,-0.062771,-0.388333,0.105805,2.697064,0.673597,0
3397503598,-0.484714,0.568728,-0.163092,0.089959,0.339225,-0.430225,0
3397536932,0.157154,0.508922,-0.297762,0.674845,-0.834679,-0.751203,0
3397570266,-0.248746,0.259718,-0.068782,0.450069,-2.328132,-1.844495,0
3397603600,-0.635125,0.186379,0.188026,0.039121,-2.796295,-2.618316,0
3397636934,-0.435124,-0.153683,0.108268,0.120539,-3.823127,-2.072006,0
3397670268,-0.201223,-0.12809,0.271645,-0.412817,-4.410305,-2.779621,0
3397703602,0.4547,-0.125401,-0.124761,-0.404384,-4.523127,-1.308859,0
3397736936,-0.146132,0.129444,-0.645499,0.063477,-2.627796,-0.885604,0
3397770270,0.715115,0.476662,0.086501,0.294846,-2.11311,-0.546335,0
3397803604,0.484103,-0.016984,0.041362,0.718703,-0.53612,0.363861,0
3397836938,0.465675,-0.305842,-0.25274,0.675693,1.389778,0.615706,0
3397870272,0.733201,-0.357994,0.165311,0.208624,2.470622,1.822933,0
3397903606,0.072523,-0.440418,0.405123,-0.14912,4.431344,2.861136,0
3397936940,-0.225547,-0.660106,-0.359409,-0.48972,5.14188,3.045829,0
3397970274,0.217778,-0.334563,-0.01882,-0.483592,4.387482,3.073786,0
3398003608,-0.023755,-0.179729,0.56752,-0.230058,2.668177,1.547588,0
3398036942,-0.051281,-0.244209,0.187212,0.287149,1.039236,0.434665,0
3398070276,-0.204987,0.362931,-0.220907,0.908753,-0.298563,-0.46364,0
3398103610,-0.34129,0.077079,0.179132,1.11985,-1.589347,-1.005167,0
3398136944,0.055816,-0.03939,0.060452,1.036151,-2.139989,-1.433814,0
3398170278,-0.543641,0.311823,0.035337,0.504415,-3.106525,-2.344618,0
3398203612,-0.354976,0.029702,-0.00831,0.022757,-3.461807,-2.883639,0
3398236946,0.167719,-0.152444,-0.729031,-0.254153,-3.248451,-3.027078,0
3398270280,-0.080371,-0.039465,0.174845,-0.559769,-3.938784,-2.917459,0
3398303614,-0.216658,-0.520829,0.674513,0.228594,-2.915422,-1.596673,0
3398336948,0.374823,-0.360785,-0.263825,-0.030476,-1.932147,-0.854461,0
3398370282,0.298933,-0.05393,-0.212654,-0.262973,-0.320857,0.130306,0
3398403616,0.02698,-0.324421,0.092783,-0.354645,3.824781,2.087873,0
3398436950,0.036722,-0.335934,0.136797,-0.60514,5.649673,4.01082,0
3398470284,0.676002,-0.472162,-0.108717,-0.503414,5.9593,3.696523,0
3398503618,1.125141,-0.470936,-0.32908,-0.934749,4.654253,3.157302,0
3398536952,0.414356,-0.50919,-0.242137,-0.283584,2.938413,2.303222,0
3398570286,-0.598365,-0.389645,0.020996,-0.32739,0.658574,0.965023,0
3398603620,-0.367119,-0.185795,0.16578,-0.444962,-0.808659,-0.14775,0
3398636954,-0.662038,0.358176,-0.070278,-0.350894,-1.732479,-0.897341,0
3398670288,-0.698155,0.475074,0.175557,-0.289042,-2.280961,-1.748727,0
3398703622,-0.313126,0.036023,0.305563,-0.145455,-2.784837,-1.716115,0
3398736956,-0.053471,0.05233,-0.311648,0.094136,-2.955884,-2.252048,0
3398770290,-0.006756,-0.092344,-0.490491,0.169703,-3.012611,-3.043875,0
3398803624,0.256907,-0.358975,-0.399996,0.067994,-3.13251,-2.687196,0
3398836958,-0.02467,-0.120534,0.034919,0.140161,-2.835999,-2.375246,0
3398870292,0.32189,-0.142906,0.066639,0.323322,-2.181921,-1.604346,0
3398903626,0.077585,-0.326099,0.398589,0.348572,-0.790991,-0.394209,0
3398936960,0.239296,-0.486437,0.225198,0.246132,0.860482,0.122083,0
3398970294,0.526169,-0.729558,-0.249874,0.449878,2.871798,2.030922,0
3399003628,0.54998,-0.342644,-0.152558,0.55114,5.08366,3.310045,0
3399036962,0.085876,-0.24531,0.007192,0.450257,4.336611,2.748047,0
3399070296,0.213774,-0.372958,-0.022873,0.555175,3.027372,2.058963,0
3399103630,-0.527884,0.185836,0.413545,0.386986,1.936731,1.531648,0
3399136964,-0.436798,-0.070777,0.27377,0.158583,1.016777,1.091822,0
3399170298,-0.392832,-0.296426,0.249805,-0.037156,-0.375016,0.432667,0
3399203632,-0.655211,-0.195902,-0.400352,-0.24251,-1.057786,-0.203421,0
3399236966,-0.133039,-0.209179,-0.415136,-0.64692,-0.940377,-1.333361,0
3399270300,0.325689,-0.175244,-0.099361,-0.584236,-1.414537,-2.337298,0
3399303634,0.548115,-0.186356,-0.600067,-0.736346,-1.78706,-3.322906,0
3399336968,-0.015441,-0.023001,-0.286811,-0.356395,-2.242847,-3.262676,0
3399370302,-0.65015,0.132496,-0.352865,0.317806,-3.065658,-1.876987,0
3399403636,-1.952706,-0.583559,-0.483831,0.09087,-3.572352,-1.813087,0
3399436970,-0.693854,-0.844721,-0.359416,0.468176,-1.897907,-1.515186,0
3399470304,-1.357738,1.853219,-1.005697,0.441008,-2.431241,-1.078138,0
3399503638,0.076329,-0.164058,4.87019,0.324791,-1.01979,-1.430483,0
3402903706,-0.154016,-0.819803,-0.12792,0.555429,4.370544,2.51567,0
3402937040,0.271124,-0.256249,0.113048,0.154792,2.443198,1.537048,0
3402970374,0.704493,-0.306762,0.115931,-0.024904,0.660619,0.657823,0
3403003708,-0.121782,-0.161263,0.284152,-0.860449,-0.999794,-0.933721,0
3403037042,0.126015,0.315419,-0.028152,-0.365553,-1.486314,-1.357411,0
3403070376,-0.715165,0.143962,-0.087185,-1.630822,-2.824674,-2.430722,0
3403103710,-1.379136,-0.682643,0.154348,-0.535936,-3.595326,-1.4744,0
3403137044,-0.807249,-0.362895,-0.045369,-0.773885,-3.786791,-1.647294,0
3403170378,-0.526781,-0.248681,-0.30856,-0.879485,-3.979239,-3.03147,0
3403203712,0.516066,-0.331791,0.006462,0.059426,-2.820356,-3.513393,0
3403237046,0.91372,-0.249802,0.27079,0.283404,-2.086716,-3.112205,0
3403270380,0.683283,-0.607515,0.055194,0.635111,-1.374214,-1.737455,0
3403303714,0.373228,-0.404203,0.531511,1.422516,1.487947,0.501482,0
3403337048,0.188619,-0.562957,-0.18396,1.479306,3.231334,2.888314,0
3403370382,0.271209,-0.453562,-0.005898,1.398827,5.56432,4.221804,0
3403403716,0.333352,-0.494492,0.062257,0.809568,5.859417,4.577832,0
3403437050,-0.47333,-0.05775,-0.14663,0.439892,4.507115,3.20818,0
3403470384,-0.294366,-0.251659,0.154853,0.139058,2.719791,2.581532,0
3403503718,0.294526,-0.285092,-0.385681,0.268619,1.41515,1.227793,0
3403537052,0.219475,0.459042,-0.027129,0.033812,0.913822,-0.369906,0
3403570386,0.031782,0.015508,-0.08102,-0.331894,-0.692173,-1.197195,0
3403603720,0.004394,0.334994,0.10797,-0.721834,-1.668171,-1.564245,0
3403637054,-0.380177,-0.229044,0.123652,-0.980849,-3.107582,-1.336108,0
3403670388,0.275338,-0.399816,-0.06057,-0.715421,-3.994388,-0.703961,0
3403703722,0.235113,0.017126,0.25269,-0.814284,-3.835685,-1.398925,0
3403737056,0.134606,0.054875,0.363267,-0.955739,-4.087884,-2.670889,0
3403770390,0.105266,0.082623,0.07094,-0.575069,-3.423789,-2.190524,0
3403803724,-0.437099,0.373037,0.122098,0.050706,-2.235105,-1.880074,0
3403837058,-0.382908,-0.009319,0.067559,0.598241,-0.151249,-0.384207,0
3403870392,-0.401913,-0.017859,0.521414,1.61963,3.758846,2.128799,0
3403903726,0.25496,-0.6239,0.238318,1.394865,5.684307,3.94479,0
3403937060,0.579423,-0.917618,-0.349759,0.970781,6.84044,4.13899,0
3403970394,0.34981,-0.405363,0.147422,0.24923,5.530414,1.926673,0
3404003728,0.100328,-0.085021,0.102928,-0.243484,2.818563,0.34797,0
3404037062,-0.573014,0.313258,-0.317737,-0.321601,1.464397,-1.42315,0
3404070396,-0.220388,0.290689,0.215507,-0.271122,-0.719532,-2.435483,0
3404103730,-0.452123,0.074101,-0.009269,-0.826091,-3.943604,-2.891948,0
3404137064,0.095128,0.352671,-0.712183,-0.163887,-3.275287,-0.652846,0
3404170398,0.325379,0.357804,-0.701046,-0.533913,-6.803383,-1.380423,0
3404203732,0.225804,0.335991,-0.401115,-0.032068,-5.355029,-2.198058,0
3404237066,-0.467672,0.294911,0.43689,0.285055,-2.974358,-1.891836,0
3404270400,0.006807,-0.755657,-0.22889,1.048995,-1.517651,-1.349852,0
3404303734,0.405713,-0.359062,-0.014807,0.320285,1.13943,-2.039183,0
3404337068,0.127003,-0.645451,0.365527,0.146516,4.220047,0.931753,0
3404370402,0.162626,-0.770432,0.195829,-0.466621,4.955425,3.031589,0
3404403736,-0.410614,0.070236,0.551735,-0.51605,6.201009,4.6814,0
3404437070,-0.245338,0.208104,0.455887,-0.250008,4.726962,4.895895,0
3404470404,-0.305087,0.749928,-0.068257,0.363352,2.004319,2.634325,0
3404503738,-0.327646,0.600392,0.566046,0.306027,-1.322741,0.607988,0
3404537072,-0.224752,0.121184,-0.177497,0.235815,-2.976809,-0.182813,0
3404570406,0.054612,0.077912,-0.189002,-0.771114,-3.876354,-2.127026,0
3404603740,0.000401,-0.048421,0.1343,-1.116389,-5.385436,-2.794252,0
3404637074,-0.00775,0.394237,0.037251,-0.407034,-5.23004,-2.934581,0
3404670408,-0.155238,0.407637,-0.073878,0.036461,-4.565315,-2.839243,0
3404703742,0.083223,-0.251148,0.289859,0.709573,-2.888431,-1.336023,0
3404737076,0.466281,-0.646433,-0.109406,1.018992,-0.308547,0.378076,0
3404770410,-0.244741,-0.413407,-0.169392,-0.059599,3.605202,3.159806,0
3404803744,-0.379056,-0.499802,0.669826,-0.357392,7.15981,5.292524,0
3404837078,0.261997,-1.025932,0.303895,-0.747029,6.971228,5.253991,0
3404870412,-0.203989,-0.499011,0.476533,-0.10137,5.512127,3.362509,0
3404903746,-0.608921,-0.291454,1.04721,0.741016,2.79009,0.550246,0
3404937080,-0.336383,0.2167,-0.709432,0.64166,0.169093,-1.831562,0
3404970414,-0.210342,0.684172,-1.628635,0.164702,-2.608777,-2.543817,0
3405003748,0.068336,0.420905,0.484101,-0.254265,-4.600732,-3.060646,0
3405037082,-0.358283,0.735226,0.328051,-0.57614,-5.021585,-3.304358,0
3405070416,-0.580658,1.330199,-0.221756,-0.566618,-6.517976,-3.481799,0
3405103750,-0.861696,0.972575,0.221153,-0.269951,-4.982254,-2.554639,0
3405137084,0.570058,0.065523,0.409513,0.35423,-3.162279,-1.453591,0
3405170418,0.568569,-0.094653,0.12154,0.547189,-1.297129,0.41809,0
3405203752,0.514686,0.084757,-0.942272,-0.11328,1.674085,3.067768,0
3405237086,0.471452,-0.196071,-0.139198,-0.004483,5.411632,5.541872,0
3405270420,-0.026938,-0.292584,0.790291,-0.171184,6.28305,5.28674,0
3405303754,-0.663507,0.143503,0.684557,-0.277228,6.012423,4.253341,0
3405337088,-0.034724,-0.005663,0.258255,0.112423,4.156809,2.888772,0
3405370422,-0.081154,-0.377222,0.930655,0.422684,1.60155,0.829144,0
3405403756,-0.427069,-0.987865,1.779644,0.155657,-0.811575,-0.002336,0
3405437090,-0.341521,-1.17509,0.873341,0.092001,-2.082903,-1.183284,0
3405470424,0.247559,-0.724923,-0.770162,0.126883,-2.721208,-2.232208,0
3405503758,0.937473,-0.581835,-0.128376,-0.013672,-3.67456,-3.383096,0
3405537092,0.597891,0.440123,0.633304,-0.018275,-4.534561,-3.097054,0
3405570426,0.274689,1.198776,-0.429804,-0.129609,-4.231466,-2.494931,0
3405603760,0.190775,1.404795,-0.839383,-0.616314,-4.426506,-1.471149,0
3405637094,0.007107,0.846794,-0.801493,-0.424969,-2.909457,0.508535,0
3405670428,-0.591504,-0.719397,-0.944669,-0.615569,0.858674,2.505585,0
3405703762,-0.28803,-0.445011,-1.082013,-1.016042,4.636143,3.491037,0
3405737096,1.307294,1.790574,0.864159,-0.574499,6.466581,6.087909,0
3405770430,0.740005,-0.177158,0.592598,0.783383,4.869506,1.744565,0
3405803764,-0.419694,0.650079,0.179132,1.144583,3.716256,1.743314,0
3405837098,-0.371141,0.435991,-0.334139,0.734486,1.686798,1.174806,0
3405870432,-0.184715,0.623955,0.059588,0.166387,1.310094,0.783021,0
3405903766,-0.03891,0.531407,0.087935,-0.287917,1.101111,1.605156,0
3405937100,-0.165155,0.508267,-0.028728,-0.547002,-0.099918,0.979842,0
3405970434,0.308278,0.290907,-0.06484,-0.769919,-0.655379,-0.491956,0
3406003768,0.468601,0.13183,-0.1278,-0.593209,-1.105781,-1.093469,0
3406037102,0.422646,-0.019879,-0.090676,-0.525894,-2.028444,-1.860414,0
3406070436,0.236338,0.213777,-0.024594,-0.33687,-2.532185,-2.292033,0
3406103770,0.042082,0.135672,0.219719,-0.110742,-2.891489,-2.589057,0
3406137104,-0.293978,0.288106,0.179427,-0.159338,-2.813673,-2.512511,0
3406170438,0.103261,0.299671,-0.00755,0.257978,-2.357349,-0.697113,0
3406203772,-0.434487,0.106472,-0.246382,-0.381742,-1.918313,0.222208,0
3406237106,0.218614,0.170118,0.422828,0.217643,-0.573514,2.473267,0
3406270440,0.440119,0.25684,0.634094,-0.187072,1.463942,3.53165,0
3406303774,-0.614333,0.806604,0.591508,0.485949,3.668149,3.119111,0
3406337108,-0.718389,0.608031,0.602933,0.410075,5.089103,3.46508,0
3406370442,-0.295865,0.524648,1.031274,-0.169563,4.362336,3.622023,0
3406403776,-0.103113,0.694557,0.8404,-0.15829,2.648807,2.155562,0
3406437110,0.509332,0.077614,1.486678,-0.336251,0.859151,1.887607,0
3406470444,-0.062474,0.272121,1.837998,-0.094678,-2.296013,3.336111,0
3406503778,0.133554,0.146965,1.077973,0.982039,-1.245276,0.350619,0
3406537112,-0.429922,-0.094473,0.647567,-0.016349,-3.236641,-1.804569,0
3406570446,-0.241652,-0.145003,0.18646,0.466008,-3.812191,-1.843756,0
3406603780,0.273564,-0.181264,-0.638551,0.094632,-2.853722,-3.355087,0
3406637114,0.033711,0.035026,-0.277158,-0.577208,-3.912663,-2.854511,0
3406670448,0.155746,-0.193373,-0.619877,-0.249719,-1.279412,-1.669488,0
3406703782,0.249015,-0.323215,-0.299353,0.508623,1.314933,-0.341343,0
3406737116,0.177006,-0.525279,0.331714,-0.034513,1.962107,0.990311,0
3406770450,0.318731,-0.655293,-0.283747,0.218991,4.935849,2.877525,0
3406803784,0.364135,-0.307812,-0.09939,-0.231385,4.407425,4.334988,0
3406837118,-0.021181,-0.225001,-0.044759,-0.163569,2.813549,3.711903,0
3406870452,0.505326,-0.511663,-0.057427,0.450397,1.767889,1.974317,0
3406903786,-0.06445,-0.450736,0.098801,0.268348,-0.084762,0.733899,0
3406937120,-0.417971,-0.061431,0.217722,0.117813,-1.39975,-1.382309,0
3406970454,-0.317151,-0.004044,0.52056,0.119328,-1.590098,-2.386476,0
3407003788,-0.064479,-0.041287,-0.222001,-0.389037,-3.356563,-2.411297,0
3407037122,0.145,0.022123,-0.818588,-0.679404,-4.076252,-3.269405,0
3407070456,-0.040086,0.302257,0.092695,-0.28919,-3.250894,-3.121682,0
3407103790,-0.768811,0.392978,0.598641,0.373549,-2.029817,-1.375847,0
3407137124,-0.33098,0.069186,-0.153626,0.249726,-0.311261,-0.816297,0
3407170458,-0.273033,0.403127,-0.157675,0.752307,1.719238,1.023574,0
3407203792,0.197088,0.087079,0.297077,-0.594779,2.555062,3.324199,0
3407237126,0.346347,-0.180672,-0.145293,-0.454881,3.68251,3.455764,0
3407270460,0.279653,-0.093781,-0.637263,-0.15887,4.013698,3.75918,0
3407303794,0.375644,0.161447,-0.225792,-0.146165,2.934846,2.256294,0
3407337128,-0.114626,-0.101949,-0.203845,-0.234834,1.470945,0.98085,0
3407370462,-0.039895,-0.305867,-0.200162,-0.011049,0.154492,-0.161261,0
3407403796,-0.141798,0.070364,0.31694,0.178592,-1.064771,-1.037636,0
3407437130,0.046704,0.195787,0.39459,0.22311,-1.544553,-1.780625,0
3407470464,-0.111906,-0.186229,-0.180237,0.474314,-2.739911,-2.499076,0
3407503798,-0.532146,0.411968,0.051463,0.045591,-3.200316,-2.507584,0
3407537132,-1.110457,0.212119,0.225679,-0.071315,-3.416036,-2.242401,0
3407570466,-0.83314,-0.099338,-0.647918,-0.479805,-3.242475,-1.852644,0
3407603800,-0.242972,0.109076,-0.550279,-0.043154,-1.016165,-0.710196,0
3407637134,0.006955,-0.108533,0.143775,0.486929,0.852121,0.665193,0
3407670468,-0.325749,-0.441986,0.444988,0.395986,3.830542,1.941755,0
3407703802,-0.299263,-1.069655,-0.155506,0.314188,5.153604,2.799315,0
3407737136,0.140082,-0.442028,-0.289173,0.075756,4.725817,3.010391,0
3407770470,-0.281262,-0.374377,-0.126609,-0.019108,4.422925,2.286145,0
3407803804,0.52148,-0.699063,-0.378652,0.164282,2.367726,0.987263,0
3407837138,1.181735,-0.112883,0.06415,-0.502803,-0.907371,-0.129317,0
3407870472,0.674888,-0.204237,0.546268,-0.562231,-2.533255,-1.540056,0
3407903806,0.260778,-0.506247,-0.012337,0.262704,-1.064904,-2.392667,0
3407937140,-0.302612,-0.385738,-0.381132,-0.105911,-4.297768,-1.674365,0
3407970474,-0.594704,0.252294,-0.362248,-0.392254,-4.62434,-2.666627,0
3408003808,-0.038588,0.209028,-0.187286,-0.029167,-3.650031,-2.894329,0
3408037142,0.712018,-0.322059,-0.783156,0.30982,-3.829079,-2.225483,0
3408070476,1.137161,0.149183,-0.978849,0.358946,-2.421412,-1.974009,0
3408103810,0.25331,0.781635,0.311318,0.750871,0.03209,-0.430978,0
3408137144,-0.407761,-0.078524,0.909533,0.429743,2.148226,1.292768,0
3408170478,0.173346,-0.248144,0.399212,-0.43822,4.138279,3.490947,0
3408203812,0.791363,-0.189649,0.145309,-0.409131,5.032559,4.140135,0
3408237146,1.346661,-0.236581,0.209149,-0.314019,3.566856,2.58804,0
3408270480,0.595392,-0.344375,-0.087567,0.358422,2.451831,1.635633,0
3408303814,-0.700316,0.055015,0.158674,0.253252,1.217232,0.200282,0
3408337148,-0.511348,0.015635,0.125888,-0.351611,-1.061695,-0.735849,0
3408370482,-0.140168,-0.171942,-0.070595,0.168554,-1.959608,-1.139927,0
3408403816,0.22709,-0.377832,-0.285124,0.178096,-1.491554,-2.097839,0
3408437150,-0.30237,-0.189988,0.08205,0.258554,-3.096358,-2.228898,0
3408470484,-0.190037,-0.648113,-0.100623,-0.12736,-3.331603,-2.761119,0
3408503818,-0.556502,-0.16446,-0.240111,-0.207315,-3.265422,-2.766711,0
3408537152,-0.296352,-0.30893,-0.370941,0.126246,-2.237981,-2.586561,0
3408570486,-0.100322,-0.621212,-1.131123,0.151179,-1.309638,-2.249369,0
3408603820,-0.911177,-1.255188,-0.353927,0.36461,-0.519022,-1.356349,0
3408637154,0.016463,-1.935133,-0.296243,1.325693,1.9904,0.813893,0
3408670488,-0.207838,-0.629434,-0.479279,0.921826,2.548114,1.23019,0
3408703822,-0.305221,-0.422662,3.844842,0.335035,2.834318,2.401729,0
3408737156,2.174201,0.456131,0.558565,0.298477,2.689128,2.028589,0
3408770490,2.160191,2.338672,-0.1422,0.779012,2.104712,2.724573,0
3408803824,0.454267,0.475767,0.507843,0.688718,1.164452,2.583213,0
3408837158,-0.620083,-0.072858,-0.019002,0.552757,0.027111,1.328363,0
3408870492,-0.28232,-0.327781,0.253675,0.401577,0.371519,-0.213295,0
3408903826,0.219873,0.152231,0.100992,0.322649,-0.391556,-1.112518,0
3408937160,0.794665,0.196391,-0.128759,-0.465483,-1.636186,-1.794983,0
3408970494,0.597227,0.496341,-0.041488,-0.211567,-1.431276,-1.134473,0
3409003828,-0.043997,0.464928,0.161695,-0.255103,-1.725399,-1.179091,0
3409037162,-0.272251,0.407945,0.180925,-0.463567,-1.464864,-1.192276,0
3409070496,0.196162,0.239559,0.008535,0.054328,-0.626097,-0.386192,0
3409103830,0.465594,0.0918,0.115332,0.564828,-0.54239,0.417278,0
3409137164,0.237294,0.039376,0.103741,0.676251,-0.327173,0.030939,0
3409170498,-0.028386,-0.283323,0.047977,0.072896,-1.803188,-0.248276,0
3409203832,-0.22757,-0.282853,0.159936,-1.303941,-0.551914,-1.598045,0
3409237166,0.254733,-0.745704,-0.250312,-0.388491,0.92243,-0.858205,0
3409270500,0.476709,-1.117879,-0.2964,0.406563,2.268951,0.151537,0
3428704222,-1.424308,-1.476007,-1.403818,0.274515,1.383265,0.669725,0
3428737556,-0.221287,-1.617568,-1.2943,0.221076,1.116641,-0.071467,0
3428770890,0.452136,-0.792726,-0.792135,-0.058922,-0.63486,-0.313041,0
3428804224,1.113438,-0.386553,-0.184841,0.37151,-1.109919,-0.618052,0
3428837558,1.693306,1.682127,1.015956,0.668015,-2.325402,-1.512074,0
3428870892,1.385743,1.268218,0.762655,0.45381,-4.199234,-1.934646,0
3428904226,1.351699,0.542914,-0.486252,-0.216926,-4.395324,-4.056341,0
3428937560,0.00311,0.883047,-0.863442,-0.406432,-4.801953,-5.181428,0
3428970894,-0.639296,0.495062,-0.98643,0.34185,-5.115331,-4.27593,0
3429004228,0.025602,0.082009,-0.020325,0.918562,-1.382337,-2.938478,0
3429037562,-0.356772,0.460037,0.429408,0.42908,0.537637,-0.92236,0
3429070896,-1.268796,-0.719692,-0.027446,0.192539,6.75805,5.116585,0
3429104230,0.123698,-0.790694,0.528188,-0.212687,9.216018,7.38473,0
3429137564,-0.157667,-0.682101,0.382279,-0.799205,7.242092,6.317645,0
3429170898,-0.259568,-0.82495,-0.768031,0.272481,5.068424,4.573936,0
3429204232,0.71366,-0.159322,0.055443,0.61573,2.335103,1.745074,0
3429237566,-0.370549,-0.215837,0.029517,0.20905,-0.340661,-1.394169,0
3429270900,-0.642872,0.17422,-0.236787,0.180174,-1.974499,-3.552795,0
3429304234,-0.280672,0.502804,-0.365502,-0.654557,-5.093517,-4.047014,0
3429337568,-0.618252,0.462117,-0.310261,-0.840148,-6.327025,-3.581291,0
3429370902,-0.449241,0.078197,-0.251982,-1.29813,-6.252603,-3.665849,0
3429404236,0.091321,0.454333,-0.308478,-0.800332,-4.699636,-3.974214,0
3429437570,1.335014,-0.496053,-0.54499,-0.78464,-3.419155,-3.576311,0
3429470904,0.811462,-0.333489,-0.283723,-0.47193,-1.863992,-2.501531,0
3429504238,-0.435918,-0.126892,-0.156962,-0.428227,-0.280515,-1.681711,0
3429537572,0.205166,0.098781,-0.263814,0.639346,2.021582,0.278107,0
3429570906,-0.037705,-0.13962,-0.143662,0.718854,4.755039,2.994711,0
3429604240,-0.406353,-0.414916,0.796552,0.499758,7.838896,5.071379,0
3429637574,-1.081029,-0.289225,0.140718,0.515666,7.13583,4.623906,0
3429670908,-0.961292,0.425322,0.101458,0.661644,5.28278,3.03613,0
3429704242,-0.701013,-0.130036,0.282147,0.736169,1.56655,1.47334,0
3429737576,-0.395566,-0.743852,-0.126775,-0.119136,-1.828269,-0.459161,0
3429770910,0.208782,-0.128362,-0.353396,-0.280478,-3.810581,-1.794958,0
3429804244,-0.663973,0.277149,0.521927,-0.810046,-5.932155,-3.236049,0
3429837578,-0.134993,-0.231333,-0.595052,0.132597,-5.531767,-1.594018,0
3429870912,-1.059073,0.423295,-0.444974,-0.313232,-5.522578,-3.15362,0
3429904246,-0.759303,0.667913,0.23966,-0.301067,-3.918347,-3.562543,0
3429937580,-0.559768,0.533138,0.332627,0.172426,-2.915967,-2.615322,0
3429970914,-0.379039,0.255027,0.337078,0.935847,-0.494112,-0.667753,0
3430004248,0.486694,-0.11494,0.193441,0.262326,0.733439,1.490874,0
3430037582,-0.126553,-0.026276,-0.357947,0.439181,3.8822,4.607304,0
3430070916,1.036543,-0.370876,0.261133,-0.106139,6.205466,6.135362,0
3430104250,-0.202072,-0.127056,0.758307,-0.11309,6.351141,6.81186,0
3430137584,-0.675888,0.136128,0.307647,0.090092,4.723928,5.563613,0
3430170918,0.382673,0.103261,-0.128224,0.420097,2.994377,2.422536,0
3430204252,-0.345485,0.37179,1.406433,0.833409,0.432035,0.409972,0
3430237586,0.593553,0.786734,0.347563,1.124066,-2.756134,-0.690675,0
3430270920,0.089111,1.424073,-0.74045,0.935184,-3.520941,-2.471553,0
3430304254,-0.330348,0.738813,0.742102,0.2944,-4.099845,-3.343979,0
3430337588,0.85605,0.250793,0.654348,0.1163,-5.287336,-3.037152,0
3430370922,0.256893,0.573334,0.541246,0.300219,-3.504716,-2.512739,0
3430404256,-0.550758,0.082527,0.421596,-0.434293,-3.976623,-2.944064,0
3430437590,-0.375822,-0.495561,0.57554,-0.045029,-3.950045,-2.582132,0
3430470924,-0.265414,-0.368804,0.423552,0.288655,-2.113754,-0.513101,0
3430504258,-0.532004,0.207734,0.109073,-0.164962,-0.772731,0.891162,0
3430537592,0.605994,-1.0864,0.798536,0.094426,4.213506,3.617346,0
3430570926,1.029219,-0.15679,-0.09726,-1.19332,5.522919,5.883668,0
3430604260,0.941513,-0.14168,-0.229285,-1.290179,7.095571,6.131765,0
3430637594,-0.017094,-0.003537,-0.433783,-1.130273,6.44601,4.516299,0
3430670928,-0.69795,0.767855,-0.35906,-0.906286,4.98009,3.419859,0
3430704262,-0.287974,0.063365,0.484174,-0.5003,2.9649,1.98256,0
3430737596,-0.137249,0.214193,0.117147,-0.386315,1.362234,1.716928,0
3430770930,-0.20615,0.535813,-0.223274,-0.287929,-0.194476,1.052189,0
3430804264,-0.15814,0.161983,-0.005341,-0.292615,-1.507392,-0.357479,0
3430837598,-0.131322,0.306646,0.137903,0.090521,-2.641938,-1.482289,0
3430870932,-0.285557,0.536465,0.100559,0.032008,-2.752376,-2.861651,0
3430904266,-0.490766,0.370866,0.137332,-0.292647,-4.192343,-3.375957,0
3430937600,-0.666634,0.268312,0.531826,-0.221394,-4.949362,-2.634617,0
3430970934,0.450674,-0.30096,0.725632,-0.126811,-4.180195,-1.640441,0
3431004268,-0.57642,1.028447,0.563542,-0.211002,-2.714976,0.971849,0
3431037602,-0.007283,-0.094687,2.849678,0.04696,-0.314384,4.427985,0
3431070936,-0.186158,-0.5803,2.451423,0.275794,2.547219,5.405205,0
3431104270,-0.990773,-0.169298,1.635009,0.081237,4.567444,6.949288,0
3431137604,-0.053578,-0.592644,1.951135,-0.471449,4.734033,5.560856,0
3431170938,0.420711,-0.716531,1.565301,-0.512897,4.127416,2.598771,0
3431204272,0.188275,-0.352029,0.616259,-0.549462,3.095657,2.123975,0
3431237606,0.180408,0.04791,-0.419584,0.040245,0.648307,1.378004,0
3431270940,0.64605,-0.075793,-0.529878,1.238681,-2.15013,-1.043169,0
3431304274,0.378769,0.110015,-1.519067,1.619532,-3.76374,-2.501087,0
3431337608,0.431331,-0.208312,-0.937912,0.893567,-5.085166,-3.260711,0
3431370942,0.230374,-0.02415,-0.914653,-0.193843,-5.05428,-4.563408,0
3431404276,0.230843,0.378339,-0.557501,-0.021509,-3.951354,-2.806206,0
3431437610,0.776333,0.338461,-0.342533,-0.104612,-4.690265,-1.744391,0
3431470944,0.244076,0.82645,-0.062161,-0.090301,-3.702026,-0.67385,0
3431504278,0.153803,0.598944,-0.245541,0.911366,0.196009,1.688069,0
3431537612,-0.022263,0.419497,-0.095344,-0.161856,0.293147,1.648616,0
3431570946,0.217713,-0.243708,0.027638,0.765774,6.230956,3.414342,0
3431604280,-0.458237,-0.44529,-0.050923,-0.313809,5.789283,3.812201,0
3431637614,-0.531809,-0.071596,-0.083875,-0.835769,5.144016,3.194695,0
3431670948,0.09619,-0.05258,-0.158753,-0.88849,3.375164,3.162597,0
3431704282,0.395488,-0.062131,-0.049954,-0.353749,1.937796,2.192783,0
3431737616,-0.282529,0.348105,0.16339,0.042288,1.03012,0.74583,0
3431770950,-0.915359,0.207194,0.177321,0.513098,1.163283,-0.870453,0
3431804284,-0.190802,-0.436227,1.080384,0.081995,-1.772563,-3.832099,0
3431837618,-0.912316,-0.042792,1.128222,0.388895,-1.482102,-2.990034,0
3431870952,-0.291421,-0.263842,-0.885453,0.591382,-4.32153,-2.611005,0
3431904286,0.550528,0.033765,-1.674183,0.482099,-4.767747,-2.40013,0
3431937620,0.388684,-0.294104,-1.096828,0.003684,-4.568679,-2.93634,0
3431970954,0.240287,-0.337006,-0.133889,-0.06705,-4.16447,-3.383742,0
3432004288,0.001425,-0.19111,0.470087,0.432926,-1.831293,-1.927821,0
3432037622,0.120046,0.310911,0.988168,0.992479,0.971971,0.413691,0
3432070956,-0.382311,-0.410405,1.479943,0.491396,3.417127,2.726124,0
3432104290,-0.459531,-1.163196,0.069262,-0.586663,6.011741,4.620429,0
3432137624,-0.640851,-1.06317,-1.165201,-0.941759,5.892269,4.996496,0
3432170958,-1.488534,-0.148812,-1.030195,-1.076833,3.540254,4.194195,0
3432204292,-1.569992,-0.956944,-0.381921,-0.444297,2.473554,2.584564,0
3432237626,-1.109279,-0.338649,-0.453056,0.04498,0.93702,0.864879,0
3432270960,-0.488582,-0.177948,-0.28933,0.033986,-1.454442,-0.665093,0
3432304294,0.468179,-0.57759,-0.236806,0.84628,-1.425817,-1.063133,0
3432337628,0.83159,0.50097,-0.952968,0.807742,-2.797081,-2.302944,0
3432370962,0.658637,0.643776,0.189095,0.135087,-4.736828,-3.28173,0
3432404296,1.663321,-0.413018,-0.638263,-0.01697,-4.738425,-3.514716,0
3432437630,0.751789,0.571898,0.127424,-0.690006,-5.755901,-4.341615,0
3432470964,0.424615,-0.008126,-0.182977,0.160298,-4.326954,-2.52951,0
3432504298,1.88501,-0.250238,-1.468521,0.446151,-0.391645,-1.664086,0
3432537632,1.08678,0.489954,-1.631236,0.620872,1.012355,0.131477,0
3432570966,-1.121742,1.303145,-0.712801,0.72491,4.431286,2.520956,0
3432604300,-0.330407,-0.146471,0.220909,0.813813,4.763184,2.679481,0
3432637634,0.828444,-0.487196,-0.074742,0.434893,2.386761,1.541075,0
3432670968,-1.028922,0.401719,-0.837228,-0.406609,1.713123,0.550425,0
3432704302,-2.142769,0.227226,1.649076,0.495993,1.220709,0.44184,0
3432737636,0.622725,-0.066884,3.340399,-0.213057,-0.552257,-0.304429,0
3432770970,4.438775,-0.076811,0.851337,0.081504,-1.030667,-1.494529,0
3432804304,-0.561867,0.836097,-0.652078,0.437724,-0.571368,-1.457303,0
3432837638,-2.805319,-0.822733,-0.129898,-0.007079,-1.649299,-2.163074,0
3432870972,-0.777676,-0.197819,0.128829,-0.949843,-2.788142,-3.524754,0
3432904306,0.959939,0.102302,0.142187,-0.860288,-2.154697,-3.521734,0
3432937640,0.973509,0.260895,0.254816,-0.409796,-2.420051,-3.193749,0
3432970974,0.045542,0.156104,0.386401,-0.576378,-1.547491,-3.200446,0
3433004308,-0.223469,-0.522068,-0.400537,-0.095941,-0.79236,-1.897834,0
3433037642,0.505815,-0.090088,0.036993,0.691355,1.259558,2.241322,0
3433070976,0.413351,-0.017619,0.500503,1.407692,4.970493,5.10508,0
3433104310,-0.563583,0.035854,0.532263,1.596167,3.821279,4.506238,0
3433137644,0.304773,-0.136519,-0.066843,1.571938,1.487082,2.853917,0
3433170978,0.703976,-0.19157,0.018128,1.330363,-0.746206,0.940419,0
3433204312,0.093005,0.584483,-0.028441,0.72045,-2.590507,-0.822603,0
3433237646,-0.809747,0.729781,0.170817,0.064725,-3.67295,-1.973027,0
3433270980,-0.84029,0.691225,0.126068,-0.121256,-3.056684,-2.001907,0
3027996208,-0.628844,-0.008278,0.214677,-0.247232,0.713493,1.456377,0
3028029542,-0.349148,-0.165326,0.049601,0.148535,1.579153,0.621146,0
3028062876,0.044138,-0.134569,0.053103,-0.212382,1.452523,0.296142,0
3028096210,0.135598,-0.127155,-0.053148,0.460085,2.012414,0.662199,0
3028129544,0.399309,0.041436,-0.052097,-0.232686,0.371907,-0.045745,0
3028162878,0.514972,0.021487,-0.278295,-0.432516,-0.287249,-0.413123,0
3028196212,0.348329,0.627,-0.076955,-0.849729,-1.3528,-1.83889,0
3028229546,-0.16566,0.951951,-0.114121,-1.111435,-2.033492,-2.818662,0
3028262880,0.165056,0.790739,-1.313645,-0.711789,-3.283482,-2.404146,0
3028296214,0.187012,1.522098,-1.293405,-0.212722,-4.215148,-2.438912,0
3028329548,-0.629118,0.090423,-0.510623,-0.615701,-5.224126,-2.736238,0
3028362882,-0.383146,0.18545,-0.509663,-0.401172,-5.807744,-2.968049,0
3028396216,-0.509601,0.637735,0.290015,-0.071205,-3.486953,-3.506722,0
3028429550,-0.605686,-0.679281,0.797454,1.114396,-0.910839,-1.521105,0
3028462884,-0.070407,-0.684559,-0.241004,0.954125,2.801861,0.449575,0
3028496218,0.357177,-0.311669,-0.832994,0.94476,6.667367,2.456188,0
3028529552,0.461762,-0.729224,-0.063312,0.889828,7.555381,3.129945,0
3028562886,1.390838,-0.819002,0.182658,0.097808,7.609093,2.333811,0
3028596220,1.129456,-0.493752,0.179086,-0.228289,5.827049,1.891487,0
3028629554,0.547502,-0.711873,0.345121,-0.487795,3.299763,1.001353,0
3028662888,-0.374065,-0.32322,0.383826,-0.458615,0.263713,0.835733,0
3028696222,-1.623802,-0.297,0.521757,-0.295722,-3.019666,0.649626,0
3028729556,-1.143745,0.032161,-0.162754,-0.259584,-3.883291,-1.385503,0
3028762890,-0.338106,-0.212375,-0.435975,-0.464282,-5.134328,-1.786132,0
3028796224,1.057552,-0.443686,-1.327091,-0.216055,-5.74581,-1.768417,0
3028829558,1.096029,0.546305,-0.009307,-0.934578,-5.873908,-3.535491,0
3028862892,0.151742,-0.250544,0.079742,-0.782128,-4.896602,-4.172923,0
3028896226,-1.073778,0.569354,-0.663541,-0.254172,-2.913884,-2.994267,0
3028929560,-1.478372,0.359649,0.186344,0.348067,0.079423,-1.300449,0
3028962894,0.136375,-0.185462,0.083819,0.464859,2.682266,-0.394622,0
3028996228,0.136227,-0.491066,0.25418,0.353632,6.711439,2.338639,0
3029029562,-0.01601,-0.308466,0.605285,-0.030102,8.582717,4.003187,0
3029062896,0.068486,-0.881813,0.256954,-0.625,7.793113,2.130489,0
3029096230,0.97527,-0.9602,0.087035,0.399017,5.643632,0.533257,0
3029129564,0.143468,-0.416153,-0.465096,1.147656,-1.158214,0.409281,0
3029162898,-1.400101,0.116552,-0.264267,-0.045288,-3.712448,6.350989,0
3029196232,-0.453123,-0.031604,0.247012,-0.733348,-5.002388,2.591124,0
3029229566,-1.784831,0.837542,-0.03244,-0.338212,-4.828455,-1.645177,0
3029262900,-0.474473,0.91904,0.108004,-0.583516,-5.247973,-3.577493,0
3029296234,-0.572732,0.034085,0.084254,-0.378808,-6.007484,-2.84186,0
3029329568,-0.104105,0.726651,-0.785012,-0.743313,-5.724348,-2.326257,0
3029362902,-0.023012,0.33906,0.318263,-0.345597,-4.451674,-2.036794,0
3029396236,-0.298761,0.426699,0.224314,-0.14493,-0.697575,-1.386751,0
3029429570,0.11085,0.432529,0.22261,0.401202,2.460245,0.657113,0
3029462904,0.918876,-0.29012,0.580446,0.887583,4.702488,2.479805,0
3029496238,0.111982,-0.032343,0.610881,0.150758,7.332453,3.771656,0
3029529572,-0.500556,-0.191679,1.07305,0.313929,8.054656,3.475474,0
3029562906,-0.594579,-0.068007,1.319534,-0.486218,6.674368,3.343617,0
3029596240,-0.736655,0.308392,0.979095,0.194553,5.503139,2.734933,0
3029629574,-0.931198,0.013485,1.010312,-0.135122,0.869306,2.024131,0
3029662908,-0.900627,0.606066,1.043466,-0.262673,-0.93578,1.843318,0
3029696242,-0.311723,1.062596,0.595525,-0.714944,-2.98947,-0.197098,0
3029729576,-0.160331,1.100935,-0.000422,-0.154824,-4.914861,-3.293011,0
3029762910,-0.422758,0.909691,-0.18239,-0.773127,-5.145096,-0.629187,0
3029796244,-0.157889,0.816136,-0.375428,-0.897259,-5.496368,1.210271,0
3029829578,0.059598,0.567423,-0.555416,-0.235682,-4.778331,1.022403,0
3029862912,0.498704,0.756977,-0.76555,-0.682637,-3.021643,3.269212,0
3029896246,1.083425,0.422081,-0.154702,0.4164,-2.543083,4.233208,0
3029929580,1.39499,0.139297,-0.328914,1.386901,-0.083916,2.97717,0
3029962914,0.666671,-0.251042,-0.337083,0.781724,2.366945,1.49069,0
3029996248,-0.18358,-0.304998,0.06711,0.862788,4.746404,0.102314,0
3030029582,0.393938,-0.924111,0.369655,-1.013204,7.222806,1.313638,0
3030062916,-1.71012,-0.253215,1.649709,-2.285928,6.836969,3.170918,0
3030096250,-1.528194,-0.094118,3.124738,-1.496423,5.140535,3.483961,0
3030129584,-0.593218,0.207213,3.405153,-0.830671,3.063651,3.226602,0
3030162918,-0.939368,1.278706,0.525631,0.140609,0.064872,1.961847,0
3030196252,-0.545725,0.792674,0.008415,0.991022,-1.571102,1.008979,0
3030229586,1.461534,0.033119,1.382763,0.507335,-3.96749,-0.613049,0
3030262920,1.752196,0.021374,0.394439,0.416283,-3.921149,0.398019,0
3030296254,-0.070599,-0.12379,-0.683807,-0.33151,-3.904365,-0.52801,0
3030329588,-0.892136,0.043054,-0.932567,-0.915535,-5.049896,-2.708306,0
3030362922,0.015879,-0.004493,-0.152131,0.146411,-4.887216,-1.945945,0
3030396256,0.068314,-0.203699,0.381922,0.355379,-3.232965,-1.970038,0
3030429590,-0.273531,-0.252581,-0.511109,0.257711,-1.486092,-0.034045,0
3030462924,0.987274,-0.824252,-0.278881,0.532365,3.202945,1.454868,0
3030496258,0.444527,-0.619818,-0.084903,0.130774,5.209752,1.017208,0
3030529592,0.698629,-0.32287,-0.274742,-1.63101,4.182314,3.754625,0
3030562926,0.165254,-0.16751,-0.183958,-0.588316,6.648685,3.233121,0
3030596260,0.114011,0.051924,0.058875,0.027278,4.721021,2.211691,0
3030629594,-0.414625,0.13388,0.130819,1.01174,1.943578,2.087867,0
3030662928,-0.662703,0.373932,-0.067552,1.416543,-0.175152,1.474741,0
3030696262,-1.12574,0.46568,0.112358,1.05397,-1.752099,0.166743,0
3030729596,-0.511772,0.422574,-0.073662,1.194942,-2.981708,-1.965906,0
3030762930,-0.758987,0.416,0.363086,1.303837,-3.996382,-1.728487,0
3030796264,-0.53819,-0.059538,0.251075,0.742908,-5.277544,-1.195678,0
3030829598,0.046034,0.094561,0.341746,0.12205,-5.452044,-1.580619,0
3030862932,0.002108,0.196644,0.042171,-0.636304,-3.978938,-2.079559,0
3030896266,-0.040434,0.249784,-0.042064,-0.296032,-2.166188,-1.272734,0
3030929600,0.449133,-0.352282,-0.324637,-0.22485,0.315796,-1.380824,0
3030962934,0.942739,-0.401918,-0.176842,-1.271069,3.212245,0.402065,0
3030996268,0.775421,-0.666626,0.297702,-0.273053,6.836596,3.748593,0
3031029602,0.480365,-0.676275,0.032572,-1.3474,6.874882,3.653829,0
3031062936,-0.060297,-0.304508,-0.310337,-0.709382,4.39244,3.321242,0
3031096270,-0.054361,-0.020774,-0.169808,-0.202326,3.353589,0.796151,0
3031129604,-0.599536,0.073285,-0.251113,0.460738,1.017597,-0.458652,0
3031162938,-1.350021,0.274118,0.012234,0.513802,-0.678741,-2.516022,0
3031196272,-1.502916,0.023379,-0.061211,0.805102,-2.436561,-2.502787,0
3031229606,-0.600955,-0.332003,-0.239623,1.232828,-3.532521,-2.571775,0
3031262940,-1.126073,-0.360989,-0.521037,0.04893,-3.795749,-3.682375,0
3031296274,-1.315649,-0.361066,-0.755042,-0.499015,-4.078436,-3.805527,0
3031329608,-1.517111,-0.66948,-0.538413,-0.972426,-4.649429,-3.599826,0
3031362942,-0.157034,-1.098339,0.043547,-0.025018,-4.015134,-2.248521,0
3031396276,2.599008,-0.281814,-1.481916,0.446733,-0.616768,-1.698084,0
3031429610,3.57647,1.2225,-2.206736,-0.199818,0.788723,-0.750618,0
3031462944,2.848381,1.026725,-1.76893,0.731872,4.184788,1.133827,0
3031496278,1.203335,2.063232,0.246807,0.062139,4.563841,1.033993,0
3031529612,-0.491981,1.984081,0.991878,0.283874,4.878991,1.326889,0
3031562946,-0.800348,0.176155,1.046819,-0.019787,3.728208,0.962411,0
3031596280,-0.117271,0.446532,0.826716,0.155181,1.418005,1.176412,0
3031629614,-0.186472,0.997587,0.468062,0.170029,0.062716,0.931112,0
3031662948,0.270452,1.155864,-0.080258,0.186362,-0.373466,0.469481,0
3031696282,0.043253,0.408497,0.055961,0.570493,-2.983159,-0.086579,0
3031729616,0.025565,-0.513648,-0.164385,0.094873,-2.194683,-1.14193,0
3031762950,-0.317523,-0.068285,0.144338,0.007617,-1.478294,-1.57583,0
3031796284,-0.342842,0.229073,0.58244,-0.578512,-0.895975,-1.799615,0
3031829618,0.015932,-0.097481,0.194824,-0.821227,-0.512538,-1.622172,0
3031862952,0.003939,-0.420655,0.331981,-1.039134,-0.072074,-1.177755,0
3031896286,0.230517,-0.344932,0.158256,-0.940139,-0.044365,-0.517036,0
3031929620,-0.433961,-0.394581,-0.030313,-0.461706,-0.41176,0.042068,0
3031962954,-0.224779,-0.562286,0.130605,-0.321632,-0.175118,-0.3439,0
3031996288,0.570245,-0.212588,0.105507,-0.353289,0.05638,-0.608504,0
3053330048,0.086756,0.073388,0.178858,0.153175,0.052757,0.242641,0
3053363382,0.08789,0.086784,0.078435,0.115569,0.121069,0.097221,0
3053396716,0.031929,0.06794,0.085782,0.132335,0.191089,0.241805,0
3053430050,-0.024915,0.061006,0.131632,0.071635,0.245961,0.196181,0
3053463384,0.007482,0.017417,0.104809,0.05995,0.452785,0.296249,0
3053496718,0.022548,0.079226,0.122112,-0.072391,0.676058,0.335937,0
3053530052,0.090995,0.034773,0.194548,-0.0755,0.955139,0.388802,0
3053563386,-0.007084,-0.420822,0.26018,-0.047668,0.576101,0.689544,0
3053596720,0.377699,-0.303745,0.14798,-0.018128,0.414783,1.175336,0
3053630054,0.154797,-0.148011,0.274977,0.062695,0.34291,1.083104,0
3053663388,-0.402478,0.122973,0.071604,0.041867,0.216817,1.125588,0
3053696722,-0.291866,0.28214,0.062368,0.288578,0.272582,1.110705,0
3053730056,-0.046419,0.461163,0.109008,0.265909,0.136146,0.872294,0
3053763390,-0.005673,0.391507,0.112405,0.377949,-0.451526,0.81135,0
3053796724,-0.361024,0.311046,0.224318,-0.017716,-0.512542,0.244271,0
3053830058,-0.238897,0.083674,0.17423,0.258046,-0.89429,0.214195,0
3053863392,-0.69731,0.004666,0.222684,0.159089,-1.090458,-0.05486,0
3053896726,-0.243078,-0.317464,-0.02331,0.073005,-1.069505,-0.632613,0
3053930060,0.513766,-0.212279,-0.045051,-0.085564,-0.969251,-1.114276,0
3053963394,0.096625,-0.096863,0.122591,-0.110879,-0.597006,-1.20197,0
3053996728,0.068785,-0.088578,0.133533,-0.140614,-0.188274,-0.974399,0
3054030062,0.193494,-0.013591,0.148559,-0.242902,-0.245522,-0.865463,0
3054063396,0.317991,0.006986,0.066955,-0.121137,-0.319449,-0.347305,0
3054096730,0.373007,-0.055558,0.259222,0.005519,-0.377404,0.130899,0
3054130064,0.214237,-0.090553,0.178246,-0.067668,-0.527235,0.018305,0
3054163398,0.039898,-0.066536,0.015865,-0.071611,-0.452082,0.139041,0
3054196732,0.156026,-0.047205,0.217349,-0.235895,-0.899467,-0.268347,0
3054230066,0.51912,0.530181,0.204267,-0.099174,-1.23431,-0.394102,0
3054263400,0.529885,1.06826,0.132832,-0.269258,-1.842041,-0.599931,0
3054296734,1.173314,1.745654,-1.031788,0.699845,-2.087827,-0.558642,0
3054330068,1.166387,2.140562,-1.415673,0.24034,-2.230979,-1.558699,0
3054363402,1.462457,2.051578,-0.107691,-0.266163,-2.868413,-3.405445,0
3054396736,1.376012,0.694446,-1.9015,-0.780387,-2.356199,-3.375659,0
3054430070,-0.605252,-1.099327,-0.887995,0.388089,0.392068,-2.050584,0
3054463404,-0.788589,-1.153357,-1.221519,0.715209,1.969217,-1.508453,0
3054496738,-1.54428,-0.47754,-0.571851,1.486784,4.958025,1.248515,0
3054530072,-2.011002,0.037201,0.724746,1.450848,6.143597,2.504438,0
3054563406,-1.286525,-0.543556,0.781012,0.649529,5.634769,2.089938,0
3054596740,-0.119133,-0.989124,0.300805,-0.08345,3.995472,1.785877,0
3054630074,0.906426,-0.228875,-0.275825,-0.168309,3.010919,2.075035,0
3054663408,0.936255,-0.467506,0.489806,-0.863511,0.304166,1.830368,0
3054696742,0.86793,-0.482065,0.753803,-0.367675,-0.407075,1.800229,0
3054730076,0.413323,-0.639746,0.780716,-0.124898,-1.713106,0.35212,0
3054763410,-0.155373,-0.554317,0.694561,-0.592963,-2.264836,-1.366001,0
3054796744,-0.474089,-0.831964,0.262674,-0.073913,-2.636342,-0.998223,0
3054830078,-0.002354,-0.600346,-0.251806,-0.256719,-3.572325,-1.405687,0
3054863412,0.105172,-0.37356,-1.070362,-0.429228,-4.108922,-2.599967,0
3054896746,0.347062,-0.545059,-0.182426,-0.485881,-4.63907,-3.032939,0
3054930080,0.099991,-0.498279,0.292665,-0.138782,-3.804527,-2.34615,0
3054963414,-0.062054,-0.295005,0.012406,0.06606,-2.359661,-1.844842,0
3054996748,0.215578,0.565079,1.337875,0.730093,-0.536188,-1.019264,0
3055030082,-0.092648,0.088936,0.943303,0.766721,2.34765,-0.130545,0
3055063416,-0.584962,-0.418364,-0.348753,1.550552,5.129,1.413241,0
3055096750,-0.573815,0.167474,-0.734474,0.831469,5.929243,2.15897,0
3055130084,-0.551109,0.088168,0.581033,0.092892,6.339099,2.389857,0
3055163418,0.81769,-0.808422,0.226921,-0.518712,4.846428,1.123089,0
3055196752,1.940559,-0.442063,-0.385444,-0.791614,2.465423,1.212491,0
3055230086,2.014733,0.051482,0.323597,-0.444914,0.208596,2.136487,0
3055263420,0.611178,-0.321527,-0.213841,0.081055,-1.679613,1.370135,0
3055296754,-1.271791,0.328478,-0.462219,0.112047,-2.563515,0.045156,0
3055330088,-1.940428,0.331477,0.098483,0.05633,-3.188666,0.677098,0
3055363422,-1.342556,1.066412,-0.208442,0.411047,-3.407237,-0.283082,0
3055396756,-1.281527,0.577323,-0.008803,-0.265963,-4.481527,-2.57461,0
3055430090,-0.526183,0.731196,-0.218035,-0.112225,-4.113277,-2.198055,0
3055463424,-0.520673,0.666255,-0.455014,-0.21563,-3.984363,-2.484339,0
3055496758,-0.435224,0.915439,-0.786296,-0.021731,-2.845579,-2.232563,0
3055530092,0.120419,0.223047,-0.20304,-0.092129,-0.4713,-0.940488,0
3055563426,0.726633,-0.379476,0.188378,0.390856,1.938647,-0.205642,0
3055596760,0.00943,-0.933727,-0.03635,-0.1478,3.302453,0.655333,0
3055630094,0.596135,-0.764965,-0.818411,0.256258,5.985027,1.90865,0
3055663428,-1.138823,0.14919,-0.598009,0.392978,6.383715,1.330542,0
3055696762,-1.206274,0.443838,0.542948,0.229823,5.603385,0.241536,0
3055730096,0.096337,0.334824,0.21294,0.363621,4.160488,-1.133565,0
3055763430,-0.149384,-0.087637,0.42301,0.053129,1.629909,-0.327755,0
3055796764,-0.643141,0.188924,0.397433,0.179638,-2.059129,-0.505932,0
3055830098,0.230518,-0.203203,0.44067,0.33443,-4.761662,1.855398,0
3055863432,-0.167467,0.07199,0.528366,-1.126784,-5.536423,2.125639,0
3055896766,-0.95974,0.192172,1.194353,-0.868534,-5.150735,1.415256,0
3055930100,0.150883,0.776211,-0.369562,-0.733211,-4.903152,-0.32555,0
3055963434,0.532018,0.612353,-0.560175,0.074496,-5.079459,-0.715365,0
3055996768,0.061413,0.920445,0.783691,0.93467,-3.610823,-0.19133,0
3056030102,0.696064,-0.024176,0.694565,1.156909,-3.301395,0.105352,0
3056063436,0.448354,-0.440507,0.30905,1.073764,-0.035249,0.668317,0
3056096770,-0.269455,-0.08754,-0.26549,0.390199,1.556218,0.439786,0
3056130104,1.604594,-1.082071,1.178959,0.289071,5.091873,2.658167,0
3056163438,0.417991,-0.864491,2.51241,0.211563,8.190779,3.718155,0
3056196772,-2.125216,0.3322,0.8938,-0.71525,7.853367,3.330115,0
3056230106,-0.889612,-0.087395,0.029232,-0.800589,6.872456,2.724225,0
3056263440,0.222934,-0.061524,-0.072551,-0.726439,4.487356,1.938513,0
3056296774,0.430494,0.544341,-0.372633,-0.431168,1.249975,1.685935,0
3056330108,0.160319,0.814792,-0.610884,-0.495424,-1.665117,1.137721,0
3056363442,-0.086604,0.924404,-0.785803,-0.471043,-3.154256,0.086541,0
3056396776,-0.328013,0.798434,-0.221729,-0.627013,-5.490465,-0.479329,0
3056430110,-0.455526,0.492407,0.487357,-0.305725,-5.764487,-0.709916,0
3056463444,-0.429185,0.402974,0.371958,-0.358732,-4.980189,-0.421158,0
3056496778,0.328085,-0.018776,0.409951,-0.248629,-4.775974,-0.543714,0
3056530112,0.640396,-0.195138,0.822602,0.298991,-2.712761,1.199771,0
3056563446,0.240219,-0.069278,1.056538,0.230686,-1.298135,1.110032,0
3056596780,0.487092,-0.190662,0.611929,0.185371,2.277797,3.200158,0
3056630114,0.235681,-0.248642,0.815019,0.059076,4.636222,3.74543,0
3056663448,-0.39639,0.037186,1.145157,-0.719467,5.628136,3.504003,0
3056696782,-0.40234,0.574891,0.284939,-0.978454,5.327776,3.363287,0
3056730116,-1.408202,0.743656,1.290237,-0.253928,4.5225,2.128056,0
3056763450,-0.690217,0.697977,1.465481,-0.047962,1.587612,1.496345,0
3056796784,-0.411801,0.228361,0.324264,0.371859,-0.511577,0.922789,0
3056830118,-0.228034,0.047123,0.129201,0.106937,-2.146907,1.057348,0
3056863452,0.151703,0.065856,-0.366067,0.367805,-2.885842,-0.403338,0
3056896786,0.185601,0.057103,-0.390443,0.184508,-3.103251,-1.394234,0
3056930120,0.535477,-0.095669,-0.18185,0.054677,-2.898914,-1.82961,0
3056963454,0.010427,0.046926,-0.311544,0.050295,-3.33497,-2.327453,0
3056996788,-0.322921,-0.257767,0.037708,0.488973,-2.64044,-1.91083,0
3057030122,-0.149915,-0.187077,-0.074951,0.807953,-1.553916,-1.098799,0
3057063456,0.128138,-0.181791,-0.023237,0.488691,-1.701908,-1.17138,0
3057096790,0.933362,-0.170683,-0.064372,0.991746,0.786381,-0.636466,0
3057130124,-0.020172,0.071409,-0.033148,0.810032,2.492006,0.087608,0
3057163458,-0.229614,0.086708,-0.027493,0.67223,4.020656,1.722662,0
3057196792,0.382461,-0.24404,-0.002333,0.114542,4.570205,2.899319,0
3057230126,-0.052399,0.025923,0.548473,-0.16391,4.208661,2.819544,0
3057263460,0.195466,-0.379479,-0.158678,-0.710249,2.954182,2.576125,0
3057296794,0.135686,-0.131815,-0.501399,-0.667787,1.367723,2.800761,0
3057330128,0.447988,-0.192801,-0.017591,-0.29222,-0.714529,1.698088,0
3057363462,0.162855,-0.096995,-0.190558,-0.039646,-0.741329,0.355284,0
3057396796,-0.249343,-0.036262,0.151939,-0.040378,-1.510718,-1.422356,0
3057430130,0.460309,-0.157342,-0.149516,-0.184563,-2.494687,-2.766637,0
3057463464,0.017549,0.103553,-0.360718,-0.19753,-2.624171,-3.16664,0
3057496798,-0.060708,-0.135403,-0.027238,-0.159951,-2.836097,-2.61661,0
3057530132,0.240832,-0.047203,-0.388078,-0.151685,-3.368574,-2.108405,0
3057563466,0.039688,0.210048,-0.272489,0.268537,-3.056875,-1.727657,0
3057596800,0.148516,-0.054717,0.203308,0.437915,-2.223542,-1.176087,0
3057630134,0.173286,-0.036341,-0.222429,0.757752,-1.160025,-0.086444,0
3057663468,-0.010769,-0.042303,-0.145891,0.894948,0.671824,0.263537,0
3057696802,-0.315054,-0.317733,0.380406,0.545346,3.63683,1.671745,0
3057730136,-0.318427,-0.222038,0.337334,-0.033124,5.573717,3.78704,0
3057763470,0.222739,-0.279135,0.432463,-0.478828,5.018384,3.126428,0
3057796804,0.061484,-0.365516,-0.01305,-0.325888,3.89375,2.216558,0
3057830138,-0.274994,-0.120771,-0.379117,-0.132687,2.326301,1.59534,0
3057863472,-0.622799,-0.049063,0.052096,-0.173817,-0.019726,0.953625,0
3057896806,-0.772475,-0.089253,0.252962,0.08071,-0.678692,-0.330871,0
3057930140,-0.602583,-0.272019,-0.358742,-0.042751,-1.530885,-1.800248,0
3057963474,-0.188706,-0.302755,-0.358245,-0.081403,-2.315473,-2.689348,0
3057996808,0.007329,-0.250614,-0.15127,0.139421,-3.182959,-2.448227,0
3058030142,-0.160259,-0.241237,-0.244953,-0.182657,-3.268956,-2.188282,0
3058063476,-0.086803,-0.122731,-0.258233,-0.581626,-3.208538,-2.522962,0
3058096810,-0.199997,-0.277603,-0.179018,-0.44903,-2.997317,-1.484594,0
3058130144,0.228671,-0.005567,-0.060014,-0.224514,-1.704834,-0.510063,0
3058163478,0.261702,0.117911,0.093127,-0.183896,-1.362677,-0.592413,0
3058196812,0.051486,-0.091643,0.173833,0.168013,-0.102518,0.024706,0
3058230146,-0.166078,-0.50148,0.004893,0.503735,2.349574,1.482181,0
3058263480,-0.282516,-0.301225,0.01061,0.403561,3.561546,2.200425,0
3058296814,0.416438,-0.5097,-0.303716,0.179896,4.666342,3.762456,0
3058330148,1.355265,-0.411774,-0.303182,-0.048131,4.017591,3.592988,0
3058363482,0.837943,0.090748,0.101342,0.063714,2.911041,2.584355,0
3058396816,0.536641,0.048171,-0.306223,-0.001759,0.058138,1.592876,0
3058430150,-0.414695,0.40923,-0.086317,-0.056328,-0.604998,0.703089,0
3058463484,-1.143292,0.665347,0.105071,0.039811,-1.53317,-1.30207,0
3058496818,-1.005327,0.13191,-0.20308,-0.098687,-2.204893,-2.753547,0
3058530152,-0.234027,0.149427,-0.004104,-0.095572,-3.060584,-3.459666,0
3058563486,0.612413,0.509721,-0.149969,-0.139069,-3.000749,-3.784863,0
3058596820,0.639757,0.435893,-0.082688,-0.332144,-2.227157,-4.06707,0
3058630154,-0.088041,0.573698,0.212216,-0.541415,-2.14844,-3.603956,0
3058663488,-0.325141,0.216904,0.294158,-0.507464,-1.047843,-2.549516,0
3058696822,0.257071,0.277062,0.479643,-0.157998,-0.683098,-1.843133,0
3058730156,0.632875,0.23271,0.187952,0.737842,0.354827,0.052372,0
3058763490,0.429399,-0.263071,0.127814,1.083463,2.016657,1.31742,0
3058796824,0.30633,-0.450938,0.100669,0.833921,2.251175,2.440073,0
3058830158,0.045038,-0.621693,0.175351,1.388164,2.800921,2.764823,0
3058863492,-0.033219,-0.439117,-0.254405,0.840403,2.459356,1.738237,0
3058896826,-0.23574,-0.225115,-0.900284,0.378356,1.556814,1.137488,0
3058930160,0.255282,-0.89419,-0.995071,0.030323,0.707373,0.307133,0
3058963494,-0.006464,-0.249763,0.048244,0.12063,-0.006781,0.323543,0
3058996828,0.662905,-0.560323,1.988613,0.57764,-1.336295,0.108455,0
3059030162,0.919528,0.652269,0.446794,0.497124,-1.889825,-0.309193,0
3062763570,0.141783,0.00297,0.163923,0.388096,0.388445,0.270864,0
3062796904,0.14488,0.0116,0.168161,0.347482,0.351569,0.523168,0
3062830238,0.11994,-0.026604,0.151352,0.231705,0.453738,0.748175,0
3062863572,0.049235,-0.038945,0.105417,0.352849,0.451317,1.539648,0
3062896906,0.083868,-0.148647,0.147437,0.027529,1.118927,1.4911,0
3062930240,0.210503,-0.211849,0.121155,0.214717,1.471047,2.029143,0
3062963574,0.278575,-0.118466,0.17892,-0.167103,1.352527,1.491614,0
3062996908,0.514401,0.127833,0.292419,-0.010867,1.276007,1.318002,0
3063030242,0.257464,0.336314,0.231871,-0.007712,0.484697,0.798098,0
3063063576,0.279163,0.387468,0.239638,-0.325299,0.173587,0.248219,0
3063096910,0.032631,0.509879,0.264072,-0.237378,-0.63692,-0.437321,0
3063130244,-0.21688,0.383154,0.262856,-0.213331,-1.275849,-0.767407,0
3063163578,0.07451,0.4993,0.201325,-0.055659,-0.872181,-1.28737,0
3063196912,0.179328,0.405003,0.119967,-0.027989,-1.033542,-1.915782,0
3063230246,0.290414,0.289602,0.089782,0.157872,-1.638278,-1.65747,0
3063263580,0.818328,-0.186025,-0.139421,0.359361,-2.124519,-1.827403,0
3063296914,0.140286,-0.136799,-0.240194,0.579389,-3.057896,-2.155647,0
3063330248,0.089574,0.206524,-0.102325,0.33388,-2.737076,-2.376753,0
3063363582,0.890521,1.175792,0.047616,0.353052,-2.252536,-1.78405,0
3063396916,0.842983,0.698309,-0.214766,0.606063,-1.257556,-1.267622,0
3063430250,-0.130501,0.254755,-1.144184,-0.139964,-0.119,-1.155178,0
3063463584,-0.462002,-1.001494,-0.298332,0.030981,0.955477,-0.146998,0
3063496918,-0.936573,-0.66252,-0.252736,-0.311092,1.479797,0.16738,0
3063530252,-0.378501,0.390153,-0.927979,-0.055978,3.116063,1.267721,0
3063563586,0.439612,-0.198147,0.467294,0.547272,3.9892,2.265936,0
3063596920,-0.030034,-0.590321,0.316637,0.347925,3.235357,2.103367,0
3063630254,0.332749,-0.55838,-0.345571,0.423444,1.948331,1.784505,0
3063663588,0.272981,-0.088694,0.162806,-0.104945,1.287737,1.127734,0
3063696922,0.428373,-0.388997,0.047003,-0.188544,0.622562,-0.238825,0
3063730256,0.343563,-0.139212,0.235101,-0.333495,-0.156033,-1.246233,0
3063763590,0.462991,-0.013027,0.092793,-0.32098,-1.406359,-1.829808,0
3063796924,-0.575053,-0.474408,-0.138488,-0.327404,-2.509055,-2.295298,0
3063830258,-1.43758,-0.759604,-0.449638,0.183117,-2.792698,-2.714397,0
3063863592,-0.928853,-0.246358,-0.022418,-0.490114,-3.716775,-3.265299,0
3063896926,-0.077277,0.009978,0.387624,-0.770168,-3.043887,-2.745234,0
3063930260,0.138172,-0.208311,-0.216527,-0.638356,-2.421041,-1.851997,0
3063963594,-0.207524,-0.230092,-0.155643,0.534716,-1.383088,-0.290562,0
3063996928,0.245439,0.159086,0.109963,0.69735,0.501409,1.764064,0
3064030262,0.399071,-0.485672,-0.357627,1.078384,2.587516,3.634682,0
3064063596,0.911621,-0.360164,0.01502,0.993142,5.199042,4.140887,0
3064096930,0.286235,-0.575813,-0.612004,0.319669,6.193805,4.10894,0
3064130264,0.677787,0.679007,0.412887,-0.208925,4.711679,2.675834,0
3064163598,-0.772606,0.226029,0.834358,-0.439719,2.916421,0.482223,0
3064196932,-0.630327,0.734913,0.07203,-0.162131,0.732304,-1.151155,0
3064230266,-0.918537,0.633453,0.366563,-0.31487,-3.210825,-1.923752,0
3064263600,-0.392466,0.389593,0.345157,-0.072854,-3.644737,-1.642168,0
3064296934,-0.327232,-0.004715,-0.056242,-0.024864,-4.49464,-1.802944,0
3064330268,0.693327,-0.12924,-0.37814,0.263277,-4.412582,-1.839594,0
3064363602,0.533395,-0.428043,-0.258368,0.17458,-3.142742,-2.041802,0
3064396936,-0.09327,-0.203235,-0.075309,-0.151983,-2.347997,-1.453105,0
3064430270,-0.353047,0.188111,0.02453,0.266112,-0.935076,-0.860131,0
3064463604,-0.804339,0.075865,0.188532,0.886907,-0.110134,-0.53132,0
3064496938,-0.419424,-0.152144,0.103229,1.230888,1.62621,0.903586,0
3064530272,-0.107805,-0.404813,0.346498,1.007148,4.072661,1.198917,0
3064563606,0.345885,-0.659668,0.067395,0.014256,5.61549,2.173067,0
3064596940,0.437472,-0.459444,0.070448,-0.535551,5.408389,2.756318,0
3064630274,0.6919,-0.652436,0.45709,-0.810265,3.675161,2.11307,0
3064663608,0.677982,-0.632479,0.337693,-0.495676,2.209523,1.839479,0
3064696942,-0.499143,0.050837,0.058116,-0.378293,-1.198433,1.656577,0
3064730276,-0.447211,0.130872,0.06736,-0.479304,-2.855281,0.255331,0
3064763610,-0.657019,0.398188,-0.522961,-0.020368,-2.794923,-0.652855,0
3064796944,-0.420952,0.769109,-0.189168,-0.147306,-4.527465,-1.190171,0
3064830278,-0.069609,0.447245,0.325938,-0.444513,-5.38194,-1.989514,0
3064863612,0.131761,0.553289,0.082295,-0.695316,-3.362937,-2.592639,0
3064896946,0.392832,0.082952,-0.724682,-0.13508,-2.70968,-2.401637,0
3064930280,-0.255634,-0.018955,-0.844696,0.147462,-0.534867,-2.131525,0
3064963614,0.005742,0.424772,-0.487676,0.118368,1.45894,-1.026144,0
3064996948,-0.505071,0.03358,0.329037,0.546712,3.102908,1.208879,0
3065030282,-0.031679,0.15998,-0.052506,-0.07061,5.399594,2.298446,0
3065063616,-0.552789,0.445638,-0.056088,-0.272275,5.141596,2.931871,0
3065096950,-0.898296,0.741197,0.77118,0.131376,2.692569,3.335787,0
3065130284,-0.015342,0.566354,0.351652,0.642994,1.163494,2.363627,0
3065163618,-0.516956,0.483088,0.608938,0.134891,-1.320116,0.833738,0
3065196952,-0.61302,0.136024,0.790867,-0.346762,-2.539377,-0.412155,0
3065230286,-0.361481,-0.310391,0.906361,-0.291539,-2.273242,-1.082179,0
3065263620,-0.03849,-0.109062,0.466127,-0.727059,-3.685683,-1.557917,0
3065296954,-0.031265,-0.341716,0.168495,-0.468349,-3.027767,-1.605004,0
3065330288,0.467282,-0.010835,-0.42415,-0.047575,-3.003789,-1.160442,0
3065363622,0.297895,-0.407792,-0.178792,0.416446,-2.02667,-1.073542,0
3065396956,0.223947,-0.283848,0.370131,0.497767,-1.722664,-0.860316,0
3065430290,0.285623,0.073914,-0.392513,0.539529,-0.686647,-0.328534,0
3065463624,-0.412297,-0.097869,-0.674678,0.079498,-0.179624,-0.013021,0
3065496958,1.095933,-0.499849,0.210619,0.211627,2.535295,1.00951,0
3065530292,0.903944,-0.261587,-0.077177,-0.109539,2.075886,0.695216,0
3065563626,0.616255,-0.536176,0.623531,-0.120681,3.299414,1.781024,0
3065596960,1.613152,-1.218057,1.312845,0.122861,4.924103,2.146657,0
3065630294,-0.03274,-0.767364,0.483044,-0.094449,4.273036,1.141624,0
3065663628,-1.079216,0.210147,0.979279,0.006678,3.050087,1.974389,0
3065696962,-1.444454,0.265132,1.693341,0.106076,2.719453,1.182398,0
3065730296,-1.057084,0.109925,1.128145,-0.190498,0.356466,1.61841,0
3065763630,-0.304777,0.205871,0.063217,0.023525,-1.092378,1.846339,0
3065796964,0.334893,0.123632,-0.378732,-0.283882,-1.921423,0.772272,0
3065830298,0.437364,0.465559,-0.637683,-0.460991,-2.988066,1.126835,0
3065863632,0.393085,0.658602,-0.803164,-0.225517,-3.301889,0.786439,0
3065896966,0.264108,0.758297,-0.658009,-0.018529,-3.985913,-0.352031,0
3065930300,-0.499803,1.133092,-0.420313,-0.472498,-4.506732,-0.672254,0
3065963634,-0.100941,0.687691,-0.053671,-0.479951,-5.149033,-1.044809,0
3065996968,-0.171228,0.680104,-0.040138,0.068452,-4.050607,-0.709794,0
3066030302,0.256911,0.338913,0.228581,0.169347,-2.262386,-0.478215,0
3066063636,0.138344,0.396424,0.442443,0.116044,2.142656,0.807286,0
3066096970,0.560858,0.021365,0.143451,-0.38919,4.900252,2.300557,0
3066130304,-0.074686,-0.125195,-0.243276,-0.990271,7.319047,4.20322,0
3066163638,-0.159499,-0.221967,0.087251,-0.659609,8.552492,4.6229,0
3066196972,-1.394693,-0.048849,0.514585,-0.607009,6.116929,3.403629,0
3066230306,-1.236863,0.346283,0.760595,-0.339402,3.095495,1.405255,0
3066263640,-0.352241,-0.290725,1.308136,-0.149241,0.326628,0.197492,0
3066296974,0.279839,-0.261059,1.396891,-0.320446,-1.512294,-0.646831,0
3066330308,1.325481,-0.180652,0.13697,-0.259208,-3.154308,-0.505726,0
3066363642,0.886572,0.053929,-0.405924,-0.176419,-3.851967,-0.958704,0
3066396976,0.447681,0.068385,0.092216,0.402747,-3.716768,-0.835018,0
3066430310,0.192789,0.411502,0.262567,0.24542,-3.84775,-1.439096,0
3066463644,-1.086607,0.803692,-0.167905,-0.096189,-4.129076,-2.482759,0
3066496978,-0.603949,0.872888,-0.06701,0.198803,-3.082272,-1.409516,0
3066530312,0.381465,0.110113,0.685331,-1.309956,-2.058817,1.342634,0
3066563646,0.071316,0.055542,0.564087,-1.044169,1.114469,2.300053,0
3066596980,-0.018761,0.077749,-0.092986,-0.834918,3.61271,3.259758,0
3066630314,0.033226,-0.298493,0.087696,0.265458,5.510812,4.512236,0
3066663648,0.045502,-0.277031,0.191441,1.277967,5.443964,2.364875,0
3066696982,-0.338661,-0.007161,-0.026175,1.302459,4.306738,1.712436,0
3066730316,0.235696,0.269334,0.106582,0.737716,2.717251,0.250776,0
3066763650,0.065194,0.670815,0.121953,0.559606,0.416926,-0.218756,0
3066796984,0.006673,0.530014,0.233557,0.820558,-1.100475,-1.182734,0
3066830318,-0.217526,0.224935,-0.118063,0.57292,-2.444384,-1.608085,0
3066863652,0.393093,-0.285149,-0.218942,0.646354,-3.655993,-1.534225,0
3066896986,0.394904,-0.419996,0.248092,0.399399,-4.425182,-2.161917,0
3066930320,-0.105866,-0.246239,0.076517,-0.198941,-4.491257,-2.41911,0
3066963654,0.026487,-0.271081,-0.168563,-1.060913,-4.501328,-2.429222,0
3066996988,0.148632,0.198767,0.10092,-0.398364,-3.537722,-1.922965,0
3067030322,-0.174911,0.083854,0.226693,-0.254341,-0.860796,-0.801805,0
3067063656,-0.448154,-0.002224,-0.269846,0.849303,0.172209,0.815163,0
3067096990,-0.952177,0.238811,-0.321315,-0.641686,3.417274,2.234356,0
3067130324,0.526891,-0.213692,0.052164,-1.004413,7.222862,5.014632,0
3067163658,0.687735,-0.737583,-0.03243,-0.633087,4.924485,4.748037,0
3067196992,-0.146336,-0.316367,0.027765,-0.465304,3.698181,3.147362,0
3067230326,-0.207224,-0.56026,0.073381,0.14875,1.99618,2.195435,0
3067263660,0.92734,-0.807014,0.630211,0.024163,0.028777,0.464693,0
3067296994,0.081846,-0.309182,0.546975,0.35868,-1.383263,-1.316911,0
3067330328,-0.06935,-0.031479,0.799607,0.650509,-2.045781,-2.474646,0
3067363662,0.138639,0.326487,-0.535737,-0.178402,-3.668139,-2.85758,0
3067396996,0.072807,0.379351,-0.734221,-0.265078,-3.886789,-3.173035,0
3067430330,-0.179624,0.285872,-0.130368,0.000812,-3.775388,-2.400255,0
3067463664,0.108905,0.179148,-0.187221,0.066298,-2.789866,-1.730569,0
3067496998,0.351042,0.215735,0.042253,0.909277,-1.068533,-0.035185,0
3067530332,-0.098152,0.028823,-0.423342,-0.418901,0.297075,0.4152,0
3067563666,-0.199572,0.549955,-0.058939,-0.166691,2.398379,2.170584,0
3067597000,-1.310872,0.229629,0.349279,0.146076,4.513228,4.114239,0
3067630334,-1.166824,-0.062641,0.173467,0.024454,4.686515,3.700516,0
3067663668,-0.419503,0.155088,-0.217795,0.147238,3.606122,4.000973,0
3067697002,-0.115781,-0.239814,-0.407101,0.054689,2.486575,2.567039,0
3067730336,0.192825,-0.19475,-0.272121,-0.009204,0.905133,1.004924,0
3067763670,-0.350946,-0.071593,0.117154,-0.109387,-0.815887,-0.58536,0
3067797004,-0.250909,-0.263015,0.040066,-0.113513,-1.120581,-2.297741,0
3067830338,-0.032923,-0.083384,0.044513,-0.197989,-1.66025,-2.958176,0
3067863672,-0.293721,0.161447,0.139009,-0.88336,-3.361276,-3.208027,0
3067897006,0.197266,-0.272798,-0.470608,-0.947435,-3.56835,-3.436914,0
3067930340,0.311007,-0.487003,-0.579618,-1.011676,-3.281789,-3.022302,0
3067963674,-0.08705,0.074353,0.22113,-0.426301,-2.50834,-1.874778,0
3067997008,0.428152,-0.13539,0.245777,-0.165814,-0.4055,-0.6999,0
3068030342,0.804801,-0.539354,-0.441616,0.567358,1.636549,0.66152,0
3068063676,0.240366,-0.503098,-0.433871,0.62356,3.351544,1.281758,0
3068097010,0.216357,-0.430815,-0.169535,0.40961,3.811342,2.699565,0
3068130344,0.702367,-0.115048,-0.641935,0.614954,3.227447,2.602039,0
3068163678,0.489632,0.26103,-0.453757,0.28659,2.426085,1.676788,0
3068197012,-0.006614,0.318346,-0.006962,0.632482,1.309942,0.96761,0
3068230346,0.355201,0.396349,0.054438,-0.069323,-0.082273,-0.559644,0
3068263680,0.155246,0.295676,-0.151876,-0.055455,-0.426452,-1.829918,0
3068297014,1.065139,-0.05065,-0.111354,-0.100369,-2.008732,-2.784387,0
3068330348,0.330175,0.156147,0.017652,0.559633,-3.501878,-2.23796,0
3068363682,-0.759901,0.43598,-0.023381,0.496584,-3.432056,-1.982134,0
3068397016,-0.700188,0.53182,-0.143943,-0.528307,-3.300062,-3.010628,0
3068430350,-0.679666,0.658427,0.257888,0.268035,-2.243484,-2.165523,0
3068463684,-0.800032,0.624776,0.45005,-0.832156,-2.507921,-1.988944,0
3068497018,-0.211199,-0.252559,0.329334,0.271496,-0.406742,0.186053,0
3068530352,0.959679,0.269649,0.299737,1.064036,1.762731,0.957881,0
3068563686,-0.242904,-0.143321,-0.590656,0.299916,2.243684,1.255013,0
3068597020,-0.64243,-0.899566,-0.25997,0.776319,2.546611,1.814484,0
3068630354,-0.612025,-0.617363,-0.047769,0.517744,2.16616,0.900664,0
3068663688,-1.90016,0.811427,-0.144185,0.525864,1.615968,-0.05454,0
3068697022,1.63473,-0.833301,2.240727,0.602688,0.598421,-0.247551,0
3068730356,4.220694,0.775479,-0.278954,0.716706,-0.081495,0.119183,0
3068763690,0.02286,1.001389,0.194025,0.691155,-0.201959,0.114809,0
3068797024,-1.292426,0.048901,0.281424,-0.301806,-1.138666,-0.60139,0
3068830358,-0.043717,-0.233157,0.213083,-1.011421,-1.128354,-1.662753,0
3068863692,1.203718,0.200329,-0.023294,-1.356781,-0.766682,-2.177875,0
3068897026,0.518059,-0.034555,0.009922,-1.461792,-0.638832,-1.585528,0
3068930360,-0.523366,-0.335005,0.371614,-0.847286,-0.355696,-0.482344,0
3068963694,-0.3886,-0.321004,-0.016438,-1.029068,-0.281132,0.094131,0
3068997028,0.292274,-0.565138,-0.013751,-0.405108,0.004028,1.070435,0
3072530432,1.3688,-2.27223,0.397996,-0.670019,3.135465,3.27126,0
3072563766,3.238487,-1.048736,0.038792,-0.604919,3.020551,4.384845,0
3072597100,0.692666,0.010377,0.45517,-0.431191,2.363491,4.688331,0
3072630434,-0.501613,0.397546,0.31804,-0.952963,1.991796,5.310997,0
3072663768,0.311284,0.315334,0.051057,-0.695105,1.342903,4.017816,0
3072697102,1.06089,0.498289,0.388898,-1.276963,-0.177198,3.422719,0
3072730436,1.514954,0.671633,0.831169,-0.911226,-1.90513,2.521874,0
3072763770,0.806263,0.20221,0.409766,-0.387325,-2.81701,1.872336,0
3072797104,0.979035,-0.71523,-0.262933,0.384966,-2.672722,1.057754,0
3072830438,-0.027789,-0.679911,-0.346278,0.57684,-1.668244,0.900189,0
3072863772,-1.588941,-1.104927,0.255847,0.861001,-1.98007,-0.330865,0
3072897106,-1.344545,-0.995133,0.018303,0.8682,-1.340399,-1.389242,0
3072930440,-0.178417,-0.326298,-0.325321,1.180273,-1.178826,-3.051527,0
3072963774,0.345585,0.619715,0.282007,0.675637,-0.325293,-3.966806,0
3072997108,0.630929,0.821609,0.171985,0.600369,-0.112135,-4.203486,0
3073030442,0.183356,1.054264,0.287625,0.322023,-0.376465,-4.233846,0
3073063776,-0.41729,0.607714,0.39804,0.810333,-1.218412,-4.494196,0
3073097110,-0.708911,0.372043,0.236374,0.254516,-2.334601,-4.319792,0
3073130444,-1.199418,-0.394932,0.103642,0.214116,-1.957405,-3.991567,0
3073163778,-0.943263,-0.603762,-0.237175,0.18264,-1.936762,-4.110614,0
3073197112,0.319799,-0.696448,-0.627627,-0.545538,-3.235553,-3.957833,0
3073230446,0.848749,-0.267498,-0.396747,0.593157,-2.863697,-2.62667,0
3073263780,0.944088,0.374581,0.624828,-0.532712,-0.981972,-2.16972,0
3073297114,0.871381,0.608095,0.629169,-0.035116,1.630211,0.429333,0
3073330448,1.166994,0.549039,-0.087147,0.169095,2.976983,1.395186,0
3073363782,0.991324,-0.94216,0.667588,0.35022,3.994723,3.603169,0
3073397116,1.20057,-0.824927,-0.316678,1.321894,4.509562,4.222084,0
3073430450,-0.368355,-0.36741,-0.266844,0.848002,3.33835,3.044052,0
3073463784,-0.336339,0.106082,-0.269147,0.773028,2.708696,1.60077,0
3073497118,-0.222618,0.157732,-0.316592,0.434899,1.128323,0.589292,0
3073530452,-0.184695,0.239482,-0.334384,0.116218,-0.914254,-1.112906,0
3073563786,-0.420235,0.3649,-0.165732,-0.346343,-2.616565,-1.112914,0
3073597120,-0.700193,0.178583,-0.10994,-0.847959,-3.200931,-1.938023,0
3073630454,-0.371366,0.223177,-0.835699,-1.386991,-3.972913,-1.957965,0
3073663788,-0.776244,-0.071085,-0.425804,-1.774588,-3.521187,-2.457386,0
3073697122,0.073879,0.223937,0.065168,-1.430857,-2.914016,-3.06136,0
3073730456,0.998295,0.724841,0.21851,-0.77437,-3.110337,-3.180403,0
3073763790,1.041758,-0.576003,0.610922,0.191353,-2.070873,-2.419396,0
3073797124,0.458494,-0.274581,0.484275,1.005024,0.0703,-1.310814,0
3073830458,-0.18807,-0.170393,0.223422,0.658249,1.425667,0.132763,0
3073863792,0.390823,-0.645861,-0.357458,0.460982,4.281928,2.526004,0
3073897126,-0.44988,0.043106,-0.108873,0.744867,5.879628,4.347018,0
3073930460,-0.687949,-0.013985,0.213725,0.450794,4.824286,3.980911,0
3073963794,0.304893,-0.34991,0.060878,0.754144,4.769876,3.8707,0
3073997128,-0.057344,0.065879,-0.113923,0.439849,2.303074,2.702158,0
3074030462,0.022245,0.173994,0.299899,-0.2787,0.042184,0.861436,0
3074063796,0.183968,-0.325938,0.155502,-0.573439,-0.998438,0.65468,0
3074097130,0.509244,-0.376901,-0.111224,-0.492325,-1.64426,-0.352151,0
3074130464,-0.188524,-0.159466,-0.318297,-0.805139,-2.871302,-0.937379,0
3074163798,-0.630048,-0.065683,0.308489,-0.695407,-3.321384,-1.102476,0
3074197132,-0.183759,0.144151,-0.248818,-0.731161,-3.33953,-1.976871,0
3074230466,-0.154607,0.372256,0.113079,-0.927105,-3.514133,-2.101239,0
3074263800,0.120341,-0.386728,-0.455936,-0.331896,-3.417436,-2.031187,0
3074297134,-0.206826,0.100281,0.119293,-0.268492,-2.814066,-2.067467,0
3074330468,0.184205,-0.306548,0.485621,0.382347,-0.696348,-0.835663,0
3074363802,0.5218,-0.103717,0.195875,0.757447,1.244893,-0.825902,0
3074397136,0.027935,0.089103,0.09129,0.779037,2.790281,0.167819,0
3074430470,-0.148698,-0.381073,-0.089252,1.313375,5.329069,0.987352,0
3074463804,-0.070914,-0.314707,0.118949,0.822398,4.895743,0.753104,0
3074497138,0.229891,-0.846464,0.031467,0.119351,3.766066,2.124515,0
3074530472,-0.068765,-0.689178,-0.187891,0.315105,3.694571,1.539492,0
3074563806,-0.090869,-0.646563,0.065291,0.045534,1.206692,1.029809,0
3074597140,0.691336,-0.898027,0.345738,-0.779401,-1.92144,0.715879,0
3074630474,-0.440552,-0.684707,0.618546,-1.043491,-3.112254,-0.656034,0
3074663808,-1.301552,0.103511,0.23639,-1.544251,-4.01159,-2.610108,0
3074697142,-0.270528,0.105782,-0.337107,-1.840952,-4.971226,-2.810367,0
3074730476,0.011164,0.298969,-0.226537,-0.703532,-4.123995,-2.56495,0
3074763810,0.127892,0.565645,-0.213728,-0.052283,-4.010397,-1.820616,0
3074797144,0.127401,0.272289,-0.047933,1.116762,-1.519025,0.349916,0
3074830478,-0.492046,-0.050148,0.094654,1.157819,1.326895,1.29373,0
3074863812,-0.316395,0.318054,-0.496032,0.290806,2.907028,3.526415,0
3074897146,0.468419,-0.04345,-0.515533,0.345896,5.229315,3.96669,0
3074930480,0.484209,-0.106533,-0.246632,-0.057377,4.893431,3.801753,0
3074963814,0.227246,0.009366,0.138855,0.515689,4.015225,2.29323,0
3074997148,-0.692509,-0.16077,0.196137,0.353186,1.70185,0.120576,0
3075030482,-0.76537,0.326271,-0.659871,0.027385,-0.619532,-1.802759,0
3075063816,-0.369777,0.768825,-0.330552,-0.173613,-1.755484,-2.929188,0
3075097150,0.075208,-0.126518,0.077436,-0.57176,-3.711792,-2.485304,0
3075130484,-0.806141,0.946067,0.235327,-0.865186,-4.042649,-2.135685,0
3075163818,-0.370362,-0.109599,0.461778,-0.024107,-3.38637,-0.662397,0
3075197152,-0.182643,0.132563,-0.812762,-0.950624,-3.375881,-0.018085,0
3075230486,0.514313,0.174525,-1.090841,-0.62109,-1.785281,0.49067,0
3075263820,-0.195261,0.116355,0.810497,-0.459817,-0.583372,1.036652,0
3075297154,0.783782,0.217328,0.533037,-0.406479,0.596443,0.922302,0
3075330488,0.395028,0.339656,0.424891,-0.016599,1.119872,1.295228,0
3075363822,-0.232691,0.277407,0.522859,-0.186054,1.927001,1.986853,0
3075397156,-0.609445,0.694225,0.372898,-0.519039,1.82678,1.776082,0
3075430490,0.311137,0.814613,0.758239,-0.084706,2.316902,2.318491,0
3075463824,0.824381,0.435131,0.104582,-0.210194,2.328983,2.890461,0
3075497158,0.977439,-0.011281,0.279326,-0.1474,1.645459,3.309195,0
3075530492,0.579759,-0.025338,0.522514,0.171392,1.905526,1.989249,0
3075563826,0.075757,-0.078379,0.626341,0.175378,1.373413,0.72111,0
3075597160,-0.250677,-0.222978,0.748341,0.444098,0.886178,-0.825449,0
3075630494,0.161863,-0.685159,0.763214,0.231265,-0.603812,-2.179053,0
3075663828,-0.178087,-0.442852,0.628352,0.157877,-2.319688,-1.863589,0
3075697162,-0.943232,0.574731,0.08095,0.270808,-2.690374,-1.293,0
3075730496,-0.458799,0.311189,-0.028936,-0.034496,-3.860996,-1.513048,0
3075763830,-0.356087,0.520098,-0.296123,0.767231,-2.978722,-1.186647,0
3075797164,-0.749054,0.826623,-0.431221,0.029785,-3.573299,-1.505656,0
