SampleTimeFine,D_Leg_Acc_X,D_Leg_Acc_Y,D_Leg_Acc_Z,D_Wrist_Acc_X,D_Wrist_Acc_Y,D_Wrist_Acc_Z,Activity
2547819938,-0.067534,0.386188,0.149065,0.045287,-0.246646,-0.005507,0
2547853272,-0.062777,-0.025211,0.321842,-0.165516,-0.28526,0.064039,0
2547886606,0.109375,-0.142719,-0.039942,-0.267744,-0.222414,0.083449,0
2547919940,-0.349939,-0.045076,-0.003676,-0.384216,-0.146301,0.167038,0
2547953274,-0.00757,0.148256,0.227727,-0.316748,0.443131,0.77948,0
2547986608,0.230045,1.111157,0.616162,-0.789518,1.428271,1.025436,0
2548019942,0.406735,1.397499,0.482271,-1.034672,1.549137,1.215108,0
2548053276,0.847394,2.561713,1.271419,-2.751127,3.759835,0.922184,0
2548086610,2.037538,3.903652,1.957058,-2.936704,6.243848,0.420749,0
2548119944,3.095847,2.009809,1.359287,-2.241515,6.360784,-0.775856,0
2548153278,0.20802,-3.822073,0.021669,-1.826934,4.853297,-1.342158,0
2548186612,-3.472074,-1.882309,0.115232,-0.815766,3.047294,-0.814592,0
2548219946,-2.011589,-2.468358,-3.155744,-0.154578,1.314211,-1.18396,0
2548253280,-1.019199,-3.36321,-4.483586,0.391828,0.325491,-1.11266,0
2548286614,-0.340076,-4.690291,-8.075151,0.359393,-0.876123,-1.555566,0
2548319948,-0.612137,1.400112,-2.917482,0.415176,-2.250314,-2.062108,0
2548353282,0.08118,0.019665,5.952577,0.865662,-3.138188,-2.650478,0
2548386616,5.098199,3.947946,3.822176,0.864365,-3.421451,-4.203695,0
2548419950,1.087275,0.754026,-0.135563,0.535826,-4.383026,-4.743291,0
2548453284,-4.121175,-1.242136,-2.840534,1.108809,-5.169873,-5.822317,0
2548486618,-1.58542,-0.277293,-2.289071,1.255652,-5.105587,-6.609057,0
2548519952,-1.555376,0.778259,0.516899,1.319254,-5.634473,-6.390428,0
2548553286,-0.811346,0.736706,3.756057,0.707479,-5.333616,-3.998048,0
2548586620,0.613623,-1.470695,1.936588,0.331994,-3.746573,-2.941424,0
2548619954,2.634358,-0.649374,-3.956963,-0.316217,-2.017261,1.21499,0
2548653288,1.669083,-0.261901,0.03373,0.017126,0.950984,5.304119,0
2548686622,0.848099,-1.243774,1.439781,-0.452646,4.432561,7.0695,0
2548719956,-0.1115,0.164239,0.621209,-1.350361,5.399078,8.570848,0
2548753290,-0.508791,-1.402408,2.804621,-0.710662,5.612085,6.047129,0
2548786624,-1.883487,-2.061862,-0.215688,-0.865164,3.400117,4.081609,0
2548819958,-0.320717,-0.412071,-1.195283,-0.722177,0.525841,1.822884,0
2548853292,-0.149715,0.142402,0.441214,0.625879,-1.684432,-0.55146,0
2548886626,0.744489,0.217799,1.078079,1.464084,-3.311276,-2.786702,0
2548919960,0.657282,0.331626,0.255447,2.360901,-4.756589,-4.042668,0
2548953294,0.215455,0.339193,-0.008699,3.042337,-4.73935,-3.790895,0
2548986628,-0.252602,0.219599,0.422936,2.849354,-4.700275,-1.99503,0
2549019962,0.361941,0.268236,0.617139,1.021295,-3.143535,-1.104261,0
2549053296,-0.313999,0.313257,-1.500701,0.834052,-1.009318,1.064491,0
2549086630,-0.328677,-0.422891,-0.326973,0.383739,0.485039,2.66625,0
2549119964,-0.033329,-0.005133,0.282476,-0.213789,2.575649,4.480797,0
2549153298,0.119141,0.016931,1.412548,-1.107108,3.668307,5.97732,0
2549186632,-0.018958,0.277072,0.445639,-0.99967,3.875911,5.857032,0
2549219966,-0.992132,-0.137056,-0.173313,-0.689471,3.452178,4.800419,0
2549253300,-1.449636,-0.364181,-0.144295,0.997378,1.95054,2.645115,0
2549286634,-0.861509,-0.392455,0.281354,1.183382,-2.849713,-0.224181,0
2549319968,-0.076186,-0.225365,0.383303,0.739874,-4.779894,-3.996118,0
2549353302,0.932085,-0.626425,1.089466,1.227745,-2.902474,-4.891873,0
2549386636,1.365396,-0.01629,-0.191676,-0.78961,0.820339,-0.271726,0
2549419970,1.607124,0.016297,0.926776,-1.430144,2.191938,2.094796,0
2549453304,0.627739,-0.420139,0.938434,-2.022314,1.108187,3.89735,0
2549486638,-0.640829,0.031809,0.13502,-2.602577,4.025316,6.084938,0
2549519972,-0.381542,0.149099,0.874475,-0.237441,3.62416,4.858266,0
2549553306,-0.56438,-0.158748,0.959557,-0.238789,1.623864,5.237528,0
2549586640,-0.606309,-0.149926,0.100498,-0.51874,-0.280014,3.901507,0
2549619974,-1.059752,-0.628147,0.115425,0.563558,-1.786868,0.043096,0
2549653308,-0.64971,-0.808992,0.772363,1.249655,-3.722077,-2.666864,0
2549686642,-0.558379,-0.995658,1.086431,0.093314,-4.198874,-5.599628,0
2549719976,-0.036171,-0.821486,0.88634,1.786253,-4.157579,-4.82746,0
2549753310,0.550658,-0.444975,0.326965,1.408682,-2.918812,-2.87396,0
2549786644,0.990386,0.233958,-0.53483,0.773865,-0.268368,0.682941,0
2549819978,0.86378,0.564025,-0.953218,0.572194,1.372763,3.06979,0
2549853312,0.433406,0.677376,0.146574,-0.517739,3.557222,4.356318,0
2549886646,-0.076461,0.455761,0.754268,-0.435629,3.792453,4.302166,0
2549919980,0.003949,0.475371,-0.133868,-1.347657,2.737743,3.915129,0
2549953314,-0.532689,0.319629,-0.892142,-1.266777,1.129791,2.885921,0
2549986648,0.119849,0.333754,-0.710157,-0.40143,-1.064378,0.844751,0
2550019982,0.037739,0.152421,0.136558,0.044975,-2.506648,-1.836461,0
2550053316,-0.534784,0.105251,0.231435,0.450765,-2.95643,-4.029294,0
2550086650,-0.720939,-0.138608,0.404123,0.705152,-3.240893,-3.801402,0
2550119984,0.043673,-0.18616,-0.231414,0.523853,-2.515066,-1.581828,0
2550153318,-0.339592,-0.153857,-0.040851,0.288201,-1.788851,-0.214778,0
2550186652,0.007454,-0.067208,0.422922,-0.498688,0.840326,2.738646,0
2550219986,0.108772,0.075643,0.240316,-0.367864,2.2788,3.419106,0
2550253320,0.164325,0.115027,0.16342,-0.600642,2.80031,3.395739,0
2550286654,0.039882,-0.045185,0.344483,-0.602445,2.962259,3.709086,0
2550319988,0.458185,-0.141241,0.089144,-0.388796,2.258311,3.337856,0
2550353322,-0.194615,-0.363269,0.359899,-0.065664,1.357605,2.469904,0
2550386656,-0.114992,-0.253167,0.873128,0.542135,-0.29101,0.166608,0
2550419990,0.288369,-0.323827,0.587691,0.539045,-1.051584,-1.338824,0
2550453324,0.631384,-0.689208,0.009478,0.353715,-2.539314,-3.115054,0
2550486658,0.120613,-0.670501,-0.286192,-0.503241,-2.291895,-3.430343,0
2550519992,-0.182174,-0.500315,-0.111029,0.157856,-1.682518,-1.663934,0
2550553326,-0.263688,-0.856906,-0.348988,0.083554,-1.199437,-0.170161,0
2550586660,-0.686107,-0.770845,-0.385641,-0.340313,0.219688,1.573293,0
2550619994,-1.114956,-0.753415,0.062676,-0.488359,1.441571,2.046311,0
2550653328,-1.10858,-0.105409,0.441754,-0.871668,2.202102,2.37467,0
2550686662,-0.762408,-0.363301,0.284643,-0.603768,2.360892,1.996541,0
2550719996,-0.183193,0.098682,-0.655223,0.245296,1.401013,1.284445,0
2550753330,0.022602,0.358445,-0.769574,0.579919,0.174449,-0.770873,0
2550786664,0.019109,0.534939,-0.335204,0.499618,-0.956652,-2.481581,0
2550819998,0.297722,1.378713,-0.027411,0.558505,-1.178303,-3.672228,0
2550853332,-0.117746,1.565604,0.009482,0.4974,-1.356888,-3.957948,0
2550886666,0.188716,1.716053,-0.114718,0.390518,-1.615353,-3.700303,0
2550920000,0.45152,1.114019,-0.250141,0.244345,-1.292984,-2.254401,0
2550953334,0.263877,0.611921,-0.34875,0.55292,-0.541638,-1.127246,0
2550986668,0.403867,0.826262,-0.084607,0.407542,0.108603,0.861614,0
2551020002,0.497279,0.968189,0.28373,-0.145609,1.043074,1.782699,0
2551053336,0.174975,0.565054,0.246282,-0.278808,1.710472,2.096077,0
2551086670,-0.666359,0.175532,-0.460247,-0.101497,1.577947,1.605128,0
2551120004,-0.756121,-0.564605,-0.536724,0.223241,1.375615,1.228247,0
2551153338,0.182573,-1.122772,-0.668959,0.560252,0.787206,0.479075,0
2551186672,0.834128,-0.431686,-0.385606,0.840815,0.239698,-0.51669,0
2551220006,0.667066,-0.741436,-0.593561,0.83666,-0.189809,-1.535817,0
2551253340,0.357986,-0.842304,-0.570823,0.890224,-0.4833,-2.110875,0
2551286674,0.690944,-0.933736,-0.408285,0.861623,-0.739649,-2.667017,0
2551320008,0.374678,0.190102,-0.43917,0.623743,-1.114473,-2.531902,0
2551353342,-0.965941,0.87384,-0.595517,0.701671,-1.267941,-2.229041,0
2670889066,-0.13166,-0.214688,-1.423058,0.029061,-0.15425,-1.610137,0
2670922400,0.240795,2.365044,-0.355416,0.039197,-0.122108,-1.865883,0
2670955734,0.397564,3.254668,2.10794,0.308093,-0.78353,-2.24565,0
2670989068,1.495693,0.640042,0.70729,0.435707,-0.639443,-3.043259,0
2671022402,0.128491,-1.320213,-0.444919,-0.25612,-0.641508,-3.807319,0
2671055736,-1.07022,-1.772136,0.318968,-0.374362,-0.643061,-2.929419,0
2671089070,-1.876419,-0.994992,-0.728497,-0.11457,-0.496106,-0.811397,0
2671122404,-0.219078,-0.425585,-1.632021,-0.172671,0.523036,1.782586,0
2671155738,0.230945,0.191126,-0.078997,-0.242144,1.526935,3.18866,0
2671189072,0.769657,-0.120521,0.867266,-0.275206,1.65227,3.933289,0
2671222406,-0.467642,-0.327686,-0.697147,-0.320776,1.043076,2.947356,0
2671255740,-0.703627,0.095602,-0.321334,-0.061,-0.274491,1.713199,0
2671289074,0.192402,-0.385313,0.844135,0.078074,-0.518041,-0.436721,0
2671322408,0.033092,-0.224767,-0.171022,0.284803,-0.391439,-1.88221,0
2671355742,-0.843582,-0.076635,1.524955,0.58184,-0.745603,-2.521772,0
2671389076,-0.745955,-0.63541,-0.107127,0.058233,-1.555611,-4.060449,0
2671422410,0.505286,0.45473,-0.964019,0.764289,-2.446962,-3.967654,0
2671455744,0.701004,0.028178,1.072644,0.748709,-2.215188,-3.134227,0
2671489078,0.881863,0.360995,-0.471871,0.80295,-1.941909,-2.421849,0
2671522412,0.312312,0.564708,-0.668307,0.4148,-1.053348,-0.105868,0
2671555746,-0.012729,-0.577813,0.063285,-0.013429,0.491814,1.739157,0
2671589080,-0.830301,0.071664,-0.66401,0.319108,1.322168,3.394973,0
2671622414,-0.542495,-0.998144,0.953073,0.172349,2.382821,4.600559,0
2671655748,1.537977,0.086103,0.149634,-0.223626,1.889479,4.78945,0
2671689082,1.381461,0.180964,0.013093,-0.501628,1.043656,3.629394,0
2671722416,0.276226,-0.221999,0.16129,-0.105253,0.426601,2.955521,0
2671755750,0.141865,0.237435,-0.017599,-0.120655,0.377533,1.710906,0
2671789084,-0.223252,-0.017218,0.367583,-0.099964,-0.876372,0.478028,0
2671822418,-1.010432,-0.617938,0.595213,0.131403,-1.063938,-1.219348,0
2671855752,-1.284652,-0.354704,0.407484,0.324096,-1.706941,-2.097275,0
2671889086,-1.110458,-0.214292,0.328353,0.481861,-1.999422,-3.263312,0
2671922420,-0.172051,-0.225903,0.403177,0.55609,-2.562505,-3.09299,0
2671955754,0.14095,-0.267027,-0.327197,0.292241,-2.348448,-2.724724,0
2671989088,0.309554,0.022815,-0.360696,0.118401,-1.885445,-1.167639,0
2672022422,0.710125,0.451322,0.044728,0.228123,-1.428816,0.039354,0
2672055756,-0.011993,0.029647,0.368186,0.050859,-0.777623,1.919253,0
2672089090,-0.324837,-0.268773,0.995075,-0.015295,0.044909,3.085401,0
2672122424,-0.165729,-0.496985,0.889656,0.218343,0.979617,3.713608,0
2672155758,-0.171277,-0.793552,0.737998,-0.088558,2.109629,4.073442,0
2672189092,0.197693,-0.830614,1.091847,-0.066402,2.658437,4.434602,0
2672222426,0.49086,-0.656837,0.730496,-0.090913,3.113545,4.26193,0
2672255760,0.5264,-0.116332,0.224815,-0.159617,2.668449,3.304139,0
2672289094,0.218687,0.033238,0.037679,0.182124,1.760079,1.959581,0
2672322428,-0.109645,0.262712,-0.428094,0.238322,0.772874,0.792622,0
2672355762,-0.286026,0.442621,-0.689674,0.21493,-0.36406,-0.565708,0
2672389096,-0.369738,0.429833,-0.743016,0.393587,-1.065772,-1.892504,0
2672422430,-0.059517,0.430575,-0.311217,0.474941,-2.152098,-2.901369,0
2672455764,0.387332,0.667045,0.029662,0.674203,-2.629878,-3.783,0
2672489098,0.206723,0.680175,-0.123785,1.138966,-2.733449,-2.760022,0
2672522432,-0.434803,0.093951,0.001958,0.131208,-3.118847,-2.442731,0
2672555766,-0.828785,-0.288619,0.255371,-0.194652,-2.153124,-0.433655,0
2672589100,-0.680349,-0.493527,0.533429,-0.904524,-0.070318,1.637097,0
2672622434,-0.465578,-0.637456,0.75059,-1.078717,1.632768,3.376609,0
2672655768,0.061042,-0.442201,0.621798,-1.547696,2.570972,3.368344,0
2672689102,-0.056909,-0.661101,0.55329,-1.050601,3.663023,4.349152,0
2672722436,-0.119743,-0.702689,1.079421,-0.800566,3.103567,4.457505,0
2672755770,-0.045638,-0.879247,1.598341,-0.919249,2.400367,3.866742,0
2672789104,0.239489,-0.555652,0.287349,-0.114224,0.977741,2.497689,0
2672822438,0.636175,-0.271522,-0.121605,0.59721,-0.811316,1.441,0
2672855772,0.357742,-0.467268,0.883522,0.937686,-1.58367,0.006886,0
2672889106,0.138405,-0.093795,1.027095,0.875327,-2.068705,-1.811776,0
2672922440,-0.25604,0.251119,0.224433,0.642661,-2.016937,-0.922414,0
2672955774,-0.172205,0.16879,-0.091833,0.185176,-1.303273,0.477346,0
2672989108,0.026016,0.64266,-0.767664,-0.367086,0.203564,1.29488,0
2673022442,0.011083,0.699261,-0.520661,-0.38886,1.568653,2.715665,0
2673055776,-0.48382,0.474666,-0.638402,-0.676596,2.235857,3.408267,0
2673089110,-1.097466,0.499472,-0.916446,-0.706031,1.638563,3.631896,0
2673122444,-0.726016,0.41545,0.556693,-0.102656,1.183471,2.694062,0
2673155778,-0.218698,0.407807,-0.125731,0.002144,0.432704,1.01351,0
2673189112,-0.262406,0.233529,-0.45711,0.383046,-0.986498,-0.731284,0
2673222446,-0.026259,0.096613,0.361062,0.635624,-1.939334,-2.343046,0
2673255780,0.316682,0.206671,0.31571,0.678165,-2.111869,-3.175694,0
2673289114,0.074686,-0.176517,0.038166,0.734621,-2.146048,-3.165961,0
2673322448,0.967256,0.218025,-0.006869,0.423098,-2.297556,-2.464195,0
2673355782,0.376923,0.127496,0.644293,0.193497,-1.621669,-1.314853,0
2673389116,0.228735,0.280736,1.407793,0.243859,-0.488954,0.460547,0
2673422450,0.279606,-0.080048,0.983224,0.335535,1.134798,1.099081,0
2673455784,-1.210263,-0.745268,-0.913217,-0.126232,0.259567,1.894632,0
2673489118,-0.941416,-0.799163,-1.296822,0.045534,1.061074,3.308398,0
2673522452,-0.382677,-0.68445,0.000495,-0.134908,2.516032,3.670009,0
2673555786,0.372808,-0.661584,0.422299,-0.070235,2.073493,2.883829,0
2673589120,1.440896,-0.363639,-0.40488,-0.235313,0.904937,2.493119,0
2673622454,0.888036,-0.094294,-0.101557,-0.42057,0.209464,1.764594,0
2673655788,0.767247,-0.48139,0.953858,0.341178,-0.736603,-0.046437,0
2673689122,0.763056,-0.728212,0.47964,0.239725,-1.697794,-1.520597,0
2673722456,0.526595,-0.549912,-0.520211,-0.126924,-1.616524,-1.504626,0
2673755790,0.634508,-0.516059,-0.244596,0.318506,-1.832285,-2.00001,0
2673789124,0.240484,-0.06378,0.034615,0.434114,-1.753919,-2.737013,0
2673822458,-0.116003,-0.030422,0.237244,0.628673,-2.006763,-1.668618,0
2673855792,-0.460575,-0.117748,-0.014821,-0.550459,-0.902278,-0.378264,0
2673889126,-0.184175,0.362896,-0.508797,0.182793,0.020231,-0.356325,0
2673922460,-0.702916,0.561366,-0.443305,-0.067034,0.551071,0.701898,0
2673955794,-1.200921,0.132578,-0.105198,-0.168641,1.611195,1.402593,0
2673989128,-1.45998,0.191686,-0.210497,-0.203709,2.200741,0.901815,0
2674022462,-0.900187,1.294048,-1.0742,-0.492074,1.983478,1.516149,0
2674055796,0.044617,1.308918,-0.288371,-0.079411,1.411271,1.316517,0
2674089130,0.899598,1.236888,-0.185752,0.044941,1.337379,0.694218,0
2674122464,0.971496,1.471268,-0.630697,0.169138,0.670217,0.457916,0
2674155798,1.0983,1.35674,0.216659,0.640647,-0.090443,-0.291954,0
2674189132,0.198756,0.668559,0.119363,0.77811,-0.655202,-1.207334,0
2674222466,-1.296932,0.011423,-0.202752,0.765168,-0.89984,-1.800346,0
2674255800,-1.518313,-0.56924,-0.165329,1.471875,-0.96234,-1.962698,0
2674289134,0.258688,-0.289497,-0.245238,1.112529,-1.161674,-3.369772,0
2674322468,0.919112,0.392578,-0.095555,1.201722,-1.529023,-4.100914,0
2674355802,0.922958,0.092202,-0.173784,1.646805,-1.466356,-4.155611,0
2679155898,-0.491387,0.269471,-0.193198,0.300049,0.310038,-0.294838,0
2679189232,-0.300685,-0.366495,-0.458563,0.029524,0.531747,-0.076307,0
2679222566,0.560591,-0.302035,-0.450819,0.219719,0.3458,-0.398066,0
2679255900,0.24457,-0.155237,-0.700433,0.222594,0.829971,-1.11787,0
2679289234,-1.26268,-0.483612,-1.591684,-0.153114,1.515817,-1.692395,0
2679322568,0.038761,-4.628595,-2.464186,0.102159,1.242245,-2.749246,0
2679355902,-1.618923,3.368367,-2.850088,0.918184,0.05574,-4.031313,0
2679389236,-0.00553,-1.325178,1.178074,1.529388,-0.131092,-6.501756,0
2679422570,2.126943,0.460006,1.849156,0.258939,-0.270815,-6.185744,0
2679455904,2.102623,-0.345798,0.73117,-0.032484,-0.986494,-5.405999,0
2679489238,-0.834977,1.933842,1.899769,1.064299,-1.864487,-5.308043,0
2679522572,0.484441,-0.098712,2.001071,-0.318896,-2.192616,-3.150016,0
2679555906,0.523135,-0.46405,0.747986,-0.029756,-1.423596,0.875131,0
2679589240,-0.856989,-0.480625,-0.71338,0.050859,-0.191679,2.555164,0
2679622574,-1.793692,0.02156,-1.618636,0.085642,1.290324,4.461154,0
2679655908,-2.043827,-0.254145,0.429501,-0.779194,1.730425,4.915074,0
2679689242,1.378796,0.423042,-0.031136,-0.72357,0.430529,4.043534,0
2679722576,0.430445,0.887541,0.422643,-0.123086,0.514814,1.644034,0
2679755910,-0.154154,-0.564807,1.389098,-0.30952,0.14607,-0.138415,0
2679789244,0.378065,0.632671,-0.161161,0.462983,-0.683376,-1.794421,0
2679822578,-1.741414,-0.245456,0.524156,0.130789,-0.792726,-3.066179,0
2679855912,-0.311897,-1.031433,-0.81255,-0.117002,-0.844396,-3.8091,0
2679889246,-0.230246,0.415361,-1.871666,-0.297995,-1.640093,-2.638842,0
2679922580,0.613896,0.153829,0.63553,-0.242662,-1.351943,-0.905226,0
2679955914,1.670297,0.345849,1.17668,-0.441193,-0.403136,0.559958,0
2679989248,0.663581,0.110074,-1.343298,-0.881318,-0.309814,2.785204,0
2680022582,0.7961,0.928894,-1.396776,-0.739295,0.8384,3.828965,0
2680055916,1.638905,0.403814,3.411654,-1.041142,1.438833,4.666707,0
2680089250,0.385757,-0.926818,2.253706,-0.869545,1.327004,4.823831,0
2680122584,-0.780655,-0.537725,-1.811675,-0.897328,1.20852,3.790048,0
2680155918,-0.075808,0.349776,-1.137879,0.048976,0.83282,2.373466,0
2680189252,0.366515,0.10835,0.872654,0.378086,-0.171784,0.29225,0
2680222586,0.055582,-0.114464,0.593843,1.002832,-0.88092,-1.074862,0
2680255920,-1.156844,-0.14093,-0.208668,1.349111,-0.918765,-2.426632,0
2680289254,-1.390468,-0.411205,-0.366158,1.128974,-1.768132,-3.212139,0
2680322588,-1.108384,-0.378304,0.671145,0.645327,-2.289363,-3.158679,0
2680355922,-1.05953,-0.838035,1.248369,0.939093,-2.616946,-3.065444,0
2680389256,-0.251289,-0.627352,0.698138,0.628137,-2.757055,-2.453364,0
2680422590,0.315987,-0.590963,0.882005,0.78061,-3.420331,-1.683033,0
2680455924,0.018828,-0.976678,1.122606,0.053784,-2.430757,0.621493,0
2680489258,0.279205,-0.496058,0.626007,-0.000328,-1.242432,2.375496,0
2680522592,-0.115697,-0.121727,0.345079,-0.631597,0.560457,4.41087,0
2680555926,0.105516,-0.008354,0.293682,-0.959094,2.419344,4.923837,0
2680589260,0.351344,0.263323,-0.142838,-0.954693,3.845551,5.232497,0
2680622594,0.397657,0.627119,-0.676261,-0.457407,4.524539,4.26558,0
2680655928,0.468544,0.664623,-0.826913,-0.253401,3.948822,3.838669,0
2680689262,0.184059,0.433376,-0.419385,-0.202431,3.431813,3.367604,0
2680722596,-0.074701,0.443433,-0.211875,-0.049468,2.228293,2.418102,0
2680755930,-0.275394,0.187823,-0.133288,0.348119,1.055866,1.345022,0
2680789264,-0.266489,-0.159615,0.19446,0.681516,-0.346694,0.097492,0
2680822598,-0.3096,-0.211989,0.151928,0.885185,-1.854062,-1.77775,0
2680855932,-0.153878,-0.182816,0.300623,1.051899,-2.398909,-3.088144,0
2680889266,-0.292653,-0.043273,0.446818,0.811427,-2.800027,-4.097787,0
2680922600,-0.243344,0.04103,0.26071,0.352927,-2.735627,-2.974952,0
2680955934,-0.264318,0.047388,0.047985,-0.28178,-2.214781,-1.103044,0
2680989268,-0.433771,0.062201,-0.123076,-0.435006,-0.699009,0.324605,0
2681022602,-0.199063,-0.007455,-0.272021,-0.4541,1.273918,1.849983,0
2681055936,0.139014,-0.04624,-0.276606,-2.155782,2.674299,3.86097,0
2681089270,0.028496,-0.235719,0.475139,-1.729309,4.0686,4.569049,0
2681122604,0.146821,-0.657794,1.006766,-0.731243,4.089622,4.178017,0
2681155938,0.18702,-0.762791,1.454828,-0.783108,2.77002,4.000752,0
2681189272,0.880886,-0.605786,1.866645,-0.447068,1.639366,3.762447,0
2681222606,-0.0603,-0.681757,1.536461,0.141497,0.077462,1.892436,0
2681255940,-0.343539,-0.700921,1.164019,0.891073,-2.094187,-0.568188,0
2681289274,-0.317559,-0.075955,0.299909,0.041703,-2.618434,-1.453235,0
2681322608,-0.658597,0.010175,0.070841,0.978112,-3.656377,-2.188687,0
2681355942,-0.243017,0.31662,0.319673,0.944496,-3.542643,-3.487567,0
2681389276,0.038284,0.179162,0.301448,0.900949,-2.998904,-2.676936,0
2681422610,-0.307536,0.290856,-0.829759,0.320654,-1.961889,-1.492843,0
2681455944,-0.482138,0.159695,-0.876676,-0.074202,-1.257446,0.48506,0
2681489278,-0.746665,0.470068,-0.86915,-1.493787,0.12054,2.390935,0
2681522612,-0.183175,0.474103,-0.274921,-0.449807,1.115109,3.209247,0
2681555946,0.308353,0.725141,-0.110353,-0.989712,2.538593,3.585189,0
2681589280,-0.1792,-0.139877,-0.531302,-0.999497,3.039778,3.810105,0
2681622614,-0.657213,-0.077098,-0.179062,-1.03148,2.679118,3.499274,0
2681655948,-0.31299,-0.420135,-0.029597,-0.74386,2.180358,2.963681,0
2681689282,1.029061,0.043053,-0.198661,-0.16656,0.843084,2.409654,0
2681722616,1.14762,0.349602,-0.080933,0.336267,-0.51045,1.33102,0
2681755950,-0.041143,0.024998,0.567716,0.964333,-1.32464,-0.384567,0
2681789284,-0.489786,-0.138516,0.825122,1.023211,-1.658906,-1.478384,0
2681822618,0.483874,-0.387567,0.815943,0.778829,-2.389653,-2.853737,0
2681855952,0.912132,-0.62724,-0.045607,0.988645,-2.629233,-3.566996,0
2681889286,0.756874,-0.444531,-0.559617,0.732641,-2.137546,-2.288821,0
2681922620,0.50264,-0.800847,0.202342,0.972909,-1.672941,-1.32619,0
2681955954,0.261805,-0.478318,1.077838,0.746522,-0.850706,-0.755065,0
2681989288,0.394694,0.090931,1.01979,-0.034624,0.147487,1.527128,0
2682022622,0.756826,-0.507504,0.443102,-0.63036,1.808868,2.93693,0
2682055956,0.595578,-0.160457,-0.618634,-0.933949,2.424738,3.437119,0
2682089290,-0.309244,-0.571792,-0.282119,-1.016472,2.879442,2.988917,0
2682122624,-0.967045,-0.66883,-0.106522,-0.827936,2.655918,3.255635,0
2682155958,-0.864783,-0.442958,-0.350093,-0.478713,1.537196,1.953398,0
2682189292,-0.329608,0.113932,-0.442457,-0.043888,0.745659,1.215445,0
2682222626,-0.615737,0.359326,-0.192763,0.38353,-0.608137,-1.192368,0
2682255960,-0.938323,-0.118072,0.089606,0.604475,-1.779493,-2.375404,0
2682289294,-0.752036,0.216451,-0.759405,0.311678,-1.387504,-2.711939,0
2682322628,-0.256808,0.688421,-0.203572,0.563644,-1.231781,-2.699109,0
2682355962,0.285012,1.062675,0.365043,0.442142,-1.506412,-3.345674,0
2682389296,0.349297,1.43894,-0.329062,0.468307,-2.196621,-3.499728,0
2682422630,0.283756,1.470188,-0.410185,0.457056,-2.476112,-3.481953,0
2682455964,0.294704,1.469076,-0.206193,-0.261145,-1.824674,-1.441847,0
2682489298,0.337351,1.196924,-0.116565,0.349653,-1.120805,-2.170726,0
2682522632,0.407324,1.146865,0.26455,-0.766701,-1.013862,-0.804682,0
2682555966,0.338136,0.931434,0.200634,-0.071732,0.297482,0.394036,0
2682589300,-0.106224,0.382081,-0.122858,0.371305,1.371037,1.107476,0
2687489398,-0.98165,1.266308,0.333617,-0.931714,0.300661,-0.932001,0
2687522732,-0.652075,2.742576,0.495625,-0.870027,0.073968,-1.253616,0
2687556066,0.286401,5.283038,0.909703,-0.374459,0.514696,-1.949836,0
2687589400,2.752234,4.892653,0.096452,0.15384,0.120629,-2.38174,0
2687622734,2.242083,1.406433,-0.324591,-0.809745,-0.295336,-1.671509,0
2687656068,0.505257,-4.066055,0.613416,-0.354104,0.091651,-0.382082,0
2687689402,-3.161273,-2.497169,-0.32645,0.286159,0.196,-0.920021,0
2687722736,-2.596251,-1.404451,-1.291076,0.112915,-0.098116,-0.001296,0
2687756070,0.263722,-2.456258,-3.027654,-0.009318,-0.361793,0.842116,0
2687789404,-0.432935,-2.422838,-3.042329,0.272038,0.912146,0.467026,0
2687822738,0.902597,-2.724279,-3.675991,0.442815,1.225886,0.735797,0
2687856072,1.506567,-1.448444,-4.642555,0.340778,0.858532,0.392932,0
2687889406,-0.597588,1.21686,-0.148732,0.836605,0.014645,-0.944293,0
2687922740,1.67319,1.513022,3.6338,1.184042,-0.184902,-1.87761,0
2687956074,2.81985,3.230192,2.821467,1.304617,-0.673702,-2.480266,0
2687989408,1.92371,1.740321,3.822481,1.448445,-1.505544,-3.428965,0
2688022742,-0.426579,-1.713296,0.950377,1.493847,-1.520185,-4.062699,0
2688056076,-1.790828,-1.961196,-3.075256,1.449073,-1.173738,-3.684264,0
2688089410,0.369572,-0.055912,-1.063395,0.454982,-0.614997,-3.239247,0
2688122744,1.62896,0.307942,1.301425,0.709268,-0.844751,-1.399661,0
2688156078,0.99972,1.066685,1.820799,-0.298444,-0.435348,1.161234,0
2688189412,-1.671457,0.149384,1.588051,-1.128603,0.726726,2.419167,0
2688222746,0.087321,-0.342812,0.35887,-0.924524,0.529584,4.166162,0
2688256080,-0.250456,-0.185964,-1.701867,-1.40781,1.168371,3.822234,0
2688289414,-0.593946,-0.576048,0.109648,-1.186646,0.495506,3.645438,0
2688322748,0.895109,0.444576,0.987258,-0.495421,-0.670485,2.656979,0
2688356082,0.743535,0.812928,-0.887931,0.066719,-0.575142,0.773331,0
2688389416,-0.388257,0.112322,0.211143,0.502264,-0.749674,0.158644,0
2688422750,-0.367282,0.112915,0.025953,0.994684,-0.863943,-0.864948,0
2688456084,-1.739615,-0.025102,-0.122042,0.794505,-0.965487,-1.955621,0
2688489418,-1.152933,-0.436272,1.286352,0.942183,-0.58265,-1.745554,0
2688522752,0.389589,-0.166496,0.985305,0.996897,-1.124151,-1.53611,0
2688556086,0.261231,-0.105665,0.109533,0.316455,-1.182928,-1.142448,0
2688589420,0.443194,0.066939,-0.231031,0.357682,-0.864536,-0.504623,0
2688622754,-0.327588,-0.092784,-0.458215,-0.0944,-0.59762,0.029149,0
2688656088,-0.019483,-0.412892,0.560751,-0.120639,-0.786205,0.272128,0
2688689422,0.072844,-0.197159,0.265635,-0.179169,-0.843459,0.232592,0
2688722756,-0.263454,-0.431796,0.287627,-0.150958,-0.806392,0.610895,0
2688756090,-0.163951,-0.201543,0.434645,-0.54959,-0.600835,1.335714,0
2688789424,0.113105,-0.186651,0.441664,0.149478,-0.417893,1.923331,0
2688822758,0.853387,0.041997,0.353297,-0.092873,-0.455306,1.846123,0
2688856092,1.467415,0.19489,0.563953,-0.012953,-0.699592,2.118295,0
2688889426,1.270449,0.212145,0.170916,-0.125878,0.220588,2.840117,0
2688922760,0.277501,-0.008634,0.079927,0.100419,0.817561,2.677478,0
2688956094,-0.578701,-0.336939,0.26117,0.104376,1.780519,2.796021,0
2688989428,-0.453232,-0.291628,0.163072,-0.161657,2.364259,3.187726,0
2689022762,-0.020564,-0.09918,0.030616,-0.132841,2.961833,2.875209,0
2689056096,-0.530401,-0.048255,-0.04929,-0.223387,2.660252,2.685462,0
2689089430,-0.977546,-0.091742,0.003977,-0.135143,2.026336,2.135202,0
2689122764,-0.85526,-0.061064,-0.002085,-0.409599,1.112261,1.483657,0
2689156098,-0.845546,0.068354,0.107076,-0.093849,0.030883,0.570184,0
2689189432,-0.626501,0.040928,0.035601,-0.288641,-0.581092,-0.165401,0
2689222766,-0.136846,0.041033,-0.080785,0.121461,-1.570878,-1.658522,0
2689256100,0.16627,0.245852,0.115117,-0.442413,-2.397355,-2.334345,0
2689289434,0.068663,0.305853,0.252458,-0.532363,-2.628311,-2.735928,0
2689322768,-0.033985,0.213733,0.105392,-0.353712,-2.807286,-2.348812,0
2689356102,-0.002641,0.120618,0.075141,-0.573297,-2.235381,-1.182803,0
2689389436,0.110612,-0.068191,0.06012,-0.911079,-0.922044,0.414576,0
2689422770,-0.203517,-0.757988,0.349081,0.151001,0.722671,1.02883,0
2689456104,-0.071607,-0.910945,0.731153,0.333813,1.859833,2.482749,0
2689489438,-0.792615,-1.628796,1.86882,-0.417022,3.591938,4.650066,0
2689522772,0.142175,-1.35176,2.637726,-0.212442,3.766873,5.344596,0
2689556106,0.800873,-0.804832,1.975968,-0.012159,2.828381,4.980575,0
2689589440,0.23051,-0.62161,1.330078,0.083468,1.029452,3.901502,0
2689622774,0.01146,-0.389646,1.183293,0.097677,0.437686,2.142501,0
2689656108,0.47827,-0.115272,0.573368,0.6559,0.261429,1.225626,0
2689689442,0.242784,0.058901,0.097384,0.642023,-0.136539,0.012843,0
2689722776,-0.371215,0.10979,-0.380254,0.356672,-0.957918,-1.368038,0
2689756110,-1.290974,0.256207,-1.299381,0.29065,-1.504142,-2.101438,0
2689789444,-1.055259,0.503721,-1.230049,0.514525,-2.473509,-2.254861,0
2689822778,-0.490061,0.724173,-0.788066,0.408718,-3.040206,-2.656611,0
2689856112,-0.306554,0.792454,-0.624713,0.134283,-3.04815,-2.513348,0
2689889446,-1.150142,0.585151,-1.133721,0.071052,-3.064655,-2.448753,0
2689922780,-0.528289,0.312624,-0.874705,0.318534,-2.530576,-1.693587,0
2689956114,0.696554,0.418867,-0.996539,-0.139737,-1.167212,0.560452,0
2689989448,0.519082,0.101873,-0.902482,-0.365064,0.360318,1.788672,0
2690022782,-0.259484,-0.007455,0.930164,-0.776279,1.930343,2.763416,0
2690056116,1.216087,0.086247,1.529611,-1.155075,3.25468,3.028298,0
2690089450,1.923537,0.576014,0.063536,-1.445808,2.768687,3.891719,0
2690122784,0.557094,0.053211,0.05766,-1.046971,2.162282,3.958564,0
2690156118,0.365325,-0.192069,-0.289852,-0.098289,1.535224,3.069187,0
2690189452,0.493757,-0.289605,0.142181,0.310417,0.677848,1.815024,0
2690222786,0.193286,0.125455,0.27442,0.612667,0.039437,0.719849,0
2690256120,-0.327206,-0.603567,0.562621,0.550991,-0.831329,-0.52263,0
2690289454,0.366866,-0.532284,0.08696,0.822281,-1.321166,-1.807351,0
2690322788,-0.025292,-0.611151,-0.477528,0.141095,-1.242748,-1.931418,0
2690356122,0.046536,-0.526975,-0.57133,0.925064,-1.214605,-1.906374,0
2690389456,0.118003,0.176954,0.563873,0.533697,-1.125604,-1.888251,0
2690422790,0.332522,0.084579,1.033295,0.313889,-1.009266,-1.569996,0
2690456124,0.356561,-0.554188,-0.668417,0.358803,-1.484576,-1.008335,0
2690489458,-0.084367,-0.029329,-1.250645,0.25557,-1.26252,-0.389661,0
2690522792,-0.945611,-0.049028,0.055204,-0.228059,-0.439539,-0.558974,0
2690556126,-0.756346,0.170808,0.849924,-0.04779,-0.199008,0.513218,0
2690589460,-0.048469,0.407321,0.339837,-0.471968,0.450313,1.64977,0
2690622794,0.13411,0.858118,-0.199275,-1.041312,1.142565,2.030265,0
2690656128,-0.298194,0.753565,0.067477,-0.686455,1.759598,1.539809,0
2690689462,-0.472985,0.743217,0.027967,-0.447574,1.622291,1.870839,0
2690722796,-0.30971,1.375501,0.479189,-0.195701,1.523229,1.324275,0
2690756130,0.775854,2.074328,0.33739,0.097457,1.238034,0.556435,0
2690789464,1.168421,2.45711,-0.310225,0.251824,0.7561,0.500272,0
2690822798,0.950536,2.432225,0.687868,0.625678,0.184064,-0.551738,0
2690856132,-0.001821,1.664703,0.722945,0.433676,0.049663,-1.276248,0
2690889466,-0.552732,-0.000669,-0.107547,0.889438,-0.461357,-0.708123,0
2690922800,-0.880728,-0.674935,-0.779521,1.108134,-1.164473,-1.728987,0
2690956134,-0.433439,-1.548506,-0.899183,0.921364,-1.73849,-2.158117,0
2690989468,-0.149009,-1.817312,-0.778111,0.839649,-1.604578,-2.461741,0
2691022802,-0.063719,-1.349177,-1.261791,0.857498,-1.424861,-2.780502,0
2691056136,-0.087093,-1.405756,-1.427822,0.535354,-1.485731,-3.143037,0
2697089590,1.322092,-4.837948,-6.429496,-0.030554,0.492686,-0.294039,0
2697122924,-0.832724,1.621963,-2.949943,0.119789,1.137107,0.353306,0
2697156258,2.420905,1.316921,3.771354,0.660453,0.96913,0.359777,0
2697189592,3.950028,4.553049,4.961304,0.997801,0.398743,-0.147847,0
2697222926,2.781317,2.258859,2.635792,1.246148,-1.324722,-0.600924,0
2697256260,-1.742832,-1.384068,-0.62316,0.882554,-1.119214,-1.919976,0
2697289594,-1.211629,-1.363694,-2.36105,0.997091,-1.75454,-2.233592,0
2697322928,-0.876627,-0.865984,-1.078412,0.656858,-1.112152,-2.194382,0
2697356262,0.766745,0.225414,1.13584,0.523712,-0.578863,-2.759881,0
2697389596,0.781267,0.275072,2.048749,0.004095,-1.077252,-1.751306,0
2697422930,0.378577,0.069416,-0.226755,0.213408,-1.066479,0.059248,0
2697456264,-0.667204,0.724376,-1.346975,0.535034,-0.931377,1.047679,0
2697489598,-0.713738,-0.079298,1.227883,-0.216328,0.904669,1.779713,0
2697522932,0.055024,0.008065,0.948542,-0.630352,0.312148,3.088238,0
2697556266,-0.326254,-0.273236,0.357102,-0.272531,0.283215,2.542181,0
2697589600,0.927192,-0.313674,-0.431447,-0.239331,0.848509,2.044773,0
2697622934,0.427869,-0.135193,-0.911752,0.321627,-0.248599,1.201944,0
2697656268,0.288565,0.423495,0.152691,0.334669,-0.767359,-0.09693,0
2697689602,-0.128237,0.090197,1.84178,-0.013095,-0.292466,-0.471333,0
2697722936,-0.764049,-0.511551,2.196052,0.172264,-0.373431,-0.873532,0
2697756270,-0.209347,-0.287103,0.410159,0.103715,-0.842305,-1.156607,0
2697789604,0.460142,0.064446,-0.442396,0.314192,-0.428482,-0.917752,0
2697822938,-0.142574,-0.075188,-0.15877,0.047231,-0.368929,-1.074496,0
2697856272,-0.958853,-0.403633,0.127166,-0.260799,-0.904216,-0.899819,0
2697889606,-0.855049,-0.23446,-0.043865,0.135969,-1.844535,-0.827236,0
2697922940,0.692376,0.262416,-0.244038,0.213911,-2.046654,-0.106902,0
2697956274,1.487961,0.468551,-0.012625,0.441432,-2.088954,1.102095,0
2697989608,0.584161,-0.137872,0.832549,0.718005,-1.049906,2.070272,0
2698022942,-0.624918,-0.371172,0.847404,0.566516,0.357868,3.33561,0
2698056276,-1.296656,-0.659974,0.579834,0.654028,1.29176,3.211749,0
2698089610,-0.523914,-0.47421,0.673107,0.828644,1.775424,3.264652,0
2698122944,0.084205,-0.152534,0.355492,0.648248,1.853849,3.203181,0
2698156278,0.257007,0.010933,-0.098808,0.213054,2.124528,3.251572,0
2698189612,0.109822,-0.027637,0.146845,-0.027618,2.204612,2.761715,0
2698222946,-0.170308,0.035367,0.35242,-0.110802,2.0847,1.927325,0
2698256280,-0.314112,0.053284,-0.012387,-0.026368,1.374639,1.029031,0
2698289614,-0.082855,0.040517,-0.419975,-0.1148,0.699863,-0.081219,0
2698322948,0.687563,0.413401,-0.154975,-0.183198,-0.595941,-0.713084,0
2698356282,0.788369,0.62251,0.252864,-0.045254,-1.505494,-2.028279,0
2698389616,-0.105331,0.427245,0.011296,-0.352516,-2.436901,-2.769821,0
2698422950,-0.819871,0.175004,-0.537273,-0.479144,-2.538607,-2.45426,0
2698456284,-1.086655,0.065572,-0.370147,-0.125668,-1.710706,-1.179567,0
2698489618,-0.761757,0.089133,0.214578,-0.121459,-0.989086,0.187655,0
2698522952,-0.430435,0.008652,0.187615,0.315269,-0.203974,0.468987,0
2698556286,-0.167235,-0.035657,-0.089642,0.161641,0.738046,0.746344,0
2698589620,0.098433,-0.021049,-0.014039,-0.604174,1.823309,2.172136,0
2698622954,0.159431,0.01158,0.157312,-1.122878,2.68451,2.096189,0
2698656288,-0.167995,0.115943,0.082026,-1.226906,2.280972,1.603366,0
2698689622,-0.325946,0.02193,-0.094146,-1.553069,1.795036,2.127271,0
2698722956,-0.546248,-0.077962,-0.217145,-1.065963,1.15916,1.527352,0
2698756290,-0.641769,-0.164481,-0.147443,-0.685681,0.293815,0.868663,0
2698789624,-0.376272,-0.184067,0.268648,-0.372035,0.113401,0.97674,0
2698822958,-0.863686,-0.456154,0.633126,0.404996,-0.252049,0.112328,0
2698856292,-0.964308,-0.874572,1.392735,0.661357,-1.180136,-0.669264,0
2698889626,0.28437,-0.777139,2.146853,0.957666,-1.379955,-0.265224,0
2698922960,0.645385,-0.774247,1.978943,0.91835,-1.350866,-0.104394,0
2698956294,0.21851,-0.759076,1.24265,0.779132,-1.150539,1.381251,0
2698989628,0.608513,-0.497531,0.906129,0.14369,0.945853,3.340041,0
2699022962,0.56545,-0.286417,1.090631,-0.633913,1.710969,3.142081,0
2699056296,1.465255,-0.15115,1.066595,-1.288119,2.491522,3.652035,0
2699089630,1.0644,0.602883,-0.82395,-0.994119,2.129534,2.998228,0
2699122964,-0.989649,-0.214572,-0.927666,-0.199936,1.106941,1.571486,0
2699156298,-0.575425,-0.233984,-0.611354,0.092666,0.448262,0.365863,0
2699189632,-0.125953,-0.119332,-0.566812,0.567984,-0.655614,-1.425656,0
2699222966,-0.192613,0.168761,-0.729512,1.133973,-1.672382,-2.404041,0
2699256300,-0.93079,0.006827,-0.953068,1.128016,-2.284524,-2.661205,0
2699289634,-1.536524,0.086704,-0.12682,1.308703,-2.514186,-2.423101,0
2699322968,-0.711912,0.135099,0.080983,1.377176,-2.592885,-2.774365,0
2699356302,1.649778,0.801203,-0.572523,1.338574,-2.890516,-1.718004,0
2699389636,0.31397,0.57086,-0.515594,0.988249,-2.351646,-0.45423,0
2699422970,-0.558921,-0.343352,0.576787,0.344512,-1.999407,-0.378161,0
2699456304,0.335849,-0.243225,0.33421,-0.498428,-0.120641,2.987063,0
2699489638,1.821693,0.157735,0.188161,-0.501256,1.328813,3.660393,0
2699522972,1.565752,0.388659,0.391915,-0.910624,2.300364,4.096488,0
2699556306,-0.163408,-0.223391,0.143908,-1.134831,2.788989,4.30818,0
2699589640,0.376566,-0.219902,0.153522,-1.14091,2.769048,4.258873,0
2699622974,0.323993,-0.127845,0.171428,-0.828099,2.417583,3.744572,0
2699656308,-0.673645,-0.513864,0.365033,-0.310957,1.622679,2.705854,0
2699689642,-0.810749,-0.718816,0.005018,0.100095,0.565644,1.212958,0
2699722976,0.082283,-0.468331,-0.506828,0.473352,-0.159487,0.088912,0
2699756310,-0.489497,-0.826762,-0.022849,0.741191,-1.275846,-1.815915,0
2699789644,-0.4387,-0.583994,0.654439,0.379725,-1.989807,-2.456069,0
2699822978,0.100077,-0.828208,0.237947,0.533995,-2.199847,-2.313713,0
2699856312,0.35844,-0.448803,-0.861188,0.081472,-2.616629,-2.574183,0
2699889646,-0.376061,-0.046943,-0.187336,0.084685,-2.475967,-1.71611,0
2699922980,-0.873833,-0.106053,0.758356,-0.155968,-1.729768,-1.219261,0
2699956314,0.149049,0.348348,-0.574229,0.016091,-1.35783,-0.454598,0
2699989648,0.712601,1.234023,-1.393534,-0.219295,-0.270679,1.060128,0
2700022982,-0.209147,1.080125,0.126749,-0.230354,0.325051,0.299016,0
2700056316,-0.556226,1.419858,-0.006961,-0.040296,0.985878,0.781661,0
2700089650,0.077042,1.434081,-0.643658,0.02718,1.120987,1.164235,0
2700122984,1.053845,1.377063,-0.657003,-0.154105,1.814754,0.641685,0
2700156318,0.388224,1.89638,0.363595,0.047294,2.026542,1.006776,0
2700189652,-0.693262,1.566143,0.694205,0.377191,1.802872,1.052603,0
2700222986,-0.46243,1.68265,0.069517,1.011807,1.109316,0.776767,0
2700256320,0.123095,1.840215,-0.068537,1.150758,0.735052,-0.3873,0
2700289654,0.147129,1.668231,0.568211,0.921891,1.154535,-0.821111,0
2700322988,0.178742,0.753729,0.304175,1.24696,0.623684,-1.340161,0
2700356322,-0.602002,-0.973385,-0.339069,1.431123,-0.168509,-2.007843,0
2700389656,-0.219182,-0.395971,-0.540159,1.477417,-0.982974,-3.060348,0
2700422990,-0.421637,-0.858609,-0.009195,1.405446,-1.555215,-3.931433,0
2705523092,0.041155,-1.008197,-0.082159,1.274141,-0.169665,-1.542883,0
2705556426,-0.02221,-1.067485,-0.580722,0.61719,0.019831,-1.450401,0
2705589760,0.078089,-1.234143,-0.378657,1.188306,0.363493,-1.422996,0
2705623094,0.274349,-1.042025,-0.469887,1.348854,0.48096,-1.727159,0
2705656428,0.840552,-0.560315,-0.798856,2.762248,-0.06716,-4.036959,0
2705689762,0.659079,-0.554018,-1.097081,2.920616,0.322327,-5.328376,0
2705723096,0.241101,-1.052045,-1.832534,2.394927,0.578177,-4.556052,0
2705756430,0.142984,-0.010772,-2.151589,0.987812,-1.07286,-2.622477,0
2705789764,-0.012562,1.973064,-0.561722,-0.517889,-1.482426,-1.878514,0
2705823098,0.803039,0.46506,-1.663277,-2.23441,0.301664,0.191623,0
2705856432,1.446148,2.245615,-0.332976,-2.61504,1.171469,2.304402,0
2705889766,1.678976,1.427172,2.166755,-1.998463,1.582829,2.130977,0
2705923100,0.49305,1.738368,1.149849,-1.393808,0.991784,2.212208,0
2705956434,-1.203662,0.413086,2.199905,-1.020195,-0.044473,2.29195,0
2705989768,-1.364414,-0.242241,-0.664198,-0.315367,-0.202225,0.959767,0
2706023102,-0.098316,0.085611,0.822971,0.267037,-0.755029,-0.259693,0
2706056436,0.171482,-0.764394,-1.160993,1.0764,-0.988712,-1.351692,0
2706089770,-1.34519,-0.208865,-1.363634,1.437446,-1.385559,-2.99311,0
2706123104,-0.94357,0.174698,-0.107195,1.595348,-1.709217,-3.739148,0
2706156438,-1.421983,0.305147,-0.438665,1.229217,-1.27734,-3.732967,0
2706189772,-0.42463,-0.416992,0.962276,1.316902,-1.610592,-2.856926,0
2706223106,0.75322,0.27851,-0.524864,0.395991,-2.426006,-0.803696,0
2706256440,0.919449,0.524451,-0.378196,0.651286,-1.294304,-0.365524,0
2706289774,1.274977,-0.41172,1.77576,0.34605,-0.35369,0.746689,0
2706323108,0.117665,-0.697924,0.548006,-0.862054,0.633163,2.29467,0
2706356442,-0.032406,-0.885547,-0.358154,-0.745517,1.244757,3.857636,0
2706389776,1.528074,-0.630235,-0.064727,-0.787237,1.407161,4.031441,0
2706423110,1.272009,-0.132858,-0.089388,-1.030119,1.833119,4.279754,0
2706456444,0.133214,-0.573555,1.575075,-0.871572,0.820754,3.205767,0
2706489778,0.742247,0.336566,0.700585,-0.344395,0.014984,1.959713,0
2706523112,-0.651029,-0.048787,0.977243,0.134529,-0.402274,0.407148,0
2706556446,-0.996788,-0.164358,0.59498,0.474222,-0.54726,-1.04948,0
2706589780,-1.675316,-0.324363,0.136128,0.846526,-1.428689,-2.253489,0
2706623114,-0.545794,0.033206,0.038021,0.259303,-1.490388,-2.969002,0
2706656448,1.132422,-0.017168,0.166033,0.38393,-2.406023,-1.793594,0
2706689782,0.852693,0.166647,-0.528443,0.492892,-3.014712,-1.312068,0
2706723116,-0.631546,-0.080178,-0.766869,0.363574,-2.357801,-0.698022,0
2706756450,-0.590409,0.155246,-0.851516,0.631656,-1.542695,1.003553,0
2706789784,-0.870535,0.021767,1.129622,0.370062,-1.519576,1.482306,0
2706823118,-1.086222,-0.144077,1.698656,0.170506,0.017467,1.038835,0
2706856452,-0.369072,-0.423476,0.995887,0.366386,1.355681,2.807785,0
2706889786,-0.153921,-0.556585,-0.033179,-0.304316,2.311996,3.165189,0
2706923120,-0.149584,-0.719977,0.393745,-0.232225,2.689665,3.463586,0
2706956454,-0.090157,-0.558504,0.745958,-0.608028,3.397395,3.492682,0
2706989788,0.158911,-0.286222,0.488344,-0.112482,3.402466,3.070305,0
2707023122,-0.155393,-0.006276,0.20748,-0.603046,2.6831,2.828353,0
2707056456,-0.186845,0.095285,0.175473,-0.430899,1.450218,1.849963,0
2707089790,0.105982,0.279115,-0.201073,0.052823,0.23799,0.578551,0
2707123124,-0.099572,0.284919,-0.349327,0.712675,-0.891219,-0.496367,0
2707156458,-0.3157,0.271802,-0.317317,0.30063,-1.607381,-2.096763,0
2707189792,-0.259525,0.256328,-0.001786,0.427867,-2.39785,-3.385451,0
2707223126,-0.10888,0.332151,-0.085392,-0.020511,-2.468436,-2.949102,0
2707256460,-0.458673,0.095073,-0.069564,0.424429,-2.510764,-1.113239,0
2707289794,-0.612168,-0.031173,0.168698,0.369387,-2.582182,-2.051105,0
2707323128,-0.399235,-0.007706,0.568471,-0.737217,-1.668518,1.195469,0
2707356462,-0.353984,-0.122951,0.389988,-1.949458,0.937603,2.070576,0
2707389796,-0.177866,-0.283689,0.376032,-1.255817,3.061946,2.751298,0
2707423130,0.262754,-0.258449,0.381962,-1.656137,4.152606,3.711161,0
2707456464,-0.212223,-0.600083,0.451705,0.281135,3.486877,2.956107,0
2707489798,-0.306715,-0.465044,0.256286,0.399246,2.359703,2.160777,0
2707523132,-0.388893,-0.226803,-0.146018,0.527907,0.923259,1.783195,0
2707556466,1.154524,0.08325,0.429349,0.779197,-0.589845,0.810601,0
2707589800,1.052732,-0.118394,1.298232,0.552889,-1.316906,-1.024675,0
2707623134,0.298424,-0.615403,1.280592,0.083055,-1.733585,-0.703256,0
2707656468,0.650626,-0.700505,0.754297,0.110007,-1.124366,-0.08778,0
2707689802,0.620777,-1.006273,0.692925,0.758577,-0.811453,-0.677053,0
2707723136,1.792657,-0.25553,1.376833,1.28912,-1.473782,-1.001854,0
2707756470,-0.452061,-0.984281,1.703828,1.257439,-1.342206,-1.944214,0
2707789804,-0.678459,-0.454415,0.55688,0.961351,-2.145339,-1.158466,0
2707823138,-0.117068,0.046393,-0.50577,-0.461764,-0.97531,2.657064,0
2707856472,-0.898821,0.352411,-0.051533,0.210955,-1.080187,2.438648,0
2707889806,0.014697,0.82311,-0.0974,-1.144328,1.337098,4.272656,0
2707923140,-0.428547,0.553188,-0.590862,-0.914223,2.205163,4.106526,0
2707956474,-1.256026,0.562599,-1.025438,-1.485498,2.35101,3.543446,0
2707989808,-0.65112,0.10674,-0.740203,-1.722887,2.200333,3.337001,0
2708023142,0.262044,0.503868,-1.057048,-0.461947,1.56947,2.376131,0
2708056476,0.14413,0.629142,-0.587016,0.074961,0.77363,2.351985,0
2708089810,-0.492287,-0.007446,-0.20962,0.252667,-0.246659,1.483465,0
2708123144,-0.239532,0.269923,-0.387917,0.641167,-0.830813,0.619876,0
2708156478,0.087792,0.024008,0.312206,0.472924,-1.509231,-0.268362,0
2708189812,0.520578,0.169356,0.492682,0.591881,-1.950957,-0.818626,0
2708223146,0.407565,0.033459,0.61093,1.12096,-1.436011,-2.286617,0
2708256480,0.154147,-0.019872,0.075366,0.682734,-1.757605,-1.802554,0
2708289814,-0.546441,-0.348658,-0.359718,0.844634,-2.197088,-2.429979,0
2708323148,0.180813,-0.623551,0.641033,0.818559,-2.167494,-1.490395,0
2708356482,0.739899,-0.524865,0.991675,0.481202,-0.949991,0.539019,0
2708389816,0.34266,-0.804684,-0.086158,-1.03061,0.086362,1.346276,0
2708423150,-0.015634,-1.037791,-0.041351,-0.872852,-0.089875,1.494409,0
2708456484,0.258913,-0.893386,-0.193272,-1.416975,1.254108,2.411741,0
2708489818,0.918951,-0.292924,-0.045293,-0.77086,1.663231,2.166477,0
2708523152,1.131875,-0.267851,0.374946,-1.456768,1.824799,1.978136,0
2708556486,0.601163,-0.400227,-0.398383,-0.790217,1.740065,2.43478,0
2708589820,0.33086,0.043823,-0.582535,-0.230501,1.189381,2.283652,0
2708623154,-0.534396,0.531227,0.44896,-0.191428,1.166665,1.203026,0
2708656488,-0.518774,-0.31258,1.292529,0.129045,1.144027,0.321163,0
2708689822,-0.636372,-0.224329,-0.869933,0.332623,0.298724,-0.042683,0
2708723156,-1.056545,0.832135,-0.544712,0.676666,-0.323579,-1.225423,0
2708756490,-1.720896,0.36255,0.493859,0.715801,-0.747128,-2.925195,0
2708789824,-1.446518,0.646333,-0.67147,0.540005,-0.78745,-3.007811,0
2708823158,-0.167907,1.242208,-0.774333,0.878654,-0.595069,-3.031278,0
2708856492,1.310966,2.202745,-0.819702,1.143829,-0.675527,-3.221078,0
2708889826,0.387574,2.448785,-0.568996,1.050372,-0.479888,-2.98335,0
2708923160,0.126281,2.520586,-0.08739,1.079913,-0.84591,-3.476542,0
2708956494,0.903754,2.35937,0.491001,1.287299,-0.791171,-2.417892,0
2708989828,0.083245,0.791983,0.300427,1.927254,-1.087409,-2.319459,0
2709023162,-0.117075,1.21542,0.165784,1.778169,-1.404409,-2.067533,0
2709056496,0.048463,0.451034,0.506717,1.578836,-1.2481,-1.414445,0
2709089830,-0.236521,-0.462321,0.261905,1.782307,-1.050457,-1.310632,0
2709123164,-0.415428,-1.06025,-0.120313,1.752688,-1.014209,-1.338777,0
2709156498,-0.433893,-1.610354,-0.368852,1.719738,-1.055311,-1.990566,0
2709189832,-0.051174,-1.643587,-0.527586,1.443016,-1.315773,-2.025707,0
2709223166,0.090757,-1.139443,-0.537322,1.504917,-1.619538,-1.828161,0
2713989928,-0.417482,-1.401734,-0.638722,1.059167,-0.358641,-2.349025,0
2714023262,1.076826,-1.16671,-0.885611,1.072893,-0.046812,-2.597848,0
2714056596,0.726281,-0.850875,-1.212405,1.484476,0.067844,-2.928668,0
2714089930,-0.260895,-0.880451,-1.525422,0.929908,0.241411,-3.469172,0
2714123264,-0.284148,-0.496954,-1.166048,0.018339,-0.58206,-3.349425,0
2714156598,0.541185,-0.055802,-1.007204,0.238278,-1.792689,-2.915719,0
2714189932,0.670196,0.371785,-1.773764,0.287012,-1.784429,-2.607711,0
2714223266,0.552412,-1.031294,-2.380661,0.035551,-1.153855,-1.581645,0
2714256600,-0.429854,2.329915,-1.978904,0.050747,0.417956,-0.331564,0
2714289934,0.553101,-1.570014,0.393227,-0.157318,1.541923,0.756068,0
2714323268,0.075937,0.701865,0.525308,0.581318,0.901116,2.293971,0
2714356602,1.657447,1.559842,0.946356,0.953176,1.325765,0.955675,0
2714389936,1.424099,0.623272,1.177748,0.671105,0.295529,0.402774,0
2714423270,0.588558,0.060154,0.428822,0.453831,-0.778232,-0.457058,0
2714456604,-2.61714,-0.489144,0.407167,0.105408,-1.066987,-2.103472,0
2714489938,-2.793282,-0.233513,0.084216,0.591251,-1.343251,-2.469263,0
2714523272,-0.014368,0.162345,0.38231,0.247954,-1.317173,-3.026768,0
2714556606,1.655822,0.356552,0.577897,0.403691,-2.097353,-2.986382,0
2714589940,1.622681,0.331119,0.11092,0.25862,-2.388792,-1.980202,0
2714623274,0.807785,0.620027,0.781275,0.556363,-2.51955,-0.580665,0
2714656608,0.652086,0.159891,0.686928,0.604645,-1.481126,-0.041097,0
2714689942,0.717491,0.220971,0.293118,0.441827,-0.873188,0.669096,0
2714723276,0.217665,-0.203655,0.184332,-0.228097,0.015475,2.599341,0
2714756610,0.742271,-0.080582,-0.636563,-0.091353,1.766886,3.820856,0
2714789944,-1.071559,0.179773,-1.420087,-0.129554,2.315648,4.98428,0
2714823278,-1.762261,-0.065736,0.57446,-0.114858,2.725787,5.050865,0
2714856612,0.20343,0.604036,0.843197,-0.315901,2.236269,4.665501,0
2714889946,-0.020925,-0.152575,0.601582,-0.273439,1.316567,3.430362,0
2714923280,0.109864,-0.232418,0.464827,-0.093926,0.448882,1.983804,0
2714956614,0.366156,0.053588,-0.425846,-0.009199,-0.492594,-0.158056,0
2714989948,-0.386561,-0.26367,0.022948,0.027141,-1.026464,-1.272913,0
2715023282,0.372244,0.003738,0.788312,0.170083,-1.624473,-2.330923,0
2715056616,-0.556767,0.101799,0.584897,-0.093196,-1.824661,-2.897788,0
2715089950,-0.493491,0.034935,0.285515,-0.028605,-2.150215,-2.979503,0
2715123284,0.668638,0.385545,-0.475926,0.245673,-2.458128,-3.457762,0
2715156618,0.441831,0.320289,-0.655196,0.21428,-2.459326,-2.66753,0
2715189952,-0.125011,0.288009,-0.905604,0.092053,-2.509867,-1.489147,0
2715223286,-0.516361,0.086452,-0.32623,0.507087,-2.177597,-0.612842,0
2715256620,-0.475647,-0.076337,0.400722,0.365125,-1.450569,1.023854,0
2715289954,-0.674776,-0.083553,0.40804,0.173861,-0.740793,2.067686,0
2715323288,-0.907122,-0.319797,0.432936,0.311197,0.086107,3.143763,0
2715356622,-0.922356,-0.53527,0.695206,-0.346112,1.640116,3.717597,0
2715389956,-0.131116,-0.807713,1.160279,-0.538544,2.787529,4.667861,0
2715423290,1.07502,-0.521723,1.243469,-0.487481,3.712318,4.704563,0
2715456624,0.972283,-0.464429,0.988672,-0.122875,3.554886,4.029602,0
2715489958,0.169152,-0.350972,0.537574,-0.697976,2.661407,2.749412,0
2715523292,-0.485926,-0.357276,0.379477,-0.188016,2.304517,1.493786,0
2715556626,-0.762689,-0.096616,0.210455,-0.098964,1.169374,0.108939,0
2715589960,-0.535022,-0.050001,0.223828,0.166666,-0.077374,-0.613101,0
2715623294,0.043091,0.149914,-0.483631,0.226878,-1.831383,-2.016326,0
2715656628,0.087291,0.29659,-0.48475,0.061178,-2.809216,-2.857485,0
2715689962,-0.023767,0.213588,0.163281,0.31346,-2.941488,-2.875291,0
2715723296,-0.497563,0.089089,-0.051033,0.359634,-2.859511,-2.938791,0
2715756630,-1.051337,-0.283371,0.004114,0.249633,-1.327602,-0.50004,0
2715789964,-0.285189,-0.173696,-0.047937,0.286873,-0.275769,1.287076,0
2715823298,0.052731,-0.275245,0.625618,-1.000993,1.709126,3.337197,0
2715856632,0.087656,-0.40082,1.063275,-0.890114,3.676333,3.422465,0
2715889966,0.201425,-0.714064,0.869679,-1.023776,4.163857,3.420772,0
2715923300,0.247319,-0.731155,0.805648,-1.538713,3.719457,3.618759,0
2715956634,-0.184683,-0.941013,1.090953,-0.712247,2.793535,3.478051,0
2715989968,-0.458601,-0.726487,1.772451,-0.203116,1.417992,3.02096,0
2716023302,0.71924,-0.221119,1.131683,0.925644,-0.092608,1.906948,0
2716056636,0.978706,-0.089672,0.202395,2.706848,-1.76124,1.332238,0
2716089970,-0.470837,0.035772,0.183236,1.854419,-3.836852,-1.960772,0
2716123304,-1.183856,-0.048999,1.256279,1.793238,-3.59957,-3.941251,0
2716156638,-0.035009,-0.209691,0.806492,0.698844,-2.148756,-2.982821,0
2716189972,-0.431967,-0.132048,-0.32881,-1.540389,-1.15273,-1.269399,0
2716223306,-0.91238,-0.242468,-0.733302,-0.620341,-0.114182,-0.644665,0
2716256640,-0.923975,-0.044113,-0.815348,-1.831379,0.320047,1.644541,0
2716289974,-1.774984,-0.514698,-0.542835,-2.023238,1.517178,2.393617,0
2716323308,-1.381505,-0.403865,0.045811,-1.619965,1.767547,2.640457,0
2716356642,-0.022877,-0.046549,-0.89889,-0.42473,1.204304,2.619494,0
2716389976,0.695783,0.060668,-1.227698,-1.36834,0.660629,3.065122,0
2716423310,0.637451,-0.08347,-0.353885,-0.243416,0.429722,2.368274,0
2716456644,1.478344,0.493739,0.21252,1.141537,-0.313625,1.362348,0
2716489978,0.971945,0.652464,0.671258,1.298419,-1.117541,0.696503,0
2716523312,1.253321,0.707908,0.262417,1.817591,-1.590674,0.018931,0
2716556646,-0.264675,-0.221235,-0.151465,2.246932,-2.025394,-2.93961,0
2716589980,0.439936,0.513877,-0.087256,1.206003,-2.532036,-2.833187,0
2716623314,0.286207,-0.097614,0.610245,0.925588,-2.278824,-1.743259,0
2716656648,0.811183,-0.036996,0.540487,0.323977,-1.925831,-1.633565,0
2716689982,0.198251,0.021401,0.113466,0.259863,-1.393299,0.035799,0
2716723316,0.204972,-0.329394,0.050256,-1.09156,0.152071,2.421691,0
2716756650,-0.121284,-0.815834,-0.708337,-0.024549,1.14784,2.724257,0
2716789984,-0.60892,-0.990955,0.04922,-1.496967,2.018533,3.941369,0
2716823318,0.037778,-0.598483,0.862804,-1.405314,2.928958,3.835749,0
2716856652,0.333733,-0.731112,-0.425475,-0.792841,2.622077,3.399614,0
2716889986,-0.75128,-0.621035,-0.145277,-0.761435,2.064908,2.90996,0
2716923320,-1.394571,-0.02872,0.850245,-0.495391,0.72436,1.830253,0
2716956654,-0.268641,-0.327806,0.069698,0.21419,-0.426482,0.40524,0
2716989988,0.711273,0.607584,-0.360803,0.318065,-1.812608,-2.172921,0
2717023322,0.548081,1.814872,0.925719,-0.786195,-2.965177,-3.28811,0
2717056656,0.642595,2.282904,1.026086,-0.259786,-2.840167,-4.460408,0
2717089990,0.695792,1.763804,-0.503378,0.116739,-1.542067,-4.018628,0
2717123324,0.511714,1.773325,-0.667218,0.551316,-0.841142,-2.560097,0
2717156658,0.251252,1.158291,-0.050719,0.105719,-0.188156,-0.299754,0
2717189992,0.221424,1.211312,0.018589,0.397946,0.95457,0.728324,0
2717223326,-0.145199,1.461074,-0.690148,0.650109,1.683352,1.616106,0
2717256660,-0.660698,0.105137,-0.598137,0.286474,1.273643,1.34226,0
2717289994,-0.451748,0.018149,-0.276447,-0.166078,1.166416,1.134233,0
2717323328,0.89606,0.034848,-0.046633,-0.096307,0.528827,1.000284,0
2717356662,0.60114,0.40368,-0.052148,0.50172,-0.437467,-0.526271,0
2717389996,-0.28669,0.617532,0.302225,0.636598,-0.410636,-2.062185,0
2717423330,-0.360491,-0.026135,0.090863,0.873558,-0.49711,-3.453883,0
2717456664,-0.695274,0.469255,0.218434,1.009965,-0.707748,-3.977274,0
2740690462,1.252358,-1.207724,-3.790417,1.769551,-1.511311,-2.510507,0
2740723796,-0.194951,-1.334651,-3.298526,1.797746,-1.832501,-4.028388,0
2740757130,-1.18813,0.184121,-3.246159,2.174078,-2.09449,-5.983638,0
2740790464,-2.068852,0.989913,1.416739,0.815711,-3.050374,-6.222487,0
2740823798,-0.889221,-1.373498,2.111868,-0.217042,-2.487706,-6.047349,0
2740857132,0.655546,-0.194206,-0.642909,0.609078,-3.269405,-4.084971,0
2740890466,1.918869,-1.112352,-1.142411,-0.547229,-1.672629,-2.336409,0
2740923800,1.081955,-0.781885,-0.248918,0.444879,0.417967,1.198981,0
2740957134,1.051381,0.445911,1.536507,-0.153121,2.193111,3.997869,0
2740990468,0.828787,0.618039,0.91115,-0.502293,3.01972,4.805653,0
2741023802,0.745532,0.269397,0.140451,-0.236939,2.818707,4.989597,0
2741057136,1.867484,0.680692,1.323717,-0.488606,1.877856,4.136841,0
2741090470,1.126973,0.53715,1.373845,-0.393467,0.502668,2.302029,0
2741123804,-1.483183,-0.896271,0.387711,0.526244,-0.783016,0.159074,0
2741157138,-0.214083,-0.220009,0.710117,0.944609,-2.697153,-1.603698,0
2741190472,-0.189826,0.208712,0.408661,0.222558,-3.401596,-5.230394,0
2741223806,-1.187094,-0.021555,0.215379,-0.221775,-3.874007,-5.631809,0
2741257140,-0.320809,-0.135399,0.022853,-0.650205,-3.065837,-3.427786,0
2741290474,0.425318,0.728719,-1.247816,-0.722372,-1.44979,0.010604,0
2741323808,-0.208271,0.156329,0.301269,-0.280689,0.520416,3.396655,0
2741357142,-0.466152,-0.014368,0.375762,-0.625496,2.119003,5.695151,0
2741390476,0.796288,0.410981,0.427906,-0.474166,3.458003,6.600146,0
2741423810,0.464408,-0.054043,-0.027328,-0.657128,2.818304,6.192194,0
2741457144,-0.220298,-0.048851,-0.293106,-0.984721,0.913582,4.309195,0
2741490478,-0.24337,0.386106,-0.294863,-0.624941,-0.411942,1.353541,0
2741523812,-0.271729,-0.225447,0.741984,-0.283886,-1.469108,-1.839011,0
2741557146,-0.675588,0.083005,-0.271643,0.167074,-2.281991,-4.1268,0
2741590480,-0.771291,-0.20185,-0.079971,0.639139,-2.889317,-4.942115,0
2741623814,-0.920836,-0.736958,0.273865,0.929164,-3.004546,-5.613171,0
2741657148,-0.447576,-0.208146,0.292913,1.247953,-3.078485,-3.724211,0
2741690482,0.958205,-0.270224,1.240251,0.906565,-2.77871,-1.96846,0
2741723816,0.284396,-0.042602,0.376422,0.911775,-1.320965,0.439461,0
2741757150,-0.110937,0.152101,-0.269746,0.354339,-0.199606,2.942307,0
2741790484,0.154971,-0.176074,-0.020523,0.144001,1.537506,4.817209,0
2741823818,0.180607,-0.195154,0.463265,-0.120131,3.148175,5.863876,0
2741857152,0.06583,-0.118114,0.350103,-0.895184,4.039075,6.065113,0
2741890486,-0.450846,-0.169012,-0.092616,-1.007378,4.158062,5.55595,0
2741923820,-0.496276,-0.213324,0.001619,-0.823248,3.053515,4.996926,0
2741957154,0.070734,-0.181342,0.647875,-0.008227,1.052288,2.920426,0
2741990488,0.574904,0.002264,0.693706,0.503729,-1.770594,-0.29018,0
2742023822,-0.071189,0.098247,-0.156293,0.877558,-4.383392,-4.517614,0
2742057156,0.342105,0.393517,-0.343304,0.559107,-4.756415,-7.407576,0
2742090490,0.459616,0.333021,0.190087,1.661155,-4.038483,-6.815813,0
2742123824,0.001575,0.014516,0.388246,0.748814,-2.789678,-3.275414,0
2742157158,-0.563158,-0.113421,-0.16788,0.991391,-0.972238,-0.324855,0
2742190492,-0.876522,-0.037908,-0.505041,-0.354104,1.606636,2.994558,0
2742223826,-0.880059,0.025002,0.204221,-0.818123,3.333299,3.654746,0
2742257160,-0.882089,-0.040706,0.524245,-1.380963,5.198124,4.750413,0
2742290494,-0.606158,-0.037506,0.294947,-2.09063,4.788104,5.034794,0
2742323828,-0.175066,0.007915,0.140676,-2.38831,3.590026,4.473496,0
2742357162,0.082877,-0.096138,0.161923,-1.87245,2.893116,3.788018,0
2742390496,0.125014,-0.413735,0.351253,-1.00136,1.522526,2.521423,0
2742423830,0.416022,-0.668548,1.078764,-0.774399,-0.060423,1.378952,0
2742457164,0.139625,-0.631637,1.668167,-0.543025,-1.113288,0.959463,0
2742490498,-0.803501,-0.607221,1.090543,-0.299497,-3.692958,-0.49649,0
2742523832,-1.350516,-0.526364,1.148732,-0.051173,-5.913123,-2.989343,0
2742557166,-0.324429,-0.294896,0.813371,0.234086,-5.73721,-4.016216,0
2742590500,-0.318694,0.085692,-0.30332,0.329639,-4.073017,-4.125804,0
2742623834,-0.046984,0.104814,-0.559227,1.736365,-2.025417,-0.181278,0
2742657168,0.472378,0.494599,-0.176231,0.596054,0.986268,2.833428,0
2742690502,0.612706,0.432479,0.528397,-0.371055,3.145026,5.068983,0
2742723836,0.223557,0.478293,0.455316,0.461068,4.783154,5.005305,0
2742757170,-0.245172,0.190646,1.181991,0.548527,3.853927,5.026212,0
2742790504,-0.827908,0.175887,0.140993,-0.442777,3.521989,4.59172,0
2742823838,-0.688276,0.100755,-1.297459,0.285967,1.357118,2.709788,0
2742857172,0.210415,-0.247323,-1.002088,0.92446,-0.847372,0.163029,0
2742890506,0.618172,-0.121615,0.2989,0.528482,-2.512166,-1.638455,0
2742923840,1.297791,0.14351,0.06502,0.112239,-3.241649,-3.692863,0
2742957174,1.098325,0.155487,-0.20345,-0.138522,-3.256498,-4.018555,0
2742990508,0.77107,-0.224529,0.345482,-0.739069,-2.304573,-1.448671,0
2743023842,0.50126,-0.414951,0.651473,0.257704,-0.470963,2.520499,0
2743057176,-0.002819,-0.309486,-0.177076,-0.0082,2.091984,5.39379,0
2743090510,0.810176,0.08064,0.028381,-0.436463,3.064844,4.444831,0
2743123844,0.448135,-0.524534,0.248784,0.536745,2.505384,2.929182,0
2743157178,0.789883,-0.516022,0.113395,0.393302,1.267626,1.16839,0
2743190512,0.451391,-0.998137,-0.749265,-0.410194,-0.322196,-0.761172,0
2743223846,0.519368,-1.19058,-0.812216,0.222045,-2.003559,-2.720284,0
2743257180,0.463519,-0.963765,0.236966,-0.294255,-2.744891,-3.900909,0
2743290514,-0.843274,-1.039143,0.886815,0.168282,-2.844434,-3.524664,0
2743323848,-0.227754,-0.84391,0.073812,0.396216,-2.635079,-2.855081,0
2743357182,-0.277364,-0.50592,-1.263764,0.484234,-1.950699,-0.882083,0
2743390516,-1.135473,0.111404,-0.346204,-0.041462,-0.47783,0.134127,0
2743423850,-1.839071,-0.014171,0.475876,-0.04104,0.904525,1.097898,0
2743457184,-1.164764,0.931535,-0.048,-0.920473,2.311533,2.645769,0
2743490518,-0.451763,1.965177,-0.298863,-1.123921,3.181216,2.542439,0
2743523852,-0.363741,1.67931,-0.05515,-0.328023,3.090881,1.590275,0
2743557186,-0.652204,1.009755,-0.746624,-1.217545,2.40726,2.67219,0
2743590520,0.011902,0.582521,-1.133426,-0.588021,1.189645,1.767961,0
2743623854,0.82709,0.861988,-0.712997,0.530117,-0.147513,0.556114,0
2743657188,1.45331,1.327383,-0.406684,0.87341,-0.619733,-1.051476,0
2743690522,0.92778,1.545731,-0.499748,0.902209,-1.134163,-1.778675,0
2743723856,0.280491,1.642358,0.504077,1.061105,-1.425384,-2.845032,0
2743757190,0.138001,1.232668,0.696401,1.598497,-1.020634,-4.775443,0
2743790524,0.70193,0.473478,0.165766,1.406177,-1.601676,-4.64522,0
2743823858,0.003273,0.045519,-0.18492,1.048077,-1.545234,-4.063712,0
2748623954,0.736371,-1.354721,-1.943393,1.003096,0.403265,-1.325239,0
2748657288,1.344719,-1.167006,-2.316597,0.68537,-0.689045,-1.6585,0
2748690622,0.573677,-0.989483,-1.780514,0.664529,-1.102589,-2.10371,0
2748723956,0.796036,-0.846434,-1.099459,-0.637198,-1.233478,-2.777637,0
2748757290,1.597078,-0.852422,-2.299385,0.474848,-1.415967,-5.696929,0
2748790624,1.099182,0.727458,-1.501154,-0.081141,-2.241758,-5.678544,0
2748823958,2.011814,0.433723,0.495085,-0.668745,-0.721408,-4.439368,0
2748857292,0.713461,1.378404,1.436025,0.707714,-1.191696,-3.318043,0
2748890626,1.649459,0.971129,0.756965,0.309133,-0.681262,-1.805443,0
2748923960,0.159326,0.417275,-0.45499,0.350022,0.659405,1.50226,0
2748957294,-0.791111,0.934649,-0.03531,-0.271105,1.645292,3.625496,0
2748990628,-0.716822,0.939267,0.817917,-0.029181,1.851417,4.479233,0
2749023962,-1.021509,0.580486,1.194436,-0.503911,2.468748,5.187706,0
2749057296,-0.109632,0.161175,0.066244,-0.56035,1.712718,4.460749,0
2749090630,-0.517075,-0.614386,-0.368073,-0.292583,1.351762,2.785121,0
2749123964,-0.560407,0.538241,0.590802,-0.119056,-0.668872,1.02366,0
2749157298,0.370841,0.624733,1.375898,0.577227,-1.720878,-0.754851,0
2749190632,-0.518187,0.125867,1.138408,0.752835,-1.311064,-4.039299,0
2749223966,-0.782461,-0.253786,-0.257766,0.272958,-2.043522,-4.359735,0
2749257300,-0.961415,-0.362593,-0.922154,0.047421,-2.082705,-4.712152,0
2749290634,0.312697,-0.981334,0.543347,0.276565,-1.687413,-3.679731,0
2749323968,0.298487,-0.618463,-0.300289,0.046467,-2.344209,-1.217667,0
2749357302,1.033111,0.557397,-1.306028,-0.46905,-1.419547,1.540202,0
2749390636,1.055487,0.008031,1.298341,-0.793905,0.186423,3.806604,0
2749423970,0.449587,0.054143,1.461646,-1.001099,0.776419,4.673008,0
2749457304,-0.560565,-0.410471,0.478065,-0.762962,1.544352,5.641348,0
2749490638,0.001659,-0.063597,-0.722708,-0.389999,1.302278,5.662018,0
2749523972,-0.131677,-0.225926,0.476288,0.076183,1.182744,5.073505,0
2749557306,0.200758,-0.09283,1.413164,0.554533,0.785612,4.214972,0
2749590640,-0.672269,-0.477132,0.795885,1.09014,0.466254,2.562145,0
2749623974,-0.855038,0.28688,-0.064593,0.944653,0.287219,0.786495,0
2749657308,-1.240345,-0.181979,0.937479,0.592256,0.370581,-0.149284,0
2749690642,-0.676138,-0.0553,0.997641,0.466754,0.223922,-1.68173,0
2749723976,-1.477452,-0.455692,0.671063,0.257063,-0.464111,-2.320396,0
2749757310,-0.935152,-0.50598,-0.147139,0.507403,-1.16072,-3.2339,0
2749790644,-0.013932,-0.415011,-0.697717,-0.450173,-1.90158,-3.496926,0
2749823978,0.536551,-0.287784,-0.124978,0.205129,-2.631066,-3.992572,0
2749857312,0.386387,0.17825,0.434379,-0.498478,-2.558188,-2.060221,0
2749890646,-0.121164,0.426983,0.682339,-0.558447,-1.967946,-1.134539,0
2749923980,0.660613,0.62748,0.289756,0.463358,-1.844632,-1.248325,0
2749957314,0.630146,0.329873,-0.243602,-0.099997,-1.349139,1.471218,0
2749990648,0.375943,0.102671,-0.230102,-0.715805,0.350426,2.934281,0
2750023982,0.477321,-0.035789,0.160479,-0.935131,2.046375,3.691952,0
2750057316,0.513565,-0.095291,0.483548,-0.77552,2.629523,3.858975,0
2750090650,0.041303,-0.096561,0.116927,-1.400991,3.379176,4.294389,0
2750123984,-0.396134,-0.120354,0.112025,-1.071393,4.035085,3.924694,0
2750157318,-0.390354,-0.089266,0.228316,-0.687702,3.805918,3.641297,0
2750190652,-0.467796,0.014748,0.222687,-0.177864,2.827687,2.954314,0
2750223986,-0.089029,0.271336,-0.294346,0.736435,1.483235,1.499106,0
2750257320,-0.107444,0.31056,-0.298709,0.871778,0.020417,0.449939,0
2750290654,-0.625536,0.235944,0.122174,0.517802,-1.590167,-0.886293,0
2750323988,-0.73281,0.322966,0.056564,0.366724,-3.735395,-3.583369,0
2750357322,-0.697262,0.133448,0.123783,0.199651,-3.751883,-4.092601,0
2750390656,-0.031107,0.090119,-0.055889,0.152362,-2.912005,-3.309703,0
2750423990,0.856861,0.143131,0.272026,-0.035222,-1.98609,-2.278237,0
2750457324,0.867455,-0.067063,0.71767,-0.561715,-0.369502,-0.211898,0
2750490658,0.022838,-0.337266,0.365511,-1.361752,1.40504,1.570313,0
2750523992,-0.672721,-0.462709,-0.421595,-1.810561,3.865806,3.247353,0
2750557326,-1.001756,-0.59396,-0.346583,-1.527626,4.799145,4.359544,0
2750590660,-0.432772,-0.371348,0.549996,-1.021546,5.292862,4.553575,0
2750623994,-0.659465,-0.265876,0.819019,-0.423773,4.112487,4.747937,0
2750657328,-1.704205,-0.889903,1.081377,0.528383,2.048587,4.001934,0
2750690662,0.092758,-0.845144,1.8109,1.311955,0.060824,2.280717,0
2750723996,-0.931932,-0.832576,2.998275,0.85314,-1.116807,0.81657,0
2750757330,-1.991432,-0.723187,2.904168,0.765401,-2.652028,-0.213276,0
2750790664,-0.446986,-0.473163,0.414557,0.849878,-3.171184,-1.42341,0
2750823998,0.644629,-0.025841,-0.805185,0.39264,-3.682522,-2.496546,0
2750857332,2.80094,0.483619,0.309044,-0.351081,-3.640974,-2.359866,0
2750890666,2.188498,0.421,-0.068393,-0.506224,-2.868238,-1.137048,0
2750924000,-0.078293,0.386146,-1.101916,-0.204293,-1.912381,-1.216503,0
2750957334,-0.364688,0.455942,-0.002702,-0.481895,-1.442483,1.067443,0
2750990668,0.39047,0.627355,-0.611098,-1.19238,0.095928,2.647782,0
2751024002,0.827599,0.632032,-0.61111,-0.120009,1.863905,3.889133,0
2751057336,0.033018,0.107017,-0.457872,-0.610927,2.747685,4.302744,0
2751090670,0.026111,-0.203886,-1.183628,-0.60064,2.999364,4.289138,0
2751124004,0.133009,-0.12277,-1.874723,-0.468915,2.638652,4.064434,0
2751157338,-0.052116,0.348302,-0.253279,-0.146635,1.254486,3.369174,0
2751190672,0.077064,0.215215,1.877113,0.223657,0.298946,2.126028,0
2751224006,-0.70049,-0.136817,1.094383,0.91794,-1.483666,-0.597579,0
2751257340,-0.328073,-0.296346,-0.014087,0.784677,-3.806835,-2.968627,0
2751290674,0.410857,-0.370251,-0.930865,-1.135509,-3.320444,-4.282121,0
2751324008,0.653084,-0.458289,0.290128,-0.136038,-2.587445,-3.943537,0
2751357342,0.540808,-0.917848,0.76847,0.208464,-2.334753,-2.096721,0
2751390676,1.049548,-0.323304,-0.367633,0.990402,-0.898316,0.455575,0
2751424010,0.772669,-0.717525,-0.78975,-0.064357,0.402498,0.962524,0
2751457344,0.499072,-0.932958,-0.734705,0.146902,1.414577,2.275365,0
2751490678,0.466826,-0.780042,-0.219957,-0.593634,2.909565,3.24807,0
2751524012,-0.048629,-0.064832,0.402252,-0.645346,3.187718,3.390007,0
2751557346,0.083997,-0.315723,0.476729,-1.149959,2.761658,3.49787,0
2751590680,-0.51788,0.365111,-0.39103,-0.505027,2.039602,2.257875,0
2751624014,-0.882394,0.69755,-0.241777,0.251254,1.169282,0.543439,0
2751657348,-1.243408,0.823629,0.227149,0.799886,-0.034342,-0.518228,0
2751690682,-1.29496,0.838512,-0.462245,0.900827,-0.814959,-2.027703,0
2751724016,-0.497921,1.589454,-0.937986,0.69906,-0.743364,-3.296794,0
2751757350,0.07692,2.084817,-0.993223,0.855974,-1.202797,-4.3652,0
2751790684,-0.376991,1.59509,-1.27876,0.523286,-1.716023,-5.48151,0
2751824018,-0.46099,1.971072,-0.340073,0.522506,-1.230596,-4.748419,0
2751857352,0.350784,2.312131,1.129445,0.779836,-1.826522,-5.765979,0
2751890686,0.271818,1.802097,0.82245,0.430635,-3.080286,-5.498333,0
2751924020,-0.577378,1.07992,0.442313,1.421187,-3.024219,-4.174252,0
2751957354,0.373488,0.21401,0.325505,2.555078,-2.421761,-3.681495,0
2751990688,0.312495,-0.402306,0.025155,2.949047,-2.206044,-3.587665,0
2752024022,0.495002,-0.508897,-0.420327,3.257568,-2.018771,-2.109329,0
2752057356,0.493417,-0.984108,-0.135652,3.522252,-2.107513,-1.136694,0
2560286854,0.692127,-0.732666,0.50644,0.250421,-0.726119,-1.789775,0
2560320188,-2.06527,-2.329138,0.397266,0.583221,-1.194479,-2.590591,0
2560353522,-2.614921,-0.508577,-0.575208,1.201953,-1.216612,-3.338564,0
2560386856,-2.238928,0.311948,-1.23399,1.47452,-1.932459,-3.594101,0
2560420190,-1.455185,-0.366849,-1.309883,1.717656,-2.275675,-3.473148,0
2560453524,-1.119508,-1.016191,-3.082403,2.145521,-1.970609,-3.368365,0
2560486858,0.047762,-0.909466,-2.783947,2.014036,-2.764906,-4.08422,0
2560520192,0.721276,-0.938347,-0.307854,1.383057,-2.990571,-3.506806,0
2560553526,0.10687,2.851516,1.113369,1.098512,-1.970726,-3.358943,0
2560586860,2.578405,-0.83856,0.731316,0.943333,-1.479957,-1.18938,0
2560620194,1.850066,-0.664492,-1.152315,1.042672,-0.224629,0.65857,0
2560653528,0.698274,-1.325235,-1.302352,0.593691,1.636519,1.631947,0
2560686862,-0.84932,-0.814644,-0.714932,-0.390175,2.519109,3.670889,0
2560720196,-1.936207,0.771893,0.956513,-0.418175,3.223298,3.403859,0
2560753530,-1.423559,1.344229,3.096486,-0.952591,2.867416,2.879368,0
2560786864,2.009792,1.010368,2.25372,-0.787742,1.680531,2.113092,0
2560820198,0.453727,-0.068345,-1.798359,-0.183226,-0.220341,1.223465,0
2560853532,-0.882307,0.002458,-2.541032,0.44612,-1.363714,-0.797097,0
2560886866,-0.323028,-0.364346,1.548218,0.97724,-2.80361,-2.409866,0
2560920200,-1.150726,-0.734935,0.655302,1.917578,-3.387422,-2.669945,0
2560953534,-0.09449,0.1978,0.349431,1.533609,-3.928145,-4.00848,0
2560986868,-0.666842,-0.106557,1.164561,0.897405,-3.40974,-3.737792,0
2561020202,0.659093,0.000903,-1.31464,0.375011,-1.698575,-1.329215,0
2561053536,0.380531,0.13371,0.09929,0.150969,-0.01317,0.909206,0
2561086870,0.295148,0.186189,0.057286,-0.602755,0.837077,2.18147,0
2561120204,0.825172,0.356972,-0.026607,-0.694026,2.482209,3.749999,0
2561153538,-0.883973,-1.188334,0.620362,-1.087653,3.451522,3.691451,0
2561186872,-0.290207,-0.074239,-0.098931,-1.347635,2.728892,3.523978,0
2561220206,0.298766,-0.130868,-0.585473,-0.774969,1.023511,1.879625,0
2561253540,-0.316965,-0.446106,0.04153,-0.05422,-1.362526,-0.186188,0
2561286874,0.102172,-0.383705,0.946424,0.984198,-3.275157,-1.705128,0
2561320208,1.870536,0.743211,0.10146,1.822623,-3.916237,-2.939133,0
2561353542,1.081649,0.340957,-0.790178,1.554456,-4.998084,-2.680606,0
2561386876,0.972759,0.083291,0.94013,1.242231,-4.302822,-2.175103,0
2561420210,1.081017,0.318915,0.61256,0.788556,-3.186106,-0.417537,0
2561453544,0.700313,-0.266149,0.789078,0.238436,-1.076233,1.44517,0
2561486878,-0.105224,-0.355686,-0.463184,0.560565,1.35748,2.822738,0
2561520212,-1.629395,-0.273441,-0.737636,0.215562,3.061735,3.308901,0
2561553546,-1.461324,-0.162262,0.376316,-0.461298,3.717993,4.229089,0
2561586880,-0.980431,-0.199689,0.667233,-0.219973,4.531358,4.174091,0
2561620214,-1.184408,-0.518954,0.518306,-0.796923,4.047105,4.267396,0
2561653548,-0.758542,-0.401875,0.027678,-0.452767,2.714875,3.307708,0
2561686882,-0.666464,-0.857372,0.297507,0.214342,0.953919,2.004703,0
2561720216,-0.067959,-0.577483,0.77452,0.261493,-1.623076,0.551928,0
2561753550,0.221887,-0.304303,0.774223,-0.16314,-3.156226,-1.710179,0
2561786884,0.753674,-0.270036,0.341052,0.009291,-3.58433,-2.723783,0
2561820218,1.581353,-0.013019,0.611199,-0.127442,-1.956637,-0.939952,0
2561853552,0.944249,0.302011,0.601747,-0.681994,-0.235782,0.277368,0
2561886886,-0.398504,-0.100598,0.127191,-0.189691,0.683268,1.44481,0
2561920220,-0.374362,0.128102,-0.257709,-1.586464,3.199521,3.135574,0
2561953554,0.099066,0.491316,-0.365796,-0.513111,3.634,3.357291,0
2561986888,-0.928008,-0.118337,-0.08155,-0.099561,2.730931,3.049397,0
2562020222,-1.511485,-0.248573,0.162141,-0.821432,1.682961,3.586196,0
2562053556,-0.794605,-0.32698,0.45246,-0.02922,-0.009855,1.832804,0
2562086890,-0.400705,-0.425639,0.273363,0.31307,-1.404754,0.282015,0
2562120224,-0.407856,-0.760818,0.916861,0.488065,-2.830813,-1.250558,0
2562153558,0.115368,-0.69164,0.905873,0.347725,-3.288512,-4.077181,0
2562186892,0.176368,-0.937836,1.165075,0.76735,-2.163835,-3.320073,0
2562220226,0.643935,-0.209695,0.536226,1.234476,-1.337531,-1.175008,0
2562253560,-0.220997,-0.567692,0.866114,0.475261,-0.286428,0.83287,0
2562286894,-0.069505,-0.324162,0.449865,-0.117851,0.886479,2.846866,0
2562320228,0.755506,0.374945,-0.356067,-0.695125,1.90246,3.482298,0
2562353562,0.750088,0.79789,-0.34228,-0.393913,1.905527,3.272485,0
2562386896,0.5157,0.642371,-0.427226,-0.583714,1.131897,2.767892,0
2562420230,0.853804,0.57133,0.423169,-0.325933,0.090657,1.380291,0
2562453564,-0.073687,0.264261,-0.357066,0.231399,-1.712447,-0.844939,0
2562486898,-0.54883,0.15295,-0.980239,1.236071,-2.693822,-3.045503,0
2562520232,-0.438508,0.167982,-0.068843,0.640271,-2.053158,-2.984045,0
2562553566,-0.137981,0.046414,0.629016,0.314394,-2.196801,-2.138524,0
2562586900,-0.294531,0.151753,-0.498754,0.426243,-1.955552,-0.577538,0
2562620234,-0.78304,0.063908,-0.443127,-0.809838,-0.094659,2.378536,0
2562653568,-1.036297,-0.236373,0.311358,-1.125645,1.972605,3.146981,0
2562686902,-0.414065,-0.282964,0.390041,-1.417392,1.94731,3.709693,0
2562720236,0.140202,-0.257619,-0.000188,-1.36661,2.112201,3.930525,0
2562753570,0.361411,0.000662,0.198892,-0.560255,1.407669,2.946038,0
2562786904,-0.043277,-0.311175,0.702321,-0.077982,0.104263,1.127779,0
2562820238,0.4853,-0.273173,0.264587,0.455599,-1.029673,-0.879315,0
2562853572,0.79737,-0.121643,-0.088174,0.691532,-1.698027,-2.245229,0
2562886906,0.622442,-0.005008,0.114359,0.136741,-1.806566,-3.161683,0
2562920240,-0.049249,-0.231985,0.39229,0.574194,-2.281141,-3.303676,0
2562953574,0.65163,-0.157678,0.528095,0.270274,-2.071316,-1.782336,0
2562986908,1.243024,-0.158582,-0.201299,0.391887,-0.815367,0.378273,0
2563020242,0.56918,-0.265633,-0.358543,0.327136,0.733541,1.925242,0
2563053576,-0.354748,-0.436789,0.244085,-0.174681,2.192085,2.836648,0
2563086910,0.038153,-0.862494,0.762916,-0.465543,2.898683,2.602761,0
2563120244,0.010063,-1.06549,-0.058797,-0.522791,2.5085,2.933378,0
2563153578,-0.400556,-0.772449,-0.356668,-0.225022,1.60367,2.339794,0
2563186912,-1.152876,-0.371212,0.492518,0.010736,0.709283,1.132738,0
2563220246,-1.234967,-0.276081,0.332207,-0.021349,-0.81233,-0.472354,0
2563253580,-0.936681,-0.134179,-0.454096,-0.171763,-1.677144,-1.978389,0
2563286914,-0.992471,0.254975,-0.855027,-0.389367,-2.420676,-3.424109,0
2563320248,-1.40428,0.097958,-0.147079,-0.199658,-2.396701,-3.372008,0
2563353582,-0.846617,0.454171,-0.175008,-0.026125,-1.664847,-2.801938,0
2563386916,-0.832365,-0.009323,-0.141976,0.236377,-0.903584,-1.696072,0
2563420250,-0.129196,0.505462,-0.505432,0.186731,0.382493,-0.05199,0
2563453584,0.121997,0.865683,-0.26349,0.269452,1.977667,1.539454,0
2563486918,0.501425,1.029997,0.168091,0.144507,2.770482,2.173392,0
2563520252,0.908473,1.505416,-0.293748,0.304663,2.781468,2.112359,0
2563553586,0.287368,1.4055,-0.38637,-0.227259,2.112585,2.122364,0
2563586920,0.358193,0.921924,0.002686,-0.069928,1.109814,1.609742,0
2582387296,0.195067,0.610286,-0.053617,0.639773,-1.197928,-0.610587,0
2582420630,0.134806,0.707359,0.189083,0.460066,-0.996306,-0.602541,0
2582453964,0.235621,0.506065,0.187997,0.529879,-0.73559,-0.577343,0
2582487298,0.36852,0.046721,0.427002,0.415174,-0.704934,-0.681295,0
2582520632,0.033486,-0.104444,0.174339,0.272071,-0.605673,-0.761011,0
2582553966,0.1065,-0.249985,0.076974,-0.040787,-0.056374,-0.690566,0
2582587300,0.433035,0.068671,0.314493,-0.167609,0.304923,-0.304105,0
2582620634,0.653583,0.854665,0.792646,-0.0868,0.198686,-0.46908,0
2582653968,1.117529,1.780236,0.513554,-0.084717,0.291458,-1.19193,0
2582687302,0.587812,2.478965,0.422164,-0.155338,0.176648,-1.880945,0
2582720636,-0.857354,3.024878,0.888726,-0.12426,-0.131035,-3.24865,0
2582753970,-1.116068,-0.073222,-0.300506,-0.825697,-0.811913,-2.081011,0
2582787304,-0.375991,-1.026545,-1.158506,0.425955,-0.328503,-2.826966,0
2582820638,-1.33268,-1.758655,-1.755161,-0.067883,-0.372308,-5.08476,0
2582853972,-0.983436,-2.722835,-3.149191,-0.288016,-1.337488,-3.549497,0
2582887306,-0.450358,-1.240518,-3.451136,0.109282,-0.712518,-3.48847,0
2582920640,0.379083,-1.018304,-3.966947,0.294304,-0.426394,-2.708458,0
2582953974,-1.005444,-1.117577,-3.330673,-0.173252,0.693228,-1.240908,0
2582987308,-0.837031,0.029364,1.415882,0.264529,2.108066,1.139911,0
2583020642,3.277817,2.300768,3.333068,-0.293811,1.426842,3.178695,0
2583053976,2.825892,3.068046,3.852212,0.575465,1.832558,3.563458,0
2583087310,-0.642365,-0.262172,3.099861,0.709356,1.155391,2.732214,0
2583120644,-0.966712,-0.641643,-0.581166,0.434225,-0.613288,1.549028,0
2583153978,-1.380885,-1.606725,-1.698084,0.537003,-1.151233,-0.533463,0
2583187312,-1.320384,-0.826026,-1.579391,0.537259,-1.619681,-2.005,0
2583220646,0.296271,-0.046969,1.260715,0.276946,-2.166136,-3.230675,0
2583253980,0.748186,0.211086,1.044458,-0.232102,-1.997204,-3.169929,0
2583287314,-0.750912,0.57864,0.91113,0.221662,-2.302389,-3.12324,0
2583320648,-0.343522,0.288384,0.549191,0.562369,-2.409072,-1.082378,0
2583353982,0.552818,0.205169,-0.769443,0.65751,-1.543724,1.009978,0
2583387316,-0.418937,-0.316369,0.805469,0.230932,-0.064194,3.008592,0
2583420650,-0.207295,-0.530695,0.762113,-0.475194,1.461436,5.048405,0
2583453984,1.320672,0.087722,-0.63236,-0.326017,3.048369,6.160227,0
2583487318,0.522312,-0.456644,-0.321379,-0.498921,2.091811,5.76047,0
2583520652,0.728275,0.192586,0.242238,-0.406585,1.106558,4.174985,0
2583553986,-0.390446,0.20368,0.509739,-0.122482,0.391684,2.190029,0
2583587320,-0.410513,-0.399394,0.51751,0.180805,-0.732387,0.048833,0
2583620654,-0.036685,0.04869,-0.3597,0.281693,-1.551042,-2.368681,0
2583653988,-0.971024,-0.186605,0.29163,0.348048,-1.216156,-3.898416,0
2583687322,-0.55406,-0.107838,0.773654,0.691511,-1.447644,-4.260141,0
2583720656,-1.13787,-0.008796,-0.180402,0.536538,-1.883578,-4.401173,0
2583753990,-0.875544,0.530498,-0.813009,0.654728,-2.325783,-4.667729,0
2583787324,-0.782835,0.186703,0.099755,0.587757,-2.456141,-4.08539,0
2583820658,0.073165,-0.012147,0.919317,0.101438,-2.355217,-3.152649,0
2583853992,0.853875,0.151191,0.238254,-0.025084,-2.576138,-0.845246,0
2583887326,0.598027,-0.049383,-0.156811,-0.110625,-1.59455,1.342798,0
2583920660,0.444132,-0.110451,-0.052462,-0.646067,-0.225577,4.583721,0
2583953994,0.251302,0.088941,0.691426,-0.996696,1.869916,5.865485,0
2583987328,-0.353487,-0.495155,1.025085,-1.577737,3.883112,7.405434,0
2584020662,-0.149797,-0.179381,0.321371,-1.449504,4.69702,6.785291,0
2584053996,-0.069344,-0.256101,0.214336,-0.929839,4.559505,5.982767,0
2584087330,0.477864,-0.349464,0.575137,-0.1522,3.065567,4.723524,0
2584120664,0.140665,-0.294933,0.251347,-0.045047,1.535682,2.879062,0
2584153998,0.270426,-0.180528,0.345361,0.253972,-0.119298,0.788936,0
2584187332,0.374477,-0.128267,0.181891,0.22892,-1.51765,-1.026441,0
2584220666,0.133067,-0.113651,-0.114464,0.753844,-2.585767,-2.842229,0
2584254000,0.083529,-0.044094,-0.099016,0.657082,-3.052302,-4.580202,0
2584287334,0.158141,0.315468,-0.180623,0.884306,-3.235815,-4.990572,0
2584320668,-0.350486,0.298979,-0.088726,0.662818,-2.582304,-4.651183,0
2584354002,-0.55233,0.12859,0.036998,0.241244,-2.440759,-2.690004,0
2584387336,-0.527006,0.023649,-0.316093,-0.171986,-1.395238,0.836199,0
2584420670,-0.77139,0.003942,-0.524068,-0.597781,0.745477,1.930827,0
2584454004,-0.451408,0.039629,-0.056111,-0.450859,2.899251,3.805501,0
2584487338,-0.524963,-0.152444,0.289885,-1.520467,4.69558,5.667961,0
2584520672,-0.57872,-0.531385,0.762779,-0.461218,4.547737,5.524138,0
2584554006,-0.357693,-0.928686,1.869301,-0.020404,4.018558,5.4993,0
2584587340,-1.126407,-1.069921,1.40361,0.18102,2.079342,4.505243,0
2584620674,-1.123266,-1.115866,2.119434,0.234683,-0.3302,3.079917,0
2584654008,-1.033923,-0.896997,2.615837,0.055101,-2.287531,1.162868,0
2584687342,-0.058156,-0.433742,1.598599,0.244138,-3.986774,-2.357631,0
2584720676,0.530175,-0.055391,-0.153435,-0.343351,-4.113486,-3.762581,0
2584754010,0.866568,0.052129,-0.31936,0.302634,-3.537222,-3.114205,0
2584787344,1.914478,0.500828,-0.02261,0.02611,-2.37872,-1.634621,0
2584820678,2.018882,0.596935,-0.730983,-0.149912,0.154163,2.09269,0
2584854012,0.314741,0.441395,-1.197991,-0.228678,2.152737,3.690209,0
2584887346,-0.509503,0.673422,0.233953,-0.463275,2.935381,4.296113,0
2584920680,-0.517193,0.309876,0.463614,-0.823653,2.981233,4.526084,0
2584954014,-0.636348,0.283083,-1.206591,-0.390808,2.464989,4.146068,0
2584987348,-0.704842,0.349882,-1.0553,0.077919,0.985493,3.228116,0
2585020682,0.041021,-0.039515,0.103521,1.263566,-0.409137,1.597502,0
2585054016,0.07723,-0.200332,-0.481012,1.164482,-1.818966,-0.92244,0
2585087350,-0.601558,-0.133009,-0.86276,0.814868,-2.667017,-3.821882,0
2585120684,-0.148511,-0.190899,0.566602,0.338825,-3.026546,-4.022285,0
2585154018,0.716072,-0.321984,0.835371,0.535566,-2.478107,-3.997667,0
2585187352,0.549839,-0.384957,0.115775,0.201013,-2.574712,-2.419658,0
2585220686,0.530518,-0.661411,0.024743,-0.065689,-2.252788,-0.972712,0
2585254020,1.107778,-1.000985,0.021363,-0.362031,-1.37487,1.247169,0
2585287354,0.582074,-0.496485,-0.154499,-0.024688,0.483518,3.834653,0
2585320688,-0.105769,-0.581723,1.19505,-0.546967,1.610611,2.990972,0
2585354022,0.121157,-1.43515,0.340868,-0.796671,2.972551,3.74298,0
2585387356,-0.187697,-0.665041,-0.627644,-0.831225,3.377898,3.811381,0
2585420690,-0.782042,0.409603,0.910197,-0.434891,3.160648,3.164842,0
2585454024,-1.481474,0.4119,1.266961,0.028145,2.601418,1.882539,0
2585487358,-1.082405,0.173371,-0.436312,0.411068,1.401962,0.447431,0
2585520692,-0.293757,0.839101,-1.370065,0.761286,0.212446,-1.418676,0
2585554026,-0.025133,0.363009,-0.513242,0.789834,-0.419249,-2.937133,0
2585587360,1.074135,1.097558,-0.955255,0.97336,-1.214198,-3.823885,0
2585620694,0.185175,1.655047,-0.084581,0.758111,-1.512984,-4.589699,0
2585654028,-0.943472,2.463977,-0.162013,0.994338,-1.765888,-4.842718,0
2585687362,-0.293737,1.552454,-0.954403,0.876106,-1.795608,-4.358506,0
2585720696,-0.040653,-0.021288,-0.73762,0.463368,-1.785034,-3.702834,0
2585754030,-0.274051,0.134789,-0.667241,0.224264,-1.33173,-2.592495,0
2585787364,0.5153,0.295002,-0.21464,0.285226,-0.597918,-0.74186,0
2585820698,0.468742,-0.088966,-0.19589,0.31398,0.08335,-0.060259,0
2585854032,-0.232075,-0.319684,-0.359169,0.034229,0.704448,1.638354,0
2585887366,-0.509993,-0.27821,-0.131352,-0.102579,1.054895,2.547437,0
2585920700,-0.140572,-0.109726,-0.063023,0.147853,1.497244,2.134093,0
2585954034,0.236513,0.362438,0.011843,0.559775,1.212903,1.796384,0
2585987368,0.395944,0.199745,0.206839,0.533131,0.657627,1.53912,0
2586020702,0.941299,0.012689,0.11941,0.442733,0.469462,0.861951,0
2586054036,0.403847,0.544839,-0.106949,0.553166,0.321896,-0.547359,0
2586087370,-0.152643,0.444976,-0.288179,0.660777,-0.07481,-0.925047,0
2586120704,-0.527429,0.111681,-0.332247,0.750502,-0.324827,-1.98496,0
2586154038,0.168612,-0.796527,-0.588122,0.913012,-0.459231,-2.923174,0
2586187372,2.02066,-1.731951,-0.155814,1.072827,-0.653757,-3.529119,0
2586220706,0.994475,-1.064339,-0.202595,1.315397,-0.895992,-4.291907,0
2586254040,-0.278,-0.182583,0.941762,1.614637,-1.102743,-4.872916,0
2586287374,0.424215,0.964619,1.07228,1.852601,-1.465786,-4.802299,0
2586320708,1.83868,0.912272,0.425533,1.950185,-1.942012,-4.781481,0
2586354042,1.006003,0.843899,-0.120326,2.152452,-2.541258,-3.728868,0
2591987488,0.571715,1.684726,0.656677,-0.048948,0.470547,0.282558,0
2592020822,0.439811,2.080706,0.748318,-0.038387,0.79309,0.822977,0
2592054156,0.710488,1.922136,0.672812,0.478837,0.872556,0.829559,0
2592087490,0.792021,0.723672,0.800921,1.014531,0.619296,0.343493,0
2592120824,0.288484,-0.680702,0.228308,0.832952,0.468491,-0.079738,0
2592154158,-0.533009,-1.132711,0.339527,0.942035,0.438878,-0.093088,0
2592187492,-0.612812,-2.08649,-0.458284,0.634907,0.23627,-0.156537,0
2592220826,-1.134419,-2.03913,-0.733884,0.357027,0.44026,-0.804722,0
2592254160,0.443815,-2.509414,-1.899616,0.003671,0.910661,-1.71291,0
2592287494,-1.355064,-1.051585,-2.494402,-0.114861,1.391735,-2.64418,0
2592320828,-0.166743,-1.812425,-1.881241,0.04075,0.680209,-2.50977,0
2592354162,0.398336,-0.437909,-2.869712,-0.051468,-0.143723,-3.770861,0
2592387496,0.613673,-0.644582,-1.154252,-0.103121,-1.324255,-5.058629,0
2592420830,-0.517076,1.896714,0.821956,0.300017,-4.067241,-5.062951,0
2592454164,1.253229,1.300927,1.067248,0.262085,-3.605364,-6.004285,0
2592487498,2.563721,1.172827,-0.001644,0.832981,-4.328113,-4.43388,0
2592520832,0.790878,0.555991,0.661121,0.617515,-1.748632,-2.079335,0
2592554166,-0.308093,0.875092,0.891756,0.380913,0.064281,2.1561,0
2592587500,0.469644,0.363998,1.199246,-0.298256,2.600745,3.760503,0
2592620834,-0.591812,0.690066,-0.166451,0.615538,3.485278,4.255966,0
2592654168,-0.475093,1.011014,0.140988,0.437608,2.847886,3.919815,0
2592687502,-0.89896,1.085484,1.229898,0.766182,0.487943,2.246593,0
2592720836,-1.383136,0.354325,0.468284,1.415192,-2.19738,-0.605078,0
2592754170,-1.421624,-1.078895,-1.90902,2.778005,-3.545166,-3.779691,0
2592787504,-0.819557,-0.215464,-1.805519,1.88269,-3.107635,-5.424301,0
2592820838,0.043724,-0.017585,-0.322347,1.665398,-2.859581,-4.911407,0
2592854172,0.405347,-0.598487,1.713301,0.576129,-3.909616,-2.898414,0
2592887506,1.39788,0.097223,1.012938,0.136236,-2.533507,-0.447307,0
2592920840,0.726737,-0.069123,-0.592591,0.148118,-0.352984,1.129603,0
2592954174,0.025659,-0.293677,0.293083,-1.140991,1.410083,2.962001,0
2592987508,0.170611,-0.459684,1.395209,-1.578566,2.67118,4.72849,0
2593020842,0.785937,0.147422,0.52619,-2.095468,3.985511,6.173105,0
2593054176,1.02183,-0.129874,-0.821614,-1.407488,3.586928,6.475653,0
2593087510,-0.002592,0.158522,-0.874409,-0.254924,2.360171,4.949344,0
2593120844,-0.925519,-0.424058,1.280146,0.736378,0.852231,2.642004,0
2593154178,-0.317562,0.121292,1.019611,1.513872,-1.273467,-0.657933,0
2593187512,-0.418535,-0.272333,0.485415,1.540985,-4.009484,-3.524079,0
2593220846,0.911563,0.104836,-0.220045,1.369358,-5.28711,-5.621003,0
2593254180,0.654239,-0.022048,-0.088506,0.339546,-4.269271,-4.237893,0
2593287514,-0.395573,-0.055353,0.089572,0.581638,-3.220526,-2.332814,0
2593320848,0.54327,0.149408,0.002168,-1.268339,-1.455484,1.069186,0
2593354182,0.809086,0.505959,-0.684635,-1.849919,1.683558,3.901815,0
2593387516,-0.972756,-0.086473,-0.439635,-1.338774,3.381227,4.112844,0
2593420850,-0.964812,0.049316,0.204284,-1.402126,4.321324,4.569628,0
2593454184,-0.509934,-0.200881,0.596502,-1.760081,4.265532,5.083663,0
2593487518,-0.632584,-0.629103,0.513783,-0.950585,3.525409,4.731825,0
2593520852,-0.286812,-0.560408,0.361555,0.046163,2.454785,3.510522,0
2593554186,-0.262217,-0.536337,0.281653,0.841655,0.840691,2.195949,0
2593587520,0.374373,-0.458111,1.090064,1.417774,-1.286905,0.437594,0
2593620854,0.895463,-0.217765,0.957251,1.715385,-2.889582,-2.354749,0
2593654188,0.339358,0.255459,-0.047478,1.79575,-3.692542,-4.144497,0
2593687522,0.2584,0.211105,-0.016722,1.246077,-3.967031,-4.759993,0
2593720856,0.072839,0.116386,-0.123026,0.898586,-2.494616,-3.251117,0
2593754190,-0.969214,-0.046756,-0.402062,0.709814,-1.163043,-0.579834,0
2593787524,-1.073033,-0.250409,-0.17685,-1.01146,1.684569,2.531576,0
2593820858,-0.528603,-0.102364,-0.306857,-1.311888,3.517875,3.451626,0
2593854192,0.002287,-0.074854,-0.046175,-0.837642,4.041398,3.981711,0
2593887526,0.258252,-0.12511,0.619068,-1.845062,4.16926,4.737408,0
2593920860,0.35684,-0.247158,0.801502,-1.49636,3.176476,4.412985,0
2593954194,-0.222995,-0.482968,0.301483,-1.032032,1.47495,3.63694,0
2593987528,0.074499,-0.683348,1.056269,-0.447897,-0.208404,2.280339,0
2594020862,0.298531,-0.956984,1.922765,0.452018,-2.427816,0.50327,0
2594054196,-0.64012,-1.386873,2.164198,0.693051,-3.134482,-2.137748,0
2594087530,-0.509649,-1.039882,1.483978,0.75939,-3.716949,-3.570927,0
2594120864,0.158336,-0.37709,1.352271,0.89,-3.285238,-2.656793,0
2594154198,0.468224,-0.02594,1.097588,0.591588,-2.978624,-1.142746,0
2594187532,0.229601,0.352632,-0.20205,-0.131859,-1.451475,0.371713,0
2594220866,0.24961,0.56072,-1.124754,-0.761424,0.758364,3.83592,0
2594254200,0.225127,0.560438,-0.246027,-0.613704,2.404528,4.828979,0
2594287534,-0.13862,0.423142,0.524922,-1.169313,2.939503,4.998099,0
2594320868,-0.665012,0.106744,-0.526141,-0.746046,2.654055,4.040813,0
2594354202,-0.226265,0.253702,-0.953839,-0.143295,1.238163,2.525025,0
2594387536,-0.010427,0.135632,-0.198629,0.111507,-1.384558,-0.554754,0
2594420870,-0.318598,0.030771,-0.46795,-0.118062,-1.911398,-2.401487,0
2594454204,-0.031306,0.0795,-0.602332,1.214136,-2.530709,-3.501981,0
2594487538,-0.379331,0.111081,0.324514,0.471444,-2.934781,-3.893209,0
2594520872,-0.076342,-0.232449,-0.005545,0.26566,-2.79147,-2.618072,0
2594554206,0.513114,0.446943,-0.340169,0.403656,-1.741477,0.17152,0
2594587540,-0.100286,-0.030972,0.400968,-0.168871,0.042943,1.54308,0
2594620874,-0.305573,-0.360583,-0.184566,-0.652515,1.820413,3.076442,0
2594654208,0.347466,-0.341048,-0.010923,-0.891596,2.365975,3.858792,0
2594687542,0.354084,-0.486605,0.451633,-1.083528,2.788339,3.429145,0
2594720876,0.386369,-0.713492,-0.32618,-0.972937,2.660829,3.32967,0
2594754210,0.448363,-0.621783,-0.613604,-0.902512,2.155716,3.068982,0
2594787544,0.192325,-0.691836,0.592904,-0.582908,1.157845,2.147449,0
2594820878,0.088832,-0.787473,0.14001,0.219481,-0.12213,1.000507,0
2594854212,-0.743329,-0.626582,-0.945816,1.027093,-0.845802,-0.506101,0
2594887546,-1.008265,-0.099614,0.199608,1.093871,-1.670713,-2.26564,0
2594920880,-1.08165,-0.149976,1.011132,1.102886,-2.396549,-4.047482,0
2594954214,-1.366264,0.305684,-0.316413,0.690383,-2.802747,-4.553427,0
2594987548,-0.954377,0.718982,-0.524462,0.151629,-2.338532,-4.765032,0
2595020882,-0.451039,0.772527,0.157205,0.254635,-2.032633,-4.079895,0
2595054216,0.359634,0.850006,-0.163929,0.134825,-2.021493,-2.420795,0
2595087550,0.343628,0.273839,-0.51242,-0.090858,-0.481553,-1.244421,0
2595120884,0.889635,1.387299,-0.710411,-0.135999,0.94147,-0.310679,0
2595154218,0.564312,1.64874,-0.132091,-0.170263,1.712815,0.807264,0
2595187552,0.958333,0.947397,0.0941,-0.329727,2.205153,1.722634,0
2595220886,0.812178,0.762727,-0.27832,0.091065,2.295774,1.619469,0
2595254220,0.476813,0.887276,-0.067894,0.167581,2.246027,1.894906,0
2595287554,0.690052,0.462513,-0.488066,0.253781,1.735775,1.450881,0
2595320888,0.320963,-0.030083,-0.04236,0.491567,0.770176,0.41832,0
2595354222,-0.321565,-0.168597,-0.11393,0.100666,-0.053393,-0.212479,0
2595387556,-1.002218,-0.383522,-0.163939,0.581268,-0.242254,-1.739545,0
2595420890,-1.029441,-0.358821,0.067713,0.420221,-0.590115,-2.216926,0
2595454224,-0.539492,-0.466094,-0.074047,0.336588,-0.566156,-2.724238,0
2595487558,-0.080074,-0.513167,-0.105261,0.631933,-0.771861,-2.81094,0
2595520892,0.572904,0.163129,-0.15307,0.513217,-0.876851,-2.918179,0
2595554226,0.633096,0.703082,-0.084165,0.501507,-0.959541,-2.935131,0
2595587560,0.609297,0.657695,0.057484,0.611789,-1.09011,-2.377776,0
2626154838,-0.255148,-0.002035,-0.034509,-1.714279,1.096691,0.822422,0
2626188172,-0.456589,0.103099,0.272983,-1.458093,0.883226,1.183445,0
2626221506,-0.153127,1.219085,0.026685,-1.274413,0.34976,1.200189,0
2626254840,-0.581288,2.376253,0.500205,-1.275682,0.01277,1.108217,0
2626288174,-0.709526,4.311881,0.452265,-1.086639,0.249753,0.399465,0
2626321508,0.942295,5.987089,0.309985,-1.009145,1.175947,-0.162588,0
2626354842,4.496652,0.751137,-1.691291,-1.260944,2.311019,-0.563104,0
2626388176,2.759403,-1.668926,0.187843,-1.300662,2.36122,-1.845256,0
2626421510,-5.067893,-4.272305,4.190541,-1.297764,1.194192,-2.616384,0
2626454844,-0.852986,-0.028706,1.7097,-0.404411,-0.443707,-2.844843,0
2626488178,-0.860103,-0.800988,-1.099489,0.282017,-2.604889,-2.610456,0
2626521512,-0.516514,-1.894286,-4.25066,0.960717,-4.15837,-3.651024,0
2626554846,0.078401,-2.165707,-5.429945,2.041844,-4.899055,-4.178421,0
2626588180,-0.46056,-3.736476,-4.494042,2.860379,-5.148492,-5.398924,0
2626621514,-1.149229,-1.371427,-3.870865,3.746802,-5.039908,-6.41598,0
2626654848,-0.439907,2.087681,0.2472,3.821561,-3.141508,-5.80236,0
2626688182,0.681198,1.375122,3.253592,2.620759,-1.093841,-3.81539,0
2626721516,2.271784,2.333245,2.729225,1.400059,1.17391,0.188931,0
2626754850,1.323712,0.41673,1.540017,1.785127,1.869578,7.426249,0
2626788184,0.156748,-1.012254,-0.237796,-0.280665,2.193257,9.253892,0
2626821518,0.053362,-1.079105,-2.156435,0.288493,2.46216,7.362853,0
2626854852,-0.264892,-0.576075,-0.376474,0.190728,1.035754,3.622375,0
2626888186,1.455296,0.267842,2.572773,0.141867,-1.343178,-0.192212,0
2626921520,1.459089,0.307586,0.373961,0.771118,-2.155553,-3.938401,0
2626954854,-1.888219,-0.186377,1.05518,1.203954,-2.504823,-6.826854,0
2626988188,-1.900336,-0.066339,1.996792,1.13061,-2.599262,-8.182545,0
2627021522,-0.423731,-0.595828,0.961559,0.228055,-2.385102,-8.473961,0
2627054856,0.993716,-0.243454,-1.554561,0.462034,-2.758929,-4.491198,0
2627088190,0.316756,-0.290982,-0.815621,0.637335,-1.64046,0.770938,0
2627121524,0.479248,0.117782,-0.634826,0.693832,0.331611,4.354146,0
2627154858,-0.302699,0.176698,1.783799,-0.270047,2.414534,8.754523,0
2627188192,0.089491,0.384259,2.763271,-0.136953,3.792756,9.900561,0
2627221526,0.497431,0.325415,0.279279,-0.287153,3.686983,8.232955,0
2627254860,-0.341485,-0.295828,-0.980908,-0.101744,1.291285,5.413214,0
2627288194,0.316821,-0.365322,-0.604011,0.019934,-0.586504,0.670358,0
2627321528,1.117656,0.111262,0.366974,-0.012568,-1.015082,-3.188603,0
2627354862,0.189219,0.138181,0.482049,0.201974,-1.714994,-5.450669,0
2627388196,-0.587189,-0.249853,0.332856,0.288174,-2.430832,-6.424023,0
2627421530,-0.327688,-0.182066,0.242658,0.237058,-2.464719,-6.98168,0
2627454864,-0.500734,-0.067458,0.327264,0.296194,-2.742053,-4.648649,0
2627488198,-0.486222,-0.15001,0.726852,0.488898,-2.708748,-2.155056,0
2627521532,-0.148203,-0.033324,-0.005425,0.483692,-1.728925,0.407496,0
2627554866,0.117613,0.113905,-0.159705,1.210038,-0.654029,3.667416,0
2627588200,0.201994,0.290337,-0.118319,0.371417,1.391607,5.314239,0
2627621534,0.023355,0.486948,0.110986,-0.433075,3.190063,6.167948,0
2627654868,0.049956,0.409936,0.281249,-0.778325,4.0959,5.984299,0
2627688202,-0.040835,0.065675,0.132613,-0.912197,3.922763,5.399106,0
2627721536,-0.162945,-0.08222,-0.107187,-1.101428,3.280404,4.755165,0
2627754870,-0.032599,-0.083055,0.080332,-0.630098,1.681315,2.632972,0
2627788204,-0.048464,-0.090872,0.339833,-0.29578,-0.633214,0.225494,0
2627821538,-0.357267,-0.24429,0.365827,0.183616,-2.734204,-2.389416,0
2627854872,-0.293213,-0.125267,0.249113,0.769377,-3.181113,-4.03452,0
2627888206,-0.040935,0.191951,-0.097174,0.624702,-3.566959,-4.440578,0
2627921540,-0.166138,0.107141,0.221464,-0.136116,-2.738893,-2.094241,0
2627954874,-0.163476,-0.058655,0.489034,-0.100456,-1.250824,-0.178226,0
2627988208,0.141465,0.066606,0.093813,-0.601796,0.395717,2.50653,0
2628021542,0.309874,0.068452,-0.113497,-1.41629,1.776897,3.266138,0
2628054876,0.44612,0.074834,-0.148499,-1.361129,3.282965,3.993264,0
2628088210,0.058771,0.046618,-0.094416,-0.883049,3.968365,3.656349,0
2628121544,-0.286275,-0.208347,0.275007,-1.469248,3.711318,4.03525,0
2628154878,-0.190419,-0.511754,0.683072,-0.710462,2.248512,3.803887,0
2628188212,-0.217613,-0.786627,0.594454,-0.000177,0.283644,2.870616,0
2628221546,-0.446066,-1.164222,1.724617,0.255599,-1.082456,1.093571,0
2628254880,-1.562748,-1.348991,2.179186,0.496334,-1.897941,-0.684052,0
2628288214,-2.476133,-1.981661,3.474015,0.633315,-3.169024,-2.804401,0
2628321548,-0.157494,-1.213622,1.961517,0.879827,-3.479785,-4.615888,0
2628354882,2.099068,-0.305222,0.403746,0.913088,-3.184221,-3.927529,0
2628388216,2.45881,0.275295,0.056529,1.485532,-2.695576,-1.875306,0
2628421550,1.235661,0.619404,-0.579264,1.281941,-1.764217,-0.932141,0
2628454884,-0.342016,0.583338,-0.903809,-0.367253,-1.480221,1.78601,0
2628488218,0.007629,0.659631,-0.425675,-1.313406,0.227677,4.038559,0
2628521552,0.797864,1.132069,-0.072751,-1.078953,1.6698,4.492569,0
2628554886,-0.172031,0.899442,-0.320993,-1.477288,2.538376,4.522367,0
2628588220,-0.355367,0.53003,-0.812793,-0.938946,2.374851,4.559412,0
2628621554,-0.234637,0.210669,-0.956369,-1.135619,2.550969,4.756578,0
2628654888,0.071464,0.263233,-0.768484,-0.776345,2.129045,3.90073,0
2628688222,0.293048,0.248921,-0.280517,0.041262,1.136472,3.315042,0
2628721556,1.090276,0.098526,-0.364637,0.527359,-0.327433,2.501714,0
2628754890,-0.02261,-0.079593,-0.624311,0.597901,-1.075611,0.990103,0
2628788224,-0.450232,0.189865,1.102394,0.826177,-1.364317,-1.345538,0
2628821558,0.498507,-0.476853,1.719537,0.547593,-1.411447,-3.389097,0
2628854892,0.490844,-0.787671,-0.432202,1.040985,-1.711298,-4.295323,0
2628888226,0.182666,-0.67204,-0.165393,0.407187,-1.774708,-4.431591,0
2628921560,0.428636,-0.393383,0.942801,-0.010388,-2.077483,-4.798942,0
2628954894,0.452734,-1.151862,-0.214863,0.072551,-2.292666,-1.100743,0
2628988228,-0.37928,-0.80375,-0.371304,0.153498,-1.591022,1.820354,0
2629021562,-0.617296,0.122267,0.679683,-0.850888,-0.353459,2.298304,0
2629054896,0.103014,-0.962079,-0.191187,-1.558516,0.907977,3.278485,0
2629088230,0.24145,-0.634921,-1.516317,-1.354328,2.087909,2.35203,0
2629121564,-0.614935,1.076739,-0.407249,-0.949893,2.638681,1.501396,0
2629154898,-1.503584,1.54764,0.939816,-0.610898,2.830863,1.189944,0
2629188232,-0.467348,1.146071,-1.035116,0.100482,2.163979,0.937705,0
2629221566,-0.217723,1.123283,-1.670884,0.418106,1.501884,0.399767,0
2629254900,-0.013684,1.971903,-0.524998,0.547678,0.804546,-0.454036,0
2629288234,-0.968754,1.626805,1.365485,1.238639,0.001719,-2.060457,0
2629321568,-0.652948,1.603072,-0.076116,1.362524,-0.76251,-3.148814,0
2629354902,0.935102,1.033183,0.051022,1.271786,-1.302265,-4.084165,0
2629388236,0.909752,0.608171,0.492365,1.763407,-1.725708,-4.075658,0
2629421570,0.054915,0.916619,0.357079,1.126247,-2.210433,-4.29731,0
2629454904,-0.456441,0.065486,-0.401054,0.710308,-2.705235,-4.166288,0
2629488238,0.032893,-0.939192,-0.787174,0.497627,-2.834049,-2.590662,0
2634488338,0.383836,-0.320138,0.044947,-1.836628,2.163307,1.454102,0
2634521672,0.131365,-0.226928,0.156715,-2.635286,2.781135,1.634513,0
2634555006,0.090113,-0.27918,0.183506,-2.659402,3.626232,2.048263,0
2634588340,-0.11813,-0.026313,0.045368,-2.622206,3.858318,2.789179,0
2634621674,-0.063729,0.132758,0.14796,-1.994135,3.466744,3.573617,0
2634655008,-0.162729,0.167452,0.202609,-0.727393,2.590925,4.044085,0
2634688342,-0.448403,-0.253373,0.227685,-0.413165,0.697039,4.224955,0
2634721676,-0.410603,-0.474302,0.060913,-0.127558,-0.989397,3.776089,0
2634755010,-0.357729,-0.442664,0.014281,0.046875,-2.647335,3.022271,0
2634788344,-0.231788,-0.323135,0.079051,0.8031,-3.693655,1.457982,0
2634821678,-0.166175,0.027723,-0.042591,1.222474,-4.347705,-0.959808,0
2634855012,-0.119679,0.478006,0.356626,1.652612,-3.669234,-4.480812,0
2634888346,0.015556,1.182006,0.505942,0.875074,-2.61055,-7.272506,0
2634921680,0.015938,2.045194,0.415742,1.740126,-1.54206,-7.614487,0
2634955014,0.316133,3.043595,0.538068,1.190891,-1.49222,-7.056381,0
2634988348,0.829278,3.967351,0.836741,0.362288,-0.203038,-7.410635,0
2635021682,1.090319,3.314926,0.61202,0.285322,-1.375435,-3.592189,0
2635055016,0.588407,-0.498976,0.058679,0.855605,-1.215459,1.478704,0
2635088350,-1.320282,-2.059654,0.749278,-0.294389,0.143356,3.905804,0
2635121684,-0.730559,-1.968784,-0.203462,0.223172,1.188417,3.766281,0
2635155018,-0.579509,-1.254239,-1.781472,-0.013564,1.930173,2.956004,0
2635188352,-0.593794,-2.160665,-2.634676,0.658537,1.461085,0.324375,0
2635221686,0.427803,-2.167304,-2.491374,0.648348,0.402749,-4.100304,0
2635255020,-0.094281,-0.994566,-2.755263,0.028018,0.042197,-7.481303,0
2635288354,0.181198,0.642922,-0.668637,1.266715,-1.075045,-7.690609,0
2635321688,-0.417505,-0.795882,0.764205,1.17367,-1.747409,-7.589249,0
2635355022,1.17386,0.560731,0.887452,-0.121897,-1.293472,-5.696862,0
2635388356,1.888323,0.732407,0.323338,0.783746,-2.295072,0.864284,0
2635421690,0.14561,-0.068448,-0.253698,0.907243,0.179422,3.333282,0
2635455024,-1.378217,-1.721441,-2.084189,-0.091663,1.75889,5.54457,0
2635488358,-0.924516,-0.45414,0.237508,-0.121024,2.361468,6.107518,0
2635521692,0.75383,1.632202,2.778382,-0.015764,2.456841,3.543359,0
2635555026,-0.195528,1.567608,2.728387,0.453715,1.070244,0.757409,0
2635588360,-0.2746,-0.011658,1.152937,0.359945,-0.652205,-2.90972,0
2635621694,0.45324,-0.271433,-2.325861,0.275289,-2.231356,-6.306364,0
2635655028,-0.991012,0.072979,-1.063222,0.547456,-3.087147,-6.243069,0
2635688362,0.409737,-0.679858,1.101377,0.28407,-2.824101,-6.473794,0
2635721696,0.993269,0.077963,0.337931,-0.730544,-2.55964,-3.239126,0
2635755030,0.20107,0.414799,1.404785,0.763274,-1.425347,1.74338,0
2635788364,0.873657,-0.506598,0.758499,-0.657461,0.833296,3.648875,0
2635821698,1.049138,-0.097313,-1.541807,-0.987479,1.999808,6.449416,0
2635855032,0.007241,-0.190747,0.032195,-1.366117,3.217062,8.043682,0
2635888366,0.030876,0.09217,0.991857,-1.144997,3.143169,6.4539,0
2635921700,-1.351143,-1.005491,1.522419,-0.78711,1.611933,4.20225,0
2635955034,1.14001,0.32577,-1.209755,-0.242583,-0.649919,1.471198,0
2635988368,1.413894,0.341877,-0.702746,0.205664,-2.208361,-2.279396,0
2636021702,-0.270605,0.672098,0.735246,1.563457,-2.639838,-3.57373,0
2636055036,-1.067836,-0.186898,0.453562,1.305394,-2.502412,-5.484704,0
2636088370,-2.045478,-0.611416,-1.182775,1.508946,-3.570557,-4.523649,0
2636121704,-0.883829,0.438318,-1.219569,1.311178,-2.418587,-3.816494,0
2636155038,-0.649258,0.330373,0.934126,1.95104,-1.013098,-1.07097,0
2636188372,-0.291048,0.082641,1.326393,1.45293,-0.160052,1.067523,0
2636221706,0.130344,0.09472,0.737193,0.400315,0.75703,3.281151,0
2636255040,0.116255,-0.299456,-0.950859,-0.484241,2.35557,6.477388,0
2636288374,0.176171,-0.321145,-1.403595,-1.655316,3.104317,7.440945,0
2636321708,1.355655,0.030385,1.742543,-2.06277,3.208826,7.350489,0
2636355042,0.148085,-0.335889,2.170255,-1.63577,2.593088,5.339421,0
2636388376,-1.243,-0.685027,0.477098,-0.499733,-0.327988,1.974937,0
2636421710,-0.45362,-0.663276,0.422896,0.460272,-3.393264,-2.738081,0
2636455044,0.326162,-0.521811,0.589304,0.928847,-4.09859,-5.60808,0
2636488378,0.668418,-0.225608,0.148565,1.434633,-3.14757,-4.858605,0
2636521712,0.776233,-0.011097,-0.105459,1.660752,-1.962198,-1.546474,0
2636555046,0.647819,0.287704,-0.158344,0.164716,-0.389455,1.04483,0
2636588380,0.093906,0.386193,0.15494,-0.550031,1.493153,2.060923,0
2636621714,-0.681929,0.282198,-0.06873,-0.599034,2.891171,3.208475,0
2636655048,-0.944989,0.205011,-0.505954,-1.514807,4.307893,4.893831,0
2636688382,-0.642352,0.257156,-0.245711,0.053218,3.656214,3.448034,0
2636721716,-0.461861,0.214417,-0.002805,-0.956038,2.087101,3.797216,0
2636755050,-0.198121,0.212625,-0.037917,-0.995672,1.710461,3.180393,0
2636788384,-0.038955,0.020766,0.140979,0.489116,0.580558,0.980945,0
2636821718,0.27193,-0.212984,0.384139,0.725086,-1.335111,-0.953079,0
2636855052,0.354033,-0.045623,-0.089735,0.05812,-2.517271,-2.088258,0
2636888386,0.047517,-0.044373,0.036968,0.74392,-3.373648,-4.475042,0
2636921720,0.190316,-0.0468,0.353977,0.419944,-2.948061,-3.116491,0
2636955054,-0.186291,0.283672,-0.117288,0.000658,-1.581721,-0.985414,0
2636988388,-0.628295,0.029025,0.05517,0.170449,0.178161,0.442978,0
2637021722,-0.414399,0.064003,0.326108,-0.653419,1.247182,2.173182,0
2637055056,-0.265316,-0.071621,0.356626,-0.641025,2.697489,4.401432,0
2637088390,0.008986,-0.291714,0.633872,-0.089198,3.71034,4.563315,0
2637121724,-0.267154,-0.600208,1.258303,-0.023237,3.156797,4.08743,0
2637155058,-0.634553,-0.94255,0.734179,0.262912,1.257514,3.202922,0
2637188392,-0.388223,-1.116132,1.30375,0.380932,-1.345338,0.963941,0
2637221726,0.213971,-0.697614,1.834687,0.211108,-3.006402,-1.591806,0
2637255060,1.122548,-0.148735,1.100682,0.489014,-3.544143,-4.055355,0
2637288394,1.565229,0.340462,0.081764,-0.13951,-3.321559,-2.780936,0
2637321728,0.949422,0.380561,-0.18095,-0.121737,-2.880999,-2.104715,0
2637355062,0.033479,0.120933,-0.743244,0.598466,-2.530643,-1.215639,0
2637388396,0.08825,0.231003,-0.826445,-1.400253,-0.055931,3.284255,0
2637421730,0.624176,0.657115,-0.823576,-0.605374,2.296875,3.863981,0
2637455064,-0.437153,0.619252,-0.089532,-0.13357,3.642851,4.122411,0
2637488398,-1.001231,0.539468,0.208342,-0.321904,3.104533,4.225096,0
2637521732,-1.077232,0.512451,0.223644,-0.382851,2.701148,4.988522,0
2637555066,-0.012494,0.628929,-0.132835,-0.205178,1.716184,4.606718,0
2637588400,-0.445952,0.139793,-0.729719,0.034477,1.190555,3.099342,0
2637621734,-1.358885,-0.287218,-0.154519,-0.225309,-0.120715,1.561616,0
2637655068,0.526892,-0.153192,-0.026776,-0.53923,-1.153878,0.800608,0
2637688402,-0.086829,-0.03927,0.015312,0.44407,-2.168878,-0.73908,0
2637721736,-0.363087,-0.329285,0.816473,1.04853,-2.277962,-4.023672,0
2637755070,0.208104,-0.164367,0.387635,0.199327,-2.547124,-4.009686,0
2637788404,0.704795,-0.250496,-0.123419,0.195401,-2.735313,-4.490996,0
2637821738,0.272087,-0.337259,-0.01732,-0.265992,-2.996385,-3.24255,0
2637855072,0.289892,-0.662128,0.665698,0.226608,-2.741298,-1.686061,0
2637888406,0.755997,-0.728141,0.823186,-0.331271,-2.161531,-1.771955,0
2637921740,1.033622,-0.694533,-0.563275,-0.747377,-1.169343,1.299927,0
2637955074,0.097384,-0.603198,-0.68527,-1.211099,0.737971,2.14646,0
2637988408,0.017548,-0.785511,0.861311,-0.228764,2.474289,2.809545,0
2638021742,0.031523,-1.316057,0.344618,-0.84097,3.196862,3.467931,0
2638055076,-0.006534,-0.191919,-0.039749,-0.614591,3.547439,4.516338,0
2638088410,0.065907,-0.598058,0.478159,0.342231,3.104898,3.117688,0
2638121744,-0.290194,-0.757137,-0.254547,0.183927,2.243824,2.410743,0
2638155078,-0.540514,-0.051407,-0.644614,0.651523,1.354118,0.503292,0
2638188412,-0.975144,0.349624,0.442618,0.980683,0.372631,-1.042246,0
2638221746,-0.59999,-0.247103,-0.119431,0.019146,-0.23858,-2.361947,0
2638255080,-0.670184,0.121488,-1.896322,0.301361,-0.616612,-3.226495,0
2638288414,-1.510105,0.03298,-0.515576,0.671187,-1.192635,-3.971254,0
2638321748,-1.023362,0.9332,-0.250456,0.824491,-1.370664,-5.018572,0
2638355082,-0.629643,1.405834,-0.617238,1.208559,-1.442025,-5.245692,0
2638388416,0.677817,2.251505,-0.418277,0.446675,-1.775574,-4.743842,0
2638421750,1.297227,2.829942,0.281956,0.154019,-1.706594,-4.592404,0
2638455084,0.8903,2.508325,0.513391,0.75916,-1.859339,-1.998502,0
2638488418,1.752032,1.72364,0.42245,-0.147159,-1.557282,-1.182691,0
2643855192,-0.132832,0.345544,0.042468,0.566609,-0.716198,-2.452728,0
2643888526,-0.246564,0.072505,0.172095,0.525747,0.223045,-2.062461,0
2643921860,-0.061939,0.530735,0.334003,0.271101,0.701725,-1.73544,0
2643955194,0.16136,1.171442,0.532379,-0.339283,0.496586,-0.918991,0
2643988528,0.230823,2.16785,0.589124,-0.201009,0.314632,-0.565047,0
2644021862,0.136982,3.337661,0.781545,-0.669846,0.478462,-0.348841,0
2644055196,0.328582,2.745088,0.681133,-0.081495,1.291804,0.401671,0
2644088530,0.401522,1.087478,0.408203,-1.087294,1.422576,1.329813,0
2644121864,-0.177398,-1.571784,1.075374,-0.420079,1.697693,1.165877,0
2644155198,-1.658875,-2.186694,0.862463,0.058739,1.03818,0.554806,0
2644188532,-0.937783,-0.743711,-1.558452,0.181454,0.756631,-0.515366,0
2644221866,-0.523361,-0.955618,-2.093804,0.294596,-0.391313,-1.071232,0
2644255200,0.977729,-1.532364,-2.976825,0.605143,-0.832899,-3.620334,0
2644288534,0.159436,-0.412519,-3.211981,0.755752,-1.098244,-5.062442,0
2644321868,0.14894,-0.872107,-2.841416,0.665624,-1.474751,-5.528502,0
2644355202,-0.46435,-1.684744,-1.391311,0.779763,-1.585007,-4.901426,0
2644388536,0.202883,0.247683,-0.230042,-0.020359,-0.327632,-3.762679,0
2644421870,0.18655,0.980109,0.203057,-0.771276,0.347585,-0.753625,0
2644455204,2.129202,0.976375,1.534562,-0.906303,0.473909,1.171562,0
2644488538,2.696716,1.534118,-0.238505,-0.327947,-0.517909,2.870791,0
2644521872,-0.813471,0.445376,1.951809,-0.560301,0.784484,2.500104,0
2644555206,-1.87104,-0.847587,2.436182,-0.547661,0.491643,2.015373,0
2644588540,-0.113848,-0.709712,0.119194,-0.484332,0.049069,0.856421,0
2644621874,0.906806,-0.266844,0.16032,-0.119007,-0.002185,-1.091377,0
2644655208,-0.009415,-0.748951,1.182171,0.308272,-0.395714,-1.998195,0
2644688542,0.812688,-0.328698,0.181128,0.029743,-0.96132,-2.710397,0
2644721876,0.30291,0.494475,1.597579,0.183209,-1.27194,-1.957217,0
2644755210,-0.522256,-1.199266,0.946995,0.554153,-1.577678,-0.970233,0
2644788544,1.257673,0.376772,-2.126816,1.303419,-2.859741,0.882735,0
2644821878,-1.319761,-0.545134,0.635889,1.107816,-1.101213,0.998544,0
2644855212,-0.067172,-0.041155,0.58705,0.191131,-0.291163,3.110285,0
2644888546,0.064002,-0.123705,-0.72402,-0.298607,0.864626,3.38202,0
2644921880,0.474523,-0.241232,-1.495157,-0.230537,1.026025,3.775177,0
2644955214,0.221186,0.253654,-0.487246,-0.330773,1.001745,2.88738,0
2644988548,-0.789761,-0.192519,1.535812,-0.040821,0.763577,1.89642,0
2645021882,0.416346,0.069925,1.071079,0.579564,-0.386514,0.564816,0
2645055216,0.199192,0.36075,-0.957381,-0.010666,-1.052711,-1.602665,0
2645088550,-0.451477,-0.07889,-0.517419,-0.654489,-1.39754,-1.835393,0
2645121884,-0.584931,-0.089489,0.70819,0.02129,-2.069321,-2.157914,0
2645155218,-1.254849,0.216842,0.879663,-0.072566,-2.08721,-2.508074,0
2645188552,-0.599269,0.679097,0.671638,-0.212562,-1.784949,-0.513598,0
2645221886,-0.443585,0.471296,-0.020295,-0.021205,-0.985207,0.528966,0
2645255220,-0.547859,0.13821,-0.463985,-0.275742,-0.254118,1.998042,0
2645288554,-0.915094,0.018171,-0.61813,-0.440718,1.590988,3.056356,0
2645321888,-0.416128,-0.448562,0.22941,-0.841756,1.944178,3.856173,0
2645355222,0.515057,-0.217216,0.804329,-0.796763,1.394978,3.946002,0
2645388556,0.291473,-0.549195,1.050678,-0.461802,1.013041,3.732882,0
2645421890,-0.24322,-0.733795,0.82713,0.366472,0.432059,2.400105,0
2645455224,0.264954,-0.734982,1.128544,1.313619,-0.808047,1.125075,0
2645488558,-0.071065,-0.562381,0.760024,1.704239,-2.149205,-1.541091,0
2645521892,0.059243,-0.572165,0.159555,1.137711,-1.743297,-2.320662,0
2645555226,1.111255,0.10142,0.182888,0.833484,-2.002774,-1.938923,0
2645588560,0.90569,0.358852,0.024608,0.108932,-1.199899,-0.971189,0
2645621894,0.210142,0.311092,-0.331194,0.012231,-0.363851,0.599609,0
2645655228,-0.685664,0.238282,-0.841002,-0.485584,0.004719,0.835269,0
2645688562,-0.313621,0.697129,-0.663359,-0.946595,1.466296,1.509864,0
2645721896,-0.544728,0.339101,-0.165754,-0.576687,2.308763,1.973086,0
2645755230,-0.343816,0.189316,-0.041315,-0.968565,3.503625,2.80107,0
2645788564,0.038314,0.023481,0.030521,-0.807633,2.988515,3.1041,0
2645821898,0.320023,-0.099575,0.305981,0.088729,2.081261,2.017996,0
2645855232,0.199623,-0.252202,0.508763,-0.172216,1.212075,1.558882,0
2645888566,-0.224768,-0.311007,0.504038,0.016399,-0.302184,0.324125,0
2645921900,-0.325246,-0.138596,0.398749,0.237875,-1.525975,-0.822302,0
2645955234,-0.023839,0.08266,0.217234,0.423902,-2.157109,-1.637439,0
2645988568,-0.149225,0.181839,-0.12136,0.236193,-2.698618,-2.017269,0
2646021902,-0.367288,0.128775,-0.175057,0.506935,-2.383942,-1.748561,0
2646055236,-0.234611,0.084643,-0.306395,0.108522,-1.35821,-1.337709,0
2646088570,-0.731811,-0.112611,-0.427636,-0.372324,0.035818,0.050764,0
2646121904,-0.341003,-0.388396,0.377111,-0.875072,1.643105,1.993443,0
2646155238,0.343329,-0.665088,1.183103,-0.566808,2.732894,2.938323,0
2646188572,-0.083573,-1.078515,1.871003,-0.574302,3.049856,3.450549,0
2646221906,-0.419212,-1.006805,2.607293,-0.42303,2.265097,3.87883,0
2646255240,-0.151453,-0.520379,2.14511,-0.076832,0.858471,3.900293,0
2646288574,0.48083,-0.113023,1.558252,-0.055961,-0.181671,3.484061,0
2646321908,-0.005468,0.128011,-0.00255,0.096743,-0.411746,3.052128,0
2646355242,-0.901498,0.081161,-0.234393,0.251633,-1.195312,1.398875,0
2646388576,0.05572,0.163477,0.011881,0.387492,-2.353506,-0.093914,0
2646421910,0.419995,0.317389,-0.28003,0.583272,-2.114017,-1.700683,0
2646455244,0.08665,0.231308,-0.364724,0.661624,-2.007503,-2.361863,0
2646488578,-0.010732,0.249168,-0.462569,1.033545,-1.325454,-1.433101,0
2646521912,0.60904,0.511024,-0.506364,0.647667,-0.794062,-0.936585,0
2646555246,-0.078927,0.300912,-0.639498,-0.603606,-0.120582,1.261883,0
2646588580,-0.466722,-0.004513,-0.963254,-0.94564,1.016259,2.881692,0
2646621914,-0.058079,0.101554,-0.816756,-0.946822,1.215049,2.640534,0
2646655248,-0.027938,-0.158679,0.103959,-1.593515,1.354278,3.014383,0
2646688582,-0.102221,-0.103748,0.729654,-1.146739,1.148801,2.80515,0
2646721916,0.138297,-0.24356,0.132076,-0.427373,0.594644,1.709864,0
2646755250,-0.15313,-0.390974,-0.853786,0.219999,-0.315579,0.642998,0
2646788584,0.122428,-0.623963,-0.001759,1.15981,-0.974528,-0.495437,0
2646821918,0.188158,-0.757618,0.701647,1.250548,-1.072506,-1.922757,0
2646855252,0.660154,-0.823573,0.62681,0.673949,-1.72871,-2.564136,0
2646888586,1.064575,-0.360259,0.442064,0.558769,-1.88378,-2.183296,0
2646921920,0.68564,-0.297258,-0.089977,0.161125,-1.554852,-1.886941,0
2646955254,0.157036,-0.329715,-0.341747,-0.125933,-1.904325,-1.268376,0
2646988588,-0.417883,-0.428982,-0.429975,-0.860324,-1.225013,0.261096,0
2647021922,-0.61764,0.320993,-0.159361,-0.250542,-0.114743,1.024382,0
2647055256,0.011866,0.717197,0.263251,-0.708333,0.754741,1.527674,0
2647088590,-0.105064,0.442897,-0.506581,-0.574859,1.084004,1.990062,0
2647121924,-0.594667,0.26401,-1.299765,-0.820066,1.915458,2.059914,0
2647155258,-0.778034,0.076784,-0.949882,-0.195254,2.359913,1.884015,0
2647188592,-0.668731,0.330358,-0.525287,0.016146,2.228976,1.396862,0
2647221926,0.092517,1.147555,-0.348519,0.112916,1.927008,0.790868,0
2647255260,-0.096495,1.096869,-0.08173,0.597553,1.641342,-0.379968,0
2647288594,0.131184,1.620008,0.538764,0.66046,0.913782,-1.223767,0
2647321928,0.055586,1.410996,0.389074,0.756784,0.299829,-1.769765,0
2647355262,-0.553896,1.402224,-0.600128,0.32574,-0.136252,-1.858215,0
2647388596,0.449281,-0.459448,-0.982679,0.501102,-0.510897,-2.083038,0
2647421930,-0.451914,-0.342405,0.172509,0.568311,-0.764816,-2.520236,0
2647455264,-0.354855,-0.083496,-0.000778,0.291654,-0.959903,-2.640224,0
2647488598,-0.620878,0.298429,-0.159355,0.507202,-1.052079,-2.928938,0
2647521932,-0.390118,-0.17995,0.163336,0.489859,-1.102362,-2.843026,0
2647555266,0.644686,-0.787291,-0.414023,0.587666,-0.949233,-2.553999,0
2647588600,0.866039,-0.396335,-0.051336,0.55942,-0.986441,-2.765715,0
2647621934,0.709855,-0.354212,-0.02249,0.262832,-1.296864,-2.528744,0
2653422050,-0.752977,0.351732,0.390403,-0.55182,-0.859466,-0.219645,0
2653455384,-0.387382,0.645587,0.228961,-0.168142,-0.399726,-0.315786,0
2653488718,-0.940761,1.144065,0.430672,0.183905,-0.539739,-1.182486,0
2653522052,-1.180681,0.571529,0.320979,0.181086,-0.865106,-2.057104,0
2653555386,0.039975,1.11912,0.345835,0.317395,-0.773601,-3.450858,0
2653588720,0.63059,3.296877,0.536181,0.665655,-1.199257,-3.973968,0
2653622054,2.239777,3.681602,0.446929,1.170363,-0.764027,-4.240214,0
2653655388,4.051244,1.232559,-0.800031,0.640608,-0.103203,-5.643238,0
2653688722,-1.579782,-2.436849,-0.423259,0.484248,-0.597203,-2.824343,0
2653722056,-4.478295,0.014473,-0.531724,1.015219,-0.696451,-0.274816,0
2653755390,-1.649257,-1.216212,-2.376261,1.544555,-0.870453,1.983379,0
2653788724,0.620397,-2.421516,-2.658398,0.526434,-0.057109,2.419446,0
2653822058,-0.282701,-1.743824,-4.821297,0.160458,1.404883,2.321154,0
2653855392,0.528844,-4.861205,-3.317447,0.069582,1.691801,1.232374,0
2653888726,-1.024208,1.809883,0.09487,0.058308,0.96003,-0.060615,0
2653922060,2.277949,0.888915,3.963509,0.624816,-0.301111,-1.976342,0
2653955394,1.764104,2.425414,3.974052,1.110222,-1.927583,-4.167678,0
2653988728,2.391973,0.793016,3.139163,1.884638,-3.128953,-4.631879,0
2654022062,0.003325,-1.925557,-0.23354,1.205598,-3.205667,-5.8614,0
2654055396,-0.873098,-2.305491,-2.72875,0.391607,-3.414751,-5.029941,0
2654088730,0.007701,-1.104479,-1.737458,0.582049,-2.664525,-2.609195,0
2654122064,0.33989,0.430188,0.01613,0.752398,-0.461734,0.227802,0
2654155398,-1.152561,0.655475,1.247574,-0.252282,1.094308,3.58977,0
2654188732,-0.228912,0.67588,1.48525,-0.703738,2.661341,5.355389,0
2654222066,-0.958343,0.340098,0.206115,-0.276722,2.714916,5.546351,0
2654255400,0.328632,-0.000248,-0.811519,-0.227159,2.409907,4.061018,0
2654288734,0.732057,-0.143151,-0.071597,-0.238075,1.279702,2.8871,0
2654322068,1.284517,-0.305016,1.486218,0.433219,-0.738932,0.120148,0
2654355402,1.637589,0.193551,0.492695,0.805848,-1.222041,-1.845687,0
2654388736,0.313644,-0.290892,-0.716004,0.957459,-1.878244,-3.545378,0
2654422070,-0.456903,-0.205439,0.657529,0.549716,-3.468449,-3.802732,0
2654455404,0.105996,0.099121,1.657946,-0.353392,-3.70647,-3.214767,0
2654488738,-0.649971,0.114468,0.340452,0.355456,-3.316114,-1.416401,0
2654522072,-0.216556,-0.042859,0.156201,0.505871,-2.177245,0.226784,0
2654555406,-0.494093,0.302811,-0.771722,-0.018597,-1.456824,2.384351,0
2654588740,-0.833269,0.098629,0.019889,0.183471,0.037302,3.501788,0
2654622074,0.073457,0.455891,0.190179,-0.34365,1.333614,4.408638,0
2654655408,-0.705849,0.590098,-0.588953,-1.129397,2.981344,4.181467,0
2654688742,-1.084882,0.033654,0.053477,-1.416504,3.419006,5.737627,0
2654722076,0.173351,0.102547,0.735494,-1.263622,4.076538,5.421109,0
2654755410,0.311348,0.037471,0.625884,-0.404344,3.397208,4.302407,0
2654788744,-0.424969,-0.742069,0.311268,0.486084,1.638156,3.072373,0
2654822078,-0.105236,-0.628062,0.243358,0.785973,0.14576,1.16211,0
2654855412,0.112866,-0.508242,1.223856,0.781584,-0.924105,-0.923811,0
2654888746,0.592718,-0.388143,1.135123,1.108153,-1.402388,-2.112239,0
2654922080,0.013886,-0.223157,-0.077791,0.368852,-1.685683,-2.101908,0
2654955414,-0.251746,-0.279857,-0.021488,0.662183,-1.882606,-2.431415,0
2654988748,0.509969,0.106874,0.262172,-0.290178,-1.583275,-0.755213,0
2655022082,0.295524,0.299458,-0.281548,-0.227022,-1.364497,-1.148366,0
2655055416,-0.326004,0.068023,-0.120692,-0.072567,-0.171832,0.65307,0
2655088750,-0.222545,-0.104222,0.006561,-0.785299,1.355058,1.167845,0
2655122084,-0.333103,-0.033862,-0.298099,0.026059,1.31213,1.093487,0
2655155418,-0.20137,-0.120483,0.012676,-0.755749,2.166257,2.200892,0
2655188752,0.344031,0.105512,0.428805,-0.389518,2.562815,2.083895,0
2655222086,0.060319,0.069771,0.286614,-0.230578,2.128935,1.955383,0
2655255420,-0.001994,0.081818,0.126592,-0.510249,1.196014,1.639273,0
2655288754,-0.14477,-0.118574,0.106899,0.117261,0.174823,0.875746,0
2655322088,-0.514294,-0.256408,0.317931,0.3162,-0.599136,0.046266,0
2655355422,-0.915729,-0.501982,0.451127,0.39924,-1.311576,-1.392561,0
2655388756,-0.886594,-0.725217,0.460046,-0.119503,-1.463171,-1.57834,0
2655422090,-0.756395,-0.596777,0.808949,0.268645,-1.977389,-2.110399,0
2655455424,-0.597611,-0.619763,1.096422,-0.350907,-2.016038,-1.065624,0
2655488758,0.279017,-0.321181,0.815218,-0.544754,-1.167466,0.40043,0
2655522092,0.167975,-0.613958,0.119267,-0.399053,-0.190382,0.765239,0
2655555426,0.638679,-0.813733,0.941241,-1.055647,0.81346,2.130851,0
2655588760,0.714827,-0.611778,2.105233,-1.443746,1.966771,2.531406,0
2655622094,-0.323261,-1.091938,2.390519,-0.843634,2.229992,3.315828,0
2655655428,0.489327,-0.400332,1.38282,-0.837968,1.936526,3.286086,0
2655688762,0.60452,-0.259116,0.769747,-0.117072,1.007007,2.605836,0
2655722096,-0.122099,-0.111742,0.156246,-0.140726,0.862289,2.268021,0
2655755430,-0.877495,0.021911,-1.145303,0.272993,0.332818,0.771787,0
2655788764,-0.272808,0.488696,-1.671338,0.848617,-0.748408,-0.326555,0
2655822098,0.258053,0.668327,-0.549222,0.089751,-1.438267,-0.582215,0
2655855432,-0.2548,0.250302,-0.482954,1.208461,-1.990548,-2.006058,0
2655888766,-0.037298,0.494085,-0.968708,1.387852,-2.253931,-2.322932,0
2655922100,0.590281,0.612316,-0.758089,1.187924,-2.67528,-2.148355,0
2655955434,0.380776,0.407827,-0.151116,0.931694,-3.483305,-2.254936,0
2655988768,-0.29911,0.685669,-0.169768,0.9422,-3.339759,0.215604,0
2656022102,0.134081,0.156233,0.003352,0.807628,-2.221849,1.223298,0
2656055436,0.766395,0.219686,-0.527421,0.450919,-1.142203,2.940941,0
2656088770,0.187246,-0.192482,-0.261365,-1.165275,1.242082,4.138033,0
2656122104,0.219776,-0.055024,1.139237,-0.480214,2.440957,4.042991,0
2656155438,0.300817,0.093013,1.090169,-1.310698,3.284828,3.945921,0
2656188772,-0.116036,-0.572545,0.403033,-1.644181,3.50841,3.957826,0
2656222106,0.075375,-1.030444,-0.20831,-1.142313,3.139318,3.35274,0
2656255440,0.081481,-0.715067,-0.134667,-0.291254,2.40544,2.526767,0
2656288774,-0.041454,-0.474995,0.630451,0.253783,1.52991,1.59727,0
2656322108,0.188086,-0.811506,0.326152,0.65433,0.829387,0.543705,0
2656355442,0.076084,-0.719989,-0.581938,0.902333,-0.25625,-0.853645,0
2656388776,0.015609,-0.358702,0.027437,1.05998,-0.867595,-1.605014,0
2656422110,-0.426026,-0.47102,0.586148,0.833397,-1.399941,-2.132314,0
2656455444,0.038573,-0.530713,-0.273703,0.658642,-2.00563,-3.172537,0
2656488778,-0.053055,0.496992,-0.433568,-0.108674,-2.631654,-3.367919,0
2656522112,-0.7166,0.264304,0.228252,0.156472,-2.424818,-2.645943,0
2656555446,-0.726027,0.26606,-0.439671,0.005433,-1.958943,-1.316711,0
2656588780,-0.584838,0.734454,-0.906879,-0.170299,-1.325202,-0.163515,0
2656622114,-0.192538,1.526625,-0.454444,-0.659228,-0.889711,0.485256,0
2656655448,0.317887,2.437194,0.02402,-0.732857,0.379504,1.280597,0
2656688782,0.357648,2.911036,0.121641,-0.743023,1.45281,1.049113,0
2656722116,0.028517,2.724179,-0.249551,-0.603722,1.886409,0.883543,0
2656755450,0.480793,2.102087,-0.378115,-0.277486,1.834939,0.927657,0
2656788784,0.218856,1.761284,0.401248,0.03803,1.526801,0.461637,0
2656822118,-0.881014,-0.021918,-0.208651,0.591741,1.298084,-0.236633,0
2656855452,-1.572289,-0.639936,-0.782528,0.670882,1.095869,0.015687,0
2656888786,-0.087561,-1.010072,-0.061214,1.247972,0.686182,-0.820795,0
2656922120,0.6285,-1.207214,0.245686,1.419357,0.246854,-1.391038,0
2656955454,0.376326,-0.876259,-0.107566,1.393692,0.131439,-1.691133,0
2656988788,0.303255,-0.894018,-0.334961,1.020105,-0.203035,-2.254716,0
2657022122,-0.087424,-1.025643,-0.494382,1.290046,-0.233879,-2.738515,0
2657055456,-0.74615,-0.672563,0.039864,0.937925,-0.367534,-2.837553,0
2657088790,-1.042776,-0.204086,0.184823,0.999555,-0.525084,-3.068964,0
2657122124,0.47819,0.755201,-0.106216,1.010621,-0.802312,-3.070791,0
2662088890,0.352097,0.734424,0.185785,0.101754,0.049137,-1.290331,0
2662122224,0.377531,0.176682,-0.018669,-0.190127,0.049282,-0.700493,0
2662155558,-0.350488,0.24819,0.132375,0.139022,-0.010573,-1.27324,0
2662188892,-0.236995,1.295678,0.00307,0.025874,-0.267317,-1.737971,0
2662222226,-0.305923,2.281735,0.614702,-0.091848,-0.716232,-2.303324,0
2662255560,0.214529,2.449611,0.798523,-0.215419,-0.666215,-1.157545,0
2662288894,0.21289,0.413901,0.514117,0.455331,0.573386,-1.084559,0
2662322228,-0.453729,-2.136418,0.829743,-0.688625,0.872176,-1.668881,0
2662355562,0.254744,-3.236467,0.739235,-0.973857,1.0172,0.387947,0
2662388896,-0.111865,-0.477275,0.178569,-1.09863,1.619437,1.456369,0
