Left_Wrist_Acc_X,Left_Wrist_Acc_Y,Left_Wrist_Acc_Z,Right_Wrist_Acc_X,Right_Wrist_Acc_Y,Right_Wrist_Acc_Z,Upper_Leg_Acc_X,Upper_Leg_Acc_Y,Upper_Leg_Acc_Z,Activity
-0.803,-0.333,-0.089,0.616,-0.327,0.565,0.19,0.928,0.249,0
-0.633,-0.194,-0.326,0.755,-0.43,0.525,0.028,0.937,0.162,0
-0.708,-0.249,-0.139,0.721,-0.435,0.534,0.125,0.937,0.058,0
-1.184,-0.451,0.638,0.704,-0.448,0.437,0.107,1.02,0.107,0
-1.271,-0.338,0.635,0.825,-0.433,0.429,-0.047,0.999,0.174,0
-0.904,-0.317,0.193,0.756,-0.381,0.432,0.148,0.966,0.261,0
-0.702,-0.294,-0.039,0.789,-0.325,0.356,0.043,0.944,0.313,0
-0.907,-0.162,-0.029,0.782,-0.276,0.512,0.093,0.959,0.294,0
-0.82,-0.444,0.27,1.004,-0.5,0.78,0.129,0.969,0.313,0
-1.088,-0.48,0.411,0.878,-0.372,0.443,0.185,0.971,0.346,0
-0.994,-0.438,0.208,0.443,-0.226,0.248,0.067,0.939,0.357,0
-0.789,-0.314,0.034,0.7,-0.133,0.355,0.033,0.958,0.372,0
-0.768,-0.304,-0.027,0.879,-0.434,0.759,0.074,0.922,0.347,0
-0.879,-0.346,0.165,0.947,-0.426,0.751,0.221,0.902,0.361,0
-0.88,-0.253,0.769,0.773,-0.261,0.343,-0.055,0.935,0.396,0
-0.958,-0.242,0.549,0.694,-0.155,0.077,0.137,0.935,0.36,0
-0.897,-0.229,0.298,0.836,-0.292,0.484,0.166,0.93,0.365,0
-0.809,-0.172,0.185,1.036,-0.278,0.863,0.101,0.888,0.388,0
-0.82,-0.173,0.148,0.943,-0.158,0.55,0.121,0.893,0.423,0
-0.95,-0.008,0.342,0.708,-0.038,0.154,0.059,0.912,0.424,0
-0.824,-0.086,0.479,0.568,0.103,0.334,0.101,0.935,0.399,0
-1.267,-0.074,0.352,1.087,0.109,1.061,0.084,0.905,0.378,0
-1.039,-0.02,0.351,1.07,0.025,0.707,0.113,0.875,0.397,0
-0.991,0.015,-0.014,0.825,-0.012,-0.007,0.081,0.895,0.405,0
-1.042,0.123,0.037,0.709,0.015,-0.422,0.12,0.875,0.417,0
-1.066,-0.082,-0.228,0.943,-0.006,0.152,0.143,0.85,0.416,0
-1.098,-0.018,0.15,1.291,0.065,0.691,0.065,0.817,0.475,0
-1.079,-0.046,0.108,1.091,-0.171,0.099,0.139,0.814,0.487,0
-0.95,-0.02,-0.075,0.697,-0.044,-0.1,0.156,0.809,0.573,0
-0.927,0.045,-0.269,0.81,0.121,-0.401,0.098,0.841,0.544,0
-0.708,0.159,-0.156,1.101,0.013,0.205,0.131,0.831,0.561,0
-1.162,-0.203,0.219,1.239,0.083,0.832,0.135,0.836,0.57,0
-1.178,0.004,0.091,0.841,0.231,0.189,0.203,0.901,0.622,0
-1.083,0.112,-0.06,0.62,0.331,0.012,0.151,0.769,0.648,0
-0.705,0.183,0.017,0.706,0.461,0.132,0.049,0.639,0.604,0
-0.906,0.099,0.685,1.206,0.575,0.829,0.212,0.61,0.633,0
-1.092,0.131,0.539,1.109,0.477,0.537,0.106,0.641,0.712,0
-1.005,0.125,-0.002,0.862,0.358,0.06,0.227,0.536,0.773,0
-0.75,-0.01,-0.307,0.628,0.414,-0.032,0.117,0.517,0.721,0
-0.647,-0.054,0.249,0.71,0.491,0.271,0.223,0.573,0.84,0
-1.11,0.095,0.54,1.207,0.191,0.599,0.246,0.553,0.861,0
-1.046,0.069,0.433,1.153,0.157,0.01,0.126,0.482,0.927,0
-0.849,0.094,0.357,0.78,0.4,-0.33,0.181,0.436,0.945,0
-0.938,0.142,0.199,1.342,0.313,0.536,0.218,0.443,1.004,0
-0.905,0.156,0.164,0.579,0.317,0.81,0.114,0.242,0.918,0
-1.022,0.202,0.217,0.944,0.519,0.206,0.063,0.315,0.965,0
-0.696,0.385,0.337,0.79,0.449,0.151,0.333,0.343,0.989,0
-0.895,0.525,0.416,0.676,0.329,0.545,0.175,0.194,0.841,0
-1.092,0.548,0.339,1.306,0.01,-0.208,0.102,0.1,0.824,0
-0.986,0.472,0.114,0.738,0.457,0.384,0.182,0.166,0.943,0
-0.868,0.429,0.044,1.434,0.057,-0.036,0.365,0.235,0.992,0
-0.608,0.478,0.511,0.598,0.368,0.444,0.288,0.223,0.918,0
-0.771,0.506,0.679,0.954,0.328,0.728,0.304,0.213,0.922,0
-0.691,0.501,0.681,0.901,0.263,0.188,0.281,0.238,0.969,0
-0.749,0.491,0.521,0.622,0.415,0.216,0.314,0.163,0.89,0
-0.768,0.517,0.41,0.783,0.326,-0.036,0.34,0.158,0.915,0
-0.536,0.519,0.372,0.948,0.138,0.088,0.347,0.209,0.964,0
-0.408,0.588,0.868,1.303,0.045,0.579,0.303,0.204,0.946,0
-0.461,0.542,0.802,1.133,0.15,0.222,0.298,0.187,0.93,0
-0.679,0.479,0.633,0.794,0.296,0.084,0.385,0.133,0.895,0
-0.816,0.477,0.502,0.803,0.424,-0.116,0.227,0.167,0.98,0
-0.72,0.356,0.479,1.008,0.45,-0.171,0.379,0.168,0.921,0
-0.792,0.374,0.437,1.202,0.369,0.364,0.316,0.191,0.918,0
-0.674,0.438,0.429,1.107,0.141,0.257,0.219,0.199,0.994,0
-0.941,0.327,0.589,0.975,0.171,-0.06,0.263,0.238,1.005,0
-0.793,0.403,0.612,0.926,0.299,-0.219,0.282,0.263,0.949,0
-0.805,0.356,0.521,0.868,0.236,-0.174,0.216,0.309,0.951,0
-0.771,0.289,0.459,1.224,-0.179,0.111,0.322,0.36,0.915,0
-0.846,0.439,0.288,1.271,-0.111,-0.025,0.172,0.429,0.892,0
-0.917,0.414,0.02,0.954,0.218,-0.072,0.126,0.526,0.869,0
-0.497,0.451,0.456,0.643,0.267,-0.165,0.189,0.571,0.806,0
-0.718,0.438,0.738,0.923,0.22,0.102,0.185,0.568,0.793,0
-0.555,0.565,0.533,1.414,-0.159,0.545,0.157,0.583,0.737,0
-0.876,0.71,0.452,1.083,0.065,0.202,0.109,0.692,0.741,0
-0.953,0.627,0.198,0.759,0.353,-0.267,0.138,0.687,0.685,0
-0.902,0.603,-0.263,0.746,0.121,-0.203,0.012,0.771,0.707,0
-0.714,0.559,-0.232,1.496,-0.067,0.271,0.194,0.765,0.656,0
-0.798,0.464,0.062,1.309,-0.184,-0.071,0.148,0.809,0.591,0
-0.683,0.559,-0.225,0.518,0.269,-0.222,0.108,0.822,0.562,0
-0.922,0.519,0.246,0.886,0.428,-0.465,0.083,0.875,0.522,0
-0.688,0.467,0.219,1.548,0.17,-0.148,0.199,0.832,0.505,0
-0.636,0.447,-0.026,1.23,0.058,0.011,0.193,0.875,0.489,0
-0.666,0.308,-0.07,0.631,0.284,-0.473,0.147,0.847,0.503,0
-1.435,1.124,0.005,0.934,0.62,-0.526,0.044,0.891,0.449,0
-1.765,0.399,0.362,1.215,0.071,-0.115,0.163,0.893,0.41,0
-0.144,0.501,-0.003,1.458,-0.027,-0.013,0.234,0.911,0.365,0
-0.549,-0.198,0.381,0.632,0.519,-0.32,0.158,0.938,0.306,0
-1.72,0.672,-0.049,0.584,0.456,-0.341,0.106,0.927,0.333,0
-0.529,0.263,-0.146,1.136,0.294,-0.223,0.201,0.92,0.276,0
-1.384,0.122,-0.088,1.285,0.13,0.552,0.304,0.936,0.347,0
-1.104,-0.123,0.54,1.122,0.125,-0.019,0.025,0.968,0.199,0
-0.468,0.066,0.11,0.622,0.51,-0.181,0.091,0.966,0.182,0
-0.33,-0.027,0.448,0.665,0.518,-0.165,0.239,0.991,0.25,0
-1.102,-0.141,0.048,1.018,0.289,0.375,0.081,0.99,0.106,0
-0.833,0.066,0.271,0.961,0.25,0.186,0.131,0.976,0.058,0
-1.03,0.223,0.055,1.041,0.342,-0.059,0.035,0.99,0.024,0
-0.897,0.096,0.123,0.923,0.366,-0.391,0.133,1.022,0.206,0
-1.087,-0.179,0.283,0.959,0.478,-0.281,0.167,0.969,-0.112,0
-1.238,-0.02,-0.062,0.982,0.442,-0.035,0.019,0.998,-0.012,0
-0.926,0.135,-0.15,1.406,0.275,0.307,-0.016,0.934,0.048,0
-0.965,0.193,0.109,1.143,0.119,0.297,0.24,1.056,0.238,0
-0.997,0.026,0.018,0.936,0.326,-0.164,-0.014,0.984,-0.061,0
0.648,0.878,0.42,0.202,0.955,0.273,0.041,0.997,-0.062,1
-0.001,0.916,0.351,0.204,0.965,0.214,-0.003,0.989,-0.098,1
-0.077,0.924,0.286,0.228,0.942,0.204,0.001,0.998,-0.094,1
0.175,0.983,0.479,0.274,0.92,0.227,-0.021,1.001,-0.087,1
1.196,1.033,0.421,0.254,0.977,0.205,-0.03,1.004,-0.083,1
-0.154,0.879,-1.152,0.276,0.978,0.2,0.008,0.994,-0.115,1
-2.143,0.852,-0.514,0.259,0.946,0.188,0.047,0.99,-0.117,1
0.335,1.07,-0.898,0.31,0.958,0.22,0.063,0.989,-0.125,1
1.043,1.068,0.055,0.236,0.935,0.264,0.094,0.993,-0.114,1
-0.606,0.749,-0.534,0.305,0.91,0.256,0.142,0.986,-0.116,1
-0.852,0.83,0.061,0.134,0.932,0.306,0.169,1.037,-0.052,1
-0.335,0.906,-0.119,0.189,0.94,0.303,0.217,0.917,-0.001,1
0.007,0.961,0.406,0.281,0.974,0.31,0.156,0.988,-0.146,1
-0.324,0.786,0.193,0.222,0.912,0.222,0.228,0.983,-0.004,1
-0.501,0.937,0.255,0.191,0.975,0.252,0.251,0.972,0.036,1
-0.25,0.94,0.184,0.199,0.962,0.251,0.256,0.982,0.109,1
-0.292,0.753,0.178,0.228,0.932,0.207,0.265,0.982,0.101,1
-0.391,0.944,0.128,0.25,0.952,0.249,0.312,0.974,0.085,1
-0.595,0.855,0.279,0.266,0.947,0.251,0.199,0.987,0.089,1
-0.311,0.758,0.106,0.244,0.983,0.391,0.247,0.938,0.136,1
-0.344,0.924,0.135,0.089,0.958,0.438,0.402,0.821,0.157,1
-0.431,1.042,0.27,0.227,0.989,0.325,0.169,0.951,0.166,1
-0.445,0.941,0.16,0.31,0.841,0.074,0.288,0.962,0.225,1
-0.366,1.002,0.22,0.314,0.806,0.119,0.299,0.94,0.228,1
-0.302,0.946,0.192,0.345,0.962,0.169,0.216,0.975,0.162,1
-0.229,0.929,0.115,0.404,0.912,0.417,0.251,0.951,0.107,1
-0.402,0.981,0.244,0.62,1.009,0.671,0.272,0.981,0.241,1
-0.075,0.963,0.296,0.477,0.824,-0.006,0.275,0.945,0.195,1
-0.185,0.915,0.147,0.445,0.965,0.122,0.215,0.969,0.134,1
-0.246,0.943,-0.043,0.258,0.923,0.18,0.193,0.99,0.14,1
-0.478,0.974,0.196,0.212,0.943,0.232,0.188,0.972,0.152,1
-0.135,0.483,0.114,0.144,0.959,0.281,0.243,0.971,0.159,1
-0.334,0.957,0.167,0.176,0.96,0.226,0.187,0.985,0.049,1
-0.328,0.945,0.1,0.158,0.9,0.291,0.166,0.988,0.076,1
-0.279,0.962,0.102,0.328,0.939,0.236,0.205,0.975,0.051,1
-0.232,0.968,0.124,0.277,0.944,0.263,0.148,0.99,0.007,1
-0.23,1.005,0.129,0.265,0.94,0.232,0.169,0.998,0.058,1
-0.236,0.982,0.145,0.204,0.941,0.27,0.109,1.008,0.0,1
-0.205,0.962,0.155,0.247,0.948,0.211,0.065,1.004,-0.076,1
-0.219,0.956,0.149,0.221,0.947,0.264,0.051,0.98,-0.122,1
-0.22,0.956,0.152,0.278,0.972,0.274,-0.005,1.019,-0.041,1
-0.22,0.972,0.152,0.267,0.917,0.223,-0.006,1.004,-0.029,1
-0.232,0.967,0.15,0.255,0.987,0.258,-0.031,1.006,-0.082,1
-0.231,0.962,0.16,0.245,0.931,0.243,-0.003,1.0,-0.081,1
-0.236,0.965,0.166,0.278,0.863,0.194,-0.026,1.0,-0.095,1
-0.228,0.957,0.172,0.292,0.905,0.167,-0.001,0.993,-0.097,1
-0.204,0.97,0.17,0.324,0.995,0.183,0.013,0.991,-0.079,1
-0.219,0.958,0.166,0.329,1.001,0.202,0.016,0.996,-0.107,1
-0.232,0.957,0.165,0.231,0.953,0.214,0.034,0.994,-0.106,1
-0.229,0.951,0.17,0.213,0.937,0.21,0.065,0.989,-0.128,1
-0.208,0.971,0.148,0.25,0.935,0.22,0.071,0.988,-0.129,1
-0.257,1.002,0.184,0.28,0.952,0.226,0.099,0.989,-0.135,1
-0.262,0.943,0.233,0.271,0.971,0.245,0.114,0.986,-0.135,1
-0.222,0.948,0.19,0.313,0.893,0.214,0.106,0.981,-0.156,1
-0.191,1.008,0.184,0.313,0.91,0.233,0.13,0.988,-0.155,1
-0.111,0.923,0.243,0.305,0.938,0.288,0.153,0.983,-0.128,1
-0.207,0.983,0.203,0.16,0.47,0.123,0.144,0.977,-0.142,1
-0.196,0.963,0.195,0.293,0.938,0.228,0.139,0.987,-0.125,1
-0.16,0.936,0.217,0.292,0.918,0.239,0.191,0.972,-0.136,1
-0.198,0.949,0.211,0.313,0.933,0.225,0.128,0.986,-0.174,1
-0.208,0.95,0.196,0.273,0.927,0.309,0.188,0.972,-0.149,1
-0.198,0.966,0.21,0.279,0.925,0.268,0.162,0.979,-0.155,1
-0.246,0.954,0.202,0.259,0.934,0.261,0.158,0.975,-0.143,1
-0.235,0.958,0.217,0.248,0.933,0.299,0.157,0.981,-0.134,1
-0.234,0.965,0.201,0.246,0.96,0.287,0.15,0.979,-0.146,1
-0.252,0.942,0.182,0.228,0.918,0.294,0.208,0.971,-0.156,1
-0.234,0.95,0.208,0.227,0.935,0.207,0.139,0.984,-0.147,1
-0.203,0.962,0.208,0.176,0.974,0.284,0.151,0.986,-0.108,1
-0.23,0.955,0.186,0.178,0.916,0.282,0.137,0.976,-0.163,1
-0.232,0.958,0.18,0.25,0.926,0.231,0.151,0.983,-0.123,1
-0.271,0.944,0.183,0.266,0.935,0.242,0.197,0.987,-0.086,1
-0.255,0.954,0.189,0.279,0.933,0.253,0.118,0.989,-0.123,1
-0.251,0.958,0.192,0.289,0.941,0.229,0.146,0.981,-0.122,1
-0.214,0.985,0.216,0.274,0.957,0.227,0.125,0.988,-0.098,1
-0.219,0.974,0.205,0.255,0.936,0.242,0.12,0.985,-0.111,1
-0.259,1.004,0.201,0.221,0.95,0.264,0.158,0.984,-0.119,1
-0.23,0.932,0.181,0.251,0.932,0.25,0.134,0.985,-0.116,1
-0.178,0.982,0.161,0.273,0.937,0.231,0.131,0.982,-0.107,1
-0.239,0.936,0.147,0.271,0.932,0.238,0.136,0.986,-0.12,1
-0.2,0.973,0.16,0.197,0.943,0.256,0.13,0.994,-0.115,1
-0.192,0.952,0.166,0.21,0.954,0.265,0.126,0.986,-0.14,1
-0.228,0.948,0.165,0.233,0.922,0.276,0.123,0.987,-0.141,1
-0.224,0.975,0.18,0.242,0.921,0.262,0.125,0.986,-0.139,1
-0.24,0.964,0.183,0.259,0.948,0.28,0.123,0.987,-0.139,1
-0.243,0.968,0.182,0.275,0.913,0.248,0.129,0.988,-0.137,1
-0.238,0.974,0.17,0.273,0.943,0.244,0.109,0.984,-0.146,1
-0.227,0.959,0.153,0.267,0.954,0.296,0.111,0.985,-0.131,1
-0.214,0.961,0.148,0.235,0.983,0.273,0.125,0.984,-0.149,1
-0.208,0.971,0.152,0.227,0.899,0.227,0.111,0.986,-0.143,1
-0.206,0.961,0.166,0.226,0.911,0.228,0.095,0.989,-0.115,1
-0.219,0.957,0.192,0.221,0.96,0.286,0.089,0.986,-0.129,1
-0.224,0.967,0.208,0.254,0.929,0.224,0.084,0.99,-0.145,1
-0.213,0.97,0.19,0.253,0.955,0.201,0.1,0.994,-0.129,1
-0.2,0.962,0.182,0.233,0.935,0.23,0.101,0.994,-0.106,1
-0.207,0.972,0.173,0.224,0.994,0.221,0.081,0.991,-0.11,1
-0.195,0.962,0.183,0.221,0.97,0.239,0.026,0.999,-0.102,1
-0.198,0.956,0.196,0.222,0.938,0.193,0.044,0.991,-0.096,1
-0.22,0.961,0.18,0.259,0.95,0.166,0.033,0.996,-0.092,1
-0.234,0.956,0.179,0.26,0.968,0.206,0.046,1.005,-0.087,1
-0.239,0.958,0.186,0.238,0.95,0.257,0.05,0.997,-0.064,1
-0.21,0.966,0.183,0.292,0.954,0.253,0.02,1.001,-0.063,1
-0.196,0.969,0.169,0.268,0.942,0.193,0.028,0.994,-0.083,1
-0.167,0.959,0.18,0.257,0.943,0.188,0.024,1.0,-0.067,1
-0.201,0.958,0.192,0.24,0.952,0.22,0.041,0.999,-0.075,1
-0.204,0.95,0.175,0.234,0.952,0.211,0.048,0.994,-0.117,1
-0.23,0.971,0.196,0.251,0.949,0.198,0.069,0.995,-0.109,1
-0.257,0.966,0.209,0.261,0.952,0.211,0.08,0.992,-0.114,1
-0.248,0.963,0.211,0.265,0.96,0.244,0.116,0.993,-0.117,1
-0.189,0.958,0.197,0.247,0.946,0.196,0.13,0.994,-0.113,1
-0.199,0.97,0.185,0.281,0.933,0.243,0.111,0.979,-0.131,1
-0.214,0.952,0.192,0.261,0.95,0.211,0.152,0.983,-0.125,1
-0.209,0.964,0.191,0.255,0.932,0.232,0.182,0.985,-0.107,1
-0.205,0.973,0.197,0.275,0.955,0.226,0.155,0.976,-0.118,1
-0.208,0.972,0.204,0.243,0.929,0.229,0.204,0.975,-0.111,1
-0.206,0.968,0.217,0.232,0.947,0.22,0.179,0.975,-0.127,1
-0.213,0.963,0.191,0.251,0.949,0.233,0.161,0.99,-0.122,1
-0.207,0.967,0.186,0.258,0.937,0.228,0.207,0.972,-0.105,1
-0.184,0.97,0.181,0.266,0.937,0.226,0.156,0.968,-0.1,1
-0.186,0.955,0.183,0.266,0.941,0.239,0.172,0.975,-0.182,1
-0.227,0.971,0.19,0.269,0.942,0.244,0.175,0.967,-0.178,1
-0.228,0.949,0.19,0.274,0.942,0.232,0.181,0.986,-0.075,1
-0.238,0.958,0.189,0.268,0.938,0.232,0.177,0.977,-0.14,1
-0.236,0.978,0.195,0.252,0.939,0.222,0.173,0.975,-0.143,1
-0.212,0.958,0.198,0.248,0.95,0.227,0.144,0.977,-0.136,1
-0.21,0.946,0.197,0.271,0.951,0.237,0.127,0.984,-0.138,1
-0.24,0.952,0.182,0.268,0.937,0.222,0.133,0.982,-0.138,1
-0.245,0.952,0.191,0.257,0.934,0.211,0.14,0.982,-0.146,1
-0.258,0.943,0.188,0.255,0.951,0.236,0.146,0.982,-0.147,1
-0.247,0.958,0.195,0.264,0.941,0.229,0.119,0.988,-0.128,1
-0.248,0.952,0.177,0.272,0.938,0.217,0.141,0.982,-0.139,1
-0.238,0.968,0.178,0.261,0.947,0.225,0.144,0.984,-0.145,1
-0.23,0.969,0.174,0.249,0.952,0.236,0.156,0.981,-0.129,1
-0.216,0.973,0.166,0.252,0.949,0.22,0.141,0.982,-0.131,1
-0.206,0.965,0.158,0.249,0.945,0.214,0.145,0.985,-0.119,1
-0.213,0.958,0.154,0.246,0.947,0.211,0.148,0.982,-0.124,1
-0.237,0.959,0.174,0.245,0.938,0.22,0.148,0.984,-0.127,1
-0.222,0.971,0.179,0.25,0.949,0.224,0.16,0.982,-0.128,1
-0.242,0.96,0.147,0.25,0.949,0.22,0.154,0.979,-0.136,1
-0.257,1.004,0.163,0.25,0.95,0.211,0.153,0.979,-0.132,1
-0.234,0.932,0.145,0.254,0.956,0.216,0.16,0.979,-0.134,1
-0.226,0.972,0.176,0.252,0.947,0.218,0.159,0.98,-0.137,1
-0.172,0.986,0.175,0.262,0.943,0.227,0.167,0.978,-0.147,1
-0.293,0.941,0.134,0.253,0.945,0.223,0.165,0.977,-0.15,1
-0.131,0.983,0.17,0.252,0.942,0.226,0.171,0.978,-0.154,1
-0.286,0.947,0.123,0.252,0.943,0.225,0.176,0.975,-0.165,1
-0.165,1.009,0.124,0.266,0.956,0.229,0.173,0.973,-0.169,1
-0.209,0.941,0.113,0.257,0.945,0.23,0.173,0.976,-0.161,1
-0.194,0.988,0.176,0.257,0.936,0.216,0.171,0.975,-0.158,1
-0.159,0.975,0.289,0.258,0.938,0.22,0.166,0.975,-0.16,1
-0.175,0.978,0.253,0.255,0.949,0.227,0.165,0.975,-0.16,1
-0.196,0.916,0.161,0.256,0.949,0.23,0.163,0.974,-0.151,1
-0.241,0.966,0.148,0.257,0.949,0.22,0.163,0.975,-0.153,1
-0.252,0.973,0.204,0.253,0.948,0.222,0.164,0.976,-0.156,1
-0.251,0.961,0.248,0.25,0.947,0.224,0.161,0.976,-0.158,1
-0.235,0.976,0.279,0.252,0.944,0.231,0.16,0.977,-0.153,1
-0.163,0.984,0.236,0.253,0.941,0.214,0.153,0.977,-0.153,1
-0.2,0.967,0.185,0.262,0.945,0.236,0.153,0.979,-0.151,1
-0.172,0.967,0.181,0.261,0.95,0.267,0.152,0.978,-0.155,1
-0.172,0.974,0.18,0.309,0.979,0.24,0.15,0.979,-0.155,1
-0.156,0.94,0.181,0.275,0.93,0.205,0.149,0.979,-0.156,1
-0.185,0.949,0.21,0.25,0.884,0.19,0.146,0.978,-0.16,1
-0.335,0.949,0.202,0.283,0.969,0.241,0.145,0.978,-0.164,1
-0.164,0.986,0.232,0.219,0.955,0.242,0.142,0.977,-0.158,1
-0.183,0.961,0.203,0.242,0.904,0.183,0.117,0.984,-0.15,1
-0.156,0.961,0.203,0.268,0.954,0.219,0.148,0.985,-0.136,1
-0.17,0.959,0.212,0.272,0.952,0.239,0.13,0.977,-0.18,1
-0.204,0.969,0.204,0.263,0.968,0.228,0.128,0.977,-0.182,1
-0.202,0.971,0.196,0.25,0.922,0.219,0.146,0.973,-0.187,1
-0.187,0.965,0.208,0.254,0.967,0.222,0.131,0.975,-0.183,1
-0.179,0.963,0.204,0.238,0.949,0.211,0.139,0.975,-0.18,1
-0.189,0.963,0.202,0.239,0.954,0.201,0.143,0.98,-0.173,1
-0.206,0.961,0.205,0.251,0.954,0.211,0.154,0.994,-0.121,1
-0.208,0.961,0.162,0.253,0.951,0.206,0.146,0.966,-0.153,1
-0.224,0.949,0.203,0.266,0.941,0.208,0.144,0.987,-0.156,1
-0.174,0.978,0.212,0.267,0.95,0.217,0.182,0.981,-0.116,1
-0.189,0.97,0.201,0.243,0.955,0.208,0.177,0.981,-0.122,1
-0.195,0.958,0.193,0.24,0.951,0.181,0.178,0.981,-0.125,1
-0.206,0.961,0.199,0.23,0.95,0.18,0.194,0.979,-0.107,1
-0.195,0.967,0.203,0.244,0.965,0.198,0.206,0.979,-0.097,1
-0.221,0.95,0.186,0.25,0.951,0.19,0.195,0.979,-0.116,1
-0.229,0.951,0.184,0.252,0.946,0.189,0.165,0.986,-0.082,1
-0.232,0.958,0.2,0.253,0.943,0.201,0.189,0.98,-0.066,1
-0.23,0.963,0.211,0.249,0.963,0.208,0.176,0.983,-0.073,1
-0.218,0.957,0.222,0.262,0.949,0.213,0.187,0.977,-0.071,1
-0.194,0.979,0.202,0.265,0.938,0.201,0.177,0.967,-0.069,1
-0.198,0.943,0.173,0.251,0.95,0.207,0.166,0.999,-0.091,1
-0.212,0.979,0.17,0.244,0.957,0.222,0.157,0.985,-0.104,1
-0.236,0.952,0.16,0.245,0.959,0.219,0.152,0.983,-0.107,1
-0.213,0.941,0.155,0.25,0.96,0.213,0.142,0.982,-0.121,1
-0.233,0.985,0.144,0.189,0.891,0.249,0.14,0.984,-0.131,1
-0.239,0.959,0.145,0.013,1.048,0.298,0.139,0.983,-0.137,1
-0.219,0.977,0.178,0.197,1.002,0.235,0.164,0.98,-0.145,1
-0.215,0.983,0.179,0.237,0.916,0.166,0.134,0.979,-0.157,1
-0.211,1.007,0.169,0.194,0.91,0.17,0.16,0.976,-0.159,1
-0.227,0.957,0.146,0.261,0.929,0.227,0.149,0.979,-0.163,1
-0.2,0.968,0.145,0.148,0.973,0.307,0.149,0.976,-0.168,1
-0.208,0.936,0.146,0.075,1.06,0.488,0.155,0.978,-0.166,1
-0.183,0.952,0.172,0.1,0.988,0.305,0.149,0.979,-0.168,1
-0.231,0.969,0.305,0.153,0.932,0.132,0.15,0.979,-0.163,1
-0.287,0.947,0.17,0.2,0.881,0.041,0.142,0.98,-0.159,1
-0.217,1.006,0.212,0.188,0.93,0.14,0.142,0.98,-0.156,1
-0.238,0.956,0.169,0.144,1.019,0.26,0.141,0.98,-0.156,1
-0.202,0.947,0.226,0.166,1.029,0.294,0.146,0.979,-0.151,1
-0.194,0.993,0.234,0.131,1.011,0.301,0.147,0.98,-0.152,1
-0.187,0.967,0.184,0.264,0.986,0.271,0.146,0.98,-0.147,1
-0.208,0.945,0.157,0.23,0.957,0.197,0.146,0.981,-0.146,1
-0.209,0.964,0.175,0.251,0.942,0.156,0.142,0.979,-0.15,1
-0.209,0.946,0.173,0.256,0.933,0.157,0.146,0.983,-0.142,1
-0.171,1.013,0.21,0.234,0.939,0.193,0.142,0.981,-0.145,1
-0.174,0.935,0.193,0.234,0.953,0.237,0.141,0.983,-0.145,1
-0.206,0.952,0.174,0.242,0.974,0.255,0.144,0.983,-0.137,1
-0.167,0.97,0.214,0.273,0.932,0.202,0.14,0.982,-0.139,1
-0.171,1.061,0.225,0.269,0.908,0.175,0.141,0.978,-0.15,1
-0.189,0.902,0.194,0.322,0.987,0.085,0.146,0.981,-0.131,1
-0.185,1.0,0.208,0.272,0.932,0.063,0.142,0.981,-0.131,1
-0.216,0.923,0.173,0.011,1.188,0.491,0.132,0.982,-0.14,1
-0.201,1.002,0.18,0.364,0.944,0.082,0.132,0.982,-0.144,1
-0.176,0.996,0.152,0.316,0.913,0.079,0.135,0.983,-0.139,1
-0.211,0.947,0.123,0.349,0.965,0.162,0.131,0.983,-0.145,1
-0.203,0.943,0.139,0.312,0.993,0.169,0.136,0.981,-0.148,1
-0.232,0.933,0.15,0.016,1.003,0.042,0.14,0.982,-0.146,1
-0.235,1.001,0.169,0.329,0.922,0.111,0.143,0.981,-0.146,1
-0.277,0.949,0.196,0.047,1.021,0.144,0.139,0.979,-0.146,1
-0.203,0.987,0.257,0.252,0.906,0.133,0.14,0.98,-0.145,1
-0.159,0.97,0.216,0.281,0.972,0.147,0.138,0.984,-0.149,1
-0.201,0.964,0.175,0.339,0.973,0.235,0.14,0.979,-0.147,1
-0.227,0.958,0.159,0.186,0.962,0.171,0.138,0.981,-0.151,1
-0.207,0.945,0.173,0.134,0.965,0.154,0.139,0.982,-0.148,1
-0.208,0.939,0.174,0.162,0.968,0.174,0.141,0.979,-0.153,1
-0.213,0.955,0.178,0.291,0.944,0.178,0.137,0.979,-0.157,1
-0.406,0.963,0.294,0.255,0.987,0.179,0.137,0.978,-0.158,1
-0.239,1.077,0.297,0.222,0.982,0.151,0.137,0.981,-0.157,1
-0.01,0.895,0.239,0.161,1.018,0.196,0.135,0.98,-0.161,1
-0.214,0.9,0.117,0.174,0.962,0.125,0.133,0.979,-0.16,1
-0.382,0.956,0.113,0.295,0.902,0.058,0.133,0.98,-0.159,1
-0.218,0.993,0.172,-0.19,1.123,0.35,0.132,0.981,-0.157,1
-0.16,1.016,0.279,0.161,0.954,0.071,0.132,0.98,-0.159,1
-0.152,0.957,0.242,0.066,0.992,0.182,0.13,0.981,-0.157,1
-0.103,0.915,0.146,0.132,0.991,0.121,0.133,0.98,-0.156,1
-0.125,0.9,0.14,0.147,0.982,0.198,0.132,0.981,-0.16,1
-0.208,0.978,0.177,0.094,0.963,0.13,0.139,0.979,-0.154,1
-0.246,0.951,0.239,0.133,0.991,0.138,0.133,0.981,-0.152,1
-0.221,0.975,0.292,0.171,0.966,0.141,0.133,0.981,-0.153,1
-0.247,0.986,0.225,0.198,0.962,0.124,0.132,0.985,-0.151,1
-0.214,0.988,0.203,0.155,0.995,0.139,0.134,0.984,-0.146,1
-0.139,0.991,0.222,0.134,1.007,0.176,0.142,0.981,-0.14,1
-0.201,0.949,0.183,0.174,0.965,0.148,0.14,0.982,-0.136,1
-0.216,0.958,0.174,0.208,0.964,0.136,0.14,0.981,-0.135,1
-0.223,0.957,0.187,0.219,0.953,0.153,0.151,0.984,-0.131,1
-0.241,0.98,0.194,0.202,0.977,0.171,0.163,0.981,-0.126,1
-0.235,0.956,0.158,0.189,0.988,0.193,0.147,0.979,-0.138,1
-0.259,0.891,0.156,0.194,0.966,0.17,0.154,0.98,-0.127,1
-0.25,0.983,0.16,0.226,0.977,0.174,0.157,0.982,-0.127,1
-0.248,0.974,0.151,0.218,0.976,0.205,0.154,0.979,-0.14,1
-0.218,0.957,0.167,0.245,0.94,0.199,0.154,0.981,-0.143,1
-0.199,0.968,0.167,0.253,0.937,0.167,0.158,0.98,-0.137,1
-0.186,1.014,0.14,0.125,0.935,0.207,0.15,0.981,-0.145,1
-0.188,0.946,0.243,0.237,0.942,0.229,0.151,0.98,-0.143,1
-0.155,0.944,0.229,0.251,0.946,0.266,0.148,0.979,-0.144,1
-0.313,0.926,0.159,0.211,0.957,0.357,0.148,0.983,-0.142,1
-0.232,0.931,0.201,0.502,1.072,0.421,0.145,0.982,-0.144,1
-0.263,1.009,0.197,0.228,1.038,0.333,0.14,0.98,-0.148,1
-0.25,0.947,0.211,0.31,0.74,0.398,0.141,0.981,-0.145,1
-0.229,0.966,0.203,0.31,0.733,0.403,0.138,0.98,-0.149,1
-0.212,0.969,0.186,0.3,0.637,0.445,0.138,0.98,-0.148,1
-0.216,0.966,0.176,0.373,0.728,0.481,0.137,0.981,-0.146,1
-0.205,0.96,0.156,0.115,0.852,0.439,0.138,0.981,-0.145,1
-0.207,0.973,0.142,0.098,0.96,0.429,0.14,0.981,-0.147,1
-0.173,0.964,0.159,0.317,1.011,0.284,0.144,0.978,-0.149,1
-0.181,0.974,0.239,0.343,0.938,0.226,0.14,0.982,-0.143,1
-0.163,0.963,0.314,0.289,0.941,0.338,0.138,0.982,-0.153,1
-0.269,0.898,0.145,0.14,0.913,0.314,0.141,0.98,-0.145,1
-0.222,0.957,0.173,0.277,0.87,0.299,0.135,0.979,-0.146,1
-0.215,0.98,0.256,0.266,0.957,0.265,0.147,0.98,-0.142,1
-0.138,1.057,0.282,0.308,0.92,0.233,0.145,0.98,-0.149,1
-0.15,0.949,0.217,0.364,0.918,0.245,0.151,0.981,-0.146,1
-0.2,0.963,0.212,0.242,0.943,0.289,0.157,0.981,-0.138,1
-0.207,0.91,0.177,0.217,0.97,0.257,0.154,0.982,-0.145,1
-0.201,0.95,0.193,0.266,0.877,0.279,0.154,0.982,-0.133,1
-0.205,0.975,0.168,0.228,0.952,0.326,0.157,0.985,-0.124,1
-0.243,0.964,0.148,0.19,0.991,0.339,0.125,0.99,-0.121,1
-0.256,0.967,0.167,0.279,0.858,0.273,0.147,0.986,-0.069,1
-0.237,1.007,0.18,0.278,0.879,0.246,0.137,0.995,-0.057,1
-0.247,0.95,0.178,0.286,0.927,0.3,0.155,0.987,-0.065,1
-0.226,0.933,0.194,0.228,0.938,0.415,0.131,0.986,-0.089,1
-0.206,1.062,0.188,0.128,0.864,0.397,0.136,0.988,-0.096,1
-0.189,0.934,0.205,0.655,1.182,0.521,0.148,0.988,-0.102,1
-0.158,0.998,0.204,0.236,1.063,0.708,0.138,0.999,-0.063,1
-0.221,0.926,0.174,0.095,0.547,0.499,0.113,0.99,-0.104,1
-0.194,0.971,0.192,0.321,0.458,0.468,0.115,0.988,-0.101,1
-0.228,0.95,0.177,0.256,0.537,0.62,0.121,0.993,-0.09,1
-0.21,0.961,0.198,0.261,0.567,0.752,0.12,0.987,-0.102,1
-0.22,0.967,0.196,0.098,0.556,0.677,0.11,0.987,-0.113,1
-0.177,0.985,0.253,0.278,0.569,0.699,0.118,0.989,-0.104,1
-0.198,1.016,0.203,0.493,0.692,0.747,0.125,0.983,-0.133,1
-0.259,1.017,0.254,0.575,0.66,0.739,0.124,0.99,-0.102,1
-0.32,1.039,0.079,0.424,0.66,0.639,0.122,0.984,-0.129,1
-0.298,0.835,0.117,0.49,0.677,0.577,0.123,0.984,-0.148,1
-0.273,0.926,0.074,0.478,0.762,0.543,0.116,0.987,-0.129,1
-0.259,0.927,0.069,0.473,0.731,0.535,0.116,0.985,-0.14,1
-0.264,0.942,0.065,0.511,0.631,0.486,0.123,0.985,-0.134,1
-0.297,0.926,0.077,0.586,0.527,0.454,0.126,0.984,-0.149,1
-0.243,0.992,0.077,0.53,0.683,0.389,0.123,0.983,-0.146,1
-0.098,1.064,0.169,0.608,0.846,0.413,0.122,0.984,-0.141,1
-0.098,0.988,0.28,0.529,0.874,0.441,0.12,0.986,-0.14,1
-0.285,0.974,0.17,0.471,0.821,0.346,0.119,0.985,-0.144,1
-0.177,0.985,0.155,0.283,0.856,0.358,0.113,0.979,-0.153,1
-0.193,0.972,0.137,0.341,0.908,0.336,0.122,0.986,-0.145,1
-0.212,0.976,0.126,0.401,0.796,0.346,0.12,0.983,-0.146,1
-0.229,0.963,0.133,0.348,0.918,0.342,0.118,0.994,-0.156,1
-0.213,0.967,0.157,0.222,1.097,0.277,0.123,0.985,-0.145,1
-0.203,0.968,0.169,0.3,0.938,0.193,0.085,0.994,-0.116,1
-0.198,0.977,0.172,0.349,0.825,0.181,0.08,0.996,-0.142,1
-0.188,0.979,0.173,0.275,0.802,0.17,0.087,0.997,-0.139,1
-0.18,0.977,0.168,0.279,0.973,0.205,-0.019,0.994,-0.108,1
-0.188,0.969,0.158,0.321,0.971,0.204,0.011,1.002,-0.027,1
-0.189,0.995,0.151,0.169,0.499,0.229,0.031,0.992,-0.11,1
-0.2,0.967,0.153,0.449,0.806,0.325,-0.004,0.995,-0.065,1
-0.216,0.972,0.147,0.319,0.917,0.187,-0.022,1.009,-0.036,1
-0.215,0.973,0.138,0.374,0.882,0.183,-0.012,0.998,-0.085,1
-0.193,0.969,0.147,0.27,0.888,0.289,0.006,1.002,-0.096,1
-0.193,0.967,0.161,0.49,0.928,0.358,0.015,0.999,-0.087,1
-0.195,0.958,0.174,0.342,0.878,0.229,0.03,1.005,-0.098,1
-0.203,0.968,0.177,0.347,0.948,0.25,0.077,0.993,-0.144,1
-0.21,0.969,0.163,0.232,0.94,0.303,0.059,0.991,-0.141,1
-0.222,0.979,0.149,0.237,0.947,0.268,0.115,0.976,-0.151,1
-0.215,0.99,0.158,0.271,0.934,0.223,0.1,0.982,-0.161,1
-0.239,0.922,0.157,0.282,0.932,0.21,0.131,0.988,-0.155,1
-0.209,1.008,0.171,0.276,0.931,0.196,0.129,0.987,-0.135,1
-0.229,1.026,0.137,0.246,0.959,0.204,0.15,0.978,-0.144,1
-0.232,0.932,0.158,0.165,0.957,0.234,0.155,0.976,-0.138,1
-0.129,0.987,0.162,0.236,0.918,0.228,0.167,0.981,-0.126,1
-0.202,0.935,0.13,0.311,0.938,0.205,0.174,1.035,-0.098,1
-0.164,0.979,0.143,0.298,0.922,0.21,0.185,0.894,-0.016,1
-0.193,0.971,0.174,0.244,0.977,0.226,0.132,0.968,-0.123,1
-0.18,0.898,0.184,0.223,0.969,0.225,0.229,0.985,0.018,1
-0.208,1.053,0.201,0.258,0.949,0.2,0.18,0.968,-0.113,1
-0.213,0.986,0.232,0.286,0.935,0.199,0.255,0.976,-0.079,1
-0.197,0.959,0.218,0.277,0.938,0.215,0.324,0.965,-0.079,1
-0.239,0.975,0.166,0.267,0.944,0.217,0.291,0.959,-0.141,1
-0.213,1.026,0.141,0.271,0.952,0.227,0.29,0.961,-0.046,1
-0.193,1.012,0.133,0.259,0.957,0.2,0.261,0.959,-0.051,1
-0.15,0.925,0.128,0.268,0.926,0.227,0.254,0.966,-0.089,1
-0.177,0.946,0.138,0.307,0.925,0.239,0.278,0.965,-0.052,1
-0.16,0.969,0.217,0.329,0.961,0.212,0.262,0.966,-0.051,1
-0.19,0.986,0.308,0.282,0.953,0.191,0.335,0.958,-0.083,1
-0.196,0.973,0.222,0.262,0.932,0.201,0.28,0.961,-0.057,1
-0.212,1.0,0.169,0.223,0.95,0.217,0.264,0.97,-0.064,1
-0.221,0.957,0.117,0.22,0.938,0.182,0.246,0.968,-0.059,1
-0.278,0.951,0.291,0.243,0.96,0.192,0.228,0.968,-0.039,1
-0.158,0.945,0.292,0.263,0.958,0.205,0.233,0.976,-0.023,1
-0.197,1.017,0.211,0.249,0.942,0.202,0.21,0.974,-0.035,1
-0.301,0.954,0.161,0.246,0.941,0.198,0.223,0.974,-0.083,1
-0.193,0.983,0.164,0.242,0.954,0.203,0.201,0.976,-0.079,1
-0.208,0.927,0.171,0.239,0.959,0.213,0.249,0.985,-0.071,1
-0.201,0.994,0.164,0.253,0.948,0.21,0.198,0.972,-0.141,1
-0.197,0.971,0.151,0.256,0.944,0.201,0.201,0.957,-0.13,1
-0.198,0.958,0.154,0.253,0.953,0.221,0.192,0.99,-0.143,1
-0.204,0.953,0.156,0.271,0.957,0.21,0.187,0.99,-0.136,1
-0.219,0.972,0.167,0.23,0.942,0.184,0.21,0.978,-0.12,1
-0.226,0.979,0.164,0.223,0.957,0.219,0.181,0.971,-0.187,1
-0.208,0.959,0.149,0.24,0.955,0.221,0.184,0.972,-0.165,1
-0.193,1.022,0.144,0.252,0.949,0.206,0.181,0.979,-0.141,1
-0.196,0.975,0.146,0.237,0.95,0.219,0.158,0.978,-0.122,1
-0.188,0.913,0.148,0.233,0.953,0.23,0.171,0.976,-0.143,1
-0.2,0.976,0.134,0.268,0.939,0.212,0.176,0.98,-0.14,1
-0.239,0.981,0.14,0.276,0.936,0.195,0.171,0.979,-0.127,1
-0.258,0.95,0.186,0.264,0.942,0.207,0.16,0.98,-0.119,1
-0.193,0.978,0.218,0.266,0.942,0.227,0.158,0.989,-0.103,1
-0.216,0.972,0.184,0.29,0.94,0.214,0.165,0.982,-0.115,1
-0.221,0.982,0.138,0.299,0.942,0.22,0.154,0.984,-0.128,1
-0.218,0.965,0.127,0.286,0.939,0.212,0.156,0.987,-0.12,1
-0.201,0.959,0.138,0.269,0.924,0.176,0.131,0.98,-0.125,1
-0.208,0.964,0.164,0.261,0.938,0.177,0.149,0.988,-0.1,1
-0.211,0.975,0.173,0.214,0.971,0.24,0.118,0.99,-0.115,1
-0.234,0.973,0.166,0.273,0.98,0.236,0.128,0.991,-0.111,1
-0.218,0.97,0.177,0.257,0.909,0.206,0.126,0.988,-0.113,1
-0.208,0.962,0.171,0.266,0.94,0.253,0.106,0.987,-0.109,1
-0.207,0.961,0.162,0.238,0.932,0.257,0.051,1.0,-0.08,1
-0.22,0.959,0.16,0.293,0.945,0.255,0.132,0.979,-0.096,1
-0.215,0.973,0.16,0.272,0.929,0.196,0.021,0.982,-0.126,1
-0.209,0.971,0.156,0.266,0.987,0.199,0.033,1.017,-0.006,1
-0.215,0.961,0.17,0.176,0.975,0.175,0.019,0.999,-0.068,1
-0.226,0.979,0.215,0.246,0.947,0.18,-0.015,1.001,-0.081,1
-0.188,0.977,0.164,0.075,0.97,0.266,-0.006,1.001,-0.039,1
-0.2,0.979,0.091,0.332,0.929,0.285,-0.029,1.004,-0.046,1
-0.25,0.938,0.128,0.365,0.923,0.264,-0.014,0.996,-0.064,1
-0.202,0.95,0.188,0.37,0.92,0.285,-0.01,1.017,-0.049,1
-0.225,0.978,0.214,0.368,0.896,0.327,-0.032,1.002,-0.083,1
-0.209,0.972,0.228,0.305,0.938,0.249,-0.0,1.005,-0.042,1
-0.187,0.94,0.223,0.201,0.927,0.225,-0.009,0.998,-0.064,1
-0.198,0.95,0.187,0.226,0.938,0.252,-0.016,0.994,-0.055,1
-0.19,0.941,0.163,0.131,0.967,0.318,-0.001,0.998,-0.003,1
-0.19,0.957,0.183,0.213,0.946,0.335,0.004,1.0,-0.002,1
-0.243,0.948,0.208,0.327,0.888,0.245,0.007,0.997,-0.076,1
-0.222,0.994,0.251,0.383,0.854,0.179,-0.0,0.997,-0.023,1
-0.237,1.013,0.224,0.344,0.925,0.227,0.002,0.994,-0.071,1
-0.224,0.997,0.18,0.324,1.004,0.324,-0.03,1.006,-0.051,1
-0.193,0.946,0.153,0.276,0.939,0.207,-0.054,0.994,-0.074,1
-0.201,0.953,0.147,0.333,0.902,0.127,-0.021,1.006,-0.062,1
-0.201,0.958,0.174,0.345,0.953,0.144,-0.019,0.998,-0.095,1
-0.191,0.954,0.213,0.247,1.004,0.159,-0.021,1.007,-0.049,1
-0.216,0.953,0.234,0.205,0.981,0.202,-0.001,1.013,-0.038,1
-0.196,0.972,0.212,0.201,0.937,0.207,0.011,1.004,-0.054,1
-0.208,0.957,0.189,0.269,0.939,0.207,0.083,0.996,0.035,1
-0.214,0.969,0.178,0.344,0.932,0.203,0.108,1.002,0.029,1
-0.201,0.963,0.182,0.313,0.935,0.209,0.168,0.992,0.01,1
-0.2,0.956,0.191,0.321,0.929,0.227,0.246,1.009,0.317,1
-0.212,0.969,0.196,0.283,0.955,0.203,0.126,0.996,-0.211,1
-0.216,0.972,0.201,0.257,0.932,0.209,0.233,0.923,-0.042,1
-0.206,0.96,0.214,0.3,0.935,0.205,0.2,0.955,-0.046,1
-0.212,0.965,0.213,0.362,0.917,0.191,0.268,0.974,0.124,1
-0.199,0.961,0.204,0.314,0.955,0.235,0.338,0.973,0.087,1
-0.188,0.959,0.184,0.32,0.92,0.245,0.127,1.003,-0.012,1
-0.191,0.96,0.167,0.293,0.932,0.208,0.173,0.995,-0.007,1
-0.194,0.964,0.167,0.275,0.927,0.193,0.135,0.975,-0.049,1
-0.203,0.968,0.186,0.258,0.953,0.191,-0.033,0.999,-0.082,1
-0.199,0.978,0.206,0.276,0.922,0.2,0.064,1.04,0.077,1
-0.201,1.0,0.225,0.306,0.929,0.202,0.1,0.97,-0.034,1
-0.184,0.986,0.212,0.311,0.961,0.222,0.019,0.97,-0.115,1
-0.207,0.974,0.179,0.208,0.98,0.229,0.03,1.031,-0.024,1
-0.201,0.945,0.161,0.222,0.975,0.205,-0.002,1.006,-0.06,1
-0.203,0.949,0.158,0.23,0.958,0.21,0.044,1.004,-0.053,1
-0.213,0.958,0.152,0.252,0.932,0.205,0.122,0.992,-0.082,1
-0.206,0.954,0.157,0.28,0.934,0.208,0.223,1.023,-0.007,1
-0.2,0.982,0.174,0.28,0.954,0.237,0.288,1.008,0.104,1
-0.186,0.959,0.178,0.27,0.955,0.25,0.197,0.945,-0.038,1
-0.195,0.957,0.176,0.283,0.927,0.204,0.195,1.0,0.019,1
-0.2,0.961,0.174,0.261,0.939,0.207,0.142,0.895,0.024,1
-0.208,0.982,0.171,0.248,0.902,0.297,0.312,0.891,0.145,1
-0.219,0.953,0.155,0.314,0.924,0.232,0.214,0.992,0.037,1
-0.217,0.967,0.152,0.294,0.915,0.2,0.367,0.937,0.125,1
-0.216,0.997,0.159,0.306,0.938,0.241,0.328,0.967,0.126,1
-0.214,0.953,0.167,0.314,0.915,0.249,0.164,0.968,0.043,1
-0.222,0.981,0.163,0.295,0.916,0.181,0.253,0.96,0.083,1
-0.21,0.993,0.162,0.281,1.0,0.206,0.275,0.98,0.12,1
-0.2,0.949,0.166,0.219,0.941,0.292,0.253,0.991,0.154,1
-0.2,0.955,0.158,0.293,0.944,0.248,0.21,0.954,-0.048,1
-0.225,0.965,0.139,0.326,0.909,0.205,0.296,0.891,-0.089,1
-0.221,0.953,0.169,0.332,0.92,0.241,0.23,1.041,0.294,1
-0.2,0.974,0.178,0.289,0.971,0.268,0.138,0.97,0.076,1
-0.223,0.966,0.162,0.214,0.95,0.244,0.095,0.987,0.023,1
-0.222,0.979,0.157,0.238,0.927,0.208,0.156,0.979,0.087,1
-0.226,0.964,0.159,0.256,0.917,0.198,-0.047,0.994,-0.023,1
-0.226,0.984,0.166,0.271,0.947,0.228,0.009,0.999,-0.03,1
-0.224,0.973,0.156,0.271,0.942,0.25,0.038,1.011,0.001,1
-0.21,0.976,0.151,0.283,0.939,0.22,-0.006,1.014,0.018,1
-0.205,0.997,0.159,0.271,0.937,0.218,0.012,1.0,-0.06,1
-0.2,0.903,0.157,0.268,0.95,0.232,-0.02,0.983,-0.11,1
-0.217,0.96,0.16,0.275,0.94,0.232,-0.001,1.009,-0.06,1
-0.233,1.076,0.15,0.282,0.937,0.224,0.007,1.002,-0.047,1
-0.175,0.939,0.683,0.28,0.932,0.224,0.007,0.998,-0.078,1
-0.018,0.96,0.394,0.272,0.94,0.213,0.01,1.002,-0.072,1
-0.187,1.007,0.15,0.28,0.933,0.215,0.001,0.995,-0.081,1
-0.206,0.821,-0.07,0.283,0.946,0.206,-0.006,0.999,-0.072,1
-0.278,0.86,-0.02,0.278,0.953,0.208,-0.002,1.006,-0.05,1
-0.249,0.967,0.037,0.28,0.948,0.211,-0.015,1.007,-0.048,1
-0.323,1.229,0.314,0.291,0.943,0.203,-0.005,0.989,-0.089,1
-0.007,1.317,0.738,0.283,0.941,0.196,0.0,1.006,-0.077,1
-0.119,0.949,0.157,0.281,0.945,0.201,-0.01,1.002,-0.074,1
-0.201,1.032,0.12,0.274,0.943,0.199,-0.015,0.996,-0.079,1
-0.228,0.977,0.056,0.268,0.951,0.2,-0.014,1.008,-0.037,1
-0.263,0.898,0.061,0.261,0.944,0.22,0.051,1.009,-0.056,1
-0.213,0.935,0.097,0.273,0.939,0.215,-0.031,0.982,-0.093,1
-0.203,0.978,0.196,0.272,0.935,0.209,0.011,1.023,0.042,1
0.062,1.127,0.665,0.278,0.934,0.235,0.044,0.987,-0.0,1
-0.193,0.859,0.182,0.272,0.933,0.2,-0.001,1.012,-0.02,1
-0.218,0.892,0.186,0.272,0.938,0.208,-0.042,1.006,-0.028,1
-0.325,0.974,0.143,0.274,0.95,0.244,-0.032,1.049,0.022,1
-0.173,0.959,0.194,0.289,0.957,0.224,-0.006,0.984,-0.094,1
-0.202,1.027,0.228,0.301,0.917,0.184,0.05,1.007,0.078,1
-0.46,0.997,0.308,0.311,0.939,0.174,-0.011,0.994,0.022,1
-0.174,0.934,0.142,0.328,0.94,0.218,0.019,1.014,0.033,1
-0.167,0.964,0.196,0.292,0.942,0.239,-0.036,1.009,-0.114,1
-0.215,0.933,0.187,0.309,0.959,0.21,0.066,0.998,-0.024,1
-0.205,0.957,0.207,0.31,0.963,0.195,0.113,0.995,0.009,1
-0.184,0.984,0.217,0.281,0.932,0.197,0.197,0.985,0.023,1
-0.198,0.958,0.19,0.292,0.935,0.196,0.207,0.991,-0.047,1
-0.179,0.961,0.191,0.265,0.961,0.225,0.206,0.977,0.082,1
-0.187,0.95,0.206,0.238,0.928,0.203,0.238,1.007,0.251,1
-0.188,0.987,0.194,0.229,0.933,0.183,0.235,0.969,0.02,1
-0.214,0.954,0.188,0.282,0.928,0.189,0.243,1.014,-0.039,1
-0.221,0.957,0.192,0.25,0.93,0.178,0.339,0.921,0.084,1
-0.226,0.967,0.198,0.244,0.959,0.215,0.265,0.943,0.099,1
-0.219,0.964,0.199,0.19,0.984,0.292,0.247,0.942,-0.066,1
-0.208,0.962,0.196,0.232,0.959,0.22,0.398,1.046,0.131,1
-0.208,0.967,0.188,0.247,0.943,0.256,0.122,0.896,0.081,1
-0.199,0.967,0.185,0.274,0.938,0.258,0.094,1.022,-0.098,1
-0.199,0.963,0.19,0.253,0.941,0.253,0.199,0.957,0.001,1
-0.208,0.961,0.188,0.262,0.928,0.245,0.18,0.976,-0.049,1
-0.213,0.957,0.195,0.252,0.954,0.25,0.11,1.05,0.011,1
-0.216,0.962,0.195,0.229,0.934,0.237,0.083,0.983,-0.153,1
-0.207,0.973,0.192,0.241,0.941,0.242,0.032,0.98,-0.139,1
-0.195,0.962,0.184,0.259,0.938,0.241,0.035,1.013,-0.077,1
-0.191,0.961,0.176,0.262,0.944,0.238,0.006,0.985,-0.069,1
-0.189,0.966,0.179,0.257,0.952,0.243,-0.042,1.002,-0.079,1
-0.196,0.962,0.178,0.26,0.942,0.237,0.009,0.998,-0.081,1
-0.187,0.959,0.19,0.26,0.94,0.229,-0.022,0.997,-0.08,1
-0.208,0.932,0.185,0.258,0.942,0.232,0.015,1.001,-0.073,1
-0.234,0.952,0.196,0.263,0.931,0.233,0.045,1.0,-0.094,1
-0.246,1.023,0.22,0.267,0.926,0.227,-0.0,1.001,-0.086,1
-0.111,1.035,0.299,0.278,0.932,0.244,0.042,1.004,-0.086,1
0.044,0.993,0.241,0.262,0.952,0.214,0.052,1.048,-0.048,1
-0.34,1.043,0.171,0.221,0.931,0.211,0.044,0.982,-0.152,1
-0.155,0.846,0.142,0.256,0.923,0.229,0.121,0.998,-0.008,1
-0.177,0.995,0.135,0.283,0.99,0.226,0.136,0.991,-0.05,1
-0.247,0.928,0.108,0.292,0.963,0.25,0.14,0.988,-0.069,1
-0.234,0.908,0.119,0.293,0.917,0.258,0.187,0.987,-0.073,1
-0.26,1.013,0.187,0.299,0.93,0.243,0.2,0.982,-0.042,1
-0.208,0.994,0.189,0.28,0.94,0.202,0.177,0.984,-0.004,1
-0.203,0.985,0.17,0.252,0.937,0.2,0.237,0.973,-0.015,1
-0.195,1.045,0.16,0.227,0.946,0.251,0.232,0.971,-0.004,1
-0.176,0.983,0.131,0.286,0.964,0.234,0.249,0.979,-0.007,1
-0.167,0.91,0.123,0.293,0.92,0.205,0.32,0.96,0.049,1
-0.199,0.919,0.13,0.287,0.955,0.206,0.282,1.011,-0.014,1
-0.224,0.989,0.166,0.237,0.964,0.233,0.292,0.977,-0.032,1
-0.21,1.019,0.196,0.228,0.943,0.213,0.242,0.98,0.014,1
-0.243,0.979,0.203,0.258,0.941,0.212,0.458,0.912,0.051,1
-0.221,0.987,0.19,0.262,0.939,0.231,0.281,0.975,0.089,1
-0.234,0.949,0.16,0.263,0.947,0.23,0.182,0.979,0.053,1
-0.21,0.947,0.167,0.261,0.942,0.213,0.294,0.952,0.044,1
-0.196,1.027,0.162,0.249,0.94,0.22,0.256,0.968,0.083,1
-0.219,0.935,0.127,0.252,0.939,0.229,0.221,0.974,0.021,1
-0.229,0.947,0.164,0.266,0.944,0.223,0.221,0.976,-0.006,1
-0.133,0.965,0.212,0.268,0.944,0.217,0.228,0.98,-0.004,1
-0.228,0.967,0.194,0.255,0.948,0.214,0.211,0.983,0.006,1
-0.191,0.97,0.177,0.254,0.949,0.215,0.208,0.981,-0.004,1
-0.212,0.949,0.15,0.264,0.941,0.211,0.202,0.988,-0.016,1
-0.227,0.956,0.15,0.265,0.928,0.19,0.187,0.978,-0.048,1
-0.209,0.984,0.161,0.233,0.915,0.162,0.184,0.997,-0.063,1
-0.192,1.021,0.138,0.252,1.005,0.352,0.17,0.986,-0.113,1
-0.227,0.959,0.136,0.327,0.925,0.214,0.169,0.988,-0.124,1
-0.162,0.96,0.15,0.283,0.917,0.226,0.166,0.977,-0.112,1
-0.205,0.956,0.149,0.231,0.965,0.265,0.159,0.996,-0.1,1
-0.205,0.978,0.151,0.247,0.94,0.218,0.154,0.974,-0.121,1
-0.227,0.957,0.154,0.228,0.962,0.211,0.155,0.983,-0.12,1
-0.211,0.986,0.17,0.219,0.939,0.252,0.161,0.987,-0.123,1
-0.226,0.959,0.155,0.286,0.939,0.216,0.146,0.986,-0.122,1
-0.223,0.947,0.145,0.245,0.948,0.237,0.146,0.981,-0.116,1
-0.249,0.944,0.139,0.244,0.956,0.24,0.129,0.985,-0.117,1
-0.257,0.984,0.173,0.25,0.937,0.22,0.139,0.988,-0.109,1
-0.242,0.983,0.197,0.248,0.952,0.25,0.132,0.992,-0.107,1
-0.212,0.975,0.201,0.273,0.929,0.244,0.107,0.992,-0.105,1
-0.205,1.009,0.183,0.271,0.937,0.234,0.098,0.99,-0.114,1
-0.197,1.033,0.161,0.244,0.941,0.247,0.097,0.993,-0.087,1
-0.172,0.942,0.151,0.265,0.945,0.234,0.075,0.998,-0.064,1
-0.162,0.897,0.134,0.252,0.943,0.246,0.025,0.988,-0.122,1
-0.223,0.929,0.109,0.264,0.937,0.242,0.023,0.996,-0.099,1
-0.273,0.988,0.136,0.267,0.938,0.236,0.015,1.003,-0.029,1
-0.335,0.949,0.218,0.261,0.941,0.239,-0.017,1.0,-0.073,1
-0.043,1.075,0.287,0.273,0.937,0.245,0.003,0.998,-0.045,1
-0.21,0.924,0.21,0.272,0.927,0.243,0.009,0.996,-0.07,1
-0.189,0.976,0.175,0.275,0.944,0.252,0.041,1.0,-0.047,1
-0.186,0.92,0.136,0.278,0.933,0.256,0.023,0.997,-0.075,1
-0.193,0.938,0.127,0.281,0.931,0.25,0.062,0.993,-0.093,1
-0.173,0.937,0.145,0.263,0.938,0.248,0.048,0.992,-0.105,1
-0.079,1.042,0.308,0.242,0.954,0.25,0.099,0.992,-0.078,1
-0.58,0.887,0.183,0.237,0.941,0.24,0.119,0.99,-0.112,1
-0.154,0.905,0.18,0.24,0.935,0.246,0.114,0.995,-0.124,1
-0.113,1.026,0.225,0.269,0.934,0.241,0.14,0.979,-0.129,1
-0.265,0.994,0.182,0.233,0.95,0.25,0.19,0.972,-0.138,1
-0.227,0.952,0.171,0.254,0.938,0.246,0.215,0.978,-0.112,1
-0.223,0.958,0.178,0.259,0.934,0.255,0.202,0.997,-0.094,1
-0.188,0.99,0.197,0.267,0.947,0.256,0.166,0.992,-0.061,1
-0.017,0.959,0.298,0.258,0.944,0.238,0.266,0.958,0.018,1
-0.221,0.96,0.173,0.248,0.949,0.24,0.261,0.975,0.039,1
-0.183,0.891,0.16,0.263,0.942,0.232,0.27,0.939,-0.03,1
-0.233,0.996,0.183,0.271,0.938,0.215,0.34,0.999,0.11,1
-0.247,0.961,0.239,0.269,0.94,0.208,0.25,0.955,-0.006,1
-0.031,1.042,0.407,0.267,0.955,0.215,0.326,0.967,0.029,1
-0.182,1.013,0.284,0.274,0.94,0.228,0.283,0.998,0.038,1
-0.11,0.95,0.218,0.289,0.933,0.21,0.236,0.949,0.036,1
-0.102,0.862,0.207,0.279,0.929,0.208,0.145,1.0,-0.002,1
-0.237,0.854,0.337,0.272,0.935,0.238,0.244,0.992,-0.042,1
-0.03,0.916,0.371,0.281,0.94,0.232,0.141,0.993,-0.058,1
-0.221,0.976,0.227,0.276,0.95,0.213,0.131,0.995,-0.058,1
-0.264,0.918,0.13,0.259,0.937,0.228,0.102,0.987,-0.101,1
-0.245,0.947,0.182,0.271,0.943,0.219,0.122,0.986,-0.152,1
-0.196,0.996,0.276,0.278,0.965,0.224,0.095,0.995,-0.165,1
-0.059,1.017,0.332,0.254,0.943,0.225,0.12,0.996,-0.128,1
-0.087,0.924,0.252,0.261,0.933,0.226,0.091,0.993,-0.131,1
-0.196,0.936,0.183,0.275,0.938,0.223,0.089,0.981,-0.167,1
-0.227,0.975,0.192,0.267,0.943,0.222,0.093,0.981,-0.177,1
-0.198,0.972,0.235,0.26,0.944,0.235,0.075,0.983,-0.132,1
-0.18,0.961,0.274,0.262,0.936,0.229,0.068,0.975,-0.2,1
-0.154,0.969,0.255,0.274,0.938,0.227,0.155,1.009,-0.096,1
-0.172,0.939,0.213,0.272,0.941,0.238,0.098,0.979,-0.173,1
-0.181,0.953,0.203,0.277,0.939,0.239,0.131,0.978,-0.148,1
-0.182,1.0,0.229,0.277,0.938,0.236,0.096,0.979,-0.167,1
-0.164,0.96,0.228,0.264,0.943,0.235,0.141,0.985,-0.116,1
-0.167,0.928,0.208,0.253,0.942,0.23,0.128,0.986,-0.13,1
-0.197,0.972,0.206,0.249,0.947,0.232,0.137,0.985,-0.142,1
-0.199,1.061,0.196,0.262,0.956,0.244,0.146,0.99,-0.128,1
-0.237,0.962,0.214,0.267,0.954,0.242,0.14,0.98,-0.125,1
-0.155,1.0,0.249,0.256,0.905,0.212,0.123,0.983,-0.131,1
-0.192,0.941,0.213,0.283,0.902,0.218,0.143,0.993,-0.125,1
-0.167,0.955,0.196,0.317,0.967,0.243,0.142,0.989,-0.109,1
-0.179,0.972,0.184,0.285,0.95,0.223,0.111,0.99,-0.107,1
-0.176,0.968,0.17,0.254,0.966,0.214,0.13,0.976,-0.105,1
-0.21,0.98,0.168,0.245,0.92,0.203,0.105,0.982,-0.11,1
-0.909,-0.594,-0.168,0.63,1.195,0.597,0.238,0.973,0.031,2
-1.085,-0.609,0.255,0.669,0.621,0.694,0.144,1.01,0.032,2
-0.862,-0.566,0.045,0.551,0.189,0.334,0.152,0.959,-0.068,2
-0.805,-0.439,-0.112,1.063,0.272,-0.054,0.081,0.974,-0.068,2
-0.829,-0.748,-0.024,0.804,0.401,-0.288,0.078,1.022,-0.026,2
-0.826,-0.741,0.52,0.89,0.031,0.295,0.041,0.997,-0.09,2
-0.466,-0.377,0.242,1.16,-0.394,0.651,-0.028,1.01,-0.021,2
-0.563,-0.212,-0.487,0.821,-0.028,0.022,-0.035,1.01,-0.067,2
-5.116,-1.82,2.922,0.866,0.166,-0.31,-0.019,1.002,-0.122,2
-0.869,-0.58,0.609,0.789,-0.241,0.314,0.038,0.993,-0.062,2
-1.131,-0.25,-0.222,0.561,-0.111,0.296,-0.011,1.014,-0.022,2
-0.669,-0.175,0.063,0.855,0.026,0.178,0.021,1.0,-0.09,2
-0.566,-0.616,1.041,0.777,0.125,-0.243,0.022,0.989,-0.13,2
-0.802,-0.622,-0.52,0.861,0.153,-0.102,0.05,0.992,-0.055,2
-0.764,-0.416,-0.998,0.983,0.254,0.171,0.131,0.973,-0.137,2
-0.722,-0.576,-0.334,1.066,0.292,0.332,0.205,0.996,-0.144,2
-1.015,-0.116,0.224,1.139,0.252,0.17,0.213,0.817,-0.049,2
-0.716,0.138,0.351,0.798,0.293,-0.025,0.266,0.963,-0.187,2
-1.135,0.461,1.105,0.747,0.382,0.051,0.366,0.982,-0.075,2
-1.007,0.693,1.08,1.751,1.056,-0.026,0.397,0.871,-0.207,2
-0.75,0.546,0.76,0.479,0.196,0.062,0.29,0.921,-0.162,2
-1.103,0.494,0.876,1.171,0.407,0.138,0.292,0.955,-0.007,2
-1.477,0.144,0.588,1.207,0.432,0.154,0.417,0.9,-0.071,2
-1.017,0.039,-0.218,1.145,0.122,0.269,0.384,0.934,-0.057,2
-0.268,-0.714,-0.628,1.151,-0.049,0.243,0.384,0.906,0.023,2
-0.867,-0.499,0.359,0.564,0.024,0.226,0.146,0.987,0.065,2
-0.09,-0.743,0.026,1.009,0.165,0.006,0.396,0.937,0.022,2
-0.275,-0.82,-0.271,0.883,-0.464,0.338,0.341,0.941,-0.017,2
-1.03,-0.96,0.519,0.761,-0.495,0.587,0.366,0.945,0.022,2
-1.044,-0.604,0.091,0.583,-0.352,-0.129,0.352,0.937,-0.035,2
-0.386,-0.659,-0.084,0.797,-0.452,0.152,0.286,0.982,-0.059,2
-0.321,-0.989,0.286,0.862,-0.678,0.897,0.222,0.966,-0.095,2
-0.57,-0.738,-0.273,0.713,-0.542,0.652,0.252,0.983,-0.029,2
-0.762,-0.763,0.187,0.463,-0.257,0.221,0.127,0.987,-0.003,2
-0.698,-0.826,-0.086,0.791,-0.173,0.172,0.153,0.989,-0.092,2
-0.295,-0.537,-0.161,0.958,-0.262,0.534,0.071,0.99,-0.009,2
-0.443,-0.433,-0.111,0.897,-0.041,0.545,0.04,0.979,0.033,2
-1.08,-0.062,-0.118,0.691,-0.208,0.43,-0.005,0.991,-0.096,2
-1.199,0.192,0.034,0.619,-0.188,0.285,-0.024,0.993,-0.06,2
-0.87,0.294,0.385,0.786,-0.146,0.117,0.001,1.017,-0.002,2
-1.083,0.617,0.504,1.334,0.256,0.284,0.083,0.998,-0.057,2
-1.209,0.774,0.957,1.26,0.417,0.406,0.028,0.981,-0.109,2
-1.054,0.67,0.665,1.259,0.508,0.427,0.057,0.964,-0.191,2
-0.982,0.547,0.575,0.936,0.271,0.338,0.107,1.042,-0.003,2
-1.088,0.002,0.257,0.931,-0.054,0.132,0.205,0.963,-0.149,2
-0.897,-0.195,0.037,1.198,-0.006,-0.089,0.189,1.019,-0.108,2
-0.632,-0.435,0.066,1.27,0.123,-0.029,0.256,1.012,-0.108,2
-0.429,-0.729,0.277,1.094,0.024,0.229,0.416,0.962,-0.057,2
-0.328,-0.587,0.244,0.965,-0.225,0.244,0.209,0.947,-0.207,2
-0.139,-0.813,0.496,0.818,-0.287,0.193,0.352,0.92,-0.088,2
-1.194,-0.71,0.569,0.879,-0.188,-0.005,0.407,0.954,-0.046,2
-0.607,-0.526,0.435,0.773,-0.207,0.282,0.305,0.954,0.042,2
0.14,-0.979,0.409,0.933,-0.466,1.018,0.297,0.895,0.053,2
-0.575,-0.764,0.936,0.958,-0.396,0.538,0.435,0.917,0.017,2
-0.598,-0.894,0.403,0.704,-0.273,0.073,0.299,0.958,-0.092,2
-0.357,-0.817,0.26,0.469,-0.393,0.157,0.261,0.963,-0.059,2
-0.229,-0.542,0.094,1.071,-0.661,0.812,0.208,0.979,-0.033,2
-0.805,-0.741,0.744,0.938,-0.541,0.607,0.239,0.981,-0.084,2
-0.25,-0.625,0.128,0.628,-0.304,0.339,0.224,0.99,-0.079,2
-0.429,-0.431,0.049,0.686,-0.212,0.209,0.02,0.985,-0.091,2
-0.759,-0.688,0.027,0.816,-0.656,0.828,0.12,0.993,-0.019,2
-1.239,-0.116,0.072,0.656,-0.629,0.912,0.091,0.99,-0.073,2
-1.336,0.234,0.396,0.696,-0.28,0.412,0.014,0.999,-0.058,2
-0.849,0.354,0.394,0.77,-0.027,0.226,-0.069,0.998,-0.11,2
-0.885,1.001,0.327,0.602,-0.151,0.445,0.033,1.004,-0.115,2
-1.06,0.67,0.23,0.656,-0.118,0.538,-0.038,0.99,-0.127,2
-0.823,0.75,0.035,0.725,0.101,0.388,0.008,1.0,-0.045,2
-0.743,0.705,0.167,1.192,0.164,-0.055,0.063,1.011,-0.019,2
-1.077,0.516,-0.051,1.463,0.186,-0.146,0.101,0.986,-0.092,2
-1.117,0.158,-0.141,1.047,0.344,0.102,0.122,0.972,-0.203,2
-0.864,-0.043,-0.271,1.435,0.585,0.198,0.166,0.972,-0.159,2
-0.743,-0.204,-0.411,1.08,0.165,0.202,0.25,0.98,-0.12,2
-0.628,-0.233,-0.432,1.029,-0.096,0.127,0.211,0.974,-0.17,2
-1.012,-0.424,-0.45,1.268,0.001,0.045,0.266,0.98,-0.085,2
-1.17,-0.8,0.044,1.201,-0.065,-0.161,0.229,0.967,-0.058,2
-0.869,-0.373,-0.316,1.021,-0.106,0.103,0.222,0.97,-0.056,2
-0.692,-0.26,-0.645,0.708,-0.342,0.047,0.208,0.981,-0.085,2
-0.885,-0.473,-0.103,1.06,-0.561,0.252,0.223,0.967,-0.12,2
-1.115,-0.651,0.3,0.791,-0.293,0.393,0.2,0.96,-0.175,2
-0.592,-0.51,-0.311,0.522,-0.276,0.292,0.15,1.014,-0.037,2
-0.57,-0.38,-0.323,0.664,-0.205,0.03,0.189,0.981,-0.139,2
-1.348,-0.756,0.659,1.001,-0.685,1.027,0.11,0.967,-0.165,2
-0.69,-0.658,0.227,0.812,-0.5,0.875,0.178,0.972,-0.132,2
-0.554,-0.32,-0.461,0.5,-0.407,0.321,0.123,0.97,-0.155,2
-0.621,-0.865,0.463,0.599,-0.204,-0.146,0.145,0.973,-0.122,2
-1.153,-0.795,0.568,0.788,-0.602,0.549,0.168,0.963,-0.17,2
-0.655,-0.653,0.042,0.991,-0.759,1.087,0.205,0.964,-0.167,2
-0.072,-0.539,-0.412,0.635,-0.383,0.498,0.233,1.051,-0.084,2
-0.29,-0.478,-0.362,0.507,-0.157,-0.038,0.276,0.97,0.02,2
-1.278,-0.049,-0.238,0.612,-0.626,0.653,0.253,0.94,-0.234,2
-1.54,0.163,0.01,0.838,-0.771,1.032,0.36,0.936,-0.149,2
-1.188,0.285,0.166,0.836,-0.464,0.507,0.334,0.94,-0.083,2
-0.751,0.372,0.35,0.462,-0.253,0.232,0.342,0.935,-0.116,2
-0.559,0.375,0.378,0.613,-0.109,0.346,0.274,0.962,-0.08,2
-0.804,0.598,0.664,0.809,0.039,0.6,0.306,0.958,-0.031,2
-0.904,0.533,0.737,0.662,-0.1,0.447,0.262,0.965,-0.03,2
-0.92,0.552,0.483,1.067,-0.173,0.247,0.292,0.964,-0.014,2
-1.092,0.087,0.22,1.34,-0.154,0.263,0.196,0.949,-0.045,2
-1.062,-0.137,0.066,1.14,-0.022,0.37,0.15,0.989,-0.085,2
-0.422,-0.433,-0.167,1.28,0.223,0.664,0.187,1.042,0.095,2
-0.398,-0.541,0.125,0.665,0.534,1.02,0.135,0.958,-0.146,2
-1.649,-0.743,0.612,0.933,0.199,0.913,0.072,1.007,-0.043,2
-0.822,-0.602,0.256,1.127,-0.012,0.745,0.044,0.99,-0.095,2
-0.428,-0.534,-0.26,0.876,-0.316,0.657,-0.036,0.999,-0.103,2
-0.185,-0.696,0.071,0.268,-0.469,0.458,0.042,0.989,-0.059,2
-1.376,-0.923,0.741,0.172,-0.226,0.049,-0.025,1.0,-0.037,2
-0.534,-0.92,0.028,0.507,-0.266,0.303,0.063,0.98,-0.128,2
-0.135,-0.749,-0.072,0.637,-0.609,1.403,0.016,0.994,-0.109,2
-1.218,-0.542,0.569,0.273,-0.583,0.805,0.077,0.996,-0.106,2
-0.352,-0.856,0.28,0.406,-0.374,0.22,0.066,0.993,-0.058,2
-0.025,-0.707,-0.159,0.486,-0.489,0.613,0.221,0.956,-0.138,2
-0.877,-0.641,0.804,0.369,-0.81,1.094,0.143,0.978,-0.192,2
-0.454,-0.926,0.299,0.212,-0.555,0.577,0.256,0.979,-0.148,2
-0.375,-0.707,0.01,0.396,-0.268,0.372,0.237,1.008,-0.038,2
-0.066,-0.81,-0.083,0.581,-0.289,0.759,0.397,0.945,-0.067,2
-0.365,-0.53,-0.249,0.453,-0.325,0.67,0.286,0.94,-0.101,2
-0.609,-0.414,0.019,0.402,-0.413,0.667,0.321,0.966,-0.031,2
-1.562,-0.265,0.013,0.755,-0.657,0.395,0.311,0.912,-0.133,2
-1.282,-0.155,0.102,0.575,-0.536,0.653,0.227,0.984,0.037,2
-0.914,-0.072,0.138,1.066,-0.306,0.781,0.249,0.933,0.024,2
-0.564,-0.028,0.307,0.95,0.282,0.814,0.331,0.929,0.117,2
-1.525,1.011,0.268,0.987,0.12,0.676,0.254,0.976,0.049,2
-0.779,0.384,0.714,0.884,0.022,0.653,0.277,0.916,0.058,2
-0.922,0.4,0.595,0.969,0.006,0.588,0.207,0.969,-0.022,2
-0.987,0.315,0.375,0.804,-0.012,0.539,0.218,0.933,0.015,2
-1.022,0.135,-0.018,0.923,0.054,0.591,0.124,1.029,0.152,2
-1.018,-0.245,-0.355,0.831,-0.09,0.695,0.17,0.967,-0.062,2
-0.699,-0.468,-0.267,0.816,-0.233,0.588,-0.056,1.022,-0.083,2
-0.326,-0.583,-0.108,0.529,-0.063,0.53,0.083,0.985,-0.037,2
-1.131,-0.723,0.042,0.628,0.013,0.477,0.051,0.996,-0.063,2
-0.917,-0.731,-0.011,0.663,-0.275,0.795,0.063,1.0,-0.087,2
-0.633,-0.665,0.05,0.937,-0.383,1.019,0.083,0.981,-0.104,2
-0.932,-0.686,0.211,0.814,-0.236,0.544,0.128,0.968,-0.091,2
-0.63,-0.664,-0.104,0.595,-0.156,0.339,0.174,0.979,-0.067,2
-0.378,-0.516,0.099,0.784,-0.21,0.423,0.166,0.97,-0.169,2
-0.641,-0.819,0.761,0.957,-0.236,0.549,0.229,0.955,-0.227,2
-0.629,-0.897,-0.134,1.072,-0.384,0.804,0.304,0.953,-0.113,2
-0.771,-0.94,0.177,0.988,-0.233,0.475,0.287,0.983,-0.1,2
-0.479,-0.808,0.514,0.673,-0.205,0.195,0.307,0.98,-0.12,2
-0.294,-0.647,0.042,0.722,-0.082,0.349,0.366,0.943,-0.125,2
-0.267,-0.558,-0.25,0.734,0.023,0.802,0.471,0.925,-0.164,2
-0.021,-0.498,-0.229,0.983,0.023,0.759,0.197,0.98,-0.14,2
-0.436,-0.867,-0.314,1.062,0.0,0.545,0.234,0.981,-0.008,2
-0.891,-0.261,0.216,0.98,-0.0,0.457,0.299,0.985,0.074,2
-1.119,0.688,0.412,0.716,-0.006,0.416,0.335,0.91,-0.033,2
-0.874,0.651,0.6,0.765,0.028,0.484,0.185,0.972,0.006,2
-1.042,0.518,0.615,0.793,0.049,0.4,0.146,0.992,0.074,2
-1.011,0.653,0.462,1.039,0.295,0.734,0.203,0.981,0.049,2
-1.078,0.595,0.331,0.962,-0.036,0.515,0.178,0.978,0.003,2
-1.03,0.409,0.129,0.987,0.134,0.586,0.159,0.998,0.023,2
-0.889,0.049,-0.024,0.92,0.191,0.569,0.082,0.991,-0.006,2
-0.68,-0.24,0.173,0.797,0.219,0.578,0.086,1.017,-0.009,2
-1.161,-0.484,0.414,0.707,0.124,0.532,0.058,1.007,-0.021,2
-0.775,-0.446,0.08,0.985,-0.065,0.525,-0.011,1.032,0.016,2
-0.703,-0.277,-0.265,1.224,-0.039,0.476,-0.024,0.991,-0.087,2
-1.018,-0.469,0.351,0.88,0.018,0.534,-0.018,1.004,-0.079,2
-0.503,-0.562,0.737,0.638,-0.276,0.533,0.058,0.995,-0.049,2
-1.122,-0.441,-0.457,0.677,-0.534,0.437,-0.07,1.041,0.066,2
-0.592,-0.392,0.409,0.577,-0.412,0.314,0.037,0.967,-0.036,2
-0.86,-0.368,0.74,0.42,-0.266,-0.095,0.086,0.998,-0.038,2
-0.851,-0.473,-0.448,0.973,-0.676,0.67,0.163,0.99,0.003,2
-0.75,-0.28,-0.416,0.782,-0.554,0.895,0.185,0.983,0.078,2
-0.966,-0.178,0.275,0.574,-0.359,0.241,0.218,0.978,-0.045,2
-0.913,-0.129,0.322,0.486,-0.177,0.576,0.192,0.988,-0.137,2
-0.556,0.107,0.522,0.815,-0.567,1.03,0.388,0.971,-0.145,2
-1.23,0.422,0.333,0.813,-0.349,0.663,0.426,0.912,-0.083,2
-1.009,0.347,0.89,0.513,-0.125,0.233,0.251,0.99,-0.06,2
-0.943,0.402,0.72,0.648,-0.196,0.407,0.264,0.977,0.037,2
-0.944,0.308,0.606,0.906,-0.083,0.567,0.342,0.925,0.007,2
-0.953,0.027,0.343,1.188,0.045,0.234,0.19,0.98,-0.006,2
-0.949,-0.094,0.222,1.064,0.042,0.071,0.173,0.963,0.022,2
-1.07,-0.285,0.159,0.982,0.159,0.187,0.212,1.018,0.018,2
-0.99,-0.298,0.038,0.972,0.321,0.36,0.176,0.993,0.029,2
-0.492,-0.549,0.228,0.953,0.421,0.444,0.247,0.973,-0.077,2
-1.046,-0.544,0.297,1.077,0.361,0.575,0.143,1.022,-0.049,2
-0.662,-0.664,0.201,0.75,0.649,0.665,0.124,0.982,-0.003,2
-0.56,-0.548,-0.18,0.64,0.481,0.551,0.136,0.994,-0.048,2
-1.051,-0.763,0.306,0.676,0.472,0.591,0.144,0.986,-0.093,2
-0.67,-0.833,0.193,0.81,0.572,0.634,0.037,0.994,-0.122,2
-0.804,-0.604,0.128,0.797,0.432,0.538,0.105,0.964,-0.045,2
-0.182,-0.514,0.233,0.803,0.364,0.359,0.021,1.011,-0.043,2
-0.35,-0.811,1.021,0.834,0.395,0.453,-0.037,1.004,-0.064,2
-0.44,-0.754,0.566,1.034,0.318,0.549,0.038,0.992,-0.112,2
-0.127,-0.76,-0.128,1.077,0.269,0.388,0.035,0.989,-0.182,2
-0.431,-0.459,0.594,0.957,0.167,0.45,0.065,0.994,-0.125,2
-0.067,-0.612,0.747,0.76,-0.156,0.579,0.078,0.98,-0.098,2
-0.49,-0.958,-0.293,0.875,-0.541,0.356,0.146,0.988,-0.093,2
-0.793,-0.629,-0.137,0.753,-0.306,0.185,0.206,0.979,-0.113,2
-0.584,-0.887,-0.217,0.68,-0.123,-0.039,0.279,1.019,-0.221,2
-0.529,-0.522,0.515,0.738,-0.554,0.455,0.359,0.905,-0.19,2
-0.429,-0.705,0.176,1.104,-0.661,0.847,0.234,0.949,-0.168,2
-0.505,-0.387,0.328,0.799,-0.443,0.38,0.242,0.989,-0.075,2
-0.829,-0.508,0.566,0.532,-0.332,0.084,0.266,0.98,-0.015,2
-1.005,-0.464,0.467,0.482,-0.453,0.172,0.219,0.968,-0.04,2
-0.899,0.372,0.872,0.929,-0.77,0.651,0.172,0.964,-0.053,2
0.311,0.296,0.983,1.037,-0.72,0.601,0.188,0.983,-0.016,2
-0.4,0.69,1.363,0.612,-0.472,0.167,0.193,0.975,-0.061,2
-0.48,0.405,1.0,0.449,-0.323,0.035,-0.012,0.97,-0.096,2
-1.009,0.255,0.466,0.682,-0.955,0.252,-0.005,0.991,-0.021,2
-0.546,-0.038,0.214,1.086,-0.804,0.484,0.029,0.99,-0.009,2
-1.011,-0.168,0.345,0.664,-0.602,0.021,0.083,0.978,-0.021,2
-0.938,-0.188,0.146,0.445,-0.319,-0.051,-0.045,1.014,-0.005,2
-0.746,-0.412,-0.528,0.573,-0.416,0.292,0.01,0.998,-0.034,2
-0.844,-0.478,0.019,1.132,-0.408,0.598,-0.036,0.998,-0.073,2
-0.767,-0.575,0.169,0.875,-0.141,0.325,-0.044,0.998,-0.071,2
-0.985,-0.378,-0.311,0.875,-0.012,0.043,0.035,0.993,-0.07,2
-0.694,-0.339,0.48,1.173,0.118,-0.118,0.008,0.981,-0.216,2
-0.869,-0.383,0.14,1.273,0.371,0.223,0.076,0.99,-0.099,2
-0.821,-0.411,-0.057,1.162,0.407,0.474,0.172,0.977,-0.146,2
-0.845,-0.396,-0.039,1.029,0.263,0.632,0.173,0.979,-0.109,2
-1.153,-0.451,0.282,0.884,0.145,0.557,0.19,0.977,-0.083,2
-0.873,-0.238,0.154,0.751,0.321,0.786,0.267,0.976,-0.166,2
-0.632,-0.157,0.09,0.616,0.309,0.717,0.337,0.951,-0.228,2
-0.712,-0.075,0.215,0.601,0.26,0.707,0.296,0.936,-0.165,2
-0.933,0.358,0.664,0.791,0.248,0.647,0.401,0.944,-0.121,2
-0.802,0.45,0.978,0.818,0.266,0.683,0.296,0.96,-0.12,2
-0.736,0.474,0.762,0.739,0.183,0.72,0.306,0.952,-0.098,2
-1.043,0.533,0.595,0.94,0.024,0.76,0.207,0.961,-0.066,2
-1.063,0.164,0.346,1.03,0.045,0.666,0.272,0.99,-0.065,2
-0.862,-0.041,0.238,0.8,-0.014,0.63,0.244,0.999,-0.046,2
-1.07,-0.163,-0.286,0.578,-0.199,0.731,0.177,0.931,-0.098,2
-0.778,-0.394,-0.144,0.329,-0.363,0.775,0.126,1.006,0.018,2
-0.592,-0.52,-0.332,0.378,-0.425,0.635,0.219,0.985,-0.001,2
-0.893,-0.281,-0.126,0.419,-0.312,0.404,0.043,0.998,-0.063,2
-0.762,-0.502,-0.155,0.269,-0.522,0.574,0.041,1.01,-0.05,2
-0.981,-0.518,0.138,0.22,-0.613,1.058,-0.012,0.985,-0.073,2
-0.97,-0.451,-0.366,0.316,-0.667,1.063,0.002,0.996,-0.064,2
-0.803,-0.483,-0.455,0.429,-0.674,0.738,0.077,0.985,-0.095,2
-0.69,-0.401,-0.203,0.19,-0.561,0.448,-0.029,1.0,-0.088,2
-1.133,-0.543,0.192,0.366,-0.339,0.315,-0.058,1.002,-0.112,2
-0.953,-0.464,-0.353,0.333,-0.595,0.553,0.029,1.024,-0.033,2
-0.393,-0.348,-0.164,1.076,-0.93,1.343,0.107,0.971,-0.14,2
-1.023,-0.388,0.423,0.614,-0.46,0.6,0.08,0.98,-0.149,2
-0.784,-0.396,-0.016,0.383,-0.287,0.123,0.149,0.998,-0.062,2
-0.679,-0.428,-0.643,0.326,-0.286,0.271,0.195,0.999,-0.123,2
-0.577,-0.417,-0.684,0.972,-0.096,0.455,0.189,0.973,-0.208,2
-0.739,-0.242,-0.664,1.252,-0.104,0.347,0.406,0.944,-0.105,2
-0.939,-0.042,-0.645,1.309,-0.03,0.436,0.335,0.955,-0.081,2
-1.038,-0.023,-0.33,1.037,0.08,0.544,0.261,0.971,-0.123,2
-1.06,-0.015,-0.293,0.872,0.195,0.56,0.386,0.935,-0.042,2
-0.943,0.062,-0.17,0.252,0.089,0.441,0.277,0.952,-0.041,2
-0.811,0.145,0.102,1.005,0.416,0.95,0.274,0.985,-0.035,2
-0.995,0.309,0.163,0.621,0.156,0.664,0.124,0.986,0.018,2
-1.03,0.229,0.577,0.835,0.089,0.558,0.221,0.964,-0.01,2
-1.143,0.147,0.515,1.198,0.033,0.559,0.185,0.987,0.048,2
-1.301,-0.02,0.297,0.97,-0.184,1.056,0.171,0.975,-0.013,2
-1.226,-0.215,0.2,1.242,0.028,0.849,0.169,0.999,-0.042,2
-0.833,-0.33,0.048,0.953,-0.204,0.779,0.101,0.998,-0.105,2
-0.416,-0.232,0.346,0.596,-0.235,0.745,0.098,1.004,-0.054,2
-0.983,-0.305,0.819,-0.02,-0.417,0.284,0.043,0.995,-0.088,2
-0.78,-0.39,0.508,0.169,-0.338,0.211,0.027,0.995,-0.091,2
-0.561,-0.57,-0.288,0.068,-0.629,0.528,0.057,1.003,-0.093,2
-0.953,-0.579,0.5,0.409,-1.058,1.121,-0.046,1.003,-0.16,2
-0.627,-0.551,0.565,0.318,-0.891,0.553,-0.061,0.983,-0.152,2
-0.563,-0.611,0.151,0.136,-0.693,0.321,0.007,0.988,-0.08,2
-1.141,-0.591,0.648,0.113,-0.76,0.28,0.011,0.998,-0.091,2
-0.661,-0.677,-0.025,0.225,-0.873,0.787,0.017,0.992,-0.104,2
-0.327,-0.631,-0.29,0.171,-0.788,0.847,0.092,0.963,-0.199,2
-0.299,-0.395,0.169,0.086,-0.528,0.383,0.164,0.964,-0.217,2
-0.704,-0.074,0.459,0.132,-0.587,0.275,0.199,1.007,-0.031,2
-1.852,0.183,0.624,0.028,-0.843,1.106,0.185,1.037,0.177,2
-1.094,-0.213,0.774,0.144,-0.602,0.723,0.32,1.098,-0.14,2
-0.935,0.026,0.374,0.204,-0.432,0.387,0.178,0.94,-0.32,2
-0.872,0.013,0.288,0.497,-0.482,0.602,0.499,0.967,-0.081,2
-0.868,-0.167,0.237,0.643,-0.592,0.466,0.509,0.901,-0.047,2
-1.105,-0.17,0.082,0.663,-0.441,-0.013,0.237,0.978,-0.106,2
-1.162,-0.37,-0.143,1.165,-0.336,-0.134,0.282,0.972,-0.021,2
-1.006,-0.548,-0.242,1.356,-0.057,0.111,0.394,0.923,0.036,2
-0.672,-0.51,-0.307,1.351,-0.022,0.365,0.342,0.953,-0.014,2
-0.398,-0.604,-0.494,1.031,-0.076,0.57,0.217,0.971,0.024,2
-0.161,-0.794,-0.4,0.94,0.219,0.619,0.297,0.96,0.084,2
-0.797,-1.065,0.05,0.649,0.455,0.621,0.212,0.99,0.083,2
-0.409,-0.879,-0.255,0.537,0.423,0.604,0.217,0.954,0.04,2
-0.313,-0.665,-0.384,0.668,0.368,0.615,0.25,0.969,-0.002,2
-0.536,-0.716,0.187,0.654,0.333,0.632,0.101,1.005,-0.059,2
-0.517,-0.905,0.532,0.671,0.381,0.723,0.079,0.99,-0.057,2
-0.697,-0.786,0.057,0.65,0.487,0.695,0.07,1.003,-0.036,2
-0.261,-0.76,-0.287,0.596,0.481,0.788,-0.006,1.008,-0.11,2
-0.322,-0.659,0.087,0.999,0.122,0.898,0.02,0.997,-0.112,2
-0.9,-0.771,0.86,1.263,-0.217,0.676,-0.018,1.01,-0.065,2
-0.845,-0.822,0.445,1.111,-0.31,0.208,0.0,1.0,-0.095,2
-0.588,-0.67,0.083,0.819,-0.211,0.391,0.014,0.983,-0.138,2
0.063,-0.671,-0.148,0.352,-0.223,0.479,0.02,0.994,-0.084,2
-0.752,-0.662,0.559,0.321,-0.298,0.423,0.02,0.983,-0.132,2
-0.675,-0.984,0.587,0.467,-0.164,0.159,0.079,0.978,-0.145,2
-0.481,-0.902,0.104,0.61,-0.784,0.688,0.111,0.988,-0.142,2
0.033,-0.814,-0.292,1.008,-0.833,1.079,0.2,0.946,-0.037,2
-0.502,-0.66,0.506,0.66,-0.445,0.549,0.19,0.941,-0.309,2
-0.309,-0.932,0.377,0.45,-0.247,0.15,0.262,0.963,-0.137,2
-0.27,-0.944,0.041,0.414,-0.478,0.459,0.301,0.981,-0.05,2
-0.246,-0.886,-0.078,0.951,-0.784,1.05,0.266,0.96,-0.077,2
-0.278,-0.828,-0.333,0.714,-0.5,0.433,0.314,0.954,-0.09,2
-0.448,-0.662,-0.311,0.46,-0.261,0.228,0.284,0.949,-0.062,2
-0.726,-0.579,0.04,0.494,-0.269,0.438,0.339,0.971,-0.015,2
-0.942,-0.604,0.487,0.607,-0.243,0.479,0.292,0.938,-0.012,2
-0.961,-0.519,0.323,1.47,-0.245,0.285,0.148,0.976,-0.002,2
-1.099,-0.366,0.327,1.145,-0.228,0.431,0.261,0.985,-0.013,2
-0.813,-0.302,0.404,0.552,-0.191,0.66,0.245,0.987,-0.025,2
-0.528,-0.176,0.336,1.137,-0.04,0.61,0.193,0.972,-0.045,2
-1.442,0.56,0.629,0.745,0.029,0.814,0.246,0.984,-0.013,2
-0.824,0.203,1.015,0.829,-0.014,0.764,0.152,0.976,-0.037,2
-1.046,0.164,0.528,0.777,0.134,0.827,0.0,0.984,-0.073,2
-1.002,0.065,0.335,0.879,-0.009,0.736,0.118,0.98,-0.088,2
-1.092,-0.016,0.234,1.002,-0.122,0.626,0.201,0.987,-0.046,2
-1.22,-0.2,0.079,0.975,-0.228,0.609,0.206,0.973,-0.042,2
-0.849,-0.425,-0.037,0.594,-0.269,0.467,0.13,0.986,-0.103,2
-0.581,-0.581,-0.061,0.529,-0.565,0.448,0.247,0.986,-0.094,2
-0.419,-0.708,0.044,0.499,-0.6,0.139,0.297,0.964,-0.053,2
-0.238,-0.906,-0.134,0.499,-0.442,0.657,0.3,0.974,-0.116,2
-0.311,-0.762,-0.258,0.432,-0.731,1.073,0.241,0.928,-0.086,2
-0.297,-0.849,0.553,0.33,-0.695,0.505,0.288,0.993,-0.073,2
-0.83,-0.876,0.441,0.667,-0.394,0.188,0.336,0.986,-0.088,2
-0.523,-0.87,-0.364,0.496,-0.433,0.691,0.335,0.896,-0.063,2
-0.06,-0.767,0.324,0.436,-0.667,0.917,0.266,0.979,0.016,2
-0.695,-0.743,0.93,0.549,-0.791,0.525,0.204,0.97,0.037,2
-0.184,-0.891,-0.205,0.537,-0.705,0.326,0.239,0.982,0.022,2
-0.085,-0.816,-0.228,0.437,-0.61,0.304,0.278,0.967,-0.012,2
-0.445,-0.777,0.869,0.493,-0.655,0.504,0.219,0.97,0.016,2
-0.282,-0.994,0.396,0.646,-0.669,0.621,0.359,0.943,0.032,2
-0.447,-0.751,-0.361,0.672,-0.633,0.531,0.291,0.957,0.004,2
-0.102,-0.741,-0.032,0.617,-0.554,0.437,0.219,0.97,0.032,2
-0.49,-1.059,0.801,0.609,-0.497,0.411,0.249,0.953,0.051,2
-0.54,-0.783,0.03,0.672,-0.521,0.489,0.23,0.979,0.018,2
-0.138,-0.678,-0.532,0.828,-0.568,0.493,0.27,0.975,-0.056,2
-0.183,-0.563,-0.605,0.767,-0.628,0.266,0.205,0.974,-0.065,2
-0.983,-0.593,-0.412,0.755,-0.521,0.047,0.198,0.965,-0.04,2
-1.0,-0.56,-0.237,0.54,-0.449,0.292,0.181,0.996,-0.026,2
-1.165,-0.226,0.008,0.831,-0.295,0.398,0.254,1.0,0.021,2
-1.066,-0.316,-0.111,0.833,0.0,0.431,0.146,0.979,-0.106,2
-1.074,-0.176,-0.223,1.11,0.279,0.421,0.14,0.995,-0.063,2
-0.786,-0.106,-0.167,1.134,0.324,0.547,0.093,0.984,-0.093,2
-0.561,0.251,0.229,0.786,0.227,0.618,0.117,0.992,-0.068,2
-0.823,0.328,1.049,0.762,0.347,0.741,0.066,0.99,-0.102,2
-1.123,0.152,0.711,0.76,0.449,0.721,-0.019,0.997,-0.097,2
-0.886,0.245,0.469,0.858,0.542,0.81,0.027,0.99,-0.091,2
-1.434,0.035,-0.12,0.583,0.361,0.724,0.007,1.018,-0.106,2
-0.667,-0.15,0.511,0.569,-0.01,0.415,0.048,0.997,-0.072,2
-0.851,-0.278,0.657,0.628,-0.372,0.088,-0.034,1.0,-0.133,2
-0.92,-0.165,0.287,1.043,-0.551,0.347,-0.091,1.026,-0.07,2
-0.924,-0.029,0.054,1.076,-0.504,0.69,0.088,0.971,-0.135,2
-0.83,-0.186,0.421,0.957,-0.397,0.817,0.096,1.012,-0.021,2
-1.126,-0.386,0.504,0.552,-0.405,0.711,0.042,1.002,-0.064,2
-0.933,-0.256,0.085,0.343,-0.429,0.451,0.122,1.088,0.046,2
-0.85,-0.181,0.081,0.42,-0.407,0.224,0.283,0.862,0.018,2
-0.737,-0.161,0.773,0.396,-0.514,0.489,0.208,0.998,-0.085,2
-1.201,-0.409,0.31,0.427,-0.809,1.066,0.29,0.971,0.044,2
-0.879,-0.397,0.023,0.355,-0.717,0.8,0.253,0.933,0.048,2
-0.754,-0.47,-0.289,0.414,-0.599,0.388,0.286,0.934,-0.0,2
-0.676,-0.344,-0.129,0.546,-0.474,0.417,0.32,0.979,0.041,2
-0.755,-0.143,0.058,0.581,-0.782,0.858,0.282,1.02,0.176,2
-0.65,0.257,0.319,0.66,-0.527,0.743,0.308,0.928,0.022,2
-0.409,0.85,0.706,0.476,-0.415,0.45,0.192,0.928,-0.006,2
-0.668,0.432,1.045,0.31,-0.35,0.498,0.311,0.995,0.095,2
-0.923,0.545,0.6,0.427,-0.288,0.533,0.393,0.968,0.06,2
-0.894,0.401,0.293,1.155,-0.17,0.495,0.203,0.966,0.009,2
-0.918,0.217,0.197,1.095,-0.222,0.269,0.218,0.965,-0.005,2
-1.127,-0.047,0.036,1.27,-0.235,0.44,0.214,0.974,0.004,2
-0.867,-0.262,0.011,0.858,0.021,0.688,0.188,1.01,-0.021,2
-0.662,-0.353,-0.007,0.796,-0.01,0.664,0.176,1.009,-0.04,2
-0.542,-0.354,-0.131,0.795,0.064,0.661,0.12,0.977,-0.087,2
-1.055,-0.083,0.287,0.81,0.002,0.724,0.04,0.997,-0.084,2
-1.32,-0.499,0.283,0.936,-0.141,0.669,0.083,0.971,-0.098,2
-1.025,-0.261,0.035,0.956,-0.332,0.574,-0.095,0.997,-0.113,2
-1.095,-0.089,-0.195,0.99,-0.371,0.494,0.027,1.0,-0.061,2
-0.74,-0.135,-0.095,0.889,-0.441,0.454,-0.001,1.0,-0.074,2
-0.869,-0.275,0.25,0.842,-0.48,0.595,-0.063,1.0,-0.123,2
-0.937,-0.349,0.124,0.065,-0.219,0.584,0.007,1.01,-0.083,2
-1.153,-0.111,-0.274,-0.492,-0.296,0.664,-0.027,0.995,-0.126,2
-0.949,-0.178,0.101,-0.383,-0.518,0.659,0.025,1.008,-0.106,2
-1.289,-0.412,0.06,-0.448,-0.688,0.657,-0.015,0.99,-0.135,2
-0.885,-0.156,-0.29,-0.143,-0.656,0.659,0.04,0.995,-0.129,2
-0.465,-0.188,-0.65,-0.151,-0.565,0.46,0.033,1.005,-0.118,2
-0.976,-0.242,0.028,-0.197,-0.661,0.495,-0.008,0.993,-0.139,2
-1.17,-0.368,-0.112,0.537,-0.458,0.774,-0.042,0.993,-0.073,2
-0.933,-0.257,-0.354,0.477,-0.828,1.16,0.01,0.993,-0.042,2
-0.694,-0.277,-0.538,0.261,-0.656,0.854,0.024,0.989,-0.086,2
-0.792,-0.305,-0.219,0.511,-0.432,0.382,-0.004,1.019,-0.002,2
-0.849,-0.429,-0.21,0.528,-0.435,0.488,-0.017,0.991,-0.04,2
-0.929,-0.368,-0.533,0.597,-0.841,1.008,-0.021,1.007,-0.019,2
-0.883,-0.268,-0.458,0.442,-0.556,0.897,0.011,0.997,-0.029,2
-0.809,-0.121,-0.401,0.418,-0.408,0.622,0.005,1.004,-0.005,2
-1.056,0.121,-0.399,0.388,-0.363,0.566,-0.02,1.003,-0.045,2
-1.158,0.314,-0.214,0.479,-0.65,0.811,0.009,1.004,-0.023,2
-1.0,0.357,0.038,0.352,-0.583,0.833,-0.054,1.005,-0.056,2
-0.714,0.44,0.326,0.181,-0.202,0.298,0.062,0.988,-0.05,2
-0.868,0.515,0.504,0.341,-0.328,0.736,-0.012,1.009,-0.045,2
-1.102,0.347,0.655,-0.558,-0.074,0.993,-0.065,1.006,-0.031,2
-0.923,0.3,0.433,0.089,-0.023,0.953,-0.006,1.001,-0.018,2
-1.157,0.197,0.231,0.092,-0.133,0.734,0.033,1.006,-0.064,2
-0.581,0.083,0.368,0.44,-0.127,0.703,0.022,0.996,-0.101,2
-1.011,-0.167,0.542,0.486,-0.101,0.946,0.037,0.996,-0.075,2
-0.99,-0.077,0.094,0.717,0.175,0.97,0.037,0.987,-0.091,2
-0.667,-0.276,-0.407,0.814,0.074,0.984,0.079,0.993,-0.084,2
-0.484,-0.57,-0.368,0.561,0.128,0.958,0.086,0.978,-0.114,2
-1.267,-0.725,0.124,0.599,0.101,0.898,0.106,1.003,-0.078,2
-0.892,-0.453,-0.169,0.505,0.14,0.902,0.159,1.019,-0.008,2
-0.613,-0.536,0.169,0.392,0.248,0.894,0.306,0.975,-0.206,2
-0.946,-0.625,0.393,0.485,0.324,0.899,0.252,0.993,-0.199,2
-0.831,-0.609,-0.219,0.308,0.348,0.82,0.256,0.983,-0.092,2
-0.169,-0.603,0.313,0.475,0.24,0.802,0.41,0.925,-0.063,2
-1.079,-0.606,0.431,0.472,0.312,0.925,0.363,0.953,-0.1,2
-0.738,-0.76,0.289,0.49,0.234,0.891,0.213,0.984,-0.064,2
-0.813,-0.532,0.179,0.526,0.249,0.917,0.233,0.968,0.041,2
-0.644,-0.563,0.075,0.513,0.141,0.93,0.266,0.971,0.03,2
-1.064,-0.84,0.229,0.572,0.035,0.941,0.202,0.965,-0.025,2
-0.64,-0.738,0.164,0.621,0.052,0.983,0.163,0.997,-0.023,2
-0.423,-0.726,0.031,0.719,-0.133,0.935,0.132,0.979,-0.047,2
-0.317,-0.687,-0.087,0.694,-0.217,0.864,0.052,0.989,0.008,2
-0.536,-0.906,0.156,0.519,-0.311,0.726,0.007,1.0,0.02,2
-0.482,-0.787,-0.037,0.437,-0.601,0.705,0.018,1.026,0.11,2
-0.375,-0.577,-0.227,0.355,-0.547,0.717,-0.007,0.984,-0.168,2
-0.318,-0.37,-0.264,0.036,-0.318,0.452,-0.072,1.0,-0.09,2
-1.073,-0.346,-0.033,0.391,-0.367,0.595,-0.06,1.018,-0.041,2
-1.738,-0.208,0.086,0.55,-0.708,1.254,0.014,0.987,-0.101,2
-1.225,-0.356,-0.02,0.307,-0.727,0.951,0.013,1.05,0.053,2
-0.844,-0.095,-0.142,0.513,-0.492,0.631,-0.028,1.004,-0.038,2
-0.495,-0.213,0.054,0.107,-0.362,0.242,0.021,0.995,-0.093,2
-0.448,-0.051,0.425,0.367,-0.397,1.035,0.091,0.986,-0.071,2
-1.024,0.697,0.796,0.284,-0.529,1.39,0.05,0.999,-0.133,2
-0.631,0.689,1.199,0.451,-0.297,0.676,0.167,0.981,-0.167,2
-0.861,0.398,0.699,0.235,-0.149,0.397,0.211,0.976,-0.134,2
-0.755,0.46,0.529,0.248,-0.149,0.563,0.188,0.983,-0.115,2
-0.917,0.281,0.419,0.215,-0.167,0.467,0.224,0.969,-0.137,2
-1.001,-0.028,0.229,0.823,0.138,0.921,0.198,0.983,-0.087,2
-0.944,-0.272,-0.087,1.353,0.764,0.23,0.236,0.959,-0.095,2
-0.691,-0.335,-0.442,1.433,0.211,0.033,0.252,0.967,-0.058,2
-0.656,-0.504,-0.287,1.011,0.182,0.35,0.238,0.974,-0.079,2
-0.895,-0.443,-0.002,1.136,0.212,0.398,0.221,0.959,-0.036,2
-0.843,-0.384,0.219,0.72,0.291,0.558,0.178,0.992,-0.016,2
-1.592,-0.554,-0.205,0.727,0.274,0.653,0.233,0.974,-0.045,2
-0.753,-0.349,-0.334,0.785,0.326,0.644,0.186,0.977,-0.042,2
-0.613,-0.417,-0.642,0.779,0.258,0.703,0.231,0.991,0.001,2
-0.612,-0.285,-0.166,0.767,0.147,0.612,0.243,0.977,-0.031,2
-1.225,-0.546,0.315,0.849,0.077,0.533,0.197,0.944,-0.047,2
-0.964,-0.604,0.09,0.929,0.029,0.538,0.148,0.992,-0.026,2
-0.681,-0.513,-0.463,0.984,-0.053,0.584,0.204,0.979,-0.043,2
-0.624,-0.412,-0.101,1.197,-0.165,0.455,0.19,0.991,-0.036,2
-1.523,-0.735,0.339,0.849,-0.21,0.486,0.215,0.982,-0.096,2
-0.941,-0.591,-0.092,0.717,-0.387,0.703,0.327,0.958,-0.11,2
-0.475,-0.334,-0.641,0.595,-0.452,0.728,0.262,0.983,-0.115,2
-1.036,-0.636,0.333,0.393,-0.398,0.677,0.252,1.036,-0.017,2
-0.998,-0.668,0.587,0.159,-0.324,0.539,0.229,0.976,-0.026,2
-0.619,-0.705,-0.144,0.334,-0.351,0.384,0.175,0.979,-0.005,2
-0.237,-0.662,-0.812,0.226,-0.643,0.738,0.179,0.974,-0.024,2
-1.151,-0.509,0.267,0.173,-0.516,1.275,0.143,0.968,0.026,2
-0.731,-0.775,0.745,0.229,-0.517,0.84,0.239,1.001,0.025,2
-0.562,-0.627,-0.273,0.157,-0.494,0.546,0.193,0.975,-0.068,2
-0.241,-0.73,-0.612,0.138,-0.505,0.505,0.157,0.979,-0.027,2
-0.81,-0.552,-0.246,0.424,-0.496,0.785,0.101,0.992,0.029,2
-1.118,-0.676,0.114,0.112,-0.819,1.238,0.165,0.995,-0.044,2
-0.519,-0.255,0.459,0.136,-0.543,0.875,0.05,0.993,-0.068,2
-1.263,0.467,0.251,0.11,-0.322,0.458,0.052,0.999,-0.041,2
-1.036,0.503,0.788,0.352,-0.303,0.533,0.038,1.005,-0.033,2
-0.686,0.113,0.907,0.297,-0.301,1.045,0.033,0.987,-0.058,2
-0.617,0.318,0.809,0.191,-0.184,1.026,-0.041,1.016,-0.018,2
-0.97,0.276,0.707,0.933,-0.144,0.586,-0.003,1.002,-0.033,2
-0.815,0.08,0.352,0.655,-0.15,0.798,0.023,0.983,-0.141,2
-0.904,-0.183,0.223,0.914,-0.146,0.876,0.014,1.004,-0.102,2
-0.694,-0.424,0.575,0.667,-0.178,0.873,0.038,0.993,-0.072,2
-1.037,-0.372,0.252,0.657,-0.037,0.837,0.01,0.99,-0.123,2
-0.904,-0.454,0.014,0.501,0.031,0.832,-0.023,1.002,-0.139,2
-0.98,-0.53,-0.401,0.509,-0.017,0.817,0.108,0.997,-0.137,2
-0.168,-0.545,0.626,0.467,-0.012,0.88,0.123,0.989,-0.097,2
-1.117,-0.497,0.896,0.424,0.039,0.913,0.189,0.973,-0.18,2
-0.798,-0.561,0.016,0.375,0.08,0.951,0.223,0.978,-0.172,2
-1.023,-0.406,-0.248,0.407,0.084,0.911,0.216,0.967,-0.103,2
-0.644,-0.553,0.49,0.196,0.037,0.79,0.315,0.979,-0.057,2
-1.01,-0.785,0.625,0.737,0.313,1.078,0.331,0.959,-0.052,2
-0.723,-0.749,-0.067,0.526,0.042,0.92,0.314,0.957,-0.058,2
-0.506,-0.762,0.001,0.827,-0.035,0.855,0.226,0.965,-0.023,2
-1.23,-0.434,0.313,0.806,-0.033,0.818,0.351,0.952,0.006,2
-0.352,-0.795,0.361,0.654,-0.075,0.809,0.335,0.937,0.022,2
-0.62,-0.893,-0.075,0.571,-0.095,1.008,0.205,1.0,0.055,2
-0.391,-0.747,0.28,0.439,-0.238,0.896,0.224,0.951,0.094,2
-0.417,-0.781,0.105,0.345,-0.312,0.603,0.278,0.956,0.063,2
-0.208,-0.56,-0.08,0.333,-0.295,0.436,0.315,0.933,0.043,2
-0.356,-0.55,0.08,0.235,-0.323,0.143,0.229,0.963,0.045,2
-0.816,-0.295,0.238,0.658,-0.491,1.186,0.261,0.98,0.04,2
-1.145,-0.226,0.643,0.686,-0.622,1.093,0.246,0.975,0.014,2
-1.047,-0.092,0.563,0.667,-0.554,0.611,0.174,0.974,0.0,2
-0.43,0.113,0.71,0.592,-0.528,0.233,0.21,0.971,0.034,2
-0.717,0.585,1.077,0.5,-0.377,-0.063,0.262,0.98,0.041,2
-1.061,0.167,0.555,0.589,-0.202,0.122,0.229,0.989,0.03,2
-0.639,0.311,0.684,1.13,-0.048,0.378,0.294,1.002,-0.016,2
-1.041,0.128,0.566,1.347,0.024,0.751,0.325,0.922,-0.182,2
-1.114,0.051,0.149,1.228,0.085,0.602,0.438,0.89,-0.126,2
-0.454,-0.318,0.076,0.901,0.207,0.459,0.38,0.931,-0.005,2
-0.509,-0.347,0.332,0.682,0.171,0.521,0.134,0.966,0.05,2
-1.384,-0.25,-0.083,0.264,0.136,0.57,0.173,1.013,0.164,2
-0.658,-0.475,-0.176,0.64,0.402,1.067,0.316,0.958,0.063,2
-1.017,-0.388,0.399,0.225,0.386,1.063,0.135,0.987,-0.014,2
-0.941,-0.38,-0.0,0.564,0.178,1.029,0.226,0.974,-0.023,2
-0.853,-0.312,-0.343,0.453,0.253,1.031,0.225,0.96,0.005,2
-1.118,-0.568,0.258,0.511,0.216,0.917,0.047,1.06,-0.039,2
-0.787,-0.562,0.283,0.411,0.144,0.874,0.136,1.035,0.083,2
-0.698,-0.518,-0.351,0.562,0.045,0.949,0.06,0.982,-0.093,2
-0.402,-0.566,-0.063,0.712,-0.046,0.805,0.033,1.015,-0.015,2
-1.385,-0.609,0.416,0.667,-0.083,0.628,-0.01,0.995,-0.085,2
-0.854,-0.567,0.058,0.583,-0.088,0.612,0.005,0.998,-0.062,2
-0.645,-0.37,-0.117,0.418,-0.065,0.681,-0.022,0.999,-0.051,2
-0.752,-0.548,-0.013,0.938,-0.169,0.817,-0.001,0.995,-0.085,2
-0.794,-0.678,0.241,0.732,-0.276,0.694,0.023,0.995,-0.09,2
-0.745,-0.691,-0.011,0.811,-0.184,0.45,-0.014,0.997,-0.081,2
-0.684,-0.601,0.079,0.775,-0.065,0.414,-0.033,0.998,-0.077,2
-0.692,-0.619,-0.178,0.191,0.011,0.341,-0.017,0.992,-0.102,2
-0.709,-0.711,-0.485,0.665,0.683,0.99,-0.005,0.995,-0.122,2
-0.786,-0.505,-0.05,0.165,0.848,1.224,0.029,0.984,-0.153,2
-0.909,-0.373,0.103,0.693,0.475,0.719,0.063,0.988,-0.155,2
-0.904,0.029,0.412,0.447,0.446,0.739,0.068,0.986,-0.174,2
-0.764,0.379,0.731,0.43,0.417,0.696,0.076,0.984,-0.198,2
-0.893,0.391,0.907,0.603,0.195,0.731,0.074,0.987,-0.19,2
-0.971,0.11,0.66,0.732,0.317,0.713,0.073,0.991,-0.187,2
-0.899,0.245,0.577,0.788,0.255,0.696,0.078,0.989,-0.176,2
-1.075,0.122,0.459,0.825,0.375,0.691,0.11,0.981,-0.135,2
-0.877,-0.145,0.234,0.876,0.357,0.639,0.079,0.985,-0.151,2
-0.486,-0.305,0.042,0.86,0.344,0.718,0.078,0.986,-0.132,2
-0.688,-0.245,0.006,0.812,0.227,0.692,0.052,0.989,-0.11,2
-1.297,-0.302,0.32,0.828,0.109,0.546,0.097,0.99,-0.151,2
-1.393,-0.392,0.06,0.498,0.068,0.371,0.08,0.988,-0.176,2
-0.997,-0.375,-0.07,0.462,0.063,0.313,0.059,0.986,-0.148,2
-0.736,-0.338,-0.138,0.957,-0.051,0.62,0.049,0.991,-0.133,2
-0.755,-0.5,-0.224,1.136,-0.02,1.144,0.025,0.996,-0.15,2
-0.942,-0.56,0.019,0.723,0.102,0.7,0.047,0.984,-0.147,2
-0.935,-0.529,-0.004,0.896,0.124,0.393,-0.032,0.998,-0.122,2
-0.912,-0.598,-0.193,0.814,0.055,0.046,-0.008,0.995,-0.133,2
-1.145,-0.47,-0.32,0.767,0.047,0.247,0.034,0.99,-0.141,2
-0.867,-0.417,0.141,1.282,-0.06,0.824,0.006,0.99,-0.149,2
-0.854,-0.515,0.463,1.038,0.155,0.627,0.018,0.997,-0.131,2
-0.747,-0.504,0.039,0.782,0.186,0.3,0.026,0.985,-0.183,2
-0.576,-0.506,0.009,0.887,0.09,0.158,0.049,0.983,-0.156,2
-0.718,-0.657,0.047,0.822,0.037,0.268,0.086,0.989,-0.137,2
-0.942,-0.629,0.126,0.864,0.069,0.326,0.118,0.974,-0.193,2
-0.688,-0.704,-0.014,0.931,-0.091,0.281,0.121,0.967,-0.225,2
-0.88,-0.657,0.381,1.157,0.05,0.612,0.162,0.966,-0.212,2
-0.615,-0.544,0.03,1.006,0.018,0.637,0.232,0.949,-0.255,2
-0.435,-0.875,0.111,0.916,0.08,0.695,0.194,0.951,-0.269,2
-0.652,-0.508,0.772,0.927,0.074,0.668,0.208,0.964,-0.215,2
-0.827,-0.555,0.259,0.916,-0.036,0.602,0.212,0.969,-0.191,2
-0.655,-0.71,-0.178,0.959,-0.125,0.489,0.219,0.967,-0.207,2
-0.386,-0.93,-0.492,0.885,-0.135,0.403,0.172,0.955,-0.214,2
-0.582,-0.857,-0.294,0.724,-0.087,0.292,0.17,0.982,-0.094,2
-0.527,-0.622,-0.206,0.577,-0.106,0.128,0.192,0.966,-0.162,2
-1.133,-0.297,0.064,0.702,-0.304,0.889,0.197,0.96,-0.158,2
-0.925,-0.416,0.346,0.814,-0.446,1.263,0.127,1.008,-0.082,2
-0.802,-0.188,0.184,0.681,-0.364,0.536,0.108,0.988,-0.168,2
-0.606,-0.192,0.35,0.716,-0.233,0.209,0.145,0.975,-0.125,2
-0.805,0.211,0.424,0.531,-0.212,0.211,0.094,0.993,-0.118,2
-1.41,0.583,0.165,1.046,-0.766,0.607,0.081,1.006,-0.095,2
-1.375,0.145,0.206,0.771,-0.727,0.563,0.071,0.982,-0.13,2
-1.244,0.021,0.185,0.685,-0.659,0.417,0.038,0.988,-0.135,2
-0.896,-0.161,0.007,0.723,-0.089,0.403,0.021,0.992,-0.129,2
-0.58,-0.277,0.038,0.633,0.114,0.293,0.092,0.983,-0.153,2
-0.492,-0.524,-0.012,0.694,-0.343,0.701,0.076,0.985,-0.186,2
-0.521,-0.552,0.155,1.198,-0.433,1.099,0.059,0.976,-0.088,2
-0.962,-0.876,0.281,0.889,-0.324,0.531,0.149,0.97,-0.127,2
-0.829,-0.825,0.233,0.7,-0.157,0.21,0.22,0.951,-0.25,2
-0.621,-0.479,0.193,0.603,-0.136,0.2,0.267,0.966,-0.193,2
-0.326,-0.707,-0.041,0.851,-0.103,0.305,0.285,0.97,-0.145,2
0.029,-0.651,0.661,0.906,-0.083,0.524,0.31,0.945,-0.136,2
-0.956,-0.8,0.25,0.992,0.099,0.505,0.307,0.96,-0.121,2
-0.612,-0.807,0.364,0.944,0.245,0.357,0.244,0.957,-0.067,2
-0.486,-0.899,0.052,0.807,0.435,0.348,0.283,0.969,-0.056,2
-0.627,-0.668,-0.121,0.845,0.706,0.421,0.298,0.96,-0.039,2
-0.271,-0.932,-0.063,1.071,0.635,0.261,0.287,0.958,-0.006,2
-0.531,-0.837,0.508,1.067,0.426,0.397,0.276,0.955,0.044,2
-0.574,-0.805,0.114,0.996,0.378,0.396,0.233,0.963,0.039,2
-0.388,-0.911,0.139,0.876,0.375,0.448,0.344,0.947,0.027,2
-0.503,-0.856,-0.078,0.979,0.492,0.568,0.009,0.984,-0.084,2
-0.712,-0.588,-0.598,0.907,0.604,0.702,0.158,1.029,-0.002,2
-0.305,-0.499,-0.247,0.678,0.35,0.817,0.194,0.99,-0.084,2
-0.626,-0.658,0.419,0.69,0.078,0.834,0.109,0.994,-0.117,2
-0.633,-0.744,0.377,0.863,-0.004,0.722,0.196,1.005,-0.08,2
-0.408,-0.585,-0.7,0.43,-0.031,0.609,0.216,0.934,-0.076,2
-0.85,-0.283,-0.916,0.479,-0.129,0.448,0.129,0.958,-0.178,2
-0.904,-0.133,-0.398,0.639,-0.129,0.321,0.247,0.96,-0.114,2
-1.427,0.18,0.293,0.662,-0.474,0.625,0.225,0.966,-0.158,2
-1.194,-0.117,0.984,0.78,-0.661,1.296,0.298,0.958,-0.134,2
-0.96,0.119,1.244,0.54,-0.482,0.938,0.251,0.973,-0.168,2
-1.374,-0.113,0.989,0.492,-0.479,0.432,0.309,0.965,-0.053,2
-1.059,-0.39,0.537,0.517,-0.209,0.171,0.214,0.975,-0.083,2
-0.59,-0.726,0.363,0.58,-0.417,0.214,0.257,0.967,-0.045,2
-0.172,-0.398,0.087,0.857,-0.725,0.783,0.283,0.961,0.003,2
-0.2,-0.465,0.206,0.958,-0.634,0.847,0.199,0.968,-0.006,2
-0.373,-0.52,0.545,0.681,-0.417,0.394,0.255,0.974,-0.022,2
-0.317,-0.476,0.709,0.496,-0.341,0.158,0.332,0.952,-0.013,2
-0.241,-0.709,0.719,0.631,-0.466,0.264,0.221,0.973,-0.027,2
-0.517,-0.454,0.378,0.83,-0.733,0.681,0.257,0.977,-0.005,2
-0.22,-0.504,0.847,0.999,-0.604,0.727,0.297,0.962,-0.037,2
-0.392,-0.81,0.811,0.72,-0.485,0.468,0.263,0.956,-0.035,2
-1.09,-0.476,0.137,0.534,-0.373,0.248,0.204,0.972,-0.051,2
-0.654,-0.596,0.675,0.569,-0.311,0.254,0.239,0.971,-0.045,2
-0.464,-0.874,0.715,0.654,-0.223,0.418,0.321,0.972,-0.077,2
-1.109,-0.515,-0.044,0.885,-0.112,0.635,0.327,0.961,-0.086,2
-0.517,-0.293,-0.61,0.903,-0.003,0.572,0.297,0.967,-0.053,2
-0.356,-0.246,0.437,0.839,0.149,0.421,0.305,0.98,-0.029,2
-0.537,-0.498,0.176,1.027,0.416,0.498,0.285,0.957,-0.056,2
-1.225,-0.115,0.297,0.933,0.602,0.565,0.178,0.963,-0.063,2
-1.262,0.236,0.558,0.867,0.527,0.567,0.221,0.997,-0.026,2
-1.337,0.261,0.776,0.821,0.526,0.595,0.168,0.972,0.009,2
-1.109,0.196,0.512,1.153,0.495,0.521,0.2,0.983,0.023,2
-0.146,0.617,0.748,0.191,0.612,0.743,0.046,0.978,0.029,3
-0.213,0.636,0.703,0.104,0.609,0.996,-0.05,1.032,0.05,3
-0.166,0.615,0.773,0.168,0.688,0.725,0.248,1.211,0.604,3
-0.094,0.624,0.794,0.221,0.626,0.756,-0.257,1.566,-0.25,3
-0.015,0.551,0.801,0.185,0.554,0.77,0.038,1.248,-0.275,3
-0.259,0.574,0.781,0.156,0.572,0.828,-0.034,0.888,-0.3,3
-0.149,0.626,0.831,0.279,0.617,0.88,0.379,0.613,-0.152,3
-0.243,0.642,0.817,0.145,0.539,0.831,0.148,0.864,0.553,3
-0.125,0.62,0.842,0.208,0.528,0.83,-0.024,0.892,-0.465,3
-0.169,0.62,0.668,0.154,0.495,0.778,-0.369,1.093,-0.138,3
-0.221,0.625,0.97,0.222,0.54,0.826,-0.014,1.03,0.073,3
-0.038,0.645,0.823,0.143,0.585,0.757,-0.136,1.007,0.012,3
-0.129,0.62,0.744,0.113,0.547,0.81,0.066,1.027,-0.08,3
0.01,0.631,0.813,0.252,0.598,0.788,-0.022,1.028,0.009,3
-0.027,0.542,0.825,0.159,0.552,0.884,0.03,0.971,0.038,3
-0.112,0.619,0.86,0.21,0.479,0.935,0.226,1.021,0.052,3
-0.099,0.546,0.883,0.247,0.497,0.827,-0.002,1.199,-0.081,3
-0.082,0.588,0.784,0.217,0.522,0.85,0.102,1.037,-0.331,3
-0.179,0.476,0.758,0.3,0.528,0.797,-0.072,1.061,-0.262,3
-0.224,0.368,0.937,0.292,0.575,0.777,0.184,0.878,-0.135,3
-0.157,0.648,0.87,0.295,0.528,0.773,0.216,0.791,0.048,3
-0.135,0.497,1.003,0.183,0.589,0.693,-0.092,0.858,0.311,3
-0.136,0.427,0.532,0.228,0.568,0.811,0.141,0.822,0.13,3
0.384,0.836,0.881,0.305,0.474,0.785,0.106,1.467,0.415,3
-0.11,0.45,0.937,0.223,0.548,0.703,-0.117,0.947,0.072,3
-0.299,0.574,0.762,0.188,0.682,0.709,-0.171,0.976,-0.152,3
-0.192,0.535,0.915,0.186,0.634,0.734,0.185,0.962,0.083,3
-0.164,0.548,0.737,0.11,0.663,0.641,-0.101,0.964,-0.127,3
-0.214,0.613,0.78,0.161,0.588,0.877,0.007,1.007,-0.106,3
-0.193,0.568,0.876,0.102,0.515,0.846,-0.061,0.979,-0.1,3
-0.194,0.55,0.875,0.32,0.555,0.861,-0.002,1.077,-0.063,3
-0.309,0.429,0.91,0.175,0.677,0.619,0.167,1.058,0.149,3
-0.25,0.473,0.833,0.299,0.61,0.722,0.153,1.141,-0.05,3
-0.287,0.419,0.761,0.303,0.65,0.728,0.057,1.154,-0.354,3
-0.255,0.519,0.826,0.301,0.597,0.773,-0.193,1.051,-0.321,3
-0.246,0.476,0.81,0.292,0.562,0.751,0.461,0.792,-0.025,3
-0.246,0.431,0.86,0.272,0.583,0.815,0.313,0.771,0.101,3
-0.279,0.438,0.851,0.243,0.529,0.834,0.005,0.913,0.305,3
-0.351,0.506,0.949,0.269,0.661,0.727,0.011,0.836,-0.252,3
-0.263,0.597,0.771,0.312,0.641,0.787,0.792,1.105,0.313,3
-0.285,0.5,0.792,0.176,0.636,0.693,-0.137,0.914,-0.24,3
-0.194,0.572,0.843,0.118,0.659,0.703,0.194,1.042,0.215,3
-0.163,0.476,0.895,0.249,0.587,0.767,-0.086,0.978,-0.113,3
-0.308,0.435,0.832,0.133,0.639,0.79,-0.057,0.983,-0.056,3
-0.385,0.456,0.886,0.184,0.581,0.896,-0.038,0.963,-0.12,3
-0.226,0.47,0.851,0.15,0.659,0.781,0.054,0.981,-0.167,3
-0.361,0.442,0.871,0.117,0.737,0.701,-0.093,1.164,-0.071,3
-0.255,0.559,0.726,0.067,0.665,0.641,0.434,0.957,-0.184,3
-0.292,0.606,0.644,0.114,0.659,0.766,0.147,1.069,-0.19,3
-0.239,0.444,1.06,0.124,0.655,0.752,-0.408,1.282,-0.202,3
-0.279,0.495,0.806,0.087,0.692,0.738,0.221,0.894,-0.323,3
-0.253,0.478,0.94,0.146,0.721,0.639,0.403,0.873,-0.035,3
-0.205,0.462,0.888,0.014,0.732,0.784,0.323,0.84,0.051,3
-0.236,0.501,0.78,-0.049,0.711,0.771,0.037,0.835,0.141,3
-0.214,0.493,0.794,0.198,0.606,0.779,0.274,1.27,0.548,3
-0.239,0.531,0.8,0.104,0.674,0.644,-0.259,0.938,-0.395,3
-0.217,0.521,0.776,0.104,0.656,0.785,0.133,1.055,0.073,3
-0.191,0.441,0.885,0.231,0.651,0.707,-0.064,0.976,-0.023,3
-0.238,0.462,0.967,0.222,0.688,0.737,0.069,0.979,-0.076,3
-0.323,0.413,0.852,0.104,0.669,0.67,0.0,0.959,-0.092,3
-0.363,0.455,0.849,0.023,0.729,0.754,0.014,0.978,-0.144,3
-0.296,0.525,0.831,0.137,0.695,0.73,0.05,1.081,-0.227,3
-0.291,0.474,0.84,0.006,0.676,0.724,0.317,1.035,0.022,3
-0.331,0.493,0.809,0.051,0.665,0.808,0.076,1.124,-0.072,3
-0.294,0.372,0.861,0.075,0.753,0.601,-0.351,1.198,-0.387,3
-0.315,0.486,0.801,0.019,0.688,0.709,-0.143,1.034,-0.243,3
-0.361,0.49,0.872,-0.091,0.683,0.691,0.08,1.034,-0.056,3
-0.228,0.533,0.734,0.009,0.637,0.662,0.772,0.744,-0.092,3
-0.232,0.486,0.805,0.077,0.677,0.763,0.169,0.681,-0.115,3
-0.218,0.534,0.832,0.151,0.703,0.742,-0.053,0.986,0.371,3
-0.169,0.52,0.829,0.156,0.545,0.716,0.796,0.881,0.354,3
-0.264,0.452,0.758,0.063,0.756,0.735,-0.034,1.089,-0.03,3
-0.255,0.507,0.896,0.164,0.613,0.745,-0.042,1.008,0.019,3
-0.304,0.509,0.896,0.138,0.65,0.703,-0.04,0.973,-0.14,3
-0.275,0.464,0.871,0.078,0.669,0.793,0.029,0.973,-0.238,3
-0.257,0.493,0.759,0.017,0.705,0.717,0.047,0.952,-0.053,3
-0.361,0.546,0.8,0.241,0.632,0.809,0.032,0.994,-0.093,3
-0.302,0.458,0.755,0.225,0.631,0.698,0.062,1.171,-0.022,3
-0.237,0.521,0.781,0.292,0.636,0.714,0.423,0.958,0.027,3
-0.28,0.451,0.865,0.168,0.661,0.712,-0.355,1.24,-0.277,3
-0.205,0.541,0.838,0.177,0.592,0.717,-0.321,1.107,-0.427,3
-0.28,0.486,0.789,0.195,0.655,0.724,0.125,0.908,-0.319,3
-0.343,0.528,0.721,0.186,0.583,0.838,0.61,0.76,-0.083,3
-0.404,0.53,0.761,0.276,0.722,0.769,0.167,0.951,0.074,3
-0.213,0.616,0.665,0.252,0.665,0.748,0.022,0.879,0.195,3
-0.235,0.565,0.792,0.224,0.666,0.654,0.557,1.174,0.047,3
-0.24,0.496,0.893,0.139,0.652,0.727,-0.159,1.082,-0.127,3
-0.182,0.46,0.88,0.242,0.655,0.688,0.038,1.0,0.079,3
-0.188,0.389,0.967,0.222,0.631,0.805,-0.083,0.967,-0.111,3
-0.272,0.433,0.838,0.248,0.639,0.769,0.073,0.967,-0.129,3
-0.383,0.478,0.783,0.16,0.678,0.769,0.086,0.961,-0.118,3
-0.28,0.503,0.848,0.09,0.749,0.615,0.026,0.972,-0.104,3
-0.19,0.42,0.968,0.015,0.711,0.679,-0.153,1.115,-0.185,3
-0.223,0.385,0.972,-0.023,0.723,0.583,0.407,0.939,0.223,3
-0.18,0.426,0.842,-0.027,0.735,0.697,-0.166,1.259,-0.128,3
-0.188,0.46,0.937,0.017,0.737,0.716,-0.295,1.319,-0.428,3
-0.098,0.501,0.83,-0.025,0.689,0.797,-0.11,0.944,-0.322,3
0.073,0.712,0.717,0.071,0.677,0.731,0.355,0.802,-0.018,3
0.183,0.638,0.814,-0.006,0.698,0.775,0.372,0.811,0.058,3
0.168,0.651,0.647,0.057,0.701,0.704,0.105,0.891,0.328,3
0.158,0.635,0.746,-0.008,0.756,0.76,0.532,1.479,0.42,3
0.255,0.577,0.774,0.056,0.754,0.566,0.084,0.823,-0.106,3
0.21,0.602,0.78,0.04,0.706,0.731,-0.189,1.005,-0.153,3
0.125,0.668,0.906,0.038,0.699,0.764,0.134,0.952,-0.006,3
0.1,0.65,0.775,0.071,0.735,0.722,-0.079,0.969,-0.153,3
-0.027,0.636,0.69,0.034,0.652,0.821,0.027,1.003,0.0,3
0.34,0.427,0.853,0.03,0.692,0.575,-0.035,0.968,-0.082,3
0.274,0.569,0.772,-0.003,0.758,0.658,0.076,1.121,0.039,3
0.072,0.43,0.805,-0.126,0.712,0.639,0.119,1.068,-0.164,3
0.141,0.46,0.89,-0.052,0.752,0.681,0.173,1.065,0.021,3
0.011,0.539,0.866,-0.082,0.77,0.77,-0.106,1.145,-0.328,3
0.015,0.528,0.775,0.06,0.741,0.747,-0.371,1.041,-0.42,3
-0.044,0.589,0.745,0.053,0.658,0.875,0.214,0.894,-0.123,3
0.018,0.549,0.885,0.086,0.707,0.806,0.439,0.82,0.031,3
-0.093,0.566,0.871,0.041,0.693,0.657,-0.018,0.905,0.26,3
-0.104,0.532,0.831,0.185,0.723,0.747,0.029,0.931,0.188,3
-0.195,0.496,0.844,0.051,0.765,0.736,0.348,1.022,0.141,3
-0.315,0.525,0.963,0.07,0.702,0.677,-0.247,1.099,-0.093,3
-0.39,0.464,0.893,0.101,0.707,0.694,-0.024,1.014,0.072,3
-0.064,0.487,0.806,0.074,0.698,0.679,-0.083,0.987,-0.15,3
-0.207,0.529,0.925,0.143,0.703,0.759,0.01,0.992,-0.097,3
-0.054,0.515,0.831,0.003,0.699,0.727,-0.008,0.976,-0.081,3
-0.137,0.499,0.814,0.114,0.669,0.692,0.01,0.965,-0.152,3
-0.057,0.395,0.987,-0.017,0.695,0.744,-0.104,1.076,-0.167,3
-0.062,0.477,1.053,0.0,0.713,0.649,0.23,1.046,0.307,3
-0.09,0.484,0.976,-0.061,0.694,0.726,0.103,1.174,-0.155,3
-0.183,0.52,0.823,-0.082,0.747,0.708,-0.132,1.281,-0.453,3
-0.129,0.548,0.811,-0.006,0.692,0.684,-0.216,0.887,-0.355,3
-0.05,0.509,0.826,-0.012,0.735,0.81,0.509,0.69,0.097,3
-0.052,0.484,0.841,-0.06,0.729,0.696,0.321,0.915,0.138,3
-0.085,0.515,0.88,-0.094,0.795,0.611,-0.175,0.805,0.304,3
-0.03,0.446,0.8,-0.088,0.739,0.653,0.334,1.373,0.271,3
-0.142,0.524,0.912,-0.038,0.717,0.678,0.006,0.907,-0.021,3
-0.192,0.512,0.917,-0.117,0.771,0.809,-0.113,1.007,-0.103,3
-0.161,0.508,0.809,-0.192,0.78,0.685,0.096,0.983,0.069,3
-0.165,0.59,0.836,-0.059,0.671,0.679,-0.114,0.966,-0.136,3
-0.042,0.552,0.726,-0.218,0.74,0.745,-0.006,0.969,-0.089,3
-0.184,0.534,0.901,-0.187,0.749,0.461,-0.082,0.974,-0.094,3
-0.077,0.583,0.761,-0.145,0.705,0.632,0.081,1.025,-0.126,3
-0.077,0.565,0.83,-0.197,0.719,0.579,0.006,1.104,0.142,3
-0.208,0.565,0.76,-0.196,0.706,0.64,0.325,1.123,0.134,3
-0.068,0.541,0.811,-0.167,0.745,0.64,-0.074,1.249,-0.403,3
-0.197,0.566,0.8,-0.115,0.726,0.632,-0.15,1.064,-0.35,3
-0.092,0.543,0.819,0.047,0.787,0.729,0.366,0.635,-0.176,3
-0.108,0.655,0.907,0.046,0.671,0.768,0.332,0.724,0.102,3
-0.125,0.607,0.867,-0.085,0.73,0.519,-0.129,0.906,0.387,3
-0.141,0.367,0.728,-0.079,0.754,0.72,0.264,1.386,0.003,3
-0.268,0.464,0.902,-0.109,0.774,0.697,0.184,0.857,0.033,3
-0.201,0.402,0.921,-0.01,0.698,0.663,-0.096,0.96,-0.041,3
-0.188,0.489,0.914,-0.071,0.714,0.732,0.039,0.979,0.045,3
-0.28,0.416,0.826,0.018,0.679,0.632,-0.073,0.981,-0.141,3
-0.268,0.492,0.885,0.095,0.694,0.824,-0.021,0.988,-0.137,3
-0.188,0.498,0.842,0.015,0.805,0.564,-0.037,0.982,-0.186,3
-0.076,0.487,0.862,0.008,0.733,0.794,-0.128,1.083,-0.252,3
-0.229,0.379,0.866,0.024,0.688,0.707,0.018,1.102,0.168,3
-0.109,0.536,0.968,-0.033,0.707,0.752,0.527,1.067,-0.059,3
-0.195,0.447,0.98,0.107,0.678,0.784,-0.054,1.126,-0.419,3
-0.271,0.596,0.778,0.063,0.649,0.717,-0.118,1.059,-0.285,3
-0.269,0.63,0.741,0.146,0.639,0.758,0.215,0.826,-0.027,3
-0.179,0.589,0.711,0.083,0.693,0.688,0.337,0.804,0.078,3
-0.125,0.533,0.82,0.202,0.71,0.764,-0.236,0.934,0.337,3
-0.221,0.469,0.822,0.096,0.688,0.653,-0.109,0.903,-0.029,3
-0.243,0.477,0.959,0.087,0.733,0.796,0.689,1.033,0.241,3
-0.255,0.538,0.905,0.069,0.632,0.798,-0.16,0.998,-0.172,3
-0.347,0.512,0.734,0.134,0.561,0.692,-0.068,1.026,0.032,3
-0.189,0.565,0.828,0.138,0.531,0.805,-0.024,1.006,-0.025,3
-0.294,0.545,0.87,0.216,0.689,0.671,-0.039,0.992,-0.11,3
-0.19,0.463,0.833,0.085,0.59,0.783,-0.02,0.994,-0.033,3
-0.126,0.491,0.886,0.006,0.725,0.763,-0.009,0.97,-0.088,3
-0.208,0.48,0.936,0.026,0.644,0.849,-0.05,0.987,-0.182,3
-0.275,0.491,0.826,0.13,0.645,0.643,0.107,1.096,-0.13,3
-0.253,0.529,0.772,-0.033,0.614,0.862,0.242,0.862,0.102,3
-0.152,0.532,0.71,0.139,0.641,0.719,0.247,1.15,-0.334,3
-0.173,0.614,0.838,0.167,0.656,0.637,0.006,1.192,-0.391,3
-0.192,0.586,0.768,0.016,0.805,0.675,0.113,0.988,-0.096,3
-0.265,0.522,0.844,0.036,0.71,0.745,0.267,0.7,-0.071,3
-0.083,0.552,0.89,0.041,0.686,0.813,0.234,0.92,0.27,3
-0.157,0.462,0.896,0.114,0.673,0.67,0.303,0.761,0.443,3
-0.309,0.514,0.918,0.075,0.657,0.792,0.74,1.771,0.091,3
-0.238,0.538,0.836,0.176,0.641,0.802,-0.274,1.114,0.063,3
-0.215,0.568,0.78,0.085,0.541,0.661,-0.448,1.037,-0.288,3
-0.111,0.529,0.782,0.062,0.668,0.632,0.206,1.163,0.366,3
-0.184,0.49,0.859,0.145,0.648,0.757,0.055,0.997,-0.095,3
-0.161,0.469,0.866,0.047,0.683,0.751,-0.193,0.961,-0.235,3
-0.13,0.461,0.872,0.028,0.621,0.779,-0.052,1.012,-0.032,3
-0.15,0.466,0.896,-0.019,0.647,0.826,-0.006,0.96,-0.152,3
-0.145,0.467,0.92,0.003,0.627,0.731,-0.175,1.208,0.161,3
-0.064,0.521,0.776,0.125,0.659,0.809,0.581,1.084,0.151,3
-0.121,0.511,0.796,0.077,0.639,0.765,-0.323,1.288,-0.369,3
-0.031,0.497,0.856,0.005,0.735,0.778,-0.159,1.064,-0.301,3
-0.043,0.508,0.79,0.167,0.728,0.722,-0.073,0.937,-0.278,3
-0.029,0.545,0.856,0.088,0.678,0.631,0.403,0.826,-0.026,3
-0.053,0.491,0.825,0.128,0.724,0.728,0.4,0.872,0.235,3
-0.027,0.475,0.872,0.161,0.682,0.779,0.077,0.828,-0.005,3
-0.053,0.548,0.914,0.127,0.635,0.856,0.556,1.166,0.015,3
-0.022,0.574,0.815,0.182,0.642,0.699,-0.192,0.816,-0.303,3
-0.11,0.523,0.862,0.062,0.753,0.655,0.223,1.035,0.148,3
-0.089,0.556,0.802,0.189,0.667,0.739,0.092,0.995,-0.048,3
-0.003,0.577,0.889,0.052,0.735,0.69,0.075,0.961,-0.197,3
-0.022,0.567,0.904,0.102,0.65,0.734,0.023,1.011,-0.146,3
-0.032,0.532,0.863,0.134,0.688,0.719,0.043,1.011,-0.137,3
0.009,0.551,0.878,0.124,0.666,0.709,-0.011,0.952,-0.151,3
-0.067,0.503,0.928,0.145,0.627,0.794,-0.002,0.984,-0.083,3
0.088,0.552,0.669,0.259,0.67,0.789,0.385,1.314,0.401,3
-0.006,0.558,0.838,0.169,0.672,0.633,-0.169,1.317,-0.213,3
-0.006,0.522,0.82,0.183,0.751,0.718,-0.326,1.119,-0.448,3
-0.023,0.492,0.825,0.195,0.715,0.767,-0.334,0.934,-0.498,3
-0.138,0.525,0.882,0.143,0.682,0.671,0.522,0.933,0.117,3
-0.072,0.551,0.872,0.235,0.653,0.724,0.438,0.84,0.107,3
-0.027,0.486,0.883,0.165,0.665,0.719,-0.382,0.801,0.013,3
-0.052,0.55,0.896,0.226,0.642,0.813,0.167,0.855,-0.335,3
-0.101,0.509,0.889,0.119,0.68,0.802,-0.32,1.22,-0.479,3
-0.141,0.543,0.919,0.071,0.641,0.728,-0.002,1.071,0.036,3
-0.141,0.522,0.827,0.021,0.729,0.652,0.159,0.944,-0.018,3
-0.167,0.576,0.89,0.061,0.685,0.74,-0.0,0.988,-0.136,3
-0.093,0.447,0.906,0.048,0.666,0.748,0.076,1.004,0.009,3
-0.073,0.44,0.876,0.06,0.631,0.785,0.004,0.925,-0.321,3
-0.135,0.421,0.908,0.111,0.647,0.761,-0.005,0.991,-0.162,3
-0.121,0.35,0.92,0.039,0.679,0.795,-0.069,1.073,-0.032,3
-0.094,0.415,0.858,0.099,0.64,0.803,0.225,1.008,0.218,3
-0.11,0.467,0.907,0.071,0.654,0.768,0.244,1.115,-0.097,3
-0.2,0.409,0.932,0.055,0.635,0.71,0.217,1.101,-0.295,3
-0.149,0.479,0.85,0.044,0.699,0.785,0.272,0.966,-0.135,3
-0.033,0.469,0.817,0.194,0.758,0.591,0.136,0.755,0.031,3
-0.176,0.348,0.953,0.158,0.621,0.695,0.199,0.752,0.319,3
-0.137,0.353,0.918,0.141,0.59,0.704,-0.279,0.985,-0.152,3
-0.263,0.358,0.953,0.204,0.703,0.732,-0.52,0.619,-0.298,3
-0.285,0.452,0.909,0.104,0.675,0.773,-0.259,1.163,0.002,3
-0.203,0.433,0.794,0.142,0.736,0.771,0.051,0.988,-0.125,3
-0.229,0.482,0.893,0.059,0.702,0.737,-0.018,0.999,-0.062,3
-0.246,0.512,0.757,0.075,0.771,0.64,0.086,0.996,-0.128,3
-0.23,0.522,0.811,0.104,0.717,0.65,-0.157,0.995,-0.312,3
-0.14,0.493,0.855,0.125,0.745,0.625,-0.186,1.103,-0.049,3
-0.164,0.501,0.88,0.149,0.688,0.671,0.293,1.047,0.286,3
-0.186,0.528,0.862,0.206,0.688,0.71,0.396,1.137,-0.185,3
-0.164,0.558,0.864,0.116,0.708,0.52,0.095,1.028,-0.22,3
-0.205,0.582,0.672,0.183,0.664,0.745,0.133,0.827,-0.204,3
-0.214,0.55,0.669,0.241,0.634,0.675,0.077,0.728,0.078,3
-0.047,0.646,0.621,0.279,0.716,0.589,-0.083,1.052,0.705,3
0.035,0.62,0.771,0.279,0.674,0.703,0.075,1.13,-0.302,3
-0.056,0.573,0.856,0.275,0.645,0.66,-0.401,1.202,-0.204,3
-0.065,0.52,0.855,0.271,0.653,0.714,-0.115,1.056,-0.042,3
-0.141,0.55,0.924,0.268,0.634,0.74,0.131,1.0,0.01,3
-0.017,0.552,0.903,0.386,0.639,0.713,-0.012,0.958,-0.11,3
-0.183,0.58,0.82,0.211,0.59,0.821,0.042,1.013,0.029,3
0.116,0.628,0.891,0.125,0.633,0.704,-0.048,0.958,-0.17,3
0.301,0.508,0.672,0.126,0.656,0.712,-0.02,0.968,-0.238,3
0.112,0.478,0.838,0.118,0.653,0.757,-0.119,1.237,0.03,3
0.096,0.465,0.748,0.108,0.647,0.736,0.452,0.991,-0.065,3
0.112,0.517,0.956,0.134,0.671,0.749,0.064,1.132,-0.364,3
0.026,0.554,0.874,0.147,0.589,0.817,-0.187,1.025,-0.233,3
0.093,0.625,0.813,0.1,0.547,0.796,0.082,0.851,-0.191,3
0.023,0.657,0.934,0.095,0.56,0.852,0.201,0.867,0.04,3
-0.251,0.485,0.72,0.064,0.617,0.878,0.265,0.849,0.189,3
-0.151,0.661,0.782,0.245,0.606,0.829,0.065,0.989,0.098,3
-0.158,0.513,0.85,0.176,0.628,0.643,0.223,1.083,0.031,3
-0.201,0.461,0.854,0.119,0.693,0.835,-0.332,1.075,-0.257,3
-0.19,0.478,0.93,0.164,0.632,0.763,0.202,1.002,0.154,3
-0.221,0.523,0.908,0.183,0.653,0.711,-0.099,0.944,-0.141,3
-0.256,0.51,0.94,0.14,0.583,0.826,0.088,1.009,0.011,3
-0.197,0.482,0.742,0.193,0.604,0.776,-0.048,0.951,-0.104,3
-0.333,0.538,1.007,0.185,0.606,0.772,-0.058,1.084,-0.232,3
-0.146,0.587,0.702,0.15,0.631,0.762,0.173,1.1,0.24,3
-0.181,0.54,0.858,0.142,0.646,0.749,0.289,1.061,-0.074,3
-0.229,0.449,0.951,0.144,0.599,0.669,-0.053,1.258,-0.381,3
-0.271,0.477,0.92,0.027,0.636,0.824,-0.116,0.977,-0.372,3
-0.131,0.449,0.897,0.024,0.577,0.761,0.34,0.738,-0.229,3
-0.268,0.502,0.597,0.044,0.696,0.744,0.649,0.762,0.236,3
-0.32,0.556,0.961,0.153,0.662,0.771,0.175,0.729,0.184,3
-0.225,0.584,0.801,-0.007,0.645,0.792,0.366,1.409,0.265,3
-0.239,0.497,0.812,0.1,0.675,0.791,0.014,0.784,-0.039,3
-0.189,0.523,0.852,0.042,0.705,0.754,-0.084,0.991,-0.031,3
-0.268,0.467,0.81,0.047,0.683,0.656,0.051,1.009,0.039,3
-0.276,0.464,0.944,0.15,0.636,0.745,-0.057,0.971,-0.218,3
-0.265,0.505,0.882,0.181,0.601,0.771,0.037,0.992,-0.024,3
-0.129,0.583,0.817,0.144,0.628,0.825,0.0,0.971,-0.092,3
-0.274,0.498,0.83,0.1,0.659,0.762,-0.048,1.096,-0.192,3
-0.226,0.515,0.87,0.069,0.709,0.643,0.222,1.044,0.296,3
-0.2,0.515,0.825,0.112,0.708,0.769,-0.0,1.128,-0.149,3
-0.123,0.405,0.877,0.082,0.688,0.737,-0.102,1.333,-0.353,3
-0.09,0.48,0.877,0.067,0.635,0.812,-0.107,1.003,-0.358,3
-0.216,0.46,0.893,0.038,0.629,0.712,0.443,0.624,-0.086,3
-0.104,0.598,0.805,0.229,0.634,0.849,0.461,1.0,0.281,3
-0.288,0.644,0.687,0.134,0.638,0.939,0.066,0.82,0.003,3
-0.313,0.573,0.756,0.124,0.69,0.716,0.514,1.279,0.393,3
-0.178,0.57,0.712,0.109,0.635,0.723,-0.108,0.862,-0.106,3
-0.285,0.54,0.785,0.062,0.692,0.677,-0.075,1.055,-0.032,3
-0.311,0.548,0.882,0.08,0.706,0.702,0.005,0.978,-0.022,3
-0.34,0.511,0.776,0.137,0.588,0.744,0.003,1.005,-0.12,3
-0.397,0.435,0.822,0.049,0.615,0.792,0.015,0.998,-0.063,3
-0.359,0.525,0.76,0.107,0.602,0.764,-0.02,0.978,-0.063,3
-0.375,0.508,0.791,0.063,0.633,0.745,0.01,0.97,-0.064,3
-0.358,0.521,0.766,0.038,0.737,0.595,0.042,1.14,-0.161,3
-0.42,0.528,0.816,0.057,0.677,0.918,0.487,0.761,0.087,3
-0.35,0.375,0.749,0.024,0.688,0.68,-0.18,1.193,-0.084,3
-0.411,0.501,0.725,-0.011,0.617,0.78,-0.2,1.25,-0.386,3
-0.492,0.424,0.907,0.144,0.739,0.787,-0.379,0.993,-0.393,3
-0.329,0.529,0.692,-0.028,0.699,0.68,0.252,0.98,-0.057,3
-0.372,0.557,0.688,0.078,0.642,0.784,0.482,0.821,-0.008,3
-0.406,0.511,0.873,0.044,0.642,0.63,0.08,0.86,0.247,3
-0.328,0.556,0.735,0.14,0.688,0.681,0.247,1.431,0.094,3
-0.352,0.504,0.815,0.132,0.697,0.744,-0.079,1.027,-0.184,3
-0.358,0.488,0.82,0.098,0.662,0.727,0.059,1.009,0.18,3
-0.369,0.425,0.824,0.015,0.7,0.76,0.175,1.037,0.158,3
-0.384,0.474,0.799,0.046,0.721,0.775,-0.13,0.93,-0.116,3
-0.354,0.469,0.738,0.006,0.709,0.596,0.116,0.98,-0.117,3
-0.443,0.561,0.779,-0.026,0.726,0.854,-0.0,1.009,-0.115,3
-0.412,0.565,0.819,-0.04,0.628,0.68,0.063,1.027,-0.019,3
-0.339,0.506,0.854,-0.008,0.712,0.765,0.398,1.162,0.325,3
-0.368,0.525,0.757,0.089,0.671,0.805,-0.243,1.307,-0.078,3
-0.269,0.433,0.836,0.039,0.705,0.649,-0.344,1.227,-0.401,3
-0.373,0.5,0.852,0.162,0.598,0.798,-0.274,0.892,-0.414,3
-0.304,0.46,0.768,0.107,0.663,0.646,0.426,0.831,0.021,3
-0.385,0.53,0.839,0.093,0.73,0.681,0.58,0.838,0.131,3
-0.319,0.606,0.708,0.189,0.701,0.716,-0.11,0.951,0.292,3
-0.316,0.565,0.769,0.143,0.658,0.76,0.327,0.988,0.101,3
-0.309,0.542,0.813,0.14,0.629,0.798,-0.327,1.141,-0.026,3
-0.301,0.555,0.778,0.228,0.706,0.704,0.302,0.991,0.003,3
-0.396,0.563,0.799,0.039,0.603,0.767,-0.061,1.018,0.037,3
-0.32,0.567,0.783,0.171,0.721,0.613,-0.046,0.988,-0.018,3
-0.364,0.543,0.754,-0.005,0.642,0.737,0.018,0.994,-0.085,3
-0.42,0.475,0.786,0.223,0.649,0.664,0.042,0.993,-0.164,3
-0.355,0.454,0.763,0.091,0.629,0.812,0.033,1.011,-0.088,3
-0.41,0.451,0.809,0.213,0.615,0.744,0.262,1.11,0.173,3
-0.312,0.459,0.771,0.35,0.767,0.738,0.353,1.021,0.062,3
-0.412,0.427,0.631,0.197,0.632,0.75,-0.296,1.231,-0.315,3
-0.468,0.409,0.839,0.247,0.66,0.762,-0.216,1.005,-0.308,3
-0.385,0.435,0.747,0.23,0.656,0.754,0.091,0.939,-0.168,3
-0.445,0.415,0.859,0.19,0.693,0.717,0.578,0.815,0.119,3
-0.479,0.451,0.881,0.171,0.628,0.761,0.069,0.879,0.402,3
-0.346,0.409,0.952,0.174,0.619,0.771,-0.015,1.759,0.101,3
-0.402,0.427,0.719,0.165,0.598,0.771,-0.036,1.034,-0.136,3
-0.343,0.556,0.677,0.215,0.637,0.766,-0.091,1.033,0.051,3
-0.363,0.456,0.811,0.049,0.743,0.597,0.117,0.992,0.163,3
-0.257,0.445,0.829,0.165,0.683,0.677,-0.109,1.013,-0.018,3
-0.323,0.486,0.819,0.142,0.66,0.705,-0.048,0.99,-0.117,3
-0.217,0.524,0.801,0.138,0.629,0.762,0.088,1.064,0.053,3
-0.297,0.51,0.888,0.145,0.573,0.708,0.348,1.123,0.383,3
-0.271,0.469,0.832,0.151,0.661,0.78,-0.302,1.513,-0.477,3
-0.273,0.49,0.9,0.198,0.591,0.81,-0.056,1.031,-0.289,3
-0.347,0.428,0.929,0.265,0.585,0.843,-0.038,0.817,-0.26,3
-0.318,0.452,0.845,0.209,0.636,0.795,0.456,0.77,0.138,3
-0.206,0.423,0.769,0.305,0.648,0.696,0.048,0.89,0.438,3
-0.261,0.471,0.874,0.229,0.64,0.765,-0.032,1.165,-0.138,3
-0.169,0.469,0.792,0.267,0.624,0.738,0.055,0.92,-0.115,3
-0.127,0.523,0.83,0.238,0.625,0.819,0.1,1.04,0.174,3
-0.137,0.459,0.909,0.21,0.638,0.771,-0.084,0.973,-0.135,3
-0.093,0.505,0.88,0.116,0.611,0.764,-0.068,0.964,-0.203,3
-0.231,0.449,0.836,0.188,0.589,0.801,0.026,1.004,-0.023,3
-0.178,0.396,0.982,0.176,0.572,0.836,0.12,1.044,0.138,3
-0.122,0.485,0.917,0.209,0.658,0.774,0.534,1.037,0.154,3
-0.179,0.472,0.856,0.195,0.616,0.705,-0.339,1.412,-0.409,3
-0.198,0.46,0.766,0.184,0.634,0.811,-0.282,0.952,-0.441,3
-0.205,0.423,0.894,0.193,0.55,0.718,0.115,0.853,-0.182,3
-0.057,0.51,0.85,0.196,0.633,0.733,0.52,0.75,0.067,3
-0.17,0.5,0.83,0.048,0.629,0.946,0.043,0.895,0.256,3
-0.219,0.468,0.847,0.232,0.544,0.79,0.149,0.967,0.125,3
-0.143,0.48,0.858,0.164,0.567,0.819,0.35,0.99,0.041,3
-0.185,0.412,0.875,0.229,0.669,0.75,-0.196,1.091,-0.156,3
-0.222,0.391,0.935,0.284,0.706,0.653,0.176,0.988,0.109,3
-0.138,0.446,0.831,0.258,0.658,0.813,-0.092,0.976,-0.075,3
-0.186,0.499,0.802,0.229,0.63,0.72,0.021,0.975,-0.04,3
-0.162,0.423,0.947,0.201,0.632,0.795,-0.072,0.958,-0.16,3
-0.158,0.546,0.799,0.23,0.602,0.857,-0.051,1.133,-0.092,3
-0.249,0.478,0.949,0.121,0.656,0.865,0.383,0.91,0.257,3
-0.189,0.424,0.891,0.278,0.619,0.691,-0.071,1.342,-0.416,3
-0.247,0.422,0.829,0.131,0.581,0.542,-0.173,1.154,-0.368,3
-0.175,0.478,0.832,0.278,0.583,0.748,0.011,0.801,-0.291,3
-0.234,0.52,0.796,0.203,0.566,0.814,0.375,0.745,0.078,3
-0.387,0.434,0.808,0.224,0.627,0.792,0.17,0.925,0.395,3
-0.264,0.47,0.847,0.155,0.635,0.844,0.226,1.664,0.223,3
-0.426,0.458,0.829,0.12,0.565,0.731,-0.055,0.866,-0.086,3
-0.352,0.436,0.801,0.152,0.595,0.792,0.007,1.019,0.24,3
-0.303,0.411,0.84,0.181,0.588,0.842,-0.048,0.962,-0.101,3
-0.395,0.34,0.853,0.226,0.618,0.683,0.067,0.942,-0.177,3
-0.454,0.411,0.812,0.236,0.692,0.712,0.007,0.96,-0.043,3
-0.386,0.443,0.809,0.134,0.628,0.745,0.01,1.005,0.068,3
-0.469,0.407,0.832,0.13,0.642,0.762,0.825,0.424,0.056,3
-0.437,0.435,0.796,0.136,0.598,0.785,-0.245,1.37,-0.391,3
-0.332,0.493,0.739,0.079,0.597,0.828,-0.055,1.066,-0.197,3
-0.43,0.445,0.819,0.15,0.604,0.831,0.081,0.828,-0.174,3
-0.453,0.438,0.88,0.093,0.563,0.813,0.463,0.767,0.121,3
-0.484,0.385,0.894,0.118,0.687,0.736,0.052,0.988,0.477,3
-0.376,0.44,0.828,0.108,0.635,0.822,-0.018,0.873,0.042,3
-0.314,0.456,0.764,0.049,0.684,0.791,0.281,0.971,-0.184,3
-0.279,0.405,0.894,0.002,0.605,0.825,0.338,1.035,0.01,3
-0.273,0.439,0.878,0.031,0.631,0.849,0.194,0.966,0.132,3
-0.188,0.422,0.856,0.039,0.642,0.826,-0.004,0.979,0.095,3
-0.207,0.417,0.899,0.069,0.699,0.852,0.072,0.949,-0.096,3
-0.315,0.373,0.905,-0.064,0.602,0.742,0.043,1.0,0.074,3
-0.336,0.4,0.835,0.012,0.626,0.744,0.047,1.031,0.274,3
-0.377,0.367,0.948,0.085,0.673,0.738,1.177,1.161,0.282,3
-0.245,0.389,0.846,-0.071,0.67,0.779,-0.589,1.253,-0.488,3
-0.258,0.418,0.902,0.017,0.65,0.78,-0.035,1.014,-0.242,3
-0.29,0.396,0.873,0.054,0.625,0.828,0.418,0.807,-0.28,3
-0.298,0.37,0.848,-0.016,0.595,0.712,0.544,0.902,0.2,3
-0.321,0.397,0.807,0.123,0.672,0.917,0.023,1.055,0.692,3
-0.278,0.402,0.865,0.082,0.694,0.625,-0.048,0.832,-0.12,3
-0.298,0.359,0.965,0.079,0.725,0.668,0.585,0.939,-0.123,3
-0.319,0.335,0.875,0.005,0.605,0.7,0.034,1.085,-0.033,3
-0.163,0.5,0.702,-0.106,0.773,0.747,0.021,0.998,0.031,3
-0.223,0.54,0.818,-0.023,0.662,0.725,0.095,0.986,0.106,3
-0.414,0.37,0.834,-0.008,0.678,0.704,0.08,0.96,-0.057,3
-0.346,0.501,0.856,0.044,0.72,0.695,0.009,1.039,-0.093,3
-0.287,0.437,0.807,0.005,0.608,0.746,0.202,1.028,0.34,3
-0.353,0.439,0.877,0.031,0.729,0.647,0.646,1.191,0.212,3
-0.255,0.45,0.863,0.021,0.769,0.73,-0.263,1.052,-0.458,3
-0.4,0.508,0.966,-0.064,0.739,0.674,-0.267,0.792,-0.405,3
-0.382,0.579,0.754,-0.004,0.68,0.665,0.318,1.016,-0.122,3
-0.282,0.572,0.728,0.007,0.721,0.755,0.66,0.979,0.263,3
-0.263,0.529,0.829,-0.006,0.675,0.736,0.147,0.741,0.149,3
-0.193,0.479,0.81,0.074,0.635,0.79,-0.535,1.337,0.589,3
-0.218,0.521,0.79,0.07,0.601,0.927,0.398,0.918,-0.089,3
0.076,0.385,0.92,0.111,0.755,0.754,0.22,1.021,0.146,3
-0.051,0.459,0.895,0.014,0.705,0.818,0.25,0.986,0.137,3
-0.346,0.491,0.741,-0.036,0.69,0.752,-0.169,0.985,-0.156,3
-0.491,0.553,0.552,0.09,0.664,0.78,0.075,0.999,-0.121,3
-0.563,0.606,0.576,0.09,0.627,0.772,0.028,1.001,0.041,3
-0.675,0.465,0.645,0.066,0.701,0.799,0.003,1.319,0.35,3
-0.644,0.448,0.799,0.098,0.69,0.78,0.098,1.243,-0.109,3
-0.813,0.417,0.639,0.052,0.723,0.779,-0.044,1.238,-0.392,3
-0.79,0.468,0.523,0.103,0.706,0.685,-0.007,0.903,-0.285,3
-0.638,0.516,0.483,0.173,0.654,0.746,0.348,0.7,-0.029,3
-0.76,0.58,0.669,0.146,0.71,0.713,0.301,0.937,0.204,3
-0.641,0.372,0.7,0.172,0.706,0.686,0.063,0.866,0.21,3
-0.811,0.425,0.682,0.188,0.699,0.709,0.744,1.049,0.283,3
-0.495,0.471,0.629,0.222,0.748,0.768,-0.079,0.932,-0.171,3
-0.493,0.46,0.702,0.212,0.664,0.723,-0.07,1.023,0.043,3
-0.502,0.586,0.682,0.121,0.647,0.829,-0.012,1.011,-0.056,3
-0.355,0.537,0.652,0.066,0.692,0.725,-0.076,0.98,-0.189,3
-0.417,0.53,0.805,-0.064,0.754,0.609,0.002,1.003,-0.033,3
-0.386,0.519,0.745,-0.022,0.827,0.705,-0.007,0.957,-0.124,3
-0.499,0.475,0.88,-0.027,0.757,0.586,0.032,1.186,0.185,3
-0.651,0.478,0.729,0.086,0.733,0.598,0.806,1.016,0.253,3
-0.453,0.516,0.622,0.03,0.721,0.781,-0.147,1.178,-0.387,3
-0.517,0.58,0.703,0.104,0.722,0.661,-0.084,0.89,-0.29,3
-0.462,0.55,0.749,0.122,0.674,0.693,0.025,0.859,-0.306,3
-0.428,0.521,0.761,0.134,0.646,0.744,0.895,0.823,0.293,3
-0.339,0.545,0.774,0.048,0.743,0.607,-0.122,0.91,0.485,3
-0.34,0.468,0.791,0.045,0.799,0.574,-0.256,1.069,-0.175,3
-0.33,0.46,0.816,0.06,0.82,0.679,0.454,0.65,-0.062,3
-0.325,0.574,0.807,0.106,0.798,0.529,-0.016,1.093,0.073,3
-0.141,0.635,0.639,0.155,0.83,0.584,0.229,0.982,0.153,3
-0.259,0.641,0.801,0.159,0.757,0.617,-0.149,1.023,0.071,3
-0.213,0.626,0.744,0.193,0.765,0.678,0.125,1.003,-0.067,3
-0.188,0.615,0.792,0.014,0.707,0.573,-0.057,1.0,-0.15,3
-0.171,0.606,0.799,0.13,0.78,0.754,-0.021,1.041,-0.057,3
-0.234,0.607,0.817,0.091,0.709,0.734,0.198,1.036,0.189,3
-0.293,0.591,0.71,0.161,0.713,0.66,0.41,1.129,0.021,3
-0.317,0.622,0.747,0.22,0.68,0.727,0.001,1.154,-0.471,3
-0.316,0.566,0.655,0.321,0.678,0.681,-0.223,1.055,-0.337,3
-0.244,0.585,0.724,0.251,0.643,0.796,0.333,0.808,-0.075,3
-0.272,0.636,0.803,0.289,0.655,1.142,0.377,0.815,0.113,3
-0.299,0.571,0.731,0.114,0.67,0.638,-0.17,0.849,0.271,3
-0.265,0.565,0.853,0.203,0.69,0.703,-0.007,0.979,-0.274,3
-0.371,0.569,0.737,0.157,0.66,0.711,0.195,1.107,0.085,3
-0.361,0.581,0.835,0.185,0.625,0.754,-0.289,1.061,-0.274,3
-0.428,0.58,0.593,0.165,0.683,0.682,0.159,0.981,0.183,3
-0.461,0.522,0.747,0.165,0.646,0.66,-0.09,0.989,-0.062,3
-0.445,0.513,0.768,0.037,0.602,0.749,0.052,0.969,-0.044,3
-0.392,0.524,0.765,0.315,0.875,0.579,-0.026,0.963,-0.08,3
-0.428,0.541,0.733,0.339,0.708,0.639,-0.094,1.024,-0.156,3
-0.363,0.52,0.722,0.31,0.708,0.778,0.235,1.083,0.143,3
-0.491,0.561,0.692,0.272,0.717,0.761,0.082,1.196,-0.185,3
-0.369,0.489,0.706,0.186,0.68,0.715,-0.11,1.084,-0.347,3
-0.447,0.62,0.735,0.156,0.669,0.52,-0.244,1.06,-0.224,3
-0.306,0.555,0.725,0.268,0.685,0.644,0.411,0.818,0.022,3
-0.365,0.569,0.768,0.233,0.651,0.761,0.33,0.841,0.003,3
-0.329,0.526,0.792,0.238,0.649,0.771,0.03,0.856,0.234,3
-0.348,0.59,0.877,0.263,0.689,0.722,0.103,0.758,-0.19,3
-0.16,0.545,0.903,0.246,0.682,0.706,0.974,0.901,0.572,3
-0.177,0.574,0.882,0.269,0.712,0.688,-0.016,0.937,-0.202,3
0.073,0.554,0.713,0.282,0.656,0.681,0.172,1.054,0.094,3
-0.054,0.592,0.835,0.255,0.624,0.748,-0.051,0.992,-0.074,3
0.022,0.575,0.827,0.273,0.611,0.78,0.053,0.99,-0.104,3
-0.002,0.559,0.814,0.185,0.657,0.76,0.003,0.995,-0.074,3
0.031,0.518,0.882,0.206,0.688,0.795,0.055,1.001,-0.057,3
0.119,0.487,0.79,0.204,0.692,0.604,-0.132,1.067,-0.222,3
-0.231,0.368,1.07,0.137,0.67,0.623,0.297,1.163,0.235,3
-0.074,0.488,0.857,0.062,0.705,0.735,0.313,1.006,0.041,3
0.007,0.524,0.834,-0.018,0.749,0.759,-0.318,1.202,-0.363,3
0.003,0.507,0.779,0.058,0.671,0.692,-0.076,0.967,-0.366,3
-0.2,0.479,0.846,0.082,0.605,0.695,0.321,0.916,-0.097,3
-0.149,0.526,0.747,0.022,0.708,0.729,0.502,0.892,0.163,3
-0.271,0.526,0.828,0.107,0.717,0.782,-0.097,0.751,0.237,3
-0.26,0.534,0.773,0.221,0.612,0.688,0.06,1.026,-0.174,3
-0.151,0.509,0.958,0.231,0.654,0.747,0.295,1.042,-0.033,3
-0.202,0.554,0.882,0.192,0.616,0.803,-0.147,1.076,-0.003,3
-0.271,0.53,0.696,0.25,0.627,0.71,0.107,1.035,0.091,3
-0.242,0.55,0.781,0.223,0.6,0.86,-0.07,0.98,-0.116,3
-0.217,0.516,0.875,0.257,0.566,0.849,0.091,0.994,-0.105,3
-0.275,0.538,0.766,0.167,0.627,0.852,0.007,0.983,-0.098,3
-0.217,0.479,0.739,0.167,0.707,0.709,0.017,0.965,-0.117,3
-0.166,0.48,0.837,0.137,0.629,0.784,-0.135,1.075,-0.216,3
-0.184,0.402,0.914,0.147,0.638,0.742,0.224,1.203,0.202,3
-0.381,0.524,1.01,0.149,0.656,0.758,0.401,0.971,0.013,3
-0.159,0.376,0.659,0.167,0.618,0.804,-0.357,1.233,-0.347,3
-0.25,0.622,0.895,0.135,0.608,0.823,-0.241,0.956,-0.506,3
-0.138,0.612,0.845,0.214,0.576,0.77,0.176,1.004,-0.105,3
-0.074,0.523,0.814,0.224,0.583,0.761,0.515,0.89,-0.019,3
-0.088,0.537,0.856,0.166,0.68,0.768,0.309,0.786,-0.079,3
-0.109,0.492,0.754,0.154,0.655,0.783,0.23,0.938,0.332,3
-0.084,0.52,0.853,0.202,0.649,0.678,0.072,0.714,-0.022,3
-0.218,0.571,0.993,0.144,0.642,0.869,-0.107,1.043,-0.078,3
0.024,0.635,0.803,0.132,0.622,0.779,-0.063,1.037,0.038,3
-0.068,0.593,0.756,0.066,0.658,0.813,0.03,0.977,-0.072,3
0.007,0.521,0.666,-0.005,0.695,0.755,0.041,0.97,-0.167,3
0.059,0.618,0.925,0.068,0.764,0.627,-0.013,0.995,-0.109,3
0.02,0.538,0.808,-0.117,0.779,0.639,-0.011,0.955,-0.225,3
0.028,0.463,0.856,-0.299,0.538,0.68,0.012,1.013,-0.01,3
-0.101,0.589,0.91,0.186,0.808,0.868,0.475,1.005,0.233,3
-0.08,0.581,0.708,-0.215,0.709,0.724,0.206,1.048,-0.044,3
-0.248,0.625,0.783,-0.152,0.705,0.668,-0.379,1.126,-0.382,3
-0.04,0.555,0.82,0.016,0.66,0.768,-0.305,1.006,-0.323,3
-0.19,0.553,0.745,-0.049,0.735,0.701,0.44,0.909,-0.032,3
-0.179,0.672,0.826,0.019,0.747,0.625,0.58,0.788,0.081,3
-0.115,0.558,0.887,0.084,0.692,0.719,-0.411,0.924,0.229,3
-0.155,0.519,0.781,-0.11,0.714,0.698,-0.062,0.89,0.099,3
-0.138,0.568,0.741,-0.06,0.716,0.661,0.967,1.017,0.299,3
-0.099,0.549,0.777,0.038,0.663,0.757,-0.217,0.916,-0.2,3
-0.091,0.538,0.816,0.018,0.685,0.763,0.043,1.034,0.153,3
-0.153,0.546,0.82,0.056,0.712,0.757,-0.126,0.988,-0.095,3
-0.081,0.567,0.775,-0.029,0.662,0.868,0.034,0.964,-0.13,3
-0.179,0.5,0.805,0.116,0.727,0.723,-0.051,0.997,-0.113,3
-0.229,0.649,0.858,-0.028,0.754,0.699,-0.0,0.976,-0.113,3
-0.18,0.561,0.677,-0.069,0.693,0.7,-0.107,1.143,-0.146,3
-0.275,0.567,0.854,-0.032,0.667,0.764,0.31,0.974,0.273,3
-0.216,0.602,0.815,0.097,0.57,0.688,0.044,1.165,-0.218,3
-0.355,0.545,0.877,-0.065,0.735,0.716,-0.082,1.27,-0.434,3
-0.238,0.526,0.872,-0.072,0.727,0.74,-0.015,0.912,-0.281,3
-0.146,0.603,0.674,-0.073,0.8,0.611,0.48,0.707,0.074,3
-0.277,0.506,0.756,-0.026,0.804,0.664,0.03,0.934,0.183,3
-0.328,0.437,0.846,-0.027,0.686,0.744,0.049,0.86,0.168,3
-0.2,0.502,0.87,-0.125,0.761,0.643,0.484,1.353,0.42,3
-0.289,0.438,0.789,-0.092,0.667,0.643,-0.121,0.766,-0.038,3
-0.267,0.431,0.856,0.285,0.669,0.929,-0.069,1.045,0.017,3
-0.315,0.482,0.877,-0.205,0.764,0.542,-0.088,0.989,-0.087,3
-0.327,0.47,0.93,-0.133,0.951,0.389,-0.097,0.969,-0.162,3
-0.316,0.448,0.852,-0.055,0.829,0.603,0.062,0.993,-0.009,3
-0.314,0.452,0.739,-0.114,0.87,0.606,-0.039,0.971,-0.119,3
-0.335,0.555,0.884,-0.229,0.829,0.549,-0.051,1.068,-0.159,3
-0.234,0.416,0.847,-0.135,0.813,0.678,0.245,1.055,0.246,3
-0.399,0.454,0.85,-0.104,0.824,0.698,0.274,1.128,-0.104,3
-0.403,0.464,0.852,-0.04,0.701,0.632,-0.075,1.302,-0.434,3
-0.451,0.522,0.738,0.034,0.786,0.683,-0.271,0.944,-0.394,3
-0.21,0.504,0.91,0.11,0.86,0.619,0.532,0.648,0.04,3
-0.35,0.387,0.795,0.002,0.751,0.61,0.174,1.025,0.344,3
-0.218,0.436,0.854,0.046,0.668,0.603,0.102,0.814,0.322,3
-0.238,0.445,0.767,-0.033,0.724,0.742,0.156,1.405,0.167,3
-0.224,0.416,0.891,0.067,0.734,0.72,0.029,0.761,-0.037,3
-0.234,0.456,0.896,0.042,0.701,0.805,-0.06,1.017,-0.025,3
-0.311,0.472,0.814,-0.159,0.834,0.571,0.063,0.965,0.025,3
-0.221,0.505,0.894,0.005,0.748,0.748,0.015,0.981,-0.09,3
-0.053,0.495,0.769,-0.094,0.711,0.64,-0.035,0.993,-0.048,3
-0.234,0.551,0.812,-0.047,0.694,0.684,-0.071,0.966,-0.138,3
-0.184,0.462,0.913,0.03,0.686,0.685,-0.029,0.993,-0.11,3
-0.124,0.483,0.8,0.041,0.673,0.666,0.088,1.182,0.209,3
-0.036,0.565,0.942,-0.023,0.613,0.657,0.591,1.033,0.052,3
-0.228,0.476,0.706,0.089,0.634,0.866,-0.184,1.281,-0.421,3
-0.276,0.466,0.826,0.182,0.635,0.808,-0.136,0.973,-0.338,3
0.057,0.383,0.885,0.151,0.7,0.6,0.287,0.715,-0.123,3
-0.173,0.45,0.915,0.243,0.688,0.706,0.52,0.798,0.187,3
-0.158,0.47,0.933,0.179,0.67,0.714,-0.145,0.874,0.282,3
-0.203,0.439,0.903,0.228,0.683,0.733,0.246,1.306,0.018,3
-0.164,0.454,0.832,0.244,0.653,0.735,0.095,0.893,0.072,3
-0.236,0.447,0.797,0.209,0.66,0.758,-0.078,1.032,-0.154,3
-0.218,0.531,0.921,0.255,0.612,0.767,0.017,1.001,0.074,3
-0.174,0.491,0.787,0.348,0.645,0.791,-0.046,0.978,-0.105,3
-0.189,0.464,0.822,0.099,0.664,0.663,0.007,0.959,-0.102,3
-0.11,0.445,1.069,0.181,0.71,0.75,-0.013,0.944,-0.156,3
-0.219,0.435,0.863,0.057,0.623,0.699,-0.093,1.004,-0.168,3
-0.386,0.468,0.758,0.114,0.743,0.715,0.251,1.263,0.51,3
-0.357,0.477,0.937,0.111,0.582,0.76,-0.056,1.167,-0.167,3
-0.278,0.507,0.747,0.224,0.569,0.728,-0.337,1.249,-0.396,3
-0.327,0.486,0.853,0.167,0.626,0.758,-0.034,0.912,-0.315,3
-0.248,0.517,0.78,0.223,0.593,0.87,0.34,0.811,-0.036,3
-0.266,0.437,0.801,0.204,0.575,0.773,0.128,0.833,0.077,3
-0.285,0.444,0.865,0.22,0.66,0.657,0.22,0.938,0.352,3
-0.347,0.442,0.834,0.321,0.671,0.821,0.637,0.961,0.293,3
-0.361,0.43,0.785,0.222,0.613,0.744,0.015,1.055,-0.022,3
-0.369,0.507,0.756,0.208,0.661,0.76,0.009,1.021,0.034,3
-0.399,0.555,0.745,0.17,0.632,0.733,0.026,0.995,-0.007,3
-0.453,0.544,0.741,0.144,0.651,0.751,0.132,0.983,0.009,3
-0.297,0.521,0.745,0.262,0.604,0.797,0.022,0.994,-0.066,3
-0.419,0.543,0.738,0.25,0.621,0.76,0.052,1.015,0.073,3
-0.377,0.571,0.666,0.185,0.604,0.704,-0.184,1.227,0.171,3
-0.411,0.461,0.772,0.265,0.664,0.746,0.498,0.944,0.197,3
-0.411,0.571,0.826,0.269,0.626,0.733,-0.694,1.216,-0.395,3
-0.388,0.645,0.699,0.129,0.686,0.672,-0.274,1.014,-0.355,3
-0.219,0.548,0.772,0.144,0.713,0.622,0.389,0.829,-0.128,3
-0.273,0.584,0.782,0.085,0.671,0.763,0.317,0.829,0.061,3
-0.263,0.562,0.831,0.002,0.671,0.815,0.189,0.817,0.118,3
-0.322,0.549,0.78,0.051,0.633,0.792,0.622,1.136,-0.115,3
-0.271,0.473,0.811,0.053,0.586,0.715,0.126,0.901,-0.1,3
-0.342,0.547,0.83,0.071,0.594,0.827,-0.019,0.994,-0.053,3
-0.367,0.561,0.807,0.046,0.588,0.715,0.064,1.003,0.052,3
-0.24,0.53,0.65,0.203,0.645,0.749,0.029,0.965,-0.171,3
-0.352,0.603,0.807,0.195,0.828,0.704,0.074,1.02,-0.09,3
-0.427,0.625,0.778,0.19,0.68,0.69,0.025,0.97,-0.135,3
-0.264,0.586,0.739,0.168,0.66,0.713,0.05,0.973,-0.146,3
