sep=,
DeviceTag:,R_Wrist_n
FirmwareVersion:,2.2.1
AppVersion:,2023.6.0
SyncStatus:,Synced
OutputRate:,30Hz
FilterProfile:,General
Measurement Mode:,Sensor fusion Mode - Complete(Quaternion)
StartTime: ,2026-08-21_21:32:48_317 AEST
© Movella Technologies B. V. 2005-2026

PacketCounter,SampleTimeFine,Quat_W,Quat_X,Quat_Y,Quat_Z,FreeAcc_X,FreeAcc_Y,FreeAcc_Z
1,2066074117,-0.420375,-0.187090,0.463699,-0.757146,-1.421943,-0.431076,3.008937
2,2066107451,-0.426510,-0.106454,0.470960,-0.764825,0.424241,1.203685,3.145319
3,2066140785,-0.422775,-0.019344,0.472617,-0.772997,0.981061,1.445613,1.541257
4,2066174119,-0.407867,0.062140,0.465824,-0.782812,0.813045,1.674739,0.482344
5,2066207453,-0.385451,0.133832,0.454354,-0.791886,0.052575,1.540358,-1.238250
6,2066240787,-0.357607,0.194636,0.444378,-0.797976,-0.132357,0.913512,-2.039943
7,2066274121,-0.328872,0.241679,0.433343,-0.803525,-0.152169,0.994331,-1.620797
8,2066307455,-0.303716,0.274636,0.420030,-0.809883,0.504597,0.451450,-2.208592
9,2066340789,-0.282593,0.296130,0.406225,-0.816966,-0.559468,0.169190,-1.378001
10,2066374123,-0.265949,0.311310,0.392191,-0.823740,0.510145,0.125550,-1.565156
11,2066407457,-0.251805,0.322028,0.381544,-0.829048,1.047680,0.096792,-1.877527
12,2066440791,-0.239755,0.329281,0.373742,-0.833314,0.561563,0.905571,-2.320696
13,2066474125,-0.231124,0.332866,0.366924,-0.837348,-0.204425,1.016252,-2.826511
14,2066507459,-0.226528,0.333889,0.362532,-0.840106,-0.845358,0.383745,-3.640326
15,2066540793,-0.224270,0.334355,0.366166,-0.838949,-0.597012,0.545240,-3.978300
16,2066574127,-0.222392,0.333716,0.378777,-0.834091,-0.457427,1.376612,-2.823507
17,2066607461,-0.221527,0.329964,0.393429,-0.829015,-1.251755,1.760697,-1.833162
18,2066640795,-0.218869,0.323535,0.408492,-0.824960,0.091108,2.312188,-1.562490
19,2066674129,-0.211552,0.310841,0.423745,-0.824056,0.985586,3.231566,-0.268371
20,2066707463,-0.200436,0.291700,0.438889,-0.825903,-0.404681,2.085361,-0.796841
21,2066740797,-0.183529,0.272646,0.458419,-0.825734,0.283504,1.933036,-0.569054
22,2066774131,-0.163820,0.252890,0.477940,-0.825099,0.285154,-0.415212,0.478305
23,2066807465,-0.145356,0.235192,0.497547,-0.822196,-0.074265,-2.071611,0.446910
24,2066840799,-0.129796,0.223894,0.517906,-0.815354,0.511413,-2.839940,1.948963
25,2066874133,-0.119717,0.217277,0.530722,-0.810430,0.440802,-4.041820,2.875136
26,2066907467,-0.115295,0.216686,0.534041,-0.809048,0.321027,-3.964314,2.490051
27,2066940801,-0.115684,0.223095,0.532656,-0.808163,0.495326,-2.772669,2.102395
28,2066974135,-0.121313,0.233621,0.526965,-0.808095,0.380249,-1.224500,1.560287
29,2067007469,-0.129326,0.246404,0.519890,-0.807637,0.100476,-1.166856,-0.153476
30,2067040803,-0.137405,0.259152,0.515408,-0.805183,0.288877,-0.208794,-1.112102
31,2067074137,-0.148463,0.266385,0.510143,-0.804211,0.267786,0.460851,-2.054189
32,2067107471,-0.161160,0.267797,0.508535,-0.802314,-0.313891,1.272249,-2.726349
33,2067140805,-0.171792,0.265749,0.512904,-0.797997,-0.546854,2.633258,-1.843745
34,2067174139,-0.178867,0.260921,0.519051,-0.794051,-0.660366,3.916848,-1.291923
35,2067207473,-0.180360,0.254619,0.526834,-0.790626,-0.950973,4.062870,-0.891889
36,2067240807,-0.176227,0.246679,0.535645,-0.788150,-0.829106,3.305304,-0.260958
37,2067274141,-0.167830,0.236320,0.544736,-0.786926,-0.616884,1.763187,-0.457881
38,2067307475,-0.156845,0.224135,0.557256,-0.783985,-0.415901,0.139401,-0.024570
39,2067340809,-0.146304,0.210805,0.570888,-0.779902,-0.685978,-1.733973,0.810797
40,2067374143,-0.139447,0.198958,0.581288,-0.776582,-0.558019,-3.246562,1.643146
41,2067407477,-0.137697,0.190764,0.586312,-0.775172,-0.063957,-4.529301,2.421909
42,2067440811,-0.141049,0.187728,0.585012,-0.776292,0.015707,-4.454746,2.256114
43,2067474145,-0.146999,0.191581,0.581857,-0.776618,0.279511,-3.167037,1.678246
44,2067507479,-0.154006,0.200394,0.579607,-0.774716,0.168522,-2.150633,1.056978
45,2067540813,-0.162017,0.211067,0.576188,-0.772796,-0.374144,-1.505616,0.296759
46,2067574147,-0.171513,0.221384,0.570271,-0.772249,-0.241155,-0.177046,-0.813628
47,2067607481,-0.180594,0.229878,0.566954,-0.770136,-0.278707,1.468021,-1.081182
48,2067640815,-0.188062,0.235703,0.567531,-0.766152,-0.710340,2.120585,-1.415348
49,2067674149,-0.192234,0.238890,0.571552,-0.761125,-0.698155,2.567307,-1.686825
50,2067707483,-0.192998,0.238030,0.577455,-0.756732,-0.534570,3.257538,-1.074493
51,2067740817,-0.191127,0.232322,0.582755,-0.754916,-0.030587,3.230059,-1.417446
52,2067774151,-0.185990,0.222656,0.588936,-0.754314,-0.476426,2.901241,-0.469272
53,2067807485,-0.178041,0.209390,0.595669,-0.754745,-0.164308,2.583103,-0.437801
54,2067840819,-0.166876,0.191263,0.604526,-0.755066,0.927895,1.466032,-0.714638
55,2067874153,-0.153125,0.166981,0.615965,-0.754494,0.153122,-0.600715,-0.454108
56,2067907487,-0.138936,0.142639,0.628865,-0.751588,-0.226234,-1.728825,0.288221
57,2067940821,-0.129176,0.124409,0.636038,-0.750530,-0.133753,-2.998046,1.570057
58,2067974155,-0.126433,0.114809,0.633491,-0.754670,0.387513,-3.798135,1.561224
59,2068007489,-0.129611,0.115220,0.628446,-0.758278,0.644373,-3.709397,1.083248
60,2068040823,-0.136867,0.124687,0.625474,-0.757963,0.442468,-2.476780,1.287890
61,2068074157,-0.145948,0.140972,0.624974,-0.753816,0.295465,-1.162015,0.470540
62,2068107491,-0.154732,0.162357,0.627812,-0.745356,-0.283317,-0.722757,-0.125690
63,2068140825,-0.163253,0.185294,0.630887,-0.735528,-0.200484,0.174222,-0.262743
64,2068174159,-0.172782,0.205891,0.632682,-0.726274,-0.088609,0.669298,-0.799794
65,2068207493,-0.182444,0.223425,0.635560,-0.716145,-0.004233,1.484423,-0.579679
66,2068240827,-0.189783,0.236386,0.640170,-0.705898,0.067642,2.193492,-0.353457
67,2068274161,-0.194096,0.241991,0.644162,-0.699161,0.104944,2.310357,-0.312926
68,2068307495,-0.194784,0.239903,0.648530,-0.695643,0.157161,2.870094,-0.257318
69,2068340829,-0.192177,0.229005,0.651565,-0.697204,-0.014820,2.876078,-0.021248
70,2068374163,-0.185717,0.209163,0.653656,-0.703206,1.703722,2.349886,-1.329781
71,2068407497,-0.175282,0.183284,0.662641,-0.704695,2.176171,1.119980,-1.277494
72,2068440831,-0.162486,0.155373,0.675727,-0.702036,3.044979,-1.238250,-0.105586
73,2068474165,-0.148722,0.128644,0.688060,-0.698506,4.033390,-3.286950,0.600556
74,2068507499,-0.133883,0.106671,0.697514,-0.695827,4.223802,-3.886290,2.260679
75,2068540833,-0.119079,0.087397,0.696866,-0.701830,3.538125,-3.203976,3.467628
76,2068574167,-0.102976,0.071895,0.690507,-0.712342,2.094254,-2.108821,1.178011
77,2068607501,-0.084592,0.061493,0.687768,-0.718361,0.069959,-0.702793,-0.008239
78,2068640835,-0.067389,0.055480,0.690523,-0.718027,-2.056633,0.053987,-0.246302
79,2068674169,-0.055153,0.051370,0.693668,-0.716344,-3.555036,0.755465,-1.113323
80,2068707503,-0.048129,0.047757,0.697788,-0.713091,-4.306623,0.895435,-1.615313
81,2068740837,-0.046238,0.042130,0.696442,-0.714885,-4.926766,1.330643,-1.187982
82,2068774171,-0.046554,0.034129,0.690889,-0.720656,-5.299250,2.338845,-1.698704
83,2068807505,-0.044660,0.025157,0.690299,-0.721709,-5.370900,2.238938,-1.567227
84,2068840839,-0.039029,0.014061,0.691724,-0.720972,-4.386694,2.353112,-0.907162
85,2068874173,-0.030851,-0.002656,0.689537,-0.723591,-3.111369,2.823545,0.554152
86,2068907507,-0.022217,-0.021472,0.686495,-0.726481,-1.996046,-0.434524,-0.232450
87,2068940841,-0.017147,-0.032150,0.695654,-0.717455,0.334524,-1.922061,-1.243909
88,2068974175,-0.017954,-0.031170,0.715924,-0.697254,0.971754,-3.194029,1.381886
89,2069007509,-0.025974,-0.017341,0.731102,-0.681556,0.320531,-4.155634,1.767134
90,2069040843,-0.042003,0.008697,0.741772,-0.669283,0.414389,-3.915936,0.913319
91,2069074177,-0.063628,0.042406,0.751292,-0.655529,0.139324,-2.592542,0.109515
92,2069107511,-0.089898,0.079729,0.759691,-0.639089,-0.484713,-1.984927,-0.080481
93,2069140845,-0.119916,0.110307,0.752744,-0.637835,0.245840,-0.533186,1.646125
94,2069174179,-0.151119,0.124519,0.729398,-0.655470,0.360183,0.970958,0.714408
95,2069207513,-0.179256,0.125538,0.703769,-0.675885,0.490037,2.276631,-0.419144
96,2069240847,-0.197690,0.121966,0.689940,-0.685587,1.232232,3.317920,-0.172750
97,2069274181,-0.206223,0.113656,0.683205,-0.691223,0.936718,3.497649,0.225679
98,2069307515,-0.206966,0.100394,0.680033,-0.696165,0.611413,2.413181,-0.923953
99,2069340849,-0.204095,0.086174,0.683168,-0.695848,-0.304733,0.367160,-1.305629
100,2069374183,-0.203314,0.077122,0.690544,-0.689832,-0.754707,-1.204371,-0.386855
101,2069407517,-0.208025,0.078524,0.696222,-0.682524,-1.149163,-2.735006,0.922830
102,2069440851,-0.220460,0.092018,0.697593,-0.675499,-1.083334,-3.333322,0.942344
103,2069474185,-0.239553,0.115679,0.697832,-0.665032,-0.477666,-2.675970,0.106675
104,2069507519,-0.262069,0.147149,0.699125,-0.648765,-0.008776,-1.519016,0.129206
105,2069540853,-0.286568,0.178647,0.694395,-0.635439,0.908102,0.104927,1.370481
106,2069574187,-0.313285,0.199537,0.676787,-0.635611,1.602288,1.091860,0.622942
107,2069607521,-0.337815,0.207691,0.655865,-0.642332,2.620156,2.073714,-1.327778
108,2069640855,-0.352892,0.210203,0.646359,-0.643045,2.651791,2.493084,-1.454194
109,2069674189,-0.357707,0.205736,0.647097,-0.641084,3.217200,2.269728,-0.906113
110,2069707523,-0.354712,0.181732,0.648080,-0.648961,2.804658,2.053700,-1.185911
111,2069740857,-0.341522,0.145588,0.658254,-0.654884,1.601982,1.603250,-2.226390
112,2069774191,-0.322811,0.107523,0.677990,-0.651587,-0.931172,-1.790678,-0.387429
113,2069807525,-0.307932,0.082203,0.694194,-0.645383,-1.121357,-3.843041,0.287284
114,2069840859,-0.302023,0.080003,0.702959,-0.638932,-0.140131,-3.871226,1.258206
115,2069874193,-0.305444,0.097950,0.710822,-0.625976,0.379030,-3.394139,1.161673
116,2069907527,-0.312865,0.119532,0.713627,-0.615279,0.546282,-1.822681,2.002943
117,2069940861,-0.318140,0.132452,0.707936,-0.616502,0.416801,1.083473,0.203331
118,2069974195,-0.319588,0.135789,0.703347,-0.620268,0.532842,2.311193,0.034264
119,2070007529,-0.319670,0.125533,0.696361,-0.630189,0.417861,3.988768,-0.674891
120,2070040863,-0.317351,0.108438,0.693231,-0.637938,-1.238236,3.203570,-2.762404
121,2070074197,-0.311136,0.085164,0.696166,-0.641326,-1.185008,2.082463,-2.156053
122,2070107531,-0.304133,0.058344,0.703014,-0.640215,-0.668789,1.512844,-1.964069
123,2070140865,-0.299965,0.031619,0.711486,-0.634676,-0.471921,-0.299872,-1.145519
124,2070174199,-0.297789,0.009489,0.720090,-0.626663,-0.213202,-2.448481,0.332671
125,2070207533,-0.295090,-0.005809,0.725250,-0.622016,0.771325,-3.106878,1.729871
126,2070240867,-0.291209,-0.010775,0.728954,-0.619445,1.486245,-3.619826,3.011086
127,2070274201,-0.284734,-0.004444,0.730096,-0.621185,1.310958,-3.442277,2.505579
128,2070307535,-0.275158,0.010595,0.727696,-0.628203,0.647341,-1.964217,1.965834
129,2070340869,-0.263155,0.029100,0.722636,-0.638518,0.794014,-0.675799,0.468513
130,2070374203,-0.250174,0.044399,0.714754,-0.651593,-0.373463,1.077922,-0.550760
131,2070407537,-0.237116,0.057130,0.708587,-0.662134,-0.764352,2.093845,-1.883974
132,2070440871,-0.226027,0.065610,0.703802,-0.670279,-1.035472,2.901958,-2.373843
133,2070474205,-0.218806,0.069032,0.700390,-0.675882,-1.218388,3.396281,-2.832922
134,2070507539,-0.216486,0.064552,0.698256,-0.679272,-1.041486,2.989068,-2.253757
135,2070540873,-0.217535,0.048243,0.695593,-0.683013,-0.673197,2.547912,-1.806646
136,2070574207,-0.219284,0.025171,0.699371,-0.679827,-0.882971,1.447063,-0.839206
137,2070607541,-0.220506,0.001388,0.706344,-0.672650,-0.547838,-0.958475,1.722161
138,2070640875,-0.221849,-0.014526,0.713710,-0.664224,-0.254837,-3.065326,3.254626
139,2070674209,-0.224695,-0.013923,0.717496,-0.659183,1.275058,-5.375206,5.929624
140,2070707543,-0.227992,0.001539,0.707932,-0.668472,1.362215,-5.311541,7.637083
141,2070740877,-0.232210,0.030045,0.684153,-0.690735,0.346068,-2.847578,4.720629
142,2070774211,-0.236591,0.060155,0.656627,-0.713619,-0.349320,1.655753,0.852731
143,2070807545,-0.240271,0.079531,0.633737,-0.730977,-1.170698,3.452433,-3.701223
144,2070840879,-0.245063,0.080304,0.623469,-0.738096,-2.123708,3.638339,-6.374059
145,2070874213,-0.253448,0.063969,0.607895,-0.749760,-0.703681,2.009468,0.452971
146,2070907547,-0.265081,0.046810,0.599655,-0.753631,-1.228019,0.715227,-1.915756
147,2070940881,-0.270969,0.046243,0.605395,-0.746953,1.842804,-1.316228,4.467697
148,2070974215,-0.272184,0.044065,0.589538,-0.759225,3.014670,-0.535926,1.455286
149,2071007549,-0.269465,0.043078,0.580717,-0.767010,1.064573,0.111280,-0.632635
150,2071040883,-0.264463,0.042874,0.582509,-0.767404,-0.717617,1.377770,-0.323944
151,2071074217,-0.257684,0.042401,0.594088,-0.760832,-1.644903,1.636601,-1.317728
152,2071107551,-0.245934,0.040730,0.621417,-0.742767,-0.410072,2.019804,-0.376080
153,2071140885,-0.234455,0.032313,0.649714,-0.722401,-1.235741,1.260209,-0.403572
154,2071174219,-0.226435,0.022316,0.673240,-0.703550,-1.114181,0.026450,0.528088
155,2071207553,-0.221480,0.017430,0.695035,-0.683793,-0.493357,-1.970373,2.541423
156,2071240887,-0.217703,0.018318,0.706795,-0.672841,0.064807,-3.172222,2.917171
157,2071274221,-0.212511,0.030446,0.715724,-0.664571,0.423171,-3.465546,2.029603
158,2071307555,-0.206261,0.051769,0.722572,-0.657777,0.707196,-2.648707,2.749933
159,2071340889,-0.200731,0.074779,0.718533,-0.661687,0.425992,-1.128105,2.162207
160,2071374223,-0.194414,0.099378,0.709360,-0.670179,-0.372232,0.083670,0.339280
161,2071407557,-0.186131,0.124722,0.700994,-0.677061,-0.583052,1.000195,-1.155320
162,2071440891,-0.177572,0.146451,0.694794,-0.681385,-0.298327,1.469140,-1.620427
163,2071474225,-0.172031,0.161565,0.689307,-0.684954,-0.841506,1.312577,-1.826355
164,2071507559,-0.169784,0.170531,0.685480,-0.687179,-0.629408,1.326645,-2.030715
165,2071540893,-0.170680,0.173428,0.683014,-0.688685,-0.348564,1.319883,-1.920066
166,2071574227,-0.174757,0.168237,0.678689,-0.693212,-0.710334,1.049050,-1.107351
167,2071607561,-0.178794,0.157916,0.674231,-0.698937,-1.008125,0.643137,-0.476669
168,2071640895,-0.179959,0.148668,0.674569,-0.700338,-1.209551,0.106984,-0.007922
169,2071674229,-0.179247,0.142392,0.677416,-0.699076,0.100922,-0.673207,0.153069
170,2071707563,-0.177823,0.140311,0.682581,-0.694823,0.892254,-1.071415,0.965050
171,2071740897,-0.176187,0.143321,0.685493,-0.691752,1.239505,-1.660534,2.038295
172,2071774231,-0.174674,0.152376,0.683493,-0.692179,0.977948,-1.921486,2.568953
173,2071807565,-0.172710,0.168513,0.677181,-0.695129,0.773214,-1.422701,1.803502
174,2071840899,-0.169043,0.190294,0.669313,-0.698024,0.477365,-1.022381,1.073175
175,2071874233,-0.163807,0.212830,0.660096,-0.701533,0.139317,-0.759047,1.052962
176,2071907567,-0.158293,0.231282,0.645639,-0.710357,-0.228194,-0.415013,0.352294
177,2071940901,-0.152719,0.244912,0.627238,-0.723375,-0.072042,0.467559,-0.898676
178,2071974235,-0.146520,0.255063,0.611877,-0.734224,0.032976,0.953134,-1.423001
179,2072007569,-0.140472,0.261263,0.600895,-0.742253,0.228368,1.549437,-1.647387
180,2072040903,-0.135378,0.261863,0.593030,-0.749280,0.994226,2.290289,-2.067828
181,2072074237,-0.128675,0.255884,0.591764,-0.753516,1.155879,2.079971,-2.080571
182,2072107571,-0.119548,0.242824,0.598656,-0.753897,0.226103,0.642580,-0.917341
183,2072140905,-0.107441,0.227487,0.618287,-0.744602,0.225489,-0.788955,-0.122910
184,2072174239,-0.096551,0.214061,0.642874,-0.729091,0.195205,-1.067329,2.865476
185,2072207573,-0.091803,0.206649,0.655257,-0.720771,-0.185266,-1.457127,5.092094
186,2072240907,-0.093157,0.207841,0.658320,-0.717457,-0.470163,-1.986559,4.090231
187,2072274241,-0.097673,0.216061,0.660149,-0.712731,-0.033489,-1.254264,2.549056
188,2072307575,-0.102209,0.228422,0.664986,-0.703686,0.096503,-0.143231,1.051802
189,2072340909,-0.108302,0.239740,0.667943,-0.696169,0.330895,0.952926,-0.042010
190,2072374243,-0.117974,0.244553,0.665221,-0.695530,0.258225,1.898566,-1.072948
191,2072407577,-0.128896,0.240493,0.661746,-0.698317,0.527787,1.933198,-1.821775
192,2072440911,-0.136659,0.228478,0.664025,-0.698711,-0.932803,-0.151820,-0.355577
193,2072474245,-0.141362,0.214134,0.671268,-0.695390,-0.513175,-0.694903,0.335546
194,2072507579,-0.143196,0.204160,0.676284,-0.693151,-0.366602,-1.183948,2.326825
195,2072540913,-0.143904,0.203660,0.674743,-0.694652,-0.556135,-1.771105,1.758078
196,2072574247,-0.144190,0.213239,0.672856,-0.693547,0.178491,-1.248854,0.074751
197,2072607581,-0.143270,0.229856,0.672931,-0.688337,0.274497,-0.582816,-0.566682
198,2072640915,-0.144444,0.246835,0.666645,-0.688329,-0.017320,0.911067,-0.384303
199,2072674249,-0.148242,0.257461,0.652948,-0.696708,0.635555,1.922624,-1.173108
200,2072707583,-0.152476,0.258752,0.640361,-0.706923,0.795831,2.163942,-2.225143
201,2072740917,-0.156870,0.248106,0.631673,-0.717516,0.547592,1.967198,-1.824558
202,2072774251,-0.158160,0.228872,0.633070,-0.722378,-0.058389,0.707444,-1.919400
203,2072807585,-0.155927,0.205201,0.644111,-0.720212,0.342072,-0.345410,-0.574707
204,2072840919,-0.151663,0.180610,0.657009,-0.716046,-0.224581,-1.693402,1.998706
205,2072874253,-0.146761,0.163441,0.661724,-0.716850,-0.531653,-3.055889,2.359547
206,2072907587,-0.140960,0.162652,0.666173,-0.714068,0.008934,-2.807305,2.088478
207,2072940921,-0.135792,0.176493,0.672869,-0.705452,0.840689,-1.762215,1.548332
208,2072974255,-0.132811,0.195977,0.674555,-0.699238,0.906297,-0.661740,0.894009
209,2073007589,-0.130461,0.215594,0.671547,-0.696798,0.941356,0.951513,1.099727
210,2073040923,-0.127300,0.229701,0.664902,-0.699243,0.585958,1.062491,0.071960
211,2073074257,-0.121600,0.237226,0.661011,-0.701432,0.149324,0.880861,-1.167495
212,2073107591,-0.115015,0.237777,0.662203,-0.701231,0.143572,1.508374,-1.780148
213,2073140925,-0.109115,0.229926,0.668027,-0.699265,-1.043568,1.185841,-1.498597
214,2073174259,-0.107983,0.212469,0.667918,-0.705044,-1.988968,2.052637,-0.756577
215,2073207593,-0.107469,0.189360,0.666215,-0.713270,-0.877676,3.093464,-1.644169
216,2073240927,-0.104402,0.163409,0.668641,-0.717859,-1.558993,1.070518,-1.705625
217,2073274261,-0.099135,0.138861,0.677279,-0.715673,-1.213114,0.240051,-0.882160
218,2073307595,-0.094393,0.118611,0.687973,-0.709732,-0.444911,-0.654978,0.700114
219,2073340929,-0.090399,0.104823,0.697244,-0.703346,0.163411,-2.009587,1.580329
220,2073374263,-0.086674,0.098782,0.701409,-0.700542,0.083279,-3.190300,2.856085
221,2073407597,-0.082194,0.103021,0.699802,-0.702077,0.815122,-3.053869,2.565578
222,2073440931,-0.076600,0.116086,0.695150,-0.705285,0.741842,-2.460504,2.280558
223,2073474265,-0.071026,0.133487,0.687265,-0.710498,0.599512,-1.263048,1.313289
224,2073507599,-0.065613,0.151792,0.676758,-0.717396,0.477644,-0.242465,0.196889
225,2073540933,-0.060498,0.168608,0.666329,-0.723824,0.055866,0.251000,-0.650453
226,2073574267,-0.056018,0.183802,0.656981,-0.729013,-0.498182,0.637782,-1.250346
227,2073607601,-0.052826,0.197051,0.648402,-0.733458,-0.466176,0.843042,-1.959591
228,2073640935,-0.051524,0.206714,0.641372,-0.737062,-0.386925,1.210364,-2.686889
229,2073674269,-0.052451,0.211148,0.636210,-0.740207,-0.372478,1.715357,-2.700452
230,2073707603,-0.056081,0.209656,0.631368,-0.744499,-0.303710,2.830371,-2.429200
231,2073740937,-0.059641,0.201863,0.630472,-0.747130,-0.267960,2.425440,-2.379972
232,2073774271,-0.060239,0.189395,0.633915,-0.747434,-0.366246,1.661583,-1.932248
233,2073807605,-0.057432,0.173724,0.639895,-0.746364,-0.664555,0.585689,-0.594173
234,2073840939,-0.052460,0.157762,0.646594,-0.744499,-0.856748,-1.792782,0.472323
235,2073874273,-0.047016,0.148459,0.651774,-0.742257,-0.561491,-2.683714,2.077420
236,2073907607,-0.044940,0.149590,0.649259,-0.744359,-0.163872,-2.560354,2.784448
237,2073940941,-0.046671,0.160404,0.639597,-0.750342,-0.127199,-2.310530,2.047571
238,2073974275,-0.050997,0.178409,0.627937,-0.755824,-0.341680,-1.447656,0.466987
239,2074007609,-0.056024,0.200550,0.619256,-0.757079,-0.474971,-0.358453,-0.180439
240,2074040943,-0.062134,0.223263,0.613316,-0.755077,-0.636479,0.009097,-1.161706
241,2074074277,-0.070316,0.244151,0.608249,-0.751986,-1.045584,0.610252,-1.335606
242,2074107611,-0.081265,0.261586,0.601444,-0.750492,-1.465800,2.054412,-0.825220
243,2074140945,-0.093016,0.275359,0.591335,-0.752232,-1.520692,2.726615,-1.241010
244,2074174279,-0.101436,0.287410,0.582097,-0.753839,-1.783579,2.592873,-1.915450
245,2074207613,-0.106759,0.299736,0.576033,-0.752962,-1.578773,2.897227,-2.387825
246,2074240947,-0.112957,0.313348,0.571889,-0.749668,-2.130243,2.777009,-1.913460
247,2074274281,-0.122532,0.328991,0.568413,-0.744084,-1.388899,2.570092,-2.048210
248,2074307615,-0.134546,0.346521,0.565891,-0.735929,-1.127449,2.298366,-1.463520
249,2074340949,-0.151180,0.364816,0.561074,-0.727499,-1.013330,1.802843,-0.625067
250,2074374283,-0.172720,0.383408,0.554929,-0.717791,-0.334592,1.867056,-0.838377
251,2074407617,-0.198197,0.403625,0.548467,-0.704978,0.133974,1.718705,-0.722748
252,2074440951,-0.227057,0.425831,0.542807,-0.687371,0.584735,1.387047,-1.008111
253,2074474285,-0.257573,0.450805,0.539845,-0.662573,0.691198,1.190108,-0.789824
254,2074507619,-0.295360,0.474142,0.531205,-0.637006,-0.082035,0.616333,0.291083
255,2074540953,-0.349096,0.487237,0.506903,-0.619504,0.952981,0.290377,0.924011
256,2074574287,-0.417564,0.486678,0.469813,-0.606683,3.129257,0.300033,2.010029
257,2074607621,-0.494187,0.471907,0.425740,-0.593156,2.803868,-1.117896,0.411331
258,2074640955,-0.565383,0.450753,0.384884,-0.573614,2.288469,-1.528612,-0.407047
259,2074674289,-0.624858,0.428724,0.353130,-0.548682,2.298898,-1.811261,-0.019867
260,2074707623,-0.674644,0.403825,0.328092,-0.523585,2.597799,-1.963152,0.397551
261,2074740957,-0.715985,0.375767,0.308092,-0.501248,1.110737,-1.917798,-1.282999
262,2074774291,-0.746831,0.349191,0.297841,-0.481252,1.520632,-1.692059,-1.195949
263,2074807625,-0.764635,0.337450,0.298476,-0.460843,1.631196,-1.437997,1.921242
264,2074840959,-0.776567,0.332156,0.300820,-0.442864,1.129863,-0.948811,0.895813
265,2074874293,-0.779549,0.342727,0.307507,-0.424601,2.065476,-1.330199,1.265312
266,2074907627,-0.779131,0.357944,0.313607,-0.408028,1.695950,-1.676315,0.658447
267,2074940961,-0.779718,0.368683,0.317329,-0.394232,1.039784,-2.011759,0.527226
268,2074974295,-0.781600,0.373310,0.320469,-0.383465,0.321925,-1.998694,-0.038808
269,2075007629,-0.783776,0.373012,0.324496,-0.375852,-0.289310,-1.868292,-0.105084
270,2075040963,-0.784400,0.369880,0.331115,-0.371850,-0.810752,-1.944585,0.254522
271,2075074297,-0.782770,0.365765,0.339880,-0.371448,-1.030589,-1.462002,-0.068127
272,2075107631,-0.776145,0.369785,0.350269,-0.371717,-1.299518,-1.588660,1.917614