Left_Wrist_Acc_X,Left_Wrist_Acc_Y,Left_Wrist_Acc_Z,Right_Wrist_Acc_X,Right_Wrist_Acc_Y,Right_Wrist_Acc_Z,Upper_Leg_Acc_X,Upper_Leg_Acc_Y,Upper_Leg_Acc_Z,Activity
0.756,0.593,0.454,0.713,-0.625,0.582,0.96,-0.039,-0.269,0
0.742,0.65,0.493,0.646,-0.735,0.792,0.965,-0.036,-0.261,0
0.602,0.827,0.619,0.459,-0.801,0.832,0.97,-0.047,-0.252,0
0.447,0.832,0.793,0.226,-0.644,0.852,0.97,-0.064,-0.238,0
0.305,0.702,0.7,-0.126,-0.412,0.532,0.968,-0.049,-0.235,0
0.241,0.654,0.558,0.251,-0.41,0.628,0.965,-0.053,-0.234,0
0.099,0.479,0.615,0.553,-0.43,0.742,1.001,-0.085,-0.161,0
-0.128,0.366,0.777,0.4,-0.344,0.74,0.991,-0.049,-0.164,0
-0.338,0.294,0.917,0.075,-0.378,0.721,0.99,-0.011,-0.181,0
-0.465,0.219,0.982,-0.058,-0.475,0.839,0.977,-0.087,-0.203,0
-0.454,0.174,0.865,-0.045,-0.524,0.981,0.996,-0.048,-0.12,0
-0.416,0.181,0.87,-0.007,-0.524,0.954,0.966,-0.176,-0.061,0
-0.104,0.294,0.857,-0.074,-0.57,1.063,0.949,-0.25,-0.056,0
0.0,0.403,0.903,-0.121,-0.726,1.063,0.993,-0.169,-0.092,0
-0.14,0.395,0.871,-0.058,-0.496,0.762,1.014,-0.123,-0.138,0
-0.335,0.354,0.929,0.261,-0.389,0.764,0.979,-0.225,-0.13,0
-0.549,0.15,0.959,0.495,-0.347,0.665,0.972,-0.21,-0.079,0
-0.618,0.131,1.008,0.24,-0.453,0.626,0.962,-0.233,-0.089,0
-0.646,0.102,0.763,-0.095,-0.523,0.963,0.996,-0.163,-0.009,0
-0.363,0.049,0.498,-0.197,-0.57,1.237,0.992,-0.3,-0.027,0
0.328,0.484,1.136,-0.087,-0.564,1.088,0.978,-0.293,0.009,0
0.185,0.41,1.13,0.028,-0.395,0.813,0.981,-0.26,0.035,0
-0.117,0.322,1.127,0.065,-0.215,0.656,0.992,-0.181,0.054,0
-0.356,0.147,0.915,0.473,-0.482,0.958,0.982,-0.192,0.061,0
-0.371,0.138,0.682,0.206,-0.46,0.884,0.962,-0.192,0.093,0
-0.424,0.217,0.684,-0.247,-0.45,0.918,0.961,-0.184,0.112,0
-0.555,0.1,0.842,-0.533,-0.327,0.997,0.971,-0.177,0.12,0
-0.087,0.387,1.064,-0.412,-0.301,0.958,0.98,-0.153,0.114,0
0.183,0.667,1.146,-0.06,-0.421,0.906,0.977,-0.172,0.115,0
0.021,0.51,0.954,0.329,-0.504,0.902,0.976,-0.194,0.132,0
-0.223,0.292,0.824,0.15,-0.456,0.887,0.969,-0.168,0.137,0
-0.386,0.118,0.854,-0.086,-0.435,0.935,0.977,-0.147,0.146,0
-0.472,0.029,0.798,-0.336,-0.344,0.936,0.984,-0.195,0.125,0
-0.536,0.079,0.783,-0.457,-0.252,0.98,0.967,-0.2,0.143,0
-0.301,0.199,0.877,-0.321,-0.298,0.879,0.966,-0.19,0.161,0
0.068,0.473,1.104,-0.065,-0.247,0.794,0.967,-0.185,0.205,0
-0.084,0.472,0.987,0.283,-0.381,0.754,0.939,-0.214,0.213,0
-0.2,0.399,0.919,0.301,-0.524,0.861,0.892,-0.322,0.258,0
-0.483,0.181,0.823,-0.018,-0.482,0.903,0.908,-0.298,0.306,0
-0.576,0.057,0.868,-0.117,-0.457,0.989,0.958,-0.229,0.281,0
-0.569,0.057,0.85,-0.173,-0.499,1.133,0.92,-0.261,0.265,0
-0.598,0.105,0.774,-0.329,-0.397,1.045,0.928,-0.259,0.261,0
-0.529,-0.059,0.62,-0.338,-0.229,0.843,0.906,-0.292,0.279,0
-0.032,0.14,0.869,-0.141,-0.293,0.734,0.906,-0.272,0.315,0
0.172,0.277,0.952,0.135,-0.392,0.827,0.949,-0.302,0.272,0
0.223,0.429,1.045,0.32,-0.459,0.976,0.92,-0.354,0.292,0
0.128,0.407,1.212,0.009,-0.31,0.88,0.855,-0.336,0.38,0
-0.057,0.414,1.158,-0.104,-0.301,0.958,0.827,-0.358,0.392,0
-0.205,0.289,1.097,-0.103,-0.226,0.967,0.827,-0.333,0.39,0
-0.258,0.164,0.864,-0.169,-0.296,0.91,0.861,-0.305,0.387,0
-0.325,0.122,0.713,-0.103,-0.459,1.014,0.847,-0.343,0.395,0
-0.532,0.004,0.589,-0.046,-0.422,1.116,0.818,-0.384,0.41,0
-0.304,0.071,0.774,0.187,-0.252,0.924,0.771,-0.39,0.457,0
0.049,0.262,1.029,0.418,-0.48,0.776,0.824,-0.364,0.456,0
0.139,0.363,1.106,0.505,-0.608,0.686,0.886,-0.341,0.454,0
0.126,0.485,1.128,0.344,-0.456,0.749,0.866,-0.347,0.467,0
-0.145,0.415,1.067,0.414,-0.422,0.946,0.773,-0.332,0.511,0
-0.212,0.166,0.949,0.344,-0.435,1.073,0.724,-0.372,0.516,0
-0.324,0.113,0.847,0.23,-0.481,1.037,0.751,-0.358,0.516,0
-0.374,0.114,0.846,0.114,-0.323,0.961,0.787,-0.332,0.521,0
-0.433,0.167,0.903,0.151,-0.394,0.835,0.789,-0.355,0.518,0
-0.45,0.055,0.867,0.304,-0.331,0.744,0.77,-0.384,0.524,0
-0.225,0.097,0.779,0.533,-0.347,0.679,0.729,-0.421,0.53,0
0.04,0.237,0.947,0.653,-0.315,0.668,0.736,-0.42,0.547,0
0.219,0.439,1.039,0.796,-0.334,0.775,0.784,-0.351,0.55,0
0.152,0.52,1.06,0.808,-0.377,0.886,0.765,-0.356,0.548,0
-0.012,0.457,1.035,0.62,-0.514,0.692,0.701,-0.41,0.544,0
-0.104,0.312,0.982,0.251,-0.515,0.68,0.708,-0.383,0.567,0
-0.208,0.106,0.878,0.298,-0.421,0.71,0.732,-0.416,0.565,0
-0.326,-0.033,0.85,0.457,-0.406,0.73,0.75,-0.403,0.575,0
-0.197,0.066,0.662,0.496,-0.456,0.687,0.764,-0.402,0.569,0
0.262,0.184,0.648,0.532,-0.52,0.794,0.74,-0.396,0.567,0
0.573,0.36,0.975,0.49,-0.403,0.752,0.726,-0.408,0.552,0
0.458,0.376,0.97,0.578,-0.353,0.673,0.708,-0.416,0.558,0
0.499,0.412,0.875,0.677,-0.59,0.26,0.669,-0.422,0.61,0
0.604,0.59,0.96,0.896,-0.385,0.577,0.628,-0.43,0.607,0
0.366,0.438,1.001,0.854,-0.341,0.628,0.66,-0.411,0.627,0
0.141,0.28,0.917,0.794,-0.4,0.707,0.709,-0.387,0.628,0
0.013,0.215,0.729,0.683,-0.427,0.647,0.714,-0.41,0.625,0
0.077,0.234,0.667,0.664,-0.564,0.752,0.679,-0.439,0.59,0
0.384,0.057,0.544,0.49,-0.609,0.804,0.674,-0.417,0.614,0
0.962,0.197,0.782,0.314,-0.583,0.653,0.671,-0.379,0.627,0
0.994,0.478,0.937,0.249,-0.345,0.593,0.708,-0.409,0.638,0
0.767,0.307,0.811,0.386,-0.21,0.767,0.654,-0.452,0.609,0
0.725,0.321,0.816,0.708,-0.091,0.499,0.61,-0.413,0.611,0
0.695,0.276,0.738,1.058,-0.36,0.551,0.634,-0.405,0.641,0
0.467,0.113,0.746,0.912,-0.351,0.606,0.616,-0.443,0.646,0
0.389,0.113,0.7,0.711,-0.274,0.638,0.666,-0.398,0.673,0
0.404,0.218,0.736,0.715,-0.249,0.701,0.655,-0.425,0.677,0
0.736,0.0,0.563,0.767,-0.24,0.647,0.699,-0.443,0.688,0
0.989,0.43,0.707,0.735,-0.203,0.585,0.628,-0.439,0.678,0
0.84,0.024,0.546,0.686,-0.215,0.556,0.573,-0.479,0.644,0
0.852,0.166,0.618,0.944,-0.21,0.467,0.567,-0.436,0.662,0
0.905,0.291,0.61,1.188,-0.393,0.328,0.559,-0.441,0.704,0
0.831,0.206,0.75,1.075,-0.282,0.433,0.561,-0.451,0.729,0
0.46,0.193,0.789,0.916,-0.206,0.385,0.556,-0.422,0.735,0
0.364,0.148,0.779,0.823,-0.419,0.303,0.511,-0.414,0.72,0
0.454,0.268,0.743,0.614,-0.449,0.392,0.527,-0.439,0.701,0
0.436,0.257,0.589,0.588,-0.331,0.48,0.507,-0.42,0.716,0
0.593,0.039,0.422,0.672,-0.264,0.518,0.5,-0.438,0.721,0
1.321,0.057,0.584,0.732,-0.239,0.48,0.514,-0.437,0.736,0
0.998,0.06,0.469,0.827,-0.238,0.364,0.486,-0.442,0.747,0
0.91,0.119,0.6,0.903,-0.251,0.286,0.502,-0.442,0.757,0
1.048,0.152,0.417,1.002,-0.175,0.308,0.523,-0.448,0.759,0
0.932,0.344,0.439,1.13,-0.194,0.271,0.521,-0.433,0.776,0
0.792,0.156,0.539,1.149,-0.221,0.257,0.483,-0.428,0.746,0
0.695,0.063,0.613,1.048,-0.25,0.335,0.53,-0.4,0.768,0
0.757,0.231,0.65,0.956,-0.268,0.311,0.506,-0.459,0.772,0
0.709,0.261,0.491,0.805,-0.266,0.319,0.481,-0.463,0.754,0
1.006,-0.05,0.291,0.815,-0.292,0.491,0.473,-0.449,0.757,0
0.987,0.261,0.377,0.926,-0.327,0.541,0.464,-0.411,0.761,0
0.915,0.055,0.407,0.926,-0.356,0.593,0.462,-0.546,0.802,0
0.975,0.109,0.416,0.845,-0.392,0.565,0.375,-0.465,0.814,0
1.028,0.229,0.457,0.697,-0.406,0.523,0.443,-0.386,0.825,0
0.934,0.197,0.465,0.602,-0.305,0.495,0.399,-0.426,0.811,0
0.754,0.117,0.534,0.681,-0.248,0.417,0.431,-0.42,0.794,0
0.709,0.225,0.589,0.943,-0.37,0.469,0.377,-0.442,0.756,0
0.798,0.249,0.542,0.887,-0.329,0.57,0.352,-0.465,0.781,0
0.83,0.204,0.506,0.824,-0.421,0.664,0.364,-0.488,0.822,0
0.906,0.159,0.404,0.763,-0.427,0.755,0.345,-0.501,0.856,0
0.468,0.092,0.211,0.646,-0.442,0.746,0.333,-0.411,0.868,0
0.863,0.09,0.393,0.569,-0.491,0.834,0.341,-0.456,0.879,0
0.88,0.204,0.425,0.328,-0.407,0.738,0.335,-0.451,0.93,0
0.896,0.194,0.497,0.314,-0.457,0.666,0.326,-0.463,0.934,0
0.777,0.15,0.522,0.36,-0.45,0.645,0.311,-0.46,0.878,0
0.733,0.063,0.528,0.532,-0.561,0.538,0.274,-0.353,0.883,0
0.753,0.138,0.507,0.546,-0.563,0.649,0.224,-0.362,0.908,0
0.849,0.176,0.533,0.38,-0.476,0.675,0.243,-0.436,0.913,0
0.897,0.167,0.602,0.441,-0.573,0.713,0.178,-0.283,0.873,0
0.927,0.184,0.512,0.388,-0.6,0.729,0.18,-0.353,0.921,0
0.868,0.158,0.477,0.318,-0.562,0.834,0.22,-0.322,0.96,0
0.806,0.108,0.53,0.293,-0.542,0.875,0.26,-0.288,0.989,0
0.81,0.165,0.595,0.199,-0.462,0.824,0.214,-0.386,0.903,0
0.709,0.197,0.657,0.109,-0.364,0.755,0.241,-0.356,0.842,0
0.705,0.153,0.744,0.313,-0.455,0.722,0.366,-0.492,0.875,0
0.772,0.064,0.686,0.534,-0.568,0.8,0.37,-0.475,0.834,0
0.88,0.094,0.616,0.476,-0.53,0.759,0.403,-0.453,0.824,0
0.853,0.076,0.538,0.335,-0.497,0.777,0.394,-0.467,0.825,0
0.944,0.171,0.638,0.324,-0.508,0.772,0.394,-0.522,0.794,0
1.007,0.338,0.811,0.315,-0.519,0.772,0.384,-0.497,0.793,0
0.667,0.105,0.727,0.237,-0.463,0.768,0.447,-0.47,0.8,0
0.382,-0.065,0.802,0.251,-0.458,0.679,0.526,-0.513,0.789,0
0.27,-0.052,0.821,0.441,-0.496,0.78,0.489,-0.488,0.771,0
0.34,0.0,0.844,0.515,-0.521,0.698,0.537,-0.491,0.729,0
0.394,-0.029,0.55,0.533,-0.502,0.684,0.526,-0.442,0.727,0
0.687,-0.146,0.546,0.563,-0.527,0.749,0.573,-0.391,0.727,0
0.943,-0.25,0.827,0.504,-0.516,0.742,0.557,-0.521,0.668,0
0.741,0.151,0.756,0.45,-0.469,0.723,0.564,-0.494,0.688,0
0.779,0.189,0.838,0.41,-0.397,0.763,0.56,-0.432,0.675,0
0.831,0.112,0.746,0.621,-0.339,0.649,0.548,-0.44,0.67,0
0.675,-0.09,0.843,0.879,-0.529,0.68,0.585,-0.435,0.656,0
0.514,-0.104,0.865,0.847,-0.399,0.502,0.574,-0.455,0.648,0
0.39,0.057,0.82,0.688,-0.338,0.48,0.566,-0.461,0.65,0
0.431,0.077,0.833,0.566,-0.37,0.603,0.626,-0.458,0.616,0
0.531,0.08,0.779,0.484,-0.318,0.744,0.611,-0.406,0.636,0
0.745,0.055,0.74,0.546,-0.338,0.715,0.599,-0.493,0.601,0
0.91,0.164,0.751,0.683,-0.277,0.507,0.656,-0.425,0.622,0
0.764,0.149,0.799,0.992,-0.302,0.539,0.701,-0.466,0.605,0
0.695,0.134,0.807,0.998,-0.22,0.429,0.724,-0.459,0.631,0
0.582,0.071,0.88,0.998,-0.257,0.441,0.668,-0.412,0.626,0
0.49,0.024,0.833,0.985,-0.29,0.527,0.66,-0.386,0.604,0
0.408,0.031,0.849,0.937,-0.401,0.564,0.657,-0.408,0.615,0
0.367,0.097,0.931,0.712,-0.47,0.618,0.652,-0.431,0.593,0
0.351,0.135,0.818,0.545,-0.471,0.708,0.71,-0.361,0.584,0
0.388,0.051,0.719,0.406,-0.42,0.705,0.707,-0.359,0.566,0
0.725,0.049,0.716,0.359,-0.449,0.568,0.692,-0.413,0.549,0
0.836,0.156,0.797,0.534,-0.348,0.59,0.762,-0.394,0.538,0
0.744,0.156,0.765,0.732,-0.487,0.519,0.765,-0.371,0.551,0
0.67,0.024,0.846,0.689,-0.452,0.552,0.766,-0.386,0.51,0
0.58,0.043,0.891,0.615,-0.475,0.637,0.797,-0.361,0.508,0
0.454,0.027,0.877,0.582,-0.569,0.77,0.805,-0.401,0.506,0
0.402,-0.015,0.884,0.47,-0.544,0.819,0.782,-0.357,0.5,0
0.355,0.022,0.906,0.327,-0.481,0.89,0.79,-0.339,0.481,0
0.348,0.084,0.852,0.183,-0.496,0.75,0.826,-0.333,0.458,0
0.388,-0.056,0.863,0.202,-0.508,0.624,0.759,-0.374,0.479,0
0.555,0.098,0.853,0.714,-0.392,0.486,0.826,-0.364,0.427,0
0.643,0.12,0.798,0.879,-0.35,0.652,0.895,-0.307,0.398,0
0.619,0.116,0.83,0.682,-0.325,0.63,0.849,-0.329,0.382,0
0.588,0.107,0.83,0.713,-0.329,0.822,0.815,-0.404,0.411,0
0.533,0.125,0.883,0.618,-0.305,0.826,0.847,-0.324,0.391,0
0.42,0.055,0.936,0.577,-0.289,0.824,0.881,-0.298,0.424,0
0.264,0.031,1.065,0.576,-0.313,0.643,0.904,-0.392,0.29,0
0.14,0.058,0.988,0.545,-0.175,0.617,0.936,-0.235,0.25,0
0.066,0.0,0.844,0.569,-0.169,0.702,0.946,-0.3,0.242,0
0.071,0.096,0.743,0.683,-0.072,0.56,0.934,-0.327,0.27,0
0.14,0.25,0.822,0.865,-0.299,0.673,0.907,-0.287,0.269,0
0.356,0.261,0.969,0.86,-0.335,0.785,0.891,-0.298,0.236,0
0.494,0.295,0.897,0.773,-0.219,0.68,0.885,-0.302,0.208,0
0.454,0.269,0.918,0.746,-0.258,0.577,0.924,-0.265,0.153,0
0.442,0.307,0.969,0.725,-0.322,0.59,0.94,-0.285,0.176,0
0.415,0.294,1.088,0.776,-0.28,0.653,0.929,-0.29,0.182,0
0.258,0.22,0.996,0.774,-0.281,0.717,0.927,-0.308,0.161,0
0.096,0.132,0.964,0.723,-0.358,0.689,0.97,-0.26,0.144,0
0.043,0.097,1.026,0.583,-0.462,0.75,0.933,-0.337,0.151,0
0.008,0.178,0.842,0.428,-0.508,0.627,0.962,-0.286,0.144,0
0.234,0.095,0.819,0.451,-0.428,0.645,0.967,-0.303,0.113,0
0.449,0.096,0.921,0.562,-0.43,0.686,0.98,-0.268,0.068,0
0.559,0.142,0.916,0.609,-0.38,0.667,0.938,-0.299,0.044,0
0.454,0.125,0.843,0.721,-0.369,0.702,0.978,-0.277,0.044,0
0.498,0.168,0.831,0.716,-0.348,0.705,0.964,-0.219,-0.024,0
0.473,0.228,0.915,0.711,-0.462,0.711,0.977,-0.179,-0.027,0
0.399,0.164,0.927,0.706,-0.527,0.764,0.948,-0.198,-0.035,0
0.31,0.195,0.994,0.366,-0.383,0.806,0.962,-0.161,0.006,0
0.214,0.167,1.046,0.305,-0.324,0.838,0.978,-0.157,0.015,0
0.092,0.21,1.052,0.509,-0.401,0.841,0.99,-0.129,-0.018,0
-0.032,0.244,0.976,0.721,-0.432,0.645,0.989,-0.081,-0.015,0
-0.015,0.226,0.82,0.728,-0.481,0.745,0.985,-0.117,-0.024,0
0.119,0.117,0.807,0.806,-0.604,0.834,0.985,-0.074,-0.031,0
0.403,0.192,0.973,0.343,-0.709,0.583,0.969,-0.076,-0.056,0
0.403,0.255,1.063,0.176,-0.188,0.771,0.997,-0.082,-0.021,0
0.416,0.284,1.053,0.278,-0.171,0.756,1.002,-0.07,-0.053,0
0.293,0.234,0.929,0.591,-0.614,0.752,1.021,-0.05,0.006,0
0.186,0.138,0.962,0.49,-0.474,0.775,0.993,-0.029,-0.097,0
0.027,0.1,0.979,0.439,-0.471,0.779,1.01,-0.063,-0.052,0
-0.079,0.183,1.034,0.386,-0.514,0.828,0.993,-0.052,-0.091,0
-0.152,0.158,0.904,0.302,-0.448,0.854,0.969,-0.027,-0.136,0
-0.197,0.146,0.864,0.111,-0.471,0.664,0.968,-0.049,-0.198,0
-0.032,0.146,0.854,0.165,-0.51,0.649,0.968,-0.083,-0.219,0
0.194,0.302,0.708,0.501,-0.628,0.841,0.972,-0.128,-0.263,0
0.376,0.307,0.797,0.593,-0.654,0.823,0.951,-0.126,-0.294,0
0.523,0.238,0.725,0.506,-0.494,0.86,0.941,-0.124,-0.313,0
0.673,0.707,0.713,0.381,-0.51,0.754,0.929,-0.115,-0.322,0
0.665,0.583,0.795,0.282,-0.485,0.716,0.95,-0.14,-0.304,0
0.581,0.59,0.836,0.268,-0.577,0.753,0.947,-0.148,-0.319,0
0.484,0.481,0.962,0.23,-0.626,0.816,0.931,-0.129,-0.33,0
0.337,0.32,0.97,0.132,-0.551,0.726,0.927,-0.183,-0.342,0
0.197,0.197,0.87,0.179,-0.544,0.689,0.916,-0.15,-0.338,0
0.01,0.076,0.825,0.267,-0.523,0.748,0.939,-0.173,-0.319,0
-0.065,0.057,0.867,0.367,-0.563,0.73,0.928,-0.136,-0.34,0
0.024,0.087,0.943,0.368,-0.667,0.828,0.949,-0.136,-0.298,0
0.115,0.103,0.93,0.28,-0.616,0.877,0.955,-0.117,-0.265,0
0.22,0.263,1.04,0.169,-0.458,0.888,0.952,-0.051,-0.259,0
0.11,0.304,1.069,0.075,-0.385,0.793,0.974,-0.041,-0.242,0
-0.259,-0.003,0.951,-0.007,-0.349,0.771,0.969,0.013,-0.221,0
-0.404,0.038,0.879,0.22,-0.582,0.877,0.978,-0.025,-0.207,0
-0.384,0.064,0.815,0.339,-0.64,0.758,0.988,-0.001,-0.159,0
-0.354,0.123,0.853,0.388,-0.588,0.865,1.012,0.003,-0.148,0
-0.26,0.178,0.875,0.27,-0.511,0.844,0.981,-0.001,-0.138,0
-0.038,0.229,0.842,0.174,-0.574,0.797,0.99,0.015,-0.134,0
0.089,0.208,0.957,0.113,-0.603,0.741,0.98,0.007,-0.129,0
0.208,0.302,0.948,-0.012,-0.617,0.853,0.989,0.013,-0.085,0
0.298,0.356,0.977,-0.091,-0.769,0.829,1.006,0.008,-0.074,0
0.25,0.316,1.002,-0.16,-0.727,0.723,1.01,0.009,-0.063,0
0.169,0.279,1.033,-0.175,-0.584,0.663,0.99,0.017,-0.078,0
0.911,0.276,0.322,0.911,-0.382,0.113,0.923,-0.076,-0.331,1
0.908,0.278,0.322,0.91,-0.392,0.118,0.92,-0.067,-0.403,1
0.91,0.271,0.324,0.901,-0.514,0.094,0.953,-0.022,-0.325,1
0.915,0.264,0.323,0.91,-0.442,0.181,0.936,-0.063,-0.358,1
0.94,0.289,0.337,0.941,-0.375,0.218,0.948,-0.083,-0.314,1
0.891,0.278,0.333,0.957,-0.33,0.209,0.938,-0.067,-0.318,1
0.885,0.274,0.318,0.896,-0.309,0.176,0.937,-0.049,-0.315,1
0.899,0.276,0.315,0.865,-0.292,0.172,0.945,-0.054,-0.313,1
0.904,0.267,0.327,0.903,-0.339,0.171,0.942,-0.045,-0.314,1
0.906,0.267,0.333,0.945,-0.379,0.18,0.938,-0.022,-0.331,1
0.912,0.276,0.323,0.927,-0.381,0.193,0.956,-0.059,-0.314,1
0.911,0.282,0.329,0.931,-0.356,0.203,0.951,-0.044,-0.301,1
0.902,0.285,0.331,0.92,-0.367,0.171,0.946,-0.038,-0.313,1
0.922,0.28,0.338,0.919,-0.366,0.174,0.956,-0.026,-0.302,1
0.908,0.274,0.324,0.917,-0.344,0.185,0.975,-0.04,-0.238,1
0.904,0.279,0.313,0.936,-0.357,0.169,0.956,-0.021,-0.262,1
0.903,0.279,0.316,0.92,-0.362,0.175,0.965,-0.016,-0.265,1
0.877,0.299,0.327,0.927,-0.349,0.17,0.959,0.019,-0.261,1
0.924,0.361,0.379,0.917,-0.355,0.161,0.963,0.007,-0.266,1
0.923,0.353,0.459,0.921,-0.354,0.175,0.963,-0.001,-0.278,1
0.942,0.339,0.469,0.925,-0.347,0.186,0.968,-0.012,-0.246,1
0.869,0.37,0.406,0.922,-0.331,0.192,0.97,-0.015,-0.248,1
0.79,0.326,0.37,0.927,-0.322,0.184,0.969,-0.025,-0.255,1
0.749,0.32,0.353,0.913,-0.312,0.163,0.964,-0.015,-0.253,1
0.759,0.342,0.364,0.919,-0.317,0.146,0.963,-0.024,-0.255,1
0.8,0.329,0.402,0.921,-0.34,0.152,0.955,-0.039,-0.272,1
0.865,0.354,0.456,0.928,-0.347,0.175,0.965,-0.012,-0.254,1
0.884,0.414,0.414,0.918,-0.366,0.184,0.957,-0.017,-0.263,1
0.891,0.344,0.366,0.928,-0.366,0.182,0.966,-0.022,-0.247,1
0.882,0.33,0.355,0.919,-0.369,0.167,0.976,-0.035,-0.223,1
0.904,0.321,0.363,0.922,-0.364,0.166,0.975,-0.03,-0.221,1
0.942,0.271,0.374,0.917,-0.363,0.167,0.967,-0.038,-0.224,1
0.92,0.269,0.35,0.92,-0.36,0.166,0.971,-0.041,-0.222,1
0.902,0.253,0.326,0.924,-0.347,0.159,0.979,-0.046,-0.215,1
0.904,0.288,0.308,0.92,-0.343,0.15,0.965,-0.043,-0.237,1
0.911,0.304,0.307,0.932,-0.408,0.151,0.966,-0.047,-0.248,1
0.926,0.272,0.327,0.951,-0.59,0.16,0.966,-0.05,-0.265,1
0.911,0.246,0.321,0.875,-0.551,0.203,0.961,-0.044,-0.28,1
0.919,0.234,0.321,0.814,-0.503,0.244,0.95,-0.044,-0.289,1
0.92,0.23,0.322,0.769,-0.456,0.253,0.945,-0.049,-0.303,1
0.907,0.251,0.313,0.72,-0.427,0.231,0.944,-0.052,-0.307,1
0.919,0.266,0.304,0.723,-0.413,0.217,0.942,-0.048,-0.326,1
0.917,0.277,0.308,0.838,-0.452,0.214,0.935,-0.035,-0.351,1
0.918,0.253,0.328,0.927,-0.474,0.196,0.937,-0.063,-0.337,1
0.911,0.249,0.328,0.992,-0.472,0.191,0.936,-0.045,-0.339,1
0.901,0.264,0.32,0.97,-0.452,0.177,0.933,-0.074,-0.353,1
0.9,0.255,0.342,0.915,-0.416,0.164,0.94,-0.072,-0.329,1
0.939,0.264,0.363,0.928,-0.371,0.16,0.931,-0.08,-0.344,1
0.88,0.245,0.404,0.928,-0.361,0.146,0.93,-0.062,-0.348,1
0.874,0.301,0.315,0.93,-0.332,0.128,0.942,-0.06,-0.329,1
0.899,0.293,0.341,0.934,-0.354,0.109,0.949,-0.066,-0.317,1
0.906,0.271,0.353,0.899,-0.353,0.111,0.939,-0.052,-0.329,1
0.895,0.238,0.362,0.905,-0.388,0.101,0.947,-0.058,-0.31,1
0.917,0.215,0.366,0.937,-0.421,0.101,0.95,-0.052,-0.303,1
0.897,0.21,0.349,0.922,-0.437,0.12,0.946,-0.048,-0.307,1
0.894,0.212,0.341,0.946,-0.339,0.167,0.95,-0.042,-0.293,1
0.923,0.212,0.356,0.971,-0.324,0.184,0.949,-0.038,-0.303,1
0.934,0.211,0.366,0.929,-0.303,0.171,0.957,-0.029,-0.286,1
0.906,0.246,0.375,0.894,-0.258,0.175,0.954,-0.054,-0.291,1
0.894,0.241,0.37,0.867,-0.293,0.157,0.954,-0.036,-0.288,1
0.917,0.294,0.338,0.925,-0.305,0.13,0.965,-0.043,-0.279,1
0.891,0.34,0.317,0.951,-0.481,0.335,0.959,-0.038,-0.283,1
0.882,0.354,0.281,0.825,-0.437,0.229,0.951,-0.031,-0.3,1
0.924,0.384,0.257,0.942,-0.432,0.248,0.954,-0.044,-0.288,1
0.954,0.378,0.256,0.988,-0.312,0.225,0.95,-0.04,-0.297,1
0.967,0.349,0.26,0.908,-0.269,0.173,0.951,-0.054,-0.293,1
0.935,0.305,0.244,0.87,-0.28,0.149,0.951,-0.057,-0.296,1
0.886,0.31,0.231,0.888,-0.389,0.19,0.952,-0.045,-0.308,1
0.904,0.277,0.262,0.91,-0.386,0.225,0.957,-0.068,-0.283,1
0.893,0.25,0.269,0.92,-0.356,0.327,0.952,-0.067,-0.292,1
0.898,0.288,0.274,0.963,-0.353,0.177,0.94,-0.063,-0.332,1
0.959,0.331,0.29,0.879,-0.351,0.121,0.946,-0.072,-0.314,1
0.95,0.369,0.285,0.908,-0.372,0.137,0.948,-0.068,-0.3,1
0.903,0.391,0.273,0.921,-0.363,0.16,0.944,-0.082,-0.308,1
0.918,0.36,0.276,0.912,-0.352,0.165,0.942,-0.082,-0.327,1
0.958,0.333,0.284,0.911,-0.355,0.171,0.933,-0.081,-0.334,1
0.941,0.285,0.3,0.938,-0.359,0.16,0.942,-0.097,-0.323,1
0.915,0.222,0.294,0.921,-0.333,0.146,0.937,-0.088,-0.342,1
0.875,0.224,0.278,0.924,-0.329,0.125,0.931,-0.095,-0.351,1
0.893,0.25,0.285,0.918,-0.341,0.116,0.929,-0.094,-0.35,1
0.921,0.274,0.295,0.949,-0.352,0.106,0.93,-0.101,-0.352,1
0.936,0.304,0.309,0.935,-0.352,0.103,0.931,-0.104,-0.348,1
0.922,0.3,0.319,0.908,-0.347,0.114,0.924,-0.111,-0.353,1
0.914,0.296,0.308,0.928,-0.367,0.121,0.93,-0.1,-0.347,1
0.93,0.261,0.319,0.925,-0.373,0.118,0.936,-0.092,-0.343,1
0.92,0.246,0.328,0.933,-0.376,0.113,0.93,-0.083,-0.36,1
0.918,0.23,0.328,0.91,-0.373,0.108,0.927,-0.086,-0.359,1
0.896,0.233,0.319,0.925,-0.386,0.118,0.93,-0.105,-0.344,1
0.922,0.249,0.33,0.93,-0.385,0.132,0.941,-0.066,-0.333,1
0.909,0.249,0.333,0.912,-0.379,0.133,0.938,-0.07,-0.341,1
0.908,0.25,0.338,0.937,-0.391,0.13,0.94,-0.055,-0.331,1
0.897,0.254,0.341,0.922,-0.37,0.124,0.955,-0.03,-0.309,1
0.936,0.271,0.351,0.949,-0.328,0.14,0.953,-0.034,-0.286,1
0.879,0.25,0.352,0.941,-0.293,0.118,0.954,-0.035,-0.311,1
0.906,0.276,0.331,0.897,-0.311,0.06,0.962,-0.0,-0.258,1
0.907,0.286,0.353,0.905,-0.318,0.022,0.964,-0.008,-0.273,1
0.9,0.278,0.338,0.896,-0.392,-0.007,0.953,0.018,-0.273,1
0.925,0.286,0.324,0.91,-0.449,-0.021,0.965,0.021,-0.27,1
0.935,0.275,0.316,0.898,-0.472,-0.012,0.96,0.023,-0.273,1
0.903,0.278,0.313,0.912,-0.332,0.086,0.962,0.038,-0.287,1
0.894,0.3,0.324,0.916,-0.404,0.095,0.97,0.041,-0.281,1
0.87,0.279,0.341,0.917,-0.401,0.099,0.956,0.027,-0.268,1
0.902,0.28,0.347,0.912,-0.398,0.08,0.966,0.057,-0.279,1
0.887,0.276,0.335,0.917,-0.419,0.059,0.953,0.063,-0.287,1
0.895,0.292,0.308,0.89,-0.407,0.073,0.964,0.036,-0.273,1
0.909,0.297,0.334,0.925,-0.468,0.07,0.96,0.032,-0.286,1
0.934,0.387,0.346,0.966,-0.393,0.1,0.949,0.029,-0.304,1
0.889,0.462,0.351,0.915,-0.295,0.135,0.958,0.012,-0.288,1
0.853,0.507,0.346,0.92,-0.228,0.173,0.951,0.002,-0.29,1
0.853,0.494,0.362,0.905,-0.336,0.182,0.946,-0.008,-0.304,1
0.837,0.428,0.397,0.933,-0.224,0.235,0.961,-0.021,-0.296,1
0.801,0.466,0.403,0.922,-0.257,0.243,0.957,-0.03,-0.297,1
0.723,0.514,0.442,0.929,-0.284,0.257,0.932,-0.032,-0.337,1
0.638,0.577,0.457,0.923,-0.27,0.264,0.939,-0.026,-0.339,1
0.584,0.597,0.463,0.929,-0.259,0.245,0.953,-0.056,-0.306,1
0.561,0.534,0.492,0.945,-0.282,0.234,0.937,-0.043,-0.333,1
0.633,0.443,0.52,0.929,-0.266,0.251,0.958,-0.056,-0.321,1
0.706,0.394,0.545,0.923,-0.268,0.268,0.94,-0.042,-0.337,1
0.757,0.299,0.436,0.912,-0.268,0.256,0.943,-0.015,-0.333,1
0.976,0.21,0.4,0.926,-0.275,0.245,0.948,-0.021,-0.322,1
1.088,0.317,0.375,0.921,-0.267,0.273,0.946,-0.022,-0.307,1
0.946,0.457,0.282,0.925,-0.294,0.291,0.94,-0.086,-0.327,1
0.885,0.335,0.323,0.921,-0.281,0.281,0.95,-0.051,-0.301,1
0.914,0.313,0.345,0.932,-0.277,0.274,0.937,-0.02,-0.326,1
0.939,0.253,0.355,0.907,-0.275,0.296,0.956,0.035,-0.308,1
0.926,0.215,0.339,0.934,-0.259,0.273,0.954,-0.016,-0.292,1
0.899,0.215,0.305,0.913,-0.287,0.269,0.96,-0.008,-0.282,1
0.893,0.237,0.287,0.937,-0.2,0.348,0.956,0.021,-0.285,1
0.897,0.271,0.293,0.936,-0.194,0.326,0.975,0.018,-0.25,1
0.912,0.282,0.313,0.927,-0.183,0.233,0.979,0.057,-0.245,1
0.921,0.287,0.337,0.881,-0.249,0.253,0.967,0.04,-0.236,1
0.915,0.287,0.348,0.93,-0.307,0.351,0.965,0.02,-0.229,1
0.917,0.272,0.344,0.958,-0.381,0.297,0.963,0.018,-0.233,1
0.922,0.265,0.324,0.925,-0.351,0.192,0.981,-0.003,-0.206,1
0.914,0.253,0.309,0.962,-0.336,0.189,0.974,-0.007,-0.205,1
0.91,0.247,0.309,1.03,-0.343,0.206,0.968,-0.011,-0.229,1
0.912,0.253,0.311,1.053,-0.325,0.327,0.971,-0.016,-0.241,1
0.909,0.259,0.323,0.629,-0.222,0.292,0.971,-0.018,-0.24,1
0.912,0.27,0.332,0.512,-0.219,0.174,0.969,-0.02,-0.252,1
0.907,0.269,0.334,1.078,-0.355,0.031,0.967,-0.03,-0.25,1
0.903,0.278,0.333,1.138,-0.396,0.15,0.962,-0.022,-0.26,1
0.924,0.279,0.335,0.898,-0.289,0.267,0.965,-0.047,-0.259,1
0.924,0.249,0.33,0.892,-0.219,0.256,0.973,-0.042,-0.265,1
0.918,0.232,0.318,0.979,-0.352,0.209,0.944,-0.032,-0.309,1
0.917,0.228,0.321,1.002,-0.387,0.159,0.949,-0.065,-0.308,1
0.898,0.244,0.318,0.86,-0.391,0.122,0.949,-0.061,-0.301,1
0.912,0.262,0.33,0.949,-0.395,0.111,0.946,-0.1,-0.316,1
0.912,0.271,0.338,0.989,-0.38,0.117,0.93,-0.1,-0.338,1
0.909,0.277,0.336,0.881,-0.347,0.121,0.94,-0.126,-0.313,1
0.892,0.271,0.325,0.847,-0.311,0.11,0.935,-0.124,-0.318,1
0.908,0.286,0.33,0.943,-0.292,0.107,0.932,-0.141,-0.323,1
0.887,0.294,0.338,0.951,-0.339,0.13,0.938,-0.15,-0.314,1
0.921,0.302,0.342,0.917,-0.32,0.152,0.932,-0.136,-0.338,1
0.911,0.297,0.334,0.912,-0.373,0.136,0.922,-0.158,-0.337,1
0.939,0.264,0.338,0.947,-0.416,0.141,0.94,-0.135,-0.314,1
0.937,0.313,0.329,0.936,-0.419,0.138,0.922,-0.154,-0.342,1
0.905,0.268,0.318,0.934,-0.392,0.129,0.923,-0.139,-0.342,1
0.874,0.256,0.313,0.949,-0.367,0.108,0.929,-0.145,-0.343,1
0.866,0.257,0.315,0.937,-0.33,0.114,0.923,-0.109,-0.351,1
0.873,0.264,0.327,0.903,-0.294,0.115,0.932,-0.113,-0.346,1
0.896,0.28,0.33,0.91,-0.312,0.121,0.936,-0.095,-0.346,1
0.936,0.292,0.343,0.921,-0.349,0.121,0.935,-0.069,-0.345,1
0.904,0.298,0.36,0.938,-0.407,0.131,0.929,-0.069,-0.352,1
0.906,0.325,0.357,0.926,-0.399,0.157,0.942,-0.052,-0.34,1
0.917,0.3,0.356,0.906,-0.393,0.152,0.943,-0.051,-0.321,1
0.911,0.285,0.325,0.946,-0.397,0.15,0.955,-0.05,-0.311,1
0.891,0.274,0.354,0.933,-0.346,0.164,0.945,-0.02,-0.316,1
0.973,0.262,0.39,0.919,-0.318,0.158,0.952,-0.01,-0.305,1
0.922,0.24,0.319,0.907,-0.314,0.146,0.953,-0.009,-0.294,1
0.903,0.263,0.261,0.92,-0.336,0.144,0.959,-0.024,-0.274,1
0.888,0.276,0.251,0.451,-0.172,0.075,0.955,-0.02,-0.272,1
0.914,0.308,0.269,0.915,-0.354,0.16,0.963,-0.01,-0.261,1
0.918,0.304,0.288,0.939,-0.362,0.166,0.961,-0.019,-0.261,1
0.902,0.273,0.313,0.938,-0.333,0.175,0.972,-0.02,-0.238,1
0.927,0.273,0.328,0.947,-0.32,0.161,0.974,-0.036,-0.241,1
0.92,0.282,0.327,0.931,-0.302,0.157,0.971,-0.017,-0.248,1
0.921,0.277,0.311,0.933,-0.31,0.159,0.962,-0.026,-0.272,1
0.92,0.296,0.286,0.909,-0.306,0.18,0.966,-0.03,-0.252,1
0.917,0.312,0.278,0.914,-0.376,0.155,0.953,-0.03,-0.272,1
0.905,0.297,0.269,0.949,-0.359,0.209,0.957,-0.042,-0.272,1
0.923,0.291,0.269,0.924,-0.361,0.232,0.97,-0.05,-0.254,1
0.892,0.276,0.261,0.872,-0.367,0.18,0.954,-0.034,-0.297,1
0.948,0.291,0.239,0.904,-0.382,0.198,0.953,-0.064,-0.299,1
0.926,0.303,0.225,0.955,-0.341,0.236,0.945,-0.054,-0.31,1
0.92,0.319,0.216,0.927,-0.294,0.206,0.944,-0.085,-0.305,1
0.916,0.351,0.237,0.917,-0.331,0.187,0.949,-0.089,-0.302,1
0.921,0.345,0.26,0.898,-0.33,0.175,0.943,-0.122,-0.309,1
0.932,0.336,0.271,0.92,-0.33,0.175,0.937,-0.128,-0.329,1
0.929,0.334,0.258,0.967,-0.322,0.211,0.935,-0.134,-0.319,1
0.949,0.326,0.262,0.943,-0.3,0.208,0.939,-0.159,-0.305,1
0.919,0.322,0.259,0.919,-0.29,0.178,0.93,-0.158,-0.331,1
0.915,0.351,0.242,0.929,-0.313,0.157,0.928,-0.152,-0.333,1
0.935,0.37,0.232,0.885,-0.329,0.146,0.937,-0.164,-0.319,1
0.912,0.358,0.241,0.91,-0.375,0.141,0.933,-0.147,-0.332,1
0.914,0.366,0.266,0.919,-0.386,0.171,0.928,-0.14,-0.342,1
0.915,0.377,0.291,0.931,-0.381,0.178,0.932,-0.143,-0.336,1
0.899,0.362,0.301,0.928,-0.36,0.179,0.932,-0.121,-0.331,1
0.873,0.347,0.3,0.948,-0.349,0.161,0.934,-0.11,-0.331,1
0.846,0.332,0.298,0.879,-0.322,0.149,0.939,-0.09,-0.32,1
0.841,0.312,0.302,0.933,-0.309,0.093,0.945,-0.076,-0.312,1
0.879,0.283,0.324,0.952,-0.417,0.054,0.948,-0.075,-0.299,1
0.892,0.259,0.316,0.907,-0.37,0.096,0.947,-0.048,-0.303,1
0.931,0.259,0.303,1.001,-0.387,0.097,0.951,-0.04,-0.292,1
0.969,0.285,0.292,0.918,-0.402,0.11,0.963,-0.029,-0.276,1
0.965,0.32,0.274,0.89,-0.297,0.164,0.968,-0.014,-0.254,1
0.944,0.34,0.271,0.948,-0.355,0.129,0.968,-0.017,-0.239,1
0.911,0.318,0.294,0.944,-0.396,0.107,0.97,-0.008,-0.228,1
0.878,0.3,0.318,0.918,-0.349,0.11,0.97,0.002,-0.23,1
0.908,0.269,0.364,0.915,-0.376,0.087,0.973,0.008,-0.228,1
0.887,0.295,0.393,0.929,-0.375,0.095,0.975,0.007,-0.207,1
0.917,0.274,0.368,0.93,-0.362,0.116,0.982,-0.001,-0.187,1
0.943,0.286,0.353,0.923,-0.353,0.117,0.979,0.006,-0.204,1
0.931,0.259,0.323,0.944,-0.352,0.132,0.972,0.006,-0.211,1
0.921,0.233,0.304,0.927,-0.344,0.135,0.979,0.001,-0.191,1
0.87,0.227,0.302,0.936,-0.359,0.109,0.983,0.002,-0.188,1
0.888,0.238,0.339,0.919,-0.359,0.104,0.978,-0.008,-0.193,1
0.912,0.26,0.36,0.915,-0.349,0.121,0.981,-0.016,-0.201,1
0.919,0.256,0.397,0.916,-0.376,0.132,0.979,-0.023,-0.209,1
0.89,0.262,0.393,0.94,-0.371,0.152,0.982,-0.025,-0.201,1
0.87,0.296,0.354,0.946,-0.338,0.159,0.973,-0.029,-0.216,1
0.893,0.329,0.329,0.931,-0.318,0.157,0.972,-0.038,-0.238,1
0.939,0.346,0.323,0.915,-0.31,0.14,0.976,-0.042,-0.242,1
0.94,0.31,0.339,0.909,-0.329,0.136,0.961,-0.053,-0.25,1
0.92,0.259,0.372,0.918,-0.354,0.125,0.956,-0.046,-0.265,1
0.892,0.25,0.363,0.934,-0.374,0.115,0.949,-0.044,-0.281,1
0.866,0.243,0.33,0.919,-0.362,0.129,0.963,-0.063,-0.28,1
0.89,0.26,0.29,0.922,-0.349,0.148,0.945,-0.066,-0.289,1
0.83,0.26,0.266,0.93,-0.338,0.151,0.943,-0.084,-0.306,1
0.917,0.287,0.259,0.928,-0.341,0.147,0.94,-0.107,-0.322,1
0.93,0.345,0.274,0.929,-0.37,0.141,0.942,-0.135,-0.327,1
0.979,0.334,0.316,0.922,-0.374,0.142,0.933,-0.123,-0.334,1
0.957,0.341,0.32,0.919,-0.38,0.142,0.931,-0.098,-0.339,1
0.911,0.341,0.327,0.914,-0.384,0.148,0.925,-0.146,-0.355,1
0.917,0.315,0.318,0.914,-0.381,0.146,0.931,-0.13,-0.334,1
0.948,0.319,0.301,0.913,-0.377,0.136,0.924,-0.145,-0.342,1
0.908,0.299,0.28,0.917,-0.39,0.119,0.925,-0.138,-0.338,1
0.928,0.29,0.257,0.9,-0.419,0.104,0.93,-0.15,-0.335,1
0.93,0.309,0.221,0.938,-0.388,0.103,0.931,-0.14,-0.332,1
0.911,0.303,0.21,0.895,-0.372,0.092,0.93,-0.131,-0.33,1
0.888,0.314,0.232,0.902,-0.359,0.108,0.93,-0.116,-0.337,1
0.941,0.318,0.279,0.938,-0.368,0.102,0.932,-0.101,-0.342,1
0.931,0.307,0.33,0.937,-0.365,0.084,0.93,-0.098,-0.344,1
0.938,0.242,0.367,0.906,-0.365,0.076,0.938,-0.089,-0.332,1
0.95,0.248,0.338,0.908,-0.377,0.069,0.933,-0.061,-0.349,1
0.929,0.255,0.291,0.929,-0.396,0.075,0.931,-0.056,-0.343,1
0.896,0.257,0.263,0.928,-0.375,0.088,0.948,-0.047,-0.321,1
0.886,0.26,0.26,0.926,-0.395,0.089,0.938,-0.022,-0.345,1
0.938,0.134,0.317,0.945,-0.408,0.1,0.926,-0.017,-0.358,1
0.885,0.317,0.327,0.918,-0.358,0.13,0.957,-0.018,-0.304,1
0.893,0.279,0.328,0.912,-0.365,0.117,0.957,-0.006,-0.296,1
0.883,0.265,0.318,0.92,-0.385,0.092,0.949,0.023,-0.309,1
0.895,0.267,0.325,0.9,-0.387,0.084,0.96,0.034,-0.299,1
0.908,0.268,0.351,0.923,-0.361,0.08,0.954,0.043,-0.279,1
0.891,0.267,0.406,0.859,-0.427,0.082,0.966,0.048,-0.285,1
0.878,0.292,0.42,0.942,-0.349,0.142,0.973,0.061,-0.258,1
0.925,0.314,0.416,0.962,-0.375,0.096,0.975,0.059,-0.265,1
0.882,0.321,0.353,0.906,-0.376,0.079,0.959,0.018,-0.237,1
0.921,0.352,0.313,0.886,-0.307,0.131,0.968,0.043,-0.212,1
0.946,0.295,0.323,0.905,-0.366,0.085,0.979,-0.012,-0.195,1
0.937,0.207,0.34,0.935,-0.423,0.065,0.964,0.008,-0.223,1
0.886,0.217,0.305,0.919,-0.363,0.1,0.96,-0.016,-0.252,1
0.874,0.222,0.309,0.997,-0.362,0.096,0.965,-0.027,-0.244,1
0.939,0.263,0.344,0.991,-0.328,0.087,0.977,-0.047,-0.249,1
0.939,0.274,0.397,0.904,-0.296,0.066,0.955,-0.048,-0.28,1
0.922,0.272,0.384,0.874,-0.346,0.047,0.96,-0.058,-0.282,1
0.912,0.262,0.366,0.911,-0.407,0.044,0.968,-0.043,-0.275,1
0.894,0.245,0.381,0.914,-0.476,0.064,0.936,-0.1,-0.317,1
0.901,0.218,0.382,0.972,-0.368,0.127,0.933,-0.123,-0.323,1
0.89,0.238,0.33,0.943,-0.402,0.126,0.947,-0.135,-0.312,1
0.856,0.266,0.272,0.954,-0.303,0.194,0.931,-0.123,-0.339,1
0.868,0.302,0.268,0.919,-0.304,0.16,0.932,-0.138,-0.338,1
0.909,0.303,0.309,0.911,-0.306,0.16,0.935,-0.142,-0.33,1
0.94,0.333,0.354,0.923,-0.338,0.119,0.927,-0.147,-0.333,1
0.939,0.348,0.383,0.909,-0.371,0.103,0.926,-0.163,-0.34,1
0.934,0.333,0.374,0.914,-0.373,0.152,0.935,-0.146,-0.33,1
0.951,0.302,0.333,0.942,-0.363,0.19,0.929,-0.143,-0.335,1
0.963,0.271,0.28,0.95,-0.329,0.187,0.925,-0.133,-0.349,1
0.936,0.242,0.224,0.922,-0.315,0.17,0.928,-0.133,-0.342,1
0.856,0.255,0.193,0.911,-0.302,0.161,0.934,-0.138,-0.32,1
0.852,0.247,0.227,0.921,-0.327,0.159,0.937,-0.129,-0.321,1
0.932,0.285,0.284,0.926,-0.376,0.209,0.934,-0.115,-0.327,1
0.966,0.328,0.34,0.89,-0.335,0.171,0.927,-0.107,-0.339,1
0.947,0.328,0.363,0.906,-0.368,0.159,0.939,-0.104,-0.316,1
0.917,0.327,0.34,0.908,-0.379,0.158,0.952,-0.121,-0.287,1
0.92,0.328,0.297,0.916,-0.384,0.169,0.94,-0.11,-0.314,1
0.937,0.315,0.279,0.918,-0.394,0.217,0.94,-0.095,-0.317,1
0.947,0.299,0.273,0.909,-0.349,0.183,0.945,-0.089,-0.308,1
0.887,0.276,0.27,0.932,-0.33,0.143,0.941,-0.073,-0.317,1
0.909,0.267,0.256,0.93,-0.315,0.133,0.948,-0.068,-0.305,1
0.881,0.269,0.275,0.944,-0.311,0.135,0.945,-0.041,-0.315,1
0.882,0.3,0.276,0.935,-0.311,0.169,0.948,-0.049,-0.315,1
0.93,0.326,0.295,0.945,-0.346,0.154,0.953,-0.044,-0.299,1
0.958,0.284,0.317,0.928,-0.335,0.143,0.95,-0.03,-0.303,1
0.903,0.283,0.311,0.937,-0.319,0.119,0.947,-0.037,-0.31,1
1.014,0.276,0.347,0.945,-0.322,0.135,0.956,-0.021,-0.3,1
0.957,0.23,0.317,0.953,-0.369,0.143,0.951,-0.023,-0.299,1
0.884,0.198,0.287,0.911,-0.36,0.133,0.954,-0.046,-0.283,1
0.916,0.22,0.26,0.919,-0.327,0.108,0.958,-0.04,-0.274,1
0.899,0.225,0.245,0.913,-0.328,0.111,0.957,-0.029,-0.275,1
0.9,0.242,0.278,0.931,-0.33,0.128,0.961,-0.017,-0.281,1
0.898,0.268,0.333,0.971,-0.332,0.144,0.958,0.008,-0.277,1
0.949,0.305,0.405,0.945,-0.312,0.139,0.958,0.006,-0.279,1
0.97,0.341,0.438,0.913,-0.312,0.107,0.965,0.005,-0.268,1
0.915,0.32,0.373,0.911,-0.343,0.073,0.964,0.01,-0.272,1
0.934,0.3,0.303,0.918,-0.372,0.069,0.963,0.005,-0.27,1
0.915,0.272,0.288,0.902,-0.418,0.094,0.963,-0.009,-0.264,1
0.877,0.204,0.302,0.945,-0.419,0.156,0.962,-0.002,-0.259,1
0.892,0.21,0.312,0.924,-0.395,0.173,0.96,-0.013,-0.261,1
0.917,0.232,0.322,0.93,-0.378,0.135,0.958,-0.015,-0.272,1
0.907,0.256,0.31,0.928,-0.371,0.106,0.959,-0.036,-0.276,1
0.92,0.282,0.294,0.917,-0.36,0.11,0.959,-0.03,-0.256,1
0.924,0.289,0.312,0.894,-0.345,0.125,0.958,-0.06,-0.28,1
0.892,0.271,0.4,0.914,-0.378,0.082,0.959,-0.051,-0.287,1
0.963,0.258,0.416,0.941,-0.411,0.07,0.952,-0.039,-0.315,1
0.937,0.258,0.362,0.918,-0.365,0.104,0.949,-0.068,-0.307,1
0.871,0.239,0.301,0.942,-0.326,0.122,0.95,-0.078,-0.29,1
0.85,0.237,0.307,0.947,-0.324,0.111,0.945,-0.099,-0.315,1
0.902,0.236,0.351,0.935,-0.314,0.104,0.938,-0.092,-0.32,1
0.909,0.234,0.369,0.936,-0.305,0.092,0.945,-0.125,-0.303,1
0.901,0.256,0.351,0.943,-0.304,0.088,0.945,-0.131,-0.294,1
0.901,0.275,0.365,0.941,-0.307,0.076,0.939,-0.122,-0.312,1
0.902,0.296,0.386,0.946,-0.338,0.069,0.934,-0.127,-0.313,1
0.935,0.304,0.415,0.94,-0.363,0.09,0.946,-0.127,-0.311,1
0.914,0.293,0.376,0.952,-0.379,0.064,0.923,-0.144,-0.329,1
0.936,0.28,0.287,0.931,-0.388,0.056,0.936,-0.175,-0.317,1
0.87,0.275,0.263,0.942,-0.39,0.074,0.928,-0.147,-0.331,1
0.882,0.249,0.256,0.896,-0.376,0.095,0.928,-0.184,-0.322,1
0.888,0.276,0.266,0.93,-0.393,0.091,0.934,-0.172,-0.307,1
0.91,0.289,0.288,0.926,-0.374,0.084,0.927,-0.171,-0.312,1
0.932,0.287,0.319,0.949,-0.366,0.087,0.927,-0.166,-0.319,1
0.945,0.298,0.345,0.931,-0.351,0.09,0.929,-0.161,-0.33,1
0.936,0.313,0.326,0.927,-0.343,0.07,0.917,-0.172,-0.354,1
0.923,0.298,0.312,0.931,-0.358,0.067,0.929,-0.14,-0.334,1
0.952,0.279,0.29,0.909,-0.354,0.107,0.937,-0.143,-0.316,1
0.933,0.27,0.253,0.931,-0.349,0.118,0.938,-0.109,-0.312,1
0.856,0.244,0.249,0.925,-0.333,0.125,0.949,-0.091,-0.311,1
0.896,0.248,0.256,0.923,-0.323,0.153,0.932,-0.063,-0.289,1
0.917,0.289,0.266,0.925,-0.34,0.165,0.955,-0.064,-0.31,1
0.9,0.312,0.3,0.928,-0.358,0.16,0.976,-0.025,-0.238,1
0.962,0.335,0.349,0.915,-0.345,0.136,0.982,-0.019,-0.218,1
0.953,0.363,0.326,0.944,-0.335,0.131,0.984,-0.008,-0.188,1
0.894,0.326,0.303,0.942,-0.313,0.161,0.983,-0.011,-0.214,1
0.956,0.371,0.328,0.9,-0.334,0.171,0.982,0.024,-0.18,1
0.977,0.31,0.304,0.901,-0.398,0.148,0.988,0.018,-0.168,1
0.851,0.27,0.263,0.94,-0.402,0.173,0.99,0.014,-0.149,1
0.861,0.248,0.232,0.906,-0.387,0.185,0.989,0.02,-0.116,1
0.893,0.285,0.257,0.893,-0.396,0.176,0.996,0.04,-0.12,1
0.945,0.313,0.27,0.907,-0.404,0.169,1.0,0.037,-0.113,1
0.905,0.326,0.315,0.9,-0.367,0.179,1.004,0.045,-0.104,1
0.915,0.303,0.35,0.916,-0.375,0.183,0.968,0.042,-0.103,1
0.923,0.297,0.347,0.908,-0.361,0.187,0.985,0.03,-0.109,1
0.964,0.328,0.341,0.911,-0.363,0.176,0.989,0.014,-0.1,1
0.939,0.272,0.33,0.902,-0.391,0.195,0.98,0.026,-0.113,1
0.894,0.227,0.316,0.916,-0.407,0.2,0.991,0.013,-0.144,1
0.848,0.215,0.289,0.917,-0.37,0.173,1.006,0.012,-0.127,1
0.861,0.223,0.31,0.918,-0.351,0.16,1.001,-0.009,-0.124,1
0.929,0.251,0.329,0.91,-0.345,0.175,0.989,-0.017,-0.152,1
0.947,0.295,0.362,0.906,-0.348,0.168,0.984,-0.008,-0.176,1
0.941,0.321,0.375,0.919,-0.347,0.136,0.982,-0.011,-0.182,1
0.909,0.344,0.369,0.905,-0.332,0.131,0.983,-0.028,-0.174,1
0.925,0.315,0.357,0.924,-0.325,0.126,0.984,-0.038,-0.184,1
0.957,0.262,0.347,0.934,-0.342,0.117,0.978,-0.045,-0.204,1
0.909,0.219,0.293,0.933,-0.359,0.143,0.971,-0.043,-0.211,1
0.833,0.217,0.283,0.943,-0.362,0.163,0.975,-0.057,-0.227,1
0.877,0.218,0.335,0.928,-0.321,0.14,0.967,-0.059,-0.234,1
0.938,0.251,0.364,0.939,-0.38,0.107,0.959,-0.074,-0.26,1
0.955,0.275,0.363,0.929,-0.361,0.107,0.956,-0.077,-0.277,1
0.889,0.266,0.336,0.934,-0.361,0.082,0.952,-0.092,-0.284,1
0.916,0.266,0.326,0.904,-0.357,0.089,0.956,-0.086,-0.296,1
0.9,0.267,0.335,0.911,-0.382,0.115,0.953,-0.1,-0.295,1
0.918,0.239,0.384,0.897,-0.376,0.123,0.945,-0.131,-0.314,1
0.924,0.222,0.386,0.927,-0.393,0.151,0.926,-0.112,-0.352,1
0.915,0.26,0.353,0.954,-0.401,0.124,0.943,-0.143,-0.304,1
0.89,0.279,0.303,0.917,-0.356,0.122,0.927,-0.151,-0.325,1
0.854,0.303,0.281,0.917,-0.365,0.111,0.938,-0.135,-0.338,1
0.937,0.319,0.293,0.92,-0.383,0.094,0.93,-0.167,-0.341,1
0.906,0.321,0.308,0.922,-0.373,0.125,0.931,-0.15,-0.331,1
0.91,0.313,0.34,0.917,-0.382,0.127,0.925,-0.155,-0.324,1
0.944,0.293,0.331,0.932,-0.377,0.126,0.925,-0.168,-0.325,1
0.934,0.286,0.291,0.924,-0.362,0.123,0.928,-0.146,-0.343,1
0.904,0.262,0.264,0.921,-0.359,0.119,0.925,-0.159,-0.328,1
0.89,0.268,0.253,0.909,-0.365,0.115,0.919,-0.155,-0.331,1
0.899,0.286,0.27,0.921,-0.385,0.112,0.926,-0.166,-0.332,1
0.905,0.284,0.289,0.917,-0.371,0.125,0.923,-0.17,-0.354,1
0.89,0.312,0.274,0.928,-0.351,0.156,0.925,-0.158,-0.338,1
0.89,0.323,0.324,0.913,-0.345,0.165,0.934,-0.178,-0.319,1
0.996,0.355,0.366,0.91,-0.335,0.173,0.927,-0.161,-0.325,1
0.89,0.332,0.31,0.932,-0.333,0.162,0.928,-0.139,-0.33,1
0.9,0.325,0.301,0.926,-0.324,0.156,0.935,-0.093,-0.328,1
0.946,0.311,0.291,0.913,-0.33,0.149,0.938,-0.108,-0.327,1
0.902,0.291,0.261,0.92,-0.344,0.201,0.942,-0.095,-0.294,1
0.944,0.32,0.245,0.929,-0.351,0.169,0.954,-0.071,-0.302,1
0.928,0.279,0.268,0.917,-0.309,0.187,0.953,-0.051,-0.276,1
0.855,0.284,0.295,0.926,-0.237,0.181,0.958,-0.021,-0.278,1
0.927,0.302,0.323,0.888,-0.316,0.184,0.959,-0.007,-0.284,1
0.896,0.32,0.32,0.955,-0.35,0.25,0.965,-0.019,-0.269,1
0.891,0.332,0.309,0.937,-0.387,0.189,0.962,0.003,-0.272,1
0.942,0.315,0.317,0.882,-0.412,0.153,0.943,-0.021,-0.294,1
0.944,0.278,0.317,0.929,-0.422,0.201,0.958,-0.008,-0.272,1
0.968,0.199,0.335,0.924,-0.355,0.151,0.959,0.013,-0.282,1
0.899,0.176,0.297,0.929,-0.31,0.167,0.965,0.028,-0.297,1
0.87,0.197,0.278,0.971,-0.315,0.148,0.942,0.005,-0.31,1
0.912,0.234,0.278,0.934,-0.31,0.138,0.958,-0.025,-0.287,1
0.941,0.319,0.295,0.921,-0.291,0.137,0.958,-0.007,-0.296,1
0.962,0.348,0.336,0.924,-0.29,0.147,0.956,-0.019,-0.289,1
0.918,0.346,0.362,0.922,-0.319,0.143,0.96,-0.014,-0.279,1
0.905,0.316,0.363,0.929,-0.35,0.147,0.943,-0.022,-0.301,1
0.935,0.283,0.35,0.923,-0.379,0.139,0.95,-0.042,-0.306,1
0.919,0.235,0.336,0.954,-0.4,0.142,0.971,-0.031,-0.261,1
0.895,0.218,0.319,0.958,-0.357,0.159,0.951,-0.026,-0.299,1
0.899,0.227,0.305,0.949,-0.299,0.146,0.95,-0.029,-0.303,1
0.917,0.254,0.302,0.922,-0.277,0.112,0.954,-0.031,-0.291,1
0.911,0.258,0.314,0.908,-0.288,0.087,0.947,-0.047,-0.299,1
0.862,0.254,0.331,0.902,-0.321,0.104,0.955,-0.049,-0.289,1
0.998,0.277,0.373,0.922,-0.343,0.123,0.95,-0.057,-0.299,1
0.881,0.245,0.362,0.949,-0.375,0.14,0.952,-0.065,-0.301,1
0.893,0.242,0.342,0.958,-0.378,0.159,0.946,-0.068,-0.307,1
0.941,0.249,0.305,0.949,-0.353,0.15,0.943,-0.074,-0.311,1
0.877,0.232,0.313,0.933,-0.386,0.127,0.943,-0.073,-0.314,1
0.912,0.235,0.346,0.942,-0.463,0.118,0.944,-0.087,-0.313,1
0.937,0.265,0.372,0.905,-0.39,0.113,0.945,-0.086,-0.314,1
0.973,0.278,0.377,0.871,-0.365,0.097,0.944,-0.101,-0.311,1
0.865,0.263,0.309,0.874,-0.357,0.093,0.939,-0.112,-0.311,1
0.891,0.293,0.27,0.9,-0.372,0.152,0.937,-0.127,-0.309,1
0.906,0.293,0.292,0.952,-0.362,0.161,0.934,-0.137,-0.313,1
0.901,0.23,0.297,0.974,-0.418,0.113,0.935,-0.16,-0.318,1
0.889,0.298,0.284,0.942,-0.402,0.097,0.929,-0.151,-0.321,1
0.911,0.29,0.307,0.89,-0.348,0.122,0.929,-0.159,-0.322,1
0.93,0.312,0.303,0.948,-0.276,0.124,0.927,-0.165,-0.316,1
0.945,0.33,0.315,0.921,-0.325,0.141,0.917,-0.176,-0.351,1
0.933,0.307,0.32,0.933,-0.249,0.198,0.921,-0.177,-0.335,1
0.936,0.272,0.296,0.948,-0.328,0.2,0.926,-0.192,-0.324,1
0.938,0.251,0.25,0.925,-0.33,0.173,0.93,-0.186,-0.313,1
0.869,0.243,0.232,0.94,-0.329,0.14,0.914,-0.169,-0.349,1
0.862,0.261,0.254,0.936,-0.355,0.136,0.923,-0.184,-0.328,1
0.947,0.289,0.3,0.934,-0.322,0.169,0.934,-0.19,-0.314,1
0.971,0.347,0.313,0.93,-0.314,0.208,0.919,-0.155,-0.346,1
0.925,0.359,0.319,0.89,-0.326,0.243,0.926,-0.162,-0.322,1
0.916,0.354,0.327,0.93,-0.357,0.223,0.932,-0.16,-0.326,1
0.933,0.327,0.308,0.903,-0.349,0.181,0.94,-0.135,-0.31,1
0.952,0.292,0.301,0.865,-0.373,0.219,0.946,-0.127,-0.284,1
0.944,0.242,0.293,0.918,-0.35,0.226,0.956,-0.093,-0.282,1
0.9,0.216,0.288,0.921,-0.313,0.244,0.958,-0.075,-0.269,1
0.909,0.229,0.275,0.904,-0.321,0.225,0.961,-0.041,-0.257,1
0.908,0.254,0.264,0.916,-0.341,0.239,0.978,-0.032,-0.207,1
0.898,0.266,0.268,0.936,-0.248,0.292,0.979,0.005,-0.192,1
0.89,0.28,0.282,0.944,-0.246,0.281,0.986,-0.023,-0.166,1
0.917,0.279,0.314,0.937,-0.324,0.152,0.982,-0.01,-0.145,1
0.921,0.275,0.33,0.914,-0.273,0.099,1.003,-0.009,-0.133,1
0.932,0.267,0.34,0.955,-0.352,0.075,0.99,-0.011,-0.115,1
0.899,0.304,0.335,0.902,-0.325,0.079,0.984,0.012,-0.123,1
0.913,0.301,0.348,0.972,-0.324,0.048,0.987,-0.022,-0.109,1
0.938,0.301,0.365,0.932,-0.354,0.033,0.99,0.003,-0.124,1
0.933,0.283,0.349,0.959,-0.329,0.064,0.986,0.003,-0.144,1
0.952,0.253,0.332,0.994,-0.311,0.068,0.992,0.028,-0.177,1
0.951,0.241,0.288,0.933,-0.292,0.109,0.987,0.0,-0.188,1
0.901,0.236,0.261,0.945,-0.197,0.153,0.976,0.013,-0.207,1
0.867,0.225,0.264,0.959,-0.301,0.101,0.972,0.004,-0.232,1
0.883,0.229,0.313,0.97,-0.303,0.079,0.97,-0.001,-0.238,1
0.929,0.246,0.348,0.935,-0.299,0.059,0.974,-0.012,-0.241,1
0.936,0.252,0.382,0.919,-0.291,0.063,0.96,-0.011,-0.266,1
0.935,0.274,0.376,0.938,-0.314,0.077,0.963,-0.033,-0.27,1
0.905,0.295,0.337,0.931,-0.301,0.093,0.962,-0.038,-0.274,1
0.917,0.287,0.331,0.92,-0.318,0.087,0.958,-0.053,-0.284,1
0.909,0.253,0.341,0.961,-0.326,0.076,0.951,-0.065,-0.291,1
0.896,0.233,0.328,1.02,-0.291,0.068,0.946,-0.089,-0.293,1
0.901,0.249,0.303,0.94,-0.27,0.041,0.944,-0.086,-0.302,1
0.91,0.253,0.337,0.985,-0.253,-0.031,0.931,-0.087,-0.333,1
0.908,0.241,0.365,0.954,-0.256,-0.068,0.937,-0.093,-0.32,1
0.911,0.267,0.356,0.935,-0.224,-0.054,0.941,-0.111,-0.314,1
0.921,0.262,0.343,0.932,-0.232,-0.054,0.939,-0.113,-0.32,1
0.914,0.25,0.329,1.007,-0.251,-0.046,0.94,-0.121,-0.318,1
0.905,0.235,0.324,0.981,-0.266,-0.061,0.935,-0.125,-0.324,1
0.91,0.221,0.33,0.951,-0.267,-0.083,0.93,-0.136,-0.336,1
0.916,0.227,0.322,0.978,-0.271,-0.091,0.928,-0.144,-0.338,1
0.916,0.238,0.353,0.972,-0.224,-0.114,0.928,-0.154,-0.327,1
0.928,0.233,0.401,0.991,-0.2,-0.119,0.929,-0.153,-0.328,1
0.963,0.237,0.392,0.998,-0.204,-0.116,0.928,-0.148,-0.334,1
0.931,0.24,0.314,0.994,-0.232,-0.103,0.923,-0.15,-0.34,1
0.849,0.251,0.29,0.987,-0.259,-0.069,0.926,-0.153,-0.329,1
0.917,0.254,0.308,0.982,-0.275,-0.039,0.938,-0.165,-0.312,1
0.896,0.285,0.273,0.98,-0.284,-0.025,0.93,-0.163,-0.325,1
0.875,0.229,0.287,0.949,-0.293,-0.008,0.928,-0.164,-0.333,1
0.908,0.247,0.318,0.918,-0.295,0.014,0.926,-0.159,-0.333,1
0.935,0.271,0.306,0.908,-0.298,0.039,0.926,-0.166,-0.332,1
0.936,0.306,0.299,0.968,-0.345,0.049,0.931,-0.18,-0.32,1
0.928,0.325,0.319,0.953,-0.322,0.165,0.925,-0.163,-0.333,1
0.913,0.334,0.327,0.955,-0.251,0.183,0.93,-0.162,-0.328,1
0.927,0.353,0.299,0.821,-0.333,0.16,0.929,-0.162,-0.33,1
0.974,0.321,0.302,0.849,-0.278,0.187,0.932,-0.164,-0.323,1
0.97,0.273,0.3,0.965,-0.355,0.124,0.924,-0.158,-0.34,1
0.908,0.234,0.283,1.024,-0.365,0.124,0.924,-0.154,-0.337,1
0.892,0.208,0.268,0.953,-0.326,0.145,0.932,-0.164,-0.324,1
0.885,0.25,0.247,0.951,-0.309,0.148,0.928,-0.161,-0.329,1
0.89,0.257,0.27,0.935,-0.333,0.132,0.93,-0.153,-0.329,1
0.895,0.263,0.295,0.924,-0.32,0.109,0.929,-0.148,-0.335,1
0.94,0.303,0.314,0.909,-0.334,0.09,0.929,-0.149,-0.33,1
0.954,0.316,0.355,0.93,-0.328,0.109,0.928,-0.148,-0.332,1
0.923,0.31,0.37,0.958,-0.304,0.128,0.923,-0.138,-0.339,1
0.913,0.333,0.336,0.945,-0.281,0.119,0.944,-0.155,-0.302,1
0.941,0.313,0.317,0.935,-0.285,0.13,0.936,-0.145,-0.309,1
0.975,0.262,0.305,0.938,-0.324,0.114,0.932,-0.116,-0.336,1
0.922,0.225,0.262,0.925,-0.376,0.113,0.941,-0.127,-0.318,1
0.863,0.205,0.245,0.947,-0.4,0.133,0.937,-0.112,-0.314,1
0.885,0.209,0.274,0.969,-0.413,0.12,0.944,-0.073,-0.319,1
0.931,0.224,0.312,0.939,-0.386,0.114,0.947,-0.063,-0.32,1
0.95,0.257,0.337,0.956,-0.347,0.107,0.951,-0.078,-0.312,1
0.947,0.284,0.345,0.966,-0.314,0.099,0.954,-0.069,-0.303,1
0.92,0.302,0.345,0.936,-0.285,0.085,0.953,-0.056,-0.292,1
0.903,0.32,0.349,0.882,-0.28,0.097,0.958,-0.032,-0.294,1
0.925,0.298,0.343,0.913,-0.303,0.101,0.96,-0.03,-0.284,1
0.96,0.26,0.329,0.926,-0.339,0.105,0.958,-0.003,-0.303,1
0.955,0.228,0.318,0.966,-0.379,0.106,0.948,-0.022,-0.279,1
0.888,0.191,0.262,0.928,-0.353,0.126,0.962,-0.032,-0.282,1
0.883,0.219,0.282,0.947,-0.346,0.125,0.974,-0.005,-0.268,1
0.908,0.247,0.319,0.936,-0.368,0.121,0.939,-0.03,-0.329,1
0.941,0.277,0.345,0.912,-0.358,0.116,0.958,-0.112,-0.267,1
0.94,0.296,0.334,0.931,-0.374,0.106,0.945,-0.088,-0.298,1
0.917,0.311,0.325,0.939,-0.378,0.11,0.927,-0.114,-0.316,1
0.916,0.274,0.368,0.931,-0.355,0.118,0.942,-0.126,-0.296,1
0.928,0.251,0.347,0.943,-0.343,0.122,0.938,-0.131,-0.311,1
0.928,0.227,0.289,0.947,-0.322,0.117,0.931,-0.139,-0.329,1
0.917,0.223,0.265,0.941,-0.319,0.106,0.924,-0.141,-0.34,1
0.902,0.248,0.254,0.931,-0.31,0.104,0.931,-0.143,-0.337,1
0.906,0.271,0.255,0.922,-0.303,0.121,0.942,-0.125,-0.31,1
0.924,0.287,0.265,0.929,-0.327,0.138,0.909,-0.172,-0.341,1
0.92,0.307,0.304,0.916,-0.333,0.154,0.937,-0.154,-0.302,1
0.912,0.33,0.331,0.94,-0.356,0.119,0.927,-0.167,-0.337,1
0.978,0.344,0.344,0.934,-0.366,0.098,0.939,-0.151,-0.292,1
0.974,0.333,0.313,0.975,-0.317,0.128,0.94,-0.184,-0.3,1
1.001,0.361,0.29,0.92,-0.344,0.169,0.921,-0.141,-0.304,1
0.883,0.321,0.269,0.925,-0.316,0.256,0.954,-0.148,-0.319,1
0.841,0.276,0.262,0.898,-0.313,0.23,0.933,-0.112,-0.32,1
0.839,0.271,0.254,0.897,-0.318,0.196,0.949,-0.146,-0.263,1
0.86,0.279,0.266,0.907,-0.328,0.186,0.95,-0.054,-0.285,1
0.908,0.295,0.292,0.915,-0.354,0.227,0.967,-0.085,-0.278,1
0.95,0.317,0.324,0.925,-0.365,0.284,0.962,-0.024,-0.247,1
0.966,0.337,0.351,0.936,-0.337,0.272,0.959,-0.036,-0.276,1
0.93,0.332,0.348,0.927,-0.282,0.234,0.959,0.021,-0.233,1
0.942,0.302,0.323,0.904,-0.26,0.211,0.987,-0.017,-0.202,1
0.939,0.281,0.287,0.892,-0.312,0.194,0.988,0.034,-0.179,1
0.909,0.249,0.259,0.907,-0.315,0.251,1.0,0.051,-0.167,1
0.892,0.231,0.253,0.981,-0.273,0.328,0.982,0.042,-0.183,1
0.916,0.245,0.272,0.958,-0.187,0.309,0.982,0.048,-0.15,1
0.93,0.261,0.298,0.919,-0.27,0.186,0.985,0.022,-0.119,1
0.94,0.268,0.323,0.896,-0.272,0.154,0.998,0.04,-0.104,1
0.936,0.269,0.331,0.905,-0.303,0.17,0.996,0.055,-0.117,1
0.935,0.264,0.326,0.938,-0.32,0.193,1.094,0.05,-0.081,1
0.935,0.241,0.311,0.941,-0.328,0.208,0.859,-0.014,-0.01,1
0.912,0.237,0.299,0.946,-0.334,0.218,0.869,0.042,-0.213,1
0.911,0.22,0.3,0.931,-0.34,0.209,1.014,0.032,-0.01,1
0.903,0.191,0.313,0.906,-0.326,0.179,1.096,0.011,-0.007,1
0.92,0.255,0.307,0.951,-0.314,0.156,0.954,-0.029,-0.222,1
0.898,0.262,0.311,0.922,-0.317,0.139,0.966,-0.079,-0.278,1
0.902,0.282,0.313,0.914,-0.315,0.122,0.954,-0.094,-0.31,1
0.926,0.285,0.338,0.955,-0.359,0.126,0.948,-0.127,-0.338,1
0.944,0.281,0.348,0.936,-0.334,0.152,0.967,-0.149,-0.32,1
0.957,0.272,0.327,0.954,-0.266,0.185,0.937,-0.101,-0.363,1
0.982,0.236,0.315,0.981,-0.254,0.162,0.913,-0.176,-0.35,1
0.958,0.202,0.277,0.929,-0.282,0.127,0.905,-0.161,-0.344,1
0.9,0.214,0.234,0.896,-0.307,0.119,0.899,-0.155,-0.372,1
0.903,0.249,0.238,0.906,-0.342,0.112,0.955,-0.258,-0.196,1
0.867,0.292,0.276,0.95,-0.384,0.114,0.933,-0.225,-0.257,1
0.891,0.292,0.295,0.954,-0.396,0.14,0.97,-0.187,-0.265,1
0.898,0.324,0.295,0.948,-0.38,0.146,0.936,-0.163,-0.272,1
0.896,0.334,0.298,0.954,-0.369,0.134,0.915,-0.172,-0.34,1
1.001,0.312,0.254,0.951,-0.327,0.128,0.929,-0.199,-0.296,1
0.893,0.351,0.191,0.951,-0.308,0.103,0.941,-0.159,-0.307,1
0.92,0.33,0.219,0.914,-0.321,0.092,0.922,-0.209,-0.3,1
0.956,0.337,0.239,0.951,-0.312,0.132,0.961,-0.204,-0.295,1
0.919,0.324,0.227,0.942,-0.331,0.116,0.923,-0.22,-0.295,1
0.938,0.326,0.229,0.944,-0.331,0.079,0.932,-0.191,-0.292,1
1.042,0.273,0.25,0.905,-0.371,0.084,0.921,-0.229,-0.29,1
0.887,0.328,0.296,0.919,-0.321,0.155,0.928,-0.183,-0.298,1
0.969,0.147,0.341,0.951,-0.344,0.173,0.948,-0.18,-0.289,1
0.934,0.108,0.323,0.936,-0.322,0.19,0.928,-0.196,-0.28,1
0.903,0.144,0.303,0.938,-0.296,0.213,0.936,-0.233,-0.25,1
0.915,0.127,0.333,0.935,-0.285,0.205,0.939,-0.203,-0.266,1
0.929,0.115,0.364,0.94,-0.297,0.185,0.955,-0.22,-0.238,1
0.935,0.083,0.333,0.936,-0.306,0.193,0.949,-0.189,-0.241,1
0.937,0.074,0.294,0.938,-0.312,0.197,0.951,-0.21,-0.244,1
0.948,0.041,0.266,0.936,-0.281,0.21,0.945,-0.188,-0.246,1
0.967,0.013,0.236,0.919,-0.257,0.212,0.954,-0.221,-0.204,1
0.971,-0.0,0.228,0.919,-0.26,0.202,0.959,-0.207,-0.188,1
0.975,-0.009,0.241,0.939,-0.274,0.232,0.944,-0.2,-0.224,1
0.974,-0.008,0.26,0.924,-0.288,0.235,0.971,-0.195,-0.154,1
0.953,-0.006,0.258,0.922,-0.312,0.234,0.972,-0.185,-0.183,1
0.972,0.011,0.252,0.931,-0.316,0.228,0.976,-0.116,-0.209,1
0.994,0.018,0.228,0.917,-0.308,0.213,0.994,-0.013,-0.08,1
0.966,-0.029,0.192,0.921,-0.307,0.221,1.004,-0.05,-0.08,1
0.951,0.013,0.19,0.919,-0.296,0.258,1.035,0.001,-0.059,1
1.0,-0.003,0.192,0.93,-0.31,0.226,0.996,0.073,-0.037,1
0.996,-0.022,0.188,0.941,-0.3,0.212,0.97,0.048,-0.035,1
0.991,-0.001,0.187,0.928,-0.267,0.212,0.976,0.055,-0.019,1
0.991,-0.011,0.189,0.959,-0.284,0.222,1.008,0.053,-0.015,1
0.978,0.001,0.187,0.936,-0.283,0.2,1.003,0.02,0.0,1
0.968,0.0,0.186,0.932,-0.273,0.192,0.991,0.037,-0.02,1
0.96,0.006,0.173,0.932,-0.265,0.199,0.995,0.026,-0.038,1
0.946,0.02,0.186,0.938,-0.264,0.174,0.986,0.025,-0.061,1
1.002,0.035,0.208,0.921,-0.284,0.137,0.988,0.021,-0.063,1
1.04,0.085,0.239,0.921,-0.317,0.133,1.032,-0.003,-0.077,1
1.031,0.108,0.231,0.926,-0.354,0.129,1.014,0.001,-0.104,1
1.031,0.164,0.207,0.941,-0.368,0.137,0.979,0.009,-0.165,1
0.908,0.352,0.381,-0.369,-0.435,0.559,0.929,-0.136,-0.336,2
0.936,0.476,0.555,-0.59,-0.347,0.652,0.934,-0.141,-0.317,2
0.971,0.849,0.857,-0.952,-0.415,0.718,0.927,-0.114,-0.354,2
0.707,0.859,0.77,-0.956,-0.147,0.545,0.932,-0.168,-0.317,2
0.521,0.734,0.646,-1.004,0.062,0.298,0.945,-0.188,-0.266,2
0.193,0.475,0.667,-0.771,0.064,0.418,0.935,-0.145,-0.29,2
-0.194,0.088,0.755,-0.374,-0.043,0.647,0.947,-0.149,-0.312,2
-0.529,-0.089,0.785,-0.192,-0.106,0.815,0.925,-0.167,-0.338,2
-0.677,-0.342,0.593,-0.494,-0.095,0.724,0.932,-0.167,-0.323,2
-0.753,-0.378,0.388,-0.615,-0.123,0.542,0.933,-0.045,-0.309,2
-0.716,-0.483,0.206,-0.816,-0.368,0.474,0.962,-0.121,-0.266,2
-0.473,-0.36,0.295,-0.763,-0.442,0.813,0.95,-0.061,-0.286,2
-0.135,-0.068,0.284,-0.788,-0.646,1.234,0.971,-0.077,-0.241,2
-0.304,0.045,0.702,-0.663,-0.474,1.161,1.01,-0.161,-0.087,2
-0.524,-0.121,0.804,-0.666,-0.329,0.797,0.989,-0.052,-0.143,2
-0.771,-0.153,1.21,-0.87,0.03,0.326,1.114,0.011,0.055,2
-0.881,-0.468,1.303,-0.562,-0.058,0.414,1.022,-0.015,0.132,2
-0.764,-0.394,0.833,-0.219,-0.34,0.517,0.868,-0.168,-0.034,2
-0.646,-0.298,0.505,-0.231,-0.693,0.51,0.896,0.014,0.044,2
-0.601,-0.336,0.276,-0.3,-0.421,0.733,0.975,-0.021,0.068,2
-0.158,0.368,0.455,-0.208,-0.729,1.12,1.016,0.016,0.122,2
-0.346,0.259,0.95,-0.15,-0.596,1.395,1.015,-0.084,0.103,2
-0.22,0.017,0.549,-0.184,-0.494,1.03,1.067,-0.17,0.049,2
-0.505,-0.174,1.201,-0.361,-0.33,0.699,0.982,-0.051,0.043,2
-0.572,-0.309,1.192,-0.12,-0.499,0.65,0.995,-0.069,-0.152,2
-0.57,-0.234,0.779,0.4,-0.507,0.961,0.98,-0.104,-0.191,2
-0.697,-0.104,0.384,0.316,-0.443,1.084,0.966,-0.107,-0.227,2
-0.108,0.269,0.714,0.26,-0.499,0.936,0.951,-0.125,-0.278,2
0.038,0.513,1.206,0.2,-0.562,0.742,0.951,-0.131,-0.307,2
-0.079,0.296,1.136,0.113,-0.577,0.713,0.937,-0.142,-0.302,2
-0.372,0.049,1.172,0.065,-0.487,0.687,0.94,-0.22,-0.305,2
-0.328,-0.208,1.06,0.405,-0.753,0.864,0.938,-0.201,-0.294,2
-0.309,-0.271,0.728,0.467,-0.532,0.802,0.926,-0.204,-0.362,2
0.066,0.007,0.907,0.421,-0.548,0.876,0.911,-0.078,-0.368,2
0.188,0.261,1.058,0.482,-0.534,0.868,0.93,-0.174,-0.314,2
0.043,0.247,1.137,0.616,-0.725,0.751,0.937,-0.157,-0.334,2
-0.096,0.202,1.227,0.624,-0.769,0.76,0.932,-0.125,-0.354,2
-0.287,0.225,1.391,0.577,-0.856,0.827,0.925,-0.154,-0.325,2
-0.515,0.062,1.218,0.313,-0.729,0.93,0.93,-0.136,-0.351,2
-0.639,-0.158,0.875,-0.032,-0.641,0.968,0.924,-0.099,-0.369,2
-0.737,-0.384,0.276,-0.36,-0.27,0.669,0.933,-0.148,-0.319,2
-0.507,-0.336,0.242,-0.607,0.051,0.5,0.938,-0.144,-0.301,2
-0.227,-0.125,0.362,-0.567,0.03,0.347,0.936,-0.151,-0.319,2
-0.218,0.09,0.39,-0.14,-0.299,0.668,0.928,-0.155,-0.321,2
-0.39,-0.154,0.554,-0.166,-0.308,0.355,0.933,-0.148,-0.314,2
-0.642,-0.292,0.71,-0.42,-0.262,0.754,0.939,-0.174,-0.307,2
-0.606,-0.185,0.882,-0.578,-0.668,1.209,0.931,-0.152,-0.317,2
-0.498,0.038,1.069,-0.671,-0.771,1.36,0.934,-0.118,-0.32,2
-0.423,0.064,1.315,-0.595,-0.447,0.984,0.939,-0.136,-0.312,2
-0.345,0.235,1.167,-0.575,-0.398,0.766,0.924,-0.164,-0.338,2
-0.325,0.035,1.068,-0.854,-0.045,0.242,0.944,-0.209,-0.286,2
-0.346,0.088,0.986,-0.475,-0.224,0.383,0.948,-0.167,-0.278,2
-0.479,0.26,0.71,-0.121,-0.591,0.451,0.939,-0.181,-0.301,2
-0.491,0.53,0.646,-0.222,-0.554,0.76,0.95,-0.067,-0.231,2
-0.334,0.535,0.863,-0.304,-0.822,1.489,0.988,-0.154,-0.141,2
-0.245,0.651,0.994,-0.369,-0.613,1.295,1.018,-0.155,0.009,2
0.013,0.512,0.981,-0.425,-0.341,0.75,1.069,0.009,0.002,2
0.157,0.341,0.693,-0.255,-0.309,0.341,0.951,-0.182,-0.003,2
0.386,0.332,0.698,-0.049,-0.563,0.803,0.89,-0.214,0.028,2
0.579,0.227,0.699,0.028,-0.58,1.062,0.958,-0.103,0.071,2
0.828,-0.133,0.789,-0.02,-0.425,0.876,1.124,-0.011,0.221,2
0.964,-0.211,0.843,0.056,-0.581,0.736,0.996,-0.005,0.092,2
0.897,-0.193,0.758,0.076,-0.513,0.713,0.952,-0.159,0.039,2
0.805,0.099,0.624,0.234,-0.581,0.664,1.002,-0.103,0.089,2
0.713,0.434,0.605,0.416,-0.632,0.545,1.02,-0.056,0.119,2
0.583,0.787,0.699,0.714,-0.705,0.772,1.149,-0.188,0.279,2
0.379,0.922,0.65,0.677,-0.607,0.769,1.012,-0.033,-0.177,2
0.103,0.838,0.558,0.754,-0.623,0.564,0.805,-0.141,0.203,2
-0.002,0.841,0.719,0.835,-0.465,0.561,0.957,-0.103,0.215,2
-0.16,0.74,0.993,0.835,-0.587,0.617,0.952,-0.088,0.024,2
-0.296,0.564,1.329,0.801,-0.642,0.653,0.988,-0.149,0.173,2
-0.362,0.154,1.036,0.651,-0.729,0.75,1.17,-0.25,0.079,2
-0.604,0.054,0.594,0.343,-0.699,0.883,0.926,-0.138,-0.106,2
-0.747,-0.211,0.306,-0.036,-0.643,0.818,0.974,-0.183,-0.198,2
-0.793,-0.375,0.285,-0.353,-0.376,0.646,0.979,-0.066,-0.225,2
-0.519,-0.347,-0.06,-0.478,-0.203,0.602,0.95,-0.156,-0.278,2
-0.118,-0.163,0.575,-0.706,0.095,0.312,0.967,-0.174,-0.264,2
-0.211,-0.167,0.607,-0.603,0.033,0.564,0.935,-0.15,-0.335,2
-0.586,-0.381,0.522,-0.316,-0.405,0.687,0.923,-0.114,-0.341,2
-0.816,-0.34,0.461,-0.408,-0.224,0.579,0.932,-0.144,-0.34,2
-0.255,0.221,1.379,-0.46,-0.278,0.512,0.931,-0.146,-0.322,2
-0.269,-0.015,1.513,-0.601,-0.522,0.917,0.928,-0.164,-0.334,2
-0.068,-0.132,1.283,-0.595,-0.682,1.313,0.917,-0.159,-0.348,2
-0.203,-0.169,1.117,-0.608,-0.581,1.234,0.922,-0.128,-0.36,2
-0.533,-0.011,0.949,-0.649,-0.295,0.801,0.921,-0.144,-0.353,2
-0.671,0.127,0.546,-0.831,-0.124,0.5,0.927,-0.167,-0.333,2
-0.66,0.044,0.094,-0.605,-0.238,0.365,0.938,-0.172,-0.301,2
-0.5,0.199,0.216,-0.184,-0.536,0.771,0.94,-0.192,-0.305,2
-0.208,0.892,0.912,-0.357,-0.35,0.601,0.92,-0.163,-0.34,2
-0.167,0.926,1.217,-0.497,-0.313,0.639,0.928,-0.157,-0.325,2
-0.011,0.583,0.919,-0.448,-0.576,0.855,0.925,-0.164,-0.325,2
0.091,0.507,0.804,-0.359,-0.635,1.127,0.933,-0.167,-0.306,2
0.233,0.455,0.756,-0.328,-0.562,1.222,0.922,-0.142,-0.322,2
0.382,0.242,0.734,-0.507,-0.382,0.847,0.929,-0.14,-0.318,2
0.452,0.178,0.831,-0.636,-0.273,0.591,0.946,-0.147,-0.319,2
0.629,0.101,0.933,-0.761,-0.174,0.685,0.929,-0.133,-0.337,2
0.742,-0.175,0.964,-0.497,-0.38,0.64,0.929,-0.144,-0.327,2
0.688,0.123,0.958,0.096,-0.69,0.703,0.924,-0.155,-0.332,2
0.729,0.18,0.795,-0.117,-0.531,0.675,0.94,-0.138,-0.294,2
0.808,0.14,0.845,-0.274,-0.398,0.755,0.937,-0.14,-0.308,2
0.773,0.152,0.78,-0.337,-0.594,1.426,0.952,-0.066,-0.277,2
0.592,0.379,0.863,-0.568,-0.525,1.415,0.975,-0.043,-0.226,2
0.294,0.571,0.945,-0.502,-0.362,0.654,0.966,0.004,-0.224,2
-0.07,0.556,0.91,-0.622,-0.133,0.404,0.988,-0.007,-0.197,2
-0.295,0.454,0.797,-0.604,-0.164,0.542,0.999,0.023,-0.144,2
-0.506,0.298,0.755,-0.146,-0.446,0.948,1.012,0.005,-0.047,2
-0.595,0.138,0.689,0.114,-0.746,0.571,1.032,-0.033,0.0,2
-0.748,0.002,0.662,-0.243,-0.311,0.853,0.965,-0.0,-0.038,2
-0.766,-0.177,0.646,-0.272,-0.399,1.075,0.986,0.016,-0.019,2
-0.678,-0.266,0.52,-0.2,-0.372,1.123,0.962,-0.016,0.039,2
-0.737,-0.365,0.423,-0.114,-0.521,0.982,0.978,-0.048,0.039,2
-0.892,-0.441,0.381,-0.054,-0.556,0.853,0.989,-0.021,0.006,2
-0.849,-0.453,0.219,-0.082,-0.57,0.781,1.001,0.008,0.008,2
-0.502,-0.17,0.394,-0.093,-0.552,0.767,1.023,-0.014,-0.004,2
-0.396,0.063,0.765,-0.075,-0.52,0.716,1.034,-0.022,0.037,2
-0.504,-0.158,0.608,-0.037,-0.671,0.714,0.988,-0.011,-0.001,2
-0.526,-0.131,0.875,-0.05,-0.746,0.726,0.988,-0.043,-0.015,2
-0.604,0.028,1.119,-0.055,-0.617,0.703,0.997,-0.043,0.016,2
-0.835,0.055,1.237,-0.061,-0.58,0.692,1.023,-0.062,0.048,2
-0.858,0.216,0.896,0.095,-0.48,0.768,0.967,-0.034,-0.12,2
-0.606,0.151,0.642,0.256,-0.624,0.809,0.972,-0.087,-0.163,2
-0.473,-0.153,0.446,0.482,-0.763,0.886,0.989,-0.013,-0.179,2
-0.034,-0.099,0.8,0.312,-0.724,0.735,0.974,-0.083,-0.077,2
0.359,0.187,1.171,0.288,-0.87,0.646,0.968,-0.109,-0.194,2
0.274,0.283,1.142,0.284,-0.795,0.633,0.964,-0.108,-0.25,2
0.215,0.255,1.148,0.282,-0.812,0.661,0.94,-0.053,-0.294,2
0.047,0.321,1.152,0.179,-0.834,0.693,0.949,-0.138,-0.286,2
-0.119,0.239,1.138,-0.012,-0.859,0.866,0.936,-0.063,-0.316,2
-0.224,0.267,0.959,-0.187,-0.724,0.803,0.917,-0.144,-0.358,2
-0.322,0.248,0.671,-0.374,-0.504,0.658,0.93,-0.096,-0.332,2
-0.43,0.191,0.346,-0.541,-0.272,0.649,0.937,-0.138,-0.339,2
-0.086,0.699,0.601,-0.694,0.004,0.604,0.923,-0.13,-0.353,2
0.269,0.898,1.085,-0.745,0.21,0.433,0.914,-0.152,-0.377,2
0.328,0.72,0.969,-0.438,0.016,0.591,0.918,-0.158,-0.358,2
0.544,0.614,0.901,-0.088,-0.333,0.643,0.927,-0.181,-0.308,2
0.492,0.398,0.704,-0.418,-0.18,0.639,0.921,-0.177,-0.326,2
0.535,0.27,0.636,-0.628,-0.203,0.706,0.92,-0.168,-0.339,2
0.7,0.214,0.623,-0.754,-0.451,0.848,0.931,-0.175,-0.321,2
0.969,-0.226,0.824,-0.909,-0.44,1.277,0.931,-0.171,-0.319,2
0.806,-0.188,0.778,-0.723,-0.458,1.049,0.936,-0.15,-0.323,2
0.802,-0.157,0.837,-0.775,-0.265,0.426,0.92,-0.125,-0.349,2
0.88,0.031,0.824,-0.951,0.037,0.394,0.926,-0.119,-0.345,2
0.715,0.503,0.906,-0.806,0.027,0.426,0.935,-0.103,-0.365,2
0.276,0.943,1.008,-0.356,-0.119,0.618,0.915,-0.075,-0.361,2
-0.144,0.832,0.773,-0.189,-0.42,0.625,0.939,-0.113,-0.315,2
-0.317,0.535,0.447,-0.492,-0.193,0.647,0.941,-0.175,-0.294,2
-0.623,0.179,0.434,-0.468,-0.507,0.934,0.936,-0.141,-0.3,2
-0.79,-0.284,0.607,-0.489,-0.62,1.233,0.93,-0.086,-0.334,2
-0.84,-0.483,0.46,-0.299,-0.206,0.558,0.944,-0.062,-0.315,2
-0.738,-0.551,0.343,-0.639,-0.148,0.717,0.944,-0.014,-0.314,2
-0.585,-0.521,0.304,-0.584,-0.062,0.341,0.965,-0.003,-0.271,2
-0.493,-0.259,0.195,-0.104,-0.413,0.546,0.968,0.003,-0.247,2
-0.478,0.136,0.568,0.07,-0.578,1.062,0.982,-0.013,-0.192,2
-0.541,0.186,0.718,0.0,-0.479,0.952,0.972,-0.027,-0.177,2
-0.486,0.049,0.924,0.013,-0.581,0.995,0.981,0.014,-0.158,2
-0.412,0.007,1.259,0.031,-0.654,0.985,1.014,0.073,-0.144,2
-0.409,-0.039,1.43,0.019,-0.72,0.913,0.997,-0.0,-0.107,2
-0.604,0.042,1.287,0.028,-0.566,0.712,1.01,0.002,-0.059,2
-0.489,0.148,0.668,-0.113,-0.451,0.716,0.983,0.031,-0.049,2
-0.431,-0.09,0.269,-0.125,-0.489,0.606,0.976,0.029,-0.055,2
0.203,0.566,0.786,0.039,-0.52,0.805,0.967,-0.05,-0.036,2
0.223,0.522,1.038,0.366,-0.565,0.857,1.016,-0.026,-0.002,2
0.112,0.183,1.302,0.59,-0.724,1.093,1.043,0.037,0.012,2
0.052,0.033,1.343,0.347,-0.614,0.926,0.996,0.04,-0.053,2
0.045,0.186,1.17,0.351,-0.592,0.929,0.983,0.001,-0.087,2
-0.106,0.184,0.97,0.412,-0.707,0.838,0.986,-0.047,-0.077,2
-0.269,-0.002,0.961,0.423,-0.717,0.822,0.999,-0.043,-0.083,2
-0.344,0.083,0.634,0.29,-0.674,0.808,1.03,0.033,-0.107,2
-0.215,0.419,0.602,0.135,-0.653,0.883,1.016,-0.012,-0.188,2
0.125,0.725,0.882,-0.132,-0.473,1.02,0.967,-0.007,-0.209,2
0.389,0.696,1.106,-0.377,-0.27,0.853,0.971,-0.045,-0.238,2
0.421,0.499,1.106,-0.6,0.018,0.682,0.966,-0.025,-0.242,2
0.407,0.233,1.046,-0.754,0.144,0.381,0.956,-0.06,-0.264,2
0.488,0.219,0.851,-0.724,0.148,0.435,0.971,-0.079,-0.24,2
0.363,0.228,0.756,-0.459,-0.05,0.495,0.944,-0.062,-0.306,2
0.359,0.192,0.634,-0.211,-0.413,0.678,0.932,-0.06,-0.343,2
0.642,0.282,0.702,-0.472,-0.227,0.66,0.941,-0.042,-0.33,2
0.904,-0.322,0.857,-0.575,-0.336,0.94,0.945,-0.086,-0.315,2
0.667,-0.049,0.939,-0.731,-0.467,1.108,0.938,-0.107,-0.306,2
0.762,-0.02,0.795,-0.747,-0.543,1.164,0.94,-0.106,-0.315,2
0.856,0.083,0.615,-0.59,-0.481,0.923,0.937,-0.092,-0.339,2
0.77,0.277,0.701,-0.832,0.039,0.432,0.925,-0.115,-0.358,2
0.625,0.523,0.889,-1.006,0.286,0.263,0.93,-0.124,-0.331,2
0.448,0.627,0.868,-0.846,0.18,0.32,0.938,-0.117,-0.308,2
0.282,0.693,0.821,-0.342,-0.207,0.853,0.929,-0.147,-0.321,2
0.016,0.585,0.886,-0.259,-0.202,0.707,0.933,-0.185,-0.301,2
-0.173,0.414,0.868,-0.565,-0.096,0.576,0.933,-0.164,-0.315,2
-0.31,0.301,0.982,-0.674,-0.162,0.605,0.926,-0.175,-0.322,2
-0.345,0.12,0.939,-0.631,-0.617,0.877,0.937,-0.142,-0.329,2
-0.414,0.006,0.846,-0.56,-0.591,1.168,0.937,-0.106,-0.333,2
-0.565,-0.091,0.913,-0.663,-0.576,1.311,0.923,-0.118,-0.362,2
-0.736,-0.236,0.823,-0.55,-0.39,0.689,0.936,-0.113,-0.34,2
-0.762,-0.366,0.589,-0.752,0.045,0.268,0.927,-0.126,-0.347,2
-0.731,-0.579,0.438,-0.526,-0.037,0.561,0.93,-0.141,-0.34,2
-0.547,-0.502,0.482,0.343,-0.985,1.058,0.932,-0.142,-0.326,2
-0.278,-0.042,0.67,-0.103,-0.435,0.755,0.932,-0.152,-0.329,2
-0.413,0.013,0.563,-0.105,-0.504,0.863,0.926,-0.125,-0.349,2
-0.466,-0.149,0.752,-0.044,-0.642,1.039,0.924,-0.129,-0.346,2
-0.447,-0.105,1.067,-0.003,-0.677,1.021,0.938,-0.147,-0.315,2
-0.502,-0.336,1.249,0.092,-0.723,0.925,0.939,-0.135,-0.317,2
-0.516,-0.517,1.374,0.151,-0.683,0.748,0.933,-0.106,-0.323,2
-0.529,-0.152,0.865,0.113,-0.673,0.684,0.938,-0.105,-0.3,2
-0.396,0.026,0.574,-0.035,-0.585,0.61,0.95,-0.093,-0.294,2
-0.223,0.333,0.859,-0.102,-0.509,0.481,0.96,-0.061,-0.301,2
-0.104,0.414,1.128,0.124,-0.842,0.346,0.937,-0.006,-0.322,2
-0.119,0.084,1.077,0.241,-0.938,0.216,0.958,0.018,-0.291,2
-0.107,-0.104,1.106,0.43,-0.818,0.354,0.998,0.067,-0.227,2
-0.165,-0.156,1.106,0.613,-0.997,0.422,0.956,0.017,-0.228,2
-0.288,-0.09,1.054,0.494,-1.098,0.32,0.966,-0.074,-0.211,2
-0.39,-0.003,0.86,0.517,-1.024,0.245,0.993,-0.0,-0.097,2
-0.39,0.092,0.55,0.533,-1.017,0.266,1.021,0.015,-0.063,2
0.013,0.592,1.006,0.355,-1.007,0.421,0.995,0.036,-0.117,2
0.209,0.583,1.228,0.207,-1.045,0.579,0.985,0.061,-0.094,2
0.289,0.388,1.171,-0.017,-0.9,0.548,0.982,-0.009,-0.103,2
0.254,0.193,0.984,-0.293,-0.56,0.594,1.023,0.033,-0.062,2
0.172,0.105,0.812,-0.573,-0.254,0.513,1.0,0.082,-0.018,2
0.246,0.095,0.751,-0.613,-0.14,0.571,0.991,0.016,-0.061,2
0.506,0.222,0.802,-0.713,0.091,0.367,0.974,-0.004,-0.059,2
0.603,0.354,0.806,-0.33,-0.28,0.758,1.006,0.091,0.022,2
0.656,0.229,0.847,-0.338,-0.587,0.42,1.011,0.055,0.045,2
0.738,-0.034,0.893,-0.52,-0.24,0.642,0.976,-0.019,0.022,2
0.705,-0.082,0.849,-0.481,-0.445,0.731,0.965,0.005,0.015,2
0.727,-0.058,0.806,-0.476,-0.721,1.087,0.991,0.039,0.002,2
0.801,0.102,0.683,-0.56,-0.722,1.218,1.052,0.044,0.034,2
0.768,0.168,0.73,-0.521,-0.76,0.867,1.011,-0.0,0.01,2
0.571,0.326,0.996,-0.623,-0.591,0.709,1.013,-0.054,-0.022,2
0.451,0.456,1.202,-0.942,-0.083,0.352,0.999,-0.019,-0.072,2
0.301,0.659,0.942,-0.767,-0.226,0.478,0.976,-0.003,-0.083,2
-0.03,0.487,0.663,-0.398,-0.466,0.487,0.995,-0.01,-0.103,2
-0.342,0.213,0.686,-0.152,-0.286,0.624,0.999,-0.017,-0.125,2
-0.59,0.009,0.771,-0.17,-0.4,0.561,0.975,-0.049,-0.137,2
-0.727,-0.182,0.709,-0.366,-0.63,0.745,0.98,-0.073,-0.167,2
-0.765,-0.302,0.583,-0.499,-0.79,1.154,0.971,-0.066,-0.229,2
-0.738,-0.329,0.542,-0.497,-0.788,1.128,0.962,0.001,-0.272,2
-0.799,-0.426,0.426,-0.595,-0.521,0.783,0.967,0.03,-0.292,2
-0.721,-0.422,0.315,-0.701,-0.137,0.583,0.938,-0.049,-0.342,2
-0.457,-0.169,0.568,-0.707,0.021,0.429,0.952,-0.06,-0.291,2
-0.239,0.032,0.363,-0.167,-0.379,0.703,0.929,-0.1,-0.33,2
-0.648,-0.281,0.598,0.496,-0.835,0.833,0.935,-0.094,-0.336,2
-0.595,-0.132,0.828,0.03,-0.471,0.678,0.931,-0.118,-0.346,2
-0.594,-0.136,1.006,0.143,-0.649,0.913,0.929,-0.119,-0.348,2
-0.679,-0.292,1.126,0.149,-0.766,1.099,0.933,-0.139,-0.336,2
-0.693,-0.281,0.854,0.19,-0.67,0.946,0.921,-0.123,-0.354,2
-0.67,-0.253,0.643,0.313,-0.695,0.736,0.919,-0.119,-0.356,2
-0.578,-0.319,0.473,0.356,-0.752,0.615,0.923,-0.131,-0.349,2
-0.046,0.217,1.018,0.253,-0.665,0.448,0.925,-0.125,-0.35,2
-0.275,0.256,0.922,0.201,-0.603,0.356,0.944,-0.089,-0.32,2
-0.228,0.163,1.072,0.315,-0.7,0.334,0.93,-0.111,-0.362,2
-0.158,0.127,1.081,0.723,-0.827,0.424,0.932,-0.101,-0.342,2
-0.119,0.06,1.134,0.842,-0.823,0.521,0.938,-0.135,-0.324,2
-0.173,0.093,1.172,0.757,-0.645,0.635,0.937,-0.112,-0.316,2
-0.325,0.104,1.019,0.726,-0.598,0.63,0.934,-0.097,-0.328,2
-0.461,0.164,0.683,0.792,-0.528,0.499,0.944,-0.082,-0.327,2
-0.617,0.016,0.203,0.882,-0.44,0.352,0.94,-0.058,-0.34,2
0.005,0.389,0.85,0.809,-0.417,0.337,0.945,-0.08,-0.301,2
0.313,0.728,1.403,0.85,-0.625,0.466,0.953,-0.052,-0.271,2
0.017,0.45,0.997,0.774,-0.784,0.456,0.968,-0.036,-0.258,2
0.111,0.398,0.979,0.65,-0.826,0.616,0.973,0.012,-0.237,2
0.155,0.387,0.915,0.454,-0.818,0.751,0.986,0.039,-0.217,2
0.194,0.259,0.939,0.137,-0.804,0.759,0.989,0.045,-0.188,2
0.205,0.248,0.843,-0.166,-0.74,0.606,1.0,0.059,-0.131,2
0.17,0.444,0.826,-0.446,-0.357,0.586,1.021,0.024,-0.063,2
0.236,0.457,0.774,-0.671,-0.043,0.505,0.99,-0.016,-0.009,2
0.447,0.398,0.842,-0.767,-0.009,0.501,0.987,-0.032,0.015,2
0.594,0.281,0.915,-0.616,-0.139,0.594,0.963,-0.026,-0.039,2
0.527,0.207,0.708,-0.366,-0.395,0.599,0.973,-0.042,-0.02,2
0.71,0.1,0.943,-0.576,-0.297,0.519,1.01,0.025,0.034,2
0.603,0.163,0.901,-0.713,0.071,0.44,1.028,-0.016,0.037,2
0.665,0.17,0.839,-0.854,0.356,0.484,0.968,-0.067,0.045,2
0.661,0.242,0.756,-0.877,0.667,0.565,0.979,-0.028,-0.05,2
0.668,0.292,0.8,-0.685,0.273,0.777,1.031,-0.034,-0.038,2
0.513,0.485,0.856,-0.262,-0.409,0.786,0.986,-0.047,-0.068,2
0.325,0.61,0.979,-0.396,-0.353,0.636,0.995,-0.055,-0.094,2
0.166,0.646,1.033,-0.425,-0.409,0.799,0.991,-0.053,-0.148,2
-0.062,0.509,0.854,-0.42,-0.719,1.016,0.978,-0.071,-0.195,2
-0.314,0.384,0.593,-0.334,-0.595,1.006,0.977,-0.063,-0.208,2
-0.539,0.087,0.629,-0.225,-0.561,0.9,0.955,-0.088,-0.25,2
-0.718,-0.167,0.719,-0.199,-0.644,0.826,0.946,-0.122,-0.273,2
-0.749,-0.283,0.72,-0.172,-0.667,0.82,0.944,-0.099,-0.285,2
-0.759,-0.269,0.576,-0.179,-0.667,0.862,0.952,-0.113,-0.293,2
-0.861,-0.288,0.42,-0.282,-0.587,0.892,0.935,-0.087,-0.341,2
-0.825,-0.369,0.297,-0.409,-0.605,0.836,0.931,-0.102,-0.355,2
-0.765,-0.436,0.257,-0.499,-0.388,0.523,0.938,-0.113,-0.347,2
-0.354,-0.105,0.843,-0.431,-0.229,0.479,0.926,-0.13,-0.357,2
-0.474,-0.051,0.762,-0.139,-0.525,0.82,0.937,-0.153,-0.333,2
-0.495,-0.147,0.75,-0.054,-0.544,0.641,0.928,-0.123,-0.337,2
-0.506,-0.123,0.864,-0.036,-0.514,0.854,0.933,-0.158,-0.342,2
-0.555,-0.163,0.998,0.031,-0.556,1.016,0.92,-0.14,-0.375,2
-0.729,-0.223,1.116,0.062,-0.659,0.918,0.925,-0.129,-0.359,2
-0.724,-0.113,0.924,0.084,-0.71,0.813,0.921,-0.142,-0.355,2
-0.78,-0.061,0.621,0.076,-0.64,0.78,0.919,-0.16,-0.345,2
-0.636,-0.152,0.393,0.062,-0.659,0.728,0.922,-0.166,-0.345,2
-0.383,-0.126,0.395,0.008,-0.657,0.601,0.922,-0.177,-0.336,2
0.095,0.453,1.265,0.009,-0.635,0.378,0.928,-0.183,-0.323,2
-0.116,0.233,1.207,0.044,-0.682,0.292,0.918,-0.167,-0.34,2
-0.138,0.309,1.237,0.353,-1.032,0.431,0.93,-0.146,-0.333,2
-0.183,0.217,1.113,0.481,-0.82,0.565,0.928,-0.148,-0.325,2
-0.234,0.034,1.06,0.646,-0.855,0.761,0.937,-0.144,-0.32,2
-0.318,0.029,0.839,0.493,-0.695,0.707,0.935,-0.122,-0.34,2
-0.456,-0.058,0.616,0.514,-0.747,0.626,0.936,-0.124,-0.328,2
-0.355,-0.099,0.327,0.547,-0.829,0.606,0.94,-0.129,-0.322,2
0.396,0.565,1.157,0.506,-0.843,0.532,0.938,-0.12,-0.306,2
0.407,0.542,1.368,0.462,-0.958,0.657,0.944,-0.098,-0.305,2
0.198,0.32,1.142,0.237,-0.908,0.847,0.94,-0.123,-0.294,2
0.071,0.293,1.135,-0.079,-0.726,0.82,0.953,-0.093,-0.285,2
-0.048,0.186,0.931,-0.375,-0.391,0.669,0.957,-0.052,-0.272,2
-0.259,0.157,0.731,-0.641,-0.077,0.458,0.959,-0.035,-0.25,2
-0.451,0.097,0.553,-0.599,0.036,0.454,0.971,-0.028,-0.223,2
0.118,0.685,0.964,-0.129,-0.405,0.527,0.981,0.014,-0.214,2
0.27,0.703,1.182,-0.105,-0.514,0.525,0.981,0.033,-0.217,2
0.113,0.192,0.98,-0.304,-0.255,0.439,0.973,0.027,-0.224,2
0.13,0.176,0.895,-0.377,-0.398,0.677,0.982,-0.008,-0.18,2
0.125,0.135,0.79,-0.248,-0.709,1.078,0.99,0.002,-0.126,2
0.239,0.571,0.556,-0.05,-0.905,1.036,0.981,-0.049,-0.109,2
0.557,0.669,0.539,-0.084,-0.905,0.947,0.994,-0.014,-0.087,2
0.863,0.477,0.745,-0.083,-0.969,0.794,0.999,-0.009,-0.109,2
0.752,0.594,0.828,-0.136,-0.919,0.735,1.0,0.019,-0.082,2
0.733,0.527,0.653,-0.223,-0.896,0.718,1.007,-0.015,-0.06,2
0.7,0.52,0.621,-0.388,-0.681,0.7,1.007,-0.029,-0.023,2
0.681,0.783,0.645,-0.581,-0.385,0.563,0.995,0.007,-0.039,2
0.494,0.938,0.622,-0.679,-0.005,0.468,0.995,-0.008,-0.065,2
0.239,1.008,0.626,-0.517,-0.105,0.493,0.976,0.021,-0.04,2
-0.102,0.976,0.662,0.072,-0.421,0.71,1.015,0.02,-0.021,2
-0.248,0.68,0.5,0.008,-0.473,0.708,0.996,-0.082,-0.021,2
-0.386,0.348,0.495,-0.09,-0.41,0.718,0.966,0.019,-0.031,2
-0.482,0.112,0.774,-0.034,-0.604,0.929,0.982,-0.031,-0.122,2
-0.651,-0.011,0.95,0.137,-0.684,1.18,1.027,-0.04,-0.045,2
-0.753,-0.109,0.788,0.131,-0.748,1.122,0.98,-0.076,-0.106,2
-0.723,-0.095,0.608,0.065,-0.85,0.945,0.997,-0.059,-0.139,2
-0.793,-0.156,0.606,-0.073,-0.703,0.776,0.99,-0.063,-0.189,2
-0.852,-0.341,0.59,-0.122,-0.545,0.752,0.962,-0.079,-0.233,2
-0.559,-0.191,0.511,-0.025,-0.354,0.752,0.959,-0.102,-0.241,2
-0.418,0.021,0.636,0.369,-0.702,0.67,0.95,-0.109,-0.295,2
-0.415,0.123,0.721,0.122,-0.532,0.849,0.951,-0.112,-0.297,2
-0.509,-0.021,0.741,0.111,-0.637,0.883,0.953,-0.106,-0.288,2
-0.716,-0.036,0.947,0.032,-0.693,0.755,0.92,-0.122,-0.36,2
-0.811,-0.14,1.085,-0.068,-0.567,0.563,0.925,-0.093,-0.361,2
-0.737,-0.219,0.895,-0.046,-0.458,0.423,0.934,-0.116,-0.36,2
-0.795,-0.134,0.5,0.122,-0.571,0.441,0.931,-0.142,-0.36,2
-0.648,-0.15,0.35,0.295,-0.64,0.533,0.92,-0.13,-0.356,2
-0.305,-0.006,0.399,0.621,-0.505,0.638,0.912,-0.138,-0.379,2
0.175,0.543,1.219,0.823,-0.537,0.711,0.921,-0.157,-0.358,2
-0.133,0.445,1.195,0.783,-0.573,0.735,0.911,-0.128,-0.347,2
-0.187,0.497,1.223,0.694,-0.582,0.603,0.927,-0.168,-0.332,2
-0.301,0.365,1.178,0.704,-0.7,0.56,0.929,-0.159,-0.35,2
-0.299,0.347,1.146,0.804,-0.898,0.478,0.925,-0.141,-0.359,2
-0.363,0.267,0.885,0.732,-1.081,0.466,0.931,-0.155,-0.332,2
-0.496,0.237,0.758,0.399,-0.905,0.74,0.915,-0.162,-0.343,2
-0.6,0.163,0.673,0.027,-0.646,0.774,0.938,-0.181,-0.326,2
-0.716,0.122,0.616,-0.28,-0.36,0.507,0.935,-0.144,-0.334,2
-0.733,0.014,0.579,-0.56,-0.25,0.455,0.918,-0.074,-0.371,2
-0.409,-0.118,0.416,-0.737,0.042,0.513,0.963,0.002,-0.279,2
0.18,0.452,1.132,-0.745,0.186,0.583,0.959,-0.003,-0.255,2
-0.14,0.279,0.997,-0.222,-0.18,0.93,0.974,0.015,-0.24,2
-0.185,0.381,1.303,0.068,-0.492,0.624,0.98,0.033,-0.214,2
-0.47,0.269,1.352,-0.255,-0.293,0.39,0.995,0.019,-0.156,2
-0.531,0.183,1.119,-0.246,-0.45,0.521,1.004,-0.021,-0.117,2
-0.578,0.12,0.743,-0.204,-0.875,0.973,1.009,0.023,-0.093,2
-0.639,-0.105,0.468,-0.063,-0.928,1.138,1.017,0.049,-0.077,2
-0.632,-0.252,0.285,-0.174,-0.863,0.915,1.004,0.04,-0.057,2
-0.402,-0.102,0.122,-0.076,-0.938,0.836,0.979,0.079,-0.014,2
0.116,0.504,0.828,-0.028,-0.876,0.778,0.979,0.036,-0.1,2
-0.011,0.782,1.465,-0.157,-0.945,0.75,0.984,0.04,-0.022,2
-0.032,0.473,1.363,-0.437,-0.604,0.587,1.008,0.007,0.001,2
0.122,0.334,1.065,-0.646,-0.336,0.482,1.0,0.015,-0.016,2
0.135,0.336,0.825,-0.735,-0.09,0.362,1.0,0.02,-0.011,2
0.125,0.341,0.815,-0.42,-0.194,0.554,1.024,-0.018,-0.028,2
0.104,0.336,0.805,0.312,-0.709,0.65,0.938,0.045,-0.069,2
0.416,0.271,0.616,-0.055,-0.401,0.601,1.016,-0.031,-0.164,2
0.742,0.237,0.687,-0.043,-0.824,0.688,1.004,0.025,-0.103,2
0.863,0.632,0.868,-0.011,-0.917,1.094,0.979,-0.021,-0.128,2
0.834,0.589,1.033,-0.029,-0.883,1.033,0.972,-0.046,-0.201,2
0.741,0.428,0.816,-0.043,-0.956,0.924,0.95,-0.077,-0.216,2
0.792,0.486,0.726,-0.057,-0.871,0.785,0.98,-0.14,-0.224,2
0.642,0.475,0.597,-0.212,-0.643,0.647,0.96,-0.077,-0.254,2
0.465,0.626,0.681,-0.569,-0.386,0.423,0.928,-0.17,-0.354,2
0.268,0.696,0.758,-0.709,-0.069,0.25,0.966,-0.171,-0.283,2
0.06,0.84,0.723,-0.418,-0.09,0.359,0.88,-0.12,-0.38,2
-0.095,0.725,0.768,0.275,-0.48,0.81,0.939,-0.152,-0.317,2
-0.34,0.545,0.74,0.382,-0.7,1.027,0.914,-0.105,-0.373,2
-0.462,0.329,0.735,0.125,-0.587,0.999,0.921,-0.171,-0.37,2
-0.487,0.187,0.852,-0.027,-0.797,1.033,0.947,-0.115,-0.288,2
-0.56,0.09,0.792,-0.071,-0.686,0.831,0.928,-0.119,-0.354,2
-0.699,0.044,0.77,0.038,-0.678,0.673,0.933,-0.157,-0.369,2
-0.757,-0.021,0.654,0.047,-0.591,0.508,0.934,-0.115,-0.354,2
-0.761,-0.153,0.595,0.13,-0.766,0.476,0.916,-0.16,-0.394,2
-0.819,-0.239,0.521,0.291,-0.565,0.558,0.916,-0.175,-0.351,2
-0.853,-0.358,0.453,0.544,-0.525,0.578,0.927,-0.164,-0.324,2
-0.796,-0.377,0.365,0.713,-0.635,0.664,0.936,-0.236,-0.3,2
-0.614,-0.296,0.44,0.712,-0.594,0.754,0.932,-0.199,-0.32,2
-0.509,0.025,0.634,0.733,-0.659,0.794,0.916,-0.105,-0.348,2
-0.503,-0.003,0.688,0.805,-0.802,0.636,0.916,-0.095,-0.363,2
-0.391,0.224,0.864,0.716,-0.85,0.548,0.931,-0.088,-0.352,2
-0.488,0.317,1.063,0.702,-0.922,0.529,0.946,-0.096,-0.329,2
-0.534,0.071,1.211,0.494,-0.938,0.712,0.929,-0.137,-0.344,2
-0.559,0.042,1.15,0.12,-0.859,0.789,0.948,-0.06,-0.317,2
-0.531,0.11,0.947,-0.198,-0.603,0.632,0.937,-0.008,-0.354,2
-0.541,0.067,0.66,-0.593,-0.026,0.464,0.933,-0.012,-0.354,2
-0.604,0.058,0.576,-0.612,-0.008,0.405,0.965,0.0,-0.289,2
-0.603,0.051,0.525,-0.246,-0.146,0.588,0.991,0.016,-0.207,2
-0.439,0.083,0.448,-0.021,-0.372,0.521,0.983,0.008,-0.184,2
1.601,7.059,8.57,-0.225,-0.413,0.51,0.984,-0.054,-0.183,2
0.232,0.897,1.31,-0.434,-0.65,0.744,0.998,-0.024,-0.089,2
0.171,0.583,1.035,-0.391,-0.94,0.946,0.98,-0.002,-0.03,2
0.293,0.487,0.926,-0.339,-0.906,0.846,0.978,-0.045,-0.06,2
0.285,0.376,0.84,-0.309,-0.853,0.792,0.976,-0.029,-0.041,2
0.282,0.239,0.843,-0.187,-0.927,0.702,1.026,0.026,-0.009,2
0.323,0.195,0.869,-0.116,-0.925,0.721,0.985,0.063,-0.054,2
0.303,0.128,0.838,-0.309,-0.944,0.789,0.982,0.019,-0.092,2
0.39,0.071,0.809,-0.609,-0.584,0.679,0.986,-0.004,-0.09,2
0.566,0.088,0.899,-0.778,-0.21,0.43,0.985,-0.031,-0.095,2
0.564,-0.044,0.916,-0.715,-0.055,0.4,0.986,-0.061,-0.153,2
0.628,-0.023,0.936,-0.36,-0.063,0.38,0.997,-0.003,-0.189,2
0.616,0.025,0.82,-0.009,-0.718,0.487,1.0,0.04,-0.223,2
0.646,0.081,0.86,-0.229,-0.554,0.445,0.957,-0.055,-0.288,2
0.6,0.246,0.96,-0.303,-0.61,0.725,0.948,-0.051,-0.301,2
0.439,0.408,1.034,-0.195,-0.94,0.932,0.959,-0.064,-0.27,2
0.241,0.473,0.996,-0.185,-0.933,0.944,0.932,-0.109,-0.31,2
0.053,0.506,0.926,-0.201,-1.016,0.83,0.932,-0.107,-0.34,2
-0.242,0.498,0.84,-0.22,-0.828,0.703,0.939,-0.08,-0.346,2
-0.452,0.264,0.738,-0.27,-0.56,0.701,0.93,-0.103,-0.359,2
-0.59,0.1,0.72,-0.311,-0.377,0.534,0.93,-0.129,-0.35,2
-0.659,-0.08,0.732,-0.02,-0.555,0.684,0.932,-0.118,-0.327,2
-0.752,-0.203,0.663,0.279,-0.74,0.654,0.935,-0.111,-0.348,2
-0.79,-0.315,0.517,0.285,-0.7,0.799,0.924,-0.082,-0.371,2
-0.814,-0.346,0.378,0.335,-0.77,0.824,0.928,-0.105,-0.354,2
-0.777,-0.426,0.302,0.298,-0.755,0.771,0.925,-0.131,-0.342,2
-0.729,-0.309,0.202,0.3,-0.749,0.568,0.91,-0.156,-0.364,2
-0.548,-0.181,0.48,0.258,-0.678,0.405,0.92,-0.169,-0.33,2
-0.514,-0.061,0.595,0.326,-0.551,0.37,0.922,-0.155,-0.337,2
-0.539,-0.069,0.613,0.657,-0.706,0.554,0.917,-0.166,-0.359,2
-0.511,0.059,0.788,0.879,-0.775,0.517,0.919,-0.135,-0.35,2
-0.481,0.086,1.141,0.748,-0.515,0.366,0.915,-0.138,-0.354,2
-0.41,0.162,1.269,0.912,-0.449,0.348,0.908,-0.186,-0.344,2
-0.445,0.075,1.257,0.952,-0.404,0.388,0.939,-0.12,-0.333,2
-0.416,0.128,1.062,0.856,-0.375,0.38,0.935,-0.07,-0.354,2
-0.515,0.222,0.921,0.947,-0.505,0.364,0.915,-0.157,-0.388,2
-0.522,0.167,0.689,1.05,-0.739,0.248,0.932,-0.156,-0.311,2
-0.359,0.364,0.737,0.942,-0.876,0.353,0.935,-0.166,-0.313,2
-0.269,0.535,0.812,0.797,-1.154,0.499,0.917,-0.183,-0.335,2
-0.089,0.695,0.753,0.369,-0.988,0.447,0.925,-0.17,-0.339,2
-0.139,0.585,0.796,-0.084,-0.492,0.441,0.926,-0.128,-0.345,2
-0.123,0.407,1.138,-0.451,-0.158,0.581,0.925,-0.145,-0.358,2
-0.058,0.231,0.53,-0.372,-0.091,0.576,0.929,-0.122,-0.336,2
-0.154,0.196,1.184,-0.095,-0.379,0.788,0.918,-0.153,-0.366,2
-0.307,0.083,1.088,-0.277,-0.361,0.697,0.935,-0.105,-0.337,2
-0.351,0.146,0.749,-0.339,-0.472,0.59,0.953,-0.004,-0.304,2
-0.227,0.216,0.446,-0.256,-0.724,0.691,0.955,-0.04,-0.298,2
0.292,0.76,1.091,-0.131,-0.931,0.835,0.949,-0.02,-0.28,2
0.191,0.667,1.182,-0.204,-0.797,0.936,0.986,0.003,-0.21,2
0.085,0.383,0.952,-0.202,-0.978,1.005,0.997,0.029,-0.163,2
0.062,0.386,0.908,-0.178,-1.008,0.889,0.977,0.003,-0.163,2
0.097,0.489,0.795,-0.245,-0.842,0.832,0.993,0.016,-0.135,2
0.296,0.2,0.8,-0.474,-0.504,0.577,1.007,0.044,-0.098,2
0.331,0.141,0.769,-0.824,-0.073,0.406,0.988,-0.003,-0.07,2
0.495,0.19,0.977,-0.64,-0.051,0.448,0.984,0.048,-0.059,2
0.676,0.095,1.086,0.036,-0.542,0.537,1.014,0.031,-0.044,2
0.625,0.217,1.138,0.006,-0.705,0.505,0.988,0.033,-0.031,2
0.57,0.104,0.931,-0.218,-0.508,0.466,1.008,0.033,-0.057,2
0.645,0.097,0.882,-0.035,-0.838,1.019,0.986,0.073,-0.055,2
0.525,0.28,0.813,0.039,-0.789,1.161,0.975,0.091,-0.073,2
0.383,0.542,0.835,-0.018,-0.869,0.899,0.949,0.002,-0.122,2
0.234,0.661,0.888,-0.029,-1.062,0.802,0.988,-0.07,-0.117,2
0.06,0.762,0.962,-0.171,-0.893,0.564,1.022,0.026,-0.047,2
-0.136,0.741,0.8,-0.338,-0.453,0.509,0.956,-0.078,-0.191,2
-0.36,0.695,0.718,-0.364,-0.306,0.469,0.977,-0.151,-0.17,2
-0.486,0.477,0.75,0.041,-0.637,0.626,0.975,-0.105,-0.23,2
-0.53,0.222,0.757,0.411,-1.025,0.755,0.932,-0.114,-0.288,2
-0.629,-0.001,0.767,0.156,-0.638,0.774,0.917,-0.054,-0.377,2
-0.679,-0.16,0.629,0.196,-0.68,0.91,0.955,-0.106,-0.336,2
-0.695,-0.175,0.636,0.179,-0.594,1.053,0.91,-0.101,-0.405,2
-0.765,-0.284,0.623,0.216,-0.7,0.875,0.918,-0.167,-0.34,2
-0.825,-0.302,0.568,0.157,-0.68,0.67,0.924,-0.197,-0.304,2
-0.828,-0.281,0.445,0.056,-0.652,0.567,0.925,-0.174,-0.315,2
-0.801,-0.357,0.353,0.031,-0.663,0.576,0.924,-0.121,-0.359,2
-0.646,-0.376,0.27,0.09,-0.723,0.606,0.931,-0.094,-0.337,2
-0.328,0.083,0.777,0.001,-0.738,0.532,0.93,-0.217,-0.313,2
-0.542,-0.065,0.62,0.139,-1.065,0.582,0.917,-0.154,-0.33,2
-0.627,0.129,0.672,0.292,-0.97,0.66,0.917,-0.159,-0.35,2
-0.729,-0.136,1.061,0.339,-0.764,0.767,0.922,-0.18,-0.346,2
-0.601,0.026,1.084,0.217,-0.733,0.742,0.938,-0.134,-0.331,2
-0.588,-0.113,1.02,0.25,-0.796,0.771,0.93,-0.14,-0.355,2
-0.635,-0.024,0.845,0.199,-0.803,0.643,0.932,-0.125,-0.342,2
-0.631,-0.052,0.676,0.226,-0.888,0.577,0.918,-0.149,-0.353,2
-0.515,0.004,0.534,0.238,-0.952,0.617,0.924,-0.13,-0.344,2
-0.161,0.413,0.941,0.217,-1.004,0.856,0.944,-0.106,-0.325,2
-0.145,0.493,1.054,0.059,-0.781,0.96,0.953,-0.008,-0.297,2
-0.156,0.42,1.055,-0.196,-0.496,0.853,0.944,-0.042,-0.318,2
-0.218,0.308,1.124,-0.439,-0.307,0.658,0.968,0.011,-0.278,2
-0.237,0.238,1.058,-0.641,-0.007,0.41,0.975,0.019,-0.216,2
-0.307,0.205,0.896,-0.572,0.077,0.466,0.984,0.012,-0.179,2
-0.4,0.212,0.816,-0.293,-0.102,0.675,0.999,0.044,-0.137,2
-0.465,0.104,0.718,-0.139,-0.321,0.647,0.995,0.016,-0.123,2
-0.322,0.19,0.576,-0.38,-0.198,0.694,0.995,0.024,-0.084,2
0.317,1.813,2.469,-0.407,-0.458,0.573,0.985,0.045,-0.063,2
-0.001,0.46,1.02,-0.352,-0.692,0.769,0.997,0.049,-0.054,2
0.022,0.322,1.035,-0.24,-0.932,0.892,0.986,0.03,-0.045,2
0.048,0.484,1.011,-0.247,-0.991,0.903,1.002,0.056,-0.027,2
-0.036,0.355,0.85,-0.377,-0.888,0.701,0.999,0.096,-0.007,2
-0.062,0.432,0.979,-0.255,-0.969,0.798,1.035,0.043,-0.034,2
-0.027,0.34,0.958,-0.307,-1.028,0.836,1.021,0.032,0.01,2
0.07,0.29,0.918,-0.486,-0.618,0.6,0.96,0.068,-0.031,2
0.211,0.253,0.808,-0.678,-0.294,0.46,0.992,0.05,0.033,2
0.347,0.158,0.787,-0.735,-0.02,0.475,0.989,-0.022,0.047,2
0.657,0.086,1.013,-0.578,0.034,0.678,1.011,0.022,0.012,2
0.618,0.184,0.937,-0.221,-0.233,0.68,0.998,0.052,0.044,2
0.548,0.349,0.937,-0.176,-0.38,0.506,1.004,-0.036,0.014,2
0.624,0.311,0.794,-0.299,-0.334,0.568,0.995,-0.019,-0.056,2
0.554,0.433,0.796,-0.262,-0.658,0.831,0.976,-0.069,-0.13,2
0.434,0.616,0.866,-0.137,-1.011,1.066,0.966,0.036,-0.124,2
0.197,0.772,0.731,-0.331,-0.861,1.181,1.026,-0.155,-0.268,2
-0.042,0.702,0.631,-0.373,-0.925,0.923,0.896,-0.083,-0.315,2
-0.184,0.653,0.635,-0.364,-0.621,0.698,0.965,-0.189,-0.233,2
-0.331,0.611,0.752,-0.532,-0.306,0.46,0.997,-0.155,-0.233,2
-0.417,0.436,0.903,-0.509,-0.126,0.256,0.924,-0.172,-0.361,2
-0.498,0.25,0.907,-0.1,-0.432,0.34,0.941,-0.148,-0.34,2
-0.551,0.135,0.82,0.29,-0.783,0.811,0.916,-0.194,-0.359,2
-0.667,0.022,0.767,0.156,-0.767,0.945,0.919,-0.198,-0.34,2
-0.713,-0.021,0.69,0.118,-0.889,1.07,0.949,-0.18,-0.276,2
-0.771,-0.153,0.635,0.14,-0.786,0.933,0.916,-0.136,-0.38,2
-0.866,-0.302,0.502,0.275,-0.894,0.765,0.934,-0.091,-0.357,2
-0.803,-0.348,0.478,0.271,-0.812,0.568,0.925,-0.16,-0.344,2
-0.422,-0.046,0.637,0.063,-0.676,0.451,0.937,-0.198,-0.327,2
-0.301,0.104,0.762,-0.055,-0.663,0.397,0.939,-0.09,-0.35,2
-0.525,0.003,0.658,-0.093,-0.736,0.325,0.926,-0.066,-0.339,2
-0.605,0.001,0.857,0.031,-0.715,0.33,0.964,-0.069,-0.237,2
-0.683,-0.025,0.943,0.43,-0.735,0.507,0.963,-0.047,-0.23,2
-0.685,-0.057,1.019,0.802,-0.69,0.653,0.981,-0.038,-0.205,2
-0.688,-0.103,1.03,0.878,-0.759,0.706,0.991,0.034,-0.188,2
-0.645,-0.048,0.797,0.68,-0.699,0.602,0.989,0.014,-0.186,2
-0.739,0.011,0.613,0.75,-0.76,0.501,0.992,0.029,-0.12,2
-0.752,-0.164,0.562,0.766,-0.895,0.472,1.009,0.019,-0.077,2
-0.583,-0.07,0.582,0.674,-0.891,0.544,1.008,0.019,-0.07,2
-0.375,0.229,0.868,0.464,-0.915,0.671,0.977,0.029,-0.076,2
-0.289,0.312,0.969,0.06,-0.791,0.781,0.971,0.048,-0.075,2
-0.356,0.36,0.869,-0.283,-0.533,0.606,0.993,0.065,-0.039,2
-0.278,0.33,0.985,-0.482,-0.151,0.519,0.993,-0.015,-0.065,2
-0.239,0.354,1.122,-0.481,-0.033,0.376,0.998,0.009,-0.085,2
-0.249,0.284,1.137,-0.204,-0.295,0.704,0.984,0.03,-0.139,2
-0.303,0.223,0.981,-0.035,-0.517,0.851,0.981,0.014,-0.191,2
-0.393,0.063,0.846,-0.264,-0.356,0.938,0.99,-0.013,-0.182,2
-0.3,0.222,0.616,-0.416,-0.382,0.74,0.975,-0.02,-0.189,2
-0.271,0.241,0.558,-0.437,-0.469,0.577,0.957,-0.08,-0.254,2
0.042,0.724,1.041,-0.605,-0.678,0.401,0.954,-0.084,-0.279,2
0.147,0.677,1.062,-0.573,-0.904,0.871,0.944,-0.086,-0.318,2
0.333,0.52,1.094,-0.567,-0.859,1.223,0.941,-0.071,-0.308,2
0.406,0.412,0.949,-0.418,-0.851,0.912,0.941,-0.083,-0.324,2
0.385,0.322,0.91,-0.589,-0.521,0.582,0.94,-0.147,-0.325,2
0.292,0.157,0.824,-0.673,-0.169,0.317,0.936,-0.142,-0.328,2
0.295,0.328,0.848,-0.619,-0.177,0.35,0.925,-0.117,-0.367,2
0.577,0.095,0.96,-0.49,-0.061,0.698,0.928,-0.091,-0.358,2
0.425,0.245,1.006,0.025,-0.485,0.759,0.916,-0.124,-0.364,2
0.461,0.276,1.011,-0.193,-0.459,0.622,0.926,-0.169,-0.342,2
0.458,0.361,0.92,-0.282,-0.496,0.674,0.917,-0.152,-0.333,2
0.336,0.558,0.906,-0.198,-0.678,0.898,0.913,-0.185,-0.341,2
0.167,0.621,0.893,-0.245,-0.775,1.232,0.926,-0.171,-0.319,2
-0.071,0.64,0.791,-0.247,-1.021,1.182,0.916,-0.159,-0.36,2
-0.301,0.655,0.737,-0.313,-0.851,0.913,0.914,-0.136,-0.375,2
-0.473,0.466,0.743,-0.426,-0.529,0.606,0.923,-0.127,-0.347,2
-0.556,0.321,0.75,-0.532,-0.179,0.33,0.927,-0.175,-0.329,2
-0.617,0.2,0.775,-0.326,-0.271,0.402,0.938,-0.122,-0.315,2
-0.665,0.074,0.771,-0.028,-0.472,0.614,0.935,-0.136,-0.329,2
-0.686,-0.042,0.705,0.002,-0.451,0.812,0.929,-0.117,-0.35,2
-0.742,-0.136,0.634,0.072,-0.585,1.044,0.923,-0.12,-0.365,2
-0.781,-0.236,0.585,0.073,-0.682,1.14,0.928,-0.099,-0.368,2
-0.729,-0.351,0.351,0.117,-0.647,0.893,0.947,-0.099,-0.313,2
-0.694,-0.329,0.491,0.247,-0.75,0.791,0.963,-0.069,-0.264,2
-0.364,0.093,0.862,0.221,-0.746,0.681,0.956,-0.027,-0.259,2
-0.443,0.158,0.801,0.084,-0.681,0.579,0.974,-0.009,-0.235,2
-0.535,-0.019,0.753,0.051,-0.707,0.594,0.978,0.005,-0.209,2
-0.464,0.048,0.975,0.062,-0.712,0.585,1.005,0.013,-0.177,2
-0.408,0.026,1.076,0.094,-0.644,0.522,0.998,0.048,-0.1,2
-0.381,0.011,1.101,0.274,-0.748,0.537,0.965,0.055,-0.153,2
-0.425,-0.01,1.066,0.432,-0.698,0.609,0.979,0.011,-0.113,2
-0.526,0.081,1.04,0.646,-0.729,0.623,1.003,0.076,-0.045,2
-0.556,0.072,0.903,0.68,-0.678,0.721,1.007,0.043,-0.055,2
-0.616,-0.152,0.38,0.707,-0.68,0.74,0.984,0.039,-0.062,2
-0.298,0.058,0.503,0.692,-0.674,0.687,0.977,0.087,-0.057,2
1.577,4.932,9.955,0.632,-0.742,0.537,0.981,0.043,-0.052,2
0.012,0.289,1.104,0.579,-0.803,0.499,0.994,-0.055,-0.065,2
0.004,0.291,1.08,0.506,-0.782,0.536,1.01,-0.006,-0.063,2
-0.03,0.117,1.206,0.338,-0.824,0.644,1.021,-0.026,-0.085,2
-0.138,0.122,1.147,0.09,-0.934,0.813,0.965,-0.01,-0.191,2
-0.356,0.078,0.991,-0.208,-0.855,0.738,0.977,-0.011,-0.23,2
-0.545,0.119,0.893,-0.468,-0.423,0.506,0.962,-0.026,-0.277,2
-0.677,0.042,0.29,-0.621,-0.104,0.43,0.949,-0.087,-0.308,2
-0.557,0.215,0.287,-0.568,0.031,0.389,0.93,-0.081,-0.324,2
-0.306,0.558,0.682,-0.066,-0.264,0.872,0.942,-0.109,-0.32,2
-0.11,0.555,1.072,-0.019,-0.543,0.935,0.931,-0.111,-0.33,2
0.083,0.387,1.033,-0.314,-0.424,0.869,0.924,-0.132,-0.346,2
0.198,0.341,1.032,-0.737,-0.425,0.941,0.919,-0.153,-0.347,2
0.333,0.549,0.834,-0.585,-0.642,0.91,0.926,-0.155,-0.34,2
0.518,0.5,0.86,-0.434,-0.508,0.763,0.931,-0.17,-0.332,2
0.619,0.182,0.851,-0.311,-0.661,0.844,0.925,-0.158,-0.331,2
0.605,0.068,0.842,-0.57,-0.397,0.581,0.929,-0.179,-0.326,2
0.57,0.201,1.022,-0.345,-0.47,0.645,0.931,-0.162,-0.32,2
0.617,0.227,0.993,-0.206,-0.632,0.752,0.91,-0.168,-0.358,2
0.634,0.387,1.062,-0.297,-0.552,0.897,0.906,-0.159,-0.386,2
0.416,0.661,1.035,-0.443,-0.746,0.94,0.922,-0.186,-0.322,2
-0.044,0.609,0.732,-0.367,-0.488,0.788,0.944,-0.082,-0.32,2
-0.354,0.523,0.619,-0.26,-0.365,0.604,0.919,-0.124,-0.372,2
-0.601,0.295,0.53,0.297,-0.734,1.044,0.933,-0.21,-0.327,2
-0.707,0.103,0.703,-0.001,-0.574,0.987,0.93,-0.181,-0.313,2
-0.752,-0.071,0.853,-0.059,-0.672,0.73,0.918,-0.116,-0.349,2
-0.766,-0.209,0.637,-0.127,-0.608,0.581,0.947,-0.035,-0.309,2
-0.805,-0.414,0.446,-0.062,-0.7,0.624,0.946,-0.009,-0.308,2
-0.81,-0.287,0.39,0.023,-0.893,0.933,0.958,-0.032,-0.279,2
-0.675,-0.277,0.179,-0.063,-0.966,0.98,0.972,0.055,-0.253,2
-0.47,-0.128,0.611,-0.189,-0.655,0.917,0.997,0.113,-0.249,2
-0.317,0.108,0.851,-0.3,-0.564,0.541,0.999,0.076,-0.205,2
-0.43,-0.061,0.818,-0.302,-0.389,0.455,0.99,0.079,-0.164,2
-0.498,-0.214,0.868,-0.182,-0.403,0.499,1.023,-0.003,-0.105,2
-0.567,-0.211,1.125,0.071,-0.408,0.533,0.955,0.022,-0.093,2
-0.614,-0.267,1.067,0.491,-0.454,0.759,1.007,-0.099,0.044,2
-0.8,-0.421,0.718,0.794,-0.477,0.807,1.028,-0.027,-0.009,2
-0.886,-0.273,0.418,0.916,-0.563,0.797,0.992,0.154,-0.073,2
-0.709,-0.098,0.171,0.748,-0.522,0.711,0.958,0.057,-0.106,2
-0.08,0.272,0.808,0.799,-0.554,0.702,1.034,0.027,-0.062,2
0.069,0.343,1.216,0.803,-0.692,0.688,0.998,-0.003,-0.081,2
0.075,0.36,1.301,0.69,-0.854,0.758,0.985,0.043,-0.071,2
-0.02,0.168,1.173,0.403,-0.951,0.787,1.031,0.14,-0.132,2
-0.217,-0.18,1.124,0.064,-0.766,0.681,0.978,0.107,-0.147,2
-0.417,-0.03,0.973,-0.35,-0.402,0.429,0.991,0.051,-0.104,2
-0.513,0.249,0.856,-0.688,0.164,0.214,1.011,0.083,-0.048,2
-0.499,0.128,0.601,-0.65,0.154,0.378,1.018,0.11,-0.074,2
-0.309,0.336,0.515,-0.54,-0.114,0.645,0.976,-0.036,-0.153,2
0.218,0.944,1.215,-0.303,-0.262,0.924,0.991,-0.02,-0.174,2
0.126,0.723,1.194,-0.405,-0.265,0.766,0.94,0.041,-0.263,2
0.136,0.524,1.019,-0.458,-0.322,0.557,1.044,0.004,-0.259,2
0.206,0.453,0.918,-0.553,-0.293,0.511,0.945,-0.031,-0.229,2
0.191,0.486,0.891,-0.508,-0.433,0.71,0.923,-0.17,-0.314,2
0.24,0.428,0.841,-0.424,-0.62,1.019,0.925,-0.065,-0.345,2
0.303,0.292,0.754,-0.614,-0.859,1.42,0.93,-0.071,-0.376,2
0.479,0.156,0.671,-0.621,-0.821,1.133,0.914,-0.092,-0.394,2
0.738,-0.209,1.011,-0.7,-0.375,0.765,0.911,-0.153,-0.386,2
0.6,-0.094,0.968,-0.843,-0.029,0.42,0.929,-0.16,-0.336,2
0.623,0.0,0.944,-0.747,-0.016,0.261,0.923,-0.164,-0.356,2
0.528,0.008,0.885,-0.519,-0.019,0.414,0.907,-0.148,-0.368,2
0.605,0.019,0.897,-0.341,-0.352,0.546,0.913,-0.125,-0.367,2
0.717,-0.12,0.866,-0.359,-0.512,0.37,0.917,-0.13,-0.374,2
0.683,0.332,0.835,-0.587,-0.231,0.475,0.914,-0.124,-0.39,2
0.442,0.561,0.837,-0.74,0.004,0.4,0.911,-0.138,-0.371,2
0.185,0.674,0.87,-0.814,0.204,0.377,0.927,-0.17,-0.325,2
-0.015,0.701,0.774,-0.893,-0.251,0.602,0.919,-0.172,-0.33,2
-0.217,0.619,0.716,-0.731,-0.087,1.024,0.918,-0.173,-0.334,2
-0.416,0.416,0.717,-0.479,-0.077,1.193,0.927,-0.166,-0.332,2
-0.567,0.239,0.783,-0.289,-0.607,1.199,0.925,-0.134,-0.348,2
-0.658,0.107,0.76,-0.315,-0.557,0.971,0.915,-0.137,-0.375,2
-0.683,0.059,0.714,-0.296,-0.559,0.81,0.939,-0.113,-0.326,2
-0.72,-0.089,0.654,-0.296,-0.525,0.611,0.938,-0.101,-0.325,2
-0.813,-0.123,0.619,-0.359,-0.466,0.541,0.934,-0.13,-0.33,2
-0.843,-0.251,0.474,-0.362,-0.363,0.536,0.958,-0.083,-0.264,2
-0.69,-0.253,0.224,-0.209,-0.364,0.537,0.957,-0.026,-0.264,2
-0.346,-0.0,0.721,0.222,-0.604,0.716,0.988,0.0,-0.209,2
-0.508,0.094,0.851,0.542,-0.767,0.768,0.988,-0.006,-0.212,2
-0.587,-0.072,0.828,0.686,-0.519,0.784,1.011,0.002,-0.13,2
-0.718,-0.009,0.779,0.776,-0.495,0.908,0.996,-0.009,-0.083,2
-0.779,-0.08,0.896,0.722,-0.549,0.8,0.983,-0.012,-0.062,2
-0.741,-0.111,0.934,0.763,-0.606,0.736,0.97,-0.018,-0.056,2
-0.715,-0.113,0.792,0.778,-0.862,0.77,0.988,-0.014,-0.024,2
-0.688,-0.217,0.578,0.77,-0.922,0.809,1.015,-0.006,0.0,2
-0.564,-0.087,0.429,0.523,-0.822,1.009,1.013,0.004,-0.044,2
-0.272,0.222,0.778,0.044,-0.591,0.766,0.995,-0.009,-0.081,2
-0.151,0.474,1.231,-0.403,-0.058,0.522,0.991,-0.026,-0.112,2
-0.287,0.372,1.098,-0.666,0.168,0.291,0.952,-0.005,-0.215,2
-0.28,0.21,1.068,-0.698,0.222,0.305,1.045,0.002,-0.2,2
-0.354,0.217,0.994,-0.702,0.138,0.374,0.964,-0.063,-0.204,2
-0.417,0.149,1.002,-0.628,0.137,0.64,1.001,-0.081,-0.186,2
-0.448,0.146,0.911,-0.396,-0.217,0.667,0.932,-0.039,-0.33,2
-0.535,-0.003,0.462,-0.56,-0.121,0.772,0.936,-0.07,-0.317,2
-0.336,0.039,0.557,-0.559,-0.164,0.651,0.938,-0.057,-0.33,2
0.145,0.526,1.194,-0.627,-0.149,0.453,0.943,-0.057,-0.334,2
0.161,0.588,1.213,-0.738,-0.217,0.306,0.932,-0.088,-0.36,2
0.044,0.48,1.038,-0.708,-0.339,0.604,0.923,-0.104,-0.353,2
-0.019,0.322,0.995,-0.62,-0.788,0.928,0.93,-0.138,-0.335,2
-0.122,0.256,1.087,-0.691,-0.827,0.944,0.922,-0.146,-0.335,2
-0.2,0.231,1.004,-0.567,-0.566,0.727,0.931,-0.157,-0.329,2
-0.327,0.129,0.834,-0.379,-0.234,0.664,0.921,-0.165,-0.344,2
-0.466,0.067,0.578,-0.091,-0.265,0.796,0.928,-0.155,-0.346,2
-0.155,0.196,0.669,0.301,-0.512,1.01,0.919,-0.148,-0.365,2
0.19,0.859,1.176,0.208,-0.521,0.975,0.924,-0.175,-0.338,2
0.176,0.709,1.123,0.104,-0.529,0.946,0.933,-0.142,-0.329,2
0.138,0.56,0.921,0.044,-0.597,0.918,0.937,-0.142,-0.361,2
0.194,0.486,0.819,-0.168,-0.595,0.945,0.948,-0.146,-0.298,2
0.314,0.354,0.882,-0.364,-0.46,0.709,0.919,-0.143,-0.396,2
0.383,0.323,0.733,-0.43,-0.387,0.656,0.944,-0.25,-0.382,2
0.439,0.135,0.563,-0.284,-0.454,0.682,0.922,-0.053,-0.377,2
0.855,-0.196,0.828,0.094,-0.615,0.707,0.957,-0.103,-0.292,2
0.81,-0.077,0.783,0.426,-0.714,1.035,0.953,-0.116,-0.294,2
0.73,-0.096,0.94,0.265,-0.471,0.86,0.962,-0.078,-0.294,2
0.729,-0.049,0.855,0.298,-0.575,0.961,0.954,-0.068,-0.302,2
0.733,-0.067,0.742,0.297,-0.7,1.03,0.942,-0.085,-0.307,2
1.019,-0.021,0.974,0.193,-0.711,0.862,0.984,-0.055,-0.208,2
0.783,0.331,1.351,0.11,-0.615,0.674,0.988,-0.057,-0.161,2
0.168,0.427,1.031,-0.066,-0.398,0.397,0.993,0.059,-0.195,2
-0.31,0.285,0.556,-0.022,-0.41,0.446,0.984,0.023,-0.119,2
-0.585,0.082,0.389,0.212,-0.517,0.481,0.983,-0.075,-0.076,2
-0.704,0.017,0.403,0.465,-0.58,0.465,0.986,-0.081,-0.007,2
-0.631,0.077,0.523,0.782,-0.569,0.66,1.009,-0.043,0.028,2
-0.58,0.014,0.607,0.912,-0.765,0.687,0.994,-0.009,-0.01,2
-0.745,-0.143,0.828,0.806,-0.81,0.55,0.954,-0.025,-0.069,2
-0.922,-0.325,0.828,0.882,-0.897,0.522,0.995,-0.003,-0.072,2
-0.803,-0.301,0.551,0.929,-0.848,0.575,1.009,0.028,-0.083,2
-0.719,-0.222,0.401,0.492,-0.788,0.793,0.998,-0.028,-0.105,2
-0.63,-0.182,0.328,-0.006,-0.771,0.815,0.966,0.0,-0.193,2
-0.339,0.026,0.603,-0.327,-0.489,0.432,1.03,-0.046,-0.184,2
-0.214,0.175,1.045,-0.575,-0.1,0.168,0.941,-0.015,-0.29,2
-0.174,0.38,1.159,-0.602,0.035,0.282,0.979,-0.053,-0.266,2
-0.298,0.371,1.425,-0.5,-0.055,0.622,0.917,-0.048,-0.39,2
0.901,0.075,0.441,0.836,-0.232,0.511,0.995,-0.029,0.023,3
0.932,0.026,0.437,0.834,-0.23,0.5,1.007,-0.033,0.024,3
0.896,0.007,0.338,0.835,-0.236,0.506,1.035,-0.109,0.121,3
0.847,0.117,0.528,0.824,-0.211,0.518,1.081,-0.117,0.173,3
0.854,0.159,0.524,0.8,-0.209,0.565,1.008,-0.001,0.085,3
0.912,-0.015,0.404,0.809,-0.233,0.529,0.944,-0.033,0.056,3
0.922,0.071,0.508,0.806,-0.257,0.457,0.909,-0.052,0.035,3
0.818,0.066,0.621,0.846,-0.172,0.59,0.975,-0.104,0.164,3
0.871,0.092,0.617,0.793,-0.235,0.668,0.959,-0.173,0.319,3
0.867,-0.006,0.497,0.741,-0.283,0.532,0.896,-0.081,0.348,3
0.87,0.098,0.456,0.834,-0.226,0.562,0.824,-0.349,0.039,3
0.884,0.095,0.535,0.809,-0.266,0.51,1.049,-0.088,0.277,3
0.811,0.04,0.462,0.801,-0.272,0.56,0.931,0.074,-0.207,3
0.88,0.183,0.532,0.778,-0.326,0.564,0.96,-0.305,-0.288,3
0.872,0.16,0.563,0.78,-0.392,0.622,0.981,-0.091,-0.261,3
0.829,0.172,0.608,0.772,-0.343,0.538,0.921,-0.181,-0.273,3
0.863,0.13,0.481,0.783,-0.353,0.485,0.996,-0.005,-0.247,3
0.875,0.212,0.555,0.799,-0.349,0.5,0.935,-0.204,-0.49,3
0.897,0.135,0.42,0.819,-0.306,0.567,0.949,-0.02,-0.314,3
0.878,0.226,0.474,0.784,-0.387,0.586,0.912,-0.136,-0.387,3
0.794,0.191,0.524,0.781,-0.284,0.533,0.931,-0.138,-0.328,3
0.827,0.18,0.584,0.804,-0.348,0.648,1.09,-0.081,-0.34,3
0.863,0.145,0.543,0.791,-0.409,0.491,0.942,-0.034,0.036,3
0.827,0.239,0.511,0.938,-0.412,0.437,1.125,-0.022,-0.229,3
0.838,0.05,0.519,0.744,-0.121,0.489,1.066,-0.12,-0.337,3
0.884,0.111,0.578,0.799,-0.294,0.329,0.971,-0.035,-0.257,3
0.864,0.108,0.372,0.863,-0.347,0.587,0.814,0.084,-0.161,3
0.908,0.123,0.411,0.779,-0.363,0.487,0.781,-0.05,0.009,3
0.894,0.07,0.496,0.811,-0.235,0.445,1.001,-0.524,0.491,3
0.847,0.003,0.441,0.803,-0.331,0.53,0.832,-0.113,-0.095,3
0.85,0.054,0.474,0.753,-0.29,0.627,1.137,-0.06,0.079,3
0.878,0.074,0.473,0.777,-0.316,0.596,0.857,0.033,-0.083,3
0.861,0.096,0.548,0.757,-0.322,0.609,0.994,-0.301,-0.224,3
0.837,0.094,0.514,0.811,-0.385,0.449,0.944,-0.153,-0.228,3
0.854,0.095,0.526,0.819,-0.401,0.449,0.922,-0.183,-0.281,3
0.862,0.138,0.451,0.838,-0.36,0.467,0.993,-0.193,-0.264,3
0.842,0.154,0.5,0.859,-0.372,0.519,0.907,-0.111,-0.395,3
0.888,0.135,0.557,0.834,-0.237,0.417,0.964,-0.209,-0.255,3
0.887,0.17,0.445,0.805,-0.255,0.53,0.989,-0.049,-0.357,3
0.838,0.206,0.458,0.798,-0.35,0.557,1.046,-0.16,-0.225,3
0.842,0.188,0.568,0.773,-0.288,0.584,1.241,-0.066,0.287,3
0.882,0.157,0.523,0.813,-0.37,0.495,1.194,0.116,-0.269,3
0.852,0.188,0.504,0.846,-0.445,0.537,1.034,0.116,-0.247,3
0.892,0.143,0.512,0.785,-0.347,0.484,0.851,0.021,-0.146,3
0.858,0.168,0.539,0.812,-0.251,0.347,0.792,0.059,-0.082,3
0.894,0.091,0.509,0.85,-0.328,0.491,0.846,-0.266,0.207,3
0.872,0.082,0.334,0.868,-0.284,0.5,0.872,0.017,0.197,3
0.918,0.118,0.488,0.723,-0.252,0.487,1.364,0.217,0.192,3
0.917,0.057,0.41,0.813,-0.26,0.459,0.791,-0.098,-0.185,3
0.907,0.034,0.433,0.823,-0.288,0.536,0.91,-0.158,-0.331,3
0.931,0.04,0.466,0.821,-0.234,0.473,0.954,-0.136,-0.259,3
0.901,0.073,0.445,0.779,-0.335,0.487,0.923,-0.23,-0.315,3
0.893,0.045,0.47,0.84,-0.376,0.515,0.948,-0.107,-0.308,3
0.857,0.033,0.434,0.847,-0.358,0.382,0.931,-0.13,-0.399,3
0.894,0.039,0.434,0.896,-0.444,0.428,0.892,-0.047,-0.335,3
0.877,0.045,0.48,0.844,-0.303,0.423,0.973,-0.088,-0.311,3
0.837,0.027,0.47,0.875,-0.359,0.392,1.113,-0.112,-0.265,3
0.84,0.034,0.514,0.846,-0.445,0.442,0.954,0.288,0.108,3
0.816,0.121,0.479,0.847,-0.334,0.41,1.218,-0.037,-0.447,3
0.868,0.232,0.505,0.865,-0.419,0.302,0.94,-0.029,-0.277,3
0.814,0.177,0.49,0.821,-0.384,0.388,0.903,0.101,-0.081,3
0.887,0.163,0.543,0.865,-0.499,0.512,0.906,0.038,-0.07,3
0.837,0.195,0.484,0.824,-0.253,0.487,0.849,-0.247,0.063,3
0.879,0.204,0.569,0.883,-0.288,0.319,0.917,-0.37,0.463,3
0.867,0.153,0.477,0.877,-0.216,0.477,0.735,-0.18,-0.255,3
0.774,0.159,0.402,0.892,-0.202,0.426,1.285,0.182,0.094,3
0.875,0.132,0.538,0.909,-0.217,0.449,0.9,0.032,-0.206,3
0.837,0.139,0.483,0.852,-0.166,0.544,0.979,-0.435,-0.268,3
0.84,0.164,0.498,0.901,-0.117,0.61,0.933,-0.142,-0.204,3
0.849,0.144,0.551,0.874,-0.091,0.516,0.946,-0.227,-0.253,3
0.921,0.099,0.552,0.83,-0.172,0.591,0.949,-0.102,-0.329,3
0.819,0.125,0.443,0.831,-0.284,0.619,0.924,-0.185,-0.341,3
0.927,0.032,0.333,0.869,-0.353,0.551,0.937,-0.163,-0.333,3
0.927,0.037,0.56,0.77,-0.2,0.362,0.894,-0.129,-0.39,3
0.861,0.027,0.383,0.846,-0.386,0.583,0.925,-0.134,-0.359,3
0.875,0.022,0.477,0.772,-0.286,0.491,0.914,-0.105,-0.367,3
0.874,0.034,0.5,0.903,-0.314,0.476,0.932,-0.079,-0.369,3
0.872,0.104,0.492,0.785,-0.184,0.492,1.158,-0.043,-0.23,3
0.819,0.158,0.482,0.758,-0.243,0.561,1.062,0.003,-0.105,3
0.871,0.225,0.473,0.822,-0.287,0.611,1.084,0.025,-0.371,3
0.852,0.151,0.333,0.798,-0.268,0.563,0.985,-0.054,-0.247,3
0.859,0.191,0.493,0.783,-0.093,0.582,0.918,0.013,-0.132,3
0.911,0.199,0.492,0.841,-0.157,0.424,0.852,-0.002,-0.04,3
0.762,0.162,0.365,0.894,-0.234,0.609,0.864,-0.26,0.104,3
0.829,0.268,0.557,0.814,-0.139,0.475,1.056,-0.366,0.502,3
0.804,0.234,0.619,0.856,-0.069,0.551,1.271,-0.146,-0.064,3
0.786,0.231,0.417,0.817,-0.098,0.599,0.949,-0.116,-0.181,3
0.854,0.222,0.625,0.798,-0.055,0.563,0.981,-0.19,-0.124,3
0.843,0.141,0.507,0.778,-0.079,0.568,0.94,-0.188,-0.245,3
0.82,0.213,0.462,0.842,-0.153,0.583,0.913,-0.208,-0.29,3
0.902,0.081,0.533,0.815,-0.295,0.64,0.918,-0.253,-0.313,3
0.875,0.109,0.491,0.8,-0.183,0.492,0.927,-0.174,-0.351,3
0.814,0.103,0.521,0.824,-0.322,0.668,0.917,-0.26,-0.381,3
0.875,0.048,0.424,0.778,-0.157,0.524,0.941,-0.128,-0.373,3
0.825,0.067,0.598,0.805,-0.242,0.547,0.93,-0.221,-0.407,3
0.865,-0.04,0.577,0.74,-0.22,0.532,0.989,-0.08,-0.333,3
0.832,0.13,0.524,0.757,-0.224,0.556,1.006,-0.011,-0.147,3
0.868,0.236,0.592,0.823,-0.176,0.745,1.097,0.153,-0.194,3
0.832,0.202,0.395,0.877,-0.316,0.641,1.086,-0.038,-0.321,3
0.872,0.068,0.524,0.815,-0.056,0.434,0.954,0.0,-0.186,3
0.811,0.195,0.523,0.854,-0.18,0.557,0.886,0.001,-0.07,3
0.823,0.064,0.551,0.794,-0.075,0.526,0.853,-0.207,0.089,3
0.799,0.127,0.573,0.855,-0.059,0.443,0.866,-0.342,0.195,3
0.76,0.112,0.571,0.835,-0.127,0.665,0.951,-0.207,0.333,3
0.812,-0.008,0.565,0.813,-0.017,0.58,1.313,-0.21,-0.054,3
0.913,0.086,0.607,0.71,-0.172,0.609,0.937,0.066,-0.16,3
0.856,0.019,0.519,0.786,-0.197,0.618,1.071,-0.228,-0.201,3
0.923,0.057,0.417,0.815,-0.402,0.695,0.915,-0.196,-0.315,3
0.906,0.09,0.556,0.774,-0.141,0.476,0.921,-0.237,-0.241,3
0.83,-0.023,0.412,0.926,-0.247,0.633,0.933,-0.247,-0.326,3
0.881,-0.037,0.443,0.796,-0.199,0.635,0.907,-0.181,-0.362,3
0.915,-0.01,0.48,0.798,-0.271,0.61,0.913,-0.244,-0.367,3
0.888,-0.05,0.535,0.738,-0.282,0.453,0.928,-0.172,-0.321,3
0.912,0.113,0.65,0.782,-0.336,0.674,0.916,-0.216,-0.39,3
0.875,0.157,0.583,0.765,-0.395,0.436,0.952,-0.092,-0.298,3
0.818,0.184,0.368,0.743,-0.511,0.442,1.077,-0.019,-0.308,3
0.956,0.301,0.546,0.743,-0.409,0.617,1.049,0.104,-0.071,3
0.914,0.178,0.555,0.725,-0.37,0.572,1.1,0.02,-0.37,3
0.82,0.099,0.448,0.78,-0.404,0.469,0.936,-0.025,-0.257,3
0.857,0.123,0.48,0.81,-0.306,0.275,0.949,-0.035,-0.091,3
0.823,0.042,0.548,0.896,-0.281,0.536,0.933,-0.072,-0.005,3
0.865,0.089,0.575,0.807,-0.293,0.445,0.91,-0.157,0.101,3
0.899,0.131,0.473,0.853,-0.24,0.455,0.868,-0.26,0.127,3
0.841,-0.006,0.466,0.829,-0.307,0.512,0.882,-0.328,0.188,3
0.884,0.038,0.453,0.824,-0.209,0.477,0.934,-0.092,-0.166,3
0.893,-0.006,0.501,0.813,-0.327,0.505,1.05,-0.194,0.06,3
0.884,-0.052,0.419,0.882,-0.198,0.364,0.915,-0.189,-0.249,3
0.893,0.017,0.488,0.766,-0.477,0.536,0.898,-0.245,-0.332,3
0.878,-0.006,0.479,0.814,-0.358,0.432,0.989,-0.228,-0.229,3
0.894,-0.005,0.394,0.883,-0.31,0.495,0.92,-0.253,-0.32,3
0.865,-0.224,0.289,0.777,-0.379,0.417,0.913,-0.217,-0.352,3
0.852,0.058,0.384,0.8,-0.394,0.428,0.917,-0.214,-0.328,3
0.913,0.14,0.611,0.814,-0.419,0.479,0.949,-0.158,-0.342,3
0.882,0.176,0.579,0.779,-0.428,0.454,0.899,-0.145,-0.357,3
0.857,0.113,0.459,0.813,-0.257,0.516,0.998,-0.157,-0.388,3
0.874,0.165,0.464,0.918,-0.383,0.542,1.189,0.036,-0.264,3
0.855,0.171,0.418,0.802,-0.371,0.261,1.032,0.166,-0.197,3
0.863,0.25,0.449,0.835,-0.294,0.487,1.032,0.014,-0.394,3
0.902,0.21,0.51,0.826,-0.22,0.524,0.933,-0.187,-0.198,3
0.866,0.153,0.496,0.861,-0.116,0.58,0.979,-0.162,-0.085,3
0.826,0.159,0.525,0.818,-0.173,0.506,0.931,-0.086,0.016,3
0.823,0.142,0.533,0.804,-0.164,0.496,0.924,-0.026,0.071,3
0.816,0.144,0.591,0.77,-0.133,0.529,0.912,-0.266,0.08,3
0.82,0.137,0.598,0.823,-0.187,0.612,0.92,-0.255,0.226,3
0.787,0.15,0.549,0.806,-0.054,0.496,0.854,-0.059,-0.086,3
0.803,0.166,0.605,0.876,-0.249,0.644,1.113,-0.248,0.13,3
0.787,0.134,0.655,0.746,-0.169,0.574,0.817,-0.16,-0.193,3
0.777,0.094,0.613,0.797,-0.244,0.652,0.967,-0.247,-0.329,3
0.779,0.172,0.669,0.769,-0.098,0.532,0.954,-0.231,-0.208,3
0.861,0.09,0.587,0.836,-0.132,0.591,0.904,-0.2,-0.307,3
0.823,0.143,0.525,0.792,-0.173,0.61,0.947,-0.171,-0.346,3
0.866,0.058,0.506,0.785,-0.092,0.64,0.894,-0.202,-0.38,3
0.87,0.042,0.457,0.677,-0.098,0.463,0.936,-0.12,-0.329,3
0.887,0.004,0.475,0.832,-0.305,0.393,0.894,-0.148,-0.32,3
0.856,0.013,0.515,0.887,-0.226,0.842,0.885,-0.162,-0.371,3
0.842,-0.016,0.477,0.626,0.066,0.646,0.977,-0.115,-0.371,3
0.882,-0.033,0.544,1.111,-0.292,0.538,0.944,0.063,-0.198,3
0.835,-0.02,0.52,0.755,-0.166,0.457,1.082,0.003,-0.265,3
0.847,-0.062,0.533,0.834,-0.078,0.614,1.063,-0.076,-0.324,3
0.872,0.089,0.694,0.813,-0.105,0.582,0.99,-0.083,-0.229,3
0.86,0.052,0.631,0.819,-0.159,0.542,0.967,-0.048,-0.113,3
0.858,-0.024,0.434,0.77,-0.084,0.532,0.902,-0.036,0.013,3
0.861,0.096,0.594,0.772,-0.145,0.583,0.904,-0.188,0.054,3
0.841,0.056,0.599,0.757,-0.273,0.582,0.875,-0.289,0.202,3
0.798,0.099,0.513,0.688,-0.233,0.541,0.86,-0.168,0.08,3
0.83,-0.094,0.418,0.863,-0.36,0.47,1.186,0.158,0.248,3
0.802,0.118,0.55,0.823,-0.312,0.58,0.972,-0.175,-0.165,3
0.813,-0.031,0.649,0.801,-0.229,0.472,0.929,-0.282,-0.213,3
0.825,0.019,0.615,0.802,-0.265,0.552,0.917,-0.137,-0.264,3
0.878,-0.001,0.617,0.798,-0.285,0.615,0.95,-0.193,-0.298,3
0.833,0.044,0.546,0.755,-0.295,0.552,0.945,-0.229,-0.187,3
0.896,-0.005,0.517,0.818,-0.308,0.616,0.922,-0.159,-0.387,3
0.875,-0.082,0.176,0.835,-0.317,0.675,0.921,-0.175,-0.304,3
0.935,0.237,0.406,0.824,-0.062,0.392,0.927,-0.076,-0.351,3
0.857,0.236,0.482,0.879,-0.286,0.636,1.048,-0.022,-0.342,3
0.828,0.057,0.51,0.855,-0.212,0.591,1.066,-0.019,-0.305,3
0.86,-0.088,0.485,0.784,-0.192,0.478,0.966,0.148,0.008,3
0.804,0.178,0.65,0.782,-0.121,0.595,1.093,-0.059,-0.331,3
0.9,0.152,0.517,0.796,-0.125,0.51,0.972,-0.032,-0.27,3
1.073,0.412,0.341,0.804,-0.177,0.551,1.0,-0.038,-0.18,3
0.918,0.279,0.493,0.847,-0.134,0.707,0.962,0.017,-0.018,3
0.903,0.082,0.643,0.802,-0.25,0.631,0.813,-0.036,0.043,3
0.826,0.348,0.404,0.738,-0.26,0.62,0.836,-0.122,0.188,3
0.917,0.247,0.539,0.827,-0.281,0.625,1.018,-0.221,0.367,3
0.782,0.208,0.492,0.803,-0.25,0.509,1.021,0.123,0.204,3
0.852,0.116,0.505,0.832,-0.14,0.542,0.964,-0.23,-0.057,3
0.826,0.224,0.615,0.797,-0.229,0.536,0.96,-0.244,-0.127,3
0.792,0.211,0.554,0.797,-0.2,0.642,0.928,-0.146,-0.189,3
0.801,0.152,0.604,0.806,-0.197,0.627,0.943,-0.21,-0.223,3
0.88,0.083,0.622,0.758,-0.215,0.631,0.903,-0.072,-0.349,3
0.814,0.104,0.6,0.765,-0.253,0.607,0.941,-0.174,-0.274,3
0.846,0.038,0.512,0.784,-0.146,0.388,0.946,-0.134,-0.308,3
0.807,-0.024,0.461,0.855,-0.231,0.458,0.927,-0.104,-0.329,3
0.858,-0.082,0.542,0.846,-0.07,0.608,1.011,-0.119,-0.452,3
0.855,-0.065,0.519,0.834,-0.127,0.476,1.018,-0.007,-0.336,3
0.857,-0.061,0.535,0.841,-0.216,0.656,1.062,0.031,-0.062,3
0.798,-0.067,0.567,0.785,-0.098,0.637,1.069,-0.098,-0.284,3
0.818,-0.06,0.522,0.815,-0.131,0.604,0.996,-0.006,-0.362,3
0.824,-0.063,0.563,0.775,-0.222,0.598,0.993,-0.058,-0.186,3
0.891,0.063,0.594,0.809,-0.229,0.632,0.952,0.052,-0.091,3
0.857,0.085,0.466,0.81,-0.251,0.504,0.889,-0.01,0.046,3
0.876,0.128,0.431,0.877,-0.239,0.525,0.839,-0.244,0.069,3
0.863,0.152,0.471,0.868,-0.261,0.522,0.975,-0.299,0.366,3
0.901,0.088,0.518,0.79,-0.174,0.465,0.918,-0.078,-0.25,3
0.847,0.192,0.521,0.821,-0.191,0.569,1.042,-0.123,0.069,3
0.848,0.152,0.592,0.805,-0.223,0.538,1.038,-0.093,-0.098,3
0.835,0.115,0.508,0.787,-0.163,0.593,0.932,-0.214,-0.275,3
0.827,0.138,0.582,0.768,-0.167,0.61,0.949,-0.257,-0.197,3
0.824,0.072,0.533,0.858,-0.169,0.651,0.928,-0.229,-0.253,3
0.836,-0.001,0.514,0.845,-0.28,0.617,0.923,-0.152,-0.348,3
0.85,0.051,0.509,0.821,-0.107,0.481,0.941,-0.159,-0.34,3
0.869,0.061,0.59,0.855,-0.196,0.404,0.929,-0.167,-0.388,3
0.857,0.029,0.532,0.854,-0.141,0.612,0.929,-0.104,-0.329,3
0.867,0.007,0.483,0.805,-0.146,0.466,0.978,-0.051,-0.388,3
0.872,-0.04,0.489,0.864,-0.104,0.467,1.039,0.002,-0.282,3
0.893,-0.061,0.512,0.846,-0.114,0.505,0.986,0.079,0.003,3
0.87,-0.125,0.44,0.794,-0.208,0.492,1.068,0.096,-0.249,3
0.894,-0.076,0.486,0.826,-0.188,0.499,1.044,0.123,-0.271,3
0.895,-0.12,0.509,0.813,-0.223,0.564,0.962,0.031,-0.121,3
0.863,-0.07,0.469,0.845,-0.176,0.539,0.92,0.047,-0.048,3
0.853,-0.093,0.492,0.894,-0.224,0.538,0.889,-0.015,0.022,3
0.932,0.171,0.694,0.815,-0.208,0.481,0.865,-0.335,0.166,3
0.847,0.016,0.546,0.84,-0.235,0.503,1.0,-0.243,0.323,3
0.82,0.05,0.542,0.848,-0.198,0.547,1.096,-0.419,-0.023,3
0.877,0.09,0.571,0.836,-0.197,0.445,1.085,-0.121,-0.043,3
0.892,0.129,0.537,0.837,-0.29,0.528,0.933,-0.193,-0.165,3
0.84,0.245,0.455,0.861,-0.211,0.53,0.891,-0.357,-0.344,3
0.826,0.225,0.491,0.854,-0.223,0.489,0.885,-0.252,-0.33,3
0.862,0.38,0.551,0.786,-0.239,0.467,0.971,-0.294,-0.182,3
0.828,0.234,0.491,0.783,-0.274,0.483,0.903,-0.268,-0.331,3
0.83,0.243,0.53,0.825,-0.247,0.502,0.926,-0.223,-0.286,3
0.802,0.168,0.645,0.833,-0.337,0.456,0.892,-0.159,-0.397,3
0.803,0.162,0.557,0.797,-0.358,0.519,0.895,-0.133,-0.333,3
0.902,0.081,0.467,0.784,-0.41,0.405,1.001,-0.217,-0.396,3
0.864,0.128,0.487,0.767,-0.33,0.491,1.109,-0.005,-0.231,3
0.795,0.011,0.526,0.788,-0.462,0.504,1.061,0.232,-0.065,3
0.825,0.08,0.624,0.738,-0.334,0.496,0.99,0.127,-0.325,3
0.795,0.143,0.54,0.792,-0.498,0.495,0.95,-0.139,-0.216,3
0.829,0.12,0.682,0.885,-0.368,0.546,0.934,-0.038,-0.034,3
0.819,0.067,0.515,0.795,-0.493,0.583,0.967,-0.122,0.045,3
0.842,0.092,0.572,0.774,-0.411,0.516,0.881,-0.198,0.055,3
0.813,0.078,0.542,0.808,-0.372,0.493,0.872,-0.247,0.131,3
0.782,0.159,0.63,0.741,-0.316,0.532,0.982,-0.098,0.221,3
0.8,0.172,0.521,0.815,-0.191,0.455,1.208,-0.338,0.079,3
0.845,0.2,0.478,0.834,-0.265,0.388,1.04,-0.077,-0.141,3
0.812,0.169,0.503,0.849,-0.123,0.512,1.013,-0.099,-0.155,3
0.828,0.124,0.577,0.844,-0.034,0.485,0.926,-0.265,-0.338,3
0.816,0.156,0.609,0.926,-0.288,0.651,0.958,-0.299,-0.227,3
0.777,0.124,0.606,0.846,-0.067,0.621,0.899,-0.28,-0.299,3
0.802,0.11,0.598,0.894,-0.04,0.583,0.904,-0.214,-0.35,3
0.815,0.125,0.576,0.874,-0.026,0.734,0.872,-0.238,-0.325,3
0.856,0.076,0.578,0.813,-0.092,0.631,0.897,-0.22,-0.366,3
0.811,-0.027,0.575,0.857,-0.073,0.568,0.928,-0.198,-0.381,3
0.774,-0.063,0.542,0.882,-0.135,0.485,0.917,-0.133,-0.365,3
0.82,0.023,0.632,0.862,-0.121,0.468,0.949,-0.15,-0.467,3
0.805,-0.089,0.471,0.782,-0.348,0.644,0.899,-0.099,-0.385,3
0.854,-0.037,0.516,0.803,-0.097,0.596,0.987,-0.053,-0.303,3
0.856,-0.079,0.503,0.794,-0.043,0.582,0.981,0.123,-0.064,3
0.819,-0.008,0.523,0.812,-0.009,0.565,1.139,-0.058,-0.358,3
0.847,-0.051,0.433,0.806,0.033,0.614,0.99,-0.093,-0.345,3
0.825,0.064,0.429,0.817,-0.114,0.577,0.887,-0.013,-0.161,3
0.892,0.1,0.415,0.892,-0.163,0.571,0.901,-0.057,-0.032,3
0.832,0.109,0.461,0.839,0.008,0.471,0.924,-0.203,0.06,3
0.823,0.179,0.614,0.803,-0.177,0.428,0.899,-0.299,0.239,3
0.813,0.12,0.673,0.855,-0.063,0.631,0.817,-0.213,0.209,3
0.801,0.142,0.59,0.814,-0.08,0.491,11.138,-2.55,1.104,3
0.796,0.098,0.558,0.787,-0.081,0.496,0.859,-0.376,-0.195,3
0.824,0.053,0.596,0.761,-0.15,0.642,0.976,-0.349,-0.337,3
0.805,0.074,0.578,0.763,-0.161,0.678,0.978,-0.116,-0.198,3
0.781,0.034,0.566,0.798,-0.211,0.59,0.91,-0.261,-0.294,3
0.818,0.03,0.61,0.838,-0.167,0.594,0.887,-0.228,-0.363,3
0.81,0.067,0.612,0.76,-0.283,0.513,0.911,-0.206,-0.347,3
0.802,-0.005,0.593,0.791,-0.228,0.464,0.888,-0.205,-0.386,3
0.789,0.017,0.594,0.796,-0.313,0.508,0.912,-0.132,-0.38,3
0.833,-0.059,0.605,0.775,-0.196,0.509,0.907,-0.155,-0.388,3
0.8,-0.012,0.469,0.813,-0.236,0.571,0.892,-0.131,-0.376,3
0.854,-0.088,0.583,0.813,-0.156,0.606,0.996,-0.058,-0.279,3
0.849,-0.012,0.574,0.816,-0.197,0.584,1.081,0.017,-0.128,3
0.823,-0.063,0.527,0.8,-0.183,0.539,1.059,-0.044,-0.291,3
0.873,-0.037,0.544,0.821,-0.224,0.536,1.047,-0.042,-0.284,3
0.845,-0.029,0.525,0.828,-0.183,0.565,0.965,-0.137,-0.181,3
0.82,-0.018,0.476,0.855,-0.111,0.383,0.948,-0.005,-0.009,3
0.823,0.054,0.594,0.871,-0.067,0.609,0.878,-0.116,0.116,3
0.812,0.06,0.584,0.815,0.017,0.42,0.836,-0.276,0.109,3
0.811,0.169,0.535,0.824,0.007,0.434,0.909,-0.256,0.317,3
0.936,0.171,0.538,0.863,-0.011,0.443,0.92,-0.115,-0.159,3
0.758,0.252,0.553,0.914,0.07,0.532,0.978,-0.045,0.097,3
0.863,0.297,0.646,0.92,-0.104,0.548,1.056,-0.111,-0.069,3
0.799,0.216,0.553,0.806,-0.188,0.403,0.889,-0.259,-0.284,3
0.777,0.264,0.563,0.899,-0.194,0.528,0.95,-0.243,-0.175,3
0.771,0.241,0.596,0.82,-0.303,0.533,0.922,-0.199,-0.289,3
0.763,0.217,0.639,0.826,-0.229,0.512,0.982,-0.176,-0.26,3
0.782,0.264,0.612,0.809,-0.315,0.553,0.936,-0.164,-0.357,3
0.784,0.245,0.54,0.851,-0.294,0.53,0.897,-0.214,-0.403,3
0.846,0.194,0.508,0.792,-0.282,0.577,0.912,-0.074,-0.401,3
0.824,0.132,0.531,0.81,-0.233,0.563,0.917,-0.171,-0.333,3
0.853,0.123,0.522,0.792,-0.176,0.551,0.889,-0.034,-0.396,3
0.824,0.15,0.463,0.806,-0.228,0.594,0.992,-0.048,-0.358,3
0.816,-0.01,0.557,0.899,-0.287,0.583,1.054,0.053,-0.034,3
0.817,0.135,0.65,0.781,-0.076,0.368,1.044,-0.082,-0.38,3
0.838,0.163,0.629,0.883,-0.137,0.584,1.014,0.024,-0.36,3
0.708,0.103,0.587,0.813,0.008,0.516,0.995,-0.054,-0.208,3
0.843,0.126,0.663,0.806,-0.053,0.489,0.914,0.059,-0.078,3
0.884,0.125,0.458,0.88,-0.013,0.531,0.817,-0.076,0.044,3
0.802,0.18,0.57,0.783,-0.082,0.455,0.853,-0.263,0.27,3
0.844,0.245,0.503,0.787,-0.108,0.583,0.807,-0.092,0.181,3
0.78,0.264,0.463,0.846,-0.053,0.706,1.158,-0.013,0.313,3
0.848,0.224,0.493,0.784,-0.163,0.584,0.93,-0.229,-0.176,3
0.816,0.228,0.631,0.765,-0.163,0.565,0.903,-0.259,-0.254,3
0.825,0.187,0.523,0.816,-0.216,0.564,1.001,-0.119,-0.118,3
0.838,0.208,0.566,0.744,-0.265,0.394,0.938,-0.251,-0.266,3
0.875,0.221,0.544,0.779,-0.268,0.608,0.937,-0.167,-0.291,3
0.838,0.18,0.52,0.756,-0.365,0.55,0.941,-0.142,-0.334,3
0.868,0.028,0.467,0.73,-0.456,0.506,0.903,-0.133,-0.413,3
0.869,-0.074,0.415,0.733,-0.27,0.528,0.945,-0.13,-0.312,3
0.879,-0.006,0.551,0.872,-0.358,0.647,0.971,-0.117,-0.439,3
0.847,0.009,0.479,0.747,-0.354,0.602,0.482,-0.033,-0.181,3
0.854,-0.037,0.494,0.729,-0.463,0.478,1.115,0.049,-0.091,3
0.843,0.067,0.481,0.831,-0.403,0.497,1.079,0.066,-0.313,3
0.828,0.033,0.461,0.797,-0.37,0.442,0.972,-0.085,-0.348,3
0.832,0.021,0.466,0.812,-0.293,0.59,0.926,-0.063,-0.215,3
0.852,-0.003,0.54,0.75,-0.473,0.46,1.001,0.019,-0.019,3
0.824,0.061,0.604,0.84,-0.159,0.458,0.936,-0.088,0.08,3
0.808,0.222,0.508,0.832,-0.189,0.421,0.855,-0.267,0.05,3
0.806,0.147,0.546,0.862,-0.196,0.471,0.851,-0.248,0.162,3
0.808,0.262,0.58,0.872,-0.18,0.468,0.897,-0.16,0.077,3
0.828,0.258,0.6,0.823,-0.206,0.583,1.15,-0.099,0.309,3
0.782,0.269,0.487,0.744,-0.231,0.522,1.003,-0.258,-0.139,3
0.783,0.247,0.513,0.786,-0.119,0.658,0.882,-0.225,-0.264,3
0.766,0.233,0.657,0.791,-0.284,0.529,0.938,-0.174,-0.277,3
0.753,0.252,0.506,0.906,-0.298,0.507,0.978,-0.211,-0.258,3
0.757,0.247,0.639,0.74,-0.278,0.449,0.89,-0.185,-0.342,3
0.8,0.15,0.592,0.847,-0.279,0.5,0.9,-0.196,-0.388,3
0.894,0.208,0.545,0.809,-0.35,0.482,0.905,-0.178,-0.363,3
0.883,0.024,0.371,0.781,-0.292,0.515,0.954,-0.169,-0.33,3
0.853,0.032,0.487,0.782,-0.233,0.542,0.905,-0.182,-0.317,3
0.877,-0.025,0.469,0.793,-0.262,0.494,0.988,-0.094,-0.376,3
0.833,-0.035,0.501,0.738,-0.166,0.538,0.964,-0.046,-0.345,3
0.867,0.003,0.563,0.801,-0.188,0.596,1.044,0.03,-0.064,3
0.868,0.017,0.527,0.864,-0.052,0.604,1.077,-0.017,-0.312,3
0.817,0.067,0.577,0.803,-0.213,0.555,1.024,-0.01,-0.289,3
0.813,-0.014,0.621,0.826,-0.163,0.503,0.982,-0.035,-0.193,3
0.869,0.108,0.608,0.817,-0.114,0.432,0.984,-0.011,-0.06,3
0.829,0.124,0.544,0.928,-0.217,0.508,0.9,-0.162,0.059,3
0.852,0.179,0.502,0.806,-0.107,0.53,0.882,-0.37,0.104,3
0.848,0.245,0.5,0.835,-0.152,0.515,0.856,-0.257,0.192,3
0.831,0.317,0.511,0.853,-0.131,0.575,0.81,-0.153,0.067,3
0.81,0.287,0.45,0.788,-0.106,0.614,1.124,-0.438,0.288,3
0.822,0.199,0.603,0.774,-0.024,0.573,0.943,-0.289,0.022,3
0.767,0.234,0.534,0.89,-0.109,0.609,0.987,-0.206,-0.056,3
0.83,0.247,0.62,0.837,-0.143,0.563,0.942,-0.057,-0.205,3
0.876,0.195,0.542,0.848,-0.178,0.415,0.938,-0.258,-0.308,3
0.91,0.196,0.512,0.849,-0.287,0.48,0.95,-0.223,-0.259,3
0.798,0.121,0.397,0.781,-0.207,0.493,0.938,-0.219,-0.259,3
0.869,0.145,0.557,0.844,-0.25,0.405,0.918,-0.251,-0.394,3
0.817,0.077,0.505,0.844,-0.219,0.678,0.905,-0.194,-0.371,3
0.897,0.023,0.48,0.741,-0.268,0.536,0.897,-0.213,-0.357,3
0.85,0.024,0.516,0.829,-0.241,0.496,0.959,-0.12,-0.354,3
0.817,0.071,0.472,0.842,-0.325,0.548,0.91,-0.268,-0.426,3
0.954,-0.101,0.665,0.793,-0.204,0.565,0.984,-0.043,-0.383,3
0.812,0.016,0.585,0.865,-0.327,0.631,0.912,-0.105,-0.346,3
0.875,0.012,0.595,0.872,-0.294,0.5,1.005,0.082,-0.083,3
0.9,0.118,0.492,0.825,-0.203,0.414,1.097,0.145,-0.267,3
0.863,0.098,0.498,0.817,-0.316,0.405,1.029,-0.005,-0.212,3
0.849,0.126,0.473,0.919,-0.244,0.491,0.98,-0.049,-0.147,3
0.812,0.136,0.604,0.843,-0.133,0.449,0.97,-0.062,-0.027,3
0.811,0.106,0.624,0.801,-0.265,0.457,0.906,-0.223,0.081,3
0.801,0.079,0.646,0.832,-0.239,0.535,0.853,-0.224,0.165,3
0.809,0.063,0.512,0.853,-0.269,0.453,0.725,-0.026,-0.059,3
0.847,0.027,0.638,0.83,-0.291,0.43,0.938,-0.09,-0.006,3
0.834,0.076,0.639,0.778,-0.361,0.497,1.101,-0.11,0.063,3
0.885,-0.036,0.577,0.838,-0.334,0.553,0.955,-0.161,-0.054,3
0.816,-0.065,0.511,0.806,-0.342,0.448,0.925,-0.21,-0.353,3
0.822,-0.062,0.683,0.813,-0.482,0.375,0.907,-0.243,-0.339,3
0.85,-0.081,0.475,0.837,-0.401,0.508,0.912,-0.206,-0.315,3
0.841,-0.033,0.583,0.789,-0.393,0.438,0.922,-0.247,-0.346,3
0.759,-0.122,0.485,0.776,-0.331,0.458,0.908,-0.215,-0.377,3
0.823,-0.139,0.587,0.815,-0.416,0.507,0.889,-0.194,-0.411,3
0.8,-0.108,0.625,0.85,-0.281,0.498,0.901,-0.153,-0.328,3
0.84,-0.097,0.593,0.931,-0.262,0.561,0.896,-0.162,-0.449,3
0.796,-0.018,0.5,0.908,-0.294,0.455,0.887,-0.109,-0.415,3
0.806,-0.097,0.494,0.807,-0.275,0.419,1.131,-0.004,-0.289,3
0.817,0.035,0.488,0.713,-0.299,0.366,0.951,0.124,-0.102,3
0.924,0.08,0.636,0.89,-0.128,0.357,1.078,0.036,-0.376,3
0.878,0.007,0.478,0.864,-0.196,0.613,0.918,-0.034,-0.32,3
0.792,-0.009,0.413,0.856,-0.211,0.476,0.952,-0.032,-0.12,3
0.828,0.04,0.587,0.823,-0.206,0.505,1.005,-0.044,0.037,3
0.828,0.042,0.562,0.815,-0.175,0.539,0.919,-0.152,0.03,3
0.807,-0.001,0.625,0.811,-0.207,0.569,0.872,-0.149,0.086,3
0.872,0.11,0.627,0.773,-0.298,0.531,0.907,-0.201,0.177,3
0.849,0.071,0.577,0.768,-0.245,0.557,0.894,-0.205,0.109,3
0.845,-0.05,0.521,0.799,-0.26,0.551,1.127,-0.285,0.358,3
0.795,-0.157,0.674,0.732,-0.333,0.457,0.997,-0.249,-0.038,3
0.821,-0.073,0.441,0.82,-0.309,0.531,0.814,-0.157,-0.28,3
0.85,-0.29,0.548,0.825,-0.45,0.559,1.004,-0.231,-0.224,3
0.798,-0.206,0.389,0.726,-0.272,0.474,0.924,-0.202,-0.256,3
0.93,-0.281,0.535,0.789,-0.293,0.519,0.913,-0.208,-0.34,3
0.809,-0.234,0.496,0.795,-0.292,0.532,0.914,-0.16,-0.291,3
0.784,-0.265,0.503,0.754,-0.26,0.488,0.926,-0.214,-0.33,3
0.876,-0.328,0.453,0.814,-0.275,0.563,0.9,-0.122,-0.367,3
0.862,-0.216,0.445,0.807,-0.337,0.444,0.928,-0.143,-0.357,3
0.852,-0.389,0.403,0.886,-0.284,0.497,0.906,-0.141,-0.357,3
0.863,-0.335,0.479,0.827,-0.047,0.454,0.869,-0.114,-0.347,3
0.85,-0.261,0.54,0.886,-0.267,0.51,1.003,-0.087,-0.382,3
0.835,-0.32,0.441,0.843,-0.192,0.393,0.976,0.094,-0.139,3
0.809,-0.228,0.504,0.865,-0.156,0.477,1.028,0.051,-0.25,3
0.815,-0.347,0.53,0.848,-0.107,0.552,1.037,-0.17,-0.34,3
0.844,-0.327,0.501,0.791,-0.224,0.562,0.985,-0.1,-0.219,3
0.803,-0.337,0.54,0.802,-0.144,0.48,0.918,0.033,-0.074,3
0.773,-0.366,0.529,0.801,-0.26,0.463,0.951,-0.183,0.046,3
0.808,-0.291,0.474,0.8,-0.436,0.587,0.896,-0.195,0.078,3
0.809,-0.289,0.445,0.763,-0.286,0.496,0.887,-0.162,0.19,3
0.825,-0.244,0.557,0.81,-0.43,0.438,0.906,-0.184,0.238,3
0.783,-0.229,0.444,0.795,-0.389,0.497,5.249,-1.915,0.831,3
0.786,-0.287,0.469,0.794,-0.367,0.525,0.881,-0.303,0.025,3
0.831,-0.31,0.526,0.753,-0.382,0.527,1.11,-0.209,-0.096,3
0.798,-0.196,0.542,0.764,-0.299,0.552,0.922,-0.105,-0.203,3
0.82,-0.172,0.613,0.847,-0.243,0.641,0.952,-0.213,-0.257,3
0.847,-0.203,0.668,0.768,-0.377,0.499,0.936,-0.23,-0.269,3
0.839,-0.118,0.415,0.833,-0.18,0.525,0.939,-0.161,-0.277,3
0.824,-0.076,0.46,0.885,-0.31,0.485,0.948,-0.139,-0.286,3
0.845,-0.156,0.61,0.861,-0.045,0.476,0.938,-0.194,-0.292,3
0.816,-0.147,0.541,0.833,-0.204,0.513,0.93,-0.14,-0.291,3
0.813,-0.144,0.572,0.817,-0.111,0.522,0.932,-0.094,-0.301,3
0.821,-0.115,0.589,0.788,-0.182,0.547,0.99,-0.114,-0.431,3
0.795,-0.086,0.69,0.805,-0.107,0.641,1.08,0.029,-0.378,3
0.747,-0.211,0.708,0.802,-0.103,0.651,0.956,0.015,-0.16,3
0.764,-0.105,0.602,0.748,-0.171,0.533,1.039,0.035,-0.284,3
0.842,-0.051,0.595,0.796,-0.195,0.624,0.988,-0.085,-0.321,3
0.896,-0.074,0.632,0.859,-0.146,0.557,0.995,-0.108,-0.214,3
0.825,0.026,0.472,0.775,-0.194,0.578,1.049,-0.059,-0.072,3
0.825,0.001,0.542,0.809,-0.162,0.616,0.949,-0.06,-0.017,3
0.771,0.074,0.595,0.838,-0.186,0.563,0.902,-0.127,0.015,3
0.841,0.029,0.588,0.793,-0.202,0.542,0.886,-0.164,0.202,3
0.803,0.054,0.688,0.819,-0.11,0.641,0.898,-0.273,0.282,3
0.771,0.178,0.609,0.771,-0.092,0.598,1.073,-0.178,0.234,3
0.804,0.042,0.634,0.807,-0.157,0.537,0.954,-0.226,-0.127,3
0.852,0.196,0.652,0.802,-0.018,0.591,0.938,-0.187,-0.115,3
0.813,0.09,0.629,0.734,-0.078,0.624,0.977,-0.116,-0.161,3
0.851,0.212,0.488,0.767,-0.185,0.659,0.945,-0.245,-0.274,3
0.827,0.073,0.501,0.835,-0.176,0.581,0.934,-0.155,-0.251,3
0.753,0.215,0.493,0.816,-0.029,0.486,0.943,-0.184,-0.277,3
0.841,0.086,0.595,0.857,-0.001,0.354,0.919,-0.155,-0.32,3
0.854,0.154,0.567,0.847,-0.192,0.706,0.938,-0.135,-0.311,3
0.771,0.128,0.515,0.834,0.02,0.494,0.931,-0.099,-0.255,3
0.796,0.04,0.654,0.843,-0.105,0.534,0.983,-0.111,-0.461,3
0.792,0.146,0.631,0.84,-0.061,0.597,1.009,-0.019,-0.415,3
0.871,-0.045,0.515,0.826,-0.086,0.57,0.958,0.102,-0.179,3
0.861,0.023,0.398,0.771,-0.131,0.569,1.017,0.018,-0.243,3
0.84,-0.012,0.584,0.855,-0.109,0.559,0.997,-0.126,-0.379,3
0.802,0.021,0.496,0.826,-0.133,0.605,0.951,-0.067,-0.257,3
0.796,-0.082,0.576,0.809,-0.226,0.583,1.003,-0.032,-0.067,3
0.785,-0.027,0.582,0.779,-0.251,0.584,1.007,-0.112,0.006,3
0.778,-0.035,0.695,0.811,-0.235,0.587,0.949,-0.117,-0.004,3
0.782,0.086,0.655,0.814,-0.269,0.611,0.89,-0.166,0.11,3
0.833,0.205,0.677,0.809,-0.28,0.516,0.805,-0.17,0.126,3
0.802,0.023,0.56,0.771,-0.278,0.573,0.988,-0.089,-0.083,3
0.838,0.163,0.623,0.77,-0.231,0.627,0.931,-0.242,0.054,3
0.861,0.189,0.596,0.753,-0.243,0.533,1.03,-0.201,-0.045,3
0.798,0.048,0.513,0.776,-0.339,0.641,0.937,-0.119,-0.189,3
0.781,0.076,0.57,0.786,-0.161,0.662,0.956,-0.206,-0.243,3
0.78,0.162,0.656,0.694,-0.262,0.551,0.942,-0.216,-0.26,3
0.753,0.124,0.608,0.808,-0.264,0.521,0.925,-0.165,-0.297,3
0.826,0.058,0.657,0.842,-0.14,0.48,0.922,-0.162,-0.314,3
0.786,0.054,0.621,0.804,-0.214,0.608,0.914,-0.195,-0.319,3
0.851,0.069,0.507,0.816,-0.167,0.514,0.903,-0.133,-0.368,3
0.834,0.041,0.497,0.81,-0.159,0.537,0.927,-0.128,-0.329,3
0.864,0.024,0.574,0.837,-0.123,0.574,0.977,-0.115,-0.5,3
0.854,0.055,0.577,0.792,-0.144,0.536,0.981,-0.019,-0.434,3
0.818,0.066,0.544,0.817,-0.093,0.564,0.992,0.04,-0.267,3
0.836,0.114,0.652,0.827,-0.248,0.657,1.041,0.043,-0.17,3
0.796,0.123,0.57,0.802,-0.058,0.639,1.082,-0.085,-0.392,3
0.764,0.174,0.591,0.83,-0.244,0.594,0.977,-0.088,-0.271,3
0.747,0.159,0.688,0.737,-0.162,0.591,0.968,-0.057,-0.16,3
0.819,0.215,0.649,0.833,-0.253,0.453,0.948,-0.051,0.012,3
0.78,0.3,0.535,0.793,-0.283,0.573,0.889,-0.111,0.036,3
0.864,0.3,0.526,0.782,-0.323,0.502,0.814,-0.274,0.137,3
0.854,0.252,0.561,0.762,-0.366,0.455,0.93,-0.292,0.204,3
0.751,0.339,0.423,0.871,-0.311,0.433,1.233,-0.484,0.161,3
0.798,0.312,0.523,0.794,-0.326,0.452,0.902,-0.344,-0.005,3
0.794,0.319,0.545,0.848,-0.278,0.431,0.961,-0.158,-0.197,3
0.804,0.279,0.569,0.858,-0.201,0.402,0.971,-0.118,-0.227,3
0.738,0.333,0.49,0.875,-0.104,0.425,0.939,-0.326,-0.267,3
0.781,0.278,0.677,0.892,-0.142,0.48,0.941,-0.196,-0.254,3
0.823,0.251,0.54,0.83,-0.178,0.493,0.936,-0.253,-0.331,3
0.84,0.222,0.569,0.874,-0.134,0.462,0.908,-0.188,-0.339,3
0.855,0.231,0.5,0.844,-0.096,0.357,0.927,-0.247,-0.34,3
0.822,0.173,0.574,0.872,-0.164,0.432,0.914,-0.162,-0.355,3
0.855,0.157,0.499,0.908,-0.047,0.505,0.922,-0.196,-0.364,3
0.833,0.127,0.561,0.87,0.073,0.39,0.905,-0.086,-0.302,3
0.767,0.179,0.571,0.872,-0.123,0.458,1.043,-0.111,-0.295,3
0.797,0.153,0.598,0.879,-0.083,0.625,1.019,0.063,-0.16,3
0.806,0.286,0.594,0.841,-0.123,0.479,1.032,0.157,-0.197,3
0.822,0.241,0.654,0.81,-0.18,0.511,1.012,0.084,-0.216,3
0.792,0.248,0.469,0.799,-0.202,0.576,0.981,0.077,-0.129,3
0.849,0.238,0.641,0.861,-0.065,0.564,0.943,0.059,-0.073,3
0.778,0.288,0.529,0.856,-0.002,0.499,0.888,-0.08,-0.041,3
