Left_Wrist_Acc_X,Left_Wrist_Acc_Y,Left_Wrist_Acc_Z,Right_Wrist_Acc_X,Right_Wrist_Acc_Y,Right_Wrist_Acc_Z,Upper_Leg_Acc_X,Upper_Leg_Acc_Y,Upper_Leg_Acc_Z,Activity
-0.522,0.84,0.268,0.486,0.867,0.184,-0.031,0.982,-0.195,0
-0.513,0.863,0.265,0.513,0.809,0.198,0.05,0.969,-0.214,0
-0.536,0.862,0.217,0.53,0.788,0.194,0.011,0.968,-0.183,0
-0.469,0.892,0.17,0.541,0.807,0.212,0.093,0.966,-0.233,0
-0.512,0.89,0.178,0.412,0.752,0.157,-0.005,0.955,-0.291,0
-0.516,0.792,0.179,0.367,0.896,0.259,-0.049,1.059,-0.036,0
-0.573,0.793,0.174,0.337,1.131,0.364,0.033,0.985,-0.229,0
-0.529,0.81,0.299,0.242,1.001,0.356,0.033,0.983,-0.245,0
-0.458,0.811,0.419,0.245,0.881,0.327,-0.028,0.973,-0.238,0
-0.485,0.792,0.391,0.219,0.878,0.324,0.021,0.943,-0.296,0
-0.481,0.765,0.337,0.484,0.948,0.222,-0.209,1.037,-0.048,0
-0.545,0.82,0.298,0.546,0.804,0.277,-0.131,1.152,0.165,0
-0.512,0.922,0.418,0.416,0.972,0.546,0.0,0.969,0.237,0
-0.725,0.757,0.449,-0.015,0.799,0.674,-0.107,0.906,0.065,0
-0.904,0.485,0.512,0.081,0.697,0.521,-0.024,0.862,-0.16,0
-0.961,0.126,0.602,0.176,0.897,0.577,-0.147,0.93,0.061,0
-0.556,-0.04,0.464,0.235,1.009,0.437,-0.317,1.167,-0.063,0
-0.55,0.004,0.268,0.305,0.795,0.333,0.081,0.92,0.018,0
-0.553,0.164,0.299,0.317,0.85,0.298,0.076,1.006,-0.128,0
-0.718,0.295,0.753,0.453,0.846,0.321,-0.097,0.944,-0.211,0
-0.959,0.214,1.069,0.416,1.088,0.385,0.037,0.988,-0.153,0
-0.517,0.073,0.97,0.219,0.953,0.341,0.045,0.959,-0.255,0
-0.309,0.029,0.655,0.291,0.898,0.317,0.055,1.01,-0.179,0
-0.558,0.15,0.601,0.392,0.81,0.351,-0.013,0.971,-0.274,0
-0.622,0.33,1.003,0.33,0.833,0.435,0.028,0.981,-0.222,0
-1.029,0.194,0.932,0.392,0.731,0.503,0.118,0.991,-0.148,0
-0.651,0.076,0.664,0.377,0.614,0.657,0.118,0.958,-0.263,0
-0.378,-0.032,0.519,0.422,0.731,0.413,0.026,0.989,-0.251,0
-0.826,0.182,0.461,0.309,1.268,0.476,-0.001,1.002,-0.209,0
-0.993,0.385,0.556,0.063,0.728,0.883,-0.009,0.939,-0.218,0
-0.905,0.1,0.672,0.583,0.079,0.645,-0.048,0.977,-0.171,0
-0.542,0.044,0.577,0.592,0.273,0.326,-0.014,1.047,-0.011,0
-0.483,-0.04,0.45,0.588,0.885,0.23,-0.011,1.095,0.148,0
-0.702,0.138,0.693,0.536,0.898,0.597,-0.17,1.006,-0.027,0
-0.801,0.472,0.608,0.855,0.796,0.709,0.221,0.845,-0.233,0
-0.806,0.371,0.795,0.547,-0.097,0.627,0.067,0.816,0.212,0
-0.653,0.131,0.865,0.484,-0.378,0.225,0.192,1.234,1.167,0
-0.602,0.197,0.721,0.768,0.6,0.381,0.458,1.091,0.252,0
-0.689,0.411,0.653,0.763,0.964,0.517,-0.021,1.038,0.228,0
-0.833,0.346,0.556,0.737,0.85,0.654,0.133,0.952,0.375,0
-0.486,0.559,0.851,0.519,0.227,0.606,0.21,0.874,0.449,0
-0.525,0.309,0.773,0.631,-0.029,0.635,0.25,0.883,0.399,0
-0.469,0.308,0.727,0.694,0.319,0.364,0.093,0.931,0.423,0
-0.692,0.438,0.711,0.777,0.858,0.564,0.229,0.891,0.442,0
-0.581,0.608,0.556,0.699,0.75,0.609,0.207,0.864,0.463,0
-0.539,0.892,0.882,0.649,0.246,0.659,0.281,0.879,0.474,0
-0.534,0.605,0.792,0.442,-0.103,0.708,0.153,0.841,0.508,0
-0.487,0.569,0.631,0.91,0.368,0.427,0.256,0.816,0.534,0
-0.53,1.077,0.561,0.568,1.071,0.461,0.145,0.862,0.527,0
-0.633,0.862,0.77,0.594,1.292,0.779,0.135,0.844,0.576,0
-0.747,0.772,0.711,0.422,0.174,0.703,0.154,0.768,0.612,0
-0.669,0.425,0.722,0.649,0.098,0.537,0.155,0.721,0.626,0
-0.304,0.164,0.38,0.718,0.685,0.438,0.205,0.757,0.634,0
-1.002,0.664,0.357,0.742,0.816,0.421,0.134,0.771,0.657,0
-0.8,0.63,0.584,0.619,0.927,0.45,0.276,0.688,0.656,0
-0.929,0.47,0.637,0.527,0.871,0.607,0.171,0.753,0.699,0
-0.707,0.271,0.686,0.558,0.45,0.53,0.208,0.658,0.706,0
-0.613,0.141,0.57,0.476,0.523,0.478,0.156,0.517,0.665,0
-0.609,0.222,0.475,0.516,0.893,0.428,0.218,0.525,0.702,0
-0.821,0.428,0.584,0.464,1.143,0.508,0.11,0.432,0.766,0
-0.782,0.367,0.608,0.479,1.079,0.539,0.25,0.529,0.851,0
-0.784,0.323,0.582,0.449,0.733,0.578,0.241,0.607,0.858,0
-0.733,0.308,0.673,0.484,0.439,0.313,0.229,0.525,0.863,0
-0.681,0.106,0.604,0.334,0.88,0.322,0.322,0.475,0.866,0
-0.525,-0.049,0.656,0.494,1.08,0.388,0.255,0.545,0.942,0
-0.503,-0.13,0.593,0.575,0.977,0.5,0.138,0.516,0.892,0
-0.824,0.15,0.523,0.581,0.631,0.475,0.33,0.59,0.791,0
-0.853,0.134,0.507,0.613,0.379,0.542,0.276,0.563,0.769,0
-0.551,-0.06,0.506,0.484,0.322,0.495,0.201,0.575,0.747,0
-0.845,-0.044,0.6,0.394,0.654,0.3,0.177,0.641,0.696,0
-0.793,0.102,0.503,0.53,1.438,0.626,0.257,0.757,0.641,0
-0.774,0.29,0.409,0.369,1.098,0.542,0.184,0.792,0.624,0
-0.758,0.451,0.389,0.326,0.935,0.625,0.255,0.776,0.531,0
-0.571,0.521,0.389,0.418,0.625,0.667,0.263,0.832,0.488,0
-0.62,0.668,0.399,0.517,0.286,0.45,0.171,0.86,0.478,0
-0.639,0.693,0.291,0.474,0.466,0.358,0.205,0.948,0.404,0
-0.598,0.756,0.323,0.474,0.812,0.364,0.156,0.914,0.365,0
-0.614,0.829,0.314,0.519,0.993,0.528,0.219,0.904,0.339,0
-0.626,0.851,0.23,0.535,0.697,0.604,0.212,0.946,0.259,0
-0.608,0.802,0.224,0.519,0.309,0.72,0.094,0.978,0.231,0
-0.533,0.814,0.217,0.56,0.058,0.707,0.296,0.967,0.152,0
-0.559,0.8,0.231,0.546,0.061,0.516,0.099,1.016,0.111,0
-0.553,0.759,0.198,0.59,0.346,0.441,0.013,0.982,0.04,0
-0.49,0.829,0.314,0.627,0.682,0.542,0.066,1.022,0.042,0
-0.455,0.894,0.191,0.669,0.708,0.353,0.049,0.984,-0.21,1
-0.5,0.885,0.173,0.699,0.684,0.338,0.042,0.974,-0.23,1
-0.446,0.846,0.173,0.539,0.762,0.396,0.043,0.98,-0.209,1
-0.625,0.795,0.091,0.41,0.785,0.312,0.06,0.981,-0.192,1
-0.736,0.682,0.016,0.337,0.815,0.249,0.052,0.979,-0.208,1
-0.72,0.788,0.096,0.471,0.911,0.234,0.04,0.978,-0.203,1
-0.542,0.828,0.19,0.649,0.878,0.278,0.178,1.016,-0.13,1
-0.534,0.841,0.178,0.46,0.929,0.375,0.056,0.97,-0.191,1
-0.52,0.83,0.206,0.396,1.003,0.409,0.039,0.967,-0.284,1
-0.563,0.828,0.147,0.157,1.021,0.417,0.016,0.976,-0.188,1
-0.585,0.797,0.132,0.279,1.014,0.331,0.075,0.972,-0.226,1
-0.572,0.77,0.131,0.273,0.985,0.265,0.066,0.984,-0.213,1
-0.534,0.901,0.217,0.238,0.915,0.205,0.061,0.97,-0.244,1
-0.631,0.824,0.118,0.226,0.806,0.167,0.064,0.988,-0.237,1
-0.586,0.773,0.114,0.233,0.746,0.359,-0.349,1.253,0.209,1
-0.568,0.81,0.127,0.126,0.864,0.803,-0.026,0.962,-0.177,1
-0.6,0.795,0.112,-0.088,0.862,0.691,0.085,0.937,0.226,1
-0.581,0.82,0.104,0.127,0.86,0.613,-0.344,0.827,0.103,1
-0.64,0.859,0.119,0.217,0.848,0.512,-0.186,0.988,0.177,1
-0.58,0.792,0.25,0.162,0.894,0.419,-0.022,0.991,0.223,1
-0.295,0.704,0.381,0.12,0.9,0.44,-0.147,0.983,0.203,1
-0.581,0.885,0.357,0.069,0.907,0.426,-0.11,0.981,0.193,1
-0.641,1.25,0.467,0.051,0.814,0.357,-0.13,0.963,0.147,1
-0.778,0.93,0.516,0.106,0.86,0.388,-0.076,0.907,0.156,1
-0.608,0.492,0.534,0.158,0.964,0.445,-0.111,1.02,0.055,1
-0.539,0.222,0.453,0.203,1.035,0.464,-0.076,1.063,-0.001,1
-0.542,0.175,0.639,0.324,0.965,0.384,-0.036,0.999,-0.155,1
-0.517,0.159,0.7,0.389,0.895,0.348,0.063,1.038,-0.138,1
-0.51,0.11,0.872,0.346,0.925,0.365,0.021,0.983,-0.255,1
-0.542,0.04,0.84,0.25,1.031,0.393,0.065,0.966,-0.246,1
-0.505,-0.013,0.799,0.164,1.085,0.361,0.04,0.976,-0.224,1
-0.543,-0.001,0.855,0.148,0.857,0.307,0.063,0.987,-0.233,1
-0.264,-0.02,0.41,0.135,0.777,0.324,0.041,0.974,-0.243,1
-0.502,-0.064,0.861,0.182,0.947,0.398,0.017,0.973,-0.271,1
-0.474,-0.096,0.874,0.12,0.998,0.449,0.05,0.981,-0.203,1
-0.541,-0.136,0.807,0.126,0.965,0.384,0.074,0.97,-0.22,1
-0.54,-0.139,0.812,0.163,0.801,0.369,0.016,0.973,-0.256,1
-0.515,-0.128,0.833,0.098,0.84,0.414,-0.08,0.991,-0.148,1
-0.533,-0.129,0.836,0.113,0.858,0.477,-0.05,1.02,-0.048,1
-0.532,-0.161,0.867,0.092,0.887,0.469,-0.162,1.056,0.0,1
-0.606,-0.146,0.848,0.174,0.875,0.43,-0.18,1.007,-0.048,1
-0.535,-0.193,0.794,0.212,0.818,0.428,-0.177,0.896,-0.033,1
-0.58,-0.185,0.79,0.21,0.878,0.497,-0.174,0.963,0.021,1
-0.558,-0.197,0.786,0.169,1.022,0.568,-0.108,0.989,0.101,1
-0.566,-0.181,0.797,0.129,0.942,0.465,-0.078,1.099,0.183,1
-0.578,-0.193,0.806,0.168,0.975,0.391,-0.203,1.05,0.177,1
-0.586,-0.199,0.787,0.178,0.919,0.304,0.114,0.826,0.205,1
-0.588,-0.189,0.802,0.205,0.946,0.25,-0.122,0.87,-0.018,1
-0.571,-0.192,0.792,0.271,0.873,0.256,-0.159,0.902,-0.009,1
-0.582,-0.186,0.795,0.433,1.008,0.379,0.001,0.94,0.269,1
-0.572,-0.191,0.8,0.285,1.192,0.469,-0.161,1.05,-0.099,1
-0.571,-0.195,0.798,0.149,0.842,0.452,-0.059,1.0,-0.223,1
-0.57,-0.191,0.795,0.519,0.67,0.352,0.013,0.998,-0.168,1
-0.592,-0.188,0.779,0.788,0.478,0.311,0.068,0.962,-0.279,1
-0.584,-0.19,0.798,0.79,0.392,0.238,0.047,0.992,-0.197,1
-0.597,-0.195,0.792,0.768,0.672,0.108,0.02,0.954,-0.286,1
-0.596,-0.191,0.766,0.851,0.614,0.034,0.042,0.988,-0.264,1
-0.602,-0.199,0.79,0.815,0.516,-0.034,0.041,0.982,-0.224,1
-0.584,-0.208,0.786,0.955,0.428,0.042,0.041,0.976,-0.246,1
-0.615,-0.201,0.769,0.292,0.485,0.338,-0.031,0.997,-0.183,1
-0.625,-0.197,0.749,0.369,0.535,0.518,-0.016,0.951,-0.289,1
-0.64,-0.178,0.711,0.774,0.715,0.43,-0.138,0.982,-0.163,1
-0.675,-0.167,0.653,0.496,1.002,0.728,-0.12,1.017,-0.104,1
-0.768,-0.117,0.67,0.214,0.86,0.532,-0.173,1.052,0.019,1
-0.783,-0.113,0.631,0.36,0.64,0.53,-0.143,1.04,0.181,1
-0.799,-0.099,0.646,0.455,0.731,0.499,-0.092,0.976,-0.106,1
-0.799,-0.072,0.676,0.392,0.748,0.579,-0.009,0.931,-0.022,1
-0.766,-0.093,0.625,0.442,0.748,0.53,-0.095,0.907,0.155,1
-0.795,-0.093,0.606,0.411,0.75,0.5,-0.067,0.96,0.186,1
-0.82,-0.06,0.645,0.394,0.75,0.494,0.001,0.978,0.15,1
-0.759,-0.016,0.641,0.397,0.749,0.469,0.095,0.902,-0.011,1
-0.684,0.02,0.703,0.394,0.696,0.564,-0.053,0.922,0.095,1
-0.75,0.06,0.73,0.561,0.777,0.607,-0.116,0.979,-0.073,1
-0.656,-0.004,0.767,0.402,0.744,0.401,0.065,1.026,-0.174,1
-0.713,-0.016,0.7,0.507,0.701,0.407,0.042,0.971,-0.28,1
-0.67,-0.014,0.73,0.602,0.766,0.361,0.047,0.986,-0.241,1
-0.651,-0.002,0.75,0.565,0.84,0.382,0.027,0.99,-0.226,1
-0.645,-0.0,0.738,0.44,0.689,0.356,0.042,0.965,-0.275,1
-0.644,0.025,0.75,0.606,0.753,0.399,0.01,0.973,-0.248,1
-0.649,0.015,0.764,0.531,0.735,0.466,0.048,0.992,-0.188,1
-0.684,0.017,0.771,0.579,0.673,0.493,0.025,0.987,-0.215,1
-0.658,-0.049,0.736,0.578,0.681,0.569,-0.036,0.976,-0.21,1
-0.703,-0.068,0.714,0.64,0.778,0.521,-0.187,1.001,-0.156,1
-0.681,-0.103,0.662,0.464,0.816,0.343,-0.12,0.938,0.064,1
-0.744,-0.131,0.654,0.105,0.838,0.467,-0.057,0.933,-0.172,1
-0.784,-0.125,0.658,0.409,0.869,0.427,-0.219,0.964,0.013,1
-0.762,-0.131,0.652,0.385,0.792,0.414,-0.138,0.949,0.342,1
-0.756,-0.115,0.646,0.42,0.768,0.518,0.054,0.833,-0.116,1
-0.759,-0.093,0.639,0.461,0.724,0.488,0.047,1.021,0.145,1
-0.767,-0.097,0.625,0.402,0.695,0.604,-0.222,0.955,0.134,1
-0.811,-0.091,0.62,0.336,0.707,0.615,-0.099,0.928,0.04,1
-0.782,-0.08,0.624,0.403,0.7,0.645,0.039,1.042,0.176,1
-0.794,-0.074,0.617,0.375,0.683,0.655,-0.53,1.043,0.271,1
-0.792,-0.078,0.612,0.492,0.728,0.55,-0.102,1.027,-0.019,1
-0.795,-0.084,0.619,0.46,0.732,0.442,-0.065,0.969,-0.182,1
-0.816,-0.038,0.631,0.544,0.824,0.422,-0.07,0.989,-0.156,1
-0.728,-0.013,0.631,0.477,0.735,0.432,0.001,1.026,-0.136,1
-0.777,0.082,0.657,0.515,0.704,0.43,0.051,0.985,-0.244,1
-0.736,0.126,0.686,0.596,0.711,0.442,0.061,0.983,-0.229,1
-0.713,0.119,0.718,0.582,0.672,0.488,0.03,0.976,-0.223,1
-0.718,0.165,0.679,0.609,0.625,0.507,0.162,1.012,-0.34,1
-0.808,0.106,0.617,0.628,0.639,0.52,0.035,0.958,-0.316,1
-0.769,0.126,0.631,0.567,0.673,0.52,0.056,0.994,-0.192,1
-0.758,0.122,0.63,0.563,0.656,0.579,0.071,0.978,-0.229,1
-0.772,0.113,0.655,0.551,0.62,0.587,0.021,0.948,-0.214,1
-0.719,0.086,0.627,0.603,0.715,0.581,0.101,1.021,-0.183,1
-0.787,0.086,0.601,0.464,0.666,0.48,0.05,0.968,-0.283,1
-0.896,0.054,0.423,0.497,0.816,0.462,-0.147,0.967,-0.244,1
-0.996,0.058,0.271,0.36,0.796,0.385,-0.124,1.041,-0.145,1
-1.041,0.067,0.092,0.31,0.847,0.486,-0.224,0.96,-0.12,1
-0.99,0.042,-0.047,0.396,0.742,0.589,-0.16,0.982,-0.057,1
-1.001,0.034,-0.212,0.487,0.687,0.498,-0.17,0.976,-0.037,1
-1.013,-0.044,-0.37,0.327,0.785,0.567,-0.221,0.958,0.259,1
-0.916,-0.09,-0.323,0.391,0.73,0.633,-0.146,0.959,-0.001,1
-0.839,-0.096,-0.355,0.396,0.699,0.603,0.025,0.94,0.257,1
-0.901,-0.087,-0.375,0.357,0.726,0.569,-0.006,0.971,0.161,1
-0.92,-0.094,-0.388,0.324,0.696,0.544,-0.145,1.062,0.43,1
-0.874,-0.105,-0.388,0.33,0.716,0.574,-0.083,0.971,0.075,1
-0.957,-0.032,-0.422,0.292,0.778,0.591,-0.118,0.989,0.036,1
-0.95,-0.113,-0.377,0.324,0.792,0.635,-0.099,1.005,-0.083,1
-0.948,-0.112,-0.454,0.448,0.799,0.623,-0.001,1.02,-0.09,1
-0.952,-0.096,-0.366,0.428,0.619,0.461,0.025,0.994,-0.175,1
-0.906,-0.109,-0.32,0.532,0.681,0.484,0.032,0.971,-0.219,1
-0.934,-0.065,-0.327,0.529,0.676,0.517,-0.01,0.943,-0.295,1
-0.88,0.011,-0.208,0.549,0.656,0.51,0.051,1.066,-0.081,1
-0.984,0.039,-0.203,0.554,0.709,0.488,0.07,1.001,-0.221,1
-0.973,0.072,-0.135,0.509,0.74,0.434,0.049,0.978,-0.256,1
-0.906,0.215,0.032,0.531,0.722,0.423,0.031,0.971,-0.219,1
-0.832,0.512,0.087,0.565,0.738,0.451,0.079,0.983,-0.188,1
-0.523,0.654,0.259,0.503,0.8,0.532,0.057,0.968,-0.22,1
-0.823,0.646,0.194,0.482,0.742,0.521,0.071,0.969,-0.212,1
-0.805,0.896,0.083,0.536,0.697,0.5,0.086,0.97,-0.224,1
-0.617,0.923,0.294,0.563,0.699,0.481,0.103,0.969,-0.218,1
-0.344,0.919,0.309,0.523,0.666,0.46,0.03,0.976,-0.296,1
-0.371,0.954,0.194,0.495,0.661,0.522,0.014,0.965,-0.224,1
-0.448,0.795,0.143,0.464,0.73,0.557,-0.035,1.005,-0.202,1
-0.402,0.795,0.208,0.337,0.727,0.477,-0.031,1.017,-0.154,1
-0.39,0.771,0.183,0.374,0.746,0.64,-0.112,0.982,0.011,1
-0.41,0.89,0.169,0.341,0.766,0.616,-0.021,1.06,-0.077,1
-0.43,1.099,0.21,0.343,0.767,0.512,-0.026,0.971,-0.161,1
-0.263,1.076,0.212,0.332,0.777,0.527,0.088,0.978,-0.021,1
-0.244,0.964,0.183,0.331,0.785,0.537,-0.138,1.003,0.08,1
-0.29,0.923,0.134,0.338,0.77,0.525,0.051,0.998,0.132,1
-0.295,0.92,0.128,0.337,0.773,0.529,0.069,1.0,0.1,1
-0.294,0.962,0.208,0.345,0.773,0.54,-0.198,0.878,-0.253,1
-0.239,0.953,0.265,0.349,0.753,0.552,-0.271,1.181,-0.063,1
-0.289,0.916,0.284,0.371,0.746,0.557,-0.012,0.954,0.003,1
-0.297,0.944,0.291,0.374,0.741,0.573,0.042,1.022,-0.02,1
-0.321,1.005,0.269,0.349,0.747,0.564,0.007,0.99,-0.054,1
-0.384,0.914,0.238,0.341,0.736,0.542,-0.005,0.973,-0.136,1
-0.259,0.929,0.27,0.368,0.8,0.614,0.039,0.969,-0.262,1
-0.292,0.937,0.325,0.387,0.733,0.577,0.11,1.025,-0.138,1
-0.25,0.901,0.405,0.456,0.726,0.525,0.104,0.987,-0.234,1
-0.158,0.832,0.419,0.462,0.703,0.506,0.074,0.985,-0.231,1
-0.167,0.924,0.403,0.519,0.689,0.526,0.063,0.981,-0.192,1
-0.188,0.904,0.354,0.529,0.679,0.491,0.098,0.959,-0.215,1
-0.229,0.911,0.322,0.501,0.695,0.485,0.026,0.978,-0.21,1
-0.236,0.935,0.326,0.538,0.734,0.504,0.091,0.991,-0.228,1
-0.215,0.913,0.331,0.506,0.743,0.487,0.084,0.972,-0.24,1
-0.202,0.911,0.359,0.509,0.71,0.479,0.046,0.953,-0.288,1
-0.175,0.902,0.384,0.548,0.688,0.477,0.036,0.975,-0.233,1
-0.19,0.896,0.382,0.572,0.694,0.509,0.053,0.988,-0.214,1
-0.227,0.92,0.368,0.546,0.647,0.526,0.018,0.967,-0.248,1
-0.241,0.903,0.346,0.576,0.683,0.541,0.033,0.978,-0.21,1
-0.275,0.924,0.328,0.572,0.676,0.486,0.026,0.985,-0.196,1
-0.271,0.918,0.298,0.539,0.687,0.502,0.005,1.009,-0.191,1
-0.295,0.932,0.266,0.498,0.706,0.508,-0.025,1.02,-0.018,1
-0.335,0.94,0.244,0.475,0.717,0.488,-0.064,0.991,-0.072,1
-0.311,0.921,0.246,0.449,0.718,0.463,-0.123,1.0,0.008,1
-0.331,0.915,0.232,0.434,0.755,0.527,-0.051,1.004,0.017,1
-0.354,0.941,0.234,0.366,0.79,0.505,-0.045,1.001,0.213,1
-0.309,0.979,0.266,0.379,0.801,0.548,-0.112,0.964,0.229,1
-0.255,0.98,0.273,0.354,0.784,0.533,-0.05,0.956,0.263,1
-0.242,0.963,0.252,0.409,0.751,0.547,-0.06,0.949,0.237,1
-0.217,0.984,0.22,0.395,0.776,0.523,-0.042,0.962,0.273,1
-0.256,0.947,0.223,0.409,0.771,0.5,-0.026,0.972,0.256,1
-0.267,0.844,0.316,0.394,0.772,0.526,-0.055,0.949,0.206,1
-0.205,0.886,0.362,0.41,0.754,0.501,-0.104,0.987,0.221,1
-0.267,0.944,0.403,0.43,0.747,0.514,-0.184,0.981,0.198,1
-0.22,0.906,0.43,0.449,0.725,0.506,-0.114,0.967,0.115,1
-0.206,0.894,0.412,0.459,0.726,0.489,-0.138,1.053,0.27,1
-0.216,0.887,0.423,0.454,0.743,0.516,0.027,0.972,0.03,1
-0.22,0.856,0.424,0.476,0.734,0.514,-0.178,1.0,0.124,1
-0.233,0.838,0.423,0.485,0.73,0.507,0.106,0.979,-0.029,1
-0.312,0.798,0.457,0.481,0.716,0.517,0.037,0.977,-0.153,1
-0.358,0.801,0.42,0.467,0.725,0.527,0.016,0.987,-0.191,1
-0.336,0.819,0.429,0.473,0.725,0.504,0.111,0.997,-0.16,1
-0.347,0.837,0.412,0.473,0.722,0.517,0.053,0.976,-0.163,1
-0.455,0.971,0.34,0.47,0.717,0.531,0.034,0.994,-0.28,1
-0.376,0.927,0.271,0.471,0.718,0.509,0.021,1.017,-0.201,1
-0.36,0.847,0.235,0.473,0.721,0.51,0.046,0.97,-0.287,1
-0.423,0.851,0.194,0.479,0.719,0.514,-0.004,0.983,-0.197,1
-0.366,0.905,0.192,0.467,0.729,0.515,0.021,0.986,-0.197,1
-0.393,0.944,0.19,0.47,0.734,0.503,-0.147,0.999,-0.094,1
-0.272,0.917,0.275,0.467,0.74,0.504,-0.111,1.021,0.025,1
-0.351,0.917,0.303,0.475,0.729,0.506,-0.125,1.042,0.067,1
-0.335,0.882,0.278,0.475,0.733,0.5,-0.154,1.01,0.16,1
-0.325,0.928,0.235,0.482,0.726,0.511,0.22,0.905,-0.099,1
-0.314,0.922,0.216,0.477,0.727,0.509,-0.734,0.906,0.141,1
-0.282,0.914,0.274,0.485,0.726,0.511,-0.178,1.028,-0.063,1
-0.41,0.997,0.201,0.484,0.721,0.496,-0.103,0.95,0.132,1
-0.31,0.919,0.268,0.485,0.721,0.486,-0.19,0.941,0.202,1
-0.294,0.969,0.266,0.481,0.717,0.501,-0.191,0.915,0.176,1
-0.267,0.939,0.25,0.472,0.752,0.483,-0.102,0.811,0.043,1
-0.243,0.95,0.246,0.473,0.724,0.508,-0.011,1.153,0.106,1
-0.222,0.979,0.291,0.507,0.728,0.517,-0.129,1.009,0.129,1
-0.247,0.939,0.252,0.474,0.736,0.501,-0.093,1.003,-0.17,1
-0.305,0.923,0.21,0.483,0.733,0.496,0.124,1.106,0.015,1
-0.194,0.892,0.341,0.48,0.73,0.491,-0.053,0.945,-0.36,1
-0.124,0.958,0.39,0.48,0.735,0.497,0.071,0.957,-0.32,1
-0.207,0.893,0.427,0.476,0.734,0.5,-0.014,1.006,-0.141,1
-0.258,0.917,0.424,0.485,0.731,0.485,0.04,0.952,-0.316,1
-0.292,0.945,0.369,0.48,0.732,0.489,-0.01,0.971,-0.28,1
-0.321,0.867,0.331,0.476,0.736,0.501,0.017,0.97,-0.247,1
-0.333,0.722,0.364,0.488,0.73,0.495,0.025,0.959,-0.267,1
-0.375,0.792,0.424,0.502,0.721,0.494,0.074,0.985,-0.19,1
-0.376,0.889,0.473,0.48,0.729,0.495,0.041,0.973,-0.213,1
-0.332,0.89,0.492,0.487,0.732,0.483,0.059,0.982,-0.21,1
-0.279,0.908,0.467,0.478,0.734,0.494,-0.176,1.021,-0.167,1
-0.249,0.935,0.411,0.485,0.733,0.485,-0.26,1.027,-0.146,1
-0.205,0.903,0.368,0.485,0.734,0.483,-0.091,0.938,-0.049,1
-0.182,0.845,0.363,0.49,0.737,0.488,-0.21,0.97,-0.039,1
-0.248,0.832,0.329,0.479,0.743,0.488,-0.297,0.945,0.024,1
-0.28,0.943,0.316,0.464,0.763,0.504,-0.305,0.995,0.052,1
-0.355,0.961,0.281,0.526,0.821,0.516,0.016,0.986,0.039,1
-0.397,0.981,0.239,0.5,0.871,0.49,0.223,1.032,0.204,1
-0.439,0.906,0.232,0.648,0.907,0.488,-0.254,0.938,0.094,1
-0.388,0.93,0.288,0.258,0.615,0.514,-0.077,1.005,0.12,1
-0.361,0.934,0.293,0.467,0.384,0.227,-0.098,0.948,-0.034,1
-0.281,0.956,0.31,0.54,0.473,-0.069,-0.027,0.958,0.147,1
-0.286,0.913,0.29,0.903,0.669,-0.225,0.19,1.121,0.531,1
-0.261,0.947,0.28,0.756,0.704,0.026,0.154,1.081,-0.022,1
-0.258,0.865,0.287,0.384,0.637,0.158,-0.135,0.958,-0.192,1
-0.272,0.902,0.383,0.431,1.154,0.409,0.066,0.989,-0.202,1
-0.168,0.988,0.545,0.447,1.405,0.449,0.024,0.956,-0.217,1
-0.167,0.779,0.542,-0.094,1.089,0.319,0.082,0.955,-0.294,1
-0.212,0.825,0.453,0.048,0.757,0.32,0.032,0.963,-0.283,1
-0.207,0.876,0.407,0.051,0.836,0.281,0.096,1.022,-0.129,1
-0.263,0.806,0.403,0.218,0.941,0.328,0.042,0.956,-0.302,1
-0.298,0.833,0.452,0.214,0.974,0.331,0.053,0.973,-0.222,1
-0.302,0.854,0.482,0.336,0.978,0.319,0.077,0.988,-0.162,1
-0.331,0.855,0.459,0.418,0.95,0.339,0.05,0.991,-0.278,1
-0.299,0.902,0.462,0.308,0.935,0.38,-0.151,0.998,-0.218,1
-0.271,0.905,0.485,0.306,0.987,0.352,-0.031,1.045,0.002,1
-0.208,0.88,0.46,0.422,1.047,0.489,-0.132,1.039,0.025,1
-0.215,0.931,0.457,0.518,0.866,0.413,-0.223,1.057,-0.26,1
-0.204,0.875,0.402,0.607,0.725,0.412,-0.099,0.937,-0.14,1
-0.242,0.891,0.3,0.756,0.555,0.52,0.034,0.865,-0.008,1
-0.335,0.89,0.241,0.693,0.304,0.444,-0.061,0.954,0.138,1
-0.279,0.936,0.242,0.512,0.137,0.607,-0.009,1.076,0.36,1
-0.349,0.899,0.193,0.597,-0.028,0.585,-0.03,0.907,0.059,1
-0.34,0.943,0.265,0.699,-0.077,0.636,-0.007,0.931,-0.139,1
-0.355,0.921,0.381,0.804,-0.03,0.636,-0.17,1.033,-0.05,1
-0.282,0.883,0.423,0.698,-0.034,0.659,-0.078,1.052,-0.137,1
-0.263,0.941,0.364,0.766,-0.057,0.637,0.064,0.991,-0.254,1
-0.31,0.924,0.271,0.738,-0.024,0.666,-0.042,0.989,-0.21,1
-0.356,0.929,0.267,0.7,0.025,0.613,0.078,0.967,-0.261,1
-0.263,0.914,0.29,0.778,-0.02,0.618,0.002,0.979,-0.248,1
-0.269,0.922,0.337,0.88,-0.038,0.625,0.095,0.962,-0.245,1
-0.243,0.857,0.324,0.815,0.044,0.589,0.069,0.979,-0.246,1
-0.222,0.902,0.38,0.845,0.019,0.546,0.119,1.022,-0.24,1
-0.269,0.935,0.38,0.844,0.014,0.599,0.075,0.965,-0.171,1
-0.221,0.941,0.413,0.867,0.03,0.567,0.225,1.012,-0.098,1
-0.199,0.819,0.39,0.802,0.046,0.566,0.09,1.044,-0.15,1
-0.142,0.914,0.497,0.864,0.09,0.579,-0.241,0.998,-0.329,1
-0.279,0.829,0.593,0.745,0.06,0.529,-0.286,0.966,-0.07,1
-0.227,0.831,0.47,0.859,0.04,0.564,-0.085,0.967,-0.096,1
-0.322,0.918,0.356,0.83,0.014,0.561,-0.264,0.998,0.2,1
-0.322,0.873,0.346,0.872,0.052,0.575,0.104,0.891,0.003,1
-0.303,0.868,0.474,0.58,0.056,0.544,-0.01,0.95,0.252,1
-0.265,0.878,0.52,0.663,0.096,0.546,-0.206,1.002,0.308,1
-0.268,0.825,0.426,0.924,0.249,0.607,0.34,1.063,0.479,1
-0.294,0.829,0.381,0.453,0.325,0.643,-0.055,1.058,0.301,1
-0.295,0.843,0.453,0.316,0.604,0.752,-0.153,0.943,0.061,1
-0.278,0.864,0.474,0.269,0.718,0.584,-0.11,1.01,0.019,1
-0.25,0.922,0.442,0.293,0.934,0.468,-0.137,0.978,-0.103,1
-0.238,0.91,0.408,0.304,1.138,0.433,0.029,1.014,-0.18,1
-0.217,0.886,0.383,0.352,1.049,0.438,-0.021,0.996,-0.196,1
-0.285,0.875,0.351,0.389,0.897,0.361,0.081,0.97,-0.287,1
-0.318,0.871,0.28,0.378,0.89,0.359,0.066,0.958,-0.298,1
-0.343,0.862,0.288,0.285,0.964,0.371,0.046,0.983,-0.202,1
-0.376,0.911,0.256,0.2,0.987,0.366,0.126,0.978,-0.215,1
-0.378,0.936,0.236,0.136,0.93,0.334,0.084,0.989,-0.219,1
-0.365,0.951,0.214,0.135,0.875,0.314,0.064,0.966,-0.232,1
-0.375,1.052,0.223,0.171,0.881,0.298,0.088,0.978,-0.164,1
-0.267,1.092,0.24,0.208,0.909,0.31,0.119,0.987,-0.178,1
-0.198,1.0,0.232,0.34,0.907,0.342,0.029,1.004,-0.179,1
-0.191,0.916,0.189,0.382,0.927,0.396,-0.134,0.978,-0.275,1
-0.25,0.844,0.159,0.333,0.969,0.394,-0.114,1.06,-0.099,1
-0.503,0.852,0.221,0.293,0.958,0.368,-0.134,0.979,0.009,1
-0.419,0.8,0.366,0.227,0.945,0.34,-0.271,0.961,-0.11,1
-0.367,0.91,0.402,0.183,0.945,0.349,-0.051,0.945,-0.253,1
-0.297,0.95,0.417,0.102,0.904,0.322,-0.05,0.967,0.051,1
-0.259,0.901,0.433,0.13,0.848,0.339,-0.139,0.965,0.17,1
-0.195,0.885,0.442,0.183,0.865,0.373,-0.164,1.032,0.227,1
-0.159,0.84,0.402,0.22,0.929,0.404,0.001,0.943,0.053,1
-0.258,0.84,0.349,0.252,0.95,0.406,-0.163,1.003,0.147,1
-0.281,0.849,0.362,0.277,0.913,0.4,-0.32,0.975,0.12,1
-0.315,0.901,0.367,0.264,0.895,0.41,-0.024,1.03,0.007,1
-0.378,0.906,0.41,0.204,0.943,0.408,-0.118,1.059,0.203,1
-0.329,0.993,0.46,0.176,0.941,0.382,-0.141,0.984,0.015,1
-0.254,0.9,0.417,0.165,0.905,0.348,-0.117,1.011,-0.083,1
-0.246,0.879,0.352,0.184,0.884,0.329,-0.026,0.985,-0.138,1
-0.255,0.934,0.279,0.211,0.905,0.332,0.028,1.003,-0.147,1
-0.31,0.838,0.232,0.239,0.906,0.332,0.076,0.997,-0.227,1
-0.292,0.893,0.218,0.264,0.924,0.345,0.091,0.986,-0.214,1
-0.374,0.934,0.213,0.271,0.943,0.34,0.058,0.962,-0.221,1
-0.38,0.927,0.282,0.28,0.919,0.319,0.054,0.95,-0.292,1
-0.363,0.932,0.352,0.272,0.901,0.303,0.106,0.953,-0.262,1
-0.337,0.944,0.365,0.268,0.914,0.31,0.092,0.97,-0.239,1
-0.323,0.947,0.318,0.27,0.932,0.333,0.077,0.969,-0.194,1
-0.311,0.942,0.27,0.266,0.92,0.35,0.093,0.996,-0.194,1
-0.313,0.92,0.247,0.268,0.924,0.344,0.089,1.012,-0.25,1
-0.305,1.014,0.232,0.268,0.908,0.334,-0.1,0.962,-0.216,1
-0.313,0.829,0.257,0.281,0.919,0.322,-0.08,0.997,-0.171,1
-0.276,0.824,0.352,0.271,0.93,0.326,-0.174,1.027,-0.001,1
-0.07,0.963,0.457,0.235,0.924,0.333,-0.188,1.048,0.047,1
-0.203,0.957,0.526,0.208,0.926,0.344,-0.111,0.962,-0.155,1
-0.144,0.827,0.45,0.186,0.932,0.354,-0.044,0.864,-0.154,1
-0.193,0.853,0.401,0.153,0.921,0.357,-0.146,1.001,0.021,1
-0.184,0.904,0.424,0.153,0.917,0.358,-0.393,1.186,0.552,1
-0.212,0.865,0.425,0.169,0.933,0.361,-0.136,0.944,0.065,1
-0.254,0.848,0.407,0.165,0.919,0.386,0.124,0.868,-0.136,1
-0.245,0.834,0.436,0.173,0.904,0.344,-0.123,0.938,0.142,1
-0.285,0.825,0.45,0.229,0.921,0.435,-0.047,1.04,0.234,1
-0.319,1.032,0.4,0.243,0.894,0.375,-0.079,1.191,0.193,1
-0.271,0.978,0.336,0.257,0.888,0.356,-0.001,0.987,-0.15,1
-0.247,0.918,0.261,0.23,0.888,0.334,-0.091,0.987,-0.081,1
-0.23,0.897,0.216,0.254,0.86,0.44,0.017,0.921,-0.282,1
-0.26,0.952,0.21,0.058,0.847,0.735,-0.009,0.994,-0.136,1
-0.25,0.948,0.187,0.383,0.87,0.167,-0.015,0.986,-0.21,1
-0.294,0.965,0.186,0.276,0.927,0.338,0.071,0.942,-0.284,1
-0.287,0.941,0.226,0.239,0.884,0.378,0.093,0.978,-0.25,1
-0.3,0.931,0.26,0.302,0.884,0.372,0.029,0.956,-0.282,1
-0.301,0.964,0.275,0.315,0.873,0.357,0.03,0.98,-0.238,1
-0.3,0.97,0.25,0.325,0.907,0.381,0.001,0.979,-0.204,1
-0.32,0.978,0.241,0.253,0.908,0.369,0.033,0.982,-0.244,1
-0.268,0.942,0.242,0.396,0.854,0.325,0.101,0.999,-0.185,1
-0.307,0.907,0.235,0.315,0.873,0.433,-0.089,0.969,-0.306,1
-0.251,0.91,0.262,0.308,0.883,0.349,-0.084,0.999,-0.108,1
-0.245,0.917,0.324,0.358,0.892,0.32,-0.152,0.965,-0.182,1
-0.149,0.892,0.43,0.274,0.909,0.378,-0.03,1.022,-0.128,1
-0.271,0.857,0.496,0.194,0.922,0.443,-0.178,0.99,-0.109,1
-0.174,0.797,0.502,0.109,0.928,0.456,-0.228,0.975,-0.185,1
-0.281,0.837,0.41,0.08,0.872,0.419,-0.105,0.983,-0.151,1
-0.316,0.867,0.392,0.133,0.873,0.398,-0.126,1.005,-0.021,1
-0.33,0.871,0.435,0.099,0.883,0.52,-0.016,0.977,-0.019,1
-0.283,0.868,0.457,0.336,0.873,0.51,-0.03,0.919,-0.02,1
-0.267,0.896,0.434,0.187,0.918,0.593,-0.194,0.989,-0.164,1
-0.226,0.885,0.406,0.168,0.879,0.453,0.002,0.995,-0.098,1
-0.176,0.888,0.424,0.168,0.897,0.527,-0.043,1.024,-0.061,1
-0.172,0.876,0.43,0.186,0.862,0.436,-0.042,0.977,-0.126,1
-0.198,0.847,0.437,0.199,0.908,0.411,0.098,0.972,-0.216,1
-0.24,0.89,0.439,0.177,0.874,0.423,-0.004,0.971,-0.227,1
-0.249,0.931,0.381,0.305,0.904,0.378,0.059,0.981,-0.249,1
-0.306,0.875,0.281,0.328,0.89,0.354,0.032,0.987,-0.252,1
-0.369,0.918,0.227,0.347,0.878,0.338,0.021,0.987,-0.222,1
-0.398,0.925,0.196,0.313,0.892,0.333,0.08,0.977,-0.211,1
-0.4,0.91,0.193,0.352,0.896,0.351,0.061,0.985,-0.2,1
-0.379,0.975,0.219,0.355,0.905,0.428,0.07,0.962,-0.255,1
-0.343,1.072,0.249,0.36,0.887,0.369,0.042,0.992,-0.193,1
-0.256,1.037,0.249,0.286,0.861,0.42,0.04,0.987,-0.211,1
-0.221,0.967,0.229,0.319,0.896,0.423,0.037,0.978,-0.214,1
-0.228,0.881,0.2,0.304,0.898,0.334,0.051,0.989,-0.199,1
-0.27,0.864,0.19,0.271,0.909,0.302,0.031,0.996,-0.151,1
-0.292,0.938,0.208,0.215,0.924,0.397,-0.057,0.993,-0.137,1
-0.304,0.902,0.312,0.188,0.93,0.402,-0.077,0.992,-0.155,1
-0.262,0.956,0.429,0.137,0.906,0.385,-0.132,1.01,-0.049,1
-0.3,0.957,0.484,0.104,0.901,0.408,-0.131,1.015,0.052,1
-0.17,0.888,0.466,0.118,0.922,0.375,-0.225,0.977,0.038,1
-0.196,0.877,0.406,0.193,0.907,0.364,0.016,0.965,0.03,1
-0.223,0.863,0.362,0.152,0.917,0.361,-0.165,1.008,0.043,1
-0.209,0.869,0.356,0.252,0.921,0.323,-0.041,0.995,0.135,1
-0.235,0.875,0.386,0.149,0.908,0.363,-0.123,0.986,-0.016,1
-0.244,0.838,0.441,0.202,0.929,0.383,-0.178,0.99,0.061,1
-0.277,0.839,0.446,0.13,0.912,0.405,-0.112,1.002,-0.024,1
-0.288,0.917,0.434,0.209,0.925,0.337,-0.024,1.008,-0.037,1
-0.256,0.91,0.417,0.221,0.914,0.338,-0.089,0.995,-0.091,1
-0.25,0.938,0.408,0.232,0.919,0.333,-0.041,1.001,-0.116,1
-0.191,0.88,0.383,0.249,0.918,0.339,0.01,0.983,-0.183,1
-0.255,0.858,0.321,0.256,0.933,0.33,-0.017,0.985,-0.179,1
-0.278,0.914,0.287,0.27,0.93,0.308,0.043,0.975,-0.218,1
-0.335,0.922,0.252,0.279,0.917,0.299,0.036,0.984,-0.188,1
-0.36,0.943,0.224,0.261,0.917,0.299,0.017,0.99,-0.19,1
-0.392,0.973,0.207,0.252,0.927,0.319,0.009,0.974,-0.229,1
-0.335,0.961,0.24,0.249,0.927,0.337,0.017,0.984,-0.188,1
-0.278,0.969,0.266,0.235,0.916,0.336,0.019,0.98,-0.208,1
-0.25,0.971,0.268,0.251,0.934,0.322,0.007,0.976,-0.215,1
-0.241,0.957,0.266,0.228,0.914,0.326,-0.005,0.98,-0.169,1
-0.242,0.919,0.268,0.226,0.923,0.327,-0.063,1.013,-0.108,1
-0.255,0.882,0.296,0.213,0.92,0.324,-0.108,1.003,-0.123,1
-0.25,0.938,0.347,0.212,0.941,0.333,-0.117,0.992,-0.067,1
-0.207,0.912,0.404,0.206,1.002,0.379,-0.161,0.981,-0.059,1
-0.207,0.864,0.419,0.172,1.175,0.356,-0.152,0.969,-0.078,1
-0.181,0.898,0.419,0.45,0.964,0.362,-0.141,0.965,-0.075,1
-0.132,0.91,0.417,0.246,0.664,0.179,-0.155,0.986,-0.047,1
-0.175,0.892,0.385,0.687,0.496,0.192,-0.139,0.985,-0.038,1
-0.164,0.883,0.391,0.69,0.455,0.131,-0.136,0.988,-0.073,1
-0.169,0.897,0.418,0.952,0.669,0.301,-0.127,0.995,-0.062,1
-0.173,0.89,0.459,0.675,0.858,0.497,-0.095,1.003,-0.04,1
-0.217,0.878,0.459,0.583,0.697,0.336,-0.08,0.966,-0.153,1
-0.219,0.868,0.431,0.653,0.36,0.193,-0.056,0.977,-0.166,1
-0.242,0.889,0.425,0.538,0.547,0.522,-0.014,0.981,-0.176,1
-0.25,0.901,0.394,0.434,0.675,0.508,0.008,0.968,-0.227,1
-0.229,0.876,0.314,0.565,0.823,0.507,0.021,0.989,-0.224,1
-0.336,0.901,0.271,0.473,0.793,0.522,0.023,0.981,-0.22,1
-0.42,0.872,0.161,0.603,0.701,0.469,0.042,0.979,-0.234,1
-0.338,0.952,0.233,0.581,0.759,0.541,0.048,0.974,-0.245,1
-0.291,0.912,0.408,0.518,0.824,0.484,0.049,0.976,-0.24,1
-0.271,1.027,0.352,0.505,0.775,0.381,0.046,0.972,-0.227,1
-0.24,0.991,0.389,0.532,0.761,0.424,0.042,0.982,-0.217,1
-0.275,0.946,0.34,0.526,0.716,0.437,0.025,0.975,-0.229,1
-0.265,0.898,0.256,0.585,0.674,0.422,-0.005,0.981,-0.198,1
-0.29,0.915,0.181,0.653,0.654,0.431,-0.026,0.984,-0.185,1
-0.295,0.95,0.169,0.597,0.653,0.43,-0.056,1.0,-0.133,1
-0.362,0.842,0.236,0.601,0.679,0.462,-0.1,0.999,-0.125,1
-0.252,1.044,0.353,0.618,0.646,0.523,-0.116,0.983,-0.132,1
-0.152,1.023,0.447,0.615,0.64,0.529,-0.137,0.984,-0.113,1
-0.081,0.879,0.496,0.573,0.679,0.466,-0.133,0.988,-0.063,1
-0.094,0.866,0.478,0.555,0.688,0.467,-0.145,0.975,-0.068,1
-0.171,0.887,0.375,0.54,0.683,0.545,-0.162,0.983,-0.093,1
-0.272,0.912,0.308,0.656,0.748,0.539,-0.144,0.98,-0.096,1
-0.294,0.884,0.294,0.466,0.684,0.394,-0.142,0.989,-0.083,1
-0.359,0.899,0.351,0.467,0.813,0.423,-0.127,0.994,-0.073,1
-0.441,0.884,0.417,0.373,0.798,0.435,-0.1,0.989,-0.113,1
-0.23,0.908,0.396,0.519,0.709,0.583,-0.093,1.003,-0.102,1
-0.047,0.911,0.416,0.553,0.635,0.479,-0.06,0.996,-0.16,1
-0.233,0.954,0.399,0.445,0.714,0.558,-0.041,1.001,-0.137,1
-0.176,0.977,0.415,0.453,0.709,0.591,0.008,0.976,-0.215,1
-0.151,0.891,0.39,0.468,0.686,0.565,0.018,0.97,-0.258,1
-0.2,0.911,0.326,0.463,0.7,0.555,0.063,0.961,-0.26,1
-0.247,0.942,0.264,0.416,0.734,0.536,0.037,0.987,-0.211,1
-0.3,0.936,0.224,0.406,0.743,0.538,0.136,0.964,-0.24,1
-0.31,0.947,0.169,0.39,0.729,0.55,0.054,0.982,-0.227,1
-0.369,0.91,0.16,0.407,0.763,0.528,0.041,0.988,-0.186,1
-0.43,0.903,0.196,0.408,0.804,0.575,0.063,0.995,-0.208,1
-0.409,0.94,0.28,0.425,0.754,0.477,0.03,0.978,-0.209,1
-0.392,0.939,0.352,0.458,0.718,0.455,0.021,0.975,-0.227,1
-0.342,0.941,0.335,0.5,0.684,0.439,0.007,0.963,-0.24,1
-0.317,0.921,0.259,0.558,0.661,0.438,-0.077,0.962,-0.152,1
-0.313,0.943,0.219,0.597,0.667,0.491,-0.079,0.992,-0.128,1
-0.296,0.953,0.219,0.593,0.687,0.458,-0.174,1.111,0.077,1
-0.233,0.9,0.255,0.609,0.746,0.492,-0.209,1.14,0.151,1
-0.251,0.942,0.303,0.561,0.729,0.512,-0.145,0.944,0.178,1
-0.108,0.933,0.514,0.599,0.707,0.477,-0.165,0.905,0.046,1
-0.208,0.771,0.591,0.587,0.665,0.462,-0.159,0.937,0.086,1
-0.265,0.829,0.526,0.616,0.637,0.455,-0.213,0.982,0.136,1
-0.491,0.843,0.309,0.611,0.642,0.437,-0.085,1.0,0.134,1
-0.344,0.846,0.37,0.541,0.694,0.454,-0.112,0.953,-0.033,1
-0.231,0.871,0.422,0.483,0.771,0.468,-0.174,0.983,0.16,1
-0.275,0.917,0.43,0.43,0.741,0.508,-0.037,0.988,-0.006,1
-0.206,0.962,0.41,0.506,0.708,0.508,-0.266,0.981,0.002,1
-0.151,0.958,0.361,0.482,0.714,0.465,0.051,1.048,-0.081,1
-0.144,0.866,0.299,0.48,0.736,0.529,0.11,1.005,-0.18,1
-0.227,0.853,0.26,0.432,0.761,0.615,0.088,0.985,-0.245,1
-0.26,0.919,0.233,0.462,0.709,0.543,0.063,0.992,-0.205,1
-0.382,1.052,0.179,0.43,0.729,0.585,0.023,0.989,-0.202,1
-0.456,1.055,0.138,0.423,0.675,0.449,0.065,0.975,-0.236,1
-0.527,0.937,0.123,0.458,0.708,0.57,0.036,0.973,-0.247,1
-0.513,0.921,0.179,0.415,0.771,0.516,0.035,0.987,-0.228,1
-0.468,0.97,0.208,0.402,0.811,0.485,0.085,0.991,-0.237,1
-0.356,1.003,0.231,0.341,0.784,0.48,0.003,0.959,-0.265,1
-0.287,1.017,0.196,0.373,0.757,0.479,-0.034,0.974,-0.207,1
-0.252,0.912,0.177,0.363,0.796,0.509,-0.014,0.986,-0.171,1
-0.23,0.965,0.211,0.389,0.746,0.501,-0.185,1.001,-0.126,1
-0.063,0.952,0.404,0.43,0.753,0.526,-0.197,1.039,-0.051,1
-0.027,0.901,0.604,0.399,0.788,0.519,-0.261,1.014,-0.035,1
-0.098,0.876,0.531,0.415,0.759,0.517,-0.198,0.934,-0.033,1
-0.167,0.888,0.391,0.502,0.701,0.516,-0.193,0.916,-0.029,1
-0.216,0.884,0.353,0.538,0.697,0.483,-0.063,1.063,0.165,1
-0.237,0.87,0.455,0.532,0.729,0.445,-0.171,1.029,0.146,1
-0.206,0.902,0.467,0.535,0.733,0.418,0.028,0.914,0.166,1
-0.225,0.878,0.454,0.571,0.732,0.422,-0.045,0.686,0.141,1
-0.206,0.921,0.456,0.564,0.721,0.385,-0.11,0.906,0.105,1
-0.203,0.885,0.448,0.617,0.76,0.426,-0.063,0.954,0.173,1
-0.238,0.865,0.357,0.534,0.711,0.417,-0.497,1.179,0.248,1
-0.318,0.912,0.294,0.566,0.719,0.414,-0.138,1.017,-0.08,1
-0.344,0.881,0.261,0.625,0.694,0.383,-0.087,0.983,-0.217,1
-0.524,0.882,0.138,0.615,0.666,0.356,0.022,0.938,-0.284,1
-0.438,0.993,0.208,0.616,0.719,0.483,0.052,0.979,-0.23,1
-0.386,0.974,0.269,0.571,0.702,0.467,0.013,0.994,-0.209,1
-0.233,0.952,0.329,0.596,0.701,0.38,0.063,0.952,-0.26,1
-0.231,0.902,0.346,0.625,0.677,0.411,0.046,0.993,-0.21,1
-0.272,0.929,0.289,0.589,0.659,0.463,0.044,0.974,-0.254,1
-0.396,0.883,0.281,0.549,0.743,0.45,0.06,0.963,-0.257,1
-0.325,0.911,0.316,0.59,0.736,0.438,0.096,0.957,-0.278,1
-0.286,0.908,0.337,0.57,0.684,0.409,0.063,0.962,-0.277,1
-0.246,0.836,0.361,0.536,0.709,0.427,0.094,0.986,-0.207,1
-0.24,0.857,0.437,0.448,0.807,0.365,0.063,0.963,-0.244,1
-0.31,0.835,0.474,0.35,0.937,0.458,0.022,0.982,-0.225,1
-0.317,0.83,0.485,0.476,1.005,0.497,0.056,0.972,-0.219,1
-0.284,0.865,0.428,0.342,0.944,0.512,0.047,0.979,-0.242,1
-0.266,0.893,0.379,0.357,0.796,0.625,-0.07,0.994,-0.173,1
-0.25,0.833,0.391,0.42,0.497,0.617,-0.078,1.012,-0.078,1
-0.273,0.85,0.453,0.649,0.514,0.394,-0.12,1.056,-0.026,1
-0.267,0.899,0.472,0.787,0.393,0.322,-0.121,1.006,-0.026,1
-0.287,0.89,0.432,0.622,0.404,0.272,-0.089,0.919,0.01,1
-0.272,0.949,0.436,0.652,0.416,0.299,-0.189,0.967,0.095,1
-0.267,0.88,0.372,0.446,0.45,0.363,-0.156,0.986,0.138,1
-0.27,0.864,0.303,0.365,0.801,0.376,-0.109,0.979,0.13,1
-0.294,0.854,0.257,0.305,1.397,0.705,-0.121,0.967,0.108,1
-0.373,0.903,0.231,-0.161,1.105,0.41,-0.103,0.996,0.085,1
-0.412,0.949,0.25,-0.09,0.811,0.391,-0.163,0.912,0.14,1
-0.408,0.899,0.276,0.155,0.91,0.407,-0.208,1.026,0.136,1
-0.389,0.927,0.287,0.21,0.971,0.387,0.155,1.0,0.175,1
-0.332,0.92,0.271,0.239,0.999,0.373,-0.167,0.986,0.039,1
-0.305,0.917,0.25,0.313,0.958,0.307,-0.062,0.982,-0.008,1
-0.306,0.94,0.249,0.38,0.91,0.276,0.011,1.0,-0.089,1
-0.308,0.915,0.262,0.38,0.9,0.28,0.112,0.966,-0.199,1
-0.321,0.931,0.262,0.302,0.931,0.302,0.138,1.02,-0.324,1
-0.316,0.976,0.251,0.13,0.474,0.161,0.083,0.993,-0.187,1
-0.317,0.879,0.253,0.202,0.936,0.338,-0.029,0.995,-0.2,1
-0.25,0.948,0.294,0.156,0.929,0.345,0.03,1.003,-0.194,1
-0.243,0.914,0.386,0.183,0.917,0.339,0.022,0.977,-0.227,1
-0.178,0.848,0.504,0.222,0.936,0.336,0.03,0.972,-0.257,1
-0.238,0.841,0.479,0.259,0.933,0.324,0.035,0.979,-0.233,1
-0.278,0.869,0.442,0.319,0.902,0.335,0.044,0.984,-0.231,1
-0.272,0.864,0.398,0.289,0.916,0.354,0.002,0.968,-0.245,1
-0.254,0.856,0.397,0.278,0.936,0.357,0.012,0.965,-0.252,1
-0.186,0.916,0.406,0.242,0.921,0.356,-0.043,0.99,-0.187,1
-0.134,0.899,0.405,0.098,0.46,0.18,-0.069,0.976,-0.142,1
-0.211,0.896,0.399,0.152,0.923,0.362,-0.114,0.992,-0.133,1
-0.257,0.797,0.374,0.14,0.9,0.354,-0.081,0.998,-0.072,1
-0.606,0.894,0.267,0.173,0.886,0.345,-0.094,1.042,0.081,1
-0.534,0.916,0.277,0.206,0.925,0.349,-0.077,1.081,0.13,1
-0.413,0.919,0.268,0.226,0.913,0.364,-0.096,0.925,0.125,1
-0.304,0.993,0.297,0.213,0.909,0.397,-0.042,0.942,-0.032,1
-0.34,0.926,0.269,0.17,0.932,0.411,-0.263,0.923,0.077,1
-0.325,0.891,0.279,0.15,0.927,0.388,-0.051,0.956,0.359,1
-0.346,0.871,0.242,0.156,0.905,0.358,0.035,0.959,0.205,1
-0.325,0.893,0.223,0.168,0.902,0.351,-0.295,1.032,-0.005,1
-0.415,0.91,0.171,0.188,0.907,0.36,0.106,1.007,0.114,1
-0.388,0.902,0.262,0.207,0.915,0.369,-0.025,1.028,0.016,1
-0.384,0.893,0.305,0.221,0.921,0.383,-0.037,0.985,-0.093,1
-0.319,0.915,0.369,0.229,0.918,0.357,-0.043,0.985,-0.114,1
-0.242,0.919,0.44,0.233,0.924,0.339,0.023,1.018,-0.084,1
-0.185,0.869,0.471,0.231,0.93,0.33,0.011,0.986,-0.197,1
-0.158,0.833,0.436,0.223,0.912,0.323,0.035,0.982,-0.239,1
-0.212,0.875,0.416,0.221,0.915,0.323,0.048,0.994,-0.221,1
-0.237,0.874,0.391,0.237,0.937,0.323,0.053,0.984,-0.243,1
-0.252,0.872,0.391,0.253,0.908,0.326,0.079,0.969,-0.229,1
-0.235,0.914,0.397,0.248,0.928,0.333,0.061,0.951,-0.315,1
-0.233,0.882,0.382,0.271,0.922,0.335,0.068,0.973,-0.255,1
-0.273,0.887,0.383,0.255,0.917,0.336,0.076,0.969,-0.234,1
-0.284,0.895,0.369,0.252,0.922,0.339,0.096,1.027,-0.045,1
-0.306,0.907,0.333,0.244,0.923,0.336,-0.002,1.003,-0.166,1
-0.326,0.917,0.296,0.225,0.921,0.331,-0.125,1.037,-0.221,1
-0.354,0.886,0.256,0.21,0.927,0.339,-0.146,1.011,-0.088,1
-0.371,0.885,0.237,0.196,0.927,0.347,-0.068,1.0,-0.124,1
-0.358,0.961,0.248,0.191,0.901,0.351,-0.227,0.95,-0.001,1
-0.338,0.968,0.253,0.191,0.923,0.362,-0.075,0.943,-0.131,1
-0.307,0.938,0.257,0.172,0.919,0.374,-0.298,0.961,0.177,1
-0.233,0.963,0.277,0.159,0.914,0.375,-0.055,0.954,0.073,1
-0.32,0.934,0.274,0.137,0.909,0.379,0.125,0.957,0.08,1
-0.324,0.883,0.269,0.143,0.92,0.378,-0.102,0.968,-0.059,1
-0.318,0.917,0.294,0.146,0.91,0.359,-0.391,0.948,0.23,1
-0.285,0.896,0.359,0.157,0.913,0.354,0.012,1.004,0.009,1
-0.237,0.892,0.394,0.17,0.912,0.366,-0.148,0.99,0.018,1
-0.256,0.917,0.449,0.172,0.917,0.383,-0.194,1.047,-0.096,1
-0.167,0.875,0.38,0.178,0.919,0.389,-0.058,0.997,-0.091,1
-0.176,0.886,0.372,0.194,0.911,0.362,-0.09,0.969,-0.223,1
-0.171,0.835,0.383,0.209,0.914,0.36,0.022,0.941,-0.345,1
-0.25,0.898,0.404,0.227,0.916,0.353,0.062,0.999,-0.21,1
-0.197,0.841,0.416,0.218,0.923,0.358,0.041,0.98,-0.23,1
-0.256,0.88,0.392,0.223,0.909,0.353,0.079,0.963,-0.279,1
-0.266,0.88,0.434,0.227,0.894,0.326,0.116,0.98,-0.242,1
-0.27,0.961,0.431,0.241,0.921,0.334,0.082,0.976,-0.223,1
-0.244,0.932,0.387,0.247,0.942,0.336,0.08,0.964,-0.258,1
-0.26,0.897,0.319,0.249,0.92,0.335,0.046,0.98,-0.21,1
-0.27,0.932,0.237,0.253,0.917,0.352,0.071,0.971,-0.223,1
-0.333,0.862,0.191,0.264,0.931,0.361,0.042,0.965,-0.229,1
-0.293,0.926,0.184,0.26,0.934,0.347,0.066,0.988,-0.199,1
-0.335,0.941,0.192,0.262,0.896,0.32,0.111,0.985,-0.209,1
-0.354,0.941,0.252,0.259,0.904,0.353,0.067,0.96,-0.224,1
-0.32,0.961,0.305,0.318,0.93,0.353,-0.005,0.976,-0.223,1
-0.326,0.955,0.3,0.257,0.867,0.348,0.008,0.993,-0.186,1
-0.283,0.948,0.289,0.239,0.873,0.342,-0.029,1.066,-0.08,1
-0.291,0.903,0.251,0.34,0.94,0.362,-0.039,1.104,0.083,1
-0.298,0.912,0.236,0.513,0.847,0.341,-0.083,1.009,-0.209,1
-0.282,0.923,0.228,0.654,0.867,0.34,0.033,0.952,-0.187,1
-0.305,0.921,0.214,0.839,0.905,0.366,-0.23,0.982,0.083,1
-0.307,0.919,0.227,0.602,0.686,0.385,-0.004,1.021,0.12,1
-0.312,0.963,0.256,0.469,0.439,0.326,0.04,0.954,0.064,1
-0.322,0.94,0.277,0.563,0.531,0.3,-0.084,0.975,0.032,1
-0.315,0.964,0.287,0.947,0.457,0.212,-0.203,0.989,-0.069,1
-0.296,0.925,0.262,0.869,0.441,0.201,-0.069,1.008,0.037,1
-0.275,0.906,0.267,0.921,0.436,0.221,-0.041,0.976,-0.013,1
-0.267,0.93,0.274,0.959,0.444,0.214,-0.12,0.964,-0.244,1
-0.279,0.947,0.377,0.844,0.463,0.204,0.048,1.071,-0.265,1
-0.338,0.949,0.412,0.906,0.47,0.168,0.042,0.967,-0.264,1
-0.451,0.869,0.324,0.893,0.471,0.158,-0.034,0.976,-0.293,1
-0.638,0.795,0.263,0.897,0.466,0.124,-0.014,0.982,-0.212,1
-0.832,0.741,0.185,0.825,0.462,0.106,0.008,0.969,-0.232,1
-0.838,0.545,0.099,0.839,0.472,0.108,-0.014,0.953,-0.29,1
-0.948,0.378,0.038,0.835,0.458,0.09,-0.059,0.988,-0.185,1
-0.836,0.11,0.049,0.942,0.47,0.094,-0.112,0.985,-0.201,1
-0.837,0.004,-0.0,0.89,0.447,0.054,-0.289,1.392,0.139,1
-0.847,-0.04,-0.018,0.826,0.492,0.09,-0.134,0.971,-0.171,1
-1.053,-0.125,-0.029,0.853,0.455,0.044,0.097,0.983,0.207,1
-0.941,-0.171,-0.025,0.862,0.4,-0.017,-0.138,0.982,-0.093,1
-0.934,-0.194,-0.043,0.935,0.431,-0.09,-0.175,0.959,-0.216,1
-0.974,-0.247,-0.102,0.984,0.493,0.044,-0.28,0.979,-0.115,1
-0.982,-0.264,-0.123,0.781,0.53,0.138,-0.16,0.995,-0.011,1
-0.952,-0.26,-0.105,0.824,0.542,0.229,-0.157,1.055,0.146,1
-0.97,-0.222,-0.086,0.842,0.553,0.243,-0.119,1.004,0.083,1
-0.51,0.964,0.117,0.599,0.805,0.283,-0.0,1.003,-0.104,2
-0.449,0.89,0.207,0.608,0.791,0.239,-0.044,1.051,-0.101,2
-0.448,0.943,0.206,0.612,0.808,0.241,-0.215,1.021,-0.057,2
-0.577,0.977,0.172,0.555,0.83,0.291,0.031,1.024,0.023,2
-0.773,0.986,0.104,0.579,0.843,0.269,0.093,0.995,0.013,2
-0.705,0.723,0.213,0.681,0.857,0.267,-0.206,1.063,-0.408,2
-0.668,0.342,0.192,0.904,0.865,0.403,0.284,1.105,-0.172,2
-0.754,0.051,0.438,0.978,0.363,0.698,0.269,1.027,0.103,2
-0.642,-0.12,0.729,0.641,0.077,0.755,0.239,1.0,-0.088,2
-0.471,-0.188,0.748,0.264,0.064,0.741,0.161,1.006,-0.096,2
-0.504,-0.033,0.766,0.206,0.525,0.98,0.033,0.98,-0.19,2
-0.446,-0.175,0.642,-0.01,0.804,1.589,0.036,0.99,-0.217,2
-0.812,0.342,0.646,-0.007,-0.232,0.886,0.011,0.973,-0.204,2
-0.735,0.298,0.983,0.196,-0.219,0.465,0.059,0.987,-0.178,2
-0.533,-0.19,1.002,0.064,-0.017,0.791,0.077,0.977,-0.143,2
-0.353,-0.292,0.684,-0.038,-0.348,1.105,0.03,1.021,-0.122,2
-0.514,-0.431,0.299,0.334,-0.542,0.628,-0.131,1.048,0.084,2
-1.216,-0.139,0.161,0.325,-0.362,0.366,-0.166,1.138,0.194,2
-1.124,0.089,0.579,0.902,0.476,0.94,-0.081,0.895,-0.281,2
-1.002,0.244,0.65,0.208,0.139,1.258,0.338,0.842,-0.165,2
-0.901,0.374,0.743,0.219,-0.042,1.099,-0.125,0.992,0.532,2
-0.66,0.324,0.762,0.382,-0.318,0.826,-0.027,1.026,0.419,2
-0.283,0.275,0.687,0.1,-0.077,0.638,-0.18,0.835,-0.23,2
-0.184,0.475,0.651,0.098,0.042,0.311,0.038,1.013,0.203,2
-0.311,0.809,0.994,0.816,0.446,0.726,-0.008,0.985,0.177,2
-0.528,0.676,0.92,1.338,0.97,1.176,-0.007,0.986,0.059,2
-0.846,0.371,0.749,0.717,0.31,1.294,-0.084,0.96,-0.039,2
-1.064,0.135,0.559,0.882,0.408,1.126,0.015,1.039,-0.04,2
-0.955,-0.032,0.404,0.56,0.039,0.569,-0.026,0.985,-0.079,2
-0.857,-0.291,0.524,0.684,-0.036,0.655,-0.054,0.973,-0.206,2
-0.789,-0.347,0.612,1.155,0.083,0.943,-0.016,1.008,-0.242,2
-0.473,-0.376,0.577,0.913,-0.082,0.911,0.043,0.99,-0.186,2
-0.244,-0.396,0.484,0.334,-0.293,0.354,-0.061,0.954,-0.221,2
-1.123,0.202,0.688,0.458,0.419,0.957,0.015,0.985,-0.184,2
-0.75,-0.41,0.979,0.157,0.491,1.205,-0.007,0.987,-0.174,2
-0.274,-0.6,0.825,0.26,-0.539,1.027,-0.013,0.983,-0.192,2
-0.342,-0.462,0.39,0.088,-0.749,0.681,-0.019,0.992,-0.166,2
-0.76,-0.226,0.354,0.108,-0.67,0.292,-0.05,0.997,-0.156,2
-0.909,-0.015,0.821,0.426,-0.003,0.739,0.03,0.987,-0.166,2
-0.813,-0.021,0.776,0.116,0.198,1.364,0.096,0.993,-0.079,2
-0.694,0.059,0.803,0.246,0.07,0.965,0.233,1.047,0.026,2
-0.624,0.114,0.864,0.195,-0.105,0.793,0.053,0.999,-0.109,2
-0.6,0.089,0.886,0.413,-0.022,0.855,-0.05,0.98,-0.174,2
-0.469,0.1,0.786,0.877,0.043,0.507,0.059,1.056,0.19,2
-0.391,0.276,0.928,0.727,0.062,0.468,0.014,1.033,0.18,2
-0.057,0.438,0.57,0.531,0.659,1.012,0.005,0.367,-0.308,2
-0.495,0.601,1.204,0.634,0.765,1.02,-0.231,1.052,-0.083,2
-0.705,0.455,1.007,0.787,0.424,0.986,-0.224,1.051,0.354,2
-0.907,0.285,0.807,0.7,0.454,0.814,0.111,1.031,-0.009,2
-0.954,0.117,0.65,0.976,0.466,0.687,-0.038,1.047,-0.214,2
-0.894,-0.143,0.442,0.928,0.494,0.674,-0.225,0.806,-0.269,2
-0.744,-0.367,0.436,0.834,0.357,0.637,0.047,0.987,-0.131,2
-0.524,-0.478,0.587,0.649,0.223,0.747,0.023,1.008,-0.161,2
-0.39,-0.392,0.603,0.445,0.208,0.394,0.07,1.081,0.051,2
-0.422,-0.223,0.655,0.337,0.585,0.712,0.047,0.985,-0.282,2
-0.741,0.197,0.782,0.086,0.403,1.045,-0.076,1.01,-0.146,2
-0.587,-0.363,1.191,0.563,-0.2,0.99,0.006,0.95,-0.213,2
-0.397,-0.338,0.829,0.401,-0.391,0.635,-0.061,0.96,-0.204,2
-0.456,-0.308,0.302,0.518,0.097,0.616,0.02,0.983,-0.12,2
-0.888,-0.169,0.19,0.718,0.403,0.784,0.079,0.983,-0.129,2
-0.75,0.039,0.798,0.472,-0.076,1.12,0.089,0.997,-0.105,2
-0.687,0.174,1.083,0.586,-0.184,0.713,0.017,0.989,-0.131,2
-0.582,0.192,1.042,0.402,-0.067,0.477,0.099,0.995,-0.139,2
-0.596,0.135,0.892,0.847,0.645,0.92,0.126,0.987,-0.121,2
-0.543,0.038,0.679,0.65,0.738,0.87,-0.077,0.985,-0.117,2
-0.413,0.124,0.589,0.581,0.348,0.828,-0.031,1.001,-0.136,2
-0.436,0.488,0.822,0.719,0.243,0.662,-0.026,1.028,-0.07,2
-0.142,0.776,0.993,0.824,0.113,0.463,0.022,1.174,0.198,2
-0.403,0.608,1.083,0.628,0.127,0.231,-0.215,0.943,0.212,2
-0.625,0.463,0.869,0.577,0.171,0.413,-0.033,0.864,-0.265,2
-0.762,0.264,0.751,0.989,0.586,0.616,-0.228,0.898,0.029,2
-0.675,0.199,0.587,1.013,0.707,0.372,-0.057,1.09,0.082,2
-0.735,0.013,0.465,1.047,0.528,0.613,0.209,1.011,0.12,2
-0.717,-0.063,0.549,0.99,0.419,0.601,-0.229,1.008,-0.177,2
-0.573,-0.104,0.583,0.971,0.463,0.516,0.11,1.013,-0.169,2
-0.738,0.127,0.459,1.022,0.41,0.515,0.006,1.048,-0.015,2
-0.726,0.483,0.951,1.14,0.446,0.636,0.004,0.972,-0.207,2
-0.535,0.099,1.29,1.001,0.263,0.568,-0.087,0.953,-0.263,2
-0.501,0.021,0.679,0.535,0.067,0.488,-0.021,0.996,-0.139,2
-0.768,0.157,0.496,0.202,0.059,0.393,0.067,0.983,-0.145,2
-0.861,0.306,0.499,0.342,0.44,0.873,0.057,1.002,-0.114,2
-0.722,0.45,0.716,0.326,0.024,1.258,0.019,0.975,-0.162,2
-0.589,0.507,0.857,0.32,-0.596,1.034,0.106,0.99,-0.181,2
-0.6,0.463,0.912,0.129,-0.514,0.539,0.116,1.002,-0.104,2
-0.576,0.339,0.831,0.238,-0.061,0.718,-0.024,0.958,-0.303,2
-0.407,0.108,0.652,0.409,0.063,1.145,0.02,0.954,-0.336,2
-0.396,0.328,0.605,0.343,-0.605,1.049,0.071,1.01,-0.133,2
0.328,0.769,0.715,0.302,-0.589,0.522,-0.001,0.982,-0.214,2
-0.144,0.564,1.318,0.213,-0.255,0.523,0.02,0.954,-0.237,2
-0.422,0.471,1.021,0.458,0.297,0.801,0.078,0.966,-0.253,2
-0.612,0.382,0.748,0.058,0.236,1.083,0.082,0.952,-0.25,2
-0.749,0.167,0.606,0.023,0.041,0.959,0.049,0.969,-0.229,2
-0.766,-0.041,0.604,0.573,0.027,0.731,0.077,0.989,-0.226,2
-0.469,-0.168,0.758,0.888,0.184,0.48,0.052,0.986,-0.238,2
-0.624,-0.028,0.865,0.826,0.338,0.483,0.07,0.959,-0.228,2
-0.653,-0.205,0.496,0.718,0.993,1.088,0.065,0.995,-0.165,2
-0.626,0.16,0.682,0.62,0.776,0.971,-0.019,0.987,-0.176,2
-0.465,-0.03,1.235,0.701,0.465,1.034,-0.014,0.993,-0.17,2
-0.407,-0.045,0.941,0.84,0.443,0.892,-0.032,0.984,-0.16,2
-0.568,-0.084,0.566,0.873,0.41,0.891,-0.054,1.002,-0.101,2
-0.806,0.062,0.48,0.885,0.418,0.771,-0.017,1.003,-0.117,2
-0.693,0.191,0.75,0.851,0.284,0.666,0.064,1.0,-0.045,2
-0.578,0.312,0.951,0.658,0.226,0.723,0.025,0.993,0.01,2
-0.544,0.302,0.952,0.502,0.013,0.609,-0.058,0.998,-0.014,2
-0.585,0.288,0.992,0.32,0.117,0.543,-0.011,0.998,-0.063,2
-0.529,0.237,0.871,0.385,0.404,0.922,-0.023,1.011,-0.012,2
-0.364,0.074,0.529,0.155,0.1,1.598,-0.048,1.009,-0.007,2
-0.453,0.168,0.747,0.299,-0.519,0.987,-0.055,1.037,0.039,2
0.181,0.407,0.512,0.145,-0.528,0.381,-0.104,1.031,0.122,2
-0.319,0.695,1.252,0.207,0.162,0.872,-0.007,0.988,0.018,2
-0.449,0.679,0.872,0.146,0.467,1.127,-0.114,0.876,-0.257,2
-0.712,0.488,0.681,0.422,0.084,0.867,-0.061,1.177,0.019,2
-0.889,0.26,0.554,0.615,-0.016,1.0,-0.169,1.008,-0.01,2
-0.894,0.173,0.53,0.993,0.0,0.867,0.049,1.047,-0.043,2
-0.721,0.013,0.643,0.707,-0.103,0.441,-0.118,0.965,-0.182,2
-0.653,-0.11,0.715,0.514,-0.183,0.369,-0.003,1.013,-0.126,2
-0.474,-0.158,0.631,0.831,0.135,0.998,0.0,0.997,-0.218,2
-0.786,0.107,0.486,1.14,0.59,1.235,-0.043,0.95,-0.288,2
-0.717,0.234,0.9,0.96,-0.045,0.963,0.056,0.984,-0.217,2
-0.574,0.0,1.023,0.806,0.039,1.019,0.019,0.991,-0.171,2
-0.596,-0.061,0.892,0.717,0.238,0.912,0.087,0.965,-0.233,2
-0.529,-0.143,0.641,0.522,0.28,0.962,0.075,0.961,-0.214,2
-0.745,-0.02,0.56,0.745,0.011,0.269,0.119,0.973,-0.187,2
-0.739,0.09,0.569,0.581,0.031,0.365,0.054,0.988,-0.165,2
-0.751,0.183,0.745,0.852,0.034,0.615,0.088,0.981,-0.219,2
-0.666,0.304,0.976,0.457,-0.34,0.884,0.098,0.978,-0.201,2
-0.488,0.252,1.085,-0.015,-0.631,0.817,0.103,0.987,-0.202,2
-0.484,0.277,0.843,-0.264,0.116,0.825,0.016,0.975,-0.238,2
-0.346,0.186,0.653,-0.45,0.586,1.291,-0.039,0.962,-0.222,2
-0.622,0.436,0.861,-0.237,-0.468,0.927,-0.013,0.984,-0.193,2
-0.085,0.662,1.074,0.107,-0.659,0.042,-0.054,0.974,-0.185,2
-0.233,0.418,1.302,0.146,0.499,1.427,-0.003,0.989,-0.208,2
-0.546,0.303,0.875,-0.247,0.778,1.441,-0.221,0.958,-0.252,2
-0.624,0.146,0.694,0.221,0.237,0.965,-0.097,0.972,-0.223,2
-0.641,-0.049,0.74,0.434,-0.012,0.779,-0.04,0.999,-0.119,2
-0.65,-0.37,0.715,0.499,-0.096,0.583,-0.117,1.009,-0.063,2
-0.563,-0.396,0.616,0.852,-0.103,0.413,-0.083,0.993,-0.081,2
-0.68,-0.282,0.444,0.512,0.244,0.87,-0.125,0.983,-0.025,2
-0.76,-0.154,0.536,0.599,0.441,1.196,-0.1,0.97,-0.064,2
-0.162,-0.087,1.261,0.713,0.399,1.347,-0.01,1.01,0.021,2
-0.613,-0.433,0.918,0.798,0.17,1.203,-0.048,1.032,0.099,2
-0.577,-0.35,0.522,0.787,0.246,1.202,-0.025,0.992,0.016,2
-0.604,-0.236,0.433,0.662,0.25,0.962,-0.038,0.999,-0.02,2
-0.654,-0.084,0.552,0.334,0.124,0.533,-0.084,1.002,-0.036,2
-0.54,0.062,0.965,0.126,0.175,0.485,0.038,0.994,-0.033,2
-0.446,0.062,1.039,0.277,0.342,0.93,-0.064,1.0,-0.053,2
-0.532,0.144,1.046,0.381,-0.192,1.393,-0.056,0.999,-0.081,2
-0.833,0.238,1.095,0.203,-0.316,1.009,0.006,0.98,-0.144,2
-0.396,-0.047,0.733,0.079,-0.244,0.54,-0.052,0.995,-0.137,2
-0.202,0.188,0.647,0.126,0.173,1.096,-0.079,1.003,-0.099,2
0.122,0.617,1.096,-0.033,0.535,1.454,-0.07,0.997,-0.16,2
-0.323,0.539,1.349,0.027,0.181,1.029,-0.146,1.006,-0.175,2
-0.67,0.342,0.982,0.221,0.094,0.884,-0.087,0.972,-0.204,2
-0.919,0.133,0.612,0.609,0.057,0.874,-0.022,0.993,-0.16,2
-0.791,-0.174,0.536,0.608,-0.014,0.684,-0.101,0.98,-0.118,2
-0.66,-0.291,0.636,0.415,0.043,0.523,-0.042,0.976,-0.185,2
-0.517,-0.451,0.658,0.312,0.475,1.199,-0.022,0.979,-0.179,2
-0.346,-0.464,0.488,0.349,0.737,1.36,-0.054,1.025,-0.104,2
-0.758,-0.125,0.383,0.382,0.546,1.215,-0.083,1.005,-0.149,2
-0.808,-0.103,1.048,0.403,0.563,1.14,-0.034,0.983,-0.244,2
-0.472,-0.481,1.291,0.331,0.385,0.989,0.037,0.967,-0.162,2
-0.421,-0.263,0.845,0.384,0.278,0.881,0.105,1.022,-0.024,2
-0.463,-0.328,0.427,0.593,0.189,0.98,-0.014,1.002,-0.095,2
-0.753,-0.131,0.341,-0.045,0.255,0.509,-0.057,0.973,-0.138,2
-0.706,-0.074,0.716,0.454,0.668,0.968,0.06,0.985,-0.113,2
-0.667,0.106,0.975,-0.022,0.665,1.007,-0.028,1.019,-0.059,2
-0.697,0.208,0.977,0.17,0.004,1.115,-0.043,0.986,-0.12,2
-0.625,0.21,0.876,0.134,-0.236,0.487,-0.036,0.984,-0.142,2
-0.31,0.176,0.86,0.301,0.265,0.759,-0.052,0.98,-0.169,2
-0.491,0.265,0.705,0.5,0.81,0.969,-0.03,0.956,-0.096,2
-0.226,0.461,0.776,-0.174,0.604,1.293,-0.034,0.975,-0.1,2
-0.164,0.855,1.164,-0.028,0.459,0.974,-0.123,0.996,-0.161,2
-0.413,0.851,0.839,0.546,0.252,0.771,-0.109,0.97,-0.225,2
-0.805,0.583,0.61,0.848,0.199,0.658,-0.014,0.973,-0.203,2
-1.119,0.495,0.388,0.881,0.216,0.654,-0.051,0.992,-0.146,2
-0.991,0.224,0.247,0.555,0.259,0.792,-0.013,1.009,-0.12,2
-0.903,0.133,0.32,0.515,0.333,0.826,-0.045,0.969,-0.214,2
-0.646,0.027,0.831,0.473,0.545,1.13,-0.061,0.976,-0.21,2
-0.501,0.02,0.813,0.35,0.471,1.086,-0.05,0.99,-0.169,2
-0.781,0.093,0.208,0.483,0.319,1.079,-0.033,0.989,-0.159,2
-0.721,0.349,0.716,0.566,0.309,0.955,0.027,0.988,-0.131,2
-0.451,-0.023,1.19,0.65,0.454,1.144,0.004,0.998,-0.124,2
-0.652,0.086,0.613,0.741,0.451,1.032,-0.0,0.988,-0.152,2
-0.794,0.103,0.294,0.555,0.425,0.976,0.015,0.984,-0.129,2
-0.957,0.337,0.338,0.2,0.055,0.464,-0.009,0.988,-0.143,2
-0.881,0.478,0.67,0.101,0.179,0.712,-0.014,0.978,-0.168,2
-0.775,0.567,0.781,-0.024,0.419,0.978,0.001,0.977,-0.186,2
-0.812,0.48,0.644,0.059,-0.227,1.214,-0.048,1.0,-0.157,2
-0.621,0.278,0.652,0.069,-0.405,0.67,-0.02,1.0,-0.131,2
-0.45,0.192,0.449,0.197,-0.035,0.692,-0.041,0.986,-0.162,2
-0.306,0.447,0.565,0.273,0.374,0.973,-0.086,0.981,-0.179,2
-0.087,0.825,1.336,0.064,0.233,1.169,-0.125,0.994,-0.21,2
-0.404,0.517,1.086,0.144,0.135,0.958,-0.208,0.981,-0.219,2
-0.628,0.458,0.778,0.416,0.167,0.825,-0.112,0.972,-0.172,2
-1.125,0.316,0.541,0.474,0.159,0.537,-0.132,0.991,-0.112,2
-0.923,-0.009,0.563,0.54,0.013,0.6,-0.067,0.981,-0.164,2
-0.628,-0.2,0.591,0.685,0.673,1.106,-0.074,0.979,-0.172,2
-0.415,-0.333,0.569,0.628,0.592,1.101,-0.055,0.994,-0.151,2
-0.567,-0.11,0.63,0.642,0.259,1.137,-0.058,1.003,-0.115,2
-0.448,0.004,0.771,0.735,0.359,1.092,-0.097,1.003,-0.11,2
-0.677,-0.241,1.019,1.002,0.243,0.854,-0.061,0.984,-0.144,2
-0.528,-0.229,0.771,0.875,0.114,0.692,0.085,0.992,-0.096,2
-0.562,-0.203,0.501,0.808,0.165,0.695,0.027,0.994,-0.088,2
-0.664,-0.144,0.416,0.629,0.186,0.674,-0.102,0.978,-0.178,2
-0.714,0.018,0.786,0.315,0.265,0.677,0.022,0.979,-0.166,2
-0.725,0.161,0.941,0.159,0.432,0.831,0.001,0.998,-0.106,2
-0.733,0.221,0.889,0.028,0.008,1.255,0.0,0.989,-0.15,2
-0.696,0.185,0.689,0.28,-0.361,0.772,0.008,0.987,-0.164,2
-0.407,0.112,0.643,0.148,-0.083,0.779,-0.042,0.995,-0.162,2
-0.076,0.477,0.835,0.112,0.443,0.895,-0.067,1.0,-0.142,2
0.005,0.722,1.399,0.064,0.471,1.182,-0.108,0.977,-0.186,2
-0.519,0.521,1.032,0.359,0.321,1.071,-0.147,0.979,-0.238,2
-0.707,0.35,0.71,0.837,0.257,0.915,-0.099,0.967,-0.238,2
-0.749,0.074,0.526,0.8,0.18,0.524,-0.093,0.976,-0.199,2
-0.71,-0.108,0.556,0.557,0.066,0.343,-0.084,0.995,-0.157,2
-0.75,-0.283,0.797,0.695,0.357,0.721,-0.062,0.992,-0.168,2
-0.467,-0.357,0.632,0.199,0.714,1.064,-0.06,0.997,-0.162,2
-0.701,-0.099,0.576,0.429,0.24,1.383,-0.078,0.972,-0.147,2
-0.85,0.069,0.694,0.52,0.322,1.104,-0.048,1.016,-0.129,2
-0.664,-0.373,0.959,0.611,0.253,0.973,-0.138,0.973,-0.182,2
-0.43,-0.304,0.615,0.739,0.228,0.872,0.082,0.974,-0.161,2
-0.729,-0.176,0.415,0.822,0.312,0.804,0.04,0.994,-0.084,2
-0.902,0.013,0.485,0.768,0.374,0.761,0.037,1.015,-0.037,2
-0.825,0.139,0.682,0.517,0.351,0.628,-0.006,1.002,-0.073,2
-0.645,0.269,0.895,0.266,0.304,0.633,0.038,0.973,-0.129,2
-0.651,0.278,0.949,0.128,0.587,1.256,0.035,1.001,-0.096,2
-0.593,0.21,0.853,0.136,0.178,1.145,-0.049,1.002,-0.116,2
-0.287,0.12,0.703,0.313,-0.389,0.44,-0.057,0.979,-0.173,2
-0.234,0.309,0.838,0.301,0.276,1.038,-0.007,1.001,-0.113,2
0.268,0.784,0.842,0.321,0.604,0.772,-0.039,1.006,-0.109,2
-0.414,0.813,1.205,0.367,0.425,1.077,-0.062,1.006,-0.146,2
-0.606,0.61,0.962,0.512,0.333,0.986,-0.176,0.997,-0.173,2
-0.943,0.312,0.662,0.872,0.346,0.939,-0.064,0.966,-0.172,2
-0.839,0.062,0.523,0.91,0.272,0.806,-0.083,1.01,-0.102,2
-0.662,-0.15,0.483,0.696,0.098,0.493,-0.082,0.989,-0.072,2
-0.463,-0.401,0.543,0.383,-0.111,0.271,-0.041,1.004,-0.124,2
-0.328,-0.479,0.483,0.262,0.253,0.917,-0.087,0.996,-0.164,2
-0.78,-0.05,0.516,1.242,1.159,1.083,-0.079,1.0,-0.155,2
-0.653,-0.245,1.065,0.813,0.179,1.069,-0.105,1.002,-0.149,2
-0.52,-0.345,0.952,0.881,0.328,0.839,0.021,0.979,-0.161,2
-0.635,-0.203,0.521,0.804,0.314,0.893,0.01,1.005,-0.063,2
-0.592,-0.16,0.398,0.853,0.28,0.781,0.063,1.004,-0.091,2
-0.683,-0.066,0.75,0.836,0.263,0.771,-0.062,0.992,-0.153,2
-0.742,0.018,0.89,0.681,0.109,0.691,0.028,0.992,-0.155,2
-0.762,0.043,0.841,0.39,-0.075,0.574,0.007,0.991,-0.109,2
-0.824,0.097,0.695,0.263,0.065,0.788,-0.004,0.999,-0.106,2
-0.7,0.157,0.56,-0.012,0.25,0.868,0.04,0.983,-0.188,2
-0.521,0.195,0.597,0.064,0.23,1.324,0.032,0.986,-0.174,2
-0.058,0.438,0.771,0.11,-0.366,1.065,-0.047,0.988,-0.156,2
-0.221,0.62,1.34,-0.008,-0.514,0.444,-0.109,0.991,-0.165,2
-0.494,0.491,1.04,0.438,0.084,0.91,-0.081,0.98,-0.148,2
-0.76,0.426,0.814,0.291,-0.002,1.366,-0.124,0.979,-0.189,2
-0.855,0.163,0.638,0.383,-0.362,1.045,-0.178,0.97,-0.198,2
-0.797,-0.017,0.477,0.184,-0.378,0.622,-0.123,0.986,-0.136,2
-0.664,-0.071,0.505,0.233,0.159,0.755,-0.156,1.011,-0.112,2
-0.507,-0.331,0.65,0.195,0.501,1.135,-0.115,0.988,-0.044,2
-0.574,-0.323,0.566,0.301,0.057,1.086,-0.088,1.029,0.087,2
-0.651,-0.287,0.581,0.433,0.008,0.961,-0.167,1.071,0.056,2
-0.637,-0.401,0.945,0.818,0.003,0.524,-0.02,0.902,-0.034,2
-0.472,-0.384,0.82,0.587,-0.155,0.369,-0.004,0.894,-0.104,2
-0.564,-0.378,0.38,0.176,-0.037,0.268,-0.145,1.12,0.04,2
-0.908,-0.142,0.235,0.769,1.13,1.398,0.054,0.969,0.107,2
-0.874,-0.019,0.67,0.754,0.528,1.62,0.007,1.0,0.059,2
-0.726,0.095,0.865,0.648,0.251,1.24,-0.013,0.968,-0.146,2
-0.713,0.159,0.858,0.775,0.301,0.997,-0.015,1.013,-0.148,2
-0.704,0.101,0.751,0.73,0.136,0.757,0.018,0.984,-0.184,2
-0.678,0.127,0.629,0.604,0.017,0.66,0.071,0.976,-0.222,2
-0.51,0.188,0.598,0.673,-0.109,0.363,0.035,0.989,-0.231,2
0.071,0.417,0.985,0.258,-0.115,0.289,0.052,1.017,-0.184,2
-0.236,0.645,1.288,-0.005,0.385,1.072,0.06,0.96,-0.284,2
-0.539,0.369,1.071,-0.045,0.588,1.876,0.052,0.973,-0.304,2
-0.655,0.207,0.745,0.25,-0.23,1.121,-0.154,0.964,-0.292,2
-0.768,0.049,0.556,0.241,-0.304,0.694,-0.101,0.958,-0.326,2
-0.649,-0.153,0.716,0.177,-0.158,0.424,-0.028,0.956,-0.243,2
-0.471,-0.189,0.812,0.59,0.313,1.339,-0.073,1.011,-0.096,2
-0.55,-0.08,0.646,0.456,-0.06,1.323,-0.136,1.046,0.003,2
-0.755,-0.1,0.582,0.265,-0.35,0.674,-0.172,1.034,-0.02,2
-0.641,-0.225,1.079,0.326,0.259,0.974,-0.074,0.939,-0.182,2
-0.524,-0.214,0.854,0.504,0.558,1.136,0.013,0.897,-0.115,2
-0.672,-0.179,0.479,0.425,0.067,0.874,-0.085,1.075,0.252,2
-0.736,-0.092,0.435,0.365,-0.057,0.619,0.061,1.016,0.188,2
-0.761,-0.047,0.857,0.269,-0.056,0.531,0.14,0.999,-0.05,2
-0.738,0.08,0.914,0.546,0.419,0.879,-0.139,1.011,-0.059,2
-0.723,0.129,0.862,0.888,0.765,1.067,0.063,0.992,-0.188,2
-0.623,0.08,0.695,0.855,0.494,1.352,0.107,1.006,-0.084,2
-0.458,0.033,0.6,0.646,0.352,1.167,-0.07,0.99,-0.187,2
-0.481,0.214,0.782,0.604,0.324,1.039,-0.062,0.974,-0.211,2
0.122,0.712,1.078,0.748,0.2,0.9,-0.028,0.972,-0.222,2
-0.358,0.545,1.339,0.518,0.033,0.539,-0.047,1.005,-0.152,2
-0.595,0.448,0.813,0.487,0.165,0.399,-0.056,0.97,-0.276,2
-0.888,0.316,0.544,0.375,0.69,1.335,-0.025,0.965,-0.29,2
-0.978,0.067,0.495,0.085,0.279,1.193,-0.019,0.976,-0.219,2
-0.949,-0.199,0.602,0.494,-0.303,0.577,0.011,0.974,-0.219,2
-0.666,-0.241,0.67,0.336,0.086,0.766,0.037,0.985,-0.214,2
-0.566,-0.202,0.54,0.35,0.513,0.973,-0.001,0.976,-0.212,2
-0.652,-0.343,0.334,0.071,0.325,1.182,0.009,0.975,-0.212,2
-0.827,-0.304,0.991,0.334,0.076,0.938,-0.025,0.991,-0.204,2
-0.713,-0.366,0.739,0.586,0.124,0.734,0.017,0.971,-0.191,2
-0.583,-0.289,0.44,0.497,0.004,0.498,0.108,0.983,-0.128,2
-0.684,-0.271,0.353,0.3,0.068,0.405,0.026,0.996,-0.129,2
-0.885,0.011,0.507,1.132,0.877,1.08,0.0,0.974,-0.178,2
-0.817,0.119,0.826,0.859,0.643,1.26,0.029,0.984,-0.139,2
-0.719,0.187,0.914,0.67,0.333,1.105,0.015,0.987,-0.155,2
-0.757,0.22,0.9,0.744,0.377,0.904,0.017,0.987,-0.193,2
-0.695,0.163,0.795,0.793,0.444,0.946,-0.02,0.998,-0.15,2
-0.405,0.021,0.573,0.602,0.43,0.864,0.03,0.981,-0.203,2
-0.661,0.139,0.813,0.417,0.313,0.63,-0.074,0.986,-0.198,2
-0.26,0.841,1.239,0.298,0.252,0.581,-0.09,0.975,-0.193,2
-0.473,0.485,1.155,0.283,0.395,0.707,-0.094,1.0,-0.212,2
-0.469,0.353,0.796,0.12,0.374,1.146,-0.162,0.979,-0.247,2
-0.717,0.164,0.737,0.202,0.095,1.449,0.0,0.985,-0.139,2
-0.84,0.127,0.59,0.294,-0.258,0.722,-0.046,0.991,-0.103,2
-0.906,-0.151,0.505,0.29,-0.284,0.325,-0.068,0.981,-0.214,2
-0.749,-0.047,0.667,0.365,0.401,1.007,-0.097,0.973,-0.23,2
-0.595,-0.055,0.687,0.156,0.517,1.423,-0.063,0.986,-0.17,2
-0.854,-0.137,0.402,0.251,0.157,1.056,-0.015,0.996,-0.152,2
-1.02,0.151,0.643,0.241,0.393,1.006,0.009,0.981,-0.148,2
-0.777,-0.121,0.833,0.335,0.364,0.885,0.089,0.992,-0.129,2
-0.609,0.0,0.55,0.392,0.304,0.66,0.002,0.997,-0.129,2
-0.808,0.055,0.344,0.357,0.195,0.441,0.004,0.979,-0.176,2
-0.836,0.18,0.694,0.65,0.416,0.688,0.032,0.977,-0.165,2
-0.824,0.29,0.766,1.353,0.596,0.942,0.007,0.982,-0.174,2
-0.667,0.276,0.733,0.855,0.288,1.09,0.032,0.98,-0.199,2
-0.747,0.249,0.675,0.792,0.216,1.098,-0.04,0.998,-0.171,2
-0.82,0.21,0.68,0.764,0.256,1.107,-0.013,0.986,-0.222,2
-0.767,0.232,0.537,0.657,0.035,0.943,-0.06,0.99,-0.192,2
-0.505,0.471,0.732,0.493,-0.038,0.688,-0.046,0.983,-0.194,2
-0.2,0.432,0.766,0.321,-0.089,0.655,-0.082,0.972,-0.24,2
-0.079,0.747,0.952,0.176,-0.096,0.503,-0.113,0.962,-0.288,2
-0.463,0.65,0.952,-0.137,0.356,1.296,-0.068,0.949,-0.285,2
-0.655,0.47,0.774,-0.026,0.227,1.402,-0.039,1.002,-0.13,2
-1.056,0.352,0.498,0.228,-0.435,0.892,-0.012,0.988,-0.177,2
-0.985,0.176,0.407,0.198,-0.253,0.702,-0.049,0.96,-0.245,2
-0.754,-0.014,0.478,0.115,-0.076,0.899,-0.028,0.971,-0.22,2
-0.614,-0.027,0.605,0.488,0.159,1.418,-0.043,0.999,-0.146,2
-0.635,-0.012,0.525,0.319,0.051,1.042,0.004,0.993,-0.138,2
-0.918,-0.006,0.855,0.275,0.084,0.983,0.061,0.995,-0.118,2
-0.921,-0.152,0.841,0.033,-0.054,0.875,0.07,0.996,-0.115,2
-0.61,-0.206,0.575,0.274,-0.204,0.617,0.051,0.991,-0.166,2
-0.698,-0.148,0.463,0.553,-0.048,0.858,0.002,0.969,-0.187,2
-0.971,0.178,0.531,0.344,0.072,0.939,0.05,0.985,-0.143,2
-0.783,0.135,0.731,0.356,0.369,1.15,-0.0,0.983,-0.174,2
-0.641,0.218,0.859,0.346,0.614,1.281,0.005,0.979,-0.177,2
-0.734,0.175,0.798,0.483,0.467,1.371,0.04,0.979,-0.173,2
-0.799,0.176,0.758,0.479,0.395,1.167,-0.073,0.99,-0.148,2
-0.884,0.041,0.619,0.465,0.241,0.996,-0.065,0.996,-0.169,2
-0.688,0.071,0.392,0.373,0.179,0.916,-0.138,0.969,-0.232,2
-0.468,0.305,0.521,0.242,0.106,0.85,-0.175,0.962,-0.289,2
0.171,0.672,0.951,0.252,0.006,0.655,-0.124,0.976,-0.208,2
-0.466,0.63,1.347,-0.061,0.291,0.806,-0.018,0.994,-0.183,2
-0.655,0.418,1.005,-0.255,0.324,1.083,-0.031,0.992,-0.14,2
-0.796,0.292,0.729,0.104,-0.241,1.194,-0.06,0.976,-0.191,2
-0.735,0.171,0.587,0.388,-0.164,0.83,-0.024,0.979,-0.198,2
-0.81,-0.143,0.642,0.03,0.224,0.864,-0.026,0.996,-0.139,2
-0.515,-0.203,0.625,-0.117,0.491,1.237,-0.057,1.001,-0.107,2
-0.633,-0.209,0.485,0.068,0.299,1.108,0.088,0.98,-0.169,2
-0.625,-0.37,0.24,0.114,0.121,0.976,0.149,0.988,-0.086,2
-0.92,-0.258,0.868,0.27,0.017,0.805,0.001,1.005,-0.12,2
-0.762,-0.323,0.783,0.295,0.223,0.74,-0.05,0.975,-0.218,2
-0.59,-0.278,0.486,0.521,0.364,0.761,0.066,0.972,-0.156,2
-0.614,-0.23,0.214,0.435,0.484,1.018,0.038,0.982,-0.148,2
-0.721,-0.052,0.664,0.313,0.698,1.092,-0.06,0.994,-0.194,2
-0.806,0.031,0.728,0.627,0.563,1.314,-0.04,0.99,-0.181,2
-0.777,0.055,0.797,0.468,0.427,1.237,0.005,0.994,-0.139,2
-0.854,0.136,0.763,0.549,0.331,1.091,-0.042,0.98,-0.152,2
-0.813,0.172,0.642,0.643,0.176,0.929,-0.117,1.024,-0.182,2
-0.62,0.181,0.546,0.614,0.134,0.837,-0.093,0.978,-0.269,2
-0.617,0.209,0.546,0.463,0.118,0.748,-0.062,0.977,-0.17,2
-0.388,0.374,0.564,0.426,0.065,0.643,-0.072,0.994,-0.098,2
-0.3,0.592,1.271,0.101,0.072,0.686,-0.04,0.994,-0.164,2
-0.557,0.585,0.959,0.004,0.375,1.093,-0.043,0.981,-0.223,2
-1.002,0.455,0.722,-0.102,0.011,1.266,-0.066,0.961,-0.26,2
-0.875,0.266,0.542,0.104,-0.378,0.827,-0.002,0.968,-0.276,2
-0.736,0.03,0.46,0.115,-0.224,0.656,-0.019,1.042,-0.041,2
-0.641,-0.208,0.494,0.172,0.3,1.023,0.036,0.98,-0.174,2
-0.707,-0.223,0.546,-0.1,0.247,1.233,0.021,0.986,-0.16,2
-0.669,-0.294,0.386,0.213,0.178,0.98,-0.035,0.983,-0.181,2
-0.798,-0.311,0.531,0.185,-0.035,0.844,0.034,0.984,-0.16,2
-0.776,-0.339,0.966,0.452,0.074,0.717,0.031,0.995,-0.133,2
-0.681,-0.313,0.706,0.717,0.148,0.645,-0.005,0.987,-0.166,2
-0.638,-0.313,0.307,0.933,0.143,0.709,0.0,0.983,-0.187,2
-0.824,-0.18,0.225,0.733,0.244,0.809,-0.045,0.979,-0.203,2
-0.858,-0.072,0.524,0.657,0.482,0.893,-0.006,0.978,-0.22,2
-0.856,0.065,0.688,0.607,0.627,0.978,-0.051,0.984,-0.173,2
-0.794,0.18,0.837,0.69,0.432,1.104,-0.102,0.992,-0.21,2
-0.792,0.17,0.763,0.74,0.347,1.034,-0.116,0.962,-0.275,2
-0.841,0.178,0.588,0.813,0.278,1.001,0.008,0.965,-0.226,2
-0.705,0.193,0.543,0.812,0.218,0.871,-0.037,0.979,-0.17,2
-0.37,0.354,0.715,0.456,0.077,0.707,-0.039,0.988,-0.183,2
-0.159,0.767,1.153,0.479,-0.037,0.269,-0.057,0.989,-0.204,2
-0.541,0.477,1.167,0.641,0.244,0.712,-0.074,0.987,-0.196,2
-0.712,0.345,0.816,0.479,-0.077,1.259,-0.064,0.973,-0.213,2
-0.775,0.266,0.5,0.543,-0.38,0.875,0.101,0.987,-0.14,2
-0.832,0.068,0.357,0.082,-0.32,0.698,0.017,0.997,-0.127,2
-0.915,-0.116,0.412,0.302,0.17,0.901,-0.029,1.001,-0.146,2
-0.875,-0.163,0.53,0.106,0.239,1.286,0.032,0.978,-0.174,2
-0.692,-0.195,0.46,0.371,-0.001,0.929,0.057,0.995,-0.12,2
-0.987,-0.292,0.454,0.278,-0.188,0.824,0.011,0.991,-0.163,2
-0.992,-0.174,0.708,0.295,-0.08,0.867,-0.02,0.978,-0.211,2
-0.822,-0.331,0.823,0.523,0.019,0.444,-0.018,0.995,-0.15,2
-0.651,-0.237,0.494,0.543,-0.103,0.333,-0.024,0.993,-0.158,2
-0.727,-0.187,0.311,0.813,0.391,0.886,-0.051,0.976,-0.197,2
-0.875,-0.014,0.397,0.955,0.725,0.956,-0.059,0.988,-0.228,2
-0.959,0.108,0.581,1.002,0.328,1.128,-0.079,0.981,-0.238,2
-0.929,0.214,0.689,0.816,0.342,0.996,-0.072,0.972,-0.217,2
-0.859,0.264,0.718,0.866,0.28,0.863,-0.066,0.968,-0.212,2
-0.795,0.295,0.715,0.854,0.157,0.923,-0.011,0.977,-0.212,2
-0.561,0.241,0.621,0.712,0.007,0.822,-0.061,0.997,-0.115,2
-0.381,0.251,0.718,0.346,-0.15,0.491,-0.054,1.001,-0.136,2
0.07,0.567,0.913,0.361,-0.037,0.402,-0.082,0.976,-0.213,2
-0.488,0.768,1.15,0.307,0.197,1.093,0.006,0.987,-0.171,2
-0.655,0.603,0.866,0.043,-0.248,1.289,0.088,0.996,-0.097,2
-0.907,0.413,0.635,0.125,-0.524,0.696,0.053,1.01,-0.05,2
-0.978,0.035,0.541,0.205,-0.101,0.899,-0.009,0.983,-0.178,2
-0.84,-0.055,0.61,0.338,0.268,1.033,-0.004,0.986,-0.163,2
-0.605,-0.181,0.508,0.208,-0.001,1.136,0.041,0.991,-0.148,2
-0.391,-0.241,0.506,0.313,-0.176,0.94,-0.034,0.985,-0.157,2
-0.797,-0.214,0.521,0.545,-0.073,0.652,-0.001,0.979,-0.198,2
-0.742,-0.251,1.038,0.313,-0.033,0.298,-0.012,0.99,-0.184,2
-0.578,-0.36,0.905,0.787,0.187,0.72,-0.037,0.991,-0.162,2
-0.227,-0.069,0.344,1.115,0.571,0.98,0.013,0.981,-0.205,2
-0.704,-0.221,0.382,1.083,0.127,1.234,-0.081,0.983,-0.223,2
-0.809,-0.036,0.503,0.932,0.174,0.895,-0.001,0.975,-0.226,2
-0.761,0.001,0.72,0.871,0.176,0.745,-0.052,0.982,-0.198,2
-0.716,0.152,0.768,0.874,0.092,0.724,-0.014,0.973,-0.198,2
-0.706,0.236,0.874,1.076,0.118,0.794,-0.025,0.987,-0.177,2
-0.634,0.25,0.825,0.754,-0.016,0.733,-0.064,0.973,-0.222,2
-0.477,0.302,0.73,0.479,-0.066,0.414,-0.077,0.962,-0.292,2
-0.391,0.394,0.748,0.247,0.049,0.52,0.036,0.994,-0.189,2
-0.234,0.518,0.779,0.276,0.303,1.419,0.033,1.034,-0.044,2
-0.387,0.75,1.033,0.348,-0.3,1.082,0.055,0.985,-0.159,2
-0.661,0.584,0.806,0.231,-0.265,0.683,-0.039,0.973,-0.181,2
-0.734,0.435,0.557,-0.091,0.176,0.951,-0.022,0.977,-0.179,2
-0.78,0.328,0.449,0.026,0.262,1.368,0.013,0.979,-0.175,2
-0.841,0.181,0.426,0.229,0.145,1.025,-0.051,0.986,-0.174,2
-0.782,0.059,0.563,0.338,-0.084,0.755,-0.048,0.993,-0.173,2
-0.769,0.043,0.677,0.408,-0.182,0.758,0.032,0.998,-0.131,2
-0.589,0.047,0.685,0.779,0.096,0.775,0.041,0.992,-0.154,2
-0.716,0.284,0.612,0.5,-0.161,0.517,-0.026,0.979,-0.198,2
-0.823,0.495,0.574,0.549,0.019,0.877,-0.059,0.972,-0.245,2
-0.369,0.51,1.014,0.877,0.332,0.946,-0.163,0.972,-0.26,2
-0.41,0.295,0.847,0.919,0.066,1.207,-0.119,0.973,-0.245,2
-0.613,0.232,0.812,0.852,0.072,1.07,-0.087,0.971,-0.222,2
-0.981,0.288,0.539,0.832,0.107,0.959,-0.069,0.965,-0.251,2
-0.985,0.309,1.072,0.777,0.084,0.957,-0.066,0.965,-0.22,2
-0.757,0.033,0.729,0.472,-0.069,0.859,-0.057,0.975,-0.186,2
-0.345,-0.106,0.551,0.316,-0.198,0.556,-0.094,0.985,-0.203,2
-0.05,-0.382,0.625,0.223,0.09,0.904,-0.041,0.986,-0.169,2
-0.588,-0.186,0.551,-0.066,0.079,1.156,-0.048,0.99,-0.166,2
-0.337,-0.257,0.61,0.157,-0.544,0.889,0.06,1.004,-0.112,2
-0.226,-0.265,0.822,0.014,-0.515,0.509,-0.015,0.986,-0.155,2
-0.391,-0.105,0.901,0.2,0.063,0.949,-0.037,0.975,-0.201,2
-0.635,-0.113,0.88,-0.222,0.07,1.271,0.002,0.98,-0.16,2
-0.619,0.032,0.873,0.11,-0.245,1.011,0.041,0.995,-0.13,2
-0.693,0.108,0.828,0.337,-0.27,0.808,-0.032,0.982,-0.164,2
-0.968,0.335,0.927,0.465,-0.248,0.5,-0.026,0.98,-0.195,2
-0.512,0.288,0.778,0.501,-0.17,0.456,-0.059,0.975,-0.199,2
-0.183,0.338,0.774,0.721,0.149,0.891,-0.033,0.981,-0.186,2
0.12,0.586,0.847,0.77,0.326,1.025,0.0,0.989,-0.177,2
0.015,0.728,1.089,0.893,0.237,1.186,-0.1,0.982,-0.216,2
-0.437,0.609,0.929,0.888,0.214,1.0,-0.211,0.975,-0.239,2
-0.646,0.356,0.724,0.983,0.194,0.822,-0.063,0.96,-0.248,2
-0.751,0.347,0.65,1.069,0.184,0.798,-0.051,0.977,-0.19,2
-0.854,0.306,0.581,0.673,0.111,0.696,-0.047,0.991,-0.166,2
-0.757,0.201,0.646,0.448,0.094,0.534,-0.041,0.986,-0.173,2
-0.758,0.113,0.667,0.213,0.173,0.677,-0.09,0.979,-0.187,2
-0.66,0.052,0.71,0.013,0.136,1.138,-0.075,0.988,-0.204,2
-0.68,-0.006,0.595,0.123,-0.003,1.207,-0.033,0.985,-0.172,2
-0.782,-0.05,0.498,0.094,-0.419,0.805,0.089,1.009,-0.085,2
-0.628,0.037,0.488,0.105,-0.078,0.836,-0.005,0.991,-0.148,2
-0.597,0.037,0.779,0.25,0.236,0.925,0.007,0.976,-0.163,2
-0.648,0.191,0.738,0.191,0.266,1.179,0.072,0.979,-0.169,2
-0.569,0.227,0.755,0.291,0.093,0.952,0.015,0.996,-0.136,2
-0.677,0.205,0.785,0.692,0.114,0.956,-0.028,0.987,-0.174,2
-0.673,0.284,0.782,0.837,0.014,0.671,0.027,0.992,-0.136,2
-0.66,0.314,0.775,0.721,-0.217,0.295,0.025,0.997,-0.154,2
-0.63,0.297,0.746,0.428,-0.245,0.413,-0.052,0.978,-0.208,2
-0.506,0.348,0.662,1.249,0.376,1.187,-0.047,0.972,-0.253,2
-0.389,0.429,0.791,0.879,0.172,1.276,-0.023,0.979,-0.224,2
-0.128,0.585,0.781,0.612,0.053,1.026,-0.047,0.995,-0.226,2
-0.369,0.741,0.972,0.773,0.078,0.934,-0.039,0.969,-0.228,2
-0.588,0.551,0.73,0.811,0.096,0.887,-0.013,0.968,-0.246,2
-0.818,0.257,0.546,0.696,0.083,0.864,-0.044,0.977,-0.234,2
-0.873,0.211,0.523,0.481,-0.017,0.747,-0.039,1.001,-0.164,2
-0.835,0.05,0.597,0.254,-0.16,0.461,-0.014,0.988,-0.19,2
-0.76,-0.025,0.63,0.323,0.136,0.823,-0.056,0.979,-0.201,2
-0.689,-0.108,0.665,0.201,0.296,1.39,0.081,0.979,-0.17,2
-0.532,-0.213,0.766,0.162,-0.307,0.848,0.046,1.003,-0.133,2
-0.589,-0.214,0.552,0.262,-0.262,0.548,0.0,0.992,-0.174,2
-0.776,-0.13,0.418,0.457,0.254,0.989,-0.003,0.976,-0.188,2
-0.749,-0.033,0.91,-0.229,0.307,1.27,0.041,0.982,-0.15,2
-0.555,-0.2,1.174,0.141,0.014,1.033,-0.003,1.0,-0.149,2
-0.364,-0.128,0.878,0.541,-0.044,0.81,-0.043,0.987,-0.19,2
-0.512,-0.184,0.509,0.613,-0.061,0.614,-0.031,0.982,-0.172,2
-0.717,-0.033,0.604,0.272,-0.208,0.308,-0.014,0.977,-0.197,2
-0.64,0.182,0.872,1.035,0.466,1.139,0.014,0.987,-0.182,2
-0.596,0.019,0.792,0.967,0.613,1.123,-0.05,0.978,-0.21,2
-0.573,0.164,0.871,0.852,-0.034,1.098,-0.123,0.969,-0.268,2
-0.58,0.329,0.911,0.852,0.2,0.928,-0.059,0.965,-0.276,2
-0.579,0.278,0.853,0.827,0.136,0.844,-0.053,0.989,-0.199,2
-0.589,0.274,0.795,0.768,0.089,0.832,-0.003,0.974,-0.218,2
-0.571,0.365,0.727,0.634,0.03,0.83,0.002,0.974,-0.214,2
-0.337,0.35,0.607,0.528,-0.093,0.465,-0.035,1.011,-0.11,2
-0.084,0.724,0.868,0.664,0.029,0.482,-0.046,0.975,-0.206,2
-0.375,0.718,1.031,0.613,0.35,1.088,-0.11,0.976,-0.234,2
-0.598,0.525,0.976,0.033,-0.199,1.028,-0.047,0.98,-0.18,2
-1.09,0.5,0.595,0.037,-0.266,0.671,0.054,0.98,-0.149,2
-0.907,0.329,0.476,0.558,0.323,0.858,0.015,0.993,-0.13,2
-0.87,0.129,0.496,0.107,0.146,1.303,0.033,0.982,-0.162,2
-0.705,-0.017,0.662,0.564,0.015,0.997,0.062,0.982,-0.153,2
-0.602,-0.25,0.618,0.874,-0.116,0.679,0.0,0.994,-0.164,2
-0.585,-0.225,0.421,0.701,-0.155,0.352,-0.039,0.991,-0.175,2
-0.795,-0.189,0.377,0.857,-0.09,0.311,-0.041,0.989,-0.179,2
-0.665,-0.229,0.798,0.988,0.172,0.782,-0.005,0.987,-0.155,2
-0.48,-0.278,0.952,1.033,0.324,0.945,-0.072,0.985,-0.2,2
-0.683,-0.241,0.332,0.874,0.028,0.877,-0.082,0.978,-0.238,2
-0.723,-0.051,0.421,0.877,0.004,0.701,-0.053,0.972,-0.234,2
-0.801,0.051,0.649,0.851,-0.005,0.649,-0.079,0.992,-0.18,2
-0.789,0.135,0.804,1.093,0.252,0.809,-0.033,0.989,-0.159,2
-0.739,0.203,0.838,1.013,0.241,0.805,0.014,0.979,-0.178,2
-0.737,0.272,0.843,0.642,0.093,0.569,-0.037,0.982,-0.175,2
-0.854,0.156,0.708,0.456,0.083,0.493,-0.043,0.98,-0.211,2
-0.7,0.364,0.561,0.057,0.104,0.947,-0.063,0.993,-0.192,2
-0.44,0.497,0.728,0.109,0.336,1.295,0.034,0.985,-0.167,2
0.265,0.603,0.859,0.144,-0.247,1.185,0.044,0.992,-0.136,2
-0.391,0.571,1.211,0.098,-0.338,0.741,-0.012,0.984,-0.176,2
-0.642,0.496,0.93,-0.016,0.048,0.894,0.006,0.987,-0.151,2
-0.825,0.332,0.719,-0.077,0.378,1.129,0.065,0.994,-0.124,2
-0.908,0.184,0.58,0.366,0.286,0.999,-0.001,0.986,-0.172,2
-0.773,0.029,0.512,0.365,-0.174,1.04,-0.037,0.971,-0.234,2
-0.641,-0.192,0.527,0.292,0.048,0.863,-0.041,0.984,-0.174,2
-0.632,-0.304,0.68,0.658,0.104,0.569,-0.017,0.983,-0.157,2
-0.573,-0.301,0.685,0.788,-0.01,0.687,-0.017,0.986,-0.179,2
-0.684,-0.354,0.435,1.049,0.354,1.335,-0.083,0.982,-0.227,2
-0.817,-0.286,0.655,0.564,0.283,1.059,-0.08,0.974,-0.245,2
-0.318,-0.137,0.496,0.22,0.16,1.228,-0.025,0.972,-0.207,2
-0.655,-0.274,0.76,0.333,0.201,1.207,-0.035,0.99,-0.159,2
-0.524,-0.283,0.556,0.645,0.208,1.241,-0.031,0.988,-0.182,2
-0.741,-0.102,0.611,0.362,0.196,1.132,-0.045,0.979,-0.191,2
-0.841,-0.099,0.708,0.138,0.064,0.805,-0.054,0.987,-0.204,2
-0.8,0.026,0.723,0.076,-0.074,0.542,-0.06,0.973,-0.222,2
-0.732,0.128,0.66,-0.117,0.159,1.099,0.031,1.005,-0.133,2
-0.882,0.174,0.679,-0.151,0.259,1.322,0.028,1.002,-0.105,2
-0.736,0.28,0.729,0.018,-0.33,0.814,0.013,0.98,-0.192,2
-0.541,0.316,0.631,0.217,-0.349,0.59,-0.008,0.98,-0.17,2
-0.36,0.43,0.774,0.134,0.121,0.991,0.019,0.99,-0.146,2
-0.097,0.589,0.861,-0.192,0.447,1.215,-0.012,1.002,-0.145,2
-0.461,0.688,1.117,0.002,0.18,0.916,-0.032,0.982,-0.2,2
-0.706,0.658,0.948,0.361,0.063,0.797,-0.002,0.977,-0.19,2
-0.878,0.27,0.638,0.457,0.146,0.825,0.003,0.992,-0.164,2
-0.714,0.204,0.477,0.546,0.038,0.439,0.01,0.998,-0.156,2
-0.878,-0.076,0.53,0.772,0.389,0.999,-0.032,0.993,-0.213,2
-0.744,-0.234,0.689,0.651,0.634,0.896,-0.103,0.973,-0.246,2
-0.589,-0.24,0.683,0.77,0.313,1.163,-0.036,0.967,-0.22,2
-0.599,-0.236,0.477,0.672,0.271,0.892,-0.007,0.972,-0.209,2
-0.756,-0.182,0.359,0.764,0.321,0.843,-0.043,0.976,-0.22,2
-0.896,-0.17,0.817,0.772,0.425,0.807,-0.034,0.975,-0.213,2
-0.683,-0.283,0.996,0.687,0.475,0.673,-0.056,0.969,-0.227,2
-0.481,-0.207,0.703,0.549,0.451,0.745,-0.042,0.988,-0.193,2
-0.662,-0.221,0.375,0.315,0.366,0.54,0.009,1.002,-0.144,2
-0.701,-0.044,0.406,-0.068,0.531,1.173,0.025,0.982,-0.183,2
-0.771,0.076,0.841,0.305,0.534,0.741,0.0,0.992,-0.154,2
-0.793,0.155,0.842,0.24,0.156,0.784,-0.029,0.98,-0.19,2
-0.777,0.213,0.748,0.465,0.338,0.973,0.055,0.985,-0.169,2
-0.788,0.276,0.703,0.466,0.619,0.83,0.01,0.987,-0.168,2
-0.68,0.257,0.686,-0.12,0.587,1.118,-0.042,0.98,-0.205,2
-0.603,0.289,0.667,0.133,0.516,0.882,0.006,0.989,-0.173,2
-0.513,0.42,0.722,0.5,0.41,0.718,-0.018,0.983,-0.178,2
-0.051,0.547,0.813,1.092,0.47,0.567,-0.026,0.978,-0.214,2
-0.426,0.594,1.131,1.094,0.214,0.179,-0.032,0.98,-0.211,2
-0.692,0.513,1.002,0.78,0.077,0.257,-0.075,0.977,-0.244,2
-0.795,0.403,0.817,1.029,0.461,0.666,-0.028,0.972,-0.254,2
-0.865,0.268,0.775,1.048,0.26,1.03,-0.018,0.986,-0.181,2
-0.84,0.117,0.508,0.814,0.234,0.968,0.007,0.993,-0.161,2
-0.662,-0.074,0.493,0.81,0.361,1.033,-0.045,0.973,-0.223,2
-0.512,-0.225,0.649,0.808,0.393,0.936,-0.053,0.97,-0.237,2
-0.46,-0.219,0.679,0.676,0.284,0.574,-0.056,0.982,-0.206,2
-0.907,-0.282,0.438,0.572,0.112,0.34,-0.023,0.99,-0.194,2
-0.968,-0.225,0.665,0.619,0.309,0.598,0.025,0.993,-0.158,2
-0.458,-0.254,1.085,0.507,0.767,0.905,0.014,0.991,-0.144,2
-0.505,-0.202,0.74,0.524,0.087,0.882,0.01,0.97,-0.189,2
-0.587,-0.218,0.45,0.597,-0.036,0.612,-0.005,0.99,-0.141,2
-0.891,0.041,0.46,0.493,0.412,1.081,-0.063,0.982,-0.156,2
-0.864,0.072,0.597,0.25,0.436,1.12,-0.037,0.989,-0.174,2
-0.729,0.232,0.783,0.595,0.328,0.929,0.049,0.978,-0.175,2
-0.649,0.27,0.91,0.597,0.08,0.726,-0.044,0.983,-0.156,2
-0.602,0.299,0.881,0.652,0.036,0.528,-0.039,0.999,-0.14,2
-0.617,0.282,0.806,0.506,-0.008,0.48,-0.055,0.978,-0.208,2
-0.496,0.228,0.552,0.59,0.178,0.879,-0.197,0.977,-0.218,2
-0.359,0.421,0.907,0.337,0.531,1.044,-0.163,0.96,-0.276,2
-0.165,0.588,0.736,0.427,0.26,1.128,-0.025,0.967,-0.241,2
-0.525,0.605,1.035,0.491,0.214,1.039,-0.086,0.99,-0.143,2
-0.845,0.395,0.812,0.426,0.355,0.83,-0.09,0.997,-0.146,2
-0.777,0.283,0.68,0.416,0.332,0.775,-0.038,0.981,-0.193,2
-0.732,0.125,0.65,0.714,0.438,0.853,-0.049,0.992,-0.164,2
-0.706,0.016,0.804,0.483,0.543,0.956,-0.068,1.004,-0.124,2
-0.509,-0.072,0.575,0.368,0.369,0.542,-0.017,0.993,-0.144,2
-0.806,-0.085,0.22,0.358,0.56,0.891,0.018,0.989,-0.138,2
-0.938,-0.038,0.747,0.127,0.472,0.625,-0.007,0.991,-0.147,2
-0.527,-0.051,1.196,0.516,0.152,0.802,0.004,0.981,-0.175,2
-0.472,-0.019,0.818,0.394,0.218,0.67,0.059,0.988,-0.167,2
-0.613,-0.103,0.547,0.433,0.518,0.944,0.099,0.988,-0.189,2
-0.987,0.0,0.245,-0.001,0.663,1.012,-0.002,0.972,-0.237,2
-1.009,0.161,0.376,0.375,0.561,0.85,0.012,0.982,-0.18,2
-0.906,0.232,0.553,0.66,0.542,0.733,0.041,0.981,-0.202,2
-0.853,0.163,0.621,0.578,0.308,0.603,0.07,1.002,-0.153,2
-0.697,0.588,0.72,0.607,0.323,0.426,-0.033,0.918,-0.272,2
-0.207,0.415,0.846,0.873,0.706,0.854,0.001,1.002,-0.244,2
-0.026,0.186,0.749,1.105,0.389,0.557,-0.004,0.986,-0.177,2
-0.227,0.493,0.824,0.959,0.411,0.613,0.074,1.002,-0.034,2
-0.642,0.651,0.735,0.593,0.568,0.389,0.148,1.011,-0.15,2
-0.859,0.606,0.429,0.556,0.712,0.394,0.026,0.986,-0.146,2
-0.751,0.589,0.272,0.633,0.787,0.432,0.186,0.942,-0.051,2
-0.573,0.606,0.357,0.438,0.83,0.438,0.143,0.965,-0.017,2
-0.645,0.655,0.256,0.385,0.846,0.44,0.102,0.999,-0.009,2
-0.589,0.812,0.285,0.438,0.838,0.429,0.116,0.996,-0.031,2
-0.637,0.867,0.277,0.487,0.874,0.51,0.122,0.982,-0.062,2
0.021,0.849,0.52,0.693,0.664,0.531,-0.133,1.012,0.049,3
-0.258,0.98,0.579,0.709,0.731,0.528,-0.085,0.996,0.014,3
-0.446,0.84,0.374,0.598,0.748,0.617,-0.231,1.0,-0.062,3
-0.885,0.864,0.082,0.57,0.764,0.55,-0.244,1.011,-0.041,3
-0.659,0.655,0.183,0.522,0.749,0.523,-0.204,0.952,-0.0,3
-0.28,0.803,0.464,0.34,0.8,0.48,-0.084,0.925,0.017,3
-0.056,0.844,0.588,0.31,0.857,0.468,-0.079,0.896,0.098,3
-0.382,0.903,0.543,0.268,0.917,0.471,-0.269,1.132,0.238,3
-0.558,0.898,0.667,0.58,0.76,0.447,0.088,0.843,0.001,3
0.033,1.133,0.296,0.643,0.446,0.738,0.184,1.021,-0.04,3
-0.127,0.87,0.526,0.274,0.421,0.894,0.032,1.006,-0.166,3
-0.025,0.879,0.522,0.112,0.464,0.762,-0.057,1.003,0.008,3
-0.039,0.871,0.442,-0.36,0.716,1.315,0.13,0.996,-0.113,3
0.007,0.877,0.463,-0.128,0.804,0.632,0.264,0.942,-0.091,3
0.137,0.859,0.477,-0.228,1.012,0.476,0.171,0.987,-0.173,3
0.088,0.869,0.722,-0.068,0.962,0.84,0.147,1.001,-0.134,3
0.102,0.903,0.418,-0.153,0.669,0.436,0.011,0.943,-0.221,3
-0.012,0.834,0.587,-0.198,1.166,0.427,0.11,0.97,-0.16,3
0.016,0.864,0.515,-0.096,0.711,0.761,0.121,0.969,-0.215,3
0.11,0.814,0.491,-0.202,0.765,0.606,0.042,0.995,-0.202,3
-0.024,0.813,0.547,-0.163,0.75,0.583,0.068,1.116,-0.173,3
-0.051,0.809,0.569,-0.031,0.854,0.65,0.034,1.141,-0.181,3
-0.024,0.784,0.489,0.109,0.838,0.496,-0.138,0.954,0.151,3
-0.1,0.827,0.64,0.004,0.786,0.581,-0.075,1.084,-0.278,3
-0.092,0.808,0.649,0.014,0.912,0.333,-0.195,0.963,-0.19,3
-0.054,0.764,0.509,0.049,0.866,0.484,-0.046,0.935,-0.063,3
-0.114,0.864,0.577,-0.265,0.832,0.791,-0.104,0.912,0.112,3
-0.03,0.836,0.493,-0.147,0.731,0.575,-0.007,0.901,0.144,3
0.036,0.887,0.568,0.165,0.763,1.351,0.029,0.953,0.161,3
0.021,0.834,0.552,-0.235,0.849,0.624,-0.113,0.971,0.182,3
0.066,0.817,0.583,-0.143,0.844,0.606,-0.142,1.313,0.251,3
0.029,0.807,0.594,0.033,0.739,0.564,0.023,0.943,-0.176,3
-0.054,0.805,0.598,-0.011,0.793,0.67,0.103,0.967,-0.177,3
-0.183,0.954,0.653,-0.039,0.726,0.599,0.041,0.972,-0.265,3
-0.337,0.636,0.316,-0.027,0.725,0.78,0.126,0.986,-0.12,3
-0.082,0.786,0.421,-0.022,0.708,0.577,0.054,0.952,-0.259,3
-0.188,0.705,0.656,0.007,0.721,0.616,0.051,0.947,-0.268,3
-0.155,0.827,0.563,-0.061,0.774,0.663,0.078,0.972,-0.197,3
-0.16,0.819,0.565,-0.127,0.776,0.6,0.027,0.944,-0.316,3
-0.17,0.833,0.539,0.033,0.841,0.562,0.077,1.024,-0.245,3
-0.147,0.872,0.582,-0.124,0.74,0.55,-0.106,1.104,-0.186,3
-0.131,0.868,0.535,-0.029,0.759,0.613,0.013,0.969,0.151,3
-0.056,0.837,0.448,0.0,0.706,0.533,0.077,1.069,-0.278,3
0.022,0.831,0.444,0.072,0.757,0.764,-0.012,1.013,-0.206,3
-0.038,0.866,0.561,-0.024,0.673,0.692,-0.156,1.015,-0.037,3
0.002,0.855,0.518,0.029,0.719,0.69,-0.109,0.926,-0.002,3
-0.042,0.84,0.542,0.077,0.753,0.672,0.097,0.873,0.021,3
-0.054,0.833,0.552,0.201,0.74,0.672,0.158,0.909,0.151,3
0.012,0.851,0.578,0.119,0.723,0.701,0.033,0.985,0.274,3
-0.151,0.854,0.542,0.017,0.699,0.773,-0.092,1.183,-0.073,3
-0.233,0.845,0.479,-0.021,0.748,0.833,0.069,0.732,-0.249,3
-0.27,0.791,0.438,0.072,0.661,0.654,-0.001,1.029,-0.069,3
-0.214,0.788,0.542,0.125,0.764,0.625,0.052,0.973,-0.17,3
-0.205,0.78,0.516,0.001,0.765,0.468,0.228,0.968,-0.217,3
-0.261,0.801,0.473,-0.031,0.813,0.421,0.09,0.966,-0.232,3
-0.252,0.843,0.607,-0.074,0.749,0.421,0.15,0.914,-0.28,3
-0.258,0.865,0.509,-0.176,0.709,0.509,0.123,0.927,-0.255,3
-0.086,0.829,0.587,-0.115,0.786,0.67,0.065,0.986,-0.254,3
-0.161,0.897,0.356,-0.162,0.74,0.517,0.114,0.976,-0.276,3
-0.133,0.838,0.524,-0.097,0.826,0.676,0.075,1.118,-0.229,3
-0.138,0.861,0.47,-0.302,0.733,0.592,-0.15,0.909,-0.126,3
-0.189,0.86,0.532,-0.251,0.81,0.542,0.097,1.032,-0.297,3
-0.145,0.79,0.466,-0.168,0.762,0.632,-0.086,1.037,-0.251,3
-0.103,0.805,0.565,-0.112,0.796,0.685,-0.118,1.035,-0.104,3
-0.113,0.789,0.539,-0.076,0.778,0.606,-0.063,0.987,0.031,3
-0.184,0.84,0.564,0.031,0.746,0.621,0.069,0.893,0.029,3
-0.043,0.866,0.529,-0.063,0.751,0.562,0.021,0.848,0.075,3
-0.323,0.853,0.561,0.166,0.805,0.625,0.016,0.919,0.205,3
-0.184,0.746,0.445,0.085,0.83,0.532,-0.129,0.95,-0.065,3
-0.181,0.828,0.584,-0.167,0.819,0.496,0.049,0.807,0.031,3
-0.223,0.811,0.552,-0.043,0.864,0.592,-0.066,1.036,0.086,3
-0.19,0.792,0.612,-0.117,0.827,0.662,0.174,1.29,0.286,3
-0.136,0.819,0.521,-0.169,0.833,0.529,0.167,1.031,-0.336,3
-0.075,0.875,0.574,-0.198,0.827,0.556,0.137,0.956,-0.104,3
0.099,0.891,0.37,-0.187,0.775,0.476,0.019,1.017,-0.148,3
0.04,0.867,0.647,0.012,0.633,0.412,0.092,0.975,-0.228,3
0.159,0.84,0.399,-0.028,0.88,0.711,0.083,0.95,-0.25,3
0.106,0.825,0.495,0.091,0.818,0.374,0.083,0.962,-0.274,3
0.106,0.87,0.598,-0.007,0.871,0.557,0.095,1.093,-0.224,3
0.05,0.771,0.495,0.063,0.85,0.623,-0.205,0.906,0.016,3
0.022,0.793,0.572,-0.054,0.847,0.537,0.261,1.076,-0.296,3
-0.094,0.898,0.511,0.009,0.837,0.541,-0.128,1.063,-0.283,3
-0.082,0.853,0.522,0.088,0.937,0.511,-0.137,1.012,-0.142,3
-0.163,0.876,0.542,0.116,0.873,0.521,-0.006,0.938,-0.075,3
-0.101,0.816,0.563,-0.097,0.797,0.57,0.112,0.822,-0.063,3
-0.221,0.773,0.576,-0.024,0.909,0.404,0.164,0.915,0.149,3
-0.169,0.811,0.595,-0.124,0.859,0.449,-0.025,1.033,0.412,3
-0.109,0.778,0.574,0.037,0.813,0.404,0.142,1.649,0.063,3
-0.135,0.817,0.626,-0.052,0.851,0.666,0.172,0.744,-0.366,3
-0.123,0.823,0.574,0.032,0.77,0.395,0.063,0.992,-0.144,3
0.003,0.802,0.424,0.078,0.774,0.492,0.054,0.976,-0.202,3
0.05,0.799,0.523,0.199,0.843,0.617,0.157,0.977,-0.133,3
0.125,0.841,0.6,0.177,0.833,0.587,-0.002,0.967,-0.26,3
0.13,0.775,0.646,0.199,0.832,0.534,0.006,0.969,-0.288,3
0.163,0.793,0.681,0.172,0.794,0.577,0.082,0.96,-0.275,3
0.04,0.716,0.686,0.063,0.828,0.565,0.032,0.98,-0.27,3
0.049,0.742,0.699,0.016,0.818,0.625,0.112,1.056,-0.303,3
-0.066,0.882,0.512,0.066,0.797,0.487,-0.043,1.136,0.007,3
-0.096,0.825,0.504,0.138,0.86,0.592,-0.05,0.972,-0.141,3
-0.141,0.856,0.645,-0.208,0.86,0.473,-0.008,1.095,-0.336,3
-0.076,0.767,0.57,0.249,0.925,0.429,0.002,1.026,-0.147,3
-0.07,0.762,0.636,-0.073,0.916,0.445,-0.214,0.875,-0.09,3
-0.099,0.79,0.662,-0.067,0.845,0.484,0.007,0.793,-0.053,3
-0.005,0.777,0.565,0.02,0.869,0.581,0.203,0.996,0.308,3
-0.073,0.812,0.665,-0.036,0.84,0.668,-0.052,0.953,0.365,3
-0.077,0.843,0.575,0.059,0.723,0.654,-0.003,1.664,0.184,3
-0.019,0.795,0.51,0.207,0.769,0.718,0.025,0.721,-0.49,3
-0.082,0.847,0.682,0.045,0.849,0.518,0.172,1.021,-0.128,3
-0.034,0.825,0.539,0.118,0.879,0.519,-0.003,0.988,-0.206,3
0.033,0.789,0.571,0.144,0.829,0.531,0.158,0.956,-0.263,3
0.011,0.854,0.58,0.083,0.798,0.546,0.045,0.955,-0.274,3
0.002,0.847,0.645,0.212,0.813,0.576,-0.027,0.962,-0.315,3
-0.088,0.771,0.615,0.116,0.754,0.667,0.131,0.973,-0.262,3
-0.011,0.886,0.617,0.026,0.798,0.66,0.032,0.989,-0.225,3
-0.09,0.794,0.427,0.251,0.877,0.649,0.118,1.16,-0.254,3
-0.009,0.78,0.55,-0.052,0.884,0.411,-0.217,0.714,-0.002,3
-0.029,0.787,0.46,0.031,0.908,0.617,0.135,1.104,-0.449,3
-0.105,0.783,0.704,-0.016,0.827,0.638,0.102,1.088,-0.211,3
0.004,0.815,0.642,-0.03,0.806,0.555,-0.096,0.907,-0.135,3
0.003,0.822,0.599,0.089,0.734,0.657,-0.139,0.819,-0.006,3
0.053,0.857,0.565,0.015,0.818,0.667,0.318,0.892,0.053,3
0.058,0.881,0.46,0.051,0.688,0.586,0.025,1.021,0.294,3
0.191,0.848,0.462,0.199,0.768,0.682,-0.105,0.854,0.118,3
0.107,0.856,0.539,0.147,0.779,0.605,-0.237,1.589,0.245,3
0.098,0.844,0.53,0.289,0.714,0.665,0.081,0.718,-0.388,3
0.222,0.847,0.572,0.157,0.774,0.554,-0.004,0.979,-0.146,3
0.055,0.821,0.543,0.322,0.754,0.806,0.052,0.996,-0.168,3
0.022,0.879,0.582,-0.066,0.693,1.064,0.118,0.94,-0.208,3
-0.134,0.848,0.572,-0.162,0.633,0.733,0.016,0.946,-0.272,3
-0.091,0.824,0.442,-0.053,0.677,0.565,0.032,0.969,-0.243,3
-0.209,0.809,0.534,0.209,0.825,0.818,0.096,0.955,-0.284,3
-0.15,0.811,0.527,-0.093,0.826,0.528,0.049,0.992,-0.287,3
-0.178,0.773,0.624,-0.006,0.803,0.468,0.041,1.183,-0.186,3
-0.192,0.856,0.625,-0.026,0.81,0.531,-0.056,0.903,0.313,3
-0.17,0.833,0.609,-0.133,0.808,0.704,0.168,1.107,-0.384,3
-0.17,0.895,0.584,-0.145,0.811,0.572,0.041,1.037,-0.296,3
-0.087,0.914,0.625,-0.054,0.716,0.591,-0.127,0.975,-0.146,3
-0.015,0.851,0.42,0.017,0.757,0.729,-0.193,0.833,-0.032,3
-0.107,0.878,0.6,0.06,0.765,0.783,0.241,0.805,0.046,3
0.01,0.826,0.493,0.129,0.762,0.57,0.06,0.961,0.308,3
-0.063,0.843,0.59,0.181,0.785,0.74,-0.284,1.953,-0.005,3
-0.155,0.746,0.526,0.114,0.832,0.705,0.128,0.804,-0.387,3
-0.099,0.852,0.647,0.153,0.764,0.751,0.123,1.006,-0.109,3
-0.149,0.849,0.597,0.043,0.744,0.716,0.146,1.035,-0.06,3
-0.136,0.796,0.489,0.048,0.711,0.583,0.083,1.0,-0.146,3
-0.18,0.852,0.523,0.054,0.74,0.707,-0.065,0.935,-0.341,3
-0.255,0.777,0.613,-0.057,0.79,0.632,0.063,0.961,-0.281,3
-0.164,0.823,0.524,-0.109,0.814,0.461,0.051,0.999,-0.162,3
-0.309,0.807,0.54,-0.111,0.875,0.667,0.305,1.319,-0.308,3
-0.166,0.842,0.621,-0.093,0.836,0.581,-0.197,0.821,-0.227,3
-0.195,0.833,0.64,-0.084,0.754,0.621,0.11,1.05,-0.444,3
-0.161,0.824,0.43,-0.121,0.697,0.52,0.032,1.059,-0.195,3
0.075,0.841,0.45,-0.17,0.812,0.682,-0.213,0.965,-0.079,3
0.027,0.829,0.432,-0.137,0.744,0.683,-0.049,0.885,-0.042,3
-0.024,0.855,0.558,-0.107,0.72,0.628,0.194,0.868,0.082,3
-0.009,0.836,0.636,0.104,0.728,0.675,0.033,1.021,0.493,3
-0.035,0.798,0.599,0.046,0.747,0.493,-0.415,1.059,-0.222,3
-0.009,0.833,0.667,0.045,0.823,0.64,-0.038,0.402,-0.256,3
-0.098,0.844,0.521,0.04,0.767,0.676,0.162,1.003,0.222,3
-0.21,0.801,0.518,0.029,0.746,0.696,0.071,1.068,0.057,3
-0.199,0.843,0.387,-0.094,0.767,0.564,0.092,0.967,-0.2,3
-0.37,0.819,0.66,0.057,0.796,0.582,0.0,0.997,-0.219,3
-0.282,0.807,0.449,-0.024,0.836,0.715,0.064,0.991,-0.201,3
-0.373,0.82,0.583,0.019,0.889,0.645,0.012,1.036,-0.185,3
-0.248,0.813,0.621,-0.084,0.848,0.305,0.179,1.078,-0.048,3
-0.324,0.75,0.504,-0.307,0.796,0.712,-0.241,1.111,-0.038,3
-0.242,0.796,0.563,-0.125,0.84,0.478,0.367,1.104,-0.481,3
-0.293,0.851,0.6,-0.161,0.845,0.473,0.072,1.074,-0.239,3
-0.101,0.805,0.283,-0.093,0.829,0.557,-0.09,0.944,-0.189,3
-0.197,0.85,0.542,-0.149,0.809,0.538,-0.072,0.871,-0.085,3
-0.097,0.868,0.525,-0.01,0.74,0.542,0.048,0.88,0.03,3
-0.115,0.804,0.564,0.042,0.838,0.648,-0.014,0.891,0.235,3
-0.121,0.81,0.568,0.034,0.791,0.523,0.057,0.83,0.21,3
-0.14,0.839,0.56,0.074,0.888,0.6,-0.506,2.197,0.3,3
-0.122,0.759,0.603,0.044,0.832,0.52,0.162,0.923,-0.348,3
-0.178,0.828,0.541,0.077,0.871,0.58,0.189,1.011,-0.257,3
-0.333,0.839,0.507,0.068,0.83,0.682,0.029,0.996,-0.098,3
-0.229,0.819,0.384,0.053,0.877,0.645,0.122,1.018,-0.111,3
-0.398,0.839,0.547,0.177,0.912,0.643,0.047,0.951,-0.25,3
-0.31,0.837,0.447,0.103,0.78,0.545,0.059,0.94,-0.258,3
-0.293,0.823,0.504,-0.098,0.813,0.567,0.011,1.006,-0.212,3
-0.216,0.831,0.505,0.176,0.913,0.433,0.092,1.033,-0.184,3
-0.195,0.83,0.537,-0.031,0.89,0.545,-0.117,1.333,-0.003,3
-0.157,0.785,0.524,0.039,0.843,0.534,-0.08,0.891,-0.246,3
-0.186,0.833,0.555,-0.005,0.816,0.481,0.125,1.089,-0.422,3
-0.159,0.862,0.516,-0.039,0.951,0.597,0.022,1.038,-0.143,3
-0.009,0.817,0.418,0.103,0.772,0.482,-0.167,0.937,-0.067,3
-0.021,0.849,0.613,0.235,0.858,0.65,-0.025,0.868,0.014,3
0.073,0.864,0.459,0.238,0.793,0.38,0.256,0.925,0.186,3
0.049,0.813,0.545,0.359,0.824,0.463,0.088,1.064,0.399,3
0.026,0.827,0.55,0.211,0.856,0.581,-0.312,2.472,0.928,3
0.032,0.802,0.599,0.361,0.836,0.396,0.485,1.112,-0.145,3
-0.002,0.792,0.557,0.266,0.882,0.451,0.093,1.006,-0.082,3
-0.053,0.786,0.623,0.442,0.836,0.466,0.028,0.978,0.081,3
-0.215,0.863,0.532,0.457,0.831,0.466,0.108,0.973,-0.101,3
-0.147,0.827,0.449,0.284,0.906,0.375,-0.053,1.021,-0.14,3
-0.254,0.795,0.598,0.26,0.864,0.324,0.17,0.977,-0.138,3
-0.23,0.783,0.545,0.349,0.896,0.333,0.046,0.997,-0.155,3
-0.272,0.761,0.62,0.25,0.867,0.436,0.24,1.218,-0.26,3
-0.226,0.768,0.577,0.164,0.914,0.494,-0.157,0.919,0.198,3
-0.241,0.729,0.596,0.125,0.9,0.475,0.428,1.141,-0.407,3
-0.231,0.756,0.707,0.079,0.897,0.431,0.081,0.989,-0.264,3
-0.17,0.801,0.632,0.158,0.838,0.469,-0.051,0.975,-0.179,3
-0.253,0.803,0.565,0.221,0.869,0.502,-0.104,0.878,0.0,3
-0.06,0.832,0.473,0.202,0.895,0.439,0.041,0.906,0.043,3
-0.124,0.827,0.576,0.184,0.88,0.536,0.076,0.875,0.093,3
-0.002,0.784,0.544,0.253,0.829,0.489,0.118,1.776,0.037,3
-0.01,0.809,0.602,0.185,0.826,0.521,-0.026,0.925,-0.207,3
0.003,0.813,0.615,0.204,0.826,0.645,0.179,0.988,-0.158,3
-0.002,0.796,0.639,0.085,0.871,0.519,0.023,1.029,-0.147,3
-0.021,0.789,0.626,0.258,0.826,0.685,0.2,0.95,-0.22,3
-0.165,0.876,0.586,0.239,0.856,0.483,0.035,0.949,-0.198,3
-0.103,0.831,0.497,0.213,0.793,0.43,0.018,0.973,-0.25,3
-0.205,0.852,0.603,0.121,0.912,0.53,0.055,0.991,-0.288,3
-0.108,0.818,0.62,0.333,0.791,0.434,0.018,1.011,-0.19,3
-0.118,0.795,0.606,0.076,0.912,0.623,0.119,1.208,-0.046,3
-0.027,0.803,0.568,0.188,0.818,0.639,-0.146,0.98,-0.094,3
-0.042,0.8,0.571,0.232,0.767,0.623,-0.047,1.008,-0.369,3
0.029,0.788,0.598,0.238,0.81,0.598,-0.002,1.019,-0.192,3
0.019,0.804,0.53,0.151,0.765,0.667,-0.181,0.933,-0.022,3
0.087,0.842,0.598,0.358,0.689,0.464,-0.079,0.898,0.034,3
0.135,0.811,0.528,0.228,0.778,0.591,0.071,0.894,0.016,3
0.085,0.864,0.556,0.3,0.728,0.473,0.066,1.004,0.264,3
0.107,0.794,0.59,0.245,0.738,0.643,-0.32,1.302,-0.254,3
0.147,0.806,0.608,0.268,0.727,0.57,0.294,0.804,-0.178,3
0.076,0.802,0.554,0.183,0.741,0.7,0.127,1.047,-0.192,3
0.009,0.867,0.7,0.004,0.799,0.652,0.063,0.978,-0.26,3
0.006,0.785,0.566,0.126,0.99,0.596,0.137,0.927,-0.25,3
-0.278,0.873,0.542,0.182,0.76,0.618,0.048,0.948,-0.314,3
0.062,0.818,0.433,-0.442,0.491,0.371,0.153,0.959,-0.315,3
-0.45,0.856,0.548,0.198,0.858,0.438,0.078,0.96,-0.31,3
-0.229,0.824,0.51,0.215,0.841,0.617,-0.001,1.023,-0.135,3
-0.273,0.786,0.54,-0.064,0.792,0.539,0.234,1.503,0.244,3
-0.273,0.787,0.492,-0.059,0.787,0.544,0.113,1.106,-0.385,3
-0.292,0.846,0.559,0.163,0.656,0.591,-0.029,1.054,-0.41,3
-0.18,0.802,0.574,0.063,0.81,0.746,0.042,0.958,-0.223,3
-0.138,0.892,0.638,0.047,0.813,0.517,-0.203,0.816,-0.024,3
-0.112,0.816,0.231,0.104,0.725,0.708,0.02,0.861,-0.043,3
-0.08,0.8,0.614,0.028,0.801,0.573,0.259,0.901,0.178,3
0.013,0.838,0.477,-0.008,0.818,0.656,-0.193,0.938,-0.196,3
-0.042,0.852,0.644,0.069,0.726,0.707,-0.168,0.675,-0.208,3
-0.031,0.849,0.561,0.074,0.738,0.516,0.146,1.086,-0.166,3
-0.089,0.84,0.594,0.09,0.757,0.631,0.267,1.012,-0.102,3
-0.081,0.845,0.525,0.058,0.808,0.599,0.135,0.966,-0.232,3
-0.396,0.923,0.711,-0.114,0.866,0.401,0.159,0.947,-0.272,3
-0.224,0.831,0.461,-0.273,0.754,0.428,0.08,0.961,-0.267,3
-0.372,0.863,0.582,-0.221,0.748,0.466,0.095,0.936,-0.281,3
-0.078,0.808,0.492,-0.358,0.754,0.529,0.094,0.996,-0.282,3
-0.26,0.86,0.684,-0.12,0.761,0.566,0.184,1.149,-0.134,3
-0.211,0.806,0.541,-0.21,0.855,0.675,-0.228,0.882,-0.126,3
-0.094,0.818,0.548,-0.101,0.799,0.617,-0.037,0.977,-0.265,3
-0.216,0.813,0.514,0.051,0.843,0.658,-0.065,1.018,-0.268,3
-0.158,0.881,0.593,-0.196,0.832,0.633,-0.332,1.001,-0.131,3
0.04,0.861,0.372,-0.12,0.866,0.575,0.069,1.03,0.026,3
-0.022,0.85,0.631,-0.035,0.796,0.458,0.102,0.898,0.058,3
-0.036,0.877,0.497,-0.123,0.826,0.471,-0.094,0.801,0.108,3
-0.036,0.845,0.61,-0.027,0.849,0.632,0.177,0.898,0.1,3
-0.023,0.842,0.527,-0.079,0.816,0.599,0.604,1.13,0.255,3
0.0,0.846,0.521,-0.131,0.853,0.561,-0.238,0.871,0.057,3
-0.039,0.81,0.602,-0.12,0.867,0.484,0.058,1.073,-0.023,3
-0.16,0.848,0.594,-0.072,0.857,0.552,0.107,0.944,-0.169,3
-0.271,0.902,0.49,-0.237,0.947,0.264,0.14,1.006,-0.157,3
-0.059,0.866,0.437,-0.165,0.923,0.471,0.152,0.956,-0.195,3
-0.275,0.846,0.481,-0.185,0.844,0.365,0.061,1.028,-0.212,3
-0.28,0.83,0.462,-0.322,0.881,0.489,0.045,0.957,-0.318,3
-0.285,0.809,0.5,-0.183,0.884,0.38,0.106,0.984,-0.129,3
-0.27,0.837,0.57,-0.133,0.83,0.477,0.142,1.097,0.269,3
-0.209,0.832,0.571,-0.165,0.934,0.435,-0.033,0.975,-0.071,3
-0.21,0.812,0.537,-0.2,0.958,0.676,0.009,1.065,-0.267,3
-0.276,0.871,0.537,-0.042,0.929,0.483,-0.053,1.087,-0.2,3
-0.157,0.875,0.419,-0.064,0.943,0.503,-0.097,0.771,-0.242,3
0.027,0.87,0.583,0.049,0.859,0.438,-0.014,0.705,-0.116,3
-0.099,0.879,0.502,0.139,0.834,0.538,0.146,1.032,0.788,3
-0.1,0.852,0.537,0.166,0.832,0.502,-0.13,1.613,-0.007,3
0.024,0.812,0.586,0.113,0.809,0.501,0.025,0.709,-0.572,3
-0.143,0.866,0.568,0.106,0.853,0.544,0.072,1.022,-0.089,3
-0.027,0.821,0.61,0.056,0.839,0.646,-0.0,1.054,-0.02,3
-0.138,0.813,0.584,-0.003,0.908,0.543,0.158,0.952,-0.277,3
-0.196,0.874,0.566,-0.012,0.944,0.43,0.0,0.996,-0.183,3
-0.169,0.878,0.579,0.019,0.918,0.484,0.13,0.965,-0.244,3
-0.164,0.839,0.473,-0.003,0.884,0.439,0.08,0.975,-0.286,3
-0.179,0.837,0.6,0.062,0.863,0.484,-0.042,0.971,-0.232,3
-0.178,0.801,0.547,0.002,0.874,0.611,0.005,1.317,0.151,3
0.469,0.698,0.433,0.15,0.88,0.547,0.145,1.021,-0.288,3
-0.214,0.845,0.616,0.162,0.833,0.518,-0.048,1.069,-0.335,3
0.064,0.811,0.539,0.241,0.857,0.569,-0.128,1.031,-0.16,3
0.05,0.858,0.558,0.101,0.81,0.556,-0.323,0.852,-0.052,3
0.169,0.841,0.388,0.398,0.838,0.468,0.205,0.808,-0.068,3
0.166,0.875,0.523,0.208,0.889,0.568,0.149,0.988,0.225,3
0.018,0.904,0.502,0.293,0.86,0.344,-0.38,0.987,-0.264,3
0.113,0.851,0.534,0.251,0.838,0.388,0.039,0.648,-0.318,3
0.242,0.783,0.55,0.366,0.825,0.59,0.255,1.049,-0.171,3
0.21,0.855,0.561,0.248,0.826,0.409,0.021,0.94,-0.202,3
0.178,0.808,0.609,0.154,0.915,0.489,0.15,0.959,-0.241,3
0.104,0.881,0.596,0.178,0.921,0.42,-0.035,0.966,-0.273,3
-0.138,0.911,0.454,0.022,0.94,0.443,0.082,0.956,-0.253,3
-0.074,0.83,0.504,0.199,0.884,0.432,0.097,0.935,-0.275,3
-0.139,0.858,0.579,0.072,0.857,0.498,0.073,1.043,-0.153,3
-0.167,0.796,0.579,0.205,0.798,0.539,0.11,1.027,0.066,3
-0.126,0.822,0.684,0.087,0.919,0.472,0.136,1.075,-0.447,3
-0.122,0.806,0.601,0.277,0.878,0.427,-0.212,1.068,-0.333,3
-0.087,0.789,0.708,0.165,0.88,0.318,-0.176,1.005,-0.096,3
0.112,0.757,0.618,0.35,0.854,0.408,0.009,0.979,-0.025,3
-0.097,0.827,0.742,0.159,0.856,0.382,0.096,0.875,-0.063,3
-0.165,0.816,0.649,0.265,0.848,0.449,0.09,0.9,0.033,3
-0.034,0.843,0.519,0.369,0.985,0.589,0.026,1.047,0.527,3
-0.068,0.849,0.555,0.169,0.891,0.429,-0.242,1.09,-0.367,3
-0.092,0.857,0.556,0.232,1.061,0.369,0.05,0.628,-0.368,3
0.011,0.821,0.532,0.14,0.88,0.438,0.012,1.037,0.042,3
0.024,0.802,0.611,-0.009,0.786,0.393,0.14,0.979,-0.146,3
-0.037,0.872,0.653,-0.134,0.86,0.435,0.179,0.997,-0.126,3
-0.067,0.844,0.598,0.114,0.813,0.504,0.058,0.979,-0.203,3
-0.098,0.823,0.525,-0.022,0.863,0.498,0.052,1.007,-0.209,3
-0.257,0.833,0.566,0.191,0.825,0.665,0.082,0.972,-0.24,3
-0.25,0.821,0.534,0.192,0.916,0.542,0.131,0.91,-0.22,3
-0.152,0.801,0.656,0.049,0.804,0.407,0.288,1.232,0.082,3
-0.17,0.752,0.656,0.12,0.747,0.495,-0.061,0.953,-0.084,3
-0.218,0.821,0.638,0.094,0.853,0.622,0.117,1.054,-0.457,3
-0.16,0.803,0.626,0.226,0.897,0.735,0.091,0.969,-0.254,3
-0.24,0.789,0.548,0.27,0.836,0.503,-0.245,0.97,-0.0,3
-0.234,0.881,0.631,0.181,0.846,0.484,-0.088,0.923,0.003,3
-0.063,0.832,0.585,0.015,0.873,0.569,0.18,0.945,0.001,3
-0.448,1.138,0.5,-0.049,0.914,0.678,0.039,1.063,0.369,3
-0.193,1.04,0.678,0.027,0.891,0.319,0.02,1.196,-0.124,3
-0.583,0.674,0.445,0.085,0.784,0.558,0.095,1.064,-0.201,3
-0.681,0.366,0.408,-0.026,0.826,0.663,0.032,1.017,-0.063,3
-0.436,0.273,0.46,0.11,0.81,0.667,0.009,0.958,-0.219,3
-0.498,0.094,0.479,0.074,0.793,0.506,0.059,1.008,-0.118,3
-0.996,0.217,0.479,-0.163,0.835,0.553,0.101,0.988,-0.192,3
-0.835,0.183,0.747,0.13,0.872,0.661,-0.132,0.969,-0.288,3
-0.997,0.117,0.248,0.102,0.777,0.619,0.044,0.941,-0.308,3
-0.991,-0.085,0.059,0.12,0.847,0.681,0.08,0.989,-0.243,3
-1.052,0.023,0.302,0.186,0.856,0.654,0.032,1.009,-0.326,3
-1.254,0.177,0.093,0.067,0.782,0.659,-0.177,1.09,-0.088,3
-0.787,0.077,0.306,0.123,0.758,0.565,-0.068,1.002,-0.141,3
-0.564,-0.188,0.517,0.201,0.771,0.638,-0.164,1.022,-0.32,3
-0.182,0.32,0.749,0.178,0.831,0.5,0.001,1.003,-0.185,3
-0.771,0.714,0.629,0.036,0.823,0.293,-0.056,1.043,-0.065,3
-0.637,1.015,0.391,-0.01,0.837,0.655,-0.045,0.926,-0.002,3
-0.327,1.118,0.981,0.037,0.882,0.633,0.103,0.906,-0.008,3
0.07,0.746,0.74,-0.168,0.726,0.574,0.041,0.86,0.153,3
-0.009,0.832,0.498,0.088,0.787,0.585,0.062,1.024,0.274,3
0.13,0.741,0.61,-0.116,0.838,0.625,-0.094,1.49,0.186,3
0.017,0.725,0.694,0.016,0.87,0.5,0.119,0.852,-0.261,3
0.122,0.846,0.511,-0.017,0.864,0.699,0.04,0.992,-0.18,3
-0.101,0.773,0.655,0.058,0.727,0.396,0.086,0.962,-0.235,3
-0.144,0.829,0.624,0.172,0.866,0.622,0.166,1.008,-0.128,3
-0.148,0.777,0.535,0.03,0.802,0.533,0.084,0.927,-0.344,3
-0.166,0.82,0.504,0.141,0.818,0.619,0.038,0.963,-0.313,3
-0.138,0.796,0.617,-0.085,0.768,0.534,0.053,0.991,-0.267,3
-0.097,0.791,0.65,-0.032,0.809,0.581,0.025,1.056,-0.166,3
-0.153,0.779,0.648,0.014,0.817,0.713,0.055,1.326,0.193,3
-0.146,0.753,0.644,-0.036,0.938,0.549,0.068,1.059,-0.49,3
-0.131,0.839,0.628,-0.047,0.911,0.525,0.1,1.042,-0.299,3
-0.175,0.91,0.613,0.021,0.874,0.495,-0.082,0.956,-0.129,3
-0.019,0.843,0.44,-0.055,0.861,0.612,-0.071,0.848,0.0,3
0.078,0.842,0.469,0.064,0.853,0.537,0.145,0.871,0.019,3
-0.041,0.832,0.559,0.099,0.859,0.589,0.025,0.938,0.293,3
0.055,0.813,0.567,0.03,0.875,0.6,-0.107,0.926,-0.127,3
-0.008,0.792,0.547,0.153,0.799,0.435,-0.007,0.57,-0.234,3
-0.029,0.763,0.614,-0.025,0.88,0.551,0.009,1.072,0.294,3
-0.151,0.783,0.662,0.147,0.873,0.44,0.063,0.966,-0.416,3
-0.134,0.835,0.583,0.21,0.88,0.566,0.201,0.963,-0.243,3
-0.308,0.84,0.51,0.126,0.86,0.602,0.067,1.052,0.004,3
-0.293,0.823,0.494,0.296,0.82,0.451,-0.012,1.008,-0.21,3
-0.223,0.812,0.559,-0.093,0.946,0.595,0.102,0.971,-0.214,3
-0.244,0.754,0.592,-0.136,0.839,0.617,0.033,0.971,-0.228,3
-0.33,0.819,0.591,0.116,0.94,0.277,0.196,1.333,-0.037,3
-0.146,0.709,0.577,-0.042,0.958,0.636,-0.153,0.885,-0.137,3
-0.285,0.789,0.594,0.093,0.838,0.507,0.111,1.073,-0.407,3
-0.038,0.823,0.544,-0.065,0.843,0.576,0.125,1.01,-0.254,3
-0.076,0.88,0.629,0.148,0.838,0.553,-0.065,0.984,-0.063,3
-0.032,0.841,0.361,-0.013,0.876,0.587,-0.06,0.906,-0.048,3
-0.057,0.894,0.534,-0.063,0.897,0.411,0.013,0.842,-0.059,3
0.016,0.776,0.479,0.169,0.836,0.472,0.021,0.936,0.203,3
-0.048,0.828,0.579,-0.031,0.876,0.512,0.109,0.974,0.327,3
-0.049,0.856,0.603,0.196,0.783,0.467,-0.24,1.617,0.258,3
-0.085,0.837,0.622,0.087,0.84,0.586,0.179,0.971,-0.22,3
-0.106,0.791,0.609,0.133,0.847,0.5,0.158,0.936,-0.223,3
-0.284,0.875,0.532,0.217,0.837,0.509,0.178,1.022,-0.035,3
-0.174,0.77,0.416,0.079,0.899,0.497,0.048,0.962,-0.197,3
-0.37,0.788,0.65,0.065,0.912,0.198,0.038,0.958,-0.291,3
-0.192,0.78,0.525,0.148,0.805,0.5,0.139,0.96,-0.279,3
-0.294,0.809,0.622,0.174,0.835,0.4,0.044,0.969,-0.26,3
-0.271,0.795,0.553,0.09,0.859,0.52,0.06,0.95,-0.28,3
-0.262,0.827,0.583,0.175,0.788,0.526,0.092,1.126,-0.318,3
-0.187,0.766,0.559,0.252,0.819,0.605,-0.12,0.896,-0.346,3
-0.244,0.816,0.599,0.214,0.911,0.626,0.173,0.972,-0.218,3
-0.123,0.86,0.593,0.271,0.811,0.394,-0.137,1.003,-0.163,3
-0.054,0.828,0.459,0.305,0.839,0.403,0.01,1.059,-0.127,3
-0.086,0.831,0.565,0.316,0.827,0.553,0.087,1.031,-0.125,3
-0.014,0.861,0.508,0.248,0.787,0.491,-0.039,0.96,-0.047,3
-0.002,0.822,0.583,0.189,0.789,0.345,-0.042,0.795,-0.11,3
-0.003,0.785,0.649,0.293,0.827,0.505,0.009,0.859,0.111,3
-0.061,0.769,0.63,0.319,0.814,0.521,-0.182,0.893,-0.166,3
-0.042,0.725,0.599,0.227,0.889,0.551,0.115,0.916,-0.067,3
-0.112,0.789,0.662,0.188,0.857,0.323,-0.02,1.031,-0.135,3
-0.276,0.855,0.571,0.104,0.873,0.56,0.058,1.014,-0.123,3
-0.179,0.8,0.51,0.203,0.808,0.444,0.154,0.968,-0.22,3
-0.314,0.794,0.569,0.274,0.839,0.63,-0.009,0.955,-0.277,3
-0.254,0.786,0.562,0.1,0.795,0.583,0.078,0.996,-0.229,3
-0.32,0.787,0.66,0.161,0.772,0.613,0.063,0.967,-0.232,3
-0.209,0.723,0.61,0.174,0.79,0.613,-0.004,0.996,-0.222,3
-0.295,0.743,0.737,0.128,0.835,0.481,0.189,1.102,-0.165,3
-0.182,0.704,0.594,0.04,0.841,0.625,-0.38,1.141,-0.078,3
-0.211,0.742,0.603,0.174,0.81,0.621,0.215,1.02,-0.316,3
-0.346,0.833,0.621,0.116,0.785,0.534,0.104,1.008,-0.346,3
-0.146,0.822,0.501,0.163,0.776,0.673,-0.103,1.013,-0.136,3
-0.144,0.814,0.504,0.052,0.791,0.637,-0.121,1.07,0.037,3
-0.205,0.788,0.582,0.094,0.842,0.644,0.02,0.941,0.007,3
-0.083,0.8,0.57,-0.142,0.771,0.649,0.153,0.86,0.027,3
-0.113,0.794,0.625,0.127,0.901,0.511,0.014,0.916,0.163,3
-0.061,0.78,0.636,0.01,0.876,0.755,0.036,0.927,0.18,3
-0.098,0.766,0.577,0.089,0.865,0.614,-0.009,1.529,0.333,3
-0.164,0.759,0.669,-0.235,0.839,0.627,0.045,0.674,-0.5,3
-0.292,0.792,0.631,-0.053,0.824,0.585,0.11,0.996,-0.092,3
-0.307,0.818,0.412,-0.11,0.809,0.607,0.043,0.904,-0.28,3
-0.261,0.797,0.508,-0.05,0.79,0.572,0.084,0.985,-0.188,3
-0.277,0.745,0.563,0.034,0.81,0.555,0.027,0.961,-0.267,3
-0.256,0.765,0.619,-0.118,0.809,0.677,0.107,1.008,-0.253,3
-0.234,0.8,0.57,0.023,0.801,0.552,0.083,0.956,-0.245,3
-0.201,0.791,0.607,-0.042,0.774,0.786,0.071,0.958,-0.287,3
-0.201,0.756,0.62,-0.162,0.713,0.526,0.082,0.974,-0.254,3
-0.148,0.777,0.628,-0.025,0.716,0.655,0.099,1.133,-0.243,3
-0.357,0.908,0.579,-0.018,0.91,0.545,-0.158,0.871,-0.092,3
-0.054,0.799,0.359,0.092,0.863,0.465,0.159,0.993,-0.259,3
-0.218,0.78,0.65,-0.195,0.813,0.64,0.175,1.061,-0.426,3
-0.142,0.806,0.492,-0.104,0.785,0.564,-0.052,0.999,-0.185,3
-0.083,0.792,0.642,-0.104,0.784,0.705,-0.114,1.068,0.046,3
-0.108,0.793,0.624,-0.12,0.768,0.607,-0.038,0.938,-0.016,3
-0.084,0.815,0.584,-0.11,0.707,0.525,0.164,0.772,-0.075,3
-0.067,0.783,0.646,0.008,0.845,0.549,0.148,0.953,0.187,3
-0.043,0.774,0.687,-0.011,0.789,0.652,0.106,0.917,0.222,3
-0.283,0.782,0.627,-0.006,0.772,0.807,-0.185,1.201,0.139,3
-0.176,0.778,0.608,0.015,0.751,0.616,0.13,0.969,-0.058,3
-0.214,0.805,0.64,-0.019,0.755,0.712,0.094,0.98,-0.306,3
-0.273,0.71,0.578,-0.077,0.758,0.717,0.104,1.051,0.04,3
-0.191,0.736,0.612,0.069,0.868,0.505,0.133,0.952,-0.281,3
-0.123,0.773,0.616,0.084,0.781,0.722,0.058,0.974,-0.27,3
-0.119,0.747,0.601,-0.133,0.759,0.5,0.088,0.974,-0.254,3
0.031,0.762,0.676,-0.122,0.871,0.652,0.085,0.981,-0.246,3
0.047,0.781,0.719,-0.124,0.806,0.524,0.053,1.003,-0.22,3
0.152,0.837,0.388,-0.223,0.84,0.537,-0.102,1.258,-0.075,3
0.092,0.769,0.696,-0.15,0.78,0.562,-0.011,0.857,-0.33,3
0.054,0.823,0.592,-0.283,0.821,0.604,0.174,1.05,-0.333,3
0.129,0.844,0.641,-0.278,0.743,0.625,-0.203,0.991,-0.188,3
0.113,0.786,0.597,-0.178,0.819,0.663,-0.015,1.043,-0.084,3
-0.068,0.754,0.658,-0.146,0.835,0.553,0.002,0.959,-0.04,3
-0.018,0.798,0.706,-0.126,0.83,0.654,0.082,0.891,-0.079,3
-0.235,0.719,0.358,-0.236,0.78,0.602,0.019,0.886,0.082,3
-0.213,0.928,0.626,-0.271,0.809,0.598,0.103,0.913,0.234,3
-0.161,0.821,0.528,-0.263,0.757,0.492,-0.165,2.094,0.228,3
-0.208,0.79,0.559,-0.258,0.836,0.545,0.161,0.879,-0.336,3
-0.204,0.773,0.685,-0.291,0.865,0.347,0.368,1.734,0.848,3
-0.152,0.767,0.664,-0.354,0.822,0.583,-0.242,1.068,-0.071,3
-0.304,0.76,0.596,-0.353,0.797,0.442,0.03,1.008,-0.051,3
-0.11,0.789,0.635,-0.381,0.789,0.515,0.17,1.021,-0.072,3
-0.075,0.8,0.6,-0.436,0.816,0.516,0.086,0.975,-0.146,3
-0.01,0.907,0.598,-0.325,0.767,0.496,0.057,0.987,-0.178,3
0.013,0.871,0.333,-0.361,0.856,0.597,0.083,0.994,-0.205,3
0.019,0.882,0.606,-0.238,0.748,0.555,0.105,1.274,-0.017,3
0.033,0.815,0.399,-0.236,0.835,0.5,-0.102,0.813,-0.331,3
0.028,0.821,0.636,-0.111,0.798,0.598,0.131,0.999,-0.209,3
0.023,0.776,0.597,-0.124,0.745,0.573,0.018,1.023,-0.185,3
-0.06,0.866,0.64,-0.24,0.771,0.528,0.002,1.051,-0.134,3
0.002,0.776,0.588,-0.099,0.762,0.511,-0.108,0.987,-0.099,3
-0.131,0.845,0.58,-0.249,0.833,0.581,-0.095,0.825,-0.078,3
-0.078,0.795,0.509,-0.308,0.817,0.604,0.112,0.855,0.113,3
-0.228,0.8,0.572,-0.285,0.869,0.429,0.273,1.075,0.51,3
-0.184,0.859,0.636,-0.343,0.846,0.535,0.157,1.885,0.159,3
-0.359,0.856,0.519,-0.244,0.87,0.523,-0.016,0.814,-0.507,3
-0.214,0.826,0.5,-0.37,0.826,0.517,0.179,0.993,-0.089,3
-0.299,0.863,0.548,-0.232,0.832,0.52,0.1,0.987,-0.143,3
-0.165,0.839,0.607,-0.314,0.883,0.543,0.171,0.919,-0.313,3
-0.177,0.779,0.614,-0.09,0.795,0.491,0.073,0.982,-0.195,3
-0.315,0.823,0.517,-0.126,0.86,0.472,0.052,0.969,-0.254,3
-0.091,0.882,0.386,0.033,0.889,0.533,0.075,0.962,-0.277,3
-0.117,0.887,0.549,-0.098,0.9,0.557,0.042,0.937,-0.293,3
-0.137,0.858,0.485,0.039,0.878,0.583,0.064,1.144,-0.378,3
-0.146,0.917,0.63,0.184,0.778,0.569,-0.022,0.997,-0.017,3
-0.089,0.796,0.598,0.184,0.808,0.567,-0.054,1.004,-0.087,3
-0.207,0.83,0.616,0.061,0.817,0.495,-0.036,1.105,-0.491,3
-0.19,0.711,0.635,0.194,0.873,0.44,0.018,1.071,-0.229,3
-0.183,0.778,0.557,0.222,0.923,0.247,-0.201,0.938,-0.062,3
-0.298,0.843,0.587,0.104,0.935,0.551,-0.04,0.876,-0.0,3
-0.259,0.749,0.419,0.185,0.881,0.406,0.26,0.849,0.028,3
-0.446,0.787,0.588,0.138,0.858,0.499,0.015,1.002,0.316,3
-0.329,0.796,0.498,0.274,0.832,0.396,0.021,0.924,0.17,3
-0.34,0.74,0.493,0.349,0.889,0.511,0.021,0.806,0.273,3
-0.35,0.757,0.613,0.343,0.922,0.555,0.084,0.962,0.129,3
-0.261,0.783,0.556,0.281,0.872,0.319,0.357,1.437,-0.447,3
-0.288,0.744,0.696,0.487,0.886,0.385,-0.025,0.984,-0.113,3
-0.298,0.749,0.568,0.384,0.809,0.383,0.121,0.988,-0.095,3
-0.391,0.717,0.476,0.543,0.845,0.215,-0.035,1.019,-0.03,3
-0.292,0.869,0.438,0.612,0.883,0.387,0.104,0.983,-0.13,3
-0.183,0.816,0.498,0.452,0.839,0.362,0.1,0.984,-0.205,3
-0.143,0.803,0.471,0.439,0.916,0.223,0.125,0.976,-0.238,3
-0.166,0.821,0.511,0.253,0.905,0.262,0.13,1.034,-0.286,3
-0.116,0.834,0.553,0.269,0.916,0.283,-0.113,1.098,-0.103,3
-0.12,0.789,0.621,0.354,0.901,0.245,-0.173,0.997,-0.155,3
-0.228,0.795,0.61,0.243,0.892,0.363,0.179,1.025,-0.268,3
-0.303,0.829,0.601,0.26,0.864,0.313,-0.027,1.0,-0.359,3
-0.28,0.843,0.477,0.186,0.874,0.674,-0.101,0.997,-0.129,3
-0.294,0.803,0.609,0.146,0.861,0.516,-0.095,1.04,0.008,3
-0.255,0.754,0.522,0.087,0.901,0.518,0.047,0.988,-0.012,3
-0.075,0.786,0.504,0.132,0.89,0.48,0.056,0.943,0.022,3
-0.184,0.806,0.625,0.187,0.854,0.576,-0.01,0.911,0.118,3
-0.162,0.782,0.63,0.041,0.866,0.41,0.071,0.881,0.112,3
-0.087,0.769,0.655,0.096,0.866,0.562,-2.213,12.474,0.204,3
0.015,0.755,0.634,0.176,0.816,0.515,0.047,0.43,-0.486,3
-0.192,0.808,0.553,0.085,0.848,0.529,0.402,0.95,-0.322,3
-0.037,0.794,0.497,0.041,0.818,0.483,-0.179,1.016,-0.015,3
-0.116,0.848,0.635,0.105,0.85,0.516,0.256,0.917,-0.266,3
-0.196,0.834,0.589,0.106,0.855,0.401,-0.109,0.981,-0.313,3
-0.026,0.82,0.603,-0.004,0.904,0.505,0.088,0.957,-0.288,3
-0.039,0.781,0.613,-0.044,0.89,0.566,0.023,0.956,-0.303,3
-0.002,0.759,0.639,-0.05,0.799,0.512,0.084,0.974,-0.211,3
-0.033,0.751,0.635,0.148,0.885,0.558,0.067,0.975,-0.268,3
-0.063,0.773,0.628,0.195,0.863,0.599,-0.129,1.159,-0.274,3
-0.154,0.818,0.608,0.151,0.88,0.471,-0.041,0.975,-0.221,3
-0.238,0.887,0.609,0.113,0.849,0.522,-0.08,0.938,-0.316,3
-0.103,0.859,0.455,0.225,0.856,0.505,-0.175,0.965,-0.298,3
-0.061,0.789,0.595,0.121,0.844,0.51,-0.149,0.976,-0.164,3
-0.022,0.769,0.593,0.085,0.824,0.564,-0.026,1.008,-0.069,3
-0.084,0.798,0.659,0.147,0.821,0.493,-0.127,1.042,-0.008,3
-0.078,0.718,1.021,0.176,0.828,0.505,-0.011,1.014,-0.077,3
0.062,0.755,0.575,0.146,0.893,0.484,-0.019,0.954,-0.068,3
-0.124,0.803,0.646,0.0,0.824,0.382,-0.011,0.896,-0.021,3
-0.035,0.884,0.551,0.024,0.866,0.503,0.005,0.928,0.033,3
-0.072,0.843,0.555,0.032,0.878,0.381,-0.474,1.416,0.24,3
-0.074,0.83,0.647,0.089,0.898,0.578,0.181,1.028,-0.16,3
-0.063,0.798,0.58,0.012,0.947,0.567,0.12,0.962,-0.217,3
0.0,0.815,0.632,0.068,0.893,0.526,-0.09,0.976,-0.128,3
-0.104,0.795,0.622,-0.004,0.836,0.494,0.007,1.025,-0.214,3
-0.15,0.846,0.687,0.108,0.875,0.542,0.058,0.967,-0.203,3
-0.154,0.703,0.667,0.048,0.872,0.446,0.026,0.958,-0.284,3
-0.248,0.841,0.637,0.224,0.872,0.469,0.001,0.978,-0.231,3
-0.333,0.823,0.434,0.181,0.834,0.439,0.01,0.958,-0.25,3
-0.225,0.809,0.542,0.326,0.816,0.524,0.089,0.979,-0.252,3
-0.402,0.766,0.459,0.192,0.813,0.504,0.005,1.061,-0.216,3
-0.285,0.759,0.674,0.163,0.847,0.521,-0.157,1.036,-0.107,3
-0.353,0.739,0.599,0.313,0.81,0.483,-0.003,0.961,0.052,3
-0.271,0.775,0.584,0.203,0.879,0.45,-0.01,1.039,-0.373,3
-0.281,0.773,0.653,0.258,0.847,0.448,-0.081,0.976,-0.148,3
-0.211,0.779,0.578,0.266,0.885,0.266,-0.137,0.996,-0.048,3
-0.154,0.88,0.516,0.137,0.971,0.49,-0.226,0.919,0.064,3
-0.126,0.858,0.42,0.236,0.882,0.421,0.121,0.956,0.081,3
-0.194,0.889,0.567,0.17,0.864,0.488,0.164,0.927,0.129,3
-0.101,0.824,0.56,0.166,0.873,0.407,-0.033,1.297,0.004,3
-0.067,0.835,0.533,0.264,0.787,0.382,0.052,0.913,-0.112,3
-0.04,0.821,0.674,0.456,0.784,0.416,0.117,1.023,-0.098,3
-0.052,0.779,0.704,0.167,0.956,0.466,-0.03,0.992,-0.188,3
-0.066,0.717,0.626,0.389,0.811,0.333,0.149,0.991,-0.179,3
-0.188,0.726,0.557,0.422,0.872,0.354,0.062,0.966,-0.269,3
-0.092,0.871,0.496,0.403,0.845,0.436,0.056,0.972,-0.217,3
-0.206,0.763,0.543,0.326,0.854,0.37,0.083,0.986,-0.206,3
-0.18,0.803,0.519,0.435,0.819,0.35,0.112,1.0,-0.171,3
-0.206,0.77,0.635,0.348,0.852,0.426,0.143,1.066,-0.253,3
-0.219,0.767,0.581,0.507,0.819,0.435,-0.039,1.105,-0.122,3
-0.148,0.812,0.685,0.29,0.932,0.518,-0.025,1.128,0.257,3
-0.274,0.761,0.653,0.24,0.902,0.201,-0.082,1.091,-0.356,3
-0.095,0.785,0.497,0.164,0.979,0.436,0.154,1.027,-0.15,3
-0.052,0.903,0.633,0.04,0.956,0.352,-0.021,0.989,-0.047,3
-0.014,0.818,0.541,0.158,0.885,0.457,-0.104,0.871,0.014,3
-0.06,0.842,0.487,0.152,0.878,0.391,0.111,0.905,0.103,3
-0.004,0.786,0.479,0.193,0.871,0.495,-0.011,0.903,0.186,3
-0.032,0.777,0.714,0.161,0.848,0.541,0.159,0.93,0.226,3
-0.167,0.749,0.704,0.251,0.87,0.373,-0.325,1.084,0.223,3
-0.113,0.735,0.708,0.248,0.832,0.543,0.048,1.015,-0.063,3
-0.19,0.714,0.491,0.114,0.901,0.462,0.15,0.989,-0.126,3
-0.333,0.815,0.601,0.189,0.896,0.41,0.142,0.981,-0.148,3
-0.211,0.78,0.432,0.202,0.87,0.531,0.063,0.933,-0.266,3
-0.409,0.791,0.552,0.222,0.815,0.563,-0.021,0.962,-0.242,3
-0.304,0.795,0.492,0.171,0.851,0.562,0.02,0.981,-0.231,3
-0.36,0.804,0.54,0.141,0.843,0.622,0.05,0.972,-0.252,3
-0.276,0.759,0.662,0.203,0.844,0.537,0.217,0.991,-0.285,3
-0.235,0.721,0.58,0.13,0.882,0.34,-0.151,1.091,-0.282,3
-0.175,0.779,0.669,0.092,0.851,0.457,-0.145,0.914,-0.07,3
-0.263,0.833,0.572,0.1,0.898,0.488,0.107,1.017,-0.273,3
-0.099,0.847,0.32,0.035,0.834,0.503,-0.052,0.993,-0.364,3
-0.114,0.838,0.657,0.0,0.866,0.542,-0.127,1.024,-0.094,3
-0.087,0.833,0.527,-0.032,0.845,0.557,-0.06,1.036,-0.022,3
0.035,0.791,0.569,0.112,0.803,0.618,-0.002,1.032,-0.049,3
-0.163,0.778,0.632,0.153,0.817,0.553,-0.027,0.917,0.013,3
-0.062,0.786,0.715,0.144,0.768,0.509,0.045,0.875,0.09,3
-0.109,0.767,0.58,0.124,0.869,0.565,0.138,0.864,0.064,3
-0.144,0.852,0.644,0.056,0.872,0.504,-0.639,1.566,0.092,3
-0.169,0.84,0.594,0.118,0.882,0.509,0.114,0.611,-0.511,3
-0.234,0.813,0.602,0.138,0.865,0.593,0.311,0.941,-0.043,3
-0.18,0.782,0.53,0.149,0.809,0.542,-0.096,0.978,-0.193,3
-0.273,0.841,0.605,0.135,0.816,0.561,0.18,0.994,-0.125,3
-0.195,0.775,0.643,0.118,0.82,0.575,-0.023,0.965,-0.313,3
-0.172,0.797,0.669,0.077,0.887,0.456,-0.084,0.965,-0.281,3
-0.169,0.775,0.606,0.071,1.01,0.357,0.088,0.995,-0.17,3
-0.058,0.795,0.728,0.057,0.89,0.458,-0.003,0.946,-0.376,3
-0.079,0.828,0.61,-0.107,0.917,0.385,0.066,1.011,-0.195,3
0.031,0.865,0.388,-0.074,0.905,0.506,0.025,1.136,-0.095,3
0.02,0.833,0.636,0.001,0.898,0.512,-0.385,0.929,-0.123,3
0.062,0.828,0.455,-0.07,0.896,0.427,0.421,1.104,-0.438,3
0.073,0.764,0.652,0.004,0.888,0.474,0.18,0.965,-0.135,3
-0.049,0.799,0.603,0.163,0.851,0.559,-0.16,1.013,0.039,3
-0.118,0.799,0.6,0.109,0.854,0.514,-0.063,1.006,0.254,3
-0.074,0.799,0.712,0.138,0.838,0.549,0.171,1.034,0.12,3
-0.152,0.879,0.573,0.168,0.871,0.474,0.03,0.88,-0.011,3
-0.304,0.844,0.544,0.219,0.88,0.603,-0.095,0.892,0.062,3
-0.325,0.835,0.568,0.142,0.854,0.515,-0.038,0.974,0.174,3
-0.309,0.786,0.555,0.153,0.854,0.51,-0.475,1.35,0.382,3
-0.282,0.78,0.637,0.154,0.892,0.403,0.3,1.001,-0.164,3
-0.246,0.797,0.59,0.102,0.882,0.378,0.125,1.03,-0.074,3
-0.186,0.752,0.576,0.141,0.895,0.497,-0.167,0.957,-0.104,3
-0.245,0.854,0.649,0.117,0.886,0.381,0.1,0.947,-0.266,3
-0.371,0.742,0.474,0.062,0.921,0.478,-0.098,0.989,-0.318,3
-0.39,0.83,0.51,0.034,0.896,0.466,-0.032,0.934,-0.318,3
-0.31,0.805,0.623,0.102,0.917,0.433,0.066,0.991,-0.12,3
-0.063,0.668,0.669,0.188,0.914,0.512,0.018,1.05,-0.044,3
-0.341,0.656,0.536,0.119,0.867,0.527,-0.086,1.251,-0.233,3
-0.617,0.726,0.246,0.128,0.938,0.476,0.024,0.985,0.065,3
-0.697,0.755,0.129,0.239,0.994,0.603,-0.094,0.991,-0.225,3
-0.627,0.691,0.085,0.01,0.938,0.51,0.208,0.992,-0.211,3
-0.608,0.827,0.194,0.253,0.715,0.539,-0.153,1.029,-0.075,3
-0.656,0.829,0.172,0.361,0.839,0.454,-0.293,0.892,-0.034,3
-0.579,0.779,0.282,0.106,0.854,0.543,-0.001,0.899,0.02,3
-0.578,0.825,0.211,0.039,0.631,0.514,0.0,0.874,0.181,3
-0.641,0.792,0.144,0.576,0.82,0.362,-0.291,1.056,-0.117,3
-0.656,0.753,0.134,0.688,0.861,0.131,-0.653,0.768,-0.317,3
-0.604,0.786,0.122,0.592,0.825,0.057,0.183,0.994,0.035,3
-0.665,0.758,0.106,0.457,0.889,0.188,0.0,0.965,-0.147,3
-0.594,0.739,0.127,0.642,0.762,0.168,0.04,0.946,-0.229,3
