sep=,
DeviceTag:,R_Wrist_n
FirmwareVersion:,2.2.1
AppVersion:,2023.6.0
SyncStatus:,Synced
OutputRate:,30Hz
FilterProfile:,General
Measurement Mode:,Sensor fusion Mode - Complete(Quaternion)
StartTime: ,2026-08-21_21:29:30_736 AEST
© Movella Technologies B. V. 2005-2026

PacketCounter,SampleTimeFine,Quat_W,Quat_X,Quat_Y,Quat_Z,FreeAcc_X,FreeAcc_Y,FreeAcc_Z
1,1868503499,-0.740256,0.095069,0.656642,0.108667,-0.711115,-2.501205,0.246509
2,1868536833,-0.753698,0.048677,0.651871,0.068107,-0.431445,-3.067970,1.008821
3,1868570167,-0.765956,-0.001653,0.642334,0.026838,0.485834,-3.745593,1.588392
4,1868603501,-0.777029,-0.055092,0.626904,-0.013646,1.924909,-3.807876,1.687333
5,1868636835,-0.787159,-0.106796,0.605311,-0.050769,3.375857,-3.532680,1.724950
6,1868670169,-0.797347,-0.150468,0.578653,-0.082230,4.556011,-3.086108,1.414079
7,1868703503,-0.808721,-0.181050,0.549330,-0.106917,5.410283,-2.517288,0.772506
8,1868736837,-0.822211,-0.195003,0.520023,-0.124593,5.984440,-1.777323,-0.668037
9,1868770171,-0.837154,-0.188587,0.494911,-0.136659,6.100066,-1.506367,-1.957692
10,1868803505,-0.850760,-0.166321,0.475957,-0.148368,6.071174,-1.845540,-2.417218
11,1868836839,-0.860249,-0.138696,0.462214,-0.164615,6.500244,-1.689859,-2.366383
12,1868870173,-0.864195,-0.112808,0.452843,-0.188092,7.180003,-1.042320,-2.096574
13,1868903507,-0.862105,-0.090916,0.447612,-0.219446,7.517172,0.172157,-1.830597
14,1868936841,-0.853712,-0.067541,0.447935,-0.256852,7.855076,2.240518,-1.297791
15,1868970175,-0.837816,-0.036663,0.456989,-0.296455,8.047146,4.012351,-0.335918
16,1869003509,-0.812537,-0.000825,0.476684,-0.335498,7.315969,4.736086,0.473812
17,1869036843,-0.776937,0.026416,0.504130,-0.376203,4.600940,3.418309,-0.153077
18,1869070177,-0.731958,0.032675,0.533713,-0.422285,2.699963,3.195990,0.085950
19,1869103511,-0.679609,0.009763,0.554411,-0.480281,1.435697,3.595673,0.770153
20,1869136845,-0.621329,-0.039777,0.553795,-0.552887,0.252302,5.117435,2.389956
21,1869170179,-0.555331,-0.106786,0.522870,-0.637821,-1.344050,6.820102,2.633042
22,1869203513,-0.481805,-0.174559,0.467303,-0.720434,-3.937902,6.523015,0.853858
23,1869236847,-0.406710,-0.231349,0.402934,-0.786583,-6.364564,3.575774,-1.045624
24,1869270181,-0.338722,-0.272658,0.351914,-0.828906,-7.149269,0.187944,-2.566941
25,1869303515,-0.285230,-0.302179,0.331062,-0.847192,-5.990456,-1.397905,-3.313678
26,1869336849,-0.247339,-0.330074,0.333944,-0.847561,-4.012389,-1.661036,-3.241884
27,1869370183,-0.220474,-0.366219,0.340127,-0.837611,-2.354247,-1.464940,-2.562291
28,1869403517,-0.199890,-0.414884,0.333195,-0.822740,-1.225592,-1.141941,-1.695543
29,1869436851,-0.182725,-0.474397,0.306600,-0.804711,-0.364400,-0.373471,-1.076349
30,1869470185,-0.166619,-0.540965,0.258391,-0.782837,0.347813,0.530549,0.176528
31,1869503519,-0.146465,-0.607618,0.185875,-0.758158,1.955335,1.492949,3.044709
32,1869536853,-0.122279,-0.662006,0.095772,-0.733231,1.252026,2.117505,3.876876
33,1869570187,-0.111022,-0.696249,0.018203,-0.708932,-0.720671,1.771069,3.001804
34,1869603521,-0.124848,-0.709533,-0.021753,-0.693186,0.409943,0.937619,2.858963
35,1869636855,-0.155884,-0.705564,-0.016400,-0.691097,1.559831,1.107793,1.926903
36,1869670189,-0.187534,-0.689141,0.026243,-0.699451,2.419311,1.212286,0.291408
37,1869703523,-0.204887,-0.666695,0.089051,-0.711065,3.280354,1.615421,-0.635672
38,1869736857,-0.199038,-0.644601,0.151287,-0.722489,4.146980,2.781777,-0.460429
39,1869770191,-0.165125,-0.628935,0.187229,-0.736291,3.643359,3.899394,0.910915
40,1869803525,-0.110399,-0.618563,0.190229,-0.754327,1.156314,3.435422,1.448150
41,1869836859,-0.048411,-0.608122,0.168083,-0.774336,-0.635653,1.267044,1.378582
42,1869870193,0.006534,-0.592970,0.137711,-0.793337,-1.624673,-0.516651,0.611670
43,1869903527,0.043748,-0.573878,0.118432,-0.809153,-2.580753,-1.612084,0.185656
44,1869936861,0.058638,-0.553589,0.121864,-0.821739,-3.923284,-1.909879,0.312943
45,1869970195,0.053943,-0.533682,0.146657,-0.831125,-4.673254,-1.135427,0.243150
46,1870003529,0.037691,-0.515453,0.184480,-0.835978,-4.643114,-0.518249,-0.192429
47,1870036863,0.019055,-0.500713,0.226833,-0.835149,-3.843579,0.154304,-1.257493
48,1870070197,0.006411,-0.492466,0.263727,-0.829390,-2.388025,0.147368,-1.691010
49,1870103531,0.004280,-0.491538,0.285495,-0.822721,-1.227917,-0.163149,-1.852603
50,1870136865,0.013157,-0.497047,0.286196,-0.819065,-1.520254,-0.081496,-2.048616
51,1870170199,0.029192,-0.508207,0.266262,-0.818525,-2.304822,-0.043143,-2.081190
52,1870203533,0.043793,-0.524962,0.232908,-0.817469,-2.766858,-0.174957,-1.415544
53,1870236867,0.048632,-0.547854,0.193587,-0.812416,-2.879389,-0.233145,-0.780535
54,1870270201,0.039469,-0.576344,0.154491,-0.801503,-2.215622,0.192296,0.105905
55,1870303535,0.019928,-0.607540,0.116707,-0.785418,-1.063363,0.605366,0.988443
56,1870336869,-0.001332,-0.637757,0.079110,-0.766165,0.283807,1.398275,1.928559
57,1870370203,-0.013478,-0.663176,0.039485,-0.747302,2.597726,1.950079,2.711032
58,1870403537,-0.012763,-0.680703,0.003504,-0.732443,3.811126,0.888891,2.474236
59,1870436871,-0.009654,-0.688795,-0.013514,-0.724769,2.982636,-0.358937,1.607236
60,1870470205,-0.010304,-0.689110,-0.009928,-0.724518,0.835268,0.486043,0.533504
61,1870503539,-0.013695,-0.682974,0.004550,-0.730303,0.056817,1.566214,-0.018367
62,1870536873,-0.019137,-0.672415,0.024158,-0.739535,0.523878,1.687784,-0.366980
63,1870570207,-0.028876,-0.658981,0.051659,-0.749831,1.370972,1.531046,-0.138725
64,1870603541,-0.039882,-0.644060,0.083688,-0.759340,1.549706,1.678585,-0.255891
65,1870636875,-0.051361,-0.629666,0.116807,-0.766318,0.794439,1.558646,-0.690756
66,1870670209,-0.061105,-0.618935,0.146404,-0.769257,0.070180,1.711023,-0.719163
67,1870703543,-0.064259,-0.614765,0.163083,-0.768988,0.168261,2.059451,0.386008
68,1870736877,-0.058401,-0.616692,0.161965,-0.768148,0.500270,1.893740,0.999116
69,1870770211,-0.044139,-0.621486,0.147200,-0.768207,0.373034,1.349954,0.557646
70,1870803545,-0.023055,-0.626067,0.127134,-0.768992,-0.000698,0.653285,0.012139
71,1870836879,0.002719,-0.629102,0.108211,-0.769752,-0.357544,0.100144,0.001063
72,1870870213,0.031272,-0.630197,0.092757,-0.770243,-0.475298,-0.328233,0.534047
73,1870903547,0.058792,-0.628820,0.082029,-0.770976,-0.625234,-0.715121,0.895083
74,1870936881,0.082201,-0.625526,0.077591,-0.771975,-0.714674,-1.163976,0.840963
75,1870970215,0.100165,-0.621643,0.078934,-0.772852,-0.665629,-1.531779,0.668835
76,1871003549,0.112812,-0.618142,0.084440,-0.773335,-0.391650,-1.422960,-0.049413
77,1871036883,0.121384,-0.615906,0.089876,-0.773209,-0.126214,-1.206555,-0.592010
78,1871070217,0.125889,-0.615311,0.092743,-0.772624,-0.106087,-0.947278,-0.797614
79,1871103551,0.126132,-0.616544,0.090624,-0.771852,-0.134624,-0.606124,-0.619345
80,1871136885,0.123382,-0.619197,0.081322,-0.771209,-0.120294,-0.409290,-0.240338
81,1871170219,0.118110,-0.622462,0.066118,-0.770859,-0.178132,-0.452164,0.027408
82,1871203553,0.109209,-0.625632,0.050230,-0.770804,-0.306623,-0.413880,0.286696
83,1871236887,0.096510,-0.628283,0.038441,-0.771021,-0.477772,-0.240999,0.463511
84,1871270221,0.081635,-0.630016,0.031894,-0.771624,-0.432815,0.117254,0.416516
85,1871303555,0.065622,-0.630717,0.030792,-0.772622,-0.343489,0.378515,0.304006
86,1871336889,0.048708,-0.630342,0.035260,-0.773988,-0.343966,0.720867,0.139560
87,1871370223,0.031681,-0.628908,0.043783,-0.775602,-0.307827,1.101141,-0.150640
88,1871403557,0.016152,-0.626904,0.053216,-0.777112,-0.224572,1.390967,-0.165540
89,1871436891,0.003120,-0.624687,0.061349,-0.778458,-0.207255,1.531393,-0.115583
90,1871470225,-0.006997,-0.622571,0.067712,-0.779599,-0.282589,1.556225,-0.090156
91,1871503559,-0.014630,-0.620796,0.073738,-0.780362,-0.420114,1.429740,0.085400
92,1871536893,-0.020116,-0.619463,0.081107,-0.780568,-0.400631,1.336272,0.283231
93,1871570227,-0.022893,-0.618832,0.089482,-0.780077,-0.279745,1.232474,0.534180
94,1871603561,-0.022135,-0.618989,0.097464,-0.779017,0.029248,1.153039,0.496025
95,1871636895,-0.014840,-0.619518,0.097182,-0.778805,0.914988,-0.681559,0.851495
96,1871670229,-0.004643,-0.618628,0.091640,-0.780311,3.118126,-0.293254,1.339301
97,1871703563,0.009361,-0.616960,0.077135,-0.783152,2.530451,-2.297734,0.489628
98,1871736897,0.018801,-0.614863,0.064984,-0.785730,0.843075,-1.367590,-0.468915
99,1871770231,0.022094,-0.613135,0.057204,-0.787597,-0.013340,-0.077077,-0.243443
100,1871803565,0.022058,-0.611319,0.050435,-0.789470,-0.623075,0.182341,0.084621
101,1871836899,0.016979,-0.608334,0.048692,-0.792007,-1.017960,0.599877,0.265825
102,1871870233,0.006947,-0.603471,0.056447,-0.795357,-1.340352,0.685739,0.050857
103,1871903567,-0.004850,-0.597151,0.073329,-0.798758,-1.419436,0.714960,-0.101877
104,1871936901,-0.014349,-0.590588,0.095002,-0.801236,-1.228953,0.970204,-0.225205
105,1871970235,-0.015602,-0.585645,0.110544,-0.802845,-0.731278,1.326137,-0.065782
106,1872003569,-0.006881,-0.584127,0.114442,-0.803527,-0.781646,0.320842,-0.085406
107,1872036903,0.005639,-0.585650,0.112280,-0.802733,-0.256178,0.035471,0.034687
108,1872070237,0.020370,-0.589336,0.101059,-0.801286,0.251474,-0.238718,0.308482
109,1872103571,0.033620,-0.592434,0.085974,-0.800315,0.550328,-1.861321,0.124629
110,1872136905,0.032501,-0.592432,0.089638,-0.799961,1.434768,-1.322192,0.602139
111,1872170239,0.020897,-0.589959,0.106784,-0.800071,0.905613,-0.398472,0.236401
112,1872203573,0.006627,-0.587122,0.124889,-0.799782,0.209178,0.330703,-0.260019
113,1872236907,-0.003393,-0.586073,0.133391,-0.799199,0.131751,0.763592,-0.277706
114,1872270241,-0.006823,-0.588049,0.129161,-0.798420,-0.102442,0.724720,-0.715796
115,1872303575,-0.007294,-0.593301,0.118713,-0.796148,-0.360680,0.658587,-1.107928
116,1872336909,-0.006903,-0.601431,0.105079,-0.791957,-0.214555,1.175020,-0.829265
117,1872370243,-0.004504,-0.610994,0.087039,-0.786825,0.358252,1.340085,-0.215699
118,1872403577,0.003977,-0.618629,0.061830,-0.783239,1.528264,1.388260,1.200840
119,1872436911,0.019071,-0.620524,0.036748,-0.783097,0.953195,0.586175,1.778838
120,1872470245,0.036403,-0.613341,0.026644,-0.788532,2.321415,0.652157,2.936985
121,1872503579,0.056106,-0.596340,0.036744,-0.799928,1.591164,-0.258047,3.371397
122,1872536913,0.074265,-0.567808,0.067908,-0.816989,2.144467,-0.944160,4.528978
123,1872570247,0.088560,-0.528456,0.111577,-0.836926,2.220660,-0.605444,4.990576
124,1872603581,0.103424,-0.479013,0.148845,-0.858894,2.606964,-0.537628,5.335416
125,1872636915,0.123505,-0.418838,0.167034,-0.883983,1.395267,-0.616202,5.039635
126,1872670249,0.145348,-0.347235,0.170177,-0.910684,-0.422076,-0.641667,4.852358
127,1872703583,0.163256,-0.262002,0.164189,-0.936882,-3.065606,-1.195764,4.943045
128,1872736917,0.169703,-0.165758,0.181989,-0.954259,-5.802956,-3.263607,2.548098
129,1872770251,0.173753,-0.060363,0.248490,-0.951012,-6.197525,-0.126981,-0.102002
130,1872803585,0.192012,0.049915,0.322127,-0.925677,-5.288102,2.668126,-0.585086
131,1872836919,0.226223,0.155890,0.369734,-0.887594,-4.634788,2.456056,-1.133342
132,1872870253,0.269067,0.252583,0.381428,-0.847539,-3.625852,3.125071,-2.544764
133,1872903587,0.310558,0.340453,0.355905,-0.813008,-2.347218,2.290284,-3.655141
134,1872936921,0.349586,0.414791,0.313217,-0.779511,2.190949,2.217952,-4.441391
135,1872970255,0.401156,0.466548,0.283302,-0.735630,-0.298640,1.429551,-3.719221
136,1873003589,0.461313,0.495374,0.264261,-0.686997,0.683238,1.891942,-3.204865
137,1873036923,0.520753,0.508020,0.245280,-0.640760,1.320922,1.975779,-4.105674
138,1873070257,0.581361,0.505422,0.231105,-0.594275,1.930450,1.048822,-3.326656
139,1873103591,0.643715,0.486039,0.225393,-0.546443,0.897207,0.172291,-3.380311
140,1873136925,0.695251,0.464234,0.219032,-0.503132,0.397843,-1.248642,-3.265343
141,1873170259,0.730522,0.451408,0.209138,-0.467796,1.285868,-1.822546,-1.819159
142,1873203593,0.752939,0.447861,0.198384,-0.439491,1.268617,-1.623989,-1.181172
143,1873236927,0.766008,0.451155,0.187915,-0.417591,1.409922,-0.765705,-0.764162
144,1873270261,0.773145,0.456693,0.177762,-0.402596,0.991856,-0.556858,-0.739219
145,1873303595,0.767484,0.474430,0.163117,-0.399101,1.249439,-0.733233,-0.107248
146,1873336929,0.759822,0.492216,0.149827,-0.397428,1.670899,0.218013,0.710770
147,1873370263,0.760014,0.499088,0.140782,-0.391758,-0.744508,0.429429,-1.163655
148,1873403597,0.757947,0.509264,0.128284,-0.386928,-0.316474,-0.009682,-1.020926
149,1873436931,0.747309,0.529819,0.109703,-0.385734,0.599290,0.265953,-0.489281
150,1873470265,0.727328,0.560045,0.085179,-0.387417,-1.214807,0.037302,-2.628603
151,1873503599,0.689836,0.604839,0.054512,-0.394118,2.028498,0.087242,0.358005
152,1873536933,0.664120,0.632189,0.035174,-0.397553,2.300340,0.564662,0.875944
153,1873570267,0.662006,0.634155,0.032433,-0.398181,2.090096,0.225580,0.782889
154,1873603601,0.673754,0.622036,0.040210,-0.396880,0.711471,0.416830,-0.274572
155,1873636935,0.682471,0.611883,0.045470,-0.397202,-0.457898,0.573950,-1.027612
156,1873670269,0.683180,0.609265,0.044085,-0.400152,0.072125,0.621900,-0.462981
157,1873703603,0.681530,0.608702,0.041321,-0.404099,0.872889,0.212948,0.397724
158,1873736937,0.680718,0.606608,0.041050,-0.408617,0.975894,0.044777,0.349964
159,1873770271,0.681989,0.601805,0.044083,-0.413258,0.908167,0.349088,0.202612
160,1873803605,0.685360,0.594800,0.049170,-0.417229,0.413342,0.131152,-0.398896
161,1873836939,0.686048,0.590432,0.053130,-0.421793,0.185503,-0.286918,-0.765709
162,1873870273,0.682547,0.589975,0.055919,-0.427710,0.470986,-0.477926,-0.925054
163,1873903607,0.676699,0.590395,0.059110,-0.435915,0.691062,0.502856,-0.406375
164,1873936941,0.672612,0.587294,0.063141,-0.445754,1.399324,1.677413,-0.696264
165,1873970275,0.675813,0.574941,0.075955,-0.454923,2.787853,1.032005,-0.657569
166,1874003609,0.682264,0.556620,0.105887,-0.462041,2.637240,-0.882229,-1.565627
167,1874036943,0.687962,0.530352,0.152630,-0.471320,1.158806,-1.333732,-1.791459
168,1874070277,0.682409,0.500661,0.200392,-0.493461,1.205667,-0.991845,-1.962964
169,1874103611,0.662885,0.469208,0.240789,-0.531463,1.442878,0.531326,-3.159406
170,1874136945,0.633414,0.431834,0.273686,-0.580866,0.973814,0.943649,-4.034406
171,1874170279,0.596971,0.385912,0.303710,-0.634399,1.210297,1.116929,-3.697720
172,1874203613,0.554484,0.328400,0.329877,-0.689845,-0.328224,-0.229899,-3.390074
173,1874236947,0.506744,0.256796,0.349556,-0.745038,-1.416283,-0.282204,-2.598706
174,1874270281,0.461076,0.173177,0.367867,-0.788731,-0.927047,0.909741,-3.646715
175,1874303615,0.416264,0.080435,0.400308,-0.812411,-1.818127,1.149062,-4.311697
176,1874336949,0.368385,-0.009917,0.413614,-0.832539,-4.406438,0.364408,-0.073612
177,1874370283,0.326211,-0.092837,0.400728,-0.851111,-4.362223,0.042453,1.973702
178,1874403617,0.293666,-0.169737,0.370316,-0.864766,-3.301809,-0.293518,4.323259
179,1874436951,0.270781,-0.240089,0.339648,-0.868147,-2.144807,-0.058849,3.365256
180,1874470285,0.254141,-0.306708,0.316296,-0.860990,-1.741082,-0.242293,0.931267
181,1874503619,0.238735,-0.368089,0.301587,-0.846502,-0.890778,0.425136,4.883964
182,1874536953,0.227439,-0.417358,0.280830,-0.833800,0.105439,0.466448,6.846174
183,1874570287,0.221327,-0.455371,0.254764,-0.823864,0.890024,-0.917205,3.456038
184,1874603621,0.214615,-0.484804,0.238957,-0.813517,0.328774,-0.428623,3.165923
185,1874636955,0.208776,-0.508725,0.231680,-0.802459,-0.021861,-0.414411,1.626963
186,1874670289,0.204632,-0.529602,0.228917,-0.790727,0.148909,-0.481572,1.378589
187,1874703623,0.203535,-0.546756,0.224614,-0.780503,0.513635,-1.034489,0.754855
188,1874736957,0.189625,-0.558068,0.243527,-0.770261,3.902631,-0.936820,1.105352
189,1874770291,0.174693,-0.562398,0.261587,-0.764701,3.279915,1.037578,2.185332
190,1874803625,0.163512,-0.564551,0.270748,-0.762394,-0.146046,1.100252,0.394096
191,1874836959,0.157980,-0.568326,0.275098,-0.759192,-0.279916,0.997187,1.154207
192,1874870293,0.161366,-0.572711,0.272234,-0.756212,-0.353103,0.037902,0.502545
193,1874903627,0.165187,-0.576417,0.269825,-0.753429,0.246864,-0.276008,0.032017
194,1874936961,0.168196,-0.577951,0.266284,-0.752848,0.243170,0.053938,-0.385099
195,1874970295,0.171987,-0.577807,0.258678,-0.754752,-0.249974,0.543838,-0.557250
196,1875003629,0.177643,-0.577033,0.246285,-0.758172,-0.360543,0.547149,-0.300226
197,1875036963,0.185586,-0.575886,0.231377,-0.761828,-0.289950,0.306519,-0.151441
198,1875070297,0.193654,-0.574235,0.218390,-0.764894,-0.100044,0.058131,0.372827
199,1875103631,0.199319,-0.572093,0.210225,-0.767327,0.106709,0.087653,0.326511
200,1875136965,0.203328,-0.570006,0.206571,-0.768819,-0.097909,0.230330,0.177032
201,1875170299,0.205555,-0.567973,0.207440,-0.769498,0.126641,0.439930,0.217238
202,1875203633,0.210094,-0.565414,0.208399,-0.769897,-0.112777,0.920347,0.940339
203,1875236967,0.220798,-0.562089,0.205221,-0.770190,-0.184655,0.830279,0.711478
204,1875270301,0.232809,-0.558737,0.202963,-0.769690,-0.100970,0.150881,0.435939
205,1875303635,0.238967,-0.555729,0.207494,-0.768772,0.518065,-1.183410,-0.695380
206,1875336969,0.238938,-0.553120,0.219700,-0.767270,0.252838,-0.476580,-0.238910
207,1875370303,0.238456,-0.549972,0.234020,-0.765447,0.183341,1.770409,1.260632
208,1875403637,0.244490,-0.545790,0.239107,-0.764964,-0.405741,0.681136,-0.019338
209,1875436971,0.246326,-0.542946,0.249988,-0.762918,-0.237522,-0.419855,-0.310474
210,1875470305,0.245410,-0.540458,0.263561,-0.760408,0.162919,0.256345,0.697761
211,1875503639,0.246956,-0.537004,0.271357,-0.759611,-0.147954,-0.639614,-0.272476
212,1875536973,0.244910,-0.534563,0.283409,-0.757591,-0.134258,-0.239919,-0.016408
213,1875570307,0.242357,-0.532969,0.293390,-0.755734,0.306323,-0.030990,0.194092
214,1875603641,0.240577,-0.532218,0.298914,-0.754667,-0.134626,-0.603115,-0.424694
215,1875636975,0.237205,-0.532307,0.305449,-0.753053,0.164001,-0.200585,0.231156
216,1875670309,0.234701,-0.531752,0.309958,-0.752387,0.271273,-0.013437,0.327048
217,1875703643,0.231063,-0.530749,0.316728,-0.751401,0.068863,0.005201,0.441637
218,1875736977,0.228817,-0.528914,0.322855,-0.750774,0.236013,-0.138987,0.078483
219,1875770311,0.230655,-0.526328,0.324939,-0.751130,-0.409292,-0.473230,-1.277958
220,1875803645,0.230288,-0.524749,0.330304,-0.750007,0.091354,0.692243,-0.793451
221,1875836979,0.231919,-0.523672,0.332292,-0.749378,0.391578,1.205604,-0.494087
222,1875870313,0.234277,-0.522963,0.332196,-0.749182,0.174921,0.476329,-0.526856
223,1875903647,0.233445,-0.522465,0.335617,-0.748264,-0.097503,-0.047187,-0.383709
224,1875936981,0.228921,-0.521708,0.345357,-0.745754,-0.206950,-0.987862,0.277758
225,1875970315,0.221812,-0.520042,0.357648,-0.743269,-0.214727,-0.814256,0.983420
226,1876003649,0.217260,-0.517034,0.363791,-0.743730,-0.175467,-0.233385,0.662193
227,1876036983,0.212757,-0.514362,0.369263,-0.744188,-0.233991,-0.531313,0.269696
228,1876070317,0.207555,-0.511988,0.373898,-0.744979,0.078114,0.033540,0.172291
229,1876103651,0.208835,-0.509981,0.365196,-0.750295,0.548771,1.028808,0.875375
230,1876136985,0.207449,-0.509483,0.359572,-0.753727,-0.063761,0.287418,-0.219547
231,1876170319,0.205308,-0.509340,0.359198,-0.754588,0.296068,1.506646,1.040800
232,1876203653,0.209203,-0.506884,0.355643,-0.756852,0.459103,1.856899,1.220431
233,1876236987,0.216156,-0.502830,0.354376,-0.758196,0.166759,1.274190,0.432578
234,1876270321,0.227003,-0.498100,0.353244,-0.758676,0.001030,1.344521,0.958920
235,1876303655,0.241017,-0.493305,0.349426,-0.759254,-0.291162,-0.347211,-0.160239
236,1876336989,0.252193,-0.489823,0.347540,-0.758744,-0.219399,-0.956800,-0.519800
237,1876370323,0.261684,-0.486812,0.342999,-0.759534,0.115185,-1.530377,-0.325746
238,1876403657,0.266707,-0.485250,0.339078,-0.760546,-0.049262,-0.932456,-0.442642
239,1876436991,0.270107,-0.484929,0.332469,-0.762466,0.006198,0.056831,0.199411
240,1876470325,0.274827,-0.485348,0.321650,-0.765150,-0.153639,0.227199,-0.365675
241,1876503659,0.277675,-0.487685,0.314828,-0.765472,-0.099104,0.554487,-0.778839
242,1876536993,0.279482,-0.491000,0.312280,-0.763737,0.174033,1.311271,0.182140
243,1876570327,0.285326,-0.492129,0.306991,-0.762993,0.059439,1.312361,0.920740
244,1876603661,0.296351,-0.491148,0.293993,-0.764540,-0.780786,1.286348,-0.199189
245,1876636995,0.312433,-0.490092,0.268536,-0.768172,-1.187040,0.546682,-1.463634
246,1876670329,0.321500,-0.493275,0.257853,-0.766051,0.226538,-2.291332,-0.788617
247,1876703663,0.324539,-0.496776,0.259400,-0.761974,0.280090,0.018775,1.233447
248,1876736997,0.330434,-0.497287,0.255410,-0.760453,-0.165398,0.752049,0.464472
249,1876770331,0.339167,-0.496161,0.247167,-0.760068,0.177186,0.613519,0.349340
250,1876803665,0.350824,-0.492842,0.234088,-0.761076,0.457587,0.634116,0.490943
251,1876836999,0.365132,-0.486936,0.216184,-0.763440,0.820278,-0.301389,0.300930
252,1876870333,0.378314,-0.480109,0.198252,-0.766208,0.473376,-0.754266,0.128450
253,1876903667,0.390389,-0.472579,0.179784,-0.769381,0.059659,-0.407841,0.037039
254,1876937001,0.400646,-0.466265,0.163273,-0.771638,0.086823,-0.798227,-0.297336
255,1876970335,0.408554,-0.461864,0.151239,-0.772591,-0.523993,0.150998,0.395737
256,1877003669,0.416658,-0.458182,0.138430,-0.772856,-0.568657,-0.919782,-0.367665
257,1877037003,0.421885,-0.457580,0.130521,-0.771753,-0.375417,-0.838490,0.075392
258,1877070337,0.426497,-0.457267,0.122027,-0.770792,-0.325511,-0.493493,0.138988
259,1877103671,0.428518,-0.458888,0.117922,-0.769346,-0.471992,-0.213298,0.010394
260,1877137005,0.429842,-0.461502,0.115908,-0.767347,-0.377210,0.003555,0.043333
261,1877170339,0.431211,-0.463910,0.114170,-0.765385,-0.043110,0.055400,0.260610
262,1877203673,0.432922,-0.464894,0.111718,-0.764183,0.114330,0.106723,0.262402
263,1877237007,0.434190,-0.465003,0.110023,-0.763643,0.014965,-0.004148,0.172328
264,1877270341,0.434911,-0.464469,0.109328,-0.763657,-0.349305,-0.096628,0.145239
265,1877303675,0.435630,-0.462870,0.107958,-0.764413,-0.204248,-0.256810,-0.063985
266,1877337009,0.435036,-0.461696,0.108220,-0.765424,-0.238879,-0.227182,-0.135378
267,1877370343,0.432813,-0.461737,0.111420,-0.766200,-0.193959,-0.025668,0.099359
268,1877403677,0.430900,-0.461683,0.114251,-0.766893,-0.265464,-0.231158,-0.003725
269,1877437011,0.428315,-0.462941,0.119171,-0.766834,-0.173151,-0.343079,-0.010467
270,1877470345,0.424613,-0.466561,0.126889,-0.765460,-0.296989,-0.234405,0.255345
271,1877503679,0.420287,-0.471133,0.135695,-0.763534,-0.264956,-0.269835,0.038842
272,1877537013,0.415085,-0.476110,0.146196,-0.761351,0.019133,-0.246902,-0.348472
273,1877570347,0.409442,-0.480575,0.157070,-0.759433,0.164419,0.079007,-0.069714
274,1877603681,0.405117,-0.483074,0.165165,-0.758449,0.227847,0.238473,0.083863
275,1877637015,0.401957,-0.484108,0.171262,-0.758119,0.136866,0.143993,0.041853
276,1877670349,0.399204,-0.484581,0.176696,-0.758023,0.014883,-0.080568,0.124893
277,1877703683,0.397007,-0.484542,0.180843,-0.758225,-0.121791,-0.244830,0.392489
278,1877737017,0.394923,-0.484290,0.184616,-0.758564,-0.148911,-0.217602,0.124852
279,1877770351,0.393798,-0.483361,0.185407,-0.759548,-0.070432,-0.214801,0.133489
280,1877803685,0.392823,-0.481796,0.184062,-0.761372,0.130445,-0.084560,0.081592
281,1877837019,0.392546,-0.479215,0.180418,-0.764012,0.193282,0.113849,0.230618
282,1877870353,0.393757,-0.475555,0.174153,-0.767123,0.131770,0.348738,0.403797
283,1877903687,0.397635,-0.470010,0.163202,-0.770939,0.092048,0.233364,0.388922
284,1877937021,0.401962,-0.464495,0.152285,-0.774264,0.000798,0.004494,0.085448
285,1877970355,0.405649,-0.460326,0.143795,-0.776451,-0.035028,-0.090544,-0.132395
286,1878003689,0.408482,-0.457401,0.137522,-0.777829,0.016532,-0.053431,-0.176040
287,1878037023,0.410652,-0.455322,0.133171,-0.778664,0.109539,-0.045045,-0.153688
288,1878070357,0.411653,-0.454562,0.131531,-0.778857,-0.011649,-0.023444,-0.222397
289,1878103691,0.412109,-0.454588,0.131356,-0.778631,0.056839,0.020591,-0.196664
290,1878137025,0.412016,-0.455552,0.133083,-0.777823,0.012695,-0.001310,0.014360
291,1878170359,0.412273,-0.456567,0.135233,-0.776720,-0.025561,0.049241,0.067187
292,1878203693,0.413046,-0.457349,0.136687,-0.775594,0.152390,-0.219052,-0.212274
293,1878237027,0.413082,-0.459038,0.140218,-0.773945,0.030355,0.050172,0.015596
294,1878270361,0.413640,-0.460671,0.143421,-0.772087,0.177834,0.060599,-0.104344
295,1878303695,0.414780,-0.462010,0.145748,-0.770237,0.168012,0.184032,0.094500
296,1878337029,0.417094,-0.462012,0.145151,-0.769099,0.217734,-0.035736,0.140184
297,1878370363,0.419402,-0.460834,0.143229,-0.768911,0.034478,0.004099,0.230949
298,1878403697,0.421771,-0.458467,0.140477,-0.769537,-0.235339,-0.021260,0.120716
299,1878437031,0.423810,-0.455955,0.138162,-0.770328,-0.278626,-0.325986,-0.201396
300,1878470365,0.424497,-0.454760,0.137839,-0.770714,-0.327821,-0.615588,-0.493488
301,1878503699,0.422172,-0.456234,0.141060,-0.770537,-0.247186,-0.818510,-0.947736
302,1878537033,0.415439,-0.462657,0.150770,-0.768526,-0.513071,-0.894755,-1.190740
303,1878570367,0.407104,-0.471529,0.163429,-0.764998,-0.657366,0.304190,1.230849
304,1878603701,0.402584,-0.477894,0.170472,-0.761897,-0.280862,0.308559,1.757906
305,1878637035,0.401303,-0.480461,0.172773,-0.760438,0.134960,0.077176,1.412337
306,1878670369,0.401441,-0.480205,0.171690,-0.760773,0.136071,-0.126449,0.311387
307,1878703703,0.401628,-0.479611,0.170371,-0.761346,-0.139310,-0.091955,-0.349222
308,1878737037,0.401406,-0.479782,0.170441,-0.761338,-0.193314,-0.075346,-0.396259
309,1878770371,0.400690,-0.480305,0.171734,-0.761096,-0.122771,-0.090837,0.020415
310,1878803705,0.399567,-0.480408,0.173238,-0.761280,-0.156847,-0.130876,0.350398
311,1878837039,0.398238,-0.479940,0.174518,-0.761979,-0.168976,-0.292659,0.089653
312,1878870373,0.396211,-0.479784,0.176470,-0.762684,-0.221791,-0.229946,0.042866
313,1878903707,0.393912,-0.480041,0.178678,-0.763198,-0.054120,-0.134792,0.050485
314,1878937041,0.391664,-0.480460,0.180884,-0.763573,0.089029,-0.076676,0.004001
315,1878970375,0.389801,-0.480851,0.182798,-0.763824,0.083492,-0.036200,0.068241
316,1879003709,0.388640,-0.481075,0.183870,-0.764017,0.048366,-0.100450,0.096931
317,1879037043,0.387691,-0.481406,0.184521,-0.764134,-0.053965,-0.189714,0.088928
318,1879070377,0.386487,-0.482148,0.185148,-0.764124,-0.100277,-0.151796,0.119594
319,1879103711,0.385079,-0.483180,0.185710,-0.764046,-0.063785,-0.117058,0.211932
320,1879137045,0.383550,-0.484208,0.186225,-0.764040,0.008586,-0.082157,0.094393
321,1879170379,0.381741,-0.485259,0.187003,-0.764089,0.065788,-0.011361,0.018041
322,1879203713,0.379954,-0.486077,0.187933,-0.764232,0.087682,0.147186,0.241872
323,1879237047,0.378920,-0.485959,0.188078,-0.764784,0.122224,0.085638,0.231131
324,1879270381,0.378240,-0.485183,0.187880,-0.765661,0.022499,-0.045022,0.059291
325,1879303715,0.377471,-0.484301,0.187799,-0.766618,-0.070050,-0.115699,0.009565
326,1879337049,0.376082,-0.483779,0.188607,-0.767432,-0.106200,-0.097431,0.040639
327,1879370383,0.374248,-0.483603,0.190016,-0.768091,-0.054784,-0.079031,0.082249
328,1879403717,0.372096,-0.483808,0.191783,-0.768569,0.060886,-0.106203,0.096247
329,1879437051,0.370023,-0.484198,0.193364,-0.768928,0.130141,-0.060022,0.117034
330,1879470385,0.368152,-0.484783,0.194604,-0.769145,0.192223,0.021253,0.112499
331,1879503719,0.366968,-0.485466,0.195208,-0.769127,0.223988,0.048991,0.146869
332,1879537053,0.366658,-0.485921,0.194901,-0.769065,0.250299,0.071370,0.161348
333,1879570387,0.367007,-0.486115,0.193653,-0.769091,0.173520,0.050931,0.057008
334,1879603721,0.367691,-0.486175,0.192212,-0.769088,0.060441,0.009490,-0.004468
335,1879637055,0.368632,-0.486104,0.190652,-0.769071,-0.068325,-0.073517,0.189509
336,1879670389,0.369554,-0.485946,0.189110,-0.769108,-0.096421,-0.276803,0.093477
337,1879703723,0.369838,-0.485972,0.188219,-0.769174,-0.132467,-0.207025,0.029963
338,1879737057,0.369699,-0.486135,0.187918,-0.769212,-0.073227,-0.080239,0.079593
339,1879770391,0.369506,-0.486108,0.187734,-0.769366,-0.006480,-0.070384,0.130893
340,1879803725,0.369078,-0.485921,0.187732,-0.769690,-0.009360,-0.022259,0.095687
341,1879837059,0.368617,-0.485613,0.187880,-0.770069,-0.007213,-0.001990,0.098063
342,1879870393,0.368187,-0.485231,0.188105,-0.770461,0.026403,-0.007864,0.108507
343,1879903727,0.367602,-0.485090,0.188946,-0.770623,-0.011356,-0.000314,0.036828
344,1879937061,0.366880,-0.485301,0.190452,-0.770463,0.052933,0.028580,0.130363
345,1879970395,0.366819,-0.485381,0.190948,-0.770319,0.073017,-0.000670,0.150511
346,1880003729,0.367446,-0.485189,0.190390,-0.770280,0.104523,-0.075763,0.051750
347,1880037063,0.368338,-0.485014,0.189430,-0.770201,-0.009274,-0.031284,0.011517
348,1880070397,0.369295,-0.485123,0.188337,-0.769942,-0.091625,-0.099994,0.006989
349,1880103731,0.370109,-0.485544,0.187489,-0.769492,-0.053603,-0.130271,0.070178
350,1880137065,0.370714,-0.486037,0.186678,-0.769087,-0.042810,-0.094301,0.020129
351,1880170399,0.370940,-0.486703,0.186026,-0.768715,-0.108702,-0.091528,-0.025879
352,1880203733,0.370768,-0.487660,0.185775,-0.768252,-0.166084,-0.152496,0.023710
353,1880237067,0.370035,-0.488878,0.186109,-0.767750,-0.165616,-0.163819,0.085702
354,1880270401,0.369031,-0.490081,0.186678,-0.767328,-0.134457,-0.093411,0.287162
355,1880303735,0.368151,-0.490950,0.187116,-0.767088,-0.023672,-0.128794,0.124928
356,1880337069,0.367149,-0.491674,0.187761,-0.766947,0.010006,-0.045908,0.001058
357,1880370403,0.366424,-0.492144,0.188280,-0.766866,-0.007853,0.055145,0.092031
358,1880403737,0.365943,-0.492229,0.188921,-0.766883,0.055734,0.032719,0.133801
359,1880437071,0.365184,-0.492005,0.190022,-0.767117,-0.061769,-0.052935,-0.060539
360,1880470405,0.363795,-0.492061,0.192393,-0.767150,-0.059944,0.006278,-0.089349
361,1880503739,0.362116,-0.492486,0.195767,-0.766817,0.009071,0.035645,-0.063342
362,1880537073,0.360236,-0.493421,0.199852,-0.766047,0.122944,0.022471,-0.005060
363,1880570407,0.358154,-0.495143,0.204055,-0.764804,0.106876,0.023424,0.317235
364,1880603741,0.356844,-0.497208,0.207123,-0.763250,0.230896,0.072274,0.462902
365,1880637075,0.356994,-0.499281,0.208402,-0.761476,0.289395,-0.081798,0.350233
366,1880670409,0.358303,-0.501298,0.208073,-0.759624,0.214901,-0.135714,0.281507
367,1880703743,0.360042,-0.503345,0.206802,-0.757793,-0.092020,-0.356148,0.256602
368,1880737077,0.360868,-0.506091,0.206246,-0.755720,-0.264874,-0.450293,0.179521
369,1880770411,0.361335,-0.509642,0.206348,-0.753078,0.023075,-0.410695,0.244816
370,1880803745,0.362360,-0.513192,0.205567,-0.750384,0.349753,-0.228042,0.381991
371,1880837079,0.364358,-0.515534,0.202628,-0.748608,0.533894,0.123730,0.378644
372,1880870413,0.367867,-0.516084,0.196862,-0.748051,0.562129,0.201042,0.191683
373,1880903747,0.371772,-0.515299,0.190520,-0.748304,0.337974,-0.122950,0.130644
374,1880937081,0.374694,-0.514349,0.185499,-0.748761,-0.069520,-0.268060,0.336561
375,1880970415,0.378700,-0.512820,0.178494,-0.749498,0.021832,-0.513799,0.255620
376,1881003749,0.382535,-0.511424,0.170728,-0.750312,-0.184624,-0.777611,-0.047839
377,1881037083,0.384840,-0.511005,0.163793,-0.750964,-0.460385,-0.631348,-0.335888
378,1881070417,0.385826,-0.511705,0.157440,-0.751341,-0.647884,-0.308342,-0.426938
379,1881103751,0.386278,-0.513161,0.151271,-0.751383,-0.582294,-0.850886,-0.996845
380,1881137085,0.380194,-0.517996,0.153009,-0.750816,-0.555626,-1.282413,-1.215062
381,1881170419,0.369466,-0.525512,0.156996,-0.750126,-0.715970,-0.599472,-0.719062
382,1881203753,0.356481,-0.534008,0.159833,-0.749809,-0.550039,-0.842346,-1.251195
383,1881237087,0.332577,-0.547078,0.177224,-0.747458,-0.952307,-1.198569,-1.782420
384,1881270421,0.299538,-0.562100,0.202847,-0.743759,-0.844689,0.532608,-0.358600
385,1881303755,0.262785,-0.574105,0.227188,-0.741443,0.060190,-0.231905,0.257530
386,1881337089,0.231241,-0.579355,0.232450,-0.746222,0.933504,2.761041,2.908072
387,1881370423,0.227734,-0.577498,0.190834,-0.760407,-1.142088,2.933065,1.232718
388,1881403757,0.235927,-0.577444,0.137736,-0.769370,-2.676329,0.641225,0.031471
389,1881437091,0.233230,-0.586066,0.118066,-0.766939,-3.200584,-3.162079,-1.167642
390,1881470425,0.193782,-0.603425,0.172125,-0.754125,-1.869483,0.673913,1.225784
391,1881503759,0.147463,-0.617402,0.237311,-0.735362,-0.875433,1.032652,0.339209
392,1881537093,0.099758,-0.624227,0.299290,-0.714715,0.579897,-0.340561,0.058204
393,1881570427,0.050987,-0.624389,0.360404,-0.691123,-0.525812,0.363130,0.232134
394,1881603761,-0.001586,-0.619327,0.422152,-0.661984,-0.666764,1.032227,0.250928
395,1881637095,-0.058829,-0.609571,0.481077,-0.627321,0.550553,0.607496,0.650570
396,1881670429,-0.114982,-0.597767,0.531222,-0.589289,1.501417,-0.506120,-0.029234
397,1881703763,-0.154402,-0.590448,0.559524,-0.560774,3.291265,0.195745,0.940797
398,1881737097,-0.174841,-0.591947,0.565018,-0.547529,0.972774,0.022960,0.271205
399,1881770431,-0.192530,-0.596127,0.568745,-0.533008,-0.017156,0.822481,0.303596
400,1881803765,-0.213416,-0.596673,0.578580,-0.513502,1.487872,0.307161,0.691027
401,1881837099,-0.236008,-0.593261,0.591515,-0.492398,1.679577,-0.408610,0.456717
402,1881870433,-0.253081,-0.590575,0.601242,-0.475061,1.732411,-0.526387,0.158137
403,1881903767,-0.263884,-0.590910,0.605062,-0.463782,0.724310,-0.238867,0.361991
404,1881937101,-0.271920,-0.595836,0.604589,-0.453338,-0.850577,-1.610959,0.165635
405,1881970435,-0.279020,-0.602252,0.603803,-0.441437,1.189251,-0.594809,1.361449
406,1882003769,-0.287269,-0.608948,0.602563,-0.428463,-0.289031,0.887219,0.922719
407,1882037103,-0.292354,-0.616134,0.600733,-0.417172,0.561470,0.904286,0.303606
408,1882070437,-0.294130,-0.622256,0.598841,-0.409487,0.587286,0.462099,0.034252
409,1882103771,-0.294599,-0.625166,0.598444,-0.405275,1.161612,-0.184902,-0.196463
410,1882137105,-0.294443,-0.625542,0.599625,-0.403057,1.261840,0.500717,-0.108512
411,1882170439,-0.290240,-0.626108,0.599667,-0.405157,0.950010,-0.120856,-0.350871
412,1882203773,-0.285596,-0.626264,0.599411,-0.408581,0.046440,0.019620,-0.026307
413,1882237107,-0.282663,-0.625984,0.600430,-0.409553,0.262994,0.411004,0.311819
414,1882270441,-0.276468,-0.627359,0.600749,-0.411206,0.168445,0.120688,0.840527
415,1882303775,-0.269377,-0.629373,0.601009,-0.412454,0.117636,-0.280415,0.992133
416,1882337109,-0.261627,-0.631836,0.600289,-0.414720,0.452203,-0.860893,0.356544
417,1882370443,-0.254989,-0.633027,0.599477,-0.418198,0.450527,-0.064947,0.283215
418,1882403777,-0.249110,-0.633219,0.599872,-0.420875,0.430080,0.426110,0.158319
419,1882437111,-0.242902,-0.633702,0.599638,-0.424097,0.265743,-0.218973,0.134878
420,1882470445,-0.238546,-0.633238,0.600298,-0.426325,0.291518,0.218190,0.225098
421,1882503779,-0.235134,-0.632851,0.600803,-0.428079,0.223400,-0.050030,0.106079
422,1882537113,-0.232622,-0.632270,0.600880,-0.430198,1.074197,-0.290913,-0.309631
423,1882570447,-0.231434,-0.630803,0.601158,-0.432596,0.180373,0.407365,-0.253363
424,1882603781,-0.229386,-0.631336,0.599241,-0.435559,0.247791,-0.885295,-0.065424
425,1882637115,-0.228397,-0.631598,0.597640,-0.437892,0.259993,0.242631,0.235781
426,1882670449,-0.228171,-0.631238,0.598060,-0.437955,0.793927,0.232629,0.104654
427,1882703783,-0.226301,-0.631366,0.598191,-0.438561,-0.701716,0.155631,-0.058953
428,1882737117,-0.227744,-0.629325,0.602516,-0.434813,-0.249376,0.954828,0.437201
429,1882770451,-0.227258,-0.627242,0.607311,-0.431392,0.846468,-0.160163,-0.474148
430,1882803785,-0.223085,-0.625450,0.609511,-0.433065,0.227029,0.359336,-0.093473
431,1882837119,-0.227396,-0.618295,0.619052,-0.427529,-2.310102,1.390248,1.207264
432,1882870453,-0.248038,-0.603512,0.639973,-0.405818,-0.181904,-0.708669,1.428460
433,1882903787,-0.270348,-0.585564,0.661238,-0.383139,-0.023735,0.372925,1.117268
434,1882937121,-0.286769,-0.570631,0.679859,-0.360471,-0.704144,1.138769,0.175875
435,1882970455,-0.302061,-0.557293,0.696862,-0.335516,-0.211410,0.915651,-0.557663
436,1883003789,-0.318181,-0.542659,0.713058,-0.309570,0.739334,0.487153,-1.036860
437,1883037123,-0.332515,-0.528508,0.726987,-0.285670,0.642561,-0.378110,-1.068866
438,1883070457,-0.344978,-0.515331,0.738600,-0.264384,1.090414,-0.484816,-0.232821
439,1883103791,-0.355985,-0.504280,0.748303,-0.242947,-0.056757,0.516451,0.901507
440,1883137125,-0.365857,-0.494500,0.757134,-0.219932,1.466508,-0.923437,-0.038673
441,1883170459,-0.371708,-0.488292,0.762437,-0.205177,0.169398,-0.567861,-0.383851
442,1883203793,-0.377779,-0.482369,0.766823,-0.191282,0.337454,1.065966,-1.349894
443,1883237127,-0.380484,-0.478679,0.769590,-0.183940,-0.081985,-0.321119,-1.220856
444,1883270461,-0.376919,-0.481897,0.767971,-0.189558,1.355364,0.115638,-2.768744
445,1883303795,-0.371786,-0.481569,0.767412,-0.202358,1.387371,0.966854,0.148192
446,1883337129,-0.371919,-0.468881,0.775579,-0.200768,1.288988,0.935733,1.661597
447,1883370463,-0.369486,-0.458214,0.783470,-0.199245,-0.151473,-0.373226,1.135340
448,1883403797,-0.366660,-0.452734,0.787260,-0.202034,-0.456978,-2.510579,0.683736
449,1883437131,-0.362702,-0.451179,0.788385,-0.208180,-0.175885,-1.032282,1.387297
450,1883470465,-0.359150,-0.451541,0.788692,-0.212349,-0.281897,-0.243866,0.739151
451,1883503799,-0.355359,-0.455109,0.787046,-0.217161,0.510117,-0.134411,0.115088
452,1883537133,-0.352624,-0.458775,0.785134,-0.220796,0.439053,0.554369,0.183259
453,1883570467,-0.350458,-0.461186,0.784125,-0.222798,0.721548,0.457458,0.054134
454,1883603801,-0.349060,-0.461938,0.784066,-0.223639,0.654045,0.002055,0.030407
455,1883637135,-0.348182,-0.461479,0.784453,-0.224598,0.170354,0.286198,0.385251
456,1883670469,-0.346338,-0.461482,0.784633,-0.226804,0.008317,-0.143014,0.276047
457,1883703803,-0.342759,-0.462804,0.783882,-0.232082,0.482186,-0.422901,0.380121
458,1883737137,-0.338724,-0.465086,0.782147,-0.239191,0.145718,-0.279534,0.387703
459,1883770471,-0.335747,-0.466790,0.780916,-0.244039,-0.060168,-0.109788,0.346536
460,1883803805,-0.333114,-0.468721,0.779460,-0.248560,0.810782,-0.275179,0.393873
461,1883837139,-0.329473,-0.472186,0.776777,-0.255168,0.585796,-0.040078,0.299963
462,1883870473,-0.324783,-0.477750,0.772254,-0.264385,0.334500,0.138123,0.128815
463,1883903807,-0.321043,-0.483592,0.767388,-0.272379,-0.051724,0.258013,0.180927
464,1883937141,-0.318845,-0.488660,0.763639,-0.276423,-0.246060,-0.062578,0.102051
465,1883970475,-0.318025,-0.493732,0.759459,-0.279847,-0.032078,-0.383957,-0.366143
466,1884003809,-0.316484,-0.499649,0.754674,-0.284008,0.063633,0.117263,-0.213140
467,1884037143,-0.315368,-0.504583,0.750614,-0.287265,0.361426,0.435779,0.094986
468,1884070477,-0.314319,-0.508496,0.747452,-0.289751,0.181385,0.175967,0.196425
469,1884103811,-0.313315,-0.511471,0.744930,-0.292088,0.214019,-0.288302,0.423877
470,1884137145,-0.312361,-0.513636,0.742976,-0.294279,0.241316,-0.086506,0.595510
471,1884170479,-0.310851,-0.515681,0.741127,-0.296950,0.112256,-0.166235,0.341919
472,1884203813,-0.308912,-0.517261,0.739641,-0.299917,0.298732,-0.106564,0.303151
473,1884237147,-0.306641,-0.518119,0.738635,-0.303227,0.319628,0.046559,0.099086
474,1884270481,-0.304569,-0.518120,0.738132,-0.306520,0.295690,0.072456,0.064407
475,1884303815,-0.303252,-0.517171,0.738187,-0.309283,0.367719,-0.075528,0.107934
476,1884337149,-0.302182,-0.515853,0.738505,-0.311764,0.312613,-0.042858,0.219032
477,1884370483,-0.301266,-0.514499,0.738926,-0.313881,0.327855,-0.050452,0.255892
478,1884403817,-0.300153,-0.513779,0.739050,-0.315830,0.386504,-0.056320,0.271730
479,1884437151,-0.298820,-0.513892,0.738847,-0.317383,0.485075,0.020322,0.189659
480,1884470485,-0.297176,-0.514810,0.738193,-0.318955,0.575492,0.054911,0.086206
481,1884503819,-0.294926,-0.516759,0.736894,-0.320891,0.523232,0.064348,0.135800
482,1884537153,-0.292325,-0.519941,0.734745,-0.323049,0.388757,-0.017445,0.093211
483,1884570487,-0.289836,-0.524454,0.731698,-0.324907,0.088105,0.007848,0.073337
484,1884603821,-0.287469,-0.530512,0.727580,-0.326421,0.082553,-0.015973,0.268275
485,1884637155,-0.285076,-0.537604,0.722661,-0.327840,0.251280,0.015741,0.277865
486,1884670489,-0.282365,-0.545191,0.717383,-0.329245,0.405226,0.150245,0.252746
487,1884703823,-0.279608,-0.552266,0.712651,-0.330082,0.525260,0.174921,0.187860
488,1884737157,-0.277488,-0.558270,0.708617,-0.330456,0.145263,0.259441,0.026316
489,1884770491,-0.276380,-0.563289,0.705288,-0.329988,0.203554,0.176660,0.089979
490,1884803825,-0.275734,-0.567901,0.702208,-0.329192,0.219690,-0.014091,0.277125
491,1884837159,-0.275127,-0.572723,0.698794,-0.328610,-0.108263,-0.188722,0.656207
492,1884870493,-0.274607,-0.578415,0.694373,-0.328447,-0.813587,-0.259379,0.716073
493,1884903827,-0.275357,-0.584447,0.689721,-0.326940,-0.488461,-0.628315,0.132904
494,1884937161,-0.274900,-0.589904,0.684207,-0.329102,0.133745,-0.080747,0.053707
495,1884970495,-0.274691,-0.591915,0.681585,-0.331099,0.599374,0.457465,0.409148
496,1885003829,-0.275878,-0.590693,0.681564,-0.332337,-0.258790,0.018252,0.250104
497,1885037163,-0.277895,-0.588308,0.682529,-0.332906,-0.706814,-0.171947,-0.082086
498,1885070497,-0.280544,-0.586403,0.683062,-0.332952,-0.680375,0.048869,-0.006187
499,1885103831,-0.284068,-0.585170,0.683060,-0.332136,-0.414344,0.047907,0.092793
500,1885137165,-0.287745,-0.584284,0.683177,-0.330285,0.038528,-0.049459,0.287863
501,1885170499,-0.290940,-0.583298,0.683706,-0.328128,0.264379,-0.088041,0.202155
502,1885203833,-0.293501,-0.581478,0.685079,-0.326209,0.670273,0.142246,0.017574
503,1885237167,-0.296071,-0.577729,0.688168,-0.324037,0.781473,0.328435,-0.020178
504,1885270501,-0.299297,-0.572860,0.692207,-0.321102,-0.402095,0.321086,0.385706
505,1885303835,-0.302270,-0.569050,0.695683,-0.317560,-0.322544,-0.179241,0.116399
506,1885337169,-0.304222,-0.566372,0.698325,-0.314673,0.343906,-0.042332,-0.014468
507,1885370503,-0.306070,-0.563721,0.700922,-0.311854,0.360545,0.283715,0.411601
508,1885403837,-0.307887,-0.561344,0.703279,-0.309034,-0.121428,-0.381266,0.460113
509,1885437171,-0.310124,-0.559322,0.705092,-0.306318,-0.472071,-0.343246,0.288207
510,1885470505,-0.312307,-0.557115,0.706861,-0.304038,0.217319,0.039110,0.031598
511,1885503839,-0.314555,-0.553095,0.709848,-0.302096,0.603248,0.349109,-0.166487
512,1885537173,-0.317068,-0.546709,0.714543,-0.300015,0.662427,0.430460,0.037271
513,1885570507,-0.319690,-0.538970,0.720249,-0.297583,0.407610,0.117210,0.224072
514,1885603841,-0.322336,-0.531218,0.725934,-0.294841,0.264249,0.046236,0.448825
515,1885637175,-0.324879,-0.525138,0.730309,-0.292124,0.274590,-0.103744,0.423398
516,1885670509,-0.327302,-0.520969,0.733131,-0.289806,0.482752,-0.178566,0.314783
517,1885703843,-0.329471,-0.518218,0.734908,-0.287775,0.708523,-0.026497,0.197315
518,1885737177,-0.331202,-0.516407,0.736066,-0.286077,0.609769,-0.066295,0.091418
519,1885770511,-0.332774,-0.514993,0.736893,-0.284670,0.502144,-0.077179,0.336405
520,1885803845,-0.333865,-0.514193,0.737212,-0.284010,0.261216,-0.056282,0.703345
521,1885837179,-0.334690,-0.513739,0.737159,-0.284000,0.099791,-0.245278,0.570012
522,1885870513,-0.335889,-0.513097,0.736818,-0.284628,0.110887,-0.040489,0.376633
523,1885903847,-0.337912,-0.511856,0.736453,-0.285413,0.099959,0.091619,0.279501
524,1885937181,-0.340461,-0.510270,0.736044,-0.286275,-0.076561,-0.040404,0.037895
525,1885970515,-0.343588,-0.508306,0.735694,-0.286934,0.104176,0.029189,0.018554
526,1886003849,-0.347143,-0.506355,0.735220,-0.287320,0.100818,0.126900,0.254855
527,1886037183,-0.350613,-0.505018,0.734391,-0.287578,-0.057812,-0.093113,0.116897
528,1886070517,-0.353763,-0.504372,0.733284,-0.287679,0.038214,0.128496,0.173407
529,1886103851,-0.356423,-0.504188,0.732191,-0.287502,0.011628,0.111818,0.129171
530,1886137185,-0.358594,-0.504222,0.731226,-0.287199,0.072688,0.030153,0.246359
531,1886170519,-0.360152,-0.504299,0.730391,-0.287239,0.205483,-0.034411,-0.056799
532,1886203853,-0.361565,-0.503899,0.729972,-0.287232,-0.011023,0.151596,-0.083937
533,1886237187,-0.362764,-0.503280,0.729905,-0.286975,-0.103379,0.104058,0.050705
534,1886270521,-0.363570,-0.502557,0.730057,-0.286835,0.177546,-0.022381,0.066730
535,1886303855,-0.363711,-0.501384,0.730765,-0.286906,0.570044,0.102576,0.055088
536,1886337189,-0.363298,-0.499728,0.732057,-0.287025,0.408738,-0.002340,0.050263
537,1886370523,-0.362521,-0.498311,0.733373,-0.287113,0.086904,-0.007409,0.238210
538,1886403857,-0.361385,-0.497742,0.734299,-0.287165,0.059332,-0.063534,0.142756
539,1886437191,-0.360064,-0.498001,0.734702,-0.287341,0.241825,-0.071219,0.100609
540,1886470525,-0.358655,-0.498825,0.734740,-0.287578,0.256246,-0.071448,0.210052
541,1886503859,-0.356904,-0.500192,0.734513,-0.287963,0.160516,-0.090096,0.234575
542,1886537193,-0.354880,-0.502026,0.734027,-0.288512,0.229851,-0.085524,0.238945
543,1886570527,-0.352773,-0.503983,0.733416,-0.289237,0.241420,-0.037341,0.192712
544,1886603861,-0.350730,-0.505837,0.732809,-0.290023,0.091316,0.030613,0.235062
545,1886637195,-0.348755,-0.507669,0.732204,-0.290731,0.096237,-0.001165,0.212318
546,1886670529,-0.347060,-0.509104,0.731777,-0.291324,0.190615,0.063097,0.163413
547,1886703863,-0.345786,-0.509992,0.731611,-0.291703,0.227902,0.111920,0.215950
548,1886737197,-0.344635,-0.510889,0.731466,-0.291858,0.068766,-0.073695,0.219752
549,1886770531,-0.343217,-0.512173,0.731118,-0.292149,0.156405,-0.091970,0.128517
550,1886803865,-0.341522,-0.513781,0.730532,-0.292779,0.169898,0.071485,0.252719
551,1886837199,-0.340062,-0.515116,0.730203,-0.292952,0.145129,-0.040064,0.216141
552,1886870533,-0.338509,-0.516165,0.730020,-0.293360,0.287725,-0.034091,0.118235
553,1886903867,-0.337001,-0.516800,0.730047,-0.293911,0.214872,0.063797,0.277847
554,1886937201,-0.335416,-0.517399,0.730007,-0.294768,0.101005,-0.058116,0.275601
555,1886970535,-0.334157,-0.517970,0.729945,-0.295349,0.098186,-0.064591,0.294984
556,1887003869,-0.333083,-0.518516,0.729891,-0.295737,0.119941,0.005927,0.229351
557,1887037203,-0.332174,-0.519200,0.729711,-0.296003,0.016351,0.023503,0.243379
558,1887070537,-0.331474,-0.519867,0.729479,-0.296188,0.029352,-0.065651,0.126195
559,1887103871,-0.330960,-0.520452,0.729192,-0.296444,0.039402,0.017068,0.274025
560,1887137205,-0.330625,-0.520775,0.729060,-0.296574,0.039516,0.029267,0.273398
561,1887170539,-0.330346,-0.520844,0.729080,-0.296713,0.108475,-0.024811,0.196031
562,1887203873,-0.330296,-0.520616,0.729220,-0.296827,0.071427,0.011175,0.204272
563,1887237207,-0.330375,-0.520267,0.729343,-0.297047,0.075617,-0.016852,0.241191
564,1887270541,-0.330494,-0.519837,0.729520,-0.297235,0.058245,-0.034741,0.142971
565,1887303875,-0.330523,-0.519451,0.729671,-0.297506,0.113041,0.025038,0.209251
566,1887337209,-0.330629,-0.519016,0.729825,-0.297769,0.083414,-0.044692,0.122113
567,1887370543,-0.330792,-0.518653,0.729926,-0.297973,0.106540,0.075331,0.238925
568,1887403877,-0.330913,-0.518525,0.729964,-0.297967,0.087719,-0.036612,0.179450
569,1887437211,-0.330862,-0.518651,0.729907,-0.297945,0.115826,-0.080008,0.141812
570,1887470545,-0.330720,-0.518811,0.729828,-0.298018,0.183780,0.044570,0.159874
571,1887503879,-0.330520,-0.518925,0.729816,-0.298071,0.171344,0.006020,0.210721
572,1887537213,-0.330250,-0.518941,0.729899,-0.298139,0.141778,-0.043741,0.227608
573,1887570547,-0.329924,-0.518918,0.730026,-0.298228,0.106381,0.009186,0.187281
574,1887603881,-0.329578,-0.518957,0.730115,-0.298327,0.068012,-0.001457,0.215164
575,1887637215,-0.329269,-0.519024,0.730150,-0.298463,0.050325,-0.059935,0.227638
576,1887670549,-0.328949,-0.519066,0.730158,-0.298726,0.082276,-0.013984,0.210427
577,1887703883,-0.328728,-0.519088,0.730135,-0.298985,0.165244,-0.006833,0.228001
578,1887737217,-0.328577,-0.519010,0.730184,-0.299167,0.088491,0.040828,0.209776
579,1887770551,-0.328519,-0.518991,0.730208,-0.299206,0.055285,0.019679,0.156855
580,1887803885,-0.328555,-0.519142,0.730124,-0.299107,0.116629,-0.042068,0.160477
581,1887837219,-0.328601,-0.519411,0.729967,-0.298975,0.148665,-0.000488,0.204561
582,1887870553,-0.328550,-0.519820,0.729781,-0.298773,0.202366,0.054327,0.247256
583,1887903887,-0.328292,-0.520387,0.729552,-0.298627,0.121321,-0.018053,0.191645
584,1887937221,-0.327895,-0.520923,0.729371,-0.298574,0.174402,-0.017829,0.195807
585,1887970555,-0.327357,-0.521394,0.729242,-0.298657,0.179598,0.016535,0.241504
586,1888003889,-0.326822,-0.521686,0.729230,-0.298762,0.126871,-0.046940,0.221948
587,1888037223,-0.326267,-0.521883,0.729250,-0.298975,0.174001,0.010564,0.232669
588,1888070557,-0.325712,-0.522123,0.729218,-0.299240,0.180812,-0.039290,0.206985
589,1888103891,-0.325131,-0.522569,0.729026,-0.299560,0.112286,-0.068081,0.188927
590,1888137225,-0.324483,-0.523271,0.728679,-0.299880,0.105500,-0.009199,0.244545
591,1888170559,-0.323849,-0.524131,0.728227,-0.300164,0.080224,-0.023228,0.209521
592,1888203893,-0.323231,-0.525066,0.727708,-0.300453,0.097973,-0.049824,0.192098
593,1888237227,-0.322685,-0.525843,0.727256,-0.300776,0.087615,-0.012347,0.210222
594,1888270561,-0.322286,-0.526330,0.726950,-0.301090,0.076932,-0.028542,0.218051
595,1888303895,-0.321924,-0.526583,0.726769,-0.301474,0.079876,-0.011621,0.230251
596,1888337229,-0.321583,-0.526551,0.726786,-0.301852,0.078739,-0.017681,0.193170
597,1888370563,-0.321155,-0.526442,0.726902,-0.302218,0.049477,-0.055696,0.183242
598,1888403897,-0.320630,-0.526373,0.727010,-0.302635,0.057333,-0.080484,0.155147
599,1888437231,-0.320042,-0.526249,0.727154,-0.303128,0.121258,-0.009195,0.142418
600,1888470565,-0.319427,-0.526090,0.727353,-0.303575,0.081705,-0.023908,0.200137
601,1888503899,-0.318754,-0.526064,0.727497,-0.303981,-0.005210,-0.138108,0.196531
602,1888537233,-0.318106,-0.526231,0.727426,-0.304539,0.042238,-0.061157,0.230314
603,1888570567,-0.317510,-0.526415,0.727374,-0.304967,0.052815,-0.008962,0.217064
604,1888603901,-0.316878,-0.526660,0.727342,-0.305281,0.007220,-0.072569,0.160133
605,1888637235,-0.316242,-0.526876,0.727332,-0.305588,0.011396,-0.079030,0.200553
606,1888670569,-0.315741,-0.526891,0.727467,-0.305760,0.022350,-0.038340,0.127553
607,1888703903,-0.315325,-0.526775,0.727704,-0.305825,0.057862,-0.040972,0.192903
608,1888737237,-0.314944,-0.526685,0.727922,-0.305856,-0.021513,-0.056334,0.259396
609,1888770571,-0.314567,-0.526684,0.728124,-0.305763,-0.032144,-0.098381,0.194028
610,1888803905,-0.314213,-0.526819,0.728207,-0.305697,0.087355,-0.040764,0.186315
611,1888837239,-0.313864,-0.526852,0.728404,-0.305528,0.119336,-0.059397,0.088767
612,1888870573,-0.313305,-0.526837,0.728737,-0.305334,0.183653,-0.068672,0.077600
613,1888903907,-0.312560,-0.526625,0.729313,-0.305088,0.128554,-0.052515,0.104652
614,1888937241,-0.311592,-0.526443,0.729955,-0.304857,0.075891,0.018750,0.165828
615,1888970575,-0.310734,-0.526292,0.730572,-0.304516,0.081407,0.137087,0.315138
616,1889003909,-0.310220,-0.526149,0.731090,-0.304044,0.057403,0.021723,0.353774
617,1889037243,-0.310123,-0.526049,0.731544,-0.303223,0.013270,-0.198877,0.367925
618,1889070577,-0.309725,-0.526290,0.731695,-0.302846,0.038288,-0.195757,0.229943
619,1889103911,-0.308982,-0.526812,0.731607,-0.302910,0.090434,-0.036922,0.102079
620,1889137245,-0.308109,-0.527298,0.731558,-0.303074,0.077197,0.080372,0.048827
621,1889170579,-0.307405,-0.527356,0.731856,-0.302968,0.106943,-0.006360,0.123140
622,1889203913,-0.306942,-0.526914,0.732464,-0.302736,0.075987,-0.030303,0.272514
623,1889237247,-0.306458,-0.526403,0.732998,-0.302824,-0.055704,0.010558,0.307258
624,1889270581,-0.306203,-0.525843,0.733445,-0.302971,-0.077495,-0.032387,0.270395
625,1889303915,-0.306579,-0.525131,0.733739,-0.303114,0.207185,-0.195771,-0.022840
626,1889337249,-0.308045,-0.524000,0.734329,-0.302157,0.224934,0.016222,-0.026276
627,1889370583,-0.309707,-0.523148,0.734784,-0.300824,-0.061963,0.116948,0.307646
628,1889403917,-0.310458,-0.523289,0.734688,-0.300037,-0.096722,-0.167107,0.351111
629,1889437251,-0.310665,-0.523790,0.734329,-0.299828,0.019902,-0.050371,0.236034
630,1889470585,-0.310965,-0.524166,0.734048,-0.299548,0.033830,0.135291,0.220649
631,1889503919,-0.311526,-0.524269,0.733941,-0.299046,-0.012246,-0.007813,0.211607
632,1889537253,-0.312164,-0.524189,0.733906,-0.298607,-0.002487,-0.110347,0.227592
633,1889570587,-0.312698,-0.524148,0.733809,-0.298356,0.046310,-0.042789,0.219526
634,1889603921,-0.313276,-0.524067,0.733747,-0.298047,0.043875,-0.138825,0.156806
635,1889637255,-0.313744,-0.524162,0.733555,-0.297858,0.024030,-0.071924,0.149202
636,1889670589,-0.314045,-0.524499,0.733217,-0.297781,0.105360,0.023137,0.146146
637,1889703923,-0.314237,-0.524960,0.732819,-0.297746,0.024911,-0.019357,0.160497
638,1889737257,-0.314779,-0.525320,0.732433,-0.297488,-0.044791,-0.114957,0.164860
639,1889770591,-0.314799,-0.526181,0.731717,-0.297708,-0.042196,0.003222,0.151567
640,1889803925,-0.314896,-0.527174,0.730860,-0.297953,-0.003521,0.081777,0.238915
641,1889837259,-0.315066,-0.528272,0.729959,-0.298036,-0.047778,0.057208,0.195708
642,1889870593,-0.315168,-0.529487,0.728959,-0.298221,-0.070621,-0.021450,0.246846
643,1889903927,-0.316970,-0.529117,0.729080,-0.296668,0.592686,-0.363786,-0.490820
644,1889937261,-0.319668,-0.528022,0.729500,-0.294685,0.226026,0.341656,0.292830
645,1889970595,-0.320865,-0.528110,0.729258,-0.293824,-0.461470,0.183547,0.573982
646,1890003929,-0.321079,-0.528765,0.728892,-0.293319,-0.155214,-0.408487,0.257714
647,1890037263,-0.320908,-0.529264,0.728544,-0.293472,-0.040458,0.203827,0.227007
648,1890070597,-0.320929,-0.529331,0.728511,-0.293409,-0.024153,0.187482,0.080623
649,1890103931,-0.321086,-0.529052,0.728726,-0.293208,-0.135016,-0.086331,0.095853
650,1890137265,-0.321061,-0.528770,0.728960,-0.293162,-0.075407,-0.053287,0.188530
651,1890170599,-0.320972,-0.528579,0.729141,-0.293153,-0.067203,0.050989,0.225032
652,1890203933,-0.321119,-0.528438,0.729268,-0.292931,-0.113398,0.038971,0.252180
653,1890237267,-0.321437,-0.528403,0.729320,-0.292516,-0.085289,-0.031859,0.187748
654,1890270601,-0.321780,-0.528538,0.729191,-0.292216,-0.070364,-0.080775,0.161430
655,1890303935,-0.321993,-0.528693,0.729014,-0.292142,-0.023467,0.041913,0.239091
656,1890337269,-0.322120,-0.528506,0.729113,-0.292095,0.066272,0.052657,0.227134
657,1890370603,-0.322240,-0.527751,0.729667,-0.291943,-0.018687,0.056215,0.195275
658,1890403937,-0.322341,-0.526432,0.730628,-0.291809,0.059559,0.050014,0.212280
659,1890437271,-0.322302,-0.524925,0.731747,-0.291762,0.094118,0.051841,0.207670
660,1890470605,-0.322275,-0.523125,0.733116,-0.291589,0.094221,0.026530,0.224113
661,1890503939,-0.322226,-0.521403,0.734466,-0.291330,0.159368,0.005258,0.215014
662,1890537273,-0.322179,-0.519847,0.735689,-0.291078,0.198075,-0.011697,0.213586
663,1890570607,-0.321743,-0.518923,0.736557,-0.291013,0.176187,-0.086960,0.197581
664,1890603941,-0.321035,-0.518572,0.737056,-0.291157,0.251002,-0.129664,0.249109
665,1890637275,-0.319943,-0.518930,0.737040,-0.291761,0.178377,-0.154109,0.174136
666,1890670609,-0.318509,-0.519994,0.736564,-0.292637,0.158256,-0.103285,0.166405
667,1890703943,-0.316977,-0.521475,0.735861,-0.293431,0.160392,-0.082117,0.231453
668,1890737277,-0.315491,-0.523244,0.735004,-0.294033,0.250751,-0.211879,0.173077
669,1890770611,-0.314140,-0.525334,0.733798,-0.294764,-0.030360,-0.019744,0.300326
670,1890803945,-0.313123,-0.527569,0.732474,-0.295146,0.020403,-0.085164,0.305508
671,1890837279,-0.312444,-0.529496,0.731313,-0.295292,0.027964,-0.222670,0.177511
672,1890870613,-0.312041,-0.531264,0.730112,-0.295517,-0.130722,-0.146561,0.183178
673,1890903947,-0.311642,-0.533289,0.728621,-0.295970,-0.213837,-0.049643,0.172035
674,1890937281,-0.311245,-0.535182,0.727130,-0.296639,-0.163835,-0.098859,0.147928
675,1890970615,-0.310943,-0.536932,0.725692,-0.297310,-0.030274,-0.105730,0.137143
676,1891003949,-0.310653,-0.538348,0.724503,-0.297953,-0.139769,-0.094295,0.139620
677,1891037283,-0.310407,-0.539614,0.723453,-0.298469,-0.312728,0.061372,0.211203
678,1891070617,-0.310525,-0.540587,0.722723,-0.298354,-0.233891,0.053522,0.276352
679,1891103951,-0.310854,-0.541335,0.722207,-0.297907,-0.251115,-0.037904,0.166941
680,1891137285,-0.311259,-0.541837,0.721851,-0.297433,-0.286388,0.032441,0.127078
681,1891170619,-0.311972,-0.541669,0.722020,-0.296580,-0.242865,0.059276,0.118089
682,1891203953,-0.312532,-0.541355,0.722325,-0.295821,-0.112591,0.069345,0.167389
683,1891237287,-0.313050,-0.540024,0.723468,-0.294909,-0.094586,0.024884,0.150408
684,1891270621,-0.313174,-0.538319,0.724896,-0.294389,-0.030719,0.062226,0.184800
685,1891303955,-0.313439,-0.535624,0.727028,-0.293765,0.021190,0.064189,0.207313
686,1891337289,-0.313630,-0.532784,0.729262,-0.293187,0.045635,-0.010181,0.199702
687,1891370623,-0.313812,-0.529800,0.731618,-0.292530,0.036233,0.009804,0.186361
688,1891403957,-0.313978,-0.526896,0.733996,-0.291638,0.066898,-0.013203,0.199813
689,1891437291,-0.313725,-0.525156,0.735685,-0.290793,0.083098,-0.054009,0.158534
690,1891470625,-0.313354,-0.523804,0.737181,-0.289840,0.097860,-0.018414,0.152554
691,1891503959,-0.313089,-0.522747,0.738428,-0.288859,0.140959,0.001790,0.231508
692,1891537293,-0.312720,-0.521922,0.739530,-0.287931,0.126339,-0.022207,0.259639
693,1891570627,-0.312096,-0.521301,0.740491,-0.287262,0.170887,-0.090494,0.247216
694,1891603961,-0.311372,-0.520733,0.741343,-0.286879,0.104861,-0.064682,0.221278
695,1891637295,-0.310602,-0.520275,0.742025,-0.286782,0.087043,-0.046094,0.212426
696,1891670629,-0.309817,-0.519906,0.742523,-0.287011,0.051499,-0.061389,0.240774
697,1891703963,-0.309025,-0.519734,0.742780,-0.287510,0.140305,-0.102889,0.158620
698,1891737297,-0.308319,-0.519860,0.742727,-0.288177,0.038290,-0.027978,0.261750
699,1891770631,-0.307966,-0.520137,0.742546,-0.288520,0.024299,-0.078611,0.280603
700,1891803965,-0.307652,-0.520665,0.742201,-0.288791,-0.038309,-0.055985,0.216954
701,1891837299,-0.307298,-0.521269,0.741833,-0.289022,-0.058968,0.003817,0.184603
702,1891870633,-0.307153,-0.521695,0.741638,-0.288908,0.063545,0.086446,0.251018
703,1891903967,-0.307275,-0.522078,0.741434,-0.288613,0.116214,-0.055814,0.224890
704,1891937301,-0.307497,-0.522701,0.740977,-0.288421,0.163939,-0.096818,0.271719
705,1891970635,-0.307650,-0.523938,0.739987,-0.288554,0.223656,-0.045722,0.296277
706,1892003969,-0.307776,-0.525878,0.738441,-0.288851,0.257093,-0.110265,0.209313
707,1892037303,-0.307688,-0.528533,0.736308,-0.289543,0.262628,-0.125355,0.223116
708,1892070637,-0.307292,-0.531944,0.733570,-0.290664,0.172535,-0.044235,0.227632
709,1892103971,-0.306756,-0.535700,0.730487,-0.292096,0.138595,-0.005906,0.255040
710,1892137305,-0.306201,-0.539676,0.727158,-0.293660,0.090568,-0.007241,0.237440
711,1892170639,-0.305797,-0.543315,0.724011,-0.295142,0.061696,-0.052407,0.221075
712,1892203973,-0.305425,-0.547110,0.720630,-0.296788,0.025602,0.027078,0.278359
713,1892237307,-0.305211,-0.550717,0.717342,-0.298299,-0.020018,-0.041376,0.204655
714,1892270641,-0.304795,-0.554559,0.713846,-0.299990,-0.046719,-0.006146,0.156362
715,1892303975,-0.304316,-0.558421,0.710344,-0.301616,-0.005933,0.001949,0.184456
716,1892337309,-0.303619,-0.562238,0.707000,-0.303082,0.003856,0.008353,0.232422
717,1892370643,-0.302489,-0.566170,0.703752,-0.304451,-0.108345,-0.015077,0.121288
718,1892403977,-0.301280,-0.570057,0.700620,-0.305617,-0.190125,-0.014363,0.076154
719,1892437311,-0.300169,-0.573761,0.697600,-0.306684,-0.357863,-0.004028,0.111050
720,1892470645,-0.299381,-0.577036,0.694887,-0.307468,-0.360300,-0.016728,0.216204
721,1892503979,-0.298713,-0.579773,0.692564,-0.308210,-0.246712,-0.114480,0.201804
722,1892537313,-0.298145,-0.581742,0.690799,-0.309009,-0.153520,-0.122794,0.199964
723,1892570647,-0.297613,-0.582973,0.689570,-0.309945,-0.159415,-0.120335,0.216792
724,1892603981,-0.297110,-0.583675,0.688752,-0.310923,-0.251438,-0.135455,0.194085
725,1892637315,-0.296777,-0.584111,0.688119,-0.311825,-0.295552,-0.128757,0.189787
726,1892670649,-0.296676,-0.584565,0.687415,-0.312622,-0.356055,-0.160399,0.170959
727,1892703983,-0.296796,-0.585123,0.686575,-0.313309,-0.298476,-0.147849,0.132705
728,1892737317,-0.297048,-0.585799,0.685676,-0.313774,-0.270593,-0.125988,0.132936
729,1892770651,-0.297360,-0.586580,0.684784,-0.313969,-0.296803,-0.147170,0.110209
730,1892803985,-0.297721,-0.587385,0.683949,-0.313941,-0.283527,-0.157916,0.136633
731,1892837319,-0.298137,-0.588072,0.683247,-0.313789,-0.194326,-0.180200,0.107744
732,1892870653,-0.298700,-0.588396,0.682928,-0.313341,-0.241590,0.001664,0.170031
733,1892903987,-0.299383,-0.588347,0.683010,-0.312602,-0.193782,-0.084182,0.164782
734,1892937321,-0.300371,-0.587919,0.683316,-0.311788,-0.429575,-0.053204,0.201540
735,1892970655,-0.301569,-0.587444,0.683679,-0.310730,-0.218947,-0.035117,0.306484
736,1893003989,-0.302885,-0.586653,0.684329,-0.309512,-0.267615,0.007983,0.158019
737,1893037323,-0.304337,-0.585079,0.685621,-0.308205,-0.051708,0.042598,0.147365
738,1893070657,-0.305813,-0.582677,0.687549,-0.306996,-0.053128,0.034578,0.204130
739,1893103991,-0.307092,-0.579657,0.689971,-0.306000,-0.054236,-0.051576,0.246943
740,1893137325,-0.308172,-0.576333,0.692612,-0.305227,0.010124,-0.023158,0.276400
741,1893170659,-0.308824,-0.572959,0.695359,-0.304674,0.041423,-0.020074,0.229655
742,1893203993,-0.309223,-0.569490,0.698223,-0.304222,0.085840,0.072014,0.187011
743,1893237327,-0.309420,-0.565951,0.701194,-0.303792,0.129620,0.048062,0.260058
744,1893270661,-0.309477,-0.562541,0.704066,-0.303427,0.012063,-0.048348,0.272404
745,1893303995,-0.309499,-0.559561,0.706566,-0.303102,0.013052,-0.117359,0.262011
746,1893337329,-0.309698,-0.556895,0.708767,-0.302669,0.041237,-0.096673,0.224476
747,1893370663,-0.309973,-0.554819,0.710435,-0.302290,0.074038,-0.098317,0.147771
748,1893403997,-0.310224,-0.553135,0.711735,-0.302060,0.130349,-0.062508,0.114080
749,1893437331,-0.310343,-0.551382,0.713083,-0.301962,0.166212,-0.031195,0.216485
750,1893470665,-0.310427,-0.549707,0.714386,-0.301851,0.107784,-0.052542,0.185915
751,1893503999,-0.310464,-0.548180,0.715593,-0.301730,0.106372,-0.080546,0.125167
752,1893537333,-0.310428,-0.546988,0.716630,-0.301472,0.056198,0.005932,0.183474
753,1893570667,-0.310356,-0.546111,0.717545,-0.300957,0.094458,0.044706,0.220267
754,1893604001,-0.310330,-0.545373,0.718465,-0.300126,0.169893,0.018616,0.174455
755,1893637335,-0.310158,-0.545123,0.719037,-0.299386,0.099918,-0.013502,0.254247
756,1893670669,-0.309792,-0.545110,0.719451,-0.298794,-0.002068,-0.114908,0.356628
757,1893704003,-0.309251,-0.545159,0.719840,-0.298330,0.034215,-0.120799,0.266633
758,1893737337,-0.308459,-0.545611,0.719897,-0.298185,0.044060,-0.002543,0.179752
759,1893770671,-0.307790,-0.545769,0.720124,-0.298040,0.004641,-0.002538,0.145187
760,1893804005,-0.307131,-0.545610,0.720514,-0.298066,-0.013830,-0.003477,0.271576
761,1893837339,-0.306517,-0.544734,0.721348,-0.298285,-0.090163,-0.034386,0.248585
762,1893870673,-0.305882,-0.543648,0.722244,-0.298748,-0.118350,-0.014770,0.206616
763,1893904007,-0.305417,-0.542259,0.723184,-0.299476,-0.043168,-0.014088,0.244752
764,1893937341,-0.305186,-0.540891,0.723881,-0.300499,0.002939,-0.143476,0.152223
765,1893970675,-0.305753,-0.539037,0.724778,-0.301090,-0.198182,0.060434,0.187401
766,1894004009,-0.306199,-0.537999,0.725190,-0.301501,0.057164,-0.094192,0.256731
767,1894037343,-0.306909,-0.537324,0.725465,-0.301321,-0.210924,-0.088923,0.257483
768,1894070677,-0.307130,-0.537647,0.725045,-0.301532,-0.261265,-0.140096,0.192055
769,1894104011,-0.307338,-0.538384,0.724316,-0.301755,-0.228296,-0.001240,0.171199
770,1894137345,-0.307568,-0.539287,0.723486,-0.301900,-0.164545,0.017959,0.164380
771,1894170679,-0.307806,-0.540008,0.722816,-0.301974,-0.148975,-0.093021,0.170267
772,1894204013,-0.307998,-0.540553,0.722255,-0.302146,-0.133306,-0.073664,0.229896
773,1894237347,-0.308112,-0.541336,0.721486,-0.302465,-0.194681,-0.067085,0.168267
774,1894270681,-0.308071,-0.542739,0.720257,-0.302920,-0.235291,-0.118374,0.101130
775,1894304015,-0.308070,-0.544573,0.718730,-0.303255,-0.190863,-0.106626,0.101189
776,1894337349,-0.308083,-0.546984,0.716808,-0.303453,-0.192883,-0.043061,0.149013
777,1894370683,-0.307956,-0.549790,0.714686,-0.303518,-0.161285,-0.099356,0.149547
778,1894404017,-0.307599,-0.552713,0.712551,-0.303588,-0.121225,-0.060453,0.178531
779,1894437351,-0.307019,-0.555280,0.710746,-0.303723,-0.108503,-0.017240,0.137640
780,1894470685,-0.306427,-0.557074,0.709588,-0.303743,-0.214601,-0.003233,0.170886
781,1894504019,-0.305730,-0.558515,0.708731,-0.303800,-0.072374,0.003847,0.241478
782,1894537353,-0.305107,-0.559600,0.708079,-0.303950,-0.028609,-0.010530,0.270117
783,1894570687,-0.304681,-0.560438,0.707555,-0.304055,-0.061163,-0.150001,0.208142
784,1894604021,-0.304352,-0.561218,0.706998,-0.304241,0.035553,-0.109016,0.243364
785,1894637355,-0.303705,-0.562669,0.705826,-0.304927,-0.013051,-0.082673,0.195630
786,1894670689,-0.303246,-0.564041,0.704756,-0.305324,0.079940,-0.087855,0.218028
787,1894704023,-0.302537,-0.566198,0.702985,-0.306115,0.002161,-0.028758,0.270116
788,1894737357,-0.302039,-0.568162,0.701332,-0.306760,-0.030734,-0.044844,0.262421
789,1894770691,-0.301479,-0.570320,0.699464,-0.307571,-0.056488,-0.043307,0.184097
790,1894804025,-0.300814,-0.572800,0.697336,-0.308443,-0.025323,-0.013949,0.190907
791,1894837359,-0.300229,-0.574796,0.695603,-0.309213,-0.015371,-0.026918,0.211444
792,1894870693,-0.299568,-0.576519,0.694126,-0.309963,-0.038740,-0.030450,0.228263
793,1894904027,-0.298835,-0.578043,0.692841,-0.310707,-0.001868,-0.043684,0.192064
794,1894937361,-0.297998,-0.579460,0.691675,-0.311469,-0.046401,-0.032908,0.193151
795,1894970695,-0.297163,-0.580653,0.690691,-0.312229,-0.031652,-0.062771,0.218014
796,1895004029,-0.296267,-0.581777,0.689813,-0.312928,-0.074387,-0.137558,0.144436
797,1895037363,-0.295350,-0.582964,0.688878,-0.313645,-0.078320,-0.059663,0.235006
798,1895070697,-0.294537,-0.584205,0.687887,-0.314274,-0.110857,-0.087479,0.244535
799,1895104031,-0.293858,-0.585494,0.686847,-0.314785,-0.196727,-0.120213,0.183372
800,1895137365,-0.293378,-0.586754,0.685847,-0.315066,-0.212205,-0.123058,0.151978
801,1895170699,-0.293064,-0.588051,0.684822,-0.315171,-0.152365,-0.096001,0.168890
802,1895204033,-0.292836,-0.589257,0.683864,-0.315210,-0.168294,-0.039210,0.198348
803,1895237367,-0.292710,-0.590317,0.682991,-0.315236,-0.244797,-0.129955,0.228508
804,1895270701,-0.292560,-0.591004,0.682446,-0.315269,-0.204128,-0.084812,0.241587
805,1895304035,-0.292570,-0.591259,0.682232,-0.315246,-0.212038,-0.067365,0.224713
806,1895337369,-0.292752,-0.590943,0.682455,-0.315187,-0.252788,-0.093937,0.175374
807,1895370703,-0.292895,-0.590281,0.682962,-0.315196,-0.222947,-0.066095,0.170264
808,1895404037,-0.293095,-0.589225,0.683791,-0.315188,-0.165452,-0.024746,0.171140
809,1895437371,-0.293304,-0.587945,0.684841,-0.315103,-0.109680,-0.011365,0.192051
810,1895470705,-0.293415,-0.586738,0.685956,-0.314825,-0.162389,-0.094377,0.194217
811,1895504039,-0.293426,-0.585756,0.686985,-0.314400,-0.133540,-0.043170,0.190445
812,1895537373,-0.293369,-0.584982,0.687934,-0.313819,-0.031222,-0.015736,0.152098
813,1895570707,-0.293130,-0.584347,0.688903,-0.313100,0.040484,-0.000346,0.193751
814,1895604041,-0.292490,-0.584032,0.689823,-0.312258,0.016100,-0.028593,0.217015
815,1895637375,-0.290863,-0.584216,0.690813,-0.311243,0.017092,0.177298,0.324363
816,1895670709,-0.287917,-0.585171,0.691849,-0.309885,0.014715,-0.011181,-0.026608
817,1895704043,-0.284282,-0.586634,0.692795,-0.308357,-0.035857,-0.009266,-0.235094
818,1895737377,-0.280476,-0.588267,0.693786,-0.306496,0.025247,0.070279,-0.114129
819,1895770711,-0.276644,-0.590187,0.694630,-0.304370,-0.045455,-0.016747,0.132978
820,1895804045,-0.272788,-0.592048,0.695730,-0.301710,-0.129182,-0.078722,0.057084
821,1895837379,-0.270390,-0.592970,0.697272,-0.298483,-0.062171,-0.290385,0.196101
822,1895870713,-0.268242,-0.593602,0.699079,-0.294915,-0.464834,0.238567,0.358514
823,1895904047,-0.265478,-0.594500,0.700727,-0.291681,-0.675278,0.012477,0.449566
824,1895937381,-0.261974,-0.595309,0.703002,-0.287698,-0.166056,-0.298521,0.117017
825,1895970715,-0.258712,-0.595719,0.705183,-0.284444,-0.115989,0.038816,-0.006086
826,1896004049,-0.255265,-0.596212,0.707289,-0.281277,-0.062692,0.104201,0.101266
827,1896037383,-0.251691,-0.596890,0.709382,-0.277768,0.043839,-0.116073,0.167845
828,1896070717,-0.248461,-0.597647,0.711264,-0.274213,0.225509,-0.345759,0.398492
829,1896104051,-0.245936,-0.598526,0.712394,-0.271627,0.126598,-0.367777,0.410750
830,1896137385,-0.243185,-0.599976,0.712866,-0.269660,-0.079203,-0.326486,0.428341
831,1896170719,-0.240970,-0.601821,0.712383,-0.268810,-0.200105,-0.264088,0.177011
832,1896204053,-0.239079,-0.603954,0.711251,-0.268711,-0.269427,-0.203301,0.143607
833,1896237387,-0.237733,-0.606113,0.709734,-0.269057,-0.306206,-0.022120,0.213638
834,1896270721,-0.237016,-0.607918,0.708355,-0.269252,-0.252337,-0.069860,0.217052
835,1896304055,-0.236675,-0.609394,0.707117,-0.269471,-0.135220,-0.168509,0.243720
836,1896337389,-0.236552,-0.610638,0.705863,-0.270047,-0.145923,-0.181808,0.242688
837,1896370723,-0.236822,-0.611290,0.704814,-0.271074,-0.215825,-0.131993,0.274929
838,1896404057,-0.237428,-0.611194,0.704185,-0.272391,-0.185596,-0.110154,0.251451
839,1896437391,-0.238351,-0.610445,0.703952,-0.273867,-0.139430,-0.061969,0.258627
840,1896470725,-0.239705,-0.609142,0.704069,-0.275279,-0.061909,-0.102993,0.184284
841,1896504059,-0.241168,-0.607691,0.704209,-0.276846,-0.071173,-0.128056,0.162754
842,1896537393,-0.242628,-0.606486,0.704127,-0.278416,-0.038220,-0.191664,0.163595
843,1896570727,-0.243958,-0.605689,0.703705,-0.280053,-0.084871,-0.167407,0.133524
844,1896604061,-0.245226,-0.605199,0.703050,-0.281643,-0.036741,-0.098204,0.109884
845,1896637395,-0.246467,-0.605034,0.702183,-0.283075,-0.055008,-0.009923,0.220092
846,1896670729,-0.247900,-0.604961,0.701364,-0.284006,0.012176,-0.084587,0.236218
847,1896704063,-0.249321,-0.604925,0.700554,-0.284839,-0.022904,-0.107663,0.132807
848,1896737397,-0.250695,-0.604917,0.699773,-0.285568,-0.012565,-0.094171,0.157950
849,1896770731,-0.252017,-0.605051,0.698920,-0.286209,-0.078666,-0.070755,0.186816
850,1896804065,-0.253450,-0.605303,0.698046,-0.286544,-0.158063,-0.048813,0.166477
851,1896837399,-0.254898,-0.605748,0.697129,-0.286551,-0.196418,-0.116012,0.162734
852,1896870733,-0.256423,-0.606263,0.696183,-0.286402,-0.109760,-0.070372,0.259378
853,1896904067,-0.258311,-0.606340,0.695613,-0.285925,-0.147070,-0.024709,0.291831
854,1896937401,-0.260195,-0.606109,0.695322,-0.285415,-0.146243,-0.061555,0.235404
855,1896970735,-0.262119,-0.605158,0.695611,-0.284969,-0.045317,-0.115445,0.153448
856,1897004069,-0.263830,-0.603906,0.696118,-0.284807,-0.041803,-0.094982,0.115773
857,1897037403,-0.265351,-0.602467,0.696787,-0.284807,-0.129508,-0.056332,0.158036
858,1897070737,-0.266830,-0.600964,0.697514,-0.284820,-0.161645,-0.122533,0.146974
859,1897104071,-0.268033,-0.599791,0.697976,-0.285031,-0.172745,-0.182037,0.125978
860,1897137405,-0.269137,-0.598904,0.698250,-0.285185,-0.153350,-0.068501,0.137630
861,1897170739,-0.270283,-0.598287,0.698376,-0.285086,-0.177575,-0.067520,0.158863
862,1897204073,-0.271660,-0.597456,0.698705,-0.284716,-0.154334,-0.162816,0.169804
863,1897237407,-0.272752,-0.597027,0.698704,-0.284574,-0.189312,-0.187726,0.154300
864,1897270741,-0.273849,-0.596290,0.698956,-0.284446,-0.203351,-0.054070,0.219718
865,1897304075,-0.274926,-0.595372,0.699396,-0.284249,-0.215721,-0.078568,0.129417
866,1897337409,-0.275950,-0.594123,0.700114,-0.284104,-0.146075,-0.041793,0.147161
867,1897370743,-0.276889,-0.592595,0.701121,-0.283896,-0.244892,-0.062463,0.147369
868,1897404077,-0.277775,-0.591069,0.702157,-0.283653,-0.173685,-0.098147,0.178134
869,1897437411,-0.278695,-0.589293,0.703394,-0.283379,-0.248784,-0.018659,0.227083
870,1897470745,-0.279621,-0.587516,0.704646,-0.283047,-0.195626,0.017469,0.237498
871,1897504079,-0.280597,-0.585707,0.705960,-0.282555,-0.157997,-0.064095,0.137026
872,1897537413,-0.281600,-0.583973,0.707187,-0.282079,-0.139668,-0.023013,0.182406
873,1897570747,-0.282659,-0.582245,0.708447,-0.281429,-0.132075,-0.017021,0.167114
874,1897604081,-0.283674,-0.580767,0.709546,-0.280692,-0.094673,-0.025350,0.184318
875,1897637415,-0.284591,-0.579597,0.710470,-0.279842,-0.063249,-0.080125,0.206513
876,1897670749,-0.285076,-0.578976,0.711092,-0.279053,0.080597,-0.110311,0.180143
877,1897704083,-0.284979,-0.578776,0.711517,-0.278482,0.086926,-0.113359,0.076058
878,1897737417,-0.284408,-0.578803,0.711917,-0.277988,0.003840,-0.111651,0.103244
879,1897770751,-0.283252,-0.578952,0.712372,-0.277691,-0.054692,-0.104760,0.149657
880,1897804085,-0.281700,-0.579106,0.712920,-0.277543,-0.106069,-0.068491,0.235051
881,1897837419,-0.280144,-0.578956,0.713603,-0.277676,-0.104004,-0.157635,0.172730
882,1897870753,-0.278796,-0.578426,0.714429,-0.278013,-0.165704,-0.045067,0.272160
883,1897904087,-0.277920,-0.577827,0.715141,-0.278305,-0.240309,-0.131094,0.204714
884,1897937421,-0.277436,-0.577582,0.715346,-0.278772,-0.210950,-0.228462,0.211610
885,1897970755,-0.277246,-0.577742,0.715125,-0.279195,-0.144938,-0.245006,0.193732
886,1898004089,-0.277432,-0.578121,0.714716,-0.279272,-0.002496,-0.191722,0.315439
887,1898037423,-0.277569,-0.578778,0.714112,-0.279321,0.048845,-0.280164,0.328896
888,1898070757,-0.277561,-0.579373,0.713521,-0.279607,-0.034734,-0.310596,0.418938
889,1898104091,-0.277038,-0.580216,0.712553,-0.280843,-0.250967,-0.189614,0.527519
890,1898137425,-0.276664,-0.581099,0.711241,-0.282704,-0.596140,-0.142276,0.441272
891,1898170759,-0.276790,-0.582634,0.709210,-0.284517,-0.453293,-0.268198,-0.110341
892,1898204093,-0.277091,-0.584326,0.706840,-0.286645,0.055065,-0.163439,-0.444472
893,1898237427,-0.277406,-0.584948,0.705355,-0.288722,0.616791,0.076696,-0.057865
894,1898270761,-0.278232,-0.583824,0.705784,-0.289153,1.081720,-0.142516,0.138203
895,1898304095,-0.278693,-0.581923,0.707310,-0.288811,1.075642,-0.690869,0.258229
896,1898337429,-0.278106,-0.580494,0.708796,-0.288612,0.917132,-0.731755,0.384546
897,1898370763,-0.277195,-0.579674,0.710139,-0.287835,0.806081,-0.557706,0.148754
898,1898404097,-0.276574,-0.579205,0.711462,-0.286101,0.940938,-0.355091,-0.054893
899,1898437431,-0.276688,-0.578710,0.712953,-0.283269,0.875344,-0.190548,-0.030444
900,1898470765,-0.278273,-0.577353,0.715284,-0.278568,0.472393,-0.412753,0.381892
901,1898504099,-0.280352,-0.576405,0.717356,-0.273065,-0.560518,-0.957071,1.958515
902,1898537433,-0.281326,-0.579897,0.716229,-0.267574,-2.774294,-1.369077,2.904053
903,1898570767,-0.277518,-0.590677,0.710201,-0.264014,-0.284616,-1.461766,-1.358350
904,1898604101,-0.270604,-0.600562,0.703941,-0.265649,1.803110,0.231290,-1.997351
905,1898637435,-0.267676,-0.602542,0.702286,-0.268497,0.332969,2.069825,0.450366
906,1898670769,-0.270764,-0.599511,0.704595,-0.266127,-1.181123,0.506968,0.857416
907,1898704103,-0.273547,-0.597134,0.706877,-0.262550,-1.113885,-1.128858,0.276726
908,1898737437,-0.271835,-0.597817,0.706305,-0.264307,-0.201747,-0.491082,-0.612997
909,1898770771,-0.269982,-0.600235,0.703767,-0.267476,-0.596171,1.015759,0.158536
910,1898804105,-0.270492,-0.603891,0.700137,-0.268259,-1.080262,0.802652,0.223076
911,1898837439,-0.272393,-0.608945,0.695232,-0.267664,-0.724687,-0.197739,0.008595
912,1898870773,-0.274260,-0.615412,0.688838,-0.267499,-0.424900,0.241203,0.245504
913,1898904107,-0.275729,-0.622780,0.681751,-0.267092,-0.166304,0.533262,0.285748
914,1898937441,-0.276809,-0.630119,0.674863,-0.266252,-0.135550,0.405056,0.277837
915,1898970775,-0.276993,-0.637113,0.668385,-0.265758,-0.151202,0.412331,0.260287
916,1899004109,-0.276332,-0.643449,0.662563,-0.265762,-0.377110,0.310852,-0.013141
917,1899037443,-0.275404,-0.648949,0.657496,-0.265934,-0.469462,0.194387,-0.247736
918,1899070777,-0.274612,-0.653749,0.652903,-0.266314,-0.371544,0.135647,-0.194097
919,1899104111,-0.274002,-0.657870,0.648795,-0.266830,-0.415558,0.019269,-0.082886
920,1899137445,-0.273588,-0.661222,0.645293,-0.267461,-0.371172,0.051576,0.140431
921,1899170779,-0.272732,-0.663817,0.642542,-0.268530,-0.402357,0.272154,0.359884
922,1899204113,-0.271924,-0.665459,0.640820,-0.269398,-0.538755,0.505337,0.410447
923,1899237447,-0.272000,-0.666148,0.639998,-0.269574,-0.532490,0.109765,-0.048420
924,1899270781,-0.272816,-0.666118,0.639660,-0.269626,-0.181643,-0.067973,-0.291497
925,1899304115,-0.273629,-0.665772,0.639401,-0.270267,-0.048556,0.304357,0.447537
926,1899337449,-0.274207,-0.665888,0.638825,-0.270758,-0.395044,-0.109414,0.659376
927,1899370783,-0.274992,-0.667012,0.637323,-0.270735,-0.342584,-0.615667,0.194481
928,1899404117,-0.275480,-0.669495,0.634349,-0.271096,-0.418069,-0.118587,0.152057
929,1899437451,-0.276049,-0.672512,0.630800,-0.271332,-0.414143,-0.038674,-0.105044
930,1899470785,-0.276280,-0.675084,0.627813,-0.271636,-0.241724,0.099244,-0.010659
931,1899504119,-0.276327,-0.676503,0.626163,-0.271867,-0.394837,0.184945,0.247858
932,1899537453,-0.276244,-0.676755,0.626092,-0.271486,-0.435918,-0.002846,0.209802
933,1899570787,-0.275723,-0.676084,0.627324,-0.270843,-0.432338,0.000800,0.213685
934,1899604121,-0.275185,-0.674237,0.629766,-0.270329,-0.585315,0.093827,0.397222
935,1899637455,-0.275832,-0.671146,0.633235,-0.269254,-0.418913,-0.094510,0.261245
936,1899670789,-0.276918,-0.667324,0.637174,-0.268345,-0.173244,-0.190323,-0.008447
937,1899704123,-0.277990,-0.663311,0.641180,-0.267642,-0.198712,-0.117186,0.084405
938,1899737457,-0.278956,-0.659574,0.644919,-0.266888,-0.331306,-0.147607,0.313025
939,1899770791,-0.280016,-0.656659,0.647929,-0.265674,-0.499885,-0.250842,0.218745
940,1899804125,-0.281033,-0.654700,0.650115,-0.264088,-0.512579,-0.116710,0.024377
941,1899837459,-0.281948,-0.653166,0.652022,-0.262206,-0.376926,0.059923,-0.044291
942,1899870793,-0.282796,-0.651268,0.654360,-0.260179,-0.267343,0.111301,0.210815
943,1899904127,-0.283724,-0.648472,0.657478,-0.258288,-0.103181,0.072125,0.291186
944,1899937461,-0.284670,-0.644762,0.661340,-0.256671,0.098865,0.020179,0.287171
945,1899970795,-0.285626,-0.640543,0.665541,-0.255309,0.098790,-0.029285,0.258745
946,1900004129,-0.286624,-0.636499,0.669430,-0.254133,0.110634,-0.165792,0.258811
947,1900037463,-0.287404,-0.633395,0.672303,-0.253421,-0.007944,-0.272281,0.244262
948,1900070797,-0.288145,-0.631513,0.673926,-0.252965,0.053789,-0.250624,0.114754
949,1900104131,-0.288771,-0.630818,0.674373,-0.252795,0.065582,-0.122960,0.179588
950,1900137465,-0.289207,-0.631084,0.673944,-0.252776,0.041936,-0.185727,0.167521
951,1900170799,-0.289246,-0.632120,0.672847,-0.253066,-0.019353,-0.191940,0.154505
952,1900204133,-0.288945,-0.633653,0.671326,-0.253613,-0.101351,0.040594,0.364857
953,1900237467,-0.289166,-0.635167,0.669831,-0.253530,-0.077290,0.036776,0.196137
954,1900270801,-0.289662,-0.636537,0.668407,-0.253284,-0.085842,-0.009843,0.184463
955,1900304135,-0.290211,-0.637904,0.666941,-0.253081,-0.024856,0.014927,0.197029
956,1900337469,-0.290656,-0.639402,0.665394,-0.252862,-0.011422,-0.069729,0.136832
957,1900370803,-0.290675,-0.641198,0.663648,-0.252880,-0.105338,-0.108748,0.164070
958,1900404137,-0.290347,-0.643330,0.661633,-0.253125,0.007283,-0.011665,0.131596
959,1900437471,-0.289761,-0.645574,0.659527,-0.253579,-0.078327,-0.054809,0.152844
960,1900470805,-0.288990,-0.647706,0.657487,-0.254315,-0.157368,-0.067520,0.142167
961,1900504139,-0.288071,-0.649657,0.655583,-0.255296,-0.160868,0.012754,0.109397
962,1900537473,-0.287129,-0.651269,0.653987,-0.256341,-0.120193,-0.033866,0.135443
963,1900570807,-0.286062,-0.652663,0.652585,-0.257558,-0.161685,-0.069862,0.142481
964,1900604141,-0.284890,-0.653939,0.651252,-0.258990,-0.186796,-0.063480,0.178487
965,1900637475,-0.284000,-0.655046,0.649937,-0.260471,-0.266404,0.005220,0.228801
966,1900670809,-0.283458,-0.656035,0.648640,-0.261800,-0.295205,-0.102738,0.162742
967,1900704143,-0.282957,-0.657196,0.647182,-0.263037,-0.326894,-0.120986,0.191852
968,1900737477,-0.282590,-0.658499,0.645569,-0.264133,-0.209021,-0.108676,0.260473
969,1900770811,-0.282288,-0.660005,0.643763,-0.265104,-0.147526,-0.104180,0.287704
970,1900804145,-0.281795,-0.661634,0.641946,-0.265972,-0.208792,-0.187058,0.240750
971,1900837479,-0.281304,-0.663130,0.640253,-0.266847,-0.236364,-0.094716,0.285887
972,1900870813,-0.281001,-0.664610,0.638467,-0.267761,-0.247760,-0.131784,0.254596
973,1900904147,-0.280748,-0.666301,0.636470,-0.268578,-0.303364,-0.238232,0.097368
974,1900937481,-0.280435,-0.668232,0.634236,-0.269390,-0.178570,-0.077506,0.144091
975,1900970815,-0.280097,-0.670164,0.632059,-0.270060,-0.254268,-0.098188,0.129477
976,1901004149,-0.279507,-0.671920,0.630207,-0.270635,-0.310784,-0.149478,0.116350
977,1901037483,-0.278662,-0.673381,0.628802,-0.271141,-0.298867,-0.064827,0.198242
978,1901070817,-0.277729,-0.674373,0.627979,-0.271540,-0.291391,-0.111288,0.157332
979,1901104151,-0.276978,-0.674751,0.627734,-0.271936,-0.301484,-0.072108,0.208404
980,1901137485,-0.276499,-0.674679,0.627888,-0.272244,-0.268411,-0.059995,0.220110
981,1901170819,-0.276196,-0.674411,0.628264,-0.272351,-0.305716,-0.143738,0.197757
982,1901204153,-0.275899,-0.674151,0.628697,-0.272295,-0.289864,-0.121891,0.150076
983,1901237487,-0.275481,-0.673979,0.629172,-0.272046,-0.223864,-0.097501,0.152575
984,1901270821,-0.275176,-0.673703,0.629773,-0.271648,-0.324810,-0.085962,0.241348
985,1901304155,-0.274988,-0.673301,0.630433,-0.271302,-0.217893,-0.115033,0.236787
986,1901337489,-0.275009,-0.672813,0.631020,-0.271129,-0.197208,-0.116403,0.213671
987,1901370823,-0.275186,-0.672257,0.631615,-0.270942,-0.155043,-0.106149,0.190763
988,1901404157,-0.275181,-0.671696,0.632251,-0.270855,-0.190331,-0.165543,0.127675
989,1901437491,-0.274935,-0.671046,0.633022,-0.270916,-0.243957,-0.073678,0.209373
990,1901470825,-0.274646,-0.670335,0.633898,-0.270921,-0.281184,-0.096940,0.150097
991,1901504159,-0.274369,-0.669562,0.634874,-0.270826,-0.270041,-0.089624,0.172072
992,1901537493,-0.274091,-0.668769,0.635956,-0.270530,-0.239548,-0.110038,0.137980
993,1901570827,-0.273658,-0.667953,0.637188,-0.270086,-0.241353,-0.112209,0.169284
994,1901604161,-0.273155,-0.667048,0.638504,-0.269723,-0.204533,-0.080123,0.231103
995,1901637495,-0.272890,-0.665975,0.639902,-0.269330,-0.224511,-0.066422,0.221223
996,1901670829,-0.272513,-0.665021,0.641122,-0.269167,-0.194363,-0.134261,0.146929
997,1901704163,-0.272095,-0.664359,0.641895,-0.269381,-0.060898,-0.153141,0.258146
998,1901737497,-0.271629,-0.663995,0.642263,-0.269872,-0.249935,-0.245778,0.201834
999,1901770831,-0.271115,-0.663815,0.642322,-0.270690,-0.316654,-0.173794,0.140350
1000,1901804165,-0.270871,-0.663711,0.642132,-0.271639,-0.263324,-0.058963,0.202638
1001,1901837499,-0.271117,-0.663708,0.641558,-0.272754,-0.309253,-0.164619,0.234695
1002,1901870833,-0.271979,-0.663794,0.640594,-0.273951,-0.244841,-0.097173,0.286035
1003,1901904167,-0.273280,-0.664206,0.639078,-0.275196,-0.136798,-0.092927,0.411398
1004,1901937501,-0.275376,-0.664847,0.637061,-0.276231,-0.080736,-0.157589,0.408126
1005,1901970835,-0.278036,-0.665922,0.634319,-0.277287,0.060417,-0.112939,0.452352
1006,1902004169,-0.281335,-0.667366,0.630943,-0.278189,0.347945,0.095560,0.332043
1007,1902037503,-0.284873,-0.669327,0.626953,-0.278896,0.535991,0.069873,0.113465
1008,1902070837,-0.288354,-0.672238,0.621899,-0.279631,0.563716,-0.010596,0.134163
1009,1902104171,-0.291317,-0.676597,0.615429,-0.280362,0.550604,-0.080928,0.168130
1010,1902137505,-0.292562,-0.682909,0.607400,-0.281268,0.585978,-0.172881,-0.035975
1011,1902170839,-0.291921,-0.690656,0.598349,-0.282416,0.459812,0.041353,-0.115912
1012,1902204173,-0.289631,-0.699420,0.588622,-0.283644,0.178826,0.094083,-0.116352
1013,1902237507,-0.286435,-0.708242,0.578757,-0.285296,0.009918,0.146872,-0.000252
1014,1902270841,-0.282803,-0.716212,0.569583,-0.287475,-0.079067,0.212176,0.105226
1015,1902304175,-0.278545,-0.723203,0.561458,-0.290101,-0.047659,0.079660,0.134656
1016,1902337509,-0.273716,-0.729382,0.554230,-0.293111,-0.197147,0.016671,0.184394
1017,1902370843,-0.268870,-0.734913,0.547604,-0.296219,-0.309277,-0.050116,0.181816
1018,1902404177,-0.264068,-0.740188,0.541064,-0.299404,-0.241501,-0.127769,0.195280
1019,1902437511,-0.259462,-0.745191,0.534638,-0.302549,-0.351191,-0.167495,0.204541
1020,1902470845,-0.255444,-0.749798,0.528589,-0.305205,-0.626334,-0.279391,0.226317
1021,1902504179,-0.251879,-0.753935,0.523135,-0.307364,-0.705232,-0.263954,0.214529
1022,1902537513,-0.249120,-0.757131,0.518751,-0.309182,-0.787028,-0.223454,0.215489
1023,1902570847,-0.247440,-0.758962,0.515999,-0.310644,-0.780712,-0.272295,0.289400
1024,1902604181,-0.246433,-0.759542,0.514778,-0.312047,-0.707736,-0.362365,0.312616
1025,1902637515,-0.246364,-0.758781,0.515138,-0.313358,-0.816590,-0.463288,0.265435
1026,1902670849,-0.246867,-0.757062,0.516567,-0.314765,-0.820992,-0.426043,0.280273
1027,1902704183,-0.247929,-0.754747,0.518746,-0.315904,-0.876950,-0.394129,0.219893
1028,1902737517,-0.249516,-0.752097,0.521452,-0.316519,-0.769735,-0.493226,0.084466
1029,1902770851,-0.251015,-0.749389,0.524444,-0.316814,-0.745774,-0.334677,0.250530
1030,1902804185,-0.252192,-0.746594,0.527916,-0.316711,-0.709942,-0.299684,0.197582
1031,1902837519,-0.253594,-0.743198,0.532332,-0.316187,-0.493482,-0.078419,0.038597
1032,1902870853,-0.254911,-0.739139,0.537595,-0.315737,-0.519180,0.076020,-0.046021
1033,1902904187,-0.256436,-0.734244,0.543876,-0.315167,-0.389004,0.063814,0.068658
1034,1902937521,-0.257645,-0.728993,0.550657,-0.314595,-0.168736,-0.188137,0.159369
1035,1902970855,-0.258108,-0.724066,0.557170,-0.314124,-0.196313,-0.164831,0.192524
1036,1903004189,-0.258229,-0.719554,0.563226,-0.313591,-0.107659,-0.112401,0.067240
1037,1903037523,-0.258233,-0.715464,0.568665,-0.313130,-0.078839,-0.073260,0.228942
1038,1903070857,-0.258380,-0.711624,0.573678,-0.312615,-0.099196,-0.130753,0.345443
1039,1903104191,-0.258486,-0.708300,0.578060,-0.312005,-0.002470,-0.398096,0.372328
1040,1903137525,-0.257935,-0.705979,0.581326,-0.311654,0.138725,-0.415784,0.333011
1041,1903170859,-0.256977,-0.704529,0.583623,-0.311432,-0.036744,-0.207674,0.249460
1042,1903204193,-0.255572,-0.703918,0.584983,-0.311419,0.142266,-0.528052,0.340957
1043,1903237527,-0.253509,-0.704327,0.585321,-0.311545,0.438284,-0.799482,0.219959
1044,1903270861,-0.248928,-0.706826,0.583529,-0.312937,1.224960,-1.291122,0.075155
1045,1903304195,-0.242485,-0.710605,0.580098,-0.315803,2.349784,-2.405305,0.038884
1046,1903337529,-0.238328,-0.712419,0.576337,-0.321712,3.120771,-2.892384,-0.306252
1047,1903370863,-0.237444,-0.712825,0.569006,-0.334271,1.539694,-1.362031,-0.195335
1048,1903404197,-0.233024,-0.716966,0.553349,-0.354216,0.615508,1.440724,0.262139
1049,1903437531,-0.210976,-0.729265,0.523561,-0.386716,0.218238,3.470585,0.630625
1050,1903470865,-0.168990,-0.745338,0.481995,-0.428485,-0.112548,3.316644,0.428194
1051,1903504199,-0.111972,-0.756320,0.433624,-0.476882,1.357323,2.522174,0.872058
1052,1903537533,-0.052328,-0.756047,0.386772,-0.525420,-0.576695,0.227730,0.560969
1053,1903570867,-0.004751,-0.745054,0.350301,-0.567596,-0.174874,0.031114,-0.519258
1054,1903604201,0.026907,-0.727487,0.329112,-0.601439,-0.301567,1.568601,-0.231771
1055,1903637535,0.050860,-0.705674,0.316067,-0.632095,0.172548,0.960825,-0.934585
1056,1903670869,0.068462,-0.679787,0.312538,-0.659944,-1.055698,0.855861,-1.330703
1057,1903704203,0.079107,-0.656985,0.319490,-0.678265,-2.596874,1.723244,-1.306673
1058,1903737537,0.087780,-0.639567,0.329740,-0.688858,-1.162515,1.063326,-1.399402
1059,1903770871,0.093771,-0.622975,0.342862,-0.696821,-0.756959,1.434763,-2.272738
1060,1903804205,0.097872,-0.606242,0.353845,-0.705472,-1.332801,1.840631,-1.779979
1061,1903837539,0.103320,-0.588890,0.357098,-0.717648,-0.898201,2.205936,-1.243724
1062,1903870873,0.110358,-0.571018,0.347946,-0.735321,-1.229631,1.278143,-1.353797
1063,1903904207,0.114109,-0.556283,0.330828,-0.753714,-2.121946,0.133360,0.486545
1064,1903937541,0.114550,-0.544799,0.308669,-0.771233,-1.555636,-0.191291,0.490697
1065,1903970875,0.110588,-0.539999,0.285447,-0.784025,-1.707908,-1.429788,1.023177
1066,1904004209,0.102249,-0.542984,0.265417,-0.790108,-1.661451,-1.796012,1.970227
1067,1904037543,0.091683,-0.552271,0.249177,-0.790257,-1.791157,-2.115348,3.096774
1068,1904070877,0.083481,-0.564168,0.238508,-0.786043,-1.439532,-1.433715,1.922448
1069,1904104211,0.084429,-0.577162,0.226532,-0.780028,-1.077747,-1.112629,0.855974
1070,1904137545,0.097100,-0.590350,0.207080,-0.774068,-0.991252,-1.312576,0.891893
1071,1904170879,0.116554,-0.601883,0.181569,-0.768888,-0.833453,-1.151094,0.802681
1072,1904204213,0.136298,-0.611193,0.154282,-0.764243,-0.766212,-1.274783,0.306395
1073,1904237547,0.150452,-0.619233,0.129499,-0.759703,-0.369040,-1.137630,-0.182410
1074,1904270881,0.158644,-0.626433,0.107791,-0.755512,0.171860,-0.478570,0.214305
1075,1904304215,0.164720,-0.631812,0.088068,-0.752283,1.015049,-0.144116,0.622053
1076,1904337549,0.172998,-0.633286,0.070040,-0.751079,2.064680,0.427832,1.805784
1077,1904370883,0.185158,-0.628873,0.055872,-0.753073,2.177589,0.597353,2.707415
1078,1904404217,0.199109,-0.618051,0.050434,-0.758834,1.978024,0.205303,2.583839
1079,1904437551,0.213912,-0.600258,0.053430,-0.768818,2.396570,0.275828,2.998489
1080,1904470885,0.232313,-0.573859,0.061203,-0.782927,1.595547,0.145549,2.772967
1081,1904504219,0.251344,-0.539631,0.072824,-0.800203,0.956388,-0.284779,2.177388
1082,1904537553,0.267327,-0.499099,0.089883,-0.819366,0.590575,-0.438930,2.998285
1083,1904570887,0.280223,-0.451893,0.110574,-0.839670,-0.268812,-0.947576,2.463388
1084,1904604221,0.290639,-0.399808,0.133676,-0.858963,-0.731764,-1.619529,0.929186
1085,1904637555,0.296059,-0.347898,0.162775,-0.874543,-0.898760,-2.214159,-1.722042
1086,1904670889,0.294818,-0.301743,0.201207,-0.884055,-1.132074,-1.939077,-3.351612
1087,1904704223,0.288587,-0.262742,0.243320,-0.887966,-0.874743,-1.057605,-3.022168
1088,1904737557,0.279372,-0.230498,0.277865,-0.889729,-0.659825,-0.953609,-2.832336
1089,1904770891,0.267202,-0.205929,0.305390,-0.890470,-0.309303,-0.838122,-2.596352
1090,1904804225,0.253833,-0.188840,0.324324,-0.891474,-2.541398,-0.565640,-0.931826
1091,1904837559,0.243783,-0.176840,0.331704,-0.894022,-4.180317,0.097864,-0.580135
1092,1904870893,0.240508,-0.170456,0.332671,-0.895787,-3.964643,-0.127020,-2.489295
1093,1904904227,0.242449,-0.171559,0.333488,-0.894749,-3.272767,-0.016309,-3.083157
1094,1904937561,0.245570,-0.179452,0.330857,-0.893325,-2.378011,-0.759407,-2.801270
1095,1904970895,0.245381,-0.191502,0.322713,-0.893854,-1.223388,-1.165503,-2.301796
1096,1905004229,0.240171,-0.206661,0.307481,-0.897256,-0.436848,-0.768483,-2.609854
1097,1905037563,0.229583,-0.226542,0.287228,-0.901928,-0.241759,0.457957,-2.302789
1098,1905070897,0.214657,-0.252052,0.258692,-0.907455,0.397560,0.256021,-2.470003
1099,1905104231,0.199804,-0.278394,0.213424,-0.914893,-0.603059,0.685492,1.696322
1100,1905137565,0.190114,-0.299672,0.152249,-0.922430,-0.829550,0.075813,3.325925
1101,1905170899,0.188211,-0.313233,0.095373,-0.925943,-0.573147,-1.036514,3.600187
1102,1905204233,0.188496,-0.321465,0.068981,-0.925405,0.714783,-2.895116,2.022904
1103,1905237567,0.183805,-0.326525,0.080433,-0.923651,1.856492,-0.816704,1.893860
1104,1905270901,0.176257,-0.327899,0.107017,-0.921937,2.117830,1.246030,2.123012
1105,1905304235,0.171370,-0.323123,0.125668,-0.922191,2.390040,2.467696,2.220694
1106,1905337569,0.172351,-0.311464,0.123299,-0.926330,1.964919,2.100043,1.257084
1107,1905370903,0.176012,-0.295513,0.111811,-0.932306,1.617227,0.995435,0.625023
1108,1905404237,0.179480,-0.278713,0.109446,-0.937087,1.104147,-0.249252,0.114151
1109,1905437571,0.182502,-0.263288,0.124510,-0.939081,0.511560,0.014905,-0.237273
1110,1905470905,0.185894,-0.249494,0.151627,-0.938195,-0.099891,0.266497,0.142151
1111,1905504239,0.191498,-0.235569,0.178702,-0.935898,-0.908612,0.429053,0.739931
1112,1905537573,0.200026,-0.222228,0.203623,-0.932280,-0.443230,-1.104915,-0.624901
1113,1905570907,0.207821,-0.215684,0.252945,-0.919953,0.033875,-3.269637,-2.529236
1114,1905604241,0.214251,-0.215727,0.320559,-0.897109,-1.115771,0.977611,-1.898983
1115,1905637575,0.220622,-0.218756,0.364741,-0.877747,-0.908193,2.031590,0.627299
1116,1905670909,0.228593,-0.219099,0.359312,-0.877861,-0.238595,0.009738,0.852094
1117,1905704243,0.233695,-0.216190,0.315212,-0.894033,-0.375835,0.176420,-0.319882
1118,1905737577,0.231848,-0.213386,0.248539,-0.915940,-0.211761,-0.983470,-3.363367
1119,1905770911,0.220267,-0.219747,0.198295,-0.929450,0.422385,-3.554757,-5.308241
1120,1905804245,0.198732,-0.240841,0.192937,-0.930205,-1.199676,-2.501367,-4.140299
1121,1905837579,0.166256,-0.272816,0.216659,-0.922493,-2.750800,-1.515406,-2.738053
1122,1905870913,0.122722,-0.311756,0.252145,-0.907841,-4.146789,-0.684409,-2.280132
1123,1905904247,0.069942,-0.355760,0.289874,-0.885731,-5.487719,0.167480,-2.004186
1124,1905937581,0.014604,-0.403216,0.315484,-0.858882,-5.853113,1.623926,0.118320
1125,1905970915,-0.020043,-0.454037,0.288681,-0.842684,-3.364626,4.629433,3.364912
1126,1906004249,-0.011807,-0.507572,0.197961,-0.838479,-3.637971,4.473992,2.353719
1127,1906037583,0.028125,-0.555681,0.093087,-0.825692,-5.034940,1.494132,1.507387
1128,1906070917,0.071237,-0.594236,0.024469,-0.800759,-4.328107,-1.564192,2.231949
1129,1906104251,0.106824,-0.627105,-0.000766,-0.771577,-1.330617,-1.056191,3.482619
1130,1906137585,0.107453,-0.648688,0.026895,-0.752953,17.042583,-6.468548,7.927706
1131,1906170919,0.066463,-0.658219,0.111352,-0.741576,6.972366,-4.078056,10.400188
1132,1906204253,0.055878,-0.644948,0.132807,-0.750524,4.406165,6.024447,0.706542
1133,1906237587,0.081771,-0.634179,0.093402,-0.763158,-1.005615,2.751351,0.473099
1134,1906270921,0.114602,-0.621724,0.038255,-0.773864,-0.815288,-0.047976,-1.299880
1135,1906304255,0.132922,-0.610155,0.000479,-0.781055,-2.322902,-1.755521,-0.278234
1136,1906337589,0.131290,-0.601361,-0.007498,-0.788084,-2.309242,-0.592367,-0.450751
1137,1906370923,0.118346,-0.595351,0.005674,-0.794684,-2.135647,-0.318291,-0.466783
1138,1906404257,0.098566,-0.590654,0.035310,-0.800106,-2.278855,0.099701,-0.768472
1139,1906437591,0.077012,-0.586184,0.073996,-0.803110,-2.568873,0.702079,-1.019614
1140,1906470925,0.058874,-0.582512,0.112597,-0.802832,-2.459420,0.906395,-1.022268
1141,1906504259,0.046163,-0.581236,0.145192,-0.799348,-2.190791,0.985790,-0.566639
1142,1906537593,0.040742,-0.583538,0.166038,-0.793889,-1.547564,0.999472,-0.237715
1143,1906570927,0.042730,-0.589813,0.173027,-0.787630,-1.229728,0.800573,-0.179449
1144,1906604261,0.051902,-0.599246,0.165548,-0.781542,-1.066782,0.057272,0.015852
1145,1906637595,0.064536,-0.610509,0.150121,-0.774973,-0.812919,-0.568994,-0.011170
1146,1906670929,0.077371,-0.622658,0.132779,-0.767258,-0.157581,-1.001617,0.420458
1147,1906704263,0.085631,-0.634712,0.121161,-0.758375,1.546554,-2.032019,1.323705
1148,1906737597,0.078677,-0.640168,0.129291,-0.753182,4.296011,-1.707423,3.048168
1149,1906770931,0.067892,-0.637686,0.144664,-0.753541,1.930158,-0.025397,1.137788
1150,1906804265,0.063576,-0.633124,0.145813,-0.757532,0.096752,0.123669,0.258125
1151,1906837599,0.063344,-0.628383,0.140413,-0.762503,-1.096321,-0.442542,-0.416582
1152,1906870933,0.058739,-0.625062,0.138885,-0.765873,-1.505877,-0.477394,-0.285303
1153,1906904267,0.050243,-0.623606,0.141959,-0.767101,-1.654545,-0.019928,-0.186197
1154,1906937601,0.041290,-0.624400,0.145894,-0.766250,-1.309567,0.097607,0.174901
1155,1906970935,0.037649,-0.628338,0.144344,-0.763507,-1.442499,0.846827,0.058526
1156,1907004269,0.047073,-0.634758,0.130009,-0.760243,-0.546040,2.085531,0.146134
1157,1907037603,0.069188,-0.639184,0.102148,-0.759096,0.798653,0.727953,0.802602
1158,1907070937,0.090365,-0.640056,0.077223,-0.759080,0.918109,-0.612828,0.204876
1159,1907104271,0.096220,-0.638791,0.072125,-0.759928,1.475175,-1.803125,-0.279623
1160,1907137605,0.090744,-0.637238,0.077333,-0.761392,1.180645,-0.253889,-0.579083
1161,1907170939,0.082852,-0.635850,0.080991,-0.763069,0.732369,0.125003,-0.458300
1162,1907204273,0.073123,-0.634202,0.084113,-0.765095,0.179423,0.208055,0.179545
1163,1907237607,0.063854,-0.632263,0.086756,-0.767231,-0.582076,0.600762,-0.002500
1164,1907270941,0.059453,-0.632890,0.085943,-0.767159,-0.916840,1.049792,0.600501
1165,1907304275,0.067516,-0.636363,0.074551,-0.764808,-1.007803,1.270012,0.625370
1166,1907337609,0.088171,-0.641352,0.051756,-0.760407,-0.857611,0.568956,-0.010378
1167,1907370943,0.113421,-0.645929,0.025943,-0.754481,-0.584056,-1.112679,-0.050394
1168,1907404277,0.125419,-0.649334,0.016747,-0.749906,0.782438,-1.863377,0.148405
1169,1907437611,0.127493,-0.652024,0.016023,-0.747234,0.955100,-1.404465,0.091937
1170,1907470945,0.126637,-0.653748,0.014412,-0.745904,0.415439,-1.289746,0.192776
1171,1907504279,0.122016,-0.655152,0.016841,-0.745391,0.062845,-0.845025,0.051995
1172,1907537613,0.115549,-0.656738,0.023104,-0.744859,-0.313554,-0.191524,0.098150
1173,1907570947,0.110017,-0.658142,0.029435,-0.744233,-0.393153,0.295996,0.068714
1174,1907604281,0.106884,-0.659254,0.034604,-0.743483,-0.013281,0.213374,-0.165015
1175,1907637615,0.104861,-0.660737,0.039866,-0.742190,0.064358,0.103479,-0.272962
1176,1907670949,0.103106,-0.663198,0.044969,-0.739946,0.380225,0.206977,-0.118402
1177,1907704283,0.104008,-0.666180,0.046081,-0.737067,0.424522,0.333028,0.349221
1178,1907737617,0.107053,-0.668498,0.042907,-0.734720,0.172760,0.214435,0.477564
1179,1907770951,0.109753,-0.670001,0.038937,-0.733172,-0.017198,0.052535,-0.053074
1180,1907804285,0.111634,-0.671304,0.034763,-0.731905,-0.305594,-0.135504,-0.313236
1181,1907837619,0.111255,-0.672827,0.031528,-0.730709,-0.563478,-0.272207,-0.553467
1182,1907870953,0.107872,-0.675173,0.029984,-0.729116,-0.477999,-0.092080,0.070256
1183,1907904287,0.104088,-0.677888,0.028835,-0.727190,-0.483098,-0.080974,0.635321
1184,1907937621,0.100293,-0.680692,0.029820,-0.725062,-0.020630,-0.304571,0.324985
1185,1907970955,0.095882,-0.683306,0.033474,-0.723038,0.529327,0.164826,0.543207
1186,1908004289,0.093479,-0.684832,0.035703,-0.721801,0.558388,0.234424,0.695983
1187,1908037623,0.093447,-0.684861,0.036087,-0.721758,0.231882,0.411695,0.409451
1188,1908070957,0.095491,-0.683725,0.034361,-0.722652,-0.195438,0.330185,0.302639
1189,1908104291,0.097661,-0.681920,0.032513,-0.724151,-0.404261,0.189873,0.219015
1190,1908137625,0.098983,-0.680051,0.032769,-0.725716,-0.434677,0.207497,0.096900
1191,1908170959,0.100544,-0.678251,0.035445,-0.727059,-0.116992,0.735135,0.224485
1192,1908204293,0.105130,-0.676251,0.037238,-0.728183,0.171234,1.202808,0.530519
1193,1908237627,0.114733,-0.673981,0.033782,-0.729005,0.391043,0.765106,0.475916
1194,1908270961,0.127900,-0.671916,0.025793,-0.729047,0.225005,0.267672,0.500074
1195,1908304295,0.142480,-0.670387,0.015334,-0.728045,0.021646,0.175770,0.429147
1196,1908337629,0.158671,-0.668779,0.000801,-0.726334,-0.092564,0.072278,0.195776
1197,1908370963,0.176014,-0.666343,-0.019110,-0.724324,0.028694,-0.292458,0.129823
1198,1908404297,0.192052,-0.663169,-0.042044,-0.722191,-0.019259,-0.596985,-0.046515
1199,1908437631,0.204920,-0.660074,-0.064136,-0.719862,-0.635996,-0.522197,0.020088
1200,1908470965,0.216077,-0.656905,-0.084318,-0.717413,-0.733716,-0.315291,0.358807
1201,1908504299,0.228374,-0.653267,-0.103550,-0.714402,-0.860592,-0.622594,0.136955
1202,1908537633,0.240575,-0.649871,-0.120432,-0.710839,-0.808843,-0.829908,0.025701
1203,1908570967,0.250358,-0.647679,-0.131898,-0.707417,-0.936250,-1.194453,0.095798
1204,1908604301,0.257612,-0.646577,-0.137702,-0.704710,-0.980716,-0.868315,-0.228277
1205,1908637635,0.264420,-0.645911,-0.142125,-0.701916,-0.847253,-0.870760,-0.155026
1206,1908670969,0.269604,-0.645826,-0.144964,-0.699437,-0.366224,-0.681541,0.033090
1207,1908704303,0.273401,-0.646371,-0.146335,-0.697170,-0.000043,-0.790700,-0.002817
1208,1908737637,0.275216,-0.646846,-0.147112,-0.695851,0.388885,-0.453306,0.607996
1209,1908770971,0.275108,-0.647103,-0.146706,-0.695741,0.373600,-0.405201,0.403709
1210,1908804305,0.272984,-0.648006,-0.144100,-0.696281,-0.031462,-0.420376,0.213913
1211,1908837639,0.271090,-0.648831,-0.141817,-0.696721,-0.600251,-0.179476,0.268464
1212,1908870973,0.271884,-0.648254,-0.143466,-0.696611,-0.772661,-0.112198,0.200442
1213,1908904307,0.273250,-0.647515,-0.146119,-0.696213,-0.437781,-0.925212,-0.299835
1214,1908937641,0.272133,-0.648541,-0.144710,-0.695990,-0.410366,-0.785244,-0.203084
1215,1908970975,0.269602,-0.650288,-0.140425,-0.696222,-0.560774,-0.421237,-0.202949
1216,1909004309,0.268374,-0.651116,-0.137664,-0.696474,-0.433084,-0.015022,0.028190
1217,1909037643,0.267403,-0.651423,-0.134891,-0.697104,-0.065919,-0.396608,0.168156
1218,1909070977,0.264177,-0.652439,-0.129131,-0.698472,-0.146033,-0.511094,0.214792
1219,1909104311,0.258897,-0.654263,-0.120584,-0.700269,-0.133364,-0.642631,0.188183
1220,1909137645,0.252045,-0.656540,-0.110883,-0.702238,-0.092649,-0.828698,0.193027
1221,1909170979,0.242726,-0.658994,-0.100548,-0.704773,-0.128863,-0.864993,0.113219
1222,1909204313,0.230421,-0.661908,-0.088564,-0.707775,-0.422470,-0.415148,0.172575
1223,1909237647,0.217531,-0.664336,-0.077819,-0.710835,-0.450819,0.040331,0.233552
1224,1909270981,0.205797,-0.666402,-0.070542,-0.713151,-0.537654,-0.247073,0.182471
1225,1909304315,0.194972,-0.668495,-0.064961,-0.714762,-0.390171,0.324363,0.365169
1226,1909337649,0.185279,-0.670220,-0.060102,-0.716149,-0.193526,0.342982,0.185246
1227,1909370983,0.175477,-0.671672,-0.053557,-0.717775,-0.002864,0.235484,-0.005427
1228,1909404317,0.167369,-0.672189,-0.046959,-0.719687,-0.017116,0.914019,0.353624
1229,1909437651,0.163496,-0.671543,-0.043659,-0.721385,-0.026280,0.414142,0.339423
1230,1909470985,0.160623,-0.671360,-0.040408,-0.722390,-0.168589,0.096889,0.273563
1231,1909504319,0.158345,-0.671449,-0.037732,-0.722955,-0.169710,-0.093158,0.375254
1232,1909537653,0.156778,-0.671490,-0.036339,-0.723330,-0.273919,-0.311333,0.184067
1233,1909570987,0.153453,-0.672040,-0.033777,-0.723656,-0.044078,-0.701157,0.086403
1234,1909604321,0.147246,-0.672909,-0.028809,-0.724352,-0.265220,-0.302660,0.124423
1235,1909637655,0.139389,-0.673706,-0.022504,-0.725389,-0.385700,-0.170327,0.033474
1236,1909670989,0.131005,-0.674727,-0.015504,-0.726185,-0.495985,-0.089656,0.009885
1237,1909704323,0.122849,-0.676072,-0.008279,-0.726478,-0.539774,0.106527,-0.022683
1238,1909737657,0.116047,-0.677555,-0.002747,-0.726257,-0.369687,0.122754,0.165277
1239,1909770991,0.109731,-0.679067,0.002159,-0.725828,-0.342168,0.140168,0.273347
1240,1909804325,0.103239,-0.680413,0.007328,-0.725487,-0.253312,0.043651,0.248509
1241,1909837659,0.095878,-0.681476,0.013484,-0.725411,-0.443831,-0.151228,0.245762
1242,1909870993,0.087514,-0.682510,0.020922,-0.725319,-0.576499,-0.197487,0.299729
1243,1909904327,0.078665,-0.683701,0.029083,-0.724930,-0.623435,-0.117361,0.217396
1244,1909937661,0.071459,-0.684974,0.035710,-0.724177,-0.705972,0.022017,0.199552
1245,1909970995,0.068750,-0.686318,0.037245,-0.723089,-0.352616,-0.064579,0.214866
1246,1910004329,0.073614,-0.687554,0.030274,-0.721760,0.340465,-0.113474,0.567995
1247,1910037663,0.082305,-0.687703,0.017908,-0.721092,0.585686,-1.836122,0.471083
1248,1910070997,0.080380,-0.687724,0.016690,-0.721318,0.003551,-1.941845,0.041940
1249,1910104331,0.065903,-0.688612,0.031891,-0.721428,-0.546806,-0.450294,0.066267
1250,1910137665,0.047406,-0.688910,0.053296,-0.721331,-0.021753,0.626591,0.124662
1251,1910170999,0.031356,-0.687681,0.072599,-0.721696,0.475834,0.683601,0.325647
1252,1910204333,0.015760,-0.685398,0.091784,-0.722192,0.625307,0.742754,0.249254
1253,1910237667,-0.000526,-0.682691,0.111086,-0.722216,0.864026,0.640685,0.071182
1254,1910271001,-0.013455,-0.680107,0.125699,-0.722134,1.154431,1.099202,0.104195
1255,1910304335,-0.019196,-0.678241,0.131012,-0.722814,0.974295,1.085640,0.065537
1256,1910337669,-0.019207,-0.677154,0.128387,-0.724303,0.657810,0.475043,0.003402
1257,1910371003,-0.018127,-0.675895,0.124688,-0.726150,0.627323,0.055757,0.081541
1258,1910404337,-0.017845,-0.674472,0.122116,-0.727916,0.268151,0.077042,0.027206
1259,1910437671,-0.017761,-0.673466,0.121229,-0.728996,0.282764,0.445623,0.359444
1260,1910471005,-0.014714,-0.672622,0.119323,-0.730157,0.294345,0.359210,0.284250
1261,1910504339,-0.009370,-0.671751,0.116137,-0.731559,0.126770,-0.074534,0.041004
1262,1910537673,-0.005113,-0.671074,0.115456,-0.732330,0.111280,-0.095516,0.041286
1263,1910571007,-0.000711,-0.671125,0.114074,-0.732517,0.294570,-0.154425,-0.203526
1264,1910604341,0.004745,-0.671870,0.110242,-0.732406,0.283692,-0.245021,-0.183767
1265,1910637675,0.010730,-0.673090,0.105511,-0.731920,0.072141,-0.117678,0.183360
1266,1910671009,0.016393,-0.673996,0.101547,-0.731542,-0.151693,-0.174597,0.339874
1267,1910704343,0.022188,-0.674818,0.097533,-0.731177,-0.000922,-0.302699,0.181772
1268,1910737677,0.026726,-0.675601,0.094377,-0.730716,0.144105,-0.288591,-0.078889
1269,1910771011,0.028412,-0.676083,0.093696,-0.730294,0.203798,0.246505,-0.056272
1270,1910804345,0.030077,-0.676455,0.092429,-0.730045,0.163128,0.788190,0.297358
1271,1910837679,0.034722,-0.677022,0.087249,-0.729950,-0.002840,0.791374,0.536183
1272,1910871013,0.042513,-0.677333,0.079413,-0.730144,-0.121817,0.563471,0.450035
1273,1910904347,0.051909,-0.676993,0.072437,-0.730577,-0.166605,-0.098051,0.315805
1274,1910937681,0.061685,-0.676119,0.068953,-0.730964,-0.302318,-0.383242,0.411454
1275,1910971015,0.073082,-0.674919,0.067124,-0.731192,-0.259692,-0.451901,0.437067
1276,1911004349,0.087800,-0.673403,0.062361,-0.731392,-0.244991,-0.882984,0.421493
1277,1911037683,0.103451,-0.671453,0.055295,-0.731707,-0.025100,-0.905631,0.231549
1278,1911071017,0.118018,-0.669068,0.045506,-0.732362,-0.034257,-1.465272,0.108471
1279,1911104351,0.126656,-0.666475,0.038217,-0.733698,-0.027604,-1.766046,-0.019734
1280,1911137685,0.125528,-0.664292,0.039615,-0.735794,-0.106104,-1.693285,0.015570
1281,1911171019,0.117007,-0.662535,0.048588,-0.738241,-0.134367,-0.852742,0.294246
1282,1911204353,0.107354,-0.660442,0.058546,-0.740856,-0.180438,-0.335588,0.174393
1283,1911237687,0.098070,-0.658108,0.068109,-0.743398,-0.146230,-0.315219,0.006044
1284,1911271021,0.087431,-0.655662,0.079487,-0.745754,-0.071089,-0.170697,-0.087871
1285,1911304355,0.075148,-0.653486,0.091998,-0.747563,0.050816,0.071880,-0.237910
1286,1911337689,0.061863,-0.652232,0.104517,-0.748230,0.094237,0.323356,-0.300734
1287,1911371023,0.048001,-0.651961,0.117281,-0.747591,0.409308,0.642612,0.322562
1288,1911404357,0.036390,-0.651804,0.128721,-0.746500,0.602265,0.682485,0.314246
1289,1911437691,0.028927,-0.651974,0.137141,-0.745178,0.548595,0.522473,0.471575
1290,1911471025,0.025469,-0.652258,0.142414,-0.744065,0.655730,0.698497,0.317904
1291,1911504359,0.024545,-0.651942,0.145722,-0.743733,0.404172,0.606895,0.051470
1292,1911537693,0.026588,-0.650981,0.146739,-0.744304,0.153264,0.572668,-0.070790
1293,1911571027,0.030627,-0.649707,0.146019,-0.745403,0.174185,0.238027,-0.207905
1294,1911604361,0.034777,-0.648474,0.145840,-0.746329,0.300882,0.087270,-0.092521
1295,1911637695,0.040084,-0.647714,0.143737,-0.747130,0.293236,0.133654,-0.064803
1296,1911671029,0.046990,-0.647632,0.138773,-0.747738,0.189313,0.082627,0.205830
1297,1911704363,0.054752,-0.647684,0.131788,-0.748428,0.201216,-0.014055,0.665904
1298,1911737697,0.063448,-0.646901,0.123936,-0.749758,0.057187,-0.378776,1.216109
1299,1911771031,0.072560,-0.644858,0.118392,-0.751585,-0.294709,-0.712152,0.475304
1300,1911804365,0.080979,-0.643110,0.117241,-0.752403,-0.424086,-0.847839,-0.076678
1301,1911837699,0.090382,-0.642114,0.116594,-0.752284,-0.412368,-0.633273,-0.066173
1302,1911871033,0.100714,-0.641909,0.113914,-0.751557,-0.385342,-0.959117,-0.242995
1303,1911904367,0.109516,-0.642464,0.110663,-0.750336,-0.175423,-1.014558,-0.220659
1304,1911937701,0.115964,-0.643496,0.107323,-0.748967,-0.263124,-1.271197,0.356050
1305,1911971035,0.120107,-0.644426,0.104641,-0.747893,-0.233219,-1.368295,0.707346
1306,1912004369,0.121782,-0.644593,0.103397,-0.747651,-0.296743,-1.577108,1.117700
1307,1912037703,0.120124,-0.643105,0.105862,-0.748855,-0.382952,-1.682787,0.479290
1308,1912071037,0.114355,-0.640269,0.114128,-0.750971,-0.418637,-1.766939,-0.302169
1309,1912104371,0.102331,-0.636865,0.129213,-0.753153,-0.557316,-1.589203,-0.418106
1310,1912137705,0.084240,-0.633305,0.148216,-0.754894,-0.504589,-0.962660,-0.401047
1311,1912171039,0.063577,-0.630003,0.164917,-0.756215,-0.514623,-0.426891,-0.354218
1312,1912204373,0.042367,-0.627473,0.176028,-0.757299,-0.464058,0.047608,-0.263920
1313,1912237707,0.021553,-0.626207,0.180767,-0.758108,-0.411870,0.295821,-0.369740
1314,1912271041,0.002278,-0.626489,0.179658,-0.758441,-0.302924,0.721717,-0.469412
1315,1912304375,-0.014329,-0.628462,0.173260,-0.758166,-0.161009,1.038908,-0.447989
1316,1912337709,-0.027543,-0.632117,0.162537,-0.757136,-0.040508,1.336906,0.001029
1317,1912371043,-0.037073,-0.636698,0.148612,-0.755751,0.115848,1.589150,0.230031
1318,1912404377,-0.042357,-0.641505,0.133151,-0.754289,0.531255,1.791956,0.305012
1319,1912437711,-0.042522,-0.645462,0.117354,-0.753527,0.543559,1.852144,0.782582
1320,1912471045,-0.038722,-0.647115,0.104687,-0.754180,0.152958,1.637007,0.746077
1321,1912504379,-0.033556,-0.646065,0.099884,-0.755977,-0.205279,1.242018,0.672589
1322,1912537713,-0.029204,-0.642736,0.105527,-0.758225,-0.308052,0.997682,0.805640
1323,1912571047,-0.026030,-0.637965,0.120259,-0.760175,-0.135960,1.024431,0.720486
1324,1912604381,-0.021907,-0.632836,0.138486,-0.761489,0.092860,0.940556,0.305992
1325,1912637715,-0.015177,-0.628358,0.155069,-0.762164,0.132446,0.791513,-0.055471
1326,1912671049,-0.005563,-0.625128,0.166770,-0.762480,0.139569,0.579269,-0.299174
1327,1912704383,0.006173,-0.623386,0.172485,-0.762631,0.203076,0.334259,-0.464734
1328,1912737717,0.019245,-0.623205,0.171876,-0.762698,-0.084158,-0.026551,-0.354904
1329,1912771051,0.032901,-0.624368,0.165153,-0.762765,-0.177030,-0.289989,0.053800
1330,1912804385,0.045920,-0.626444,0.154751,-0.762572,-0.131355,-0.555216,0.427553
1331,1912837719,0.059843,-0.628736,0.139808,-0.762606,-0.316833,-1.231619,0.629408
1332,1912871053,0.071836,-0.630573,0.125282,-0.762578,-0.398393,-1.477972,0.505260
1333,1912904387,0.078282,-0.632341,0.115560,-0.762015,-0.554025,-1.610930,0.366018
1334,1912937721,0.077460,-0.634007,0.112783,-0.761130,-0.372250,-1.115970,0.223887
1335,1912971055,0.070850,-0.635388,0.114757,-0.760327,-0.239942,-0.682033,-0.140326
1336,1913004389,0.060741,-0.636709,0.118645,-0.759500,-0.143108,-0.338962,-0.267011
1337,1913037723,0.049320,-0.638070,0.122821,-0.758521,-0.069517,0.052159,-0.218054
1338,1913071057,0.038351,-0.639619,0.126051,-0.757319,-0.067609,0.347805,-0.057934
1339,1913104391,0.030437,-0.641163,0.125916,-0.756395,-0.145183,0.581825,0.122226
1340,1913137725,0.026274,-0.642202,0.123356,-0.756091,-0.154182,0.609792,0.508291
1341,1913171059,0.023705,-0.642471,0.122044,-0.756161,-0.251987,0.401755,0.502911
1342,1913204393,0.022020,-0.642194,0.123175,-0.756263,0.025141,0.238251,0.533839
1343,1913237727,0.020207,-0.641483,0.127598,-0.756184,0.117868,-0.034684,0.642035
1344,1913271061,0.017494,-0.640294,0.134855,-0.756000,0.152761,0.231916,0.701413
1345,1913304395,0.014784,-0.639040,0.141103,-0.755979,0.203142,0.127547,0.807939
1346,1913337729,0.013142,-0.637995,0.145100,-0.756135,0.203330,0.391463,0.220184
1347,1913371063,0.014278,-0.637725,0.145565,-0.756253,0.174917,0.367711,0.120173
1348,1913404397,0.018277,-0.638396,0.142554,-0.756175,0.139424,0.337315,-0.302104
1349,1913437731,0.025402,-0.639675,0.136096,-0.756077,0.038818,0.440322,-0.234780
1350,1913471065,0.034560,-0.640811,0.126620,-0.756398,0.020330,0.410474,-0.025933
1351,1913504399,0.043887,-0.641355,0.114483,-0.757388,0.320226,0.255458,0.187335
1352,1913537733,0.055023,-0.641197,0.098577,-0.759029,-0.195258,0.323406,0.104337
1353,1913571067,0.064854,-0.640884,0.082548,-0.760429,-0.391677,0.124052,-0.090797
1354,1913604401,0.071652,-0.640836,0.069994,-0.761118,-0.296705,-0.366262,-0.206397
1355,1913637735,0.073010,-0.640907,0.064936,-0.761377,-0.038938,-0.335610,-0.105959
1356,1913671069,0.070399,-0.640633,0.065410,-0.761813,0.168484,0.064113,-0.002310
1357,1913704403,0.066956,-0.639853,0.066706,-0.762666,0.007603,0.319615,0.132063
1358,1913737737,0.062809,-0.638808,0.068540,-0.763731,-0.560585,0.429258,0.229761
1359,1913771071,0.056345,-0.637386,0.073196,-0.764991,-0.180374,0.193090,0.608286
1360,1913804405,0.047396,-0.635788,0.082425,-0.765988,-0.228255,0.258227,0.510106
1361,1913837739,0.038581,-0.634676,0.093793,-0.766097,-0.244577,0.719158,0.133340
1362,1913871073,0.033945,-0.634164,0.101174,-0.765801,0.167258,0.812676,-0.044613
1363,1913904407,0.035682,-0.634509,0.101132,-0.765442,-0.069243,0.666881,0.018502
1364,1913937741,0.041461,-0.635131,0.095941,-0.765304,-0.424730,0.398545,0.134251
1365,1913971075,0.046839,-0.635305,0.091475,-0.765396,-0.672757,-0.284801,1.020920
1366,1914004409,0.049282,-0.633280,0.093426,-0.766684,-0.591454,-1.158808,0.447228
1367,1914037743,0.046570,-0.629282,0.104132,-0.768763,-0.590954,-1.135171,-0.296798
1368,1914071077,0.037500,-0.623498,0.118796,-0.771840,-0.104124,-1.231322,-0.604653
1369,1914104411,0.023850,-0.616771,0.131980,-0.775635,-0.226099,-1.010127,-0.654379
1370,1914137745,0.007654,-0.610506,0.141949,-0.779152,-0.484811,-0.692684,-0.735093
1371,1914171079,-0.009067,-0.605892,0.147549,-0.781695,-0.325709,-0.664558,-0.092688
1372,1914204413,-0.023869,-0.604214,0.148794,-0.782445,-0.697386,-0.819920,0.873466
1373,1914237747,-0.036553,-0.604145,0.149342,-0.781904,-0.930684,-0.180001,0.888297
1374,1914271081,-0.043526,-0.604246,0.144589,-0.782362,0.264938,0.024883,0.942613
1375,1914304415,-0.047187,-0.605554,0.140811,-0.781827,0.323563,-0.310725,0.159059
1376,1914337749,-0.049836,-0.607896,0.139731,-0.780037,0.449397,-0.261951,-0.081971
1377,1914371083,-0.050290,-0.611319,0.136825,-0.777845,0.377539,0.580935,-0.134097
1378,1914404417,-0.049261,-0.614618,0.128231,-0.776775,0.219917,0.300086,-0.483061
1379,1914437751,-0.048682,-0.617315,0.118365,-0.776239,0.178213,0.343111,-0.159269
1380,1914471085,-0.051843,-0.619163,0.114965,-0.775072,0.033600,0.122293,0.363761
1381,1914504419,-0.057709,-0.619221,0.120593,-0.773755,-0.184518,0.190450,0.274006
1382,1914537753,-0.063567,-0.617540,0.131820,-0.772808,-0.030982,0.212632,-0.086143
1383,1914571087,-0.067456,-0.615869,0.144106,-0.771617,0.153879,0.169038,-0.389840
1384,1914604421,-0.069082,-0.615846,0.153427,-0.769692,0.330349,0.118433,-0.411355
1385,1914637755,-0.069063,-0.617632,0.157448,-0.767447,0.265714,0.225354,-0.306697
1386,1914671089,-0.068826,-0.620193,0.157703,-0.765348,0.209801,0.152075,-0.102224
1387,1914704423,-0.069900,-0.622313,0.157615,-0.763546,0.467344,0.132302,0.140523
1388,1914737757,-0.071974,-0.623468,0.159097,-0.762102,0.491325,-0.057008,0.241965
1389,1914771091,-0.074769,-0.622867,0.163356,-0.761423,0.525323,-0.044692,0.473244
1390,1914804425,-0.078457,-0.619914,0.171032,-0.761776,0.366583,-0.137115,0.459276
1391,1914837759,-0.083242,-0.614876,0.182209,-0.762760,0.313896,-0.165204,0.685019
1392,1914871093,-0.087845,-0.609233,0.194626,-0.763704,0.366396,-0.072511,0.528937
1393,1914904427,-0.090371,-0.604764,0.204505,-0.764379,0.529326,-0.000591,0.507718
1394,1914937761,-0.088978,-0.602937,0.208419,-0.764928,0.685707,0.098648,0.399271
1395,1914971095,-0.082145,-0.604211,0.203854,-0.765917,0.637265,0.124927,0.452602
1396,1915004429,-0.071043,-0.606958,0.193016,-0.767662,0.460750,-0.079236,0.138430
1397,1915037763,-0.059432,-0.608671,0.181347,-0.770133,0.102695,0.013361,0.102532
1398,1915071097,-0.049864,-0.608268,0.171309,-0.773422,-0.213300,-0.290338,0.134963
1399,1915104431,-0.045293,-0.605979,0.167254,-0.776381,-0.547857,-0.415599,-0.152239
1400,1915137765,-0.046626,-0.602976,0.171466,-0.777721,-0.515913,0.071822,-0.142689
1401,1915171099,-0.049511,-0.600828,0.177888,-0.777762,-0.200506,0.611691,-0.044484
1402,1915204433,-0.049189,-0.600584,0.179649,-0.777567,-0.105835,0.646861,-0.054567
1403,1915237767,-0.044640,-0.602165,0.176452,-0.777350,-0.199592,0.440288,-0.031168
1404,1915271101,-0.037965,-0.604732,0.172367,-0.776628,-0.378807,0.155406,0.074077
1405,1915304435,-0.030628,-0.607578,0.169476,-0.775366,-0.307761,0.075464,0.162374
1406,1915337769,-0.022327,-0.610239,0.164161,-0.774704,-0.017377,-0.384710,0.503164
1407,1915371103,-0.015137,-0.611772,0.156933,-0.775166,0.006276,-1.268880,0.174722
1408,1915404437,-0.012011,-0.612654,0.152558,-0.775397,-0.214919,-1.037140,-0.081512
1409,1915437771,-0.012266,-0.613852,0.151394,-0.774674,-0.448102,-0.351466,-0.003213
1410,1915471105,-0.013281,-0.615447,0.150764,-0.773513,-0.284037,0.118808,0.102180
1411,1915504439,-0.013341,-0.617061,0.149137,-0.772542,-0.348445,0.362309,0.291342
1412,1915537773,-0.012093,-0.618093,0.146869,-0.772171,-0.393790,0.203752,0.134552
1413,1915571107,-0.010802,-0.618607,0.146155,-0.771914,-0.213010,-0.048728,0.080083
1414,1915604441,-0.009439,-0.618941,0.145923,-0.771708,-0.159248,-0.246718,0.155098
1415,1915637775,-0.008542,-0.619115,0.146043,-0.771556,-0.189506,-0.403180,0.074843
1416,1915671109,-0.008596,-0.619214,0.146891,-0.771316,-0.135549,-0.261923,0.102363
1417,1915704443,-0.008986,-0.619324,0.147420,-0.771122,-0.096480,-0.286190,0.222006
1418,1915737777,-0.009222,-0.618978,0.148005,-0.771285,0.395318,-0.313456,0.662252
1419,1915771111,-0.008179,-0.615541,0.149271,-0.773799,1.088865,-0.118752,1.630867
1420,1915804445,-0.008610,-0.604905,0.158854,-0.780247,1.200754,-0.733816,1.809050
1421,1915837779,-0.016072,-0.583970,0.189625,-0.789156,1.947800,-0.143630,2.464022
1422,1915871113,-0.024003,-0.551661,0.237631,-0.799143,2.049564,-0.201454,2.895617
1423,1915904447,-0.027192,-0.509279,0.289084,-0.810142,2.418642,0.447148,3.371765
1424,1915937781,-0.021823,-0.459520,0.334319,-0.822557,2.390091,0.291278,3.937949
1425,1915971115,-0.008427,-0.404553,0.373240,-0.834843,1.166952,0.244668,3.157820
1426,1916004449,0.012847,-0.345026,0.408101,-0.845133,0.573057,0.462434,3.504862
1427,1916037783,0.043676,-0.282025,0.431882,-0.855591,-0.740052,0.909447,3.626552
1428,1916071117,0.080862,-0.216802,0.447064,-0.864058,-1.702890,0.726347,2.661343
1429,1916104451,0.122636,-0.149673,0.454310,-0.869577,-2.240292,0.772747,2.703350
1430,1916137785,0.168367,-0.080700,0.452354,-0.872078,-2.408699,0.719938,1.397645
1431,1916171119,0.217401,-0.011321,0.449551,-0.866324,-2.324761,0.430648,0.925261
1432,1916204453,0.270458,0.057007,0.449767,-0.849303,-2.276701,0.463276,0.048797
1433,1916237787,0.328402,0.122189,0.452851,-0.819849,-1.848790,0.392743,0.820563
1434,1916271121,0.388392,0.183653,0.449586,-0.783135,-2.320687,0.234962,0.365203
1435,1916304455,0.447596,0.240891,0.437389,-0.741838,-1.839942,0.758177,-0.100602
1436,1916337789,0.505093,0.291040,0.418492,-0.696452,-1.849110,0.917039,-1.451177
1437,1916371123,0.559769,0.331700,0.395670,-0.648138,-1.284694,1.210440,-2.092735
1438,1916404457,0.612292,0.360200,0.370342,-0.598503,-1.359853,0.779949,-3.104399
1439,1916437791,0.662274,0.376678,0.344919,-0.548217,-1.329563,0.975089,-4.235214
1440,1916471125,0.707339,0.383917,0.317661,-0.501373,-0.954133,0.503950,-5.079007
1441,1916504459,0.743809,0.389183,0.286315,-0.461858,-0.631785,-1.097282,-6.607043
1442,1916537793,0.774122,0.392837,0.255876,-0.425377,0.853716,-1.266693,-5.702257
1443,1916571127,0.801287,0.390867,0.230442,-0.389951,1.316262,-2.305965,-5.311316
1444,1916604461,0.822727,0.390212,0.206507,-0.358069,1.435347,-1.492011,-4.159188
1445,1916637795,0.840191,0.388560,0.188716,-0.327858,2.671191,-2.764555,-1.565886
1446,1916671129,0.843181,0.402504,0.174827,-0.310607,3.141736,-4.944504,1.041527
1447,1916704463,0.831541,0.436155,0.159668,-0.304661,1.937132,0.341310,0.485688
1448,1916737797,0.824896,0.456634,0.148636,-0.298235,0.450283,1.268400,-0.387455
1449,1916771131,0.818978,0.472531,0.137602,-0.295060,0.509045,0.070852,-0.709950
1450,1916804465,0.807983,0.493832,0.124112,-0.296468,0.973145,1.522445,-0.095980
1451,1916837799,0.793915,0.515414,0.111293,-0.302763,2.071172,1.093474,0.707392
1452,1916871133,0.791470,0.515600,0.106190,-0.310580,2.648646,2.618896,1.849254
1453,1916904467,0.798068,0.501991,0.109289,-0.314885,-0.856599,-2.488037,0.437551
1454,1916937801,0.802275,0.494871,0.111041,-0.314853,-1.456763,-1.128906,-0.568674
1455,1916971135,0.803528,0.493480,0.108226,-0.314820,0.953372,0.653720,0.414544
1456,1917004469,0.805121,0.490879,0.107580,-0.315038,0.963802,-0.534774,0.237440
