sep=,
DeviceTag:,D_Wrist
FirmwareVersion:,2.2.1
AppVersion:,2023.6.0
SyncStatus:,Synced
OutputRate:,30Hz
FilterProfile:,General
Measurement Mode:,Sensor fusion Mode - Complete(Quaternion)
StartTime: ,2026-09-07_17:35:43_844 AEST
© Movella Technologies B. V. 2005-2026

PacketCounter,SampleTimeFine,Quat_W,Quat_X,Quat_Y,Quat_Z,FreeAcc_X,FreeAcc_Y,FreeAcc_Z
1,846506878,0.461579,-0.196807,-0.331952,0.798766,0.514608,1.323312,-2.107802
2,846540212,0.456784,-0.200931,-0.323267,0.804040,0.113082,1.424706,-0.498507
3,846573546,0.451372,-0.207002,-0.318243,0.807553,0.303741,0.143921,0.358053
4,846606880,0.446940,-0.212905,-0.309270,0.811957,0.517629,-0.209480,1.516363
5,846640214,0.441781,-0.224204,-0.300245,0.815120,-0.258230,-2.326736,1.161965
6,846673548,0.435585,-0.237830,-0.292104,0.817548,0.386049,-2.844275,1.106241
7,846706882,0.434110,-0.249708,-0.278977,0.819373,1.075462,-4.920739,-1.761945
8,846740216,0.439203,-0.255581,-0.266308,0.819063,1.416140,-6.098528,-4.528965
9,846773550,0.447111,-0.250510,-0.265498,0.816611,0.683621,-2.978825,-6.362561
10,846806884,0.457607,-0.243560,-0.280825,0.807724,1.262812,1.980086,-3.694226
11,846840218,0.476653,-0.222912,-0.285704,0.800932,-1.243853,7.834386,0.093075
12,846873552,0.487271,-0.198582,-0.295479,0.797390,-0.206239,9.516010,2.110294
13,846906886,0.481479,-0.184364,-0.303119,0.801444,0.665823,8.932006,0.494467
14,846940220,0.466240,-0.187617,-0.314190,0.805426,-0.945429,4.167610,1.331772
15,846973554,0.447500,-0.194344,-0.325036,0.810143,-2.510250,1.193004,2.422338
16,847006888,0.429319,-0.207470,-0.332743,0.813591,-1.785096,-4.346819,1.916423
17,847040222,0.421620,-0.224514,-0.335267,0.812055,-0.834392,-7.205160,2.271557
18,847073556,0.422026,-0.243783,-0.332740,0.807313,-1.313434,-7.800129,0.658546
19,847106890,0.424185,-0.264308,-0.333995,0.799163,-0.005674,-5.475560,-0.611620
20,847140224,0.432372,-0.272748,-0.330326,0.793444,1.513193,-3.518301,-3.648926
21,847173558,0.441852,-0.270381,-0.328487,0.789787,1.737091,-1.285862,-5.390674
22,847206892,0.450761,-0.262689,-0.333404,0.785275,1.789139,2.311027,-3.661855
23,847240226,0.461647,-0.246720,-0.340586,0.781037,0.146084,4.272740,-1.226225
24,847273560,0.467814,-0.225080,-0.352639,0.778550,0.754064,6.706502,-0.021596
25,847306894,0.466488,-0.210493,-0.360852,0.779663,0.067507,6.997181,0.851549
26,847340228,0.459792,-0.203931,-0.367137,0.782445,-0.910373,4.238089,2.831895
27,847373562,0.454223,-0.198176,-0.368432,0.786558,-1.278773,2.977770,1.610374
28,847406896,0.446134,-0.205959,-0.369021,0.788908,-0.133637,-0.492924,0.685749
29,847440230,0.439083,-0.220766,-0.367048,0.789779,-1.248183,-3.952402,1.506936
30,847473564,0.435807,-0.233976,-0.360910,0.790618,-0.309590,-6.016081,-0.333446
31,847506898,0.436430,-0.242981,-0.354202,0.790593,0.721506,-6.195806,-3.029829
32,847540232,0.441596,-0.247670,-0.349916,0.788174,1.115081,-5.991974,-5.214986
33,847573566,0.451383,-0.246257,-0.353241,0.781561,0.576608,-4.414828,-6.644981
34,847606900,0.469252,-0.234295,-0.358639,0.772199,0.513214,-0.762432,-5.854388
35,847640234,0.493940,-0.211554,-0.370132,0.757811,-2.177722,3.359637,-1.133065
36,847673568,0.512927,-0.175733,-0.400905,0.738448,-1.387735,4.998135,1.356207
37,847706902,0.524524,-0.130036,-0.425174,0.726084,1.361352,9.245892,8.641785
38,847740236,0.528946,-0.097887,-0.435234,0.721950,-0.635193,8.373864,6.234997
39,847773570,0.521989,-0.095517,-0.444874,0.721456,-0.186557,4.043963,4.190357
40,847806904,0.516333,-0.109542,-0.449676,0.720554,-0.089354,-1.971765,1.872507
41,847840238,0.514749,-0.128267,-0.453584,0.716134,-1.192854,-5.489445,1.284894
42,847873572,0.516682,-0.146547,-0.455624,0.709913,-0.131395,-7.688939,-1.742043
43,847906906,0.518755,-0.161246,-0.459718,0.702537,1.201274,-6.410485,-3.561738
44,847940240,0.523805,-0.164321,-0.459722,0.698061,2.002831,-3.186105,-4.141346
45,847973574,0.528785,-0.161495,-0.461937,0.693488,0.640989,0.332358,-1.749871
46,848006908,0.534888,-0.149717,-0.463529,0.690382,-1.395055,2.695906,1.989469
47,848040242,0.537433,-0.132834,-0.467246,0.689353,-1.298175,4.129656,2.558259
48,848073576,0.530216,-0.123344,-0.477293,0.689822,-0.054249,6.075005,5.388533
49,848106910,0.520772,-0.121270,-0.481888,0.694176,-0.176821,3.740400,4.711757
50,848140244,0.509213,-0.126482,-0.485762,0.699103,-1.058089,0.395282,2.463654
51,848173578,0.499757,-0.138096,-0.489542,0.701090,-0.219997,-2.844434,-2.070455
52,848206912,0.493822,-0.152047,-0.490416,0.701798,0.432028,-4.789105,-5.977072
53,848240246,0.488311,-0.166909,-0.492075,0.701116,-0.680826,-6.116256,-4.956096
54,848273580,0.485929,-0.171728,-0.493740,0.700435,-0.031007,-5.057828,-4.131770
55,848306914,0.486908,-0.167238,-0.495222,0.699795,1.421378,-0.500030,-4.887360
56,848340248,0.490587,-0.165861,-0.501825,0.692815,-0.004774,0.764657,0.138445
57,848373582,0.498058,-0.150261,-0.504301,0.689236,-0.892959,2.887512,5.066597
58,848406916,0.501287,-0.134721,-0.508713,0.686862,0.578414,4.212557,2.775163
59,848440250,0.502113,-0.125566,-0.515419,0.682983,0.604109,4.164337,5.707335
60,848473584,0.500169,-0.116623,-0.518957,0.683316,-0.735744,3.035368,5.916248
61,848506918,0.489617,-0.117718,-0.527176,0.684478,-0.565659,2.160673,3.384674
62,848540252,0.476753,-0.126052,-0.534469,0.686415,-0.511080,-0.224100,-1.215021
63,848573586,0.467064,-0.141858,-0.537288,0.687790,-0.208603,-3.156962,-4.715729
64,848606920,0.463487,-0.160703,-0.544254,0.680550,-0.380397,-5.077591,-4.559670
65,848640254,0.464358,-0.168017,-0.548551,0.674715,0.968277,-5.297087,-4.512729
66,848673588,0.467943,-0.160917,-0.552983,0.670337,2.377016,-2.446808,-4.685687
67,848706922,0.470381,-0.144046,-0.557322,0.668872,1.768387,-0.356860,-3.337437
68,848740256,0.479270,-0.114255,-0.556724,0.668812,-0.055698,4.794924,1.694020
69,848773590,0.488881,-0.088486,-0.564679,0.659022,-1.780064,4.469338,7.242031
70,848806924,0.486474,-0.068147,-0.575451,0.653882,-1.259184,3.710886,8.559124
71,848840258,0.472775,-0.066410,-0.581625,0.658629,-1.687960,2.793218,4.263787
72,848873592,0.462879,-0.084508,-0.588428,0.657542,-1.804893,-0.702091,-0.280892
73,848906926,0.458930,-0.104114,-0.591688,0.654565,-0.871212,-3.245431,-3.371834
74,848940260,0.462889,-0.115924,-0.591879,0.649601,1.548270,-3.073112,-6.363412
75,848973594,0.472966,-0.112428,-0.587473,0.646950,2.900005,-2.282616,-6.242197
76,849006928,0.484208,-0.097284,-0.584105,0.644132,1.446828,-1.532910,-6.063884
77,849040262,0.492662,-0.071237,-0.586213,0.639195,1.339625,-0.716740,-2.724519
78,849073596,0.501216,-0.030002,-0.587310,0.634788,0.494444,2.900688,-1.681513
79,849106930,0.506584,0.008981,-0.601003,0.618138,-1.097108,4.134408,2.355036
80,849140264,0.509689,0.051326,-0.611896,0.602638,0.510969,3.274136,7.832100
81,849173598,0.511523,0.092912,-0.613544,0.594376,-1.204382,1.645756,6.563471
82,849206932,0.514267,0.114272,-0.618121,0.583442,-0.663977,1.202001,5.325688
83,849240266,0.516521,0.117777,-0.629303,0.568612,1.036889,-1.086777,7.553829
84,849273600,0.515592,0.115823,-0.633294,0.565416,0.001248,-2.832075,4.588501
85,849306934,0.507424,0.104457,-0.636512,0.571375,0.147284,-2.535646,2.708900
86,849340268,0.500959,0.089148,-0.633914,0.582453,0.189016,-1.140323,-2.248832
87,849373602,0.500984,0.076957,-0.627752,0.590784,-1.105997,-2.148009,-4.527679
88,849406936,0.504041,0.083627,-0.614521,0.601099,0.080268,-0.603123,-3.896160
89,849440270,0.507287,0.114994,-0.590775,0.616788,-1.482614,1.284113,-2.694706
90,849473604,0.510605,0.149769,-0.577591,0.619070,-1.077410,2.194509,2.314384
91,849506938,0.512268,0.169036,-0.588649,0.602085,-1.407495,3.260591,3.597026
92,849540272,0.510632,0.171732,-0.606990,0.584236,1.434139,1.874459,5.797787
93,849573606,0.505222,0.172801,-0.612977,0.582371,1.245257,0.087886,5.824037
94,849606940,0.498598,0.162230,-0.621550,0.582034,-1.099554,-0.898335,4.335505
95,849640274,0.494922,0.134396,-0.637972,0.574446,-0.262275,-1.851387,2.649416
96,849673608,0.491538,0.108331,-0.642797,0.577472,0.970763,-2.446137,2.255420
97,849706942,0.492572,0.085500,-0.634880,0.589064,-0.729201,-1.274216,-1.961700
98,849740276,0.498075,0.058513,-0.632711,0.590069,-0.595465,-0.923857,-3.398252
99,849773610,0.506163,0.041885,-0.630539,0.586917,0.572245,0.104975,-1.664660
100,849806944,0.516411,0.039243,-0.628388,0.580443,0.928103,1.349793,-0.602347
101,849840278,0.524821,0.046700,-0.632476,0.567769,0.749447,1.581088,1.508040
102,849873612,0.525378,0.065202,-0.638463,0.558657,0.955852,0.432461,3.051441
103,849906946,0.517645,0.088197,-0.640920,0.559905,1.604473,0.376715,4.924961
104,849940280,0.509715,0.100105,-0.637546,0.568955,0.341365,1.260537,4.021555
105,849973614,0.504339,0.090531,-0.636589,0.576374,-0.413874,-0.194071,4.292686
106,850006948,0.501423,0.068783,-0.636832,0.581632,-1.419767,-0.560144,3.578221
107,850040282,0.499506,0.038341,-0.637416,0.585432,-0.425753,-0.669003,2.474841
108,850073616,0.496938,0.008683,-0.633533,0.592975,-0.742658,-2.548390,2.464740
109,850106950,0.494002,-0.015849,-0.622295,0.607014,-0.998088,-2.207920,-1.684378
110,850140284,0.491603,-0.041292,-0.610641,0.619471,-0.721211,-2.389965,-3.255545
111,850173618,0.492085,-0.061436,-0.597361,0.630273,-0.357835,-2.215155,-3.705450
112,850206952,0.497267,-0.069569,-0.580556,0.640974,0.180753,-0.515102,-5.460448
113,850240286,0.504239,-0.069626,-0.569954,0.645022,0.227476,1.069365,-5.623853
114,850273620,0.510778,-0.063754,-0.568353,0.641889,-0.496493,2.626415,-3.164990
115,850306954,0.515785,-0.052330,-0.574159,0.633700,1.162914,2.902829,1.133931
116,850340288,0.518636,-0.027992,-0.568576,0.637936,0.948558,2.969547,3.365367
117,850373622,0.514764,-0.017984,-0.567580,0.642304,-0.545447,2.865670,2.931569
118,850406956,0.507158,-0.027528,-0.572460,0.643684,0.444088,1.568289,4.229700
119,850440290,0.500443,-0.039166,-0.566954,0.653140,-0.037916,1.113468,2.969666
120,850473624,0.492089,-0.059251,-0.561303,0.662784,-0.431969,-0.489288,1.350705
121,850506958,0.483025,-0.082656,-0.554393,0.672688,-0.399588,-1.607985,1.174387
122,850540292,0.476620,-0.107112,-0.540984,0.684619,-0.517612,-3.394132,-0.740702
123,850573626,0.474755,-0.130093,-0.523601,0.695365,-0.247728,-4.400996,-2.731512
124,850606960,0.474932,-0.149157,-0.508263,0.702756,0.120674,-3.284596,-4.253264
125,850640294,0.476387,-0.162695,-0.497069,0.706764,1.374220,-1.535718,-4.050478
126,850673628,0.483455,-0.161331,-0.481221,0.713215,0.189748,0.311901,-4.097138
127,850706962,0.489552,-0.154737,-0.477780,0.712831,-0.296470,2.123854,-1.462693
128,850740296,0.490721,-0.142722,-0.483887,0.710410,0.957898,3.564795,1.697019
129,850773630,0.489374,-0.127546,-0.481471,0.715847,-0.473487,4.245796,1.341364
130,850806964,0.484785,-0.126895,-0.482564,0.718345,-0.630045,3.094295,2.951219
131,850840298,0.480258,-0.132244,-0.480243,0.721967,-0.583805,1.933936,2.388481
132,850873632,0.474274,-0.143731,-0.480155,0.723784,0.088760,1.532991,2.442861
133,850906966,0.467121,-0.153980,-0.475979,0.729067,0.201471,0.369502,3.174016
134,850940300,0.459550,-0.160714,-0.466754,0.738331,-0.259764,-0.930577,1.207040
135,850973634,0.451593,-0.172047,-0.457682,0.746323,-0.618078,-1.166404,0.979565
136,851006968,0.447620,-0.188422,-0.443754,0.753142,-0.127763,-3.207731,0.561749
137,851040302,0.445807,-0.205239,-0.428970,0.758369,-0.659221,-3.706024,-0.489046
138,851073636,0.442431,-0.223967,-0.420126,0.759996,0.590551,-3.653652,-1.982882
139,851106970,0.441757,-0.232989,-0.408495,0.764006,1.838833,-2.045755,-3.280712
140,851140304,0.446592,-0.232040,-0.394119,0.769018,0.964363,-0.982367,-5.499315
141,851173638,0.449825,-0.231532,-0.398013,0.765273,-0.529875,1.261119,-3.183190
142,851206972,0.449896,-0.223990,-0.409547,0.761380,0.068653,3.475501,0.700392
143,851240306,0.450437,-0.206131,-0.409013,0.766376,0.786507,5.170570,2.413373
144,851273640,0.444957,-0.192839,-0.404213,0.775528,-1.260173,4.420830,2.134439
145,851306974,0.432470,-0.192719,-0.402685,0.783377,-0.452850,3.952950,1.485677
146,851340308,0.418849,-0.201350,-0.395688,0.792124,-0.493136,2.275609,1.882312