sep=,
DeviceTag:,2B_Left
FirmwareVersion:,2.2.1
AppVersion:,2023.6.0
SyncStatus:,Synced
OutputRate:,30Hz
FilterProfile:,General
Measurement Mode:,Sensor fusion Mode - Complete(Quaternion)
StartTime: ,2026-05-27_15:05:25_581 AEST
© Movella Technologies B. V. 2005-2026

PacketCounter,SampleTimeFine,Quat_W,Quat_X,Quat_Y,Quat_Z,FreeAcc_X,FreeAcc_Y,FreeAcc_Z
1,3194038743,0.701389,-0.566490,-0.284215,0.326136,0.118895,0.120575,0.132701
2,3194072077,0.701356,-0.566795,-0.283528,0.326275,0.140057,0.126095,0.129715
3,3194105411,0.701278,-0.567039,-0.283043,0.326441,0.114602,0.139489,0.158653
4,3194138745,0.701186,-0.567171,-0.282779,0.326636,0.116786,0.192446,0.144379
5,3194172079,0.701153,-0.567333,-0.282452,0.326711,0.067504,0.220551,0.102482
6,3194205413,0.701059,-0.567488,-0.282308,0.326766,0.066444,0.270221,0.057234
7,3194238747,0.701002,-0.567752,-0.282065,0.326641,0.094992,0.314705,0.123864
8,3194272081,0.701166,-0.568088,-0.281446,0.326236,0.124834,0.361377,0.076912
9,3194305415,0.701532,-0.568410,-0.280662,0.325563,0.096292,0.388815,0.098972
10,3194338749,0.702264,-0.568396,-0.279888,0.324678,0.105634,0.369173,0.070728
11,3194372083,0.703415,-0.567992,-0.278977,0.323675,0.025873,0.296454,0.107279
12,3194405417,0.704699,-0.566811,-0.278699,0.323191,-0.225356,0.303146,0.130218
13,3194438751,0.705911,-0.564231,-0.279851,0.324062,-0.485163,0.297135,0.192992
14,3194472085,0.706917,-0.560253,-0.282410,0.326542,-0.572583,0.192404,0.369698
15,3194505419,0.707536,-0.555382,-0.286186,0.330214,-0.300337,0.067547,0.538833
16,3194538753,0.708009,-0.550650,-0.290213,0.333595,0.038801,-0.058127,0.608171
17,3194572087,0.708870,-0.546960,-0.293234,0.335191,0.335459,-0.090947,0.301419
18,3194605421,0.710882,-0.544901,-0.293783,0.333800,0.401918,-0.115286,0.056089
19,3194638755,0.713653,-0.543975,-0.292686,0.330341,0.025909,-0.212457,0.030018
20,3194672089,0.716177,-0.543246,-0.291747,0.326891,-0.324231,-0.236211,0.007095
21,3194705423,0.718080,-0.542553,-0.291379,0.324186,-0.345359,-0.314388,-0.091788
22,3194738757,0.719272,-0.542093,-0.291378,0.322308,-0.304893,-0.421650,0.169317
23,3194772091,0.719746,-0.541735,-0.291922,0.321358,-0.081167,-0.447702,0.179413
24,3194805425,0.719921,-0.541715,-0.292528,0.320448,0.226804,-0.448023,0.103425
25,3194838759,0.720807,-0.541993,-0.291203,0.319190,-0.325766,-0.420844,0.315169
26,3194872093,0.721519,-0.540253,-0.290864,0.320835,-1.455084,-0.437561,0.284135
27,3194905427,0.720767,-0.536120,-0.293636,0.326877,-0.862033,-0.430400,-0.133695
28,3194938761,0.718816,-0.531764,-0.297499,0.334704,-0.053671,-0.464051,-0.141238
29,3194972095,0.715944,-0.528318,-0.301352,0.342771,0.453247,-0.514366,0.109915
30,3195005429,0.711460,-0.525709,-0.307066,0.350951,0.835446,-0.364740,-0.016643
31,3195038763,0.705915,-0.525982,-0.312544,0.356853,0.822031,-0.190217,-0.313246
32,3195072097,0.701895,-0.529121,-0.313921,0.358925,0.464084,-0.014109,-0.180242
33,3195105431,0.699589,-0.533366,-0.313941,0.357124,0.288190,0.375604,-0.118252
34,3195138765,0.699342,-0.539060,-0.310430,0.352094,-0.230296,0.277826,0.033057
35,3195172099,0.700176,-0.545364,-0.304264,0.346057,-0.693414,0.090646,0.337729
36,3195205433,0.700724,-0.551472,-0.297689,0.340950,-1.068198,-0.189527,0.737750
37,3195238767,0.700636,-0.556085,-0.292164,0.338409,-1.273044,-0.227189,0.658438
38,3195272101,0.700182,-0.557485,-0.290265,0.338677,-0.893943,-0.315050,0.239561
39,3195305435,0.699455,-0.556099,-0.292201,0.340786,-0.478341,-0.264182,0.277468
40,3195338769,0.699328,-0.552887,-0.294948,0.343894,-0.494156,-0.240499,0.389850
41,3195372103,0.699191,-0.548343,-0.298651,0.348223,-0.522300,-0.388551,0.455599
42,3195405437,0.698751,-0.543246,-0.302907,0.353382,-0.607050,-0.538282,0.383792
43,3195438771,0.697777,-0.537657,-0.307867,0.359514,-0.726726,-0.571758,0.066988
44,3195472105,0.695656,-0.531621,-0.314394,0.366878,-0.507403,-0.387695,-0.109744
45,3195505439,0.692753,-0.525589,-0.321274,0.375011,-0.346330,-0.207733,-0.170125
46,3195538773,0.689327,-0.519932,-0.327638,0.383606,-0.206335,-0.060593,-0.133073
47,3195572107,0.685526,-0.514883,-0.333136,0.392391,-0.095164,0.044379,-0.022254
48,3195605441,0.681430,-0.510417,-0.337932,0.401161,0.016049,0.132635,0.081463
49,3195638775,0.677284,-0.506470,-0.341991,0.409656,0.117434,0.248427,0.153612
50,3195672109,0.673701,-0.502998,-0.344822,0.417394,0.125221,0.352495,0.217732
51,3195705443,0.671015,-0.499701,-0.346444,0.424282,0.070691,0.289965,0.200945
52,3195738777,0.668853,-0.495772,-0.348014,0.430967,-0.011773,0.237624,0.232584
53,3195772111,0.667020,-0.490372,-0.350414,0.437986,-0.038261,0.147920,0.184611
54,3195805445,0.665306,-0.483381,-0.353900,0.445495,0.037707,0.033137,0.157310
55,3195838779,0.663368,-0.475483,-0.358160,0.453409,0.037501,-0.005658,0.230140
56,3195872113,0.661183,-0.467586,-0.362234,0.461505,0.112161,0.020382,0.202035
57,3195905447,0.658967,-0.460791,-0.365191,0.469117,0.342917,0.003996,0.081246
58,3195938781,0.656704,-0.455857,-0.366572,0.475983,0.498673,-0.004986,0.104141
59,3195972115,0.654047,-0.452563,-0.366862,0.482516,0.643996,-0.032099,0.255975
60,3196005449,0.650597,-0.450330,-0.366795,0.489273,0.772522,0.016245,0.299441
61,3196038783,0.646629,-0.448633,-0.366728,0.496095,0.878083,0.278033,0.034470
62,3196072117,0.642550,-0.447707,-0.366299,0.502508,0.984682,0.398933,-0.092372
63,3196105451,0.637876,-0.447823,-0.365841,0.508655,1.243323,0.629227,-0.250619
64,3196138785,0.632532,-0.449744,-0.365525,0.513834,1.381727,0.883766,-0.087439
65,3196172119,0.626913,-0.454045,-0.364878,0.517385,1.238422,1.066176,-0.065587
66,3196205453,0.621704,-0.460542,-0.363640,0.518799,0.917048,1.320396,0.087991
67,3196238787,0.617705,-0.470429,-0.360679,0.516768,1.367334,1.472084,-0.512819
68,3196272121,0.620560,-0.495847,-0.338713,0.504297,1.023278,1.718904,0.308969
69,3196305455,0.630983,-0.524936,-0.303811,0.483738,-0.559285,1.616949,0.827586
70,3196338789,0.638335,-0.543821,-0.282999,0.465510,-1.117257,1.101724,0.420484
71,3196372123,0.642064,-0.550414,-0.278312,0.455346,-2.553897,-0.846269,0.491545
72,3196405457,0.639861,-0.545323,-0.285597,0.460039,-1.212709,-0.178625,0.740767
73,3196438791,0.636801,-0.537760,-0.292110,0.469011,-0.154075,0.437578,0.967473
74,3196472125,0.634448,-0.529216,-0.298444,0.477847,0.308899,0.790676,0.751591
75,3196505459,0.632997,-0.519697,-0.306241,0.485228,0.591330,0.620875,0.319189
76,3196538793,0.632773,-0.511104,-0.313200,0.490181,0.591228,0.683132,-0.055299
77,3196572127,0.634100,-0.505155,-0.317649,0.491768,0.386861,0.740053,-0.316086
78,3196605461,0.636749,-0.502034,-0.319242,0.490508,0.417871,0.859079,-0.400913
79,3196638795,0.640195,-0.501013,-0.318498,0.487541,0.737842,1.027365,-0.518019
80,3196672129,0.643766,-0.501772,-0.316314,0.483463,0.863461,0.856865,-0.531084
81,3196705463,0.646780,-0.503421,-0.314279,0.479033,0.767631,0.624465,-0.400407
82,3196738797,0.649150,-0.505590,-0.313051,0.474324,0.778786,0.572462,-0.254466
83,3196772131,0.651353,-0.508411,-0.312185,0.468827,0.667378,0.475296,-0.105296
84,3196805465,0.653565,-0.511907,-0.311584,0.462298,0.612222,0.353435,0.061161
85,3196838799,0.655439,-0.515727,-0.311516,0.455394,0.352142,0.234286,0.206113
86,3196872133,0.656654,-0.519383,-0.312472,0.448786,0.232681,0.234612,0.218912
87,3196905467,0.657490,-0.523118,-0.313457,0.442492,0.057095,0.362362,0.319079
88,3196938801,0.658568,-0.526704,-0.313694,0.436427,0.110587,0.492159,0.263903
89,3196972135,0.660341,-0.530571,-0.312305,0.430013,0.209712,0.522262,0.270214
90,3197005469,0.662839,-0.534869,-0.309136,0.423077,0.102406,0.613419,0.317852
91,3197038803,0.665447,-0.538899,-0.306054,0.416052,0.036781,0.593765,0.356936
92,3197072137,0.668356,-0.543034,-0.302487,0.408554,-0.070303,0.644740,0.272904
93,3197105471,0.672159,-0.547330,-0.297703,0.400006,-0.157589,0.550286,0.016136
94,3197138805,0.676141,-0.551680,-0.292811,0.390827,-0.072717,0.467270,0.029113
95,3197172139,0.680150,-0.556282,-0.287181,0.381412,-0.068326,0.560627,0.037895
96,3197205473,0.684290,-0.560354,-0.281324,0.372301,0.001559,0.524324,-0.104634
97,3197238807,0.688597,-0.563309,-0.275985,0.363801,0.052475,0.434420,-0.175467
98,3197272141,0.692922,-0.564944,-0.271697,0.356199,0.154364,0.435356,-0.090752
99,3197305475,0.697694,-0.566003,-0.267330,0.348424,0.711752,0.551026,0.024638
100,3197338809,0.705453,-0.568658,-0.256359,0.336517,0.739814,0.567304,0.461143
101,3197372143,0.715108,-0.571098,-0.242463,0.321994,0.270897,-0.160345,0.232343
102,3197405477,0.723079,-0.571840,-0.233542,0.309215,-0.009904,-0.554358,0.092544
103,3197438811,0.729323,-0.570698,-0.230012,0.299144,0.104306,-0.512953,0.144493
104,3197472145,0.734504,-0.568238,-0.229916,0.291118,0.037313,-0.665982,-0.024677
105,3197505479,0.738102,-0.565331,-0.233119,0.285065,0.434308,-0.700564,-0.387694
106,3197538813,0.740067,-0.564030,-0.237587,0.278790,0.228127,-0.472892,-0.250993
107,3197572147,0.742737,-0.562753,-0.240426,0.271748,-1.346280,-0.260394,0.709201
108,3197605481,0.746026,-0.558732,-0.242661,0.269034,-3.393193,0.210241,1.867714
109,3197638815,0.749038,-0.550660,-0.247903,0.272508,-2.335984,-0.083227,1.069930
110,3197672149,0.751505,-0.540545,-0.256364,0.278083,-1.061916,-0.255494,0.431076
111,3197705483,0.754716,-0.530801,-0.262448,0.282446,-0.055102,-0.416482,-0.127876
112,3197738817,0.757510,-0.523676,-0.265802,0.285116,0.661601,-0.991664,-0.270690
113,3197772151,0.758358,-0.520323,-0.267787,0.287139,1.081354,-1.211190,0.027517
114,3197805485,0.758154,-0.520333,-0.267764,0.287680,1.168942,-1.226708,-0.016202
115,3197838819,0.758695,-0.523285,-0.263811,0.284533,1.163339,-1.108517,-0.301240
116,3197872153,0.760560,-0.528083,-0.256829,0.276977,0.529552,-0.968709,-0.239179
117,3197905487,0.761936,-0.532042,-0.253156,0.268882,-0.422428,-0.404379,0.059760
118,3197938821,0.762456,-0.534175,-0.253354,0.262928,-0.824569,0.165270,0.316740
119,3197972155,0.763664,-0.535024,-0.252853,0.258133,-1.300618,0.435488,0.556495
120,3198005489,0.764476,-0.535163,-0.253254,0.255029,-0.784702,0.074669,0.296299
121,3198038823,0.765466,-0.535909,-0.251759,0.251955,-0.393323,-0.265449,0.013010
122,3198072157,0.766865,-0.538204,-0.246187,0.248289,-0.266657,-0.861214,-0.267334
123,3198105491,0.767281,-0.542060,-0.239250,0.245378,-0.155798,-1.065760,-0.414721
124,3198138825,0.766217,-0.546698,-0.233256,0.244181,-0.028360,-0.962963,-0.243379
125,3198172159,0.763956,-0.552143,-0.227241,0.244684,-0.057355,-0.925517,-0.108045
126,3198205493,0.760623,-0.556643,-0.224051,0.247795,-0.480464,-0.599975,0.455068
127,3198238827,0.756561,-0.559333,-0.224308,0.253866,-0.718257,-0.435354,0.781665
128,3198272161,0.752783,-0.559850,-0.227436,0.261073,-0.469524,-0.361500,0.309430
129,3198305495,0.749599,-0.559804,-0.231197,0.266964,-0.127680,-0.251544,0.081525
130,3198338829,0.747208,-0.559941,-0.233984,0.270922,0.151611,-0.161991,0.042973
131,3198372163,0.745127,-0.561121,-0.235277,0.273081,0.373264,-0.209290,-0.127030
132,3198405497,0.743089,-0.563586,-0.235033,0.273769,0.388021,-0.103099,-0.203483
133,3198438831,0.740882,-0.567268,-0.233879,0.273132,0.245418,-0.068897,-0.243980
134,3198472165,0.738128,-0.571737,-0.232833,0.272165,0.035381,0.064016,0.043206
135,3198505499,0.735402,-0.576485,-0.231168,0.270944,-0.004826,0.188634,0.349168
136,3198538833,0.733222,-0.581315,-0.228233,0.269014,-0.174253,0.130855,0.728491
137,3198572167,0.731801,-0.585296,-0.224898,0.267052,-0.550718,0.011276,0.712548
138,3198605501,0.730827,-0.587022,-0.223989,0.266694,-0.705113,-0.032535,0.369937
139,3198638835,0.729592,-0.586486,-0.226978,0.268721,-0.744964,-0.128548,0.333488
140,3198672169,0.728203,-0.582851,-0.233771,0.274512,-1.306723,0.396678,0.285245
141,3198705503,0.727147,-0.577416,-0.241445,0.282050,-0.505805,-0.035742,-0.251193
142,3198738837,0.725008,-0.572680,-0.250223,0.289467,-0.122355,0.119297,-0.290113
143,3198772171,0.723198,-0.569954,-0.255720,0.294524,0.113698,0.331204,0.007206
144,3198805505,0.722278,-0.569790,-0.256303,0.296586,0.003941,0.064528,0.589917
145,3198838839,0.721578,-0.570182,-0.255223,0.298463,-0.195416,-0.039479,0.275271
146,3198872173,0.720877,-0.569088,-0.256454,0.301175,-0.103321,-0.110838,-0.196451
147,3198905507,0.719784,-0.566449,-0.260817,0.304995,0.026294,-0.022059,-0.437159
148,3198938841,0.718201,-0.563089,-0.266807,0.309730,0.022107,0.256086,-0.483304
149,3198972175,0.716351,-0.559843,-0.272839,0.314605,0.187039,0.297388,-0.325796
150,3199005509,0.714297,-0.557868,-0.276998,0.319117,0.261684,0.291602,0.478228
151,3199038843,0.712640,-0.556836,-0.278115,0.323619,0.186566,0.244407,0.557049
152,3199072177,0.711317,-0.554891,-0.279383,0.328740,0.122134,-0.041607,0.488475
153,3199105511,0.709531,-0.550677,-0.284356,0.335354,0.094335,-0.299195,0.404110
154,3199138845,0.707185,-0.544104,-0.293377,0.343177,0.154211,-0.178014,0.194818
155,3199172179,0.704642,-0.535861,-0.304813,0.351316,-0.027732,-0.211353,0.298415
156,3199205513,0.702569,-0.524976,-0.318597,0.359573,-0.223956,-0.540817,0.519194
157,3199238847,0.700934,-0.512266,-0.334420,0.366659,0.172797,-0.594161,0.200141
158,3199272181,0.700074,-0.503002,-0.345327,0.370992,0.141209,-0.892071,0.373466
159,3199305515,0.699481,-0.498015,-0.349466,0.374942,-0.471247,-1.150035,0.284858
160,3199338849,0.696285,-0.494468,-0.354233,0.381061,0.428396,-0.187497,-0.147858
161,3199372183,0.691396,-0.492748,-0.359393,0.387307,0.850626,0.238884,-0.588357
162,3199405517,0.686423,-0.494808,-0.360170,0.392767,0.506243,0.175467,-0.773183
163,3199438851,0.681040,-0.498682,-0.358446,0.398770,0.329749,0.394379,-0.378666
164,3199472185,0.676110,-0.502953,-0.354308,0.405437,-0.494792,0.137657,1.202648
165,3199505519,0.675234,-0.502217,-0.347021,0.414022,-1.394783,-1.168984,3.250026
166,3199538853,0.675087,-0.490753,-0.344289,0.429981,-0.734224,-2.185992,2.165545
167,3199572187,0.668931,-0.468706,-0.354887,0.454865,0.488801,-2.235497,-0.146830
168,3199605521,0.654237,-0.441196,-0.377357,0.484688,0.857813,-0.724101,-0.705337
169,3199638855,0.631625,-0.415667,-0.401266,0.516969,0.879218,0.904330,-0.509585
170,3199672189,0.604912,-0.397242,-0.417638,0.549418,0.806469,2.321659,1.681518
171,3199705523,0.579215,-0.385470,-0.425019,0.579036,0.713456,2.644416,2.288061
172,3199738857,0.557357,-0.378430,-0.426900,0.603241,0.416925,2.427189,0.788282
173,3199772191,0.541043,-0.372894,-0.429873,0.619219,-0.110756,2.201689,-1.375972
174,3199805525,0.533602,-0.370984,-0.432515,0.624956,-0.574268,2.728429,-2.701073
175,3199838859,0.537778,-0.377120,-0.429096,0.620042,-0.432167,3.111667,-2.509181
176,3199872193,0.550224,-0.390818,-0.420433,0.606425,0.354834,2.915371,-1.312524
177,3199905527,0.566766,-0.410866,-0.407488,0.586446,-0.260738,2.257437,-0.906500
178,3199938861,0.586474,-0.429463,-0.393299,0.562963,-0.563135,1.423943,-1.732928
179,3199972195,0.607126,-0.440995,-0.383072,0.538682,0.086058,0.760879,-1.141178
180,3200005529,0.623888,-0.446328,-0.380576,0.516448,0.839961,0.518620,-1.633282
181,3200038863,0.633752,-0.448761,-0.388221,0.496243,1.044062,0.613905,-1.574922
182,3200072197,0.636783,-0.454575,-0.401680,0.475945,1.263173,1.190276,-0.201909
183,3200105531,0.638363,-0.473446,-0.405144,0.451885,1.097903,2.239414,2.702029
184,3200138865,0.647931,-0.507874,-0.382695,0.419279,0.374857,2.193142,4.394114
185,3200172199,0.669644,-0.543024,-0.337908,0.377519,1.065697,0.467602,1.965459
186,3200205533,0.697149,-0.563523,-0.294197,0.331473,1.438643,-1.719895,1.632504
187,3200238867,0.724529,-0.568871,-0.259939,0.289612,1.016605,-1.998733,0.853807
188,3200272201,0.745544,-0.563521,-0.241268,0.261529,-2.502438,-3.091017,-0.788082
189,3200305535,0.752265,-0.549042,-0.254239,0.260794,-2.806570,-2.872943,-0.967835
190,3200338869,0.744208,-0.528638,-0.295127,0.282130,-0.333092,-2.156372,-0.469949
191,3200372203,0.724021,-0.508402,-0.344707,0.313845,1.699738,-1.279222,-0.326549
192,3200405537,0.695737,-0.492754,-0.389709,0.348239,1.909076,-0.092655,0.889973
193,3200438871,0.671108,-0.481514,-0.420960,0.374902,0.713199,1.314597,1.237694
194,3200472205,0.665830,-0.480165,-0.424072,0.382461,-2.524441,-0.325615,-0.030432
195,3200505539,0.672810,-0.489525,-0.409152,0.374550,-3.773576,-2.187485,0.259798
196,3200538873,0.682666,-0.501789,-0.390214,0.360428,-0.958988,-0.685570,1.022969
197,3200572207,0.696561,-0.516456,-0.360838,0.343326,0.827149,-0.401318,1.280343
198,3200605541,0.710832,-0.531689,-0.324610,0.326578,0.990185,-1.205876,1.438567
199,3200638875,0.719220,-0.546725,-0.290046,0.315734,0.644408,-2.555006,3.860193
200,3200672209,0.718867,-0.557876,-0.265407,0.318691,-0.900305,-2.037843,1.745443
201,3200705543,0.710973,-0.556030,-0.268814,0.336286,-1.196581,-1.359259,-1.766138
202,3200738877,0.698225,-0.541724,-0.298970,0.360049,-0.758180,-0.691969,-3.453338
203,3200772211,0.684770,-0.522479,-0.336742,0.380411,0.118056,1.234079,-3.804370
204,3200805545,0.676980,-0.509391,-0.361700,0.389092,0.741694,2.370807,-2.692769
205,3200838879,0.677859,-0.508537,-0.364083,0.386447,0.292629,2.655751,-1.159854
206,3200872213,0.682167,-0.514757,-0.353200,0.380689,-0.900255,1.563884,-2.290405
207,3200905547,0.679971,-0.524279,-0.346049,0.378181,0.765494,1.009513,-2.623517
208,3200938881,0.672940,-0.542829,-0.333563,0.375797,1.757202,1.174726,0.774596
209,3200972215,0.663533,-0.571432,-0.305247,0.374185,1.503677,1.956189,5.279388
210,3201005549,0.656414,-0.597392,-0.268114,0.374645,0.956620,1.894204,4.549242
211,3201038883,0.653946,-0.607414,-0.247042,0.377325,0.736794,0.503666,2.089575
212,3201072217,0.656890,-0.602040,-0.251800,0.377677,-0.151599,-0.637914,0.471507
213,3201105551,0.665333,-0.586242,-0.272459,0.373388,-0.414438,-0.416546,0.293111
214,3201138885,0.677317,-0.563367,-0.300385,0.365553,0.496320,0.391861,0.348693
215,3201172219,0.690433,-0.539369,-0.327191,0.354020,0.334726,0.168093,0.868561
216,3201205553,0.702121,-0.517449,-0.349742,0.341984,0.592242,0.528551,1.066525
217,3201238887,0.713955,-0.501620,-0.361080,0.329041,-0.257224,0.450149,0.097028
218,3201272221,0.727182,-0.492089,-0.360042,0.315318,-1.290346,-0.337639,-1.225335
219,3201305555,0.740030,-0.488954,-0.349675,0.301676,-2.032192,-1.681158,-1.988395
220,3201338889,0.747324,-0.491875,-0.338540,0.291474,-1.769824,-2.047520,-1.797083
221,3201372223,0.747307,-0.499798,-0.330597,0.287124,-1.056298,-1.577438,-1.053852
222,3201405557,0.743021,-0.511594,-0.321804,0.287461,-0.585983,-1.114804,0.070792
223,3201438891,0.737910,-0.525060,-0.308884,0.290505,-0.245124,-0.840431,0.562819
224,3201472225,0.732203,-0.538327,-0.293953,0.296098,0.000937,-0.816393,1.261686
225,3201505559,0.724844,-0.551003,-0.279605,0.304661,-0.467101,-0.745396,1.546505
226,3201538893,0.717234,-0.557810,-0.271902,0.317007,-0.652032,-0.487568,0.825099
227,3201572227,0.710284,-0.556099,-0.276676,0.331213,0.024976,-0.371494,0.064626
228,3201605561,0.705190,-0.548894,-0.288761,0.343570,0.598447,0.112626,-0.028412
229,3201638895,0.702596,-0.540031,-0.300855,0.352437,0.757123,0.410283,0.080206
230,3201672229,0.701167,-0.532462,-0.310158,0.358682,0.713860,0.546720,-0.028061
231,3201705563,0.699845,-0.527612,-0.315948,0.363347,0.644709,0.636861,-0.236991
232,3201738897,0.698307,-0.525736,-0.318154,0.367081,0.590995,0.695998,-0.415686
233,3201772231,0.696006,-0.527060,-0.317419,0.370175,0.473019,0.584024,-0.401189
234,3201805565,0.693143,-0.529663,-0.315172,0.373734,0.341301,0.549598,0.009382
235,3201838899,0.690289,-0.531087,-0.314279,0.377726,0.543334,0.696239,0.324208
236,3201872233,0.688443,-0.530994,-0.314354,0.381148,0.295764,0.708616,0.777119
237,3201905567,0.688262,-0.528744,-0.314984,0.384072,-0.135515,0.428785,1.024446
238,3201938901,0.688776,-0.523464,-0.318941,0.387105,-0.224227,0.004676,0.794301
239,3201972235,0.689396,-0.515800,-0.326932,0.389615,-0.214228,0.003859,0.377954
240,3202005569,0.690943,-0.507630,-0.335826,0.390040,0.029745,0.172547,-0.117316
241,3202038903,0.693635,-0.501371,-0.342879,0.387212,0.191815,0.241953,-0.718791
242,3202072237,0.697030,-0.497500,-0.347376,0.382066,-0.043212,0.025880,-1.183042
243,3202105571,0.698736,-0.495213,-0.352582,0.377119,0.354109,-0.045548,-1.357472
244,3202138905,0.697037,-0.497684,-0.357063,0.372768,0.683001,0.119411,-0.426638
245,3202172239,0.694119,-0.507440,-0.353752,0.368190,0.508755,0.505839,0.459064
246,3202205573,0.693185,-0.521816,-0.340902,0.361925,0.064445,0.380326,0.656711
247,3202238907,0.695067,-0.535768,-0.323693,0.353636,-0.020591,0.010616,0.621283
248,3202272241,0.698427,-0.545270,-0.309616,0.344992,-0.308049,-0.461202,0.624146
249,3202305575,0.700840,-0.548891,-0.304274,0.339059,-0.331128,-0.647714,0.682721
250,3202338909,0.701539,-0.548014,-0.306900,0.336656,-0.143158,-0.282790,0.584810
251,3202372243,0.701556,-0.544806,-0.312950,0.336256,-0.276073,0.025577,0.329296
252,3202405577,0.701305,-0.540937,-0.319410,0.336952,-0.349490,0.196734,0.042648
253,3202438911,0.701023,-0.537689,-0.324618,0.337760,-0.249771,0.217341,-0.116994
254,3202472245,0.700920,-0.535626,-0.327650,0.338322,-0.180064,0.154799,-0.075400
255,3202505579,0.700967,-0.534688,-0.328488,0.338896,-0.071829,0.000950,0.002649
256,3202538913,0.700807,-0.534520,-0.328126,0.339840,-0.085652,-0.108485,0.175526
257,3202572247,0.700191,-0.535005,-0.327361,0.341085,-0.015461,-0.122657,0.419279
258,3202605581,0.699648,-0.536566,-0.325207,0.341805,-0.048113,0.146433,0.328992
259,3202638915,0.699880,-0.537255,-0.323154,0.342195,-0.324937,0.292466,0.096452
260,3202672249,0.700540,-0.536063,-0.323069,0.342793,0.083772,0.224639,-0.118488
261,3202705583,0.700919,-0.535040,-0.323873,0.342858,0.330240,0.161894,-0.033067
262,3202738917,0.700629,-0.535685,-0.324074,0.342252,0.373312,0.255314,0.048054
263,3202772251,0.700177,-0.538136,-0.322665,0.340662,0.324789,0.348397,0.014402
264,3202805585,0.700172,-0.541237,-0.320388,0.337897,0.215010,0.328660,0.093032
265,3202838919,0.700559,-0.544409,-0.317888,0.334340,0.114305,0.376972,0.269878
266,3202872253,0.701412,-0.547499,-0.314942,0.330271,0.009420,0.385982,0.334090
267,3202905587,0.702734,-0.550220,-0.311634,0.326048,0.127676,0.348210,0.346569
268,3202938921,0.704454,-0.552506,-0.308133,0.321770,0.105471,0.269807,0.324218
269,3202972255,0.706507,-0.554383,-0.304546,0.317426,0.082589,0.185246,0.199134
270,3203005589,0.708593,-0.556275,-0.300914,0.312899,0.200401,0.212495,0.097342
271,3203038923,0.710870,-0.559187,-0.295612,0.307552,0.328655,0.019708,0.178497
272,3203072257,0.713478,-0.561793,-0.289903,0.302152,-0.058001,0.229332,0.184593
273,3203105591,0.715605,-0.563684,-0.285169,0.298076,-0.221349,0.146243,0.207055
274,3203138925,0.717190,-0.565821,-0.280280,0.294835,-0.027594,0.264604,0.176296
275,3203172259,0.718792,-0.569114,-0.273363,0.291070,-0.029785,0.103482,0.252787
276,3203205593,0.719518,-0.574574,-0.264372,0.286820,-0.101432,0.133038,-0.056119
277,3203238927,0.720340,-0.581962,-0.251637,0.281266,-0.150860,0.319082,0.003437
278,3203272261,0.722542,-0.590503,-0.233155,0.273640,-0.059452,0.290354,-0.049009
279,3203305595,0.726242,-0.600041,-0.208130,0.263069,0.337614,0.045611,0.030495
280,3203338929,0.730929,-0.611000,-0.175579,0.248183,0.817307,-0.033878,0.086752
281,3203372263,0.737423,-0.626324,-0.124644,0.219977,3.077261,-0.235475,-0.075300
282,3203405597,0.746679,-0.644771,-0.032187,0.160333,2.691967,-1.114753,0.252139
283,3203438931,0.748247,-0.652801,0.088077,0.078876,-2.118989,-1.073958,0.222855
284,3203472265,0.735097,-0.652280,0.183903,0.018502,-2.443109,0.840016,-0.021984
285,3203505599,0.721061,-0.652525,0.232894,-0.006580,-2.043910,1.345267,0.308478
286,3203538933,0.713240,-0.656586,0.245317,-0.001920,-1.372504,1.223875,0.512100
287,3203572267,0.713903,-0.661753,0.227336,0.027286,-2.357466,1.151681,0.710115
288,3203605601,0.720885,-0.666853,0.167954,0.086160,-3.016035,0.327510,0.532182
289,3203638935,0.726715,-0.662612,0.063079,0.169862,-0.633801,-1.469711,0.043034
290,3203672269,0.726676,-0.638172,-0.058673,0.247460,2.591087,-1.382580,-0.023104
291,3203705603,0.724111,-0.599732,-0.166435,0.297128,4.236532,-0.612791,0.624768
292,3203738937,0.726106,-0.561370,-0.242249,0.314562,4.109431,0.109980,1.040511
293,3203772271,0.735671,-0.530704,-0.284995,0.309710,2.560347,0.292755,0.718182
294,3203805605,0.747458,-0.508830,-0.306704,0.297206,0.798711,-0.249777,-0.222450
295,3203838939,0.755338,-0.494105,-0.321501,0.286290,-0.251318,-0.390943,-1.121680
296,3203872273,0.759001,-0.484907,-0.333881,0.278042,-1.105725,-0.303781,-0.244761
297,3203905607,0.764308,-0.471624,-0.344803,0.272976,-3.748748,0.297454,2.504982
298,3203938941,0.768370,-0.448057,-0.368078,0.270871,-2.606757,-0.662045,3.495250
299,3203972275,0.771568,-0.419539,-0.397844,0.265311,-1.889583,0.417001,4.910063
300,3204005609,0.780200,-0.385457,-0.423150,0.252301,-1.018509,1.825595,6.431526
301,3204038943,0.793862,-0.341226,-0.446991,0.231402,-1.042680,1.254432,6.170356
302,3204072277,0.809499,-0.286806,-0.470251,0.203268,-0.781401,0.257983,4.625774
303,3204105611,0.823368,-0.225980,-0.492745,0.167934,0.801154,-0.024475,2.726997
304,3204138945,0.842033,-0.162746,-0.499162,0.123826,1.785215,-0.605203,4.448863
305,3204172279,0.864968,-0.093838,-0.487726,0.071751,2.374188,-1.975556,1.731684
306,3204205613,0.883737,-0.026044,-0.467008,0.015312,2.350067,-1.897610,-1.278224
307,3204238947,0.892821,0.037113,-0.446516,-0.046019,1.257484,-1.852809,-1.950264
308,3204272281,0.897461,0.097096,-0.417457,-0.104246,1.677075,-1.362197,-3.111492
309,3204305615,0.900872,0.153778,-0.375632,-0.153893,0.988456,-1.069158,-4.999181
310,3204338949,0.900258,0.204621,-0.331582,-0.194215,-0.836634,0.431070,-5.408674
311,3204372283,0.896976,0.245932,-0.291600,-0.223432,-0.651108,0.570964,-4.690650
312,3204405617,0.891797,0.279199,-0.257396,-0.245956,-1.427636,0.047826,-3.934962
313,3204438951,0.884869,0.302977,-0.234852,-0.264683,-1.109653,0.181446,-3.484526
314,3204472285,0.877921,0.317079,-0.222862,-0.281157,0.201277,0.014012,-2.467286
315,3204505619,0.872494,0.325912,-0.213676,-0.294754,-1.217951,-0.147531,-2.269319
316,3204538953,0.868310,0.329968,-0.211446,-0.304057,-1.929417,1.009476,-1.265541
317,3204572287,0.861148,0.324061,-0.223605,-0.321573,0.209725,0.229890,0.672501
318,3204605621,0.850074,0.314750,-0.242591,-0.345627,0.250556,0.156147,0.564220
319,3204638955,0.839410,0.307299,-0.258287,-0.366397,-0.693672,0.558467,0.365379
320,3204672289,0.831028,0.302133,-0.271944,-0.379679,-3.185258,1.164513,-0.673762
321,3204705623,0.822682,0.293013,-0.293022,-0.389199,-0.621647,1.119216,0.531973
322,3204738957,0.813417,0.278650,-0.315406,-0.401529,0.403419,-0.288365,-0.137656
323,3204772291,0.807848,0.267408,-0.328237,-0.410044,-0.518886,-0.735676,0.218211
324,3204805625,0.803431,0.259166,-0.336800,-0.417010,0.158807,-0.836255,-0.193069
325,3204838959,0.798427,0.251569,-0.345051,-0.424462,0.214588,-0.834111,-0.461586
326,3204872293,0.794640,0.246712,-0.353108,-0.427780,-0.471400,0.410702,-1.339325
327,3204905627,0.790585,0.241669,-0.363923,-0.429107,0.298195,-0.813211,-0.883351
328,3204938961,0.785974,0.238725,-0.374615,-0.430023,0.423377,-0.549133,-0.605632
329,3204972295,0.782068,0.236696,-0.384193,-0.429816,0.133358,-0.250294,-0.529279
330,3205005629,0.778359,0.233959,-0.392472,-0.430567,1.778448,-0.609674,0.857133
331,3205038963,0.773924,0.232247,-0.396300,-0.435948,0.607876,0.353165,0.853129
332,3205072297,0.771673,0.229878,-0.398176,-0.439469,-1.151056,1.066660,-1.258575
333,3205105631,0.775828,0.226896,-0.398870,-0.433027,-0.833971,1.100693,-2.266589
334,3205138965,0.787941,0.223149,-0.396336,-0.415056,-0.875982,0.062423,-3.592585
335,3205172299,0.800578,0.210205,-0.400224,-0.393333,-1.240793,0.330628,-4.087217
336,3205205633,0.813738,0.185800,-0.412253,-0.365181,-1.007278,-0.416547,-3.668296
337,3205238967,0.829165,0.156804,-0.425014,-0.327507,-0.876184,-2.056771,-3.288755
338,3205272301,0.846089,0.126556,-0.434883,-0.281060,-0.671904,-1.964144,-2.736953
339,3205305635,0.862193,0.091151,-0.443781,-0.226658,-0.465542,-0.127179,-3.294671
340,3205338969,0.871669,0.042260,-0.459157,-0.166080,-2.133061,1.175341,-6.436141
341,3205372303,0.863682,-0.023460,-0.493752,-0.098555,-1.635779,-2.720240,-4.271412
342,3205405637,0.846972,-0.086327,-0.523980,-0.025133,-0.463220,-4.258345,0.895077
343,3205438971,0.834724,-0.137017,-0.531072,0.049242,2.635647,-3.339282,5.027575
344,3205472305,0.833861,-0.183571,-0.507714,0.114911,2.509431,-0.168110,3.363273
345,3205505639,0.835127,-0.232962,-0.469258,0.167600,0.875294,-0.528984,2.343581
346,3205538973,0.820524,-0.278933,-0.451812,0.211666,-1.388444,-1.408298,1.358060
347,3205572307,0.797554,-0.321553,-0.443667,0.252332,0.968869,0.594522,3.750485
348,3205605641,0.782653,-0.361906,-0.417435,0.286751,2.179180,1.470710,2.873088
349,3205638975,0.770547,-0.405280,-0.381191,0.310965,1.901297,0.554499,0.817237
350,3205672309,0.753238,-0.451800,-0.348601,0.327089,1.207006,0.128482,1.917727
351,3205705643,0.734325,-0.496882,-0.317528,0.336232,-0.280528,-0.076824,3.786682
352,3205738977,0.708992,-0.518400,-0.319829,0.355389,-3.443004,2.389803,6.847998
353,3205772311,0.687927,-0.514307,-0.346342,0.377216,0.920968,4.359543,4.428406
354,3205805645,0.686381,-0.506853,-0.357676,0.379540,1.233762,2.139285,2.027685
355,3205838979,0.695933,-0.503628,-0.353678,0.370065,0.261185,-0.158188,0.732202
356,3205872313,0.706388,-0.502154,-0.345803,0.359555,-0.415317,-0.616046,-0.469383
357,3205905647,0.713017,-0.499579,-0.343599,0.352091,-0.138284,-0.575617,-0.877851
358,3205938981,0.715236,-0.497278,-0.346843,0.347638,0.587862,-0.150485,-0.878767
359,3205972315,0.715588,-0.498254,-0.348705,0.343632,1.013985,0.173530,-0.792877
360,3206005649,0.716270,-0.502834,-0.345364,0.338880,0.567436,0.319075,-0.170631
361,3206038983,0.716121,-0.506082,-0.343543,0.336201,-0.954533,0.472827,0.443661
362,3206072317,0.715800,-0.506292,-0.343893,0.336209,-1.142117,0.552371,0.584927
363,3206105651,0.716807,-0.505457,-0.343100,0.336130,-0.591574,0.132878,0.152536
364,3206138985,0.717224,-0.505811,-0.342581,0.335238,-0.234748,-0.153168,-0.166660
365,3206172319,0.716948,-0.507653,-0.342032,0.333598,-0.001000,-0.039086,-0.012847
366,3206205653,0.717664,-0.510613,-0.338750,0.330880,0.344315,-0.062397,0.054176
367,3206238987,0.719115,-0.514273,-0.333492,0.327384,0.135897,-0.152960,0.115774
368,3206272321,0.720082,-0.517344,-0.329320,0.324632,-0.096639,-0.227495,0.175502
369,3206305655,0.720230,-0.519459,-0.327021,0.323248,-0.046936,-0.207926,0.242213
370,3206338989,0.719989,-0.521003,-0.325717,0.322617,-0.053337,-0.204936,0.181398
371,3206372323,0.719875,-0.522247,-0.324550,0.322034,-0.081924,-0.180720,0.109919
372,3206405657,0.720510,-0.523933,-0.321979,0.320453,0.234682,0.047746,0.326769
373,3206438991,0.722914,-0.526418,-0.316221,0.316677,-0.036760,0.133949,0.454124
374,3206472325,0.725675,-0.527801,-0.311395,0.312819,-0.182577,-0.020337,0.262345
375,3206505659,0.727396,-0.528053,-0.309239,0.310528,-0.301471,-0.150122,0.077507
376,3206538993,0.727562,-0.527800,-0.309663,0.310145,-0.239345,-0.172417,-0.090648
377,3206572327,0.726783,-0.527705,-0.310753,0.311042,-0.166701,-0.132779,-0.055229
378,3206605661,0.725354,-0.527577,-0.312509,0.312831,-0.025031,-0.089880,0.111891
379,3206638995,0.723687,-0.527375,-0.314633,0.314896,0.061625,-0.045917,0.143575
380,3206672329,0.722487,-0.527373,-0.315973,0.316310,0.043718,0.000420,0.151342
381,3206705663,0.721824,-0.527531,-0.316396,0.317135,-0.033348,-0.049289,0.241723
382,3206738997,0.721238,-0.527711,-0.316583,0.317982,-0.104784,-0.092289,0.277573
383,3206772331,0.720585,-0.527750,-0.316937,0.319044,-0.074439,-0.140463,0.321230
384,3206805665,0.720009,-0.527548,-0.317307,0.320307,-0.136993,-0.206386,0.265100
385,3206838999,0.719377,-0.527107,-0.318038,0.321725,0.009647,-0.322503,0.178374
386,3206872333,0.718666,-0.526782,-0.318774,0.323116,0.109435,-0.352289,0.261208
387,3206905667,0.718465,-0.526927,-0.318057,0.324031,-0.039031,-0.510976,0.110987
388,3206939001,0.718190,-0.527214,-0.317319,0.324898,-0.160029,-0.643181,0.022964
389,3206972335,0.717059,-0.527957,-0.317311,0.326193,-0.193925,-0.668730,0.098186
390,3207005669,0.715297,-0.528547,-0.318269,0.328168,-0.359671,-0.628092,0.153528
391,3207039003,0.712838,-0.528560,-0.320747,0.331072,-0.395363,-0.538423,0.069948
392,3207072337,0.709675,-0.528153,-0.324662,0.334681,-0.362093,-0.405208,0.044749
393,3207105671,0.705966,-0.527482,-0.329633,0.338701,-0.391913,-0.188653,0.073003
394,3207139005,0.702051,-0.526592,-0.335031,0.342900,-0.307612,0.049858,0.094121
395,3207172339,0.698389,-0.525693,-0.340088,0.346756,-0.184011,0.212396,0.098271
396,3207205673,0.695507,-0.524899,-0.344051,0.349829,-0.271907,0.260905,0.094388
397,3207239007,0.693366,-0.524110,-0.347058,0.352283,-0.389324,0.173496,0.088218
398,3207272341,0.691482,-0.523394,-0.349669,0.354462,-0.361762,0.095462,0.133329
399,3207305675,0.690013,-0.522687,-0.351549,0.356504,-0.256131,0.101551,0.113517
400,3207339009,0.689301,-0.521824,-0.352483,0.358219,-0.188173,-0.078857,0.139729
401,3207372343,0.688565,-0.520534,-0.353607,0.360396,-0.281564,-0.217708,0.089170
402,3207405677,0.686815,-0.518290,-0.356574,0.364027,-0.283744,-0.057041,0.055414
403,3207439011,0.684825,-0.515679,-0.359762,0.368322,-0.053781,0.129005,0.035433
404,3207472345,0.683343,-0.513471,-0.361945,0.372003,0.019740,0.222207,-0.023963
405,3207505679,0.682233,-0.511851,-0.363289,0.374951,0.024380,0.234406,-0.069854
406,3207539013,0.680922,-0.510755,-0.364542,0.377603,0.075887,0.244259,-0.035959
407,3207572347,0.679547,-0.510264,-0.365525,0.379787,0.176663,0.298935,0.020023
408,3207605681,0.678663,-0.510542,-0.365452,0.381065,0.213975,0.334130,0.010319
409,3207639015,0.678452,-0.511565,-0.364247,0.381220,0.243801,0.307395,0.030405
410,3207672349,0.678572,-0.512984,-0.362562,0.380706,0.234998,0.216731,0.137364
411,3207705683,0.678633,-0.514278,-0.361248,0.380099,0.234337,0.146079,0.216909
412,3207739017,0.678464,-0.515060,-0.360947,0.379629,0.178294,0.105330,0.235757
413,3207772351,0.678282,-0.515140,-0.361706,0.379124,0.132673,0.099136,0.270031
414,3207805685,0.678335,-0.514661,-0.363142,0.378305,0.052150,0.101483,0.257108
415,3207839019,0.678881,-0.514023,-0.364383,0.376996,-0.086796,0.137342,0.157349
416,3207872353,0.679934,-0.513599,-0.364819,0.375251,-0.183641,0.071760,0.218973
417,3207905687,0.681235,-0.513716,-0.364266,0.373264,-0.128560,-0.029570,0.314955
418,3207939021,0.682850,-0.514377,-0.362442,0.371173,-0.112124,-0.132897,0.386348
419,3207972355,0.684847,-0.514800,-0.359823,0.369452,-0.102245,-0.320710,0.296048
420,3208005689,0.686356,-0.514232,-0.358233,0.368985,-0.139709,-0.416279,0.159711
421,3208039023,0.686859,-0.512283,-0.358735,0.370272,-0.148508,-0.392669,0.121867
422,3208072357,0.686519,-0.509681,-0.360480,0.372788,-0.045546,-0.228574,0.056864
423,3208105691,0.685691,-0.507408,-0.362170,0.375765,0.024767,-0.077346,0.074990
424,3208139025,0.684780,-0.506025,-0.362801,0.378671,0.141977,-0.017565,0.129146
425,3208172359,0.684119,-0.505492,-0.362287,0.381061,0.239513,0.009993,0.095078
426,3208205693,0.683573,-0.505332,-0.361565,0.382935,0.291780,0.002007,0.120937
427,3208239027,0.682964,-0.505202,-0.361264,0.384473,0.348374,0.103792,0.093860
428,3208272361,0.682604,-0.505324,-0.360814,0.385373,0.467828,0.107431,0.102271
429,3208305695,0.682351,-0.505905,-0.360094,0.385734,0.364471,0.080786,0.053772
430,3208339029,0.681731,-0.506720,-0.359839,0.385997,0.331336,0.109555,0.015596
431,3208372363,0.680984,-0.507754,-0.359796,0.385997,0.314514,0.156216,0.036826
432,3208405697,0.680163,-0.508950,-0.359830,0.385838,0.228369,0.156511,0.089831
433,3208439031,0.679083,-0.510140,-0.360147,0.385874,0.164695,0.155497,0.093883
434,3208472365,0.677873,-0.511307,-0.360668,0.385970,0.122335,0.199355,0.115013
435,3208505699,0.676735,-0.512528,-0.361004,0.386034,0.063377,0.233168,0.209934
436,3208539033,0.675746,-0.513751,-0.361010,0.386135,0.012443,0.232690,0.264322
437,3208572367,0.674913,-0.514780,-0.360896,0.386328,0.008390,0.234433,0.289010
438,3208605701,0.674267,-0.515645,-0.360668,0.386514,0.037873,0.263348,0.288298
439,3208639035,0.673948,-0.516464,-0.360166,0.386446,0.081753,0.297265,0.289616
440,3208672369,0.674009,-0.517460,-0.359206,0.385899,0.083654,0.284528,0.246758
441,3208705703,0.674503,-0.518327,-0.358024,0.384971,0.088635,0.273044,0.249955
442,3208739037,0.675226,-0.519032,-0.356735,0.383947,0.141358,0.184305,0.406533
443,3208772371,0.675848,-0.519504,-0.355649,0.383222,0.028072,0.078859,0.356556
444,3208805705,0.676544,-0.519600,-0.354904,0.382555,0.107598,0.061277,0.171062
445,3208839039,0.677570,-0.519747,-0.354061,0.381318,0.068299,0.015576,0.046102
446,3208872373,0.678694,-0.520353,-0.352787,0.379670,0.066765,0.015465,0.059467
447,3208905707,0.679676,-0.521810,-0.350578,0.377955,0.063219,0.017030,0.033478
448,3208939041,0.680299,-0.523964,-0.347796,0.376422,0.039237,0.025885,0.056811
449,3208972375,0.680596,-0.526356,-0.345006,0.375112,0.043912,0.038920,0.091896
450,3209005709,0.680811,-0.528714,-0.342457,0.373740,0.113341,0.129801,0.114605
451,3209039043,0.681175,-0.530879,-0.340104,0.372154,0.140014,0.189275,0.043708
452,3209072377,0.681680,-0.532775,-0.338035,0.370400,0.139533,0.220721,0.054140
453,3209105711,0.682238,-0.534419,-0.336186,0.368683,0.115695,0.233367,0.078257
454,3209139045,0.682840,-0.535720,-0.334594,0.367125,0.143930,0.222890,0.061278
455,3209172379,0.683383,-0.536635,-0.333492,0.365779,0.128037,0.200830,0.130419
456,3209205713,0.684017,-0.537251,-0.332671,0.364434,0.095478,0.172868,0.186437
457,3209239047,0.684928,-0.537581,-0.331921,0.362918,0.125392,0.080737,0.126786
458,3209272381,0.685879,-0.537633,-0.331522,0.361406,0.066238,-0.005184,0.114049
459,3209305715,0.686576,-0.537535,-0.331512,0.360236,0.069319,-0.038400,0.075054
460,3209339049,0.686899,-0.537660,-0.331635,0.359319,0.103673,-0.038708,0.066856
461,3209372383,0.686861,-0.538081,-0.331783,0.358624,0.080407,-0.026112,0.040045
462,3209405717,0.686523,-0.538922,-0.331834,0.357962,0.136594,0.097507,0.082888
463,3209439051,0.686271,-0.540109,-0.331340,0.357113,0.042055,0.123314,0.071445
464,3209472385,0.686144,-0.541187,-0.330850,0.356177,0.045951,0.162371,0.088017
465,3209505719,0.686022,-0.542010,-0.330612,0.355381,0.096311,0.213365,0.225178
466,3209539053,0.685896,-0.542680,-0.330515,0.354691,0.103311,0.243152,0.274769
467,3209572387,0.685721,-0.543283,-0.330679,0.353952,0.144504,0.331217,0.203637
468,3209605721,0.685957,-0.543987,-0.330574,0.352509,0.184774,0.453252,0.092880
469,3209639055,0.687048,-0.545143,-0.329321,0.349761,0.203928,0.496104,-0.018068
470,3209672389,0.688809,-0.546844,-0.326879,0.345912,0.173085,0.435430,-0.086374
471,3209705723,0.690636,-0.548811,-0.324114,0.341728,0.179268,0.399960,0.018599
472,3209739057,0.692428,-0.550844,-0.321212,0.337546,0.199953,0.372706,0.124077
473,3209772391,0.694259,-0.552657,-0.318418,0.333446,0.184097,0.312502,0.258597
474,3209805725,0.696101,-0.553994,-0.316028,0.329638,0.160092,0.276598,0.412532
475,3209839059,0.698082,-0.554721,-0.314008,0.326140,0.202895,0.205999,0.516088
476,3209872393,0.700203,-0.555000,-0.312258,0.322779,0.203033,0.113290,0.581319
477,3209905727,0.702581,-0.555232,-0.310336,0.319044,0.184628,0.120483,0.252744
478,3209939061,0.705525,-0.555687,-0.307557,0.314413,0.093335,0.101762,-0.070038
479,3209972395,0.708418,-0.555980,-0.304890,0.309958,0.053886,-0.099454,-0.124278
480,3210005729,0.710233,-0.556088,-0.303500,0.306960,0.106992,-0.224412,0.052591
481,3210039063,0.710833,-0.556410,-0.302976,0.305501,0.184437,-0.318937,0.307340
482,3210072397,0.710792,-0.557464,-0.302041,0.304599,0.275619,-0.280058,0.313534
483,3210105731,0.710735,-0.559254,-0.300319,0.303151,0.133548,-0.234996,0.099921
484,3210139065,0.710725,-0.561307,-0.298681,0.300990,0.016672,-0.141448,-0.078856
485,3210172399,0.710738,-0.563432,-0.297159,0.298484,0.011812,-0.004339,-0.039758
486,3210205733,0.710714,-0.565600,-0.295305,0.296273,-0.081170,0.036590,0.085849
487,3210239067,0.710418,-0.567528,-0.293635,0.294953,-0.102526,0.105884,0.088063
488,3210272401,0.710150,-0.568987,-0.292369,0.294044,-0.044210,0.229845,0.101746
489,3210305735,0.710454,-0.569931,-0.290959,0.292880,-0.013301,0.241693,0.217896
490,3210339069,0.711301,-0.570326,-0.289426,0.291568,0.008489,0.147877,0.248130
491,3210372403,0.712449,-0.570172,-0.288220,0.290259,0.033405,0.067404,0.194258
492,3210405737,0.713737,-0.569661,-0.287365,0.288942,0.027860,0.001653,0.083580
493,3210439071,0.715006,-0.568883,-0.286881,0.287817,0.036670,-0.103043,0.025078
494,3210472405,0.715914,-0.567975,-0.287060,0.287175,0.024283,-0.154919,-0.033365
495,3210505739,0.716424,-0.567203,-0.287665,0.286822,0.042300,-0.144320,-0.039320
496,3210539073,0.716566,-0.567002,-0.288177,0.286351,0.061328,-0.122818,0.035316
497,3210572407,0.716652,-0.567525,-0.287880,0.285397,0.021980,-0.054087,0.088270
498,3210605741,0.717290,-0.568383,-0.286292,0.283679,-0.222678,-0.090241,0.035152
499,3210639075,0.718227,-0.568863,-0.284596,0.282048,-0.379196,-0.143533,-0.033410
500,3210672409,0.719149,-0.568694,-0.283514,0.281128,-0.515165,-0.153222,0.031416
501,3210705743,0.720048,-0.567843,-0.282902,0.281161,-0.530401,-0.211886,0.241510
502,3210739077,0.720693,-0.566392,-0.282921,0.282416,-0.573556,-0.219334,0.339109
503,3210772411,0.720860,-0.564461,-0.284242,0.284521,-0.303783,-0.238814,0.216251
504,3210805745,0.721090,-0.562707,-0.285768,0.285881,0.062924,-0.163032,0.119187
505,3210839079,0.722047,-0.561861,-0.285575,0.285321,0.098771,-0.212996,0.189567
506,3210872413,0.723204,-0.561769,-0.284223,0.283916,-0.152754,-0.279845,0.239017
507,3210905747,0.723975,-0.561956,-0.283049,0.282755,-0.338551,-0.306709,0.180765
508,3210939081,0.724528,-0.562190,-0.282183,0.281736,-0.442503,-0.319143,0.230369
509,3210972415,0.724808,-0.562394,-0.281816,0.280973,-0.250580,-0.390724,0.226248
510,3211005749,0.724825,-0.562807,-0.281682,0.280236,-0.002508,-0.405449,0.194887
511,3211039083,0.724992,-0.563803,-0.280667,0.278817,0.015264,-0.431981,0.041533
512,3211072417,0.725122,-0.565910,-0.278254,0.276622,-0.133530,-0.463592,0.151478
513,3211105751,0.724951,-0.568927,-0.274448,0.274677,-0.364260,-0.396270,0.265662
514,3211139085,0.724799,-0.571560,-0.270389,0.273635,-0.510123,-0.402135,0.229900
515,3211172419,0.724588,-0.572095,-0.269032,0.274412,-0.520741,-0.528564,0.253707
516,3211205753,0.723839,-0.570071,-0.271949,0.277705,-0.355374,-0.597761,0.241591
517,3211239087,0.722564,-0.566577,-0.277326,0.282812,-0.204785,-0.510087,0.150176
518,3211272421,0.720753,-0.562749,-0.283664,0.288727,-0.208472,-0.502505,0.051149
519,3211305755,0.718126,-0.559067,-0.290656,0.295396,-0.086241,-0.262022,0.055609
520,3211339089,0.715383,-0.555616,-0.297503,0.301681,0.001949,0.024369,0.087106
521,3211372423,0.713483,-0.552210,-0.302897,0.307020,-0.111431,0.035394,0.253820
522,3211405757,0.711810,-0.549024,-0.307389,0.312109,-0.135347,-0.166962,0.375417
523,3211439091,0.709846,-0.546318,-0.311243,0.317463,-0.079007,-0.281376,0.306578
524,3211472425,0.707462,-0.544202,-0.314657,0.323008,0.042898,-0.329935,0.130872
525,3211505759,0.704905,-0.542777,-0.317442,0.328228,0.018864,-0.246565,-0.024314
526,3211539093,0.702140,-0.541624,-0.320058,0.333477,-0.169252,-0.146871,0.056565
527,3211572427,0.698948,-0.540040,-0.323502,0.339376,-0.225725,0.053759,0.180104
528,3211605761,0.695475,-0.537909,-0.327789,0.345722,-0.176192,0.318561,0.312770
529,3211639095,0.692136,-0.535694,-0.332010,0.351781,-0.033698,0.581759,0.289160
530,3211672429,0.689794,-0.533968,-0.334689,0.356435,0.088432,0.656779,0.217577
531,3211705763,0.688673,-0.532959,-0.335574,0.359269,0.105212,0.546295,0.145259
532,3211739097,0.688244,-0.532329,-0.335753,0.360854,0.098494,0.435310,0.107163
533,3211772431,0.688234,-0.532062,-0.335392,0.361603,0.078271,0.277560,0.047556
534,3211805765,0.688490,-0.532409,-0.334279,0.361635,0.054303,0.108182,-0.031717
535,3211839099,0.688719,-0.533449,-0.332562,0.361250,-0.088877,-0.012011,-0.055360
536,3211872433,0.688533,-0.534887,-0.330934,0.360972,-0.118463,-0.095881,-0.003463
537,3211905767,0.687759,-0.536340,-0.330007,0.361141,-0.164195,-0.091726,0.142164
538,3211939101,0.686791,-0.537416,-0.329673,0.361689,-0.072041,-0.074513,0.295354
539,3211972435,0.685962,-0.537996,-0.329779,0.362302,-0.117213,-0.070023,0.203042
540,3212005769,0.685488,-0.537875,-0.330510,0.362713,-0.019429,-0.019419,0.097694
541,3212039103,0.685672,-0.537111,-0.331235,0.362836,-0.071788,-0.115465,-0.068713
542,3212072437,0.685769,-0.535473,-0.332885,0.363562,-0.119479,-0.279440,-0.125641
543,3212105771,0.684800,-0.533070,-0.336328,0.365745,-0.195397,-0.358251,-0.008842
544,3212139105,0.682774,-0.530438,-0.340965,0.369051,-0.305088,-0.162948,0.181793
545,3212172439,0.680660,-0.528019,-0.345200,0.372473,-0.354531,0.058651,0.258534
546,3212205773,0.679147,-0.525952,-0.348458,0.375115,-0.307779,0.177334,0.149988
547,3212239107,0.678448,-0.524390,-0.350672,0.376502,-0.232914,0.169815,0.103945
548,3212272441,0.678168,-0.523458,-0.352059,0.377008,-0.097605,0.106361,0.114014
549,3212305775,0.677951,-0.523138,-0.352951,0.377009,-0.077882,0.094200,0.072495
550,3212339109,0.677807,-0.523247,-0.353455,0.376644,-0.147158,0.033707,0.197517
551,3212372443,0.677862,-0.523943,-0.353163,0.375850,-0.069127,-0.104984,0.264311
552,3212405777,0.678129,-0.524895,-0.352339,0.374812,-0.189921,-0.165002,0.261222
553,3212439111,0.678836,-0.525537,-0.351027,0.373862,-0.374156,-0.389236,0.205563
554,3212472445,0.679321,-0.525603,-0.350227,0.373639,-0.405347,-0.657761,0.125203
555,3212505779,0.679141,-0.524898,-0.350711,0.374502,-0.279502,-0.664990,0.189643
556,3212539113,0.678453,-0.523643,-0.352016,0.376278,-0.256711,-0.719827,0.114240
557,3212572447,0.676622,-0.521652,-0.355005,0.379518,-0.316806,-0.611521,0.103429
558,3212605781,0.673794,-0.518998,-0.359523,0.383910,-0.159725,-0.269143,0.188044
559,3212639115,0.671194,-0.516107,-0.363543,0.388549,-0.156778,-0.065353,0.127695
560,3212672449,0.668763,-0.513029,-0.367227,0.393322,-0.086583,-0.043357,0.035371
561,3212705783,0.666373,-0.509983,-0.370657,0.398094,0.019220,-0.058232,0.021094
562,3212739117,0.664127,-0.507249,-0.373500,0.402658,0.143507,-0.048468,-0.008559
563,3212772451,0.661905,-0.504782,-0.376113,0.406960,0.197280,0.041693,0.068052
564,3212805785,0.659506,-0.502536,-0.378901,0.411028,0.156380,0.064336,0.147987
565,3212839119,0.657213,-0.500573,-0.381556,0.414625,0.121167,0.137164,0.117542
566,3212872453,0.655375,-0.499032,-0.383635,0.417463,0.087296,0.126874,0.149933
567,3212905787,0.653651,-0.497697,-0.385568,0.419972,0.030819,0.168562,0.238173
568,3212939121,0.652090,-0.496570,-0.387138,0.422282,-0.013228,0.371971,0.436544
569,3212972455,0.651315,-0.495985,-0.386857,0.424418,-0.213536,0.342299,0.303126
570,3213005789,0.650984,-0.495017,-0.385895,0.426924,-0.171356,0.140222,-0.124563
571,3213039123,0.650190,-0.492722,-0.386452,0.430272,0.040928,0.042993,-0.236807
572,3213072457,0.648765,-0.489427,-0.388546,0.434278,0.155579,0.211531,-0.127345
573,3213105791,0.647550,-0.486160,-0.390450,0.438038,0.335631,0.283931,-0.047082
574,3213139125,0.646914,-0.483948,-0.391095,0.440842,0.440557,0.219044,0.094126
575,3213172459,0.646696,-0.482679,-0.390808,0.442804,0.535930,0.096021,0.231987
576,3213205793,0.646478,-0.481514,-0.390814,0.444384,0.473795,-0.051736,0.218000
577,3213239127,0.646007,-0.479741,-0.392092,0.445856,0.446823,-0.072275,0.208616
578,3213272461,0.645333,-0.477651,-0.394152,0.447258,0.298784,-0.002315,0.245811
579,3213305795,0.644783,-0.475921,-0.395762,0.448472,0.021047,0.026856,0.311642
580,3213339129,0.644476,-0.474482,-0.396436,0.449841,-0.243920,-0.091785,0.380730
581,3213372463,0.644086,-0.471954,-0.397538,0.452080,-0.346851,-0.181438,0.253988
582,3213405797,0.643197,-0.467630,-0.400235,0.455447,-0.337268,-0.144231,0.083560
583,3213439131,0.641639,-0.462201,-0.404049,0.459799,-0.248940,-0.055144,0.038100
584,3213472465,0.639562,-0.456871,-0.407788,0.464693,-0.022088,0.093535,-0.059220
585,3213505799,0.637257,-0.452566,-0.410779,0.469414,0.123660,0.176551,-0.037600
586,3213539133,0.635320,-0.449583,-0.412567,0.473321,0.261535,0.241499,0.040975
587,3213572467,0.633782,-0.448676,-0.412949,0.475903,0.528468,0.558289,0.187534
588,3213605801,0.632410,-0.451974,-0.410024,0.477134,0.260904,0.726553,0.132306
589,3213639135,0.631251,-0.458507,-0.404323,0.477301,0.249598,0.719191,-0.026678
590,3213672469,0.630483,-0.465999,-0.398166,0.476235,0.214565,0.550544,0.078543
591,3213705803,0.630705,-0.472554,-0.392894,0.473856,0.089684,0.430467,0.221691
592,3213739137,0.632411,-0.477207,-0.388785,0.470294,0.022060,0.348060,0.299448
593,3213772471,0.635048,-0.479521,-0.386433,0.466309,0.014881,0.279085,0.307080
594,3213805805,0.638008,-0.479897,-0.385556,0.462594,-0.046051,0.296168,0.282262
595,3213839139,0.641242,-0.479333,-0.385061,0.459105,0.012555,0.273845,0.203580
596,3213872473,0.644635,-0.478648,-0.384218,0.455762,0.026339,0.195375,0.182385
597,3213905807,0.647947,-0.478212,-0.382962,0.452570,0.134660,0.144165,0.147197
598,3213939141,0.651075,-0.478299,-0.381108,0.449543,0.285943,0.063831,0.106275
599,3213972475,0.653793,-0.478986,-0.379080,0.446572,0.439998,0.028669,0.004759
600,3214005809,0.656057,-0.480455,-0.377126,0.443316,0.504266,0.080486,0.049626
601,3214039143,0.658158,-0.482880,-0.374674,0.439631,0.501379,0.055472,0.178698
602,3214072477,0.660212,-0.485504,-0.372061,0.435864,0.422375,-0.026250,0.083290
603,3214105811,0.661596,-0.487160,-0.371100,0.432725,0.338626,-0.097340,-0.059718
604,3214139145,0.661861,-0.488082,-0.372071,0.430441,0.269348,0.088939,-0.087071
605,3214172479,0.661631,-0.489756,-0.372965,0.428115,0.160514,0.309046,-0.051454
606,3214205813,0.661409,-0.493050,-0.372313,0.425234,-0.023937,0.384140,0.069488
607,3214239147,0.661466,-0.497386,-0.370313,0.421829,-0.189414,0.372695,0.209394
608,3214272481,0.661920,-0.501778,-0.367678,0.418204,-0.284238,0.398754,0.419670
609,3214305815,0.663116,-0.505364,-0.364707,0.414578,-0.322729,0.327421,0.500706
610,3214339149,0.664787,-0.507452,-0.362344,0.411411,-0.116035,0.293359,0.291381
611,3214372483,0.666620,-0.508647,-0.360670,0.408429,0.022100,0.381948,0.101589
612,3214405817,0.668614,-0.510116,-0.358734,0.405027,0.169091,0.470049,-0.008518
613,3214439151,0.671095,-0.512647,-0.355317,0.400719,0.189096,0.443945,0.060549
614,3214472485,0.673981,-0.515482,-0.351233,0.395808,0.157598,0.238928,0.132192
615,3214505819,0.676779,-0.517770,-0.347974,0.390895,0.116112,0.203417,0.093412
616,3214539153,0.679594,-0.519720,-0.345397,0.385676,0.015825,0.205545,0.170553
617,3214572487,0.682804,-0.521658,-0.342418,0.380003,0.053714,0.143771,0.168564
618,3214605821,0.686169,-0.523730,-0.339199,0.373930,-0.013922,0.080156,0.185388
619,3214639155,0.689787,-0.526236,-0.335068,0.367424,-0.115212,0.110533,0.334285
620,3214672489,0.693849,-0.528912,-0.329678,0.360748,-0.090493,-0.001196,0.336756
621,3214705823,0.698073,-0.531143,-0.323921,0.354482,-0.120457,-0.095937,0.306939
622,3214739157,0.702365,-0.532129,-0.319062,0.348888,-0.046767,-0.281728,0.042906
623,3214772491,0.706055,-0.532062,-0.316385,0.343944,0.090198,-0.419675,0.109363
624,3214805825,0.709356,-0.531928,-0.314393,0.339153,0.181126,-0.409275,0.196177
625,3214839159,0.712464,-0.532250,-0.311905,0.334398,0.164126,-0.521187,0.095653
626,3214872493,0.715021,-0.532949,-0.309338,0.330184,0.053306,-0.542759,-0.061795
627,3214905827,0.716828,-0.533630,-0.307433,0.326929,-0.019958,-0.602755,-0.072964
628,3214939161,0.717571,-0.534341,-0.306479,0.325028,-0.178228,-0.569897,-0.051860
629,3214972495,0.717374,-0.534969,-0.306397,0.324507,-0.239340,-0.458701,0.004909
630,3215005829,0.716472,-0.535460,-0.306986,0.325132,-0.301122,-0.388630,0.161854
631,3215039163,0.715178,-0.535655,-0.308060,0.326640,-0.242206,-0.248546,0.318433
632,3215072497,0.714002,-0.535621,-0.308849,0.328516,-0.238537,-0.144257,0.283376
633,3215105831,0.713062,-0.535335,-0.309549,0.330362,-0.129571,-0.095722,0.151227
634,3215139165,0.712221,-0.534985,-0.310176,0.332150,-0.081362,0.026387,0.117060
635,3215172499,0.711584,-0.534739,-0.310401,0.333699,-0.009885,0.084590,0.044416
636,3215205833,0.711181,-0.534516,-0.310358,0.334952,0.020326,0.083428,0.131061
637,3215239167,0.710921,-0.533871,-0.310638,0.336270,0.040710,0.042207,0.179794
638,3215272501,0.710822,-0.532674,-0.311585,0.337500,0.083898,-0.019930,0.264168
639,3215305835,0.711023,-0.531312,-0.312596,0.338287,0.028542,-0.031337,0.176515
640,3215339169,0.711453,-0.530268,-0.313258,0.338409,-0.012017,-0.110943,0.076775
641,3215372503,0.711774,-0.529754,-0.313616,0.338208,-0.080890,-0.150485,0.021636
642,3215405837,0.711750,-0.529642,-0.314004,0.338074,-0.096622,-0.214547,0.015117
643,3215439171,0.711257,-0.529876,-0.314543,0.338243,-0.055056,-0.196128,0.068028
644,3215472505,0.710366,-0.530529,-0.314997,0.338669,-0.115539,-0.109898,0.064871
645,3215505839,0.709295,-0.531235,-0.315557,0.339284,-0.147144,-0.078987,0.116726
646,3215539173,0.708171,-0.531578,-0.316547,0.340173,-0.131530,-0.052493,0.207911
647,3215572507,0.707143,-0.531682,-0.317596,0.341169,-0.161092,0.032164,0.200918
648,3215605841,0.706111,-0.531541,-0.318909,0.342299,-0.060926,-0.006692,0.253741
649,3215639175,0.705264,-0.531637,-0.319653,0.343201,-0.077069,0.123632,0.186428
650,3215672509,0.704791,-0.532127,-0.319515,0.343542,-0.161106,0.131781,0.130535
651,3215705843,0.704626,-0.532412,-0.319206,0.343726,-0.198083,0.053660,0.136034
652,3215739177,0.704660,-0.532083,-0.319356,0.344027,-0.157320,0.045788,0.176415
653,3215772511,0.704732,-0.531339,-0.319801,0.344616,-0.126606,0.033426,0.170618
654,3215805845,0.704845,-0.530547,-0.320190,0.345243,-0.097020,-0.025380,0.160711
655,3215839179,0.705036,-0.529746,-0.320508,0.345786,-0.009865,-0.105885,0.157096
656,3215872513,0.705050,-0.528957,-0.321091,0.346424,0.018065,-0.112281,0.130902
657,3215905847,0.704970,-0.528538,-0.321462,0.346881,-0.003370,-0.064761,0.074293
658,3215939181,0.704814,-0.528343,-0.321564,0.347402,-0.101583,-0.053733,0.067196
659,3215972515,0.704460,-0.527864,-0.322027,0.348418,-0.067616,-0.034948,0.133854
660,3216005849,0.704066,-0.527067,-0.322843,0.349664,-0.025872,0.027442,0.168338
661,3216039183,0.703875,-0.526359,-0.323384,0.350614,0.005953,0.088974,0.225845
662,3216072517,0.704044,-0.525893,-0.323294,0.351056,0.078367,0.069009,0.193074
663,3216105851,0.704435,-0.525606,-0.322741,0.351209,0.003871,0.072996,0.087440
664,3216139185,0.704799,-0.525246,-0.322425,0.351309,0.056337,0.019017,0.060614
665,3216172519,0.705110,-0.524788,-0.322363,0.351425,0.086523,0.003963,0.187015
666,3216205853,0.705555,-0.524448,-0.322047,0.351331,0.099777,-0.043395,0.135823
667,3216239187,0.706012,-0.524333,-0.321577,0.351014,0.016488,-0.095582,0.170768
668,3216272521,0.706405,-0.524380,-0.321024,0.350658,0.062519,-0.102593,0.186239
669,3216305855,0.706799,-0.524638,-0.320165,0.350265,-0.064419,-0.111161,0.094590
670,3216339189,0.706931,-0.524971,-0.319578,0.350035,-0.022471,-0.099984,0.026315
671,3216372523,0.706729,-0.525472,-0.319117,0.350111,-0.000877,-0.041111,0.051355
672,3216405857,0.706344,-0.526229,-0.318559,0.350262,0.043908,0.032497,0.131763
673,3216439191,0.706113,-0.527418,-0.317442,0.349952,0.107259,0.101473,0.091363
674,3216472525,0.706128,-0.528361,-0.316382,0.349460,-0.032750,0.059685,0.237202
675,3216505859,0.706212,-0.528520,-0.316139,0.349266,0.025393,0.114872,0.246517
676,3216539193,0.706664,-0.528326,-0.315896,0.348866,0.072110,0.130927,0.161337
677,3216572527,0.707374,-0.527824,-0.315727,0.348340,-0.054927,-0.050647,0.148157
678,3216605861,0.707879,-0.527125,-0.316052,0.348078,0.040847,-0.046184,0.118651
679,3216639195,0.708431,-0.526778,-0.315917,0.347603,-0.038140,-0.062681,0.074815
680,3216672529,0.708753,-0.526747,-0.315652,0.347234,-0.011505,-0.130277,0.060703
681,3216705863,0.708777,-0.526829,-0.315596,0.347111,0.033045,-0.130541,0.165254
682,3216739197,0.708709,-0.527085,-0.315378,0.347059,-0.046357,-0.035263,0.189963
683,3216772531,0.708713,-0.527401,-0.314952,0.346959,-0.030616,-0.022484,0.090844
684,3216805865,0.708674,-0.527421,-0.314922,0.347036,-0.038248,0.047070,0.068131
685,3216839199,0.708502,-0.527113,-0.315464,0.347360,0.012182,0.079479,0.170774
686,3216872533,0.708483,-0.526890,-0.315717,0.347508,0.082179,0.130962,0.236697
687,3216905867,0.708865,-0.526733,-0.315459,0.347202,-0.018699,0.063576,0.098491
688,3216939201,0.709320,-0.526183,-0.315845,0.346756,0.088040,-0.043576,0.137487
689,3216972535,0.709688,-0.525734,-0.316280,0.346287,0.041755,0.019432,0.115556
690,3217005869,0.710026,-0.525971,-0.315854,0.345622,-0.038314,0.013792,0.025931
691,3217039203,0.710207,-0.526527,-0.315092,0.345099,-0.064751,-0.018523,0.055551
692,3217072537,0.710229,-0.526452,-0.315120,0.345143,-0.071270,-0.124526,0.250662
693,3217105871,0.710200,-0.525468,-0.316252,0.345666,0.074454,-0.148625,0.233833
694,3217139205,0.710045,-0.524391,-0.317777,0.346219,0.094751,-0.147030,0.103919
695,3217172539,0.709593,-0.523860,-0.319162,0.346676,0.200677,-0.186708,0.020920
696,3217205873,0.708468,-0.524604,-0.320125,0.346964,0.218723,-0.051678,-0.062294
697,3217239207,0.706961,-0.527027,-0.319776,0.346688,-0.047363,0.234177,-0.257629
698,3217272541,0.705295,-0.529834,-0.319128,0.346400,-0.052141,0.203123,0.098705
699,3217305875,0.703918,-0.531080,-0.319579,0.346877,-0.127922,0.110047,0.373383
700,3217339209,0.702923,-0.530068,-0.322171,0.348044,0.024711,0.110585,0.303179
701,3217372543,0.702167,-0.528337,-0.325500,0.349101,-0.020137,0.158455,0.356663
702,3217405877,0.701940,-0.527275,-0.327271,0.349509,0.111988,0.159078,0.227803
703,3217439211,0.702086,-0.527036,-0.327380,0.349471,0.040645,-0.021848,0.246097
704,3217472545,0.701783,-0.527216,-0.327415,0.349776,0.005361,-0.051075,0.246673
705,3217505879,0.701428,-0.528035,-0.326774,0.349854,-0.034474,0.024148,0.193666
706,3217539213,0.701298,-0.529586,-0.325220,0.349217,0.020002,0.094184,-0.002378
707,3217572547,0.701117,-0.531893,-0.323033,0.348101,-0.056254,0.238569,-0.046847
708,3217605881,0.700903,-0.534780,-0.320194,0.346729,0.109656,0.337903,-0.028078
709,3217639215,0.700736,-0.538127,-0.316732,0.345064,0.165999,0.379755,0.215114
710,3217672549,0.700817,-0.541431,-0.312929,0.343195,0.160070,0.343539,0.560765
711,3217705883,0.701709,-0.544041,-0.309050,0.340753,0.158306,0.264147,0.414083
712,3217739217,0.703405,-0.545618,-0.306033,0.337442,0.091951,0.176049,0.079453
713,3217772551,0.705236,-0.546547,-0.304087,0.333858,0.105301,0.132391,0.100416
714,3217805885,0.706953,-0.547704,-0.301869,0.330324,0.217103,0.081322,0.099426
715,3217839219,0.708440,-0.549365,-0.299040,0.326936,0.117148,0.028534,0.027458
716,3217872553,0.709359,-0.551374,-0.296470,0.323888,0.157878,-0.082934,-0.098978
717,3217905887,0.710329,-0.553689,-0.293284,0.320697,0.200265,-0.058540,0.151192
718,3217939221,0.711441,-0.555692,-0.290058,0.317686,-0.045293,-0.241528,0.437199
719,3217972555,0.712049,-0.556602,-0.288493,0.316154,-0.122710,-0.224807,0.476685
720,3218005889,0.712490,-0.556294,-0.288515,0.315681,-0.153217,-0.225150,0.179127
721,3218039223,0.712910,-0.555153,-0.289662,0.315692,-0.117227,-0.180219,-0.113557
722,3218072557,0.713155,-0.554203,-0.290861,0.315705,-0.008148,-0.074145,-0.240162
723,3218105891,0.713162,-0.554132,-0.291084,0.315610,0.037196,-0.044450,-0.303304
724,3218139225,0.712527,-0.555193,-0.290419,0.315792,0.113316,0.009234,-0.210078
725,3218172559,0.711457,-0.556959,-0.289071,0.316330,0.200270,0.125607,-0.143037
726,3218205893,0.710273,-0.558832,-0.287560,0.317064,0.246103,0.202044,-0.019987
727,3218239227,0.709217,-0.560264,-0.286465,0.317890,0.270918,0.229303,0.137033
728,3218272561,0.708483,-0.560890,-0.286307,0.318564,0.290356,0.311906,0.270772
729,3218305895,0.708538,-0.560376,-0.286887,0.318824,0.048203,0.333729,0.389957
730,3218339229,0.709571,-0.558238,-0.288412,0.318902,-0.279220,0.425621,0.589433
731,3218372563,0.713072,-0.554292,-0.288907,0.317527,-0.789295,0.405528,1.122375
732,3218405897,0.719111,-0.546592,-0.291717,0.314672,-0.787838,0.326895,1.876213
733,3218439231,0.729113,-0.531032,-0.301718,0.308813,-0.966127,1.314309,3.661018
734,3218472565,0.747540,-0.502970,-0.317747,0.295369,-0.611754,1.446340,6.123476
735,3218505899,0.772345,-0.461135,-0.340285,0.273941,-0.130560,0.045652,6.864286
736,3218539233,0.798182,-0.410009,-0.364766,0.248485,1.066698,-0.624891,5.730608
737,3218572567,0.823060,-0.353809,-0.386433,0.219231,1.024726,-0.349467,3.954389
738,3218605901,0.845193,-0.292389,-0.407206,0.185315,0.975400,-0.466579,2.841020
739,3218639235,0.862562,-0.227336,-0.428488,0.143889,1.260018,-0.986440,1.613851
740,3218672569,0.876200,-0.161817,-0.443908,0.095047,1.498445,-0.921814,0.011720
741,3218705903,0.884579,-0.098275,-0.454071,0.041010,0.837128,-0.584019,-2.098262
742,3218739237,0.885770,-0.039959,-0.462144,-0.015448,0.721306,-0.501445,-3.066787
743,3218772571,0.882273,0.012275,-0.465071,-0.071785,0.349046,-0.463167,-3.477915
744,3218805905,0.874436,0.057603,-0.465075,-0.125498,0.013028,-0.801944,-3.097486
745,3218839239,0.864785,0.097464,-0.460826,-0.174034,-1.460104,-0.663117,-3.324583
746,3218872573,0.853850,0.133444,-0.454274,-0.216261,-1.478321,-2.010648,-1.241630
747,3218905907,0.845960,0.169795,-0.438682,-0.251156,-2.026394,-0.194739,-1.608330
748,3218939241,0.837437,0.198698,-0.424806,-0.280640,-1.238237,0.445292,-1.613677
749,3218972575,0.829664,0.219245,-0.412307,-0.305929,-0.370555,0.542647,-1.635667
750,3219005909,0.824534,0.233913,-0.399402,-0.325435,-0.629980,0.081470,-2.564565
751,3219039243,0.821001,0.243432,-0.388966,-0.339713,-0.135262,-0.141579,-2.444091
752,3219072577,0.818994,0.250423,-0.380898,-0.348504,-0.469068,0.254849,-2.252992
753,3219105911,0.817043,0.253997,-0.378108,-0.353498,0.024531,-0.369306,-2.051224
754,3219139245,0.815740,0.255368,-0.377568,-0.356087,0.476509,-0.197013,-1.246837
755,3219172579,0.815214,0.255486,-0.378181,-0.356558,-0.491003,-0.482504,-0.817910
756,3219205913,0.815657,0.257711,-0.377456,-0.354705,0.087094,-1.417077,0.009463
757,3219239247,0.819043,0.265206,-0.369477,-0.349746,0.403546,-0.621668,0.418072
758,3219272581,0.823951,0.273383,-0.358572,-0.343209,-0.566564,0.135276,-0.180412
759,3219305915,0.828503,0.273713,-0.352490,-0.338255,-0.697097,1.860872,-0.777695
760,3219339249,0.832167,0.267336,-0.352871,-0.333933,-1.225281,0.673815,-0.674708
761,3219372583,0.834941,0.259679,-0.357073,-0.328542,-1.203585,0.135767,-0.616590
762,3219405917,0.837093,0.251337,-0.364291,-0.321554,0.312920,-1.527362,0.039370
763,3219439251,0.839576,0.247435,-0.366691,-0.315319,1.053125,-2.097874,1.172004
764,3219472585,0.837615,0.246737,-0.372178,-0.314654,-0.482171,-0.055935,1.313465
765,3219505919,0.831132,0.243811,-0.384199,-0.319636,0.160071,-1.129850,1.244059
766,3219539253,0.826216,0.245900,-0.388482,-0.325550,0.828959,-0.963374,1.129086
767,3219572587,0.822790,0.250979,-0.386456,-0.332684,0.045262,-0.718409,0.480545
768,3219605921,0.819622,0.255593,-0.383818,-0.339965,-0.827247,-0.037395,-0.013373
769,3219639255,0.817373,0.259182,-0.381800,-0.344900,-0.783398,-0.398501,-0.553807
770,3219672589,0.817364,0.264221,-0.377583,-0.345738,-0.612251,-0.494905,-0.801821
771,3219705923,0.820218,0.269089,-0.371280,-0.342032,-0.290831,0.045156,-1.217891
772,3219739257,0.827462,0.272093,-0.362205,-0.331783,0.036946,0.732167,-1.458985
773,3219772591,0.835858,0.271505,-0.356311,-0.317285,-1.962912,1.742931,-0.988554
774,3219805925,0.838840,0.265127,-0.364961,-0.304726,-1.835538,-0.178181,-0.035055
775,3219839259,0.839437,0.260499,-0.376450,-0.292869,1.309822,-1.461618,1.297695
776,3219872593,0.837757,0.259386,-0.386621,-0.285319,-0.258668,-0.634100,0.511632
777,3219905927,0.828655,0.252037,-0.408636,-0.287795,0.777532,0.247111,0.782219
778,3219939261,0.814934,0.239410,-0.435741,-0.297821,0.383176,-0.768908,0.734756
779,3219972595,0.802737,0.232303,-0.455319,-0.307138,0.039016,-1.826942,0.760584
780,3220005929,0.794981,0.232803,-0.464824,-0.312646,-0.077674,-0.038893,0.210913
781,3220039263,0.786657,0.231402,-0.475126,-0.319186,-0.276686,-0.061119,-0.504075
782,3220072597,0.776576,0.227371,-0.487719,-0.327664,-0.008180,-0.043082,-0.316853
783,3220105931,0.768811,0.225207,-0.496787,-0.333788,0.161970,-1.002979,0.240535
784,3220139265,0.760809,0.224306,-0.504791,-0.340651,-0.510105,0.548500,-0.309679
785,3220172599,0.752796,0.221467,-0.514471,-0.345790,-0.087105,-0.453590,0.175942
786,3220205933,0.749654,0.222800,-0.517533,-0.347187,-0.264003,-0.457455,0.184875
787,3220239267,0.747362,0.223388,-0.519650,-0.348586,-0.194661,0.229056,-0.234846
788,3220272601,0.746557,0.223556,-0.520205,-0.349377,-0.051110,-0.823705,0.259939
789,3220305935,0.748346,0.226824,-0.516733,-0.348591,-0.328933,0.122765,0.225208
790,3220339269,0.749319,0.228063,-0.514725,-0.348666,-0.445390,0.517517,-0.198105
791,3220372603,0.750943,0.227416,-0.513251,-0.347764,0.648823,-0.454385,0.012411
792,3220405937,0.762813,0.233053,-0.499068,-0.338724,0.492125,0.054066,0.327962
793,3220439271,0.772040,0.235602,-0.488812,-0.330922,-1.282972,0.435551,-0.925862
794,3220472605,0.774941,0.233085,-0.488294,-0.326661,-0.317878,-0.655668,-0.018242
795,3220505939,0.777385,0.232606,-0.487705,-0.322042,-0.026575,-0.444743,-0.179858
796,3220539273,0.779533,0.231040,-0.488047,-0.317427,-0.090715,-0.367468,-0.389474
797,3220572607,0.780919,0.228300,-0.490237,-0.312591,-0.306838,0.021225,-0.096468
798,3220605941,0.781907,0.225400,-0.493938,-0.306337,-0.753813,-0.231647,-0.466760
799,3220639275,0.777025,0.221916,-0.506423,-0.300871,-2.969217,-0.462274,-1.306942
800,3220672609,0.773844,0.221212,-0.519445,-0.287069,0.044708,-0.538505,-1.294203
801,3220705943,0.782050,0.224450,-0.520151,-0.259738,-0.547424,-1.417039,-2.239088
802,3220739277,0.794124,0.226333,-0.517115,-0.225241,-1.243824,-0.339162,-3.149610
803,3220772611,0.801820,0.217507,-0.523426,-0.189212,-0.194494,0.415188,-3.493336
804,3220805945,0.808406,0.196777,-0.534519,-0.148489,1.453514,-0.381978,-2.860238
805,3220839279,0.820791,0.168954,-0.536572,-0.099235,1.395442,-0.388396,-2.679074
806,3220872613,0.840780,0.134084,-0.523069,-0.038862,0.438433,-0.074129,-2.770807
807,3220905947,0.863640,0.091795,-0.494859,0.028532,0.726098,-1.020645,-1.385446
808,3220939281,0.889820,0.044444,-0.443035,0.099830,1.245204,-0.375302,-0.732930
809,3220972615,0.916185,-0.010013,-0.362956,0.169611,1.091956,-0.323721,-0.071660
810,3221005949,0.929823,-0.072684,-0.281696,0.225377,-2.939914,-0.939421,-1.285323
811,3221039283,0.918973,-0.137656,-0.255123,0.267307,-3.761012,-2.902391,0.581515
812,3221072617,0.893981,-0.193000,-0.271212,0.299989,0.196751,-1.623559,2.336770
813,3221105951,0.865501,-0.242577,-0.291684,0.327087,3.219125,0.001967,5.481722
814,3221139285,0.849965,-0.285631,-0.283972,0.339611,3.151092,0.984978,6.652489
815,3221172619,0.841051,-0.321689,-0.269769,0.341138,0.259330,0.175632,2.785392
816,3221205953,0.826579,-0.352228,-0.273418,0.343433,-1.031674,-0.432956,0.433350
817,3221239287,0.803596,-0.378099,-0.295553,0.352029,0.298063,0.806842,1.676354
818,3221272621,0.781219,-0.397791,-0.319671,0.359541,1.157210,2.057354,2.008325
819,3221305955,0.763253,-0.415391,-0.337385,0.362032,1.511917,2.285571,0.721060
820,3221339289,0.749271,-0.435785,-0.346022,0.359102,0.967088,1.642043,-0.169816
821,3221372623,0.736413,-0.459051,-0.349096,0.353695,0.445314,1.259917,-0.193420
822,3221405957,0.724643,-0.483237,-0.347346,0.347456,0.286023,1.216717,0.298426
823,3221439291,0.716023,-0.506537,-0.338962,0.340348,-0.023274,1.313419,1.039800
824,3221472625,0.713292,-0.525710,-0.324176,0.331292,-0.967913,1.552125,2.123530
825,3221505959,0.717242,-0.540277,-0.302601,0.319528,0.119619,0.419030,1.575498
826,3221539293,0.722124,-0.550494,-0.284947,0.307082,-1.101679,-0.092318,1.960887
827,3221572627,0.726772,-0.553208,-0.275187,0.300060,-1.793824,-0.638126,1.325802
828,3221605961,0.730974,-0.550286,-0.271527,0.298557,-1.032673,-0.684658,0.231856
829,3221639295,0.732744,-0.543921,-0.276609,0.301204,-0.282039,-0.548377,-0.130768
830,3221672629,0.732041,-0.535889,-0.287735,0.306836,0.051083,-0.291537,-0.570072
831,3221705963,0.728763,-0.527926,-0.302148,0.314493,0.338878,-0.078328,-0.757032
832,3221739297,0.723426,-0.521750,-0.316303,0.323086,0.575110,0.204320,-0.557745
833,3221772631,0.717836,-0.518638,-0.326138,0.330697,0.632968,0.321960,-0.240307
834,3221805965,0.712844,-0.518921,-0.330757,0.336416,0.516063,0.176827,-0.046898
835,3221839299,0.708523,-0.521859,-0.331688,0.340062,0.404157,0.077371,0.078706
836,3221872633,0.705277,-0.526368,-0.330216,0.341290,0.418154,0.041824,0.165655
837,3221905967,0.703225,-0.531605,-0.327396,0.340123,0.421819,0.014256,0.290394
838,3221939301,0.702046,-0.536762,-0.324349,0.337367,0.292473,0.041877,0.360558
839,3221972635,0.701120,-0.541376,-0.322019,0.334136,0.208292,0.061719,0.494219
840,3222005969,0.699877,-0.545535,-0.320634,0.331298,0.053734,0.157270,0.542974
841,3222039303,0.698464,-0.549297,-0.319933,0.328731,-0.039949,0.315678,0.429502
842,3222072637,0.697483,-0.553339,-0.318502,0.325410,-0.120153,0.273499,0.115961
843,3222105971,0.697286,-0.557253,-0.316247,0.321325,-0.334384,0.471702,-0.031638
844,3222139305,0.697568,-0.560901,-0.313578,0.316953,-0.208117,0.545991,-0.084976
845,3222172639,0.698214,-0.564805,-0.309530,0.312545,-0.096188,0.560963,-0.043734
846,3222205973,0.698962,-0.569007,-0.304097,0.308560,-0.119746,0.462464,0.090549
847,3222239307,0.699402,-0.573087,-0.298440,0.305521,-0.156390,0.434639,0.297514
848,3222272641,0.699815,-0.576705,-0.292875,0.303141,-0.080639,0.447462,0.454433
849,3222305975,0.700583,-0.579679,-0.287508,0.300824,0.031037,0.411515,0.545751
850,3222339309,0.701703,-0.581755,-0.283054,0.298422,0.022163,0.353695,0.509801
851,3222372643,0.703072,-0.582664,-0.280407,0.295912,0.087380,0.360583,0.377974
852,3222405977,0.704895,-0.582683,-0.278933,0.292918,0.150939,0.404647,0.311161
853,3222439311,0.707360,-0.582216,-0.277587,0.289157,0.160611,0.374112,0.249517
854,3222472645,0.710345,-0.581401,-0.276124,0.284850,0.126964,0.252411,0.166133
855,3222505979,0.713502,-0.580322,-0.274832,0.280372,0.095991,0.150863,0.184761
856,3222539313,0.716777,-0.579102,-0.273509,0.275799,0.011188,0.099820,0.117645
857,3222572647,0.720399,-0.577611,-0.271904,0.271033,-0.081181,-0.025313,0.024455
858,3222605981,0.724066,-0.575622,-0.270820,0.266542,-0.106131,-0.225598,-0.000175
859,3222639315,0.727200,-0.573316,-0.270938,0.262835,-0.146451,-0.372044,0.061715
860,3222672649,0.729390,-0.571290,-0.271976,0.260093,-0.189600,-0.439705,0.064950
861,3222705983,0.731170,-0.570248,-0.271811,0.257541,-0.163829,-0.558699,-0.092900
862,3222739317,0.732780,-0.569658,-0.271146,0.254958,-0.370804,-0.564839,-0.081761
863,3222772651,0.733818,-0.569071,-0.271306,0.253107,-0.416743,-0.560514,-0.002381
864,3222805985,0.734064,-0.569065,-0.271681,0.252003,-0.447775,-0.508586,0.003642
865,3222839319,0.733640,-0.570067,-0.271287,0.251397,-0.541427,-0.394793,0.101194
866,3222872653,0.732805,-0.571573,-0.270181,0.251603,-0.562281,-0.254021,0.165232
867,3222905987,0.731952,-0.572689,-0.268985,0.252827,-0.420331,-0.211760,0.186127
868,3222939321,0.731220,-0.572789,-0.268615,0.255102,-0.324612,-0.208750,0.113650
869,3222972655,0.730305,-0.571840,-0.269810,0.258567,-0.182864,-0.122082,0.069046
870,3223005989,0.729220,-0.570135,-0.272228,0.262826,-0.015261,-0.028940,0.084168
871,3223039323,0.728092,-0.568176,-0.275010,0.267259,0.103755,-0.029206,0.138725
872,3223072657,0.726866,-0.566373,-0.277833,0.271472,0.146827,-0.028728,0.100801
873,3223105991,0.725351,-0.564815,-0.281052,0.275428,0.218798,0.003993,0.067711
874,3223139325,0.723665,-0.563741,-0.284230,0.278782,0.207829,0.074534,0.081461
875,3223172659,0.722188,-0.563201,-0.286761,0.281100,0.157848,0.107932,0.094755
876,3223205993,0.721138,-0.563110,-0.288361,0.282338,0.033687,0.125214,0.129160
877,3223239327,0.720389,-0.563120,-0.289588,0.282976,-0.028464,0.080757,0.123235
878,3223272661,0.719739,-0.562983,-0.290912,0.283546,-0.165819,0.075761,0.156016
879,3223305995,0.719170,-0.562557,-0.292470,0.284230,-0.219090,0.039794,0.172288
880,3223339329,0.718756,-0.561928,-0.293869,0.285075,-0.302093,0.030077,0.169274
881,3223372663,0.718487,-0.561106,-0.295115,0.286085,-0.318026,-0.008292,0.150681
882,3223405997,0.718441,-0.560124,-0.296008,0.287200,-0.257069,-0.065159,0.192414
883,3223439331,0.718612,-0.559033,-0.296415,0.288474,-0.276903,-0.152200,0.199200
884,3223472665,0.718619,-0.557763,-0.297071,0.290237,-0.257049,-0.242877,0.181836
885,3223505999,0.718288,-0.556284,-0.298413,0.292506,-0.194414,-0.258723,0.165743
886,3223539333,0.717719,-0.554886,-0.300081,0.294844,-0.152133,-0.249061,0.123637
887,3223572667,0.716760,-0.553819,-0.302014,0.297201,-0.188667,-0.184864,0.067081
888,3223606001,0.715676,-0.553242,-0.303584,0.299280,-0.096951,-0.082604,0.071372
889,3223639335,0.714899,-0.553253,-0.304044,0.300647,-0.088599,-0.020191,0.118577
890,3223672669,0.714801,-0.553725,-0.302861,0.301204,-0.121291,-0.036228,0.226322
891,3223706003,0.715383,-0.554136,-0.300445,0.301487,-0.191620,-0.225867,0.224517
892,3223739337,0.715928,-0.553856,-0.298731,0.302407,-0.297286,-0.394454,0.151395
893,3223772671,0.715874,-0.552526,-0.299135,0.304563,-0.360398,-0.475426,0.141142
894,3223806005,0.714917,-0.550432,-0.301638,0.308112,-0.366442,-0.499124,0.123713
895,3223839339,0.712372,-0.547530,-0.307075,0.313756,-0.371088,-0.298332,0.146269
896,3223872673,0.708817,-0.543968,-0.314290,0.320780,-0.104191,0.038703,0.119836
897,3223906007,0.705547,-0.540516,-0.320826,0.327287,-0.009436,0.229642,0.066293
898,3223939341,0.702906,-0.537727,-0.325960,0.332451,0.009222,0.279360,0.088755
899,3223972675,0.700997,-0.535802,-0.329349,0.336227,0.054929,0.274876,0.114127
900,3224006009,0.700049,-0.534902,-0.330706,0.338300,0.053960,0.247785,0.110752
901,3224039343,0.699941,-0.534780,-0.330482,0.338932,-0.109280,0.072075,0.167498
902,3224072677,0.700050,-0.534994,-0.329831,0.339004,-0.264889,-0.049029,0.200692
903,3224106011,0.700028,-0.535101,-0.329525,0.339176,-0.335022,-0.097444,0.259518
904,3224139345,0.699950,-0.534949,-0.329474,0.339628,-0.340666,-0.090493,0.242706
905,3224172679,0.700057,-0.534650,-0.329182,0.340161,-0.308914,-0.158527,0.234163
906,3224206013,0.700184,-0.534169,-0.328818,0.341006,-0.303491,-0.228380,0.223301
907,3224239347,0.700157,-0.533352,-0.328836,0.342322,-0.243740,-0.275843,0.110293
908,3224272681,0.699777,-0.532095,-0.329779,0.344142,-0.215780,-0.318215,0.061047
909,3224306015,0.698790,-0.530467,-0.331851,0.346659,-0.232797,-0.283368,0.106326
910,3224339349,0.697380,-0.528690,-0.334472,0.349681,-0.178582,-0.141999,0.110266
911,3224372683,0.696000,-0.526969,-0.336844,0.352739,-0.231503,-0.036873,0.082878
912,3224406017,0.694721,-0.525474,-0.338908,0.355502,-0.267552,0.052624,0.093032
913,3224439351,0.693810,-0.524440,-0.340198,0.357569,-0.271425,0.131956,0.144810
914,3224472685,0.693203,-0.523749,-0.341185,0.358819,-0.325560,0.097976,0.267962
915,3224506019,0.692862,-0.522953,-0.342126,0.359741,-0.216417,0.150878,0.187969
916,3224539353,0.692961,-0.522235,-0.342628,0.360113,-0.236885,0.168039,0.056878
917,3224572687,0.693485,-0.521712,-0.342590,0.359901,-0.191019,0.133976,-0.000160
918,3224606021,0.694340,-0.521647,-0.341761,0.359132,-0.180638,0.004487,-0.038519
919,3224639355,0.694800,-0.521900,-0.341462,0.358159,-0.237911,-0.053177,0.026657
920,3224672689,0.695145,-0.522613,-0.341117,0.356775,-0.082215,0.023006,0.191196
921,3224706023,0.696117,-0.523935,-0.339566,0.354413,-0.098758,-0.141229,0.204607
922,3224739357,0.697262,-0.525449,-0.337683,0.351710,-0.216804,-0.277612,0.226390
923,3224772691,0.698216,-0.526631,-0.336075,0.349584,-0.356519,-0.358371,0.127428
924,3224806025,0.698545,-0.526931,-0.335849,0.348689,-0.444173,-0.348095,0.073646
925,3224839359,0.697968,-0.526183,-0.337583,0.349301,-0.401155,-0.322683,0.155264
926,3224872693,0.696702,-0.524957,-0.340277,0.351053,-0.319272,-0.129965,0.217610
927,3224906027,0.695278,-0.524032,-0.342647,0.352948,-0.340234,-0.051499,0.213274
928,3224939361,0.693952,-0.523533,-0.344362,0.354626,-0.171475,-0.006303,0.245579
929,3224972695,0.693018,-0.523733,-0.345039,0.355497,-0.020659,0.078512,0.195844
930,3225006029,0.692678,-0.524778,-0.344397,0.355242,0.030385,0.214667,0.083678
931,3225039363,0.692759,-0.526334,-0.343113,0.354022,0.011396,0.228950,-0.064061
932,3225072697,0.693116,-0.528117,-0.341602,0.352124,-0.020153,0.203992,-0.040084
933,3225106031,0.693573,-0.529888,-0.340090,0.350022,-0.102752,0.159753,0.080057
934,3225139365,0.694084,-0.531480,-0.338532,0.348098,-0.133851,0.124207,0.206376
935,3225172699,0.694864,-0.532759,-0.336803,0.346260,-0.241497,0.057176,0.219919
936,3225206033,0.695836,-0.533446,-0.335446,0.344563,-0.261333,0.012279,0.249089
937,3225239367,0.696835,-0.533692,-0.334395,0.343183,-0.285097,0.019213,0.171463
938,3225272701,0.697869,-0.533602,-0.333522,0.342069,-0.188771,-0.006996,0.086904
939,3225306035,0.698765,-0.533357,-0.332845,0.341281,-0.072256,-0.032048,0.090624
940,3225339369,0.699347,-0.532997,-0.332538,0.340949,-0.063074,-0.042393,0.166456
941,3225372703,0.699748,-0.532691,-0.332331,0.340807,-0.006147,-0.033611,0.189164
942,3225406037,0.700181,-0.532422,-0.332125,0.340537,-0.026145,-0.018761,0.057677
943,3225439371,0.700467,-0.531997,-0.332370,0.340375,-0.047111,0.016177,0.055690
944,3225472705,0.700700,-0.531536,-0.332607,0.340386,-0.017493,0.049989,0.064979
945,3225506039,0.700864,-0.531232,-0.332648,0.340484,-0.028275,0.046134,0.086149
946,3225539373,0.700835,-0.531008,-0.332861,0.340683,0.053102,0.052606,0.049382
947,3225572707,0.700854,-0.530853,-0.333009,0.340741,0.085457,0.047654,0.051525
948,3225606041,0.700867,-0.530661,-0.333263,0.340765,0.014305,0.014778,0.030383
949,3225639375,0.700641,-0.530402,-0.333936,0.340974,0.025213,0.011334,0.067561
950,3225672709,0.700359,-0.530150,-0.334628,0.341267,0.000383,0.042509,0.137375
951,3225706043,0.700089,-0.529886,-0.335239,0.341630,-0.091959,0.052696,0.189951
952,3225739377,0.699975,-0.529617,-0.335550,0.341977,-0.162751,0.059923,0.238359
953,3225772711,0.700149,-0.529398,-0.335360,0.342145,-0.203746,0.034990,0.273172
954,3225806045,0.700499,-0.529252,-0.334800,0.342202,-0.288045,0.011568,0.243907
955,3225839379,0.701036,-0.529114,-0.333931,0.342166,-0.171133,-0.015610,0.197693
956,3225872713,0.701628,-0.529058,-0.332761,0.342178,-0.107925,-0.056242,0.131606
957,3225906047,0.702045,-0.529038,-0.331650,0.342433,0.008466,-0.065543,0.115485
958,3225939381,0.702283,-0.529017,-0.330668,0.342928,0.106300,-0.075674,0.085937
959,3225972715,0.702254,-0.528873,-0.330132,0.343725,0.100276,-0.087669,0.064909
960,3226006049,0.701899,-0.528628,-0.330198,0.344759,0.132188,-0.051752,0.139049
961,3226039383,0.701300,-0.528539,-0.330477,0.345848,0.073905,0.032694,0.221656
962,3226072717,0.700682,-0.528930,-0.330351,0.346621,0.057600,0.168820,0.191125
963,3226106051,0.700536,-0.529928,-0.329051,0.346628,0.052322,0.236764,0.074198
964,3226139385,0.700671,-0.531217,-0.327173,0.346160,0.077050,0.189516,-0.000981
965,3226172719,0.700642,-0.532397,-0.325676,0.345817,0.121917,0.186246,0.009427
966,3226206053,0.700452,-0.533300,-0.324679,0.345749,0.126301,0.189090,0.078897
967,3226239387,0.700238,-0.533913,-0.324032,0.345843,0.134250,0.201118,0.117476
968,3226272721,0.700163,-0.534167,-0.323715,0.345899,0.056657,0.192592,0.169939
969,3226306055,0.700353,-0.534045,-0.323575,0.345835,-0.016246,0.186409,0.170588
970,3226339389,0.700763,-0.533394,-0.323816,0.345783,0.011000,0.087018,0.135345
971,3226372723,0.700959,-0.532510,-0.324791,0.345835,0.038686,0.114442,0.212855
972,3226406057,0.701350,-0.531911,-0.325222,0.345558,0.151738,0.129224,0.190392
973,3226439391,0.701981,-0.531540,-0.325161,0.344905,0.204690,0.028185,0.101278
974,3226472725,0.702364,-0.531116,-0.325533,0.344426,0.303914,0.003392,0.018406
975,3226506059,0.702321,-0.530766,-0.326495,0.344143,0.273206,0.035828,-0.119130
976,3226539393,0.701797,-0.530854,-0.327677,0.343953,0.320722,0.114579,-0.062609
977,3226572727,0.701072,-0.531641,-0.328331,0.343592,0.279466,0.160139,0.049406
978,3226606061,0.700266,-0.532869,-0.328618,0.343059,0.162470,0.157401,0.231903
979,3226639395,0.699548,-0.534243,-0.328683,0.342323,0.004000,0.168137,0.358089
980,3226672729,0.699302,-0.535394,-0.328330,0.341365,-0.150711,0.158187,0.467759
981,3226706063,0.699318,-0.536198,-0.327626,0.340744,-0.160203,0.171995,0.408863
982,3226739397,0.699450,-0.536786,-0.326593,0.340540,-0.053841,0.164568,0.190635
983,3226772731,0.699591,-0.537216,-0.325662,0.340465,0.074268,0.130944,0.053760
984,3226806065,0.699658,-0.537676,-0.324961,0.340270,0.245558,0.120454,0.028848
985,3226839399,0.699672,-0.538439,-0.324160,0.339799,0.331903,0.070428,0.075919
986,3226872733,0.699403,-0.539540,-0.323550,0.339187,0.338748,0.047674,0.049976
987,3226906067,0.698744,-0.540938,-0.323379,0.338481,0.303275,0.114909,0.077980
988,3226939401,0.697995,-0.542685,-0.323133,0.337465,0.186829,0.206881,0.111065
989,3226972735,0.697397,-0.544631,-0.322547,0.336123,0.001254,0.229703,0.113804
990,3227006069,0.696822,-0.546477,-0.322008,0.334834,-0.149401,0.288764,0.189565
991,3227039403,0.696523,-0.548004,-0.321333,0.333607,-0.262927,0.340579,0.230826
992,3227072737,0.696617,-0.548965,-0.320578,0.332556,-0.221107,0.304695,0.251714
993,3227106071,0.696945,-0.549298,-0.320013,0.331862,-0.162197,0.308854,0.252135
994,3227139405,0.697597,-0.549138,-0.319494,0.331256,0.005582,0.279650,0.179062
995,3227172739,0.698529,-0.548816,-0.318877,0.330419,0.143173,0.212386,0.058503
996,3227206073,0.699466,-0.548735,-0.318155,0.329266,0.200835,0.200474,-0.019858
997,3227239407,0.700296,-0.549176,-0.317091,0.327788,0.232452,0.162731,0.028186
998,3227272741,0.700981,-0.549866,-0.316020,0.326197,0.207586,0.041063,0.188788
999,3227306075,0.701481,-0.550316,-0.315579,0.324788,0.110033,-0.048606,0.312222
1000,3227339409,0.702021,-0.550439,-0.315602,0.323386,0.018499,-0.065768,0.279401
1001,3227372743,0.702740,-0.550579,-0.315483,0.321699,-0.059549,-0.129256,0.139997
1002,3227406077,0.703420,-0.551108,-0.314957,0.319818,-0.152914,-0.201132,0.023623
1003,3227439411,0.703681,-0.552185,-0.314196,0.318130,-0.190621,-0.183731,-0.000588
1004,3227472745,0.703440,-0.553690,-0.313232,0.316995,-0.211151,-0.184788,0.057066
1005,3227506079,0.702796,-0.555200,-0.312338,0.316664,-0.207240,-0.150250,0.156857
1006,3227539413,0.701808,-0.556283,-0.312028,0.317260,-0.206231,-0.103710,0.240711
1007,3227572747,0.700711,-0.556897,-0.312276,0.318361,-0.117702,0.007579,0.251101
1008,3227606081,0.699791,-0.557251,-0.312657,0.319391,-0.144159,0.050227,0.199660
1009,3227639415,0.699224,-0.557417,-0.312902,0.320100,-0.121167,0.109286,0.114983
1010,3227672749,0.698846,-0.557446,-0.313065,0.320716,-0.221244,0.083812,0.069599
1011,3227706083,0.698416,-0.557268,-0.313465,0.321571,-0.204010,0.113432,0.095047
1012,3227739417,0.698169,-0.557074,-0.313478,0.322429,-0.181997,0.060185,0.206265
1013,3227772751,0.698038,-0.556873,-0.313261,0.323272,-0.165660,0.004882,0.283775
1014,3227806085,0.698106,-0.556574,-0.312937,0.323950,-0.107556,-0.028840,0.269761
1015,3227839419,0.698375,-0.556135,-0.312658,0.324395,-0.126485,-0.073715,0.104326
1016,3227872753,0.698496,-0.555564,-0.312815,0.324961,-0.093445,-0.073240,0.046339
1017,3227906087,0.698202,-0.555024,-0.313342,0.326006,-0.040625,-0.031872,0.069208
1018,3227939421,0.697512,-0.554511,-0.314301,0.327429,-0.047890,-0.020015,0.000875
1019,3227972755,0.696503,-0.553754,-0.316187,0.329038,0.026248,0.057020,-0.006226
1020,3228006089,0.695715,-0.553027,-0.318008,0.330173,0.088021,0.157643,0.113080
1021,3228039423,0.695354,-0.552777,-0.318785,0.330602,-0.009266,0.114447,0.129663
1022,3228072757,0.695148,-0.552900,-0.319021,0.330600,-0.053399,0.113074,0.146526
1023,3228106091,0.695199,-0.553189,-0.318847,0.330176,-0.152053,0.117582,0.229523
1024,3228139425,0.695658,-0.553508,-0.318182,0.329317,-0.185186,0.035866,0.203950
1025,3228172759,0.696407,-0.553897,-0.317167,0.328057,-0.272706,-0.030378,0.220432
1026,3228206093,0.697282,-0.554230,-0.315965,0.326792,-0.288764,-0.098154,0.159769
1027,3228239427,0.698016,-0.554474,-0.314817,0.325919,-0.278170,-0.143279,0.141959
1028,3228272761,0.698332,-0.554587,-0.314113,0.325727,-0.247831,-0.153126,0.084213
1029,3228306095,0.698329,-0.554633,-0.313761,0.325998,-0.120625,-0.093876,0.101493
1030,3228339429,0.698182,-0.554760,-0.313418,0.326426,-0.101257,-0.057714,0.129965
1031,3228372763,0.697936,-0.554927,-0.313124,0.326947,-0.071648,-0.024410,0.155616
1032,3228406097,0.697673,-0.555022,-0.313013,0.327453,-0.075096,-0.002378,0.138110
1033,3228439431,0.697421,-0.554958,-0.313192,0.327927,-0.106291,0.040068,0.095511
1034,3228472765,0.697134,-0.554811,-0.313546,0.328449,-0.145102,0.049654,0.105988
1035,3228506099,0.696838,-0.554712,-0.313812,0.328988,-0.160223,0.080256,0.143092
1036,3228539433,0.696593,-0.554596,-0.313980,0.329543,-0.162355,0.073000,0.159693
1037,3228572767,0.696393,-0.554381,-0.314270,0.330049,-0.190741,0.071552,0.169327
1038,3228606101,0.696239,-0.554087,-0.314653,0.330505,-0.173491,0.089560,0.121759
1039,3228639435,0.696109,-0.553837,-0.314901,0.330962,-0.193429,0.106550,0.093769
1040,3228672769,0.695958,-0.553631,-0.315042,0.331489,-0.184951,0.136159,0.071631
1041,3228706103,0.695843,-0.553326,-0.315225,0.332064,-0.174485,0.169697,0.105862
1042,3228739437,0.695794,-0.552977,-0.315431,0.332553,-0.128697,0.186012,0.191499
1043,3228772771,0.695946,-0.552658,-0.315438,0.332757,-0.146527,0.206037,0.171047
1044,3228806105,0.696402,-0.552330,-0.315184,0.332589,-0.124012,0.179585,0.163529
1045,3228839439,0.697036,-0.551830,-0.314948,0.332315,-0.176152,0.145836,0.098535
1046,3228872773,0.697666,-0.551273,-0.314848,0.332013,-0.110594,0.129826,0.092837
1047,3228906107,0.698341,-0.550820,-0.314549,0.331628,-0.095343,0.115094,0.115635
1048,3228939441,0.699077,-0.550450,-0.314106,0.331110,-0.106770,0.121733,0.127122
1049,3228972775,0.699937,-0.550100,-0.313634,0.330321,-0.135124,0.101957,0.111532
1050,3229006109,0.700879,-0.549770,-0.313119,0.329361,-0.134864,0.052943,0.170089
1051,3229039443,0.701791,-0.549524,-0.312515,0.328401,-0.117983,0.009323,0.254945
1052,3229072777,0.702748,-0.549371,-0.311763,0.327326,-0.088945,-0.034362,0.242507
1053,3229106111,0.703777,-0.549159,-0.311092,0.326104,-0.066350,-0.066534,0.174885
1054,3229139445,0.704846,-0.548804,-0.310646,0.324817,-0.056634,-0.102356,0.205626
1055,3229172779,0.705757,-0.548501,-0.310138,0.323834,-0.084387,-0.135704,0.296198
1056,3229206113,0.706371,-0.548406,-0.309557,0.323212,-0.179289,-0.084485,0.297641
1057,3229239447,0.707050,-0.548359,-0.308824,0.322508,-0.152038,-0.001396,0.166316
1058,3229272781,0.708236,-0.548314,-0.307474,0.321270,-0.148568,0.059727,0.113293
1059,3229306115,0.709784,-0.548316,-0.305446,0.319781,-0.058630,-0.053268,0.109892
1060,3229339449,0.711244,-0.548450,-0.303281,0.318365,0.002123,-0.129862,0.096860
1061,3229372783,0.712610,-0.548681,-0.301213,0.316870,0.108640,-0.171554,0.072348
1062,3229406117,0.713983,-0.548950,-0.299184,0.315234,0.171477,-0.244858,0.096452
1063,3229439451,0.715153,-0.549093,-0.297659,0.313771,0.195634,-0.284663,0.027505
1064,3229472785,0.716153,-0.549046,-0.296648,0.312528,0.215513,-0.307114,-0.021948
1065,3229506119,0.717042,-0.548756,-0.296068,0.311547,0.162297,-0.335229,-0.112331
1066,3229539453,0.717510,-0.548161,-0.296314,0.311283,0.150297,-0.362673,-0.057446
1067,3229572787,0.717331,-0.547413,-0.297452,0.311926,0.105294,-0.318194,0.028071
1068,3229606121,0.716732,-0.546710,-0.298987,0.313067,0.096703,-0.260164,0.131463
1069,3229639455,0.715940,-0.546173,-0.300517,0.314348,0.009950,-0.165695,0.213224
1070,3229672789,0.715174,-0.545788,-0.301804,0.315526,-0.053608,-0.055128,0.269380
1071,3229706123,0.714711,-0.545439,-0.302634,0.316385,-0.048429,0.028324,0.237309
1072,3229739457,0.714876,-0.544959,-0.302756,0.316720,-0.082017,0.120029,0.122439
1073,3229772791,0.715636,-0.544202,-0.302361,0.316683,-0.022805,0.016702,0.020573
1074,3229806125,0.716209,-0.543039,-0.302715,0.317044,0.125218,-0.133612,0.068286
1075,3229839459,0.716298,-0.541914,-0.303722,0.317806,0.266332,-0.060017,0.010326
1076,3229872793,0.716367,-0.541195,-0.304488,0.318143,0.390594,-0.131910,0.007949
1077,3229906127,0.716138,-0.540956,-0.305352,0.318237,0.372936,-0.188430,0.121400
1078,3229939461,0.715553,-0.541115,-0.306419,0.318256,0.382336,-0.134802,0.103181
1079,3229972795,0.714783,-0.541642,-0.307500,0.318047,0.220246,-0.106382,0.058156
1080,3230006129,0.713782,-0.542187,-0.309017,0.317895,0.123800,-0.091924,0.147268
1081,3230039463,0.712577,-0.542851,-0.310576,0.317947,-0.034972,-0.023039,0.284586
1082,3230072797,0.711489,-0.543632,-0.311752,0.317899,-0.220969,0.065944,0.303449
1083,3230106131,0.710657,-0.544368,-0.312522,0.317743,-0.251216,0.029475,0.298870
1084,3230139465,0.710657,-0.544458,-0.312685,0.317430,-0.184980,0.006312,0.178340
1085,3230172799,0.711287,-0.544242,-0.312073,0.316989,-0.031310,-0.128513,0.098400
1086,3230206133,0.711803,-0.543961,-0.311530,0.316848,0.099289,-0.256993,0.043767
1087,3230239467,0.711931,-0.543869,-0.311336,0.316908,0.163763,-0.268978,0.042714
1088,3230272801,0.711737,-0.544083,-0.311367,0.316947,0.200452,-0.255727,0.013849
1089,3230306135,0.711335,-0.544596,-0.311618,0.316721,0.137874,-0.226477,-0.099963
1090,3230339469,0.710758,-0.545243,-0.312153,0.316377,0.100496,-0.172562,-0.074764
1091,3230372803,0.709809,-0.546066,-0.312878,0.316372,0.068881,-0.158842,0.367393
1092,3230406137,0.708380,-0.546947,-0.313752,0.317184,-0.045669,-0.144458,0.563035
1093,3230439471,0.706764,-0.547445,-0.315263,0.318432,-0.101632,-0.008517,0.286501
1094,3230472805,0.705590,-0.547898,-0.316803,0.318726,-0.175879,0.098656,-0.071433
1095,3230506139,0.705050,-0.548240,-0.317909,0.318234,-0.119751,0.175609,-0.164474
1096,3230539473,0.704880,-0.549114,-0.317510,0.317498,-0.102459,0.091427,0.013005
1097,3230572807,0.704388,-0.550442,-0.316532,0.317268,-0.151102,0.032349,0.230766
1098,3230606141,0.703526,-0.551693,-0.315756,0.317781,-0.033729,0.025171,0.247952
1099,3230639475,0.702966,-0.552182,-0.315642,0.318285,-0.061641,-0.026427,0.216500
1100,3230672809,0.702235,-0.551898,-0.316895,0.319146,-0.112986,-0.003167,0.169828
1101,3230706143,0.701405,-0.551832,-0.318058,0.319925,-0.047397,0.093693,0.164050
1102,3230739477,0.700616,-0.552668,-0.317948,0.320321,-0.023088,0.002827,0.320113
1103,3230772811,0.699598,-0.554170,-0.317155,0.320736,-0.091560,0.016668,0.369507
1104,3230806145,0.698668,-0.555700,-0.316350,0.320911,-0.154891,0.004683,0.183326
1105,3230839479,0.697895,-0.556894,-0.316153,0.320717,-0.227599,0.024297,0.009151
1106,3230872813,0.697048,-0.557680,-0.316633,0.320719,-0.257581,0.112785,-0.050594
1107,3230906147,0.695807,-0.558213,-0.317626,0.321504,-0.276033,0.161853,0.022847
1108,3230939481,0.694216,-0.558565,-0.318821,0.323147,-0.214581,0.259617,0.218054
1109,3230972815,0.692812,-0.558689,-0.319797,0.324974,-0.185175,0.293916,0.330748
1110,3231006149,0.691980,-0.558549,-0.320461,0.326331,-0.145140,0.336186,0.330092
1111,3231039483,0.692030,-0.558304,-0.320457,0.326647,-0.099297,0.341389,0.255331
1112,3231072817,0.692770,-0.558100,-0.319831,0.326041,-0.122767,0.243389,0.132845
1113,3231106151,0.693763,-0.558042,-0.318862,0.324975,-0.141764,0.121694,0.061014
1114,3231139485,0.694717,-0.558106,-0.317756,0.323910,-0.144528,0.039275,0.069976
1115,3231172819,0.695431,-0.558227,-0.316810,0.323095,-0.148500,-0.036202,0.121791
1116,3231206153,0.695955,-0.558312,-0.316107,0.322508,-0.115441,-0.072673,0.146133
1117,3231239487,0.696365,-0.558478,-0.315492,0.321936,-0.076540,-0.085227,0.163679
1118,3231272821,0.696734,-0.558814,-0.314774,0.321258,-0.152658,-0.084318,0.095943
1119,3231306155,0.696991,-0.559106,-0.314188,0.320765,-0.150792,-0.091580,0.060900
1120,3231339489,0.696893,-0.559288,-0.313966,0.320879,-0.191431,-0.015752,0.083784
1121,3231372823,0.696517,-0.559310,-0.314053,0.321570,-0.110718,0.076843,0.157874
1122,3231406157,0.696176,-0.559365,-0.313862,0.322398,-0.058615,0.170536,0.282849
1123,3231439491,0.696152,-0.559422,-0.313210,0.322985,-0.133121,0.209762,0.256833
1124,3231472825,0.696511,-0.559226,-0.312587,0.323154,-0.146778,0.165349,0.172684
1125,3231506159,0.697285,-0.558758,-0.312017,0.322846,-0.141798,0.125205,0.134433
1126,3231539493,0.698185,-0.558241,-0.311352,0.322437,-0.143526,0.059304,0.149348
1127,3231572827,0.698951,-0.557854,-0.310598,0.322175,-0.094040,0.020633,0.123213
1128,3231606161,0.699580,-0.557618,-0.309833,0.321954,-0.066721,-0.026178,0.131383
1129,3231639495,0.700070,-0.557444,-0.309264,0.321736,-0.033302,-0.025298,0.131892
1130,3231672829,0.700428,-0.557266,-0.308983,0.321536,0.003836,0.000755,0.097078
1131,3231706163,0.700690,-0.557159,-0.308770,0.321355,0.035633,0.028526,0.093987
1132,3231739497,0.700846,-0.557096,-0.308623,0.321264,0.025573,0.013716,0.088233
1133,3231772831,0.700971,-0.556918,-0.308675,0.321252,0.052938,0.021183,0.090504
1134,3231806165,0.701113,-0.556628,-0.308885,0.321242,0.008459,0.016287,0.101227
1135,3231839499,0.701222,-0.556253,-0.309192,0.321360,-0.014310,-0.003610,0.073681
1136,3231872833,0.701194,-0.555898,-0.309650,0.321592,0.009802,-0.056153,0.122142
1137,3231906167,0.701095,-0.555642,-0.310023,0.321892,-0.051613,-0.024555,0.108703
1138,3231939501,0.700981,-0.555402,-0.310326,0.322261,-0.030336,-0.043118,0.142651
1139,3231972835,0.700762,-0.555106,-0.310674,0.322912,-0.092867,-0.036798,0.138982
1140,3232006169,0.700394,-0.554779,-0.311226,0.323740,-0.046869,0.007479,0.154072
1141,3232039503,0.700128,-0.554507,-0.311522,0.324496,0.016476,0.036927,0.154244
1142,3232072837,0.699904,-0.554225,-0.311783,0.325209,0.018082,0.039008,0.139381
1143,3232106171,0.699617,-0.553912,-0.312267,0.325895,0.059117,0.068467,0.138294
1144,3232139505,0.699477,-0.553647,-0.312605,0.326321,0.051436,0.063421,0.071043
1145,3232172839,0.699343,-0.553382,-0.313082,0.326601,0.048078,0.010409,0.100917
1146,3232206173,0.699089,-0.553153,-0.313653,0.326984,0.035370,0.047872,0.109027
1147,3232239507,0.698828,-0.553061,-0.314094,0.327275,0.009655,0.014279,0.132874
1148,3232272841,0.698522,-0.552982,-0.314592,0.327583,-0.038592,-0.022977,0.166919
1149,3232306175,0.698170,-0.552837,-0.315205,0.327988,-0.076443,0.009050,0.167245
1150,3232339509,0.697839,-0.552607,-0.315799,0.328509,-0.115589,0.003623,0.134143
1151,3232372843,0.697436,-0.552298,-0.316514,0.329195,-0.121693,0.039681,0.138980
1152,3232406177,0.697088,-0.551984,-0.317085,0.329908,-0.083008,0.080605,0.153674
1153,3232439511,0.696900,-0.551745,-0.317360,0.330440,-0.013446,0.098912,0.145611
1154,3232472845,0.696828,-0.551567,-0.317490,0.330764,-0.024592,0.097002,0.176122
1155,3232506179,0.696862,-0.551386,-0.317608,0.330882,0.054264,0.091838,0.165091
1156,3232539513,0.697044,-0.551267,-0.317606,0.330699,0.007638,0.068430,0.144175
1157,3232572847,0.697318,-0.551078,-0.317696,0.330349,0.038980,0.025507,0.109044
1158,3232606181,0.697552,-0.550890,-0.317790,0.330078,-0.044433,-0.021681,0.107143
1159,3232639515,0.697619,-0.550664,-0.318035,0.330079,-0.070402,-0.037157,0.104478
1160,3232672849,0.697542,-0.550327,-0.318438,0.330415,-0.072076,-0.067916,0.130422
1161,3232706183,0.697389,-0.549921,-0.318879,0.330987,-0.076301,-0.076415,0.172648
1162,3232739517,0.697232,-0.549663,-0.318975,0.331652,-0.081815,-0.018797,0.136270
1163,3232772851,0.697339,-0.549848,-0.317858,0.332194,-0.111562,-0.019709,0.172215
1164,3232806185,0.697482,-0.550423,-0.315699,0.332997,-0.226626,-0.152338,0.039846
1165,3232839519,0.696661,-0.551532,-0.313643,0.334821,-0.216839,-0.230495,-0.074708
1166,3232872853,0.694606,-0.552838,-0.312798,0.337713,-0.288884,-0.185435,0.129617
1167,3232906187,0.692566,-0.553128,-0.313425,0.340834,-0.119455,0.028018,0.387895
1168,3232939521,0.691465,-0.552552,-0.313732,0.343708,-0.006872,-0.055367,0.162366
1169,3232972855,0.688960,-0.551840,-0.315887,0.347883,-0.249796,-0.222434,0.002750
1170,3233006189,0.685042,-0.550893,-0.319878,0.353431,0.078829,0.132358,0.184772
1171,3233039523,0.682271,-0.549969,-0.322522,0.357799,0.109785,0.108547,0.024268
1172,3233072857,0.679345,-0.549912,-0.323973,0.362117,-0.001549,-0.166054,0.058311
1173,3233106191,0.675469,-0.550313,-0.326344,0.366603,0.222605,0.176232,0.243164
1174,3233139525,0.673589,-0.550657,-0.328047,0.368023,0.431852,0.425117,0.553697
1175,3233172859,0.674800,-0.550663,-0.328539,0.365346,0.429977,0.603202,0.575473
1176,3233206193,0.678408,-0.550850,-0.326515,0.360160,0.386439,0.409424,0.168372
1177,3233239527,0.681862,-0.550992,-0.324916,0.354828,0.221081,0.124789,-0.148891
1178,3233272861,0.685513,-0.553618,-0.319486,0.348580,2.356502,-0.396739,-1.284387
1179,3233306195,0.690695,-0.564460,-0.300577,0.337607,-0.106584,0.285071,0.214149
1180,3233339529,0.694339,-0.570960,-0.288104,0.329993,-1.575500,0.290349,0.710494
1181,3233372863,0.695830,-0.574634,-0.281330,0.326299,-1.207299,0.404255,0.731857
1182,3233406197,0.699805,-0.578036,-0.270472,0.320924,-1.169742,-0.087543,0.447173
1183,3233439531,0.703161,-0.580845,-0.260714,0.316563,-0.454544,-0.451566,-0.020576
1184,3233472865,0.705489,-0.583962,-0.251010,0.313478,-0.085805,-0.088436,0.189081
1185,3233506199,0.706148,-0.586007,-0.244949,0.312971,-0.289375,-0.560662,-0.150674
1186,3233539533,0.702463,-0.586826,-0.247556,0.317644,0.202800,-0.934767,-0.530067
1187,3233572867,0.696777,-0.586951,-0.253480,0.325176,0.221652,0.581717,1.111695
1188,3233606201,0.691761,-0.581023,-0.266233,0.336152,-1.599558,0.100948,0.571329
1189,3233639535,0.685158,-0.574074,-0.281973,0.348554,0.755676,0.086897,-0.283793
1190,3233672869,0.684303,-0.573833,-0.281412,0.351075,0.350230,0.479610,0.227833
1191,3233706203,0.686217,-0.576196,-0.275479,0.348161,0.446451,0.327362,0.057368
1192,3233739537,0.688808,-0.579147,-0.269131,0.343075,0.599084,0.636914,0.375017
1193,3233772871,0.692340,-0.580769,-0.263832,0.337292,-0.372763,1.031020,0.620360
1194,3233806205,0.693920,-0.578149,-0.267419,0.335717,-0.819621,0.637803,0.168820
1195,3233839539,0.691039,-0.572203,-0.281623,0.340203,-0.363814,-0.278223,-0.427131
1196,3233872873,0.684958,-0.567140,-0.298184,0.346802,0.852009,-0.665486,-0.495616
1197,3233906207,0.681673,-0.567526,-0.303717,0.347841,1.781177,-0.370856,-0.083942
1198,3233939541,0.684486,-0.572984,-0.296281,0.339686,0.942440,-0.048721,0.237360
1199,3233972875,0.688812,-0.577474,-0.289308,0.329186,-0.549190,0.065142,0.522905
1200,3234006209,0.691411,-0.576591,-0.290946,0.323797,-2.001270,0.026673,0.684460
1201,3234039543,0.692164,-0.572253,-0.297537,0.323895,-1.448579,0.031601,0.403418
1202,3234072877,0.692162,-0.567551,-0.304295,0.325886,-0.419928,0.440073,0.173076
1203,3234106211,0.693456,-0.564155,-0.307091,0.326410,0.072772,0.492631,0.053768
1204,3234139545,0.695853,-0.562183,-0.306322,0.325433,0.018187,0.128639,-0.093544
1205,3234172879,0.697625,-0.560994,-0.305311,0.324640,-0.134301,0.413804,0.175342
1206,3234206213,0.699012,-0.558899,-0.305786,0.324824,-0.596535,0.697135,0.609356
1207,3234239547,0.699640,-0.556313,-0.307857,0.325952,0.234085,0.679902,0.104022
1208,3234272881,0.701651,-0.555858,-0.306266,0.323896,0.663400,0.358741,-0.104473
1209,3234306215,0.704845,-0.557562,-0.301144,0.318797,1.258246,0.542441,0.139170
1210,3234339549,0.709778,-0.560539,-0.292002,0.311042,0.027979,0.341553,0.278530
1211,3234372883,0.715329,-0.562509,-0.281584,0.304302,-0.684219,1.241086,0.645277
1212,3234406217,0.722721,-0.563706,-0.267704,0.297060,-0.934908,0.644625,0.179155
1213,3234439551,0.728429,-0.564108,-0.257472,0.291345,-0.576699,0.618760,0.573726
1214,3234472885,0.732495,-0.565006,-0.249201,0.286562,0.069642,0.751517,0.564885
1215,3234506219,0.738159,-0.564108,-0.238250,0.283092,-0.613164,0.959916,1.427866
1216,3234539553,0.746384,-0.558709,-0.228150,0.280541,-0.013177,-0.892292,-0.339732
1217,3234572887,0.751738,-0.553617,-0.227505,0.276840,1.467637,-0.673210,-0.380824
1218,3234606221,0.758333,-0.549532,-0.225064,0.268871,1.558592,-1.292316,-0.513078
1219,3234639555,0.764042,-0.547006,-0.222761,0.259619,0.675158,-1.452209,-1.050134
1220,3234672889,0.766407,-0.546641,-0.224316,0.251966,1.154978,-1.915677,-1.683105
1221,3234706223,0.765793,-0.550901,-0.224789,0.244008,1.957984,-2.108826,-1.968862
1222,3234739557,0.762168,-0.560673,-0.221031,0.236414,0.564820,-1.130654,-0.474804
1223,3234772891,0.755306,-0.567739,-0.225246,0.237592,-1.070454,0.333569,1.209996
1224,3234806225,0.744801,-0.568087,-0.245131,0.249920,-1.251395,0.846967,1.667237
1225,3234839559,0.730587,-0.563477,-0.277193,0.268145,-0.695890,0.511310,1.055643
1226,3234872893,0.718701,-0.560122,-0.301284,0.280999,-0.167036,0.392672,0.402696
1227,3234906227,0.715000,-0.562062,-0.304954,0.282604,-0.327619,0.657728,0.233752
1228,3234939561,0.717191,-0.567293,-0.295789,0.276272,-0.297123,0.644897,0.225076
1229,3234972895,0.721694,-0.573457,-0.281323,0.266762,0.046334,0.378969,0.148423
1230,3235006229,0.726619,-0.579257,-0.265310,0.257094,-0.233379,-0.071711,-0.062352
1231,3235039563,0.729731,-0.583227,-0.253128,0.251526,-0.559195,-0.203287,-0.113877
1232,3235072897,0.729848,-0.584212,-0.249134,0.252887,-0.551793,-0.119388,-0.061481
1233,3235106231,0.727502,-0.582212,-0.253171,0.260143,-0.049387,-0.098904,-0.118607
1234,3235139565,0.723945,-0.578329,-0.261782,0.270017,0.278662,0.035297,-0.002916
1235,3235172899,0.719557,-0.573696,-0.272806,0.280513,-0.032305,-0.026203,0.167132
1236,3235206233,0.714677,-0.568895,-0.284301,0.291149,-0.156677,0.254432,0.756513
1237,3235239567,0.712805,-0.564453,-0.290730,0.297956,-0.242690,0.847238,1.041304
1238,3235272901,0.715200,-0.561533,-0.289358,0.299070,-0.703518,0.325126,0.786139
1239,3235306235,0.718804,-0.559662,-0.284477,0.298618,-0.471656,-0.336317,0.439972
1240,3235339569,0.722179,-0.558442,-0.278958,0.297966,-0.173410,-0.646804,0.135238
1241,3235372903,0.724181,-0.556937,-0.276149,0.298538,-0.010185,-0.707782,-0.259280
1242,3235406237,0.724124,-0.555250,-0.277510,0.300552,0.191979,-0.679888,-0.354741
1243,3235439571,0.723051,-0.554261,-0.279777,0.302849,0.343742,-0.522426,-0.251298
1244,3235472905,0.722064,-0.554580,-0.280508,0.303943,0.271120,-0.526279,0.103973
1245,3235506239,0.721039,-0.555846,-0.280127,0.304414,-0.182767,-0.639713,0.247209
1246,3235539573,0.718852,-0.556687,-0.281870,0.306433,-0.373913,-0.436789,0.178823
1247,3235572907,0.716057,-0.556633,-0.285503,0.309695,-0.433499,-0.201454,-0.004391
1248,3235606241,0.713063,-0.555872,-0.290179,0.313599,-0.228471,-0.013978,-0.054042
1249,3235639575,0.710128,-0.554748,-0.294871,0.317844,-0.042339,0.077787,-0.020525
1250,3235672909,0.707464,-0.553257,-0.299271,0.322239,-0.114740,0.184861,-0.012266
1251,3235706243,0.705197,-0.551542,-0.303426,0.326240,-0.203767,0.225569,-0.197897
1252,3235739577,0.703154,-0.549823,-0.307139,0.330053,-0.295372,0.259910,0.173292
1253,3235772911,0.701388,-0.548528,-0.309534,0.333708,-0.100146,0.273956,0.475271
1254,3235806245,0.700453,-0.547664,-0.309936,0.336707,0.073366,0.008814,0.509806
1255,3235839579,0.699746,-0.546619,-0.310584,0.339266,-0.003502,-0.060204,0.395732
1256,3235872913,0.699228,-0.545163,-0.312281,0.341115,-0.140350,-0.109522,0.225684
1257,3235906247,0.698592,-0.542970,-0.315813,0.342660,-0.349657,-0.034319,0.044003
1258,3235939581,0.697656,-0.540469,-0.320524,0.344144,-0.026678,0.172361,0.071236
1259,3235972915,0.697390,-0.539289,-0.322995,0.344225,0.011036,0.286836,0.244159
1260,3236006249,0.698067,-0.539813,-0.322172,0.342797,-0.025724,0.091116,0.205873
1261,3236039583,0.699367,-0.541501,-0.319329,0.340135,-0.186821,-0.055913,0.011027
1262,3236072917,0.700842,-0.543423,-0.316348,0.336804,-0.370153,-0.124440,-0.133523
1263,3236106251,0.702164,-0.545012,-0.314136,0.333537,-0.359502,-0.137276,-0.060463
1264,3236139585,0.703150,-0.545774,-0.312999,0.331274,-0.274316,-0.212195,0.196931
1265,3236172919,0.703716,-0.546019,-0.312410,0.330225,-0.333487,-0.149476,0.474380
1266,3236206253,0.704327,-0.545892,-0.311471,0.330018,-0.459632,-0.034313,0.403946
1267,3236239587,0.705250,-0.545315,-0.310566,0.329855,-0.419354,-0.006881,0.230953
1268,3236272921,0.706688,-0.544020,-0.310397,0.329072,-0.228600,-0.114655,0.132897
1269,3236306255,0.708446,-0.542478,-0.310725,0.327525,0.020625,-0.187626,0.115064
1270,3236339589,0.710461,-0.542281,-0.309689,0.324454,0.050474,-0.213336,0.001191
1271,3236372923,0.712087,-0.544451,-0.306334,0.320413,-0.157771,-0.136151,-0.000846
1272,3236406257,0.713154,-0.548475,-0.301127,0.316087,-0.381001,-0.128794,0.042475
1273,3236439591,0.713982,-0.552427,-0.296121,0.312035,-0.492061,-0.049897,0.247847
1274,3236472925,0.715250,-0.553928,-0.293192,0.309225,-0.514698,-0.157040,0.461253
1275,3236506259,0.716614,-0.552252,-0.294080,0.308220,-0.291981,-0.416203,0.406914
1276,3236539593,0.717115,-0.549628,-0.297683,0.308285,-0.217163,-0.211952,0.481656
1277,3236572927,0.717493,-0.548423,-0.299610,0.307684,-0.223738,0.035520,0.200418
1278,3236606261,0.718612,-0.549441,-0.297517,0.305280,-0.171107,0.094580,-0.132790
1279,3236639595,0.720561,-0.551768,-0.292577,0.301238,0.037899,-0.140964,-0.228344
1280,3236672929,0.722416,-0.554141,-0.287687,0.297118,-0.082779,-0.326166,-0.089391
1281,3236706263,0.723214,-0.555596,-0.285347,0.294705,-0.137311,-0.352184,-0.022215
1282,3236739597,0.723089,-0.556351,-0.285376,0.293560,-0.057775,-0.240876,0.060654
1283,3236772931,0.722977,-0.556925,-0.285865,0.292269,-0.214992,-0.096513,0.162809
1284,3236806265,0.723130,-0.557407,-0.286092,0.290743,-0.376002,-0.021196,0.241957
1285,3236839599,0.723579,-0.557704,-0.285841,0.289300,-0.328692,0.040314,0.229750
1286,3236872933,0.724373,-0.557831,-0.284879,0.288015,-0.302733,0.012099,0.118179
1287,3236906267,0.725106,-0.557698,-0.284039,0.287256,-0.182211,-0.022122,0.034706
1288,3236939601,0.725524,-0.557471,-0.283720,0.286958,0.035215,0.007152,-0.076765
1289,3236972935,0.725812,-0.557244,-0.283871,0.286519,0.206595,0.013228,-0.269676
1290,3237006269,0.726059,-0.557070,-0.284605,0.285501,0.346497,0.007538,-0.249976
1291,3237039603,0.726362,-0.557318,-0.285171,0.283678,0.410635,-0.003924,-0.082430
1292,3237072937,0.726683,-0.558187,-0.284988,0.281321,0.354298,-0.078083,0.102677
1293,3237106271,0.726498,-0.559485,-0.285064,0.279135,0.255999,-0.093703,0.134618
1294,3237139605,0.725815,-0.560962,-0.285870,0.277118,0.151812,0.039563,0.198596
1295,3237172939,0.725127,-0.562598,-0.286559,0.274880,0.019494,0.179597,0.283098
1296,3237206273,0.724838,-0.564416,-0.286371,0.272097,-0.170027,0.255360,0.311032
1297,3237239607,0.725106,-0.566146,-0.285328,0.268867,-0.182869,0.179650,0.316366
1298,3237272941,0.725569,-0.567657,-0.284196,0.265610,-0.032556,-0.159671,0.592124
1299,3237306275,0.725456,-0.570239,-0.282229,0.262466,0.123181,-0.098763,0.713601
1300,3237339609,0.725752,-0.574576,-0.276331,0.258434,-0.059598,0.172415,0.134253
1301,3237372943,0.727204,-0.578999,-0.267794,0.253420,-0.137863,0.174479,-0.282324
1302,3237406277,0.729701,-0.581458,-0.259824,0.248870,-0.024971,0.025445,-0.196471
1303,3237439611,0.731956,-0.581187,-0.255409,0.247444,-0.136849,-0.232622,0.139940
1304,3237472945,0.731989,-0.578555,-0.256879,0.251953,0.045186,-0.238214,0.561300
1305,3237506279,0.730101,-0.574473,-0.262453,0.260869,0.453483,-0.056682,0.763395
1306,3237539613,0.728325,-0.569616,-0.268473,0.270191,0.656893,-0.047445,0.668880
1307,3237572947,0.727141,-0.564428,-0.274749,0.277850,0.677171,-0.268904,0.563187
1308,3237606281,0.725752,-0.559734,-0.282096,0.283558,0.779872,-0.295035,0.287846
1309,3237639615,0.724194,-0.557321,-0.288070,0.286274,1.047638,0.011953,-0.207198
1310,3237672949,0.723898,-0.559710,-0.286990,0.283434,0.978722,0.415175,-0.434402
1311,3237706283,0.725759,-0.566384,-0.277139,0.275094,0.601556,0.328814,-0.573434
1312,3237739617,0.728256,-0.574715,-0.263225,0.264686,0.283093,0.052146,-0.466000
1313,3237772951,0.729151,-0.582294,-0.251751,0.256698,-0.056219,-0.039349,-0.165380
1314,3237806285,0.727352,-0.587486,-0.247249,0.254339,-0.391798,-0.012030,0.103625
1315,3237839619,0.723195,-0.589750,-0.250278,0.257965,-0.394883,0.282524,0.274375
1316,3237872953,0.718285,-0.589775,-0.257340,0.264590,-0.471774,0.529573,0.414735
1317,3237906287,0.713964,-0.588951,-0.264377,0.271104,-0.450276,0.723822,0.629159
1318,3237939621,0.711232,-0.588621,-0.268103,0.275311,-0.276007,0.695027,0.706087
1319,3237972955,0.710244,-0.589218,-0.268025,0.276656,-0.160344,0.630239,0.444545
1320,3238006289,0.710232,-0.589958,-0.266796,0.276298,-0.125801,0.614724,0.114187
1321,3238039623,0.710879,-0.590117,-0.265926,0.275131,0.113893,0.688417,-0.300768
1322,3238072957,0.712013,-0.589848,-0.265502,0.273179,0.193672,0.651165,-0.487319
1323,3238106291,0.712982,-0.589746,-0.265262,0.271096,0.235058,0.654214,-0.462626
1324,3238139625,0.713350,-0.590412,-0.264514,0.269404,0.334973,0.682362,-0.235558
1325,3238172959,0.713278,-0.591995,-0.262740,0.267852,0.394206,0.688954,-0.008066
1326,3238206293,0.713155,-0.593959,-0.260420,0.266090,0.407687,0.619832,0.359007
1327,3238239627,0.713238,-0.595754,-0.258228,0.263983,0.439683,0.582451,0.834277
1328,3238272961,0.714023,-0.597310,-0.255476,0.261008,0.441076,0.540924,1.123167
1329,3238306295,0.715956,-0.598400,-0.251951,0.256606,0.231165,0.403280,0.766908
1330,3238339629,0.718936,-0.598563,-0.249068,0.250638,0.064309,0.266553,0.337815
1331,3238372963,0.722694,-0.597876,-0.246878,0.243537,-0.042177,0.154788,0.127353
1332,3238406297,0.726680,-0.596932,-0.244549,0.236231,-0.044402,0.096709,0.069385
1333,3238439631,0.729975,-0.596444,-0.241691,0.230169,-0.074716,-0.015468,0.074704
1334,3238472965,0.731908,-0.596584,-0.238942,0.226510,0.014431,-0.016461,-0.042244
1335,3238506299,0.732885,-0.597406,-0.235750,0.224518,0.108368,0.055560,-0.009483
1336,3238539633,0.733517,-0.598574,-0.232086,0.223155,0.132597,0.104289,-0.057425
1337,3238572967,0.734189,-0.599644,-0.228476,0.221794,0.250177,0.104925,0.108668
1338,3238606301,0.735347,-0.600407,-0.224571,0.219874,0.359643,0.000743,0.240108
1339,3238639635,0.736826,-0.600509,-0.221514,0.217734,0.259953,-0.099727,0.262938
1340,3238672969,0.737956,-0.599914,-0.220818,0.216253,0.141712,-0.165597,0.272952
1341,3238706303,0.738563,-0.598841,-0.222303,0.215629,0.250480,-0.174122,0.130795
1342,3238739637,0.739361,-0.597875,-0.223426,0.214412,0.283347,-0.061226,0.012077
1343,3238772971,0.740818,-0.596924,-0.223181,0.212277,0.120420,-0.136197,-0.025444
1344,3238806305,0.742079,-0.596140,-0.222633,0.210645,0.057049,-0.216323,-0.076752
1345,3238839639,0.742714,-0.595875,-0.221905,0.209923,0.013759,-0.164838,0.025434
1346,3238872973,0.743427,-0.595939,-0.220095,0.209123,-0.121929,-0.167316,0.114323
1347,3238906307,0.744564,-0.595955,-0.217560,0.207677,-0.308811,-0.300447,0.252459
1348,3238939641,0.745998,-0.595604,-0.215270,0.205920,-0.448907,-0.344543,0.250514
1349,3238972975,0.747298,-0.594782,-0.214194,0.204699,-0.565204,-0.418675,0.145568
1350,3239006309,0.747999,-0.593352,-0.215250,0.205178,-0.538766,-0.368710,-0.090384
1351,3239039643,0.748012,-0.591506,-0.218198,0.207335,-0.248212,-0.231071,-0.316426
1352,3239072977,0.747713,-0.589775,-0.221173,0.210176,0.016658,-0.148442,-0.282690
1353,3239106311,0.747281,-0.588321,-0.223328,0.213481,0.002911,-0.161293,-0.271473
1354,3239139645,0.746348,-0.586847,-0.226295,0.217639,0.023076,-0.203880,-0.285841
1355,3239172979,0.744915,-0.585462,-0.230382,0.221947,0.127499,-0.168729,-0.045573
1356,3239206313,0.743670,-0.584548,-0.233690,0.225053,0.068111,-0.165415,0.376147
1357,3239239647,0.743085,-0.583950,-0.235610,0.226529,-0.409095,-0.170487,0.529325
1358,3239272981,0.743220,-0.582680,-0.237662,0.227212,-0.751783,-0.207035,0.387872
1359,3239306315,0.743885,-0.580273,-0.240778,0.227916,-0.835532,-0.261981,0.331160
1360,3239339649,0.744654,-0.577001,-0.244823,0.229396,-0.654385,-0.306751,0.309067
1361,3239372983,0.745106,-0.573498,-0.249335,0.231840,-0.517899,-0.357316,0.341746
1362,3239406317,0.745311,-0.570063,-0.253267,0.235364,-0.440282,-0.459505,0.595686
1363,3239439651,0.745454,-0.566735,-0.256136,0.239800,-0.415706,-0.689894,0.590781
1364,3239472985,0.745542,-0.563145,-0.258948,0.244914,-0.476545,-0.856116,0.387160
1365,3239506319,0.745749,-0.559006,-0.262206,0.250239,-0.609704,-0.918534,-0.021443
1366,3239539653,0.745545,-0.554509,-0.266607,0.256131,-0.603061,-1.005885,-0.329713
1367,3239572987,0.743586,-0.549851,-0.273824,0.264130,-0.403821,-0.883678,-0.340304
1368,3239606321,0.739424,-0.545712,-0.283419,0.274090,-0.014040,-0.633466,-0.109782
1369,3239639655,0.733705,-0.542681,-0.293358,0.284808,0.135498,-0.383168,0.221160
1370,3239672989,0.727745,-0.540582,-0.301702,0.295187,0.024258,-0.100445,0.372888
1371,3239706323,0.722648,-0.539035,-0.307841,0.304066,-0.075662,0.155414,0.238015
1372,3239739657,0.718844,-0.537976,-0.312131,0.310517,-0.127285,0.407043,0.149467
1373,3239772991,0.716293,-0.537199,-0.314922,0.314907,-0.182717,0.538782,0.247525
1374,3239806325,0.714731,-0.536608,-0.316303,0.318063,-0.385677,0.411772,0.270213
1375,3239839659,0.713485,-0.535735,-0.317781,0.320847,-0.435459,0.407774,0.433721
1376,3239872993,0.712982,-0.534555,-0.318783,0.322933,-0.257406,0.385455,0.531989
1377,3239906327,0.713902,-0.533347,-0.317860,0.323806,-0.182993,0.183862,0.389855
1378,3239939661,0.715393,-0.532021,-0.316388,0.324138,-0.280714,-0.100699,0.221756
1379,3239972995,0.716830,-0.530414,-0.315464,0.324498,-0.094939,-0.163713,0.039086
1380,3240006329,0.718549,-0.529129,-0.314168,0.324050,0.145121,-0.241133,-0.164219
1381,3240039663,0.720316,-0.528843,-0.312043,0.322647,0.074127,-0.394178,-0.294893
1382,3240072997,0.721001,-0.529666,-0.310118,0.321620,-0.147889,-0.414798,-0.274154
1383,3240106331,0.720189,-0.531488,-0.308954,0.321554,-0.243017,-0.284241,-0.013760
1384,3240139665,0.718858,-0.533586,-0.307821,0.322143,-0.483392,-0.172897,0.227489
1385,3240172999,0.718001,-0.535100,-0.306200,0.323087,-0.540400,0.064623,0.235796
1386,3240206333,0.717439,-0.536594,-0.303561,0.324344,-0.716609,0.147723,0.394186
1387,3240239667,0.716432,-0.538168,-0.300535,0.326771,-0.679442,0.285638,0.310581
1388,3240273001,0.716001,-0.539868,-0.296668,0.328440,-0.166697,0.282414,0.259790
1389,3240306335,0.717314,-0.542069,-0.290646,0.327334,0.034818,0.094410,0.145111
1390,3240339669,0.719267,-0.544580,-0.284688,0.324100,0.040935,-0.057673,-0.038060
1391,3240373003,0.721047,-0.547543,-0.279581,0.319567,0.314629,-0.118138,0.070158
1392,3240406337,0.722784,-0.551076,-0.274501,0.313924,0.400413,-0.117988,0.175674
1393,3240439671,0.724746,-0.554798,-0.269110,0.307445,0.256917,-0.177286,0.158903
1394,3240473005,0.726752,-0.558135,-0.264279,0.300790,-0.105446,-0.144979,-0.026010
1395,3240506339,0.728337,-0.560995,-0.260623,0.294766,-0.406407,-0.139969,-0.103796
1396,3240539673,0.729001,-0.563568,-0.258305,0.290221,-0.320248,0.033050,-0.044517
1397,3240573007,0.729224,-0.565897,-0.256242,0.286938,-0.292350,0.119316,0.093677
1398,3240606341,0.729730,-0.567468,-0.254150,0.284397,-0.270187,-0.016084,0.051920
1399,3240639675,0.730313,-0.567975,-0.253360,0.282589,-0.196041,-0.158619,0.024209
1400,3240673009,0.730601,-0.567745,-0.254063,0.281676,-0.109599,-0.182525,0.101887
1401,3240706343,0.730591,-0.567073,-0.255636,0.281632,-0.033597,-0.157202,0.034458
1402,3240739677,0.730276,-0.566191,-0.257908,0.282152,-0.008476,-0.098786,-0.016881
1403,3240773011,0.729792,-0.565387,-0.260301,0.282816,-0.022467,-0.027918,0.095680
1404,3240806345,0.729459,-0.564971,-0.261828,0.283098,-0.077717,0.038995,0.229872
1405,3240839679,0.729581,-0.564937,-0.262019,0.282675,-0.198818,0.010532,0.303835
1406,3240873013,0.730143,-0.564765,-0.261676,0.281882,-0.297789,-0.042020,0.150569
1407,3240906347,0.730682,-0.564194,-0.261804,0.281512,-0.251560,-0.050049,0.059051
1408,3240939681,0.730959,-0.563355,-0.262247,0.282058,-0.085678,-0.094418,0.127731
1409,3240973015,0.731595,-0.562814,-0.261097,0.282557,0.451323,-0.044488,0.347357
1410,3241006349,0.733726,-0.563296,-0.255547,0.281140,0.198851,0.064708,0.438563
1411,3241039683,0.735711,-0.563841,-0.250256,0.279617,-0.065843,-0.153681,0.178127
1412,3241073017,0.735946,-0.563509,-0.249819,0.280057,0.160494,-0.223647,0.039924
1413,3241106351,0.734964,-0.562432,-0.252969,0.281966,0.312618,-0.105917,-0.018667
1414,3241139685,0.733617,-0.561262,-0.256739,0.284388,0.343906,0.033508,-0.131400
1415,3241173019,0.732018,-0.560461,-0.259990,0.287121,0.358317,0.068713,-0.090051
1416,3241206353,0.730063,-0.559929,-0.263077,0.290309,0.268427,0.170462,0.081040
1417,3241239687,0.728108,-0.559087,-0.266152,0.294012,0.202386,0.250379,0.384054
1418,3241273021,0.726751,-0.557253,-0.269111,0.298132,0.149328,0.136176,0.567218
1419,3241306355,0.725828,-0.553641,-0.273808,0.302797,0.239736,-0.313688,0.583605
1420,3241339689,0.723330,-0.549196,-0.282752,0.308593,0.490553,-0.540784,0.876607
1421,3241373023,0.718503,-0.547315,-0.291967,0.314573,0.622817,-0.042150,0.561335
1422,3241406357,0.714336,-0.550170,-0.294292,0.316907,0.462805,0.470181,0.077809
1423,3241439691,0.713842,-0.557107,-0.286694,0.312839,0.389017,0.492904,-0.350913
1424,3241473025,0.715881,-0.565929,-0.273509,0.304027,0.054632,0.264152,-0.395238
1425,3241506359,0.718054,-0.573804,-0.260873,0.295117,-0.265215,0.187694,-0.135195
1426,3241539693,0.719070,-0.579291,-0.251848,0.289713,-0.450349,0.189967,0.004230
1427,3241573027,0.718442,-0.581892,-0.248179,0.289226,-0.527989,0.224960,0.155497
1428,3241606361,0.716586,-0.581628,-0.249617,0.293095,-0.396423,0.154531,0.332041
1429,3241639695,0.714081,-0.579538,-0.254312,0.299248,-0.299712,0.013906,0.540303
1430,3241673029,0.710880,-0.577747,-0.259445,0.305854,-0.053906,0.215969,0.532932
1431,3241706363,0.708168,-0.578451,-0.260361,0.310008,0.117577,0.533353,0.381399
1432,3241739697,0.707437,-0.581795,-0.255041,0.309841,0.123150,0.588163,0.136680
1433,3241773031,0.708167,-0.586137,-0.246851,0.306608,0.124586,0.535216,-0.206573
1434,3241806365,0.709346,-0.589955,-0.239385,0.302452,0.128688,0.542297,-0.288222
1435,3241839699,0.710387,-0.592713,-0.233643,0.299086,0.148063,0.561986,-0.288796
1436,3241873033,0.710652,-0.594536,-0.230215,0.297492,0.286774,0.587402,-0.205690
1437,3241906367,0.710379,-0.596104,-0.228214,0.296549,0.498482,0.775149,0.183628
1438,3241939701,0.710282,-0.597403,-0.227812,0.294468,0.557503,0.867454,0.396283
1439,3241973035,0.711604,-0.598234,-0.227701,0.289635,0.738059,0.982014,0.426869
1440,3242006369,0.715424,-0.598778,-0.225444,0.280731,0.679376,1.021152,0.019559
1441,3242039703,0.720773,-0.599047,-0.221751,0.269175,0.314425,0.816957,-0.231227
1442,3242073037,0.726068,-0.598721,-0.218829,0.257823,0.224743,0.648496,-0.240552
1443,3242106371,0.730896,-0.597671,-0.216839,0.248117,0.171193,0.437766,-0.189188
1444,3242139705,0.735006,-0.595889,-0.216285,0.240631,0.104206,0.232534,-0.168886
1445,3242173039,0.738390,-0.593615,-0.217132,0.235065,0.111421,0.061159,-0.037661
1446,3242206373,0.741359,-0.591219,-0.218483,0.230463,0.136443,-0.061520,0.040648
1447,3242239707,0.744426,-0.588835,-0.219440,0.225722,0.102784,-0.121633,0.070939
1448,3242273041,0.747836,-0.586121,-0.220597,0.220319,0.000555,-0.238976,0.082431
1449,3242306375,0.751195,-0.582616,-0.223795,0.214897,0.181263,-0.416520,0.379454
1450,3242339709,0.754030,-0.578960,-0.228138,0.210232,0.272827,-0.512953,0.420375
1451,3242373043,0.755717,-0.576067,-0.232839,0.206943,0.248532,-0.610752,0.266731
1452,3242406377,0.755591,-0.575034,-0.237505,0.204965,0.418992,-0.473566,-0.086685
1453,3242439711,0.754795,-0.576585,-0.238624,0.202220,0.522163,-0.167117,-0.252420
1454,3242473045,0.754725,-0.580249,-0.233973,0.197380,0.299020,-0.121989,-0.195119
1455,3242506379,0.755170,-0.584736,-0.225821,0.191855,0.113263,-0.298126,0.043301
1456,3242539713,0.755271,-0.589009,-0.217756,0.187664,0.084689,-0.434251,0.368984
1457,3242573047,0.754513,-0.593235,-0.210735,0.185400,0.090550,-0.890144,0.823476
1458,3242606381,0.753156,-0.596190,-0.207538,0.185047,-0.353905,-0.413021,1.070100
1459,3242639715,0.751117,-0.597461,-0.209876,0.186590,-0.285634,-0.133111,0.691716
1460,3242673049,0.750429,-0.597240,-0.213047,0.186474,-0.212776,0.228824,0.466858
1461,3242706383,0.752232,-0.595830,-0.213339,0.183360,-0.262707,0.283734,0.231037
1462,3242739717,0.755472,-0.594209,-0.210224,0.178843,-0.281704,0.199935,-0.027003
1463,3242773051,0.758108,-0.592987,-0.206762,0.175754,0.081009,0.167960,-0.153377
1464,3242806385,0.759666,-0.591874,-0.204495,0.175428,-0.277766,0.378841,0.129372
1465,3242839719,0.760225,-0.590782,-0.203043,0.178350,-0.059678,-0.234798,0.263268
1466,3242873053,0.760821,-0.588286,-0.204751,0.182066,-0.081009,-0.297223,0.357050
1467,3242906387,0.762294,-0.581605,-0.214047,0.186624,-0.517704,0.334387,0.798446
1468,3242939721,0.765010,-0.571941,-0.226450,0.190696,-0.061715,0.664461,0.541613
