SampleTimeFine,D_Leg_Acc_X,D_Leg_Acc_Y,D_Leg_Acc_Z,L_Wrist_Acc_X,L_Wrist_Acc_Y,L_Wrist_Acc_Z,Activity
2107490014,0.017802,-0.30097,0.259091,0.188189,-0.26886,-0.034895,0
2107523348,-0.418778,-0.081392,0.203437,0.327303,-0.220737,-0.047976,0
2107556682,0.002322,-0.338007,0.33373,0.472223,-0.268668,-0.288443,0
2107590016,1.174575,-0.725425,0.292087,0.461255,-0.378521,-0.373032,0
2107623350,0.34321,0.121107,-0.1363,0.484012,-0.283112,-0.368847,0
2107656684,-0.461261,-0.008899,0.538117,0.374371,-0.134273,-0.53845,0
2107690018,-0.412344,-1.273611,0.287045,-0.030093,-0.050872,-0.511608,0
2107723352,1.07974,-0.701805,-0.169789,-0.302446,0.199962,-0.462898,0
2107756686,-0.092719,-0.06128,-0.056294,-0.251658,0.217718,-0.528869,0
2107790020,-0.128963,0.08129,0.290756,-0.092621,-0.013207,-0.809453,0
2107823354,-0.014375,-0.63302,-0.256602,-0.110075,-0.160331,-0.598537,0
2107856688,-0.152695,1.17569,0.020178,-0.063912,0.00939,-0.539783,0
2107890022,-0.112073,0.590312,-0.099025,-0.145284,0.150619,-0.104766,0
2107923356,-0.198591,-0.009519,-0.264587,-0.043966,0.094631,0.032023,0
2107956690,-0.341268,-0.023802,-0.17834,0.009874,-0.308485,-0.185721,0
2107990024,-0.384184,-0.084104,0.186114,-0.150603,-0.092618,0.527794,0
2108023358,0.1177,0.13726,-0.316447,0.320143,0.324099,0.712345,0
2108056692,-0.588473,-0.312171,-0.434123,0.256437,0.284442,0.655535,0
2108090026,-0.18969,0.38752,-0.104593,0.286785,0.339897,0.338374,0
2108123360,0.137154,0.48917,0.089139,0.292656,0.483545,-0.035626,0
2108156694,0.870621,0.186941,-0.065115,0.658867,0.051437,-0.77704,0
2108190028,0.757136,-0.302801,0.038327,-0.101171,-0.209248,-1.062954,0
2108223362,0.727316,0.087574,0.876085,-0.369562,0.238474,-0.895829,0
2108256696,1.188402,0.146972,0.478699,-0.009295,-0.143358,-1.072731,0
2108290030,-0.005569,-0.966826,0.765131,-0.820181,-0.458893,-0.205307,0
2108323364,0.62711,0.28848,0.67716,-1.025643,0.760414,0.302701,0
2108356698,0.759658,-0.466215,0.390421,-0.290878,0.948477,0.420022,0
2108390032,0.047756,-0.235869,0.042418,-0.198356,0.267347,0.233314,0
2108423366,0.123953,-0.053585,-0.361174,0.008725,-0.068578,0.319073,0
2108456700,-0.369302,0.523897,0.132593,-0.069142,0.144846,0.826562,0
2108490034,-0.435418,-0.032394,0.004722,-0.125772,0.270532,0.707117,0
2108523368,-0.597921,0.340245,-0.218206,-0.146846,0.09244,0.972177,0
2108556702,-0.433656,0.005631,-0.16118,0.031402,-0.239222,0.563366,0
2108590036,-0.391834,-0.26328,-0.239885,0.134442,-0.341485,0.180511,0
2108623370,-0.309741,-0.267073,-0.342764,0.437731,-0.320492,-0.485261,0
2108656704,0.028248,-0.958323,-0.44558,0.464909,-0.431867,-1.073368,0
2108690038,-0.29604,-0.865321,-0.525926,0.173526,-0.397306,-1.309042,0
2108723372,-0.045798,-0.245579,-0.374786,-0.060947,-0.223371,-1.549814,0
2108756706,0.186589,-0.300481,0.065476,-0.113808,-0.274646,-1.510061,0
2108790040,0.14175,-0.374423,0.069024,-0.171486,-0.396146,-1.272598,0
2108823374,0.042704,-0.006325,0.113517,0.034458,-0.132896,-0.763251,0
2108856708,0.048846,0.047869,0.031496,-0.09142,5.6e-05,-0.27499,0
2108890042,0.042501,-0.397374,-0.454327,0.092925,0.080417,0.097271,0
2108923376,0.112846,-0.233959,-0.342953,-0.053841,-0.189633,0.119762,0
2108956710,0.191229,-0.168628,-0.092055,-0.004458,0.155903,-0.108148,0
2108990044,0.400597,-0.035796,-0.007607,0.392893,0.719442,0.455787,0
2109023378,0.672677,0.370191,0.152263,0.648448,1.03365,1.110476,0
2109056712,0.517894,0.29535,0.25515,1.070988,1.745991,0.134001,0
2109090046,-0.647881,0.15744,0.069842,0.799678,1.102006,-1.274587,0
2109123380,-0.083249,-0.193999,-0.020067,-0.328284,-0.068378,-1.168444,0
2109156714,-0.201189,-0.08441,0.176387,-1.153396,-1.026563,-0.489908,0
2109190048,0.292789,0.467663,-0.078898,-1.136969,-0.878723,-0.36137,0
2109223382,0.559312,0.485052,0.303025,-1.099192,-1.021701,-0.40691,0
2109256716,0.463849,-0.022945,0.106367,-0.195704,-1.007018,-0.551567,0
2109290050,0.798759,0.044573,0.212603,0.187448,-0.722087,-0.121656,0
2109323384,0.059675,-0.058803,0.343412,0.715831,-0.020274,-0.356143,0
2109356718,0.442321,-0.583465,-0.328081,0.535377,0.269898,-0.853835,0
2109390052,0.294765,-0.484627,-0.386584,0.507363,0.430882,-0.583397,0
2109423386,0.005577,-0.140865,-0.321959,0.41943,0.569452,-0.652808,0
2109456720,-0.28311,-0.360789,-0.256634,0.396544,0.419743,-0.61748,0
2109490054,-0.539664,-0.753109,-0.291818,0.29851,0.640939,0.697051,0
2109523388,-0.087,-0.210691,-0.377508,0.013369,0.822549,1.264873,0
2109556722,-0.418135,-0.800632,-0.204877,0.07313,0.721326,1.628474,0
2109590056,-0.062857,-0.183642,-0.162159,-0.01262,0.379397,2.200344,0
2109623390,0.019153,-0.038169,0.00613,0.063413,0.203359,1.958159,0
2109656724,-0.293571,-0.768693,0.22223,-0.094646,-0.214669,2.090924,0
2109690058,0.122654,-0.14072,-0.089725,-0.143542,-0.127744,1.600474,0
2109723392,0.15735,0.309014,0.63426,0.007582,-0.044694,1.416439,0
2109756726,0.197642,-0.223005,0.243025,0.026507,0.043538,0.985045,0
2109790060,0.256633,-0.352144,0.549012,0.188439,-0.024865,0.927722,0
2109823394,0.544957,-0.524314,0.292203,0.681689,-0.382263,1.865175,0
2109856728,0.577186,0.357307,0.242839,-0.041851,0.383815,-0.837294,0
2109890062,-0.019104,0.374463,0.126483,-0.493734,0.859146,-2.161011,0
2109923396,-0.392406,-0.24688,-0.000674,-0.48291,0.246387,-0.465841,0
2109956730,-0.1595,-0.837388,-0.059284,-0.456892,0.164814,0.584952,0
2109990064,0.283052,-0.579024,-0.365141,-0.339641,0.025894,0.456086,0
2110023398,0.26448,-0.284214,0.308717,-0.22734,-0.531051,0.447695,0
2110056732,0.311255,-0.368233,0.108401,-0.108928,-0.723992,0.3271,0
2110090066,0.081703,-0.363461,0.046217,-0.187598,-0.714504,0.494928,0
2110123400,0.339041,-0.716814,0.135462,0.069135,-0.682084,0.838167,0
2110156734,0.20281,-0.555992,-0.031271,0.112191,-0.273064,0.696143,0
2110190068,0.00462,-0.154509,-0.177455,-0.010434,-0.102932,0.681135,0
2110223402,-0.043005,0.043135,-0.039731,-0.056808,0.224722,0.249334,0
2110256736,0.107278,-0.131652,-0.063483,-0.164615,0.206333,0.026945,0
2110290070,0.317213,-0.223613,0.416205,-0.092976,0.254225,0.002143,0
2110323404,0.318431,-0.472269,0.32619,-0.178059,0.309806,-0.498034,0
2110356738,0.319316,0.310249,0.069885,-0.365401,0.527306,-0.37244,0
2110390072,-0.020296,0.539189,0.301614,0.55794,0.930043,0.069414,0
2110423406,-0.431199,-0.066071,0.039207,0.198131,0.459351,-0.587953,0
2110456740,0.095527,-0.101095,-0.05008,-0.328113,-0.009952,-0.236447,0
2110490074,-0.273781,-0.336903,0.127347,-0.013568,0.00662,0.175286,0
2110523408,-0.3534,-0.470701,-0.163486,-0.13965,-0.096623,-0.137233,0
2110556742,-0.244159,-0.410012,-0.043816,1.011648,0.285622,0.208797,0
2110590076,-0.163686,-0.386525,0.241308,1.011513,0.310766,0.270452,0
2110623410,-0.229138,-0.213139,-0.096432,0.008764,-0.019265,1.18236,0
2110656744,-0.084756,-0.131135,0.020019,-0.192988,-0.369141,1.95284,0
2110690078,-0.110349,-0.494628,0.05553,-0.402642,-0.750908,1.989802,0
2110723412,-0.14996,-0.253395,0.721787,-0.723924,-0.518856,1.264091,0
2110756746,0.233842,-0.229993,1.509775,-1.05757,-0.564352,1.019793,0
2110790080,1.197557,-1.200475,1.745511,-0.711086,-0.113322,1.260409,0
2110823414,0.809302,-0.507595,2.024837,-0.694236,0.140187,0.660337,0
2110856748,-0.876993,-0.870744,1.736579,-1.110834,0.411274,0.629708,0
2110890082,-0.718238,-0.834012,1.153127,-0.949868,0.574251,1.896677,0
2110923416,-0.614334,-0.779075,0.115239,0.026635,0.520736,2.055694,0
2110956750,-0.371379,0.034455,0.299128,0.371263,0.609125,1.31623,0
2110990084,-0.233988,0.120815,-0.386918,0.031874,2.53713,-0.879354,0
2111023418,-0.036623,-0.416286,-0.457775,-1.644075,0.493705,2.125679,0
2111056752,0.143482,-0.044847,-0.253366,-0.070183,0.274239,1.812366,0
2111090086,0.992505,-0.367187,-0.791797,0.475611,0.11468,1.229745,0
2111123420,0.734101,0.139179,-0.079159,0.309397,-1.107226,1.206244,0
2111156754,-0.056281,0.1749,-0.563105,0.714541,-0.841001,0.989887,0
2111190088,-0.170109,-0.042175,-0.246896,-0.3392,-0.187544,0.291991,0
2111223422,0.209781,-0.122774,-0.256989,-0.209792,0.07263,0.144597,0
2111256756,0.033582,0.000271,-0.457692,-0.511388,-0.023631,-0.43446,0
2111290090,0.354274,0.132132,-0.234069,-0.76975,0.024344,-0.651578,0
2111323424,0.504924,0.015886,0.088633,0.27189,-0.33906,-1.024766,0
2111356758,0.605088,-0.103983,-0.395485,0.234007,-0.206757,-0.485092,0
2111390092,0.230539,-0.024724,-0.424312,0.349029,-0.285674,-0.4926,0
2111423426,0.224464,-0.470391,-0.205458,0.411419,-0.285776,-0.351233,0
2111456760,0.13932,-0.172718,-0.380322,0.519415,-0.47274,-0.035708,0
2111490094,-0.028381,-0.147086,-0.089299,0.533288,-0.633759,-0.156589,0
2111523428,0.142849,0.132227,-0.143447,0.348284,-0.658964,-0.10431,0
2111556762,0.633323,-0.18119,-0.252669,-0.044404,-0.322471,-0.251579,0
2111590096,0.39635,-0.286265,-0.159713,-0.089627,-0.377556,-0.37065,0
2111623430,0.485878,-0.530508,0.251664,-0.070072,-0.504616,-0.194404,0
2111656764,0.46865,-0.033332,0.206264,0.09844,-0.578419,-0.106809,0
2111690098,0.249385,-0.240492,-0.062418,0.218785,-0.219374,-0.316961,0
2111723432,0.251124,-0.336842,0.062122,0.065324,0.051886,-0.402692,0
2111756766,0.059977,-0.028255,-0.438472,0.489028,0.260428,-0.745219,0
2111790100,0.065646,-0.318914,-0.148199,0.336338,0.272926,-0.481365,0
2111823434,0.671665,-0.351422,0.485381,0.098605,0.599948,-0.376225,0
2111856768,-0.173127,0.159613,-0.505838,0.212453,0.352722,-0.59226,0
2111890102,0.127594,0.023119,-0.305322,0.183837,0.350944,-0.663908,0
2111923436,0.052689,-0.10919,0.133692,-0.139305,0.272254,-0.380075,0
2111956770,-0.270917,-0.23143,-0.322751,-0.219684,0.264736,-0.471525,0
2111990104,-0.16429,-0.233217,-0.299674,-0.124545,0.275807,-0.320017,0
2112023438,0.043087,-0.011723,0.173707,-0.260575,0.225178,-0.411294,0
2112056772,0.245892,-0.041091,-0.015143,-0.18057,0.047016,-0.336709,0
2112090106,0.07166,0.052168,0.230454,0.052716,-0.020933,-0.404084,0
2112123440,0.003169,-0.139964,0.119812,0.029195,-0.064806,-0.299896,0
2112156774,0.136545,-0.01576,-0.010513,0.034174,-0.041436,-0.346269,0
2112190108,0.08143,0.272875,0.070943,-0.026203,0.028528,-0.193088,0
2112223442,0.049666,-0.190824,-0.040914,0.100908,-0.043158,0.010105,0
2112256776,0.648376,-1.495538,-0.276681,0.156122,-0.109658,0.14773,0
2112290110,0.386347,-1.498042,0.145136,0.188108,0.058126,0.083657,0
2112323444,0.437293,-0.448439,0.040985,0.172046,0.100711,-0.069606,0
2112356778,-0.013786,-0.357871,0.185178,0.065175,0.051333,-0.040238,0
2112390112,0.314408,0.133008,0.202581,0.008937,0.102689,-0.085324,0
2112423446,-0.065019,0.299693,0.223363,-0.094019,0.042305,-0.13211,0
2112456780,-0.016238,0.21676,0.454467,-0.006966,-0.025538,-0.315282,0
2112490114,0.262108,0.027499,-0.259008,0.056953,-0.09003,-0.245875,0
2112523448,0.547635,-0.026991,-0.361646,-0.063699,-0.11844,-0.136189,0
2112556782,-0.037063,-0.050686,0.428714,-0.007464,0.053657,-0.024975,0
2112590116,0.683935,-0.417961,-0.065603,0.076998,0.217693,-0.134451,0
2112623450,0.34213,-0.356992,-0.041323,-0.014586,0.077772,-0.162885,0
2112656784,0.167602,-0.016793,0.262627,-0.04632,0.148078,-0.14684,0
2112690118,0.198507,0.123355,0.090524,-0.079415,0.189551,-0.248431,0
2112723452,0.268417,-0.232288,0.044506,0.095243,0.032253,-0.364652,0
2112756786,0.028319,-0.075993,0.089319,-0.071424,0.033906,-0.261162,0
2112790120,-0.150847,-0.397204,0.203163,-0.078157,0.200284,-0.278265,0
2112823454,0.508842,-0.382947,-0.090517,-0.02976,0.108241,-0.304939,0
2112856788,-0.188033,-0.214665,0.114083,-0.191913,0.012821,-0.153821,0
2112890122,0.075895,-0.044386,0.265669,-0.141452,0.053721,-0.196023,0
2112923456,0.548415,0.087171,-0.182709,-0.208798,0.097366,-0.166127,0
2112956790,-0.023865,0.159932,0.385257,-0.320676,0.083632,-0.032304,0
2112990124,0.077703,-0.373361,0.328716,-0.22239,0.151287,-0.092335,0
2113023458,0.371784,-0.614437,0.01115,-0.119298,0.140568,-0.121299,0
2113056792,0.265186,-0.316429,0.08552,-0.022519,0.194451,0.054101,0
2113090126,0.334334,-0.178063,0.104775,-0.002105,0.196132,0.042978,0
2113123460,-0.181992,0.151469,0.434595,-0.032517,0.166284,0.127995,0
2113156794,0.241466,-0.075767,0.05067,0.035925,0.202104,0.110559,0
2113190128,-0.060612,-0.061143,-0.020028,0.020935,0.092083,0.101346,0
2113223462,0.154506,-0.123188,0.140628,-0.055055,0.062446,0.044759,0
2113256796,0.242847,-0.426486,0.16147,-0.055979,-0.015382,-0.072569,0
2113290130,0.033719,-0.223022,0.0338,-0.111783,-0.036961,-0.113587,0
2113323464,0.023916,-0.177398,0.13347,-0.141262,-0.054074,-0.148085,0
2113356798,0.19647,-0.154871,-0.081772,0.00414,0.02862,0.091665,0
2113390132,-0.091736,0.195734,0.434399,0.157815,0.168646,0.190883,0
2113423466,0.3878,0.011064,0.068795,0.025914,0.211863,0.073151,0
2113456800,-0.024929,-0.015543,0.28258,0.114401,0.221806,0.049931,0
2113490134,0.108394,-0.346576,0.21465,0.106937,0.195764,-0.078876,0
2113523468,0.075567,-0.467698,0.075152,-0.038777,0.040743,-0.154935,0
2113556802,0.033695,-0.336809,0.141309,-0.044907,-0.053868,-0.051854,0
2113590136,0.476079,0.020569,0.36433,-0.140589,-0.06012,-0.0605,0
2113623470,0.408888,0.351833,0.234159,-0.207974,0.018262,0.105758,0
2113656804,0.530285,0.44037,-0.008269,-0.208401,-0.015026,0.060171,0
2113690138,0.015088,-0.244165,0.151885,-0.141925,0.040923,-0.174298,0
2113723472,-0.583143,-0.707658,0.229538,-0.103903,0.025987,-0.085064,0
2113756806,-0.524018,-0.710877,0.004148,-0.141979,0.177278,-0.125051,0
2113790140,-0.339431,-0.519571,0.191401,-0.142121,0.196783,-0.194758,0
2113823474,-0.379824,-0.190064,0.26734,-0.166284,0.17246,-0.18065,0
2224659024,0.131939,0.077129,0.176567,0.63278,-0.459905,0.422726,0
2224692358,-0.043409,-0.16577,0.207097,0.807469,-0.425937,0.342133,0
2224725692,-0.136182,-0.200102,0.236177,0.928679,-0.536577,0.291886,0
2224759026,-0.283833,-0.371657,0.179434,0.951617,-0.591802,0.080264,0
2224792360,-0.503713,-0.758978,0.231858,0.826954,-0.53474,-0.093719,0
2224825694,-0.021043,-0.604692,0.30584,0.619168,-0.452412,-0.297363,0
2224859028,0.113692,-0.32595,0.004676,0.473893,-0.539597,-0.567896,0
2224892362,-0.067758,-0.421509,0.373653,0.580847,-0.586052,-0.770983,0
2224925696,-0.256746,-0.770747,0.052037,0.725073,-0.533041,-0.659735,0
2224959030,0.005975,-1.170516,0.31951,0.651744,-0.646085,-0.77926,0
2224992364,0.767093,0.101942,-0.112065,0.557144,-0.603054,-0.826155,0
2225025698,1.521302,0.792575,-0.048996,0.445535,-0.437371,-1.093782,0
2225059032,0.041779,-0.122868,0.347609,0.821747,-0.359002,-1.270126,0
2225092366,0.080318,0.411583,-0.263899,1.115236,-0.029367,-1.468114,0
2225125700,-0.001629,1.116299,-0.83672,0.98689,-0.202135,-1.873615,0
2225159034,-1.420147,0.411716,0.1922,1.11926,-0.260571,-0.717342,0
2225192368,0.431753,0.592165,-0.745819,0.999906,-0.357758,-0.284692,0
2225225702,-0.59667,-0.113065,-0.432061,0.453699,-0.240605,0.196316,0
2225259036,-0.217125,0.670905,0.026195,0.267722,-0.275891,0.620261,0
2225292370,0.657612,0.866359,-0.632728,0.386165,0.135106,0.374564,0
2225325704,0.268048,-0.080147,0.194524,0.36929,0.160765,0.683939,0
2225359038,1.537474,-0.394058,-0.128387,-0.81439,0.243457,0.609753,0
2225392372,0.72785,-0.749635,-0.356769,-0.559116,0.87877,0.184657,0
2225425706,-0.797676,0.459817,-0.313991,-1.372763,-0.788293,0.521331,0
2225459040,-0.787375,1.07311,0.339474,-0.455684,2.071534,-0.740659,0
2225492374,-0.789843,0.121568,0.02926,-0.701274,1.63711,-1.127195,0
2225525708,-1.629824,0.427101,-0.16083,-1.524492,0.785656,-1.115917,0
2225559042,-1.493792,0.647705,0.137212,-2.056407,0.960086,-0.691081,0
2225592376,0.326965,-0.625133,0.048291,-2.199831,0.491568,-1.401406,0
2225625710,1.041239,-0.57098,-0.313989,-1.321124,-0.128854,-0.820826,0
2225659044,1.800449,-0.084672,-0.390071,-0.448197,0.024095,-0.257119,0
2225692378,1.515952,-0.374526,0.173496,0.091466,0.02623,-0.74805,0
2225725712,0.720754,0.244316,0.259048,0.160416,-0.366617,-0.400642,0
2225759046,0.218724,0.761907,0.152178,-0.201053,0.151282,-0.024329,0
2225792380,-0.384946,0.637486,0.494139,-0.562792,0.199717,0.223255,0
2225825714,-0.547734,0.58662,0.119889,-1.051376,0.538085,0.384153,0
2225859048,-0.417002,0.01301,-0.103038,-1.24894,-0.414035,-0.247274,0
2225892382,-0.340335,-1.18008,-0.220545,-0.336415,0.291871,0.364511,0
2225925716,-0.007587,-0.25836,-0.157894,0.714788,2.025336,2.115131,0
2225959050,-0.108259,0.480783,-0.135536,0.829683,1.007157,1.153359,0
2225992384,0.551164,-0.396458,0.317891,0.897154,-0.116418,-0.022158,0
2226025718,0.73735,0.110752,0.340658,0.340662,-0.616284,-0.4121,0
2226059052,0.26869,0.700693,0.061702,0.050711,-0.733089,-1.299615,0
2226092386,0.142063,0.001115,-0.223292,-0.158162,-0.701495,-0.626472,0
2226125720,0.751838,-0.514845,-0.101651,0.397841,0.137641,-1.19856,0
2226159054,1.579049,0.147874,-0.261626,0.375265,-1.156761,1.208504,0
2226192388,-0.454288,1.008186,-0.115292,2.114502,0.296458,2.878776,0
2226225722,-0.865798,0.230998,0.050985,0.109648,0.357707,1.82751,0
2226259056,-0.400828,-0.524868,-0.268375,-1.117995,-0.216396,0.191617,0
2226292390,-0.521454,-0.420015,0.023787,-0.984189,-0.59222,-0.185231,0
2226325724,-0.407685,-0.539477,-0.67942,-1.012467,-0.667637,-0.6933,0
2226359058,-0.262602,-1.143562,0.415225,-0.278213,-0.053318,-0.836532,0
2226392392,-0.835512,-0.063177,0.19977,-1.292474,-0.51472,0.564197,0
2226425726,0.218445,-0.490216,0.03346,-0.36923,0.249588,0.938222,0
2226459060,0.7329,-0.320998,0.868637,-0.107545,0.317696,2.483714,0
2226492394,-0.260776,0.028655,0.596745,-0.449533,-1.166684,1.021406,0
2226525728,0.060887,0.28104,0.403975,-0.00148,-0.040503,2.230913,0
2226559062,0.181696,0.099271,0.447891,2.487553,1.95848,3.566072,0
2226592396,0.245179,0.015216,-0.011076,0.405873,-0.795808,1.720866,0
2226625730,0.428214,0.243115,0.004766,1.009603,0.263329,-1.272713,0
2226659064,0.98586,0.312299,0.345251,0.467747,0.409622,-1.723391,0
2226692398,1.044386,0.528257,-0.278731,-2.225276,-1.734319,-2.107413,0
2226725732,0.792161,0.422338,-0.072261,-1.720181,-0.739017,-2.311392,0
2226759066,0.24782,0.193877,0.165765,-1.611021,0.083805,-0.535638,0
2226792400,0.118743,0.221601,-0.221332,-1.634683,-0.065993,-0.101521,0
2226825734,-0.043255,-0.096074,-0.147639,-0.698734,0.25355,-0.76674,0
2226859068,-0.201482,-0.000145,0.048185,0.352698,1.000929,-0.3847,0
2226892402,0.004231,0.25781,-0.02917,1.400638,0.74482,-0.336331,0
2226925736,0.025304,0.142509,-0.00082,1.56381,-0.138075,-0.114124,0
2226959070,0.289753,-0.112498,-0.009816,0.376936,-2.070971,0.838895,0
2226992404,0.212343,-0.16254,0.171033,3.480739,-0.005437,-0.283334,0
2227025738,0.049983,-0.289276,0.086385,1.302133,-0.885553,-0.482351,0
2227059072,-0.659907,-0.255376,0.16972,2.06186,1.728969,-0.707729,0
2227092406,-0.409166,-0.584566,-0.130167,3.946244,4.839032,3.655052,0
2227125740,-0.337543,-0.482608,-0.012309,-0.193291,3.606781,3.996946,0
2227159074,0.082733,-0.413657,0.162502,-5.171764,-1.5016,1.854617,0
2227192408,0.11366,-0.240115,0.760691,-3.686028,-1.478808,1.579272,0
2227225742,0.080342,0.146122,1.013209,-1.520791,0.137367,-0.837543,0
2227259076,0.510752,0.164413,1.520115,-1.393478,-0.978034,-2.775025,0
2227292410,0.131066,0.2766,1.374417,-1.751314,-1.665563,-1.040021,0
2227325744,0.28027,-0.355329,1.319841,-1.376223,-1.630076,1.743837,0
2227359078,0.457577,-0.597392,0.269659,-1.210504,-1.676866,2.136087,0
2227392412,-0.041868,-0.535715,0.261321,0.605283,-0.227666,3.083733,0
2227425746,-0.117039,-1.257955,-0.476068,0.770411,0.074246,2.943574,0
2227459080,0.269754,-0.419591,-0.263932,1.205296,0.284768,3.02013,0
2227492414,0.663964,0.332223,0.079407,2.360202,-0.224427,2.643036,0
2227525748,0.799811,0.485993,-0.72952,2.879804,-0.389055,1.247242,0
2227559082,0.463985,0.451945,-0.252831,1.482905,0.291067,-0.424417,0
2227592416,0.61886,-0.144058,-0.029557,-0.065832,0.201468,-2.314242,0
2227625750,1.157408,-0.001576,-0.022283,-1.016344,0.082267,-3.250716,0
2227659084,0.373853,0.524891,-0.278338,-1.222579,-0.010798,-3.82102,0
2227692418,-0.054713,0.224986,0.136482,-1.062783,0.273866,-3.50283,0
2227725752,0.394577,-0.011929,-0.076756,-1.887007,-0.03664,-2.724045,0
2227759086,0.270644,-0.373434,-0.28187,-1.581119,0.543677,-2.704288,0
2227792420,-0.174144,-0.095136,0.164091,-0.780973,2.349799,1.36798,0
2227825754,-0.249315,0.153463,-0.208909,-0.835764,-0.367968,1.512266,0
2227859088,-0.486021,0.365564,-0.009008,0.059226,-1.283034,3.466838,0
2227892422,0.15688,0.195663,0.060441,2.05832,1.45776,4.102598,0
2227925756,0.32003,-0.261311,-0.453612,3.193448,1.116838,2.804112,0
2227959090,0.005311,-0.402152,-0.11642,2.383606,-0.804308,2.877957,0
2227992424,0.572612,-0.233288,-0.229658,1.677755,-0.898001,1.904068,0
2228025758,0.817908,-0.40047,-1.12406,0.841891,-0.730672,0.973695,0
2228059092,-0.033135,-1.223594,-0.61298,0.125821,-0.136319,0.500971,0
2228092426,-0.131662,-0.033728,0.074213,-0.309935,-0.029559,0.398977,0
2228125760,0.214253,0.584654,-0.203547,-0.418877,0.145798,-1.126864,0
2228159094,-0.0873,0.162722,0.207305,-1.377229,-0.791535,-0.994412,0
2228192428,0.207181,0.497352,0.508104,-1.277982,-0.313606,-1.287764,0
2228225762,0.878425,0.54504,0.056957,-1.572721,-0.271814,-0.867892,0
2228259096,0.464057,0.137961,0.156136,-1.097574,-0.304828,-1.670956,0
2228292430,-0.082245,0.754204,0.277407,-0.904588,-0.617816,-1.883111,0
2228325764,-0.102506,0.011641,-0.335207,-0.118095,0.153911,-1.667213,0
2228359098,0.044067,-0.64548,-0.731749,0.178961,0.235851,-0.804572,0
2228392432,-0.016402,0.34037,0.12601,0.152532,1.672734,-0.681029,0
2228425766,0.16906,-0.024093,0.057339,-0.352056,0.952895,-0.441778,0
2228459100,0.26393,-0.727414,-0.098895,-0.201026,-0.203099,0.647656,0
2228492434,0.503919,-0.073023,0.130371,0.306338,0.254083,1.41077,0
2228525768,0.36337,0.111393,0.091642,0.752736,0.85236,1.092933,0
2228559102,0.118031,-0.203988,-0.089902,0.641105,0.497559,1.50977,0
2228592436,0.238492,0.167567,0.340672,-0.981386,-1.339635,1.135583,0
2228625770,-0.115259,0.293589,0.301868,-1.922232,-1.309906,-0.073554,0
2228659104,0.119048,0.412058,0.250716,0.59465,-1.369782,0.468913,0
2228692438,0.189189,0.909407,0.37618,2.227978,1.559445,0.952114,0
2228725772,0.224226,0.236066,0.649751,0.97786,0.280898,0.321903,0
2228759106,1.042985,0.533631,-0.465244,-0.402766,-1.504995,-0.109149,0
2228792440,0.961531,0.02416,0.318594,-1.319128,-1.398818,-0.75827,0
2228825774,0.763272,0.033423,0.250744,-1.577246,-0.688639,-0.48961,0
2228859108,0.023361,0.390346,0.255972,-1.486692,-0.698868,-0.857163,0
2228892442,0.219145,0.96199,-0.029492,-1.908765,-0.843476,-0.840071,0
2228925776,0.296973,0.202352,-0.396482,-0.924404,0.08506,0.151637,0
2228959110,0.76651,0.515272,0.085881,-0.98711,-0.789375,-0.041785,0
2228992444,0.554142,0.87103,-0.062254,-0.082381,0.380344,-0.866923,0
2229025778,0.20013,0.646764,-0.181768,-0.903571,-1.547485,0.585176,0
2229059112,-0.082143,0.310479,0.259275,-0.839665,-1.338786,-0.370351,0
2229092446,0.450889,-0.152012,-0.151941,0.743866,0.662764,-0.792596,0
2229125780,-0.130528,0.046077,-0.412356,1.415395,0.7924,0.281875,0
2229159114,-0.242119,-0.104823,-0.263321,1.602921,0.205235,-0.233918,0
2229192448,-0.381481,-0.035086,-0.063972,-0.475605,-0.491753,-0.826259,0
2229225782,0.906671,-0.827031,-0.597819,-1.340921,-0.221058,0.308677,0
2229259116,1.321527,-0.779134,-0.225225,-0.624325,1.300614,-0.988987,0
2229292450,-0.364545,-1.038409,0.454669,0.609697,1.917142,-0.803061,0
2229325784,0.311861,-0.542183,-0.258706,1.068255,2.70093,-1.663668,0
2229359118,-0.242042,-0.060536,-0.07877,0.453937,2.47631,-1.432575,0
2229392452,0.127608,0.373644,-0.115965,-1.529998,1.609657,-1.101733,0
2229425786,-0.057736,0.315858,-0.307251,2.667911,3.821763,-1.429595,0
2229459120,-0.334176,0.466756,0.127301,3.103439,2.167115,-0.357862,0
2229492454,0.022291,0.655343,0.440487,1.118156,0.748267,0.101205,0
2229525788,0.402214,-0.461468,0.562037,0.71475,0.244172,0.287813,0
2229559122,-0.336063,-2.2012,0.740049,0.554771,0.335593,0.278213,0
2229592456,-0.866338,-2.669354,0.736642,0.255598,0.383021,-0.822671,0
2229625790,-0.653263,-1.595576,0.279311,-0.475243,0.669221,-0.363462,0
2229659124,0.104432,0.527216,-0.114301,-0.696639,0.827836,-0.826197,0
2229692458,0.061227,1.602899,0.091736,-0.651259,0.263359,-1.00631,0
2229725792,0.081468,0.829513,0.207341,-0.955262,0.139314,-0.324005,0
2229759126,0.261778,-0.171705,0.131488,-0.802733,0.247158,-0.148161,0
2269259916,5.185564,2.97154,-0.960576,0.656074,0.147902,-0.91577,0
2269293250,1.65114,2.735562,-2.468302,0.294262,-0.059602,-1.027111,0
2269326584,-4.666546,4.393714,-3.824946,0.093703,0.225837,-1.116566,0
2269359918,-2.965698,-1.988023,1.831997,0.272481,0.180725,-0.893043,0
2269393252,0.802612,-2.686058,3.740611,-0.538122,0.988655,-0.160273,0
2269426586,5.547705,-0.256512,-2.266576,-1.185222,0.881346,0.188943,0
2269459920,0.02524,0.444493,-0.656477,-0.620296,1.86448,-0.597337,0
2269493254,-1.412254,1.115178,1.255847,-0.005211,0.609497,-0.270857,0
2269526588,-1.881467,2.023609,-0.433515,0.71123,-0.006595,0.37383,0
2269559922,-1.678244,0.85496,-0.216648,0.613538,-0.154029,0.40525,0
2269593256,0.745069,0.344979,0.006014,-0.052756,-0.063643,0.465545,0
2269626590,1.363204,-0.487116,-0.15634,0.091149,-0.40632,0.532402,0
2269659924,0.134115,-0.437404,0.163179,-0.000759,-0.189708,1.043974,0
2269693258,0.381996,-0.115025,-0.634469,-0.406979,-0.139979,0.400101,0
2269726592,-0.518713,0.091563,-0.235496,-0.624385,-0.386735,0.624923,0
2269759926,-0.517243,-0.045766,0.481637,-0.236891,-0.034282,0.843288,0
2269793260,1.007009,-0.071486,-0.319829,-0.369339,-0.125143,0.405515,0
2269826594,-0.924576,0.976932,0.465366,-0.85752,-0.018101,0.60514,0
2269859928,-0.327122,0.728723,0.904536,-0.520843,0.075043,0.38439,0
2269893262,0.865581,0.382154,-0.319142,-0.109668,-0.348973,0.039242,0
2269926596,0.054566,0.602836,-0.114509,-0.099085,-0.618228,-0.16503,0
2269959930,0.203801,0.506529,0.299252,0.059714,-0.383063,-0.590969,0
2269993264,0.313939,0.516124,-0.191998,0.186462,-0.389894,-0.878568,0
2270026598,-0.224795,0.378523,-0.073196,-0.100898,-0.185613,-0.767102,0
2270059932,-1.406669,1.157194,0.755733,-1.379685,0.987297,-1.157753,0
2270093266,-0.182494,1.121202,1.008799,-1.483473,0.674493,-0.751039,0
2270126600,0.325146,0.452697,0.473904,-0.785785,-0.030953,0.433327,0
2270159934,0.669849,0.43943,0.401293,-0.424943,-0.235064,0.597169,0
2270193268,0.700469,0.087804,0.093193,0.327282,-0.564487,1.327733,0
2270226602,0.139382,-0.267014,-0.555305,0.913342,-0.334417,1.13773,0
2270259936,-0.120449,-0.669601,-0.691949,0.854307,-0.308299,-0.000908,0
2270293270,0.266318,-0.660126,-0.974874,0.89629,-0.855377,-0.842226,0
2270326604,0.492379,-0.97941,-0.752418,1.068881,-0.933636,-1.628074,0
2270359938,-0.202733,-0.933597,-1.433018,0.680969,-0.724027,-1.914508,0
2270393272,-0.373496,-0.283347,-1.130378,-0.191631,-0.268719,-2.331136,0
2270426606,0.394069,-0.049264,-0.78194,-0.697705,-0.037048,-2.469398,0
2270459940,0.562484,0.523533,-0.420125,-0.862674,-0.116588,-1.998738,0
2270493274,0.011929,1.011248,0.137465,-0.862292,0.290496,-1.384243,0
2270526608,0.272763,0.335955,0.277639,-0.312365,0.727262,-1.287379,0
2270559942,0.476224,0.506909,0.308402,-0.432202,0.466498,-1.377566,0
2270593276,0.387966,0.783369,-0.065123,0.089451,1.375139,-0.673051,0
2270626610,0.679205,0.025299,0.225262,0.501159,1.377675,0.170194,0
2270659944,-0.082353,0.356239,0.341218,-0.188047,0.641744,1.555147,0
2270693278,-0.415033,0.973161,0.351793,0.070274,0.248504,1.372582,0
2270726612,-0.110818,0.639256,0.19438,0.275948,-0.003089,1.296593,0
2270759946,0.001579,0.540307,0.493495,0.419166,-0.189938,1.11351,0
2270793280,-0.425164,-0.013623,-0.0326,0.517779,-0.20684,0.26552,0
2270826614,0.299492,-0.035201,0.432017,-0.11001,-0.603259,0.338007,0
2270859948,0.27708,0.900725,0.217814,-0.37303,-0.187122,0.472833,0
2270893282,0.032212,-0.028063,-0.042735,-0.705237,0.140645,0.266899,0
2270926616,0.433603,-0.197582,0.077674,-0.743291,0.312613,0.295599,0
2270959950,0.874276,-0.25915,-0.226633,-0.166647,0.32127,0.356482,0
2270993284,0.663269,0.468228,0.120003,-0.176596,0.06411,-0.022685,0
2271026618,1.345888,0.409918,0.282004,0.375861,-0.214453,0.18821,0
2271059952,0.027567,0.216743,0.173872,0.213199,-0.890985,0.147757,0
2271093286,-0.23757,0.459763,0.148635,-0.31861,-0.870578,0.804414,0
2271126620,0.400162,-0.070701,0.156622,-0.461479,-0.788228,1.541768,0
2271159954,-0.883434,0.30014,0.452653,-0.599904,-0.420226,2.211567,0
2271193288,0.360147,0.23179,0.346351,-0.475401,0.895742,1.61859,0
2271226622,0.795859,0.09642,-0.016382,-0.056965,1.039462,0.918621,0
2271259956,0.648425,-0.123975,-0.185827,0.47029,0.403446,0.41954,0
2271293290,-0.025632,-0.05248,0.039577,0.757321,-0.285063,-0.191985,0
2271326624,-0.240308,-0.097395,0.249503,0.649757,-0.441416,-0.144509,0
2271359958,-0.442779,0.778311,0.793979,0.280891,-0.600643,-0.365968,0
2271393292,0.408669,1.226131,0.142231,-0.314407,-0.755855,-0.093685,0
2271426626,1.085523,0.409925,0.389874,-0.533717,-0.254638,-0.380777,0
2271459960,1.083872,-0.916842,0.309772,-0.905721,-0.495337,0.454713,0
2271493294,0.818186,-0.591261,-0.432899,0.025153,0.546621,0.767158,0
2271526628,0.298704,0.110449,-0.210311,-0.075813,0.670294,-0.061519,0
2271559962,-0.303015,0.596994,-0.144924,0.445103,1.023106,-0.474701,0
2271593296,-0.033692,0.337042,0.199174,0.733353,1.01761,-0.639524,0
2271626630,0.713902,-0.018209,0.125754,0.299304,0.644933,-0.343796,0
2271659964,0.617377,-0.63076,-0.226662,0.025467,0.789107,-0.407363,0
2271693298,1.163798,-0.894338,-0.519485,0.341711,0.875362,-0.713054,0
2271726632,0.998594,-1.044207,-0.202876,0.765745,-0.663392,2.408932,0
2271759966,0.262282,-0.017098,-0.191828,0.489852,-1.400193,1.872987,0
2271793300,-1.412899,0.406861,0.224494,-0.091705,-1.330652,1.042562,0
2271826634,-1.811049,0.857301,-0.224909,-0.858003,-1.15537,0.411084,0
2271859968,-1.353603,0.424076,-0.265987,-0.970218,-0.51432,-0.044891,0
2271893302,0.095287,-0.148567,0.292587,-0.753875,-0.021458,-0.133496,0
2271926636,1.074549,0.070873,0.256091,-0.48433,0.719231,-0.327634,0
2271959970,1.294156,0.231225,0.082338,-0.034786,1.173878,-0.461259,0
2271993304,0.952309,0.28874,0.099341,-0.2345,1.032078,-0.169349,0
2272026638,0.869724,0.436038,0.466311,-0.992073,0.35305,-1.211673,0
2272059972,0.383481,0.455714,0.305453,0.13555,1.467078,-0.612466,0
2272093306,0.293004,0.156764,0.206707,0.514083,1.442299,1.650377,0
2272126640,0.279993,0.263141,0.267864,0.750019,1.046546,0.845033,0
2272159974,0.038981,0.447912,-0.115224,0.025803,-0.276073,0.314399,0
2272193308,0.264761,-0.07044,-0.294577,-0.081587,-0.524904,0.307465,0
2272226642,0.130216,-0.278672,-0.103156,-0.032307,-0.167703,-0.219069,0
2272259976,0.067737,-0.065943,-0.180741,-0.081375,-0.303645,-0.426746,0
2272293310,-0.092639,0.136502,-0.152649,-0.148682,-0.118664,-1.204796,0
2272326644,0.160044,0.135778,0.074314,-0.245626,-0.222777,-2.342308,0
2272359978,-0.133273,0.109742,-0.089235,-0.444048,-0.319446,-0.296756,0
2272393312,0.026644,-0.067868,0.095707,0.071999,0.284222,0.970175,0
2272426646,0.409964,-0.286166,0.160801,-0.076156,0.159365,0.455351,0
2272459980,0.087052,-0.193241,-0.002107,-0.444424,-0.497206,0.677418,0
2272493314,0.175705,0.113345,0.156939,-0.258547,-0.009566,0.510098,0
2272526648,0.277237,0.231166,0.158668,-0.795403,-0.067581,-0.485328,0
2272559982,0.388795,-0.047548,0.231838,-0.97579,-0.897285,-0.309166,0
2272593316,0.469317,-0.135789,0.531384,-0.124419,-0.331557,0.715071,0
2272626650,0.691989,-0.156708,-0.147198,0.139174,-0.421426,1.367029,0
2272659984,0.452955,-0.039738,-0.175098,1.169388,0.279469,1.502068,0
2272693318,0.139842,0.085443,-0.062175,1.600708,0.55622,1.004362,0
2272726652,-0.062806,-0.066142,-0.43145,1.050053,0.354249,0.286428,0
2272759986,-0.070859,-0.075696,-0.311834,0.561866,0.530269,-0.106063,0
2272793320,0.0635,0.069905,-0.17065,0.05323,0.361258,-0.231613,0
2272826654,0.236679,0.188981,0.140773,0.082057,0.221,-0.173013,0
2272859988,0.546642,0.067926,0.352042,0.002833,0.039826,-0.331282,0
2272893322,0.43918,-0.081444,0.244371,-0.630646,-0.356948,-0.608916,0
2272926656,0.080952,0.032715,0.010823,-0.355688,-0.464712,0.41944,0
2272959990,0.232789,0.040602,-0.056993,0.329602,0.054758,1.080438,0
2272993324,0.294578,-0.125025,-0.133479,0.42802,-0.16858,0.73644,0
2273026658,0.25332,-0.24676,-0.203155,-0.132541,-0.361621,-0.093656,0
2273059992,0.141417,-0.029027,-0.321279,-0.007177,-0.071217,0.051883,0
2273093326,-0.001661,-0.038274,-0.095677,-0.048203,0.098989,-0.355115,0
2273126660,-0.008979,0.059561,-0.178684,0.366098,0.678467,-0.501465,0
2273159994,0.042298,-0.037546,-0.169843,2.130841,1.000627,2.451814,0
2273193328,-0.022982,-0.012841,-0.087345,0.688334,3.256384,-0.5113,0
2273226662,-0.067243,0.16149,-0.266654,-3.165555,-3.610807,-0.949248,0
2273259996,0.219542,-0.018072,-0.330336,-2.282712,-2.648878,-0.700231,0
2273293330,0.481023,0.043568,0.054419,-0.568746,-0.84499,-0.448055,0
2273326664,0.565015,0.269214,0.256979,0.70027,0.869594,-0.068577,0
2273359998,0.527952,0.021189,0.041553,1.138272,1.454963,1.133791,0
2273393332,0.495088,-0.064289,-0.056423,0.821861,1.696892,1.214391,0
2273426666,0.444163,-0.031399,0.076691,-0.324544,0.410309,0.622088,0
2273460000,0.585073,-0.004344,-0.012663,-0.729545,-0.625638,0.320684,0
2273493334,0.624048,0.014993,-0.040254,0.316894,0.746185,1.348153,0
2273526668,0.200342,0.064847,0.037504,0.164418,-0.255852,2.494592,0
2273560002,-0.093305,0.007362,-0.03349,-0.991645,-0.884588,1.897965,0
2273593336,-0.055849,-0.020829,-0.248803,-0.996121,-0.369079,-0.382232,0
2273626670,0.193005,0.072293,-0.061894,-0.622365,-0.442351,-1.425804,0
2273660004,0.585838,0.154798,0.175338,-0.04335,0.175412,-2.401972,0
2273693338,0.732886,0.049935,0.096286,0.000681,0.020801,-3.090065,0
2273726672,0.709802,-0.057463,0.013929,0.289668,0.097975,-1.750651,0
2273760006,0.388737,0.086997,0.052827,1.063089,0.572561,0.039417,0
2273793340,0.323706,-0.10885,-0.004221,0.166717,-0.290783,-1.014225,0
2273826674,0.309884,-0.095665,-0.132364,0.999717,0.688369,-0.587894,0
2273860008,0.056418,0.099871,-0.101549,0.728595,0.052568,-0.629464,0
2273893342,0.105102,0.205349,-0.038877,-0.300784,-0.442507,0.071767,0
2273926676,0.029296,-0.129907,-0.004811,-0.030016,0.139038,0.364697,0
2273960010,0.044494,-0.189533,-0.180454,-0.464239,-0.32049,-0.546154,0
2273993344,0.159382,-0.040567,-0.073063,-1.096714,-1.410484,-2.939525,0
2274026678,0.202377,0.011382,0.083012,-0.324337,0.018546,-0.700259,0
2274060012,0.315803,0.067249,0.006225,1.067401,1.196274,2.46225,0
2274093346,0.359341,0.085113,-0.014803,1.577062,1.237666,1.499407,0
2274126680,0.375633,0.075296,0.09902,0.95586,0.662532,2.373274,0
2274160014,0.362851,0.114715,-0.159453,0.30047,-0.152293,1.609232,0
2274193348,0.545829,0.036862,-0.036255,-0.187358,-0.774221,-0.083542,0
2274226682,0.452973,0.114346,0.008661,-0.391161,-0.147962,0.554244,0
2274260016,0.240748,-0.146033,-0.225399,-0.544075,-0.043096,0.759551,0
2274293350,0.246131,-0.313038,-0.083515,-1.137354,-0.444145,0.751911,0
2274326684,0.13554,-0.50737,-0.169925,-0.145638,-0.041533,0.274156,0
2274360018,0.292694,0.196378,0.219711,0.127629,-0.32024,-0.307181,0
2274393352,0.891921,0.042842,0.312769,-1.163191,-1.349328,0.149229,0
2274426686,0.386643,-1.190112,1.389736,-1.223628,-1.075539,0.354588,0
2274460020,0.86921,-0.889908,1.405252,0.490154,0.714808,-0.012149,0
2274493354,0.204348,-1.263845,1.153325,0.535481,1.405269,0.679657,0
2274526688,0.520026,-0.628147,0.776215,0.365711,1.939014,1.516632,0
2274560022,1.188414,-0.0876,1.114223,-0.171098,1.202668,1.008467,0
2274593356,0.304695,-0.279957,0.259224,-0.489159,0.784119,-0.581805,0
2274626690,-0.579532,0.764751,0.196387,-0.134846,1.243048,-0.373714,0
2274660024,0.116609,-0.091301,-0.076912,0.742886,0.502107,4.568204,0
2274693358,-0.003882,0.338107,-0.962788,0.288814,-0.053178,4.404756,0
2274726692,0.686705,0.512617,0.146261,0.31916,0.108635,0.841898,0
2274760026,0.384444,0.889202,-0.406168,0.315129,-1.11758,-0.189975,0
2274793360,0.3306,0.802384,-0.146973,1.013399,-0.080033,0.373793,0
2274826694,-0.136239,0.738315,-0.0051,0.241988,0.265031,-0.915913,0
2274860028,0.263143,0.134671,-0.525352,-1.051874,-0.216102,-2.028285,0
2274893362,0.623049,-0.546465,-0.195398,-2.072684,-0.647016,-2.20393,0
2274926696,0.756586,0.820855,-0.400887,-1.42389,-0.731667,-0.956788,0
2274960030,0.100404,0.219046,-0.314297,-0.606385,-0.603085,0.367931,0
2274993364,0.500651,-0.708607,0.000996,-1.022771,-0.511823,0.740024,0
2275026698,0.342789,0.311377,-0.688938,-0.569079,0.444133,-0.113106,0
2275060032,-0.821591,0.181142,-0.772884,-0.344985,1.089504,-0.637218,0
2275093366,0.212498,-1.669547,-0.652123,-0.751141,0.551767,0.064124,0
2275126700,0.465654,-0.670774,-0.444724,0.251395,-0.613484,0.028099,0
2275160034,0.534948,0.848521,-0.359009,0.828939,-0.281159,-0.319911,0
2275193368,0.019312,0.464392,0.504831,0.737746,0.215941,-0.795198,0
2275226702,0.239107,0.387439,0.022118,0.117626,0.085336,0.280922,0
2275260036,0.736729,-0.023519,0.233051,0.957815,0.168632,0.012773,0
2275293370,0.346295,0.538966,0.404525,1.391906,0.246637,0.492212,0
2275326704,-0.321226,0.415235,0.109829,0.277822,0.326888,0.151238,0
2275360038,0.140484,0.102282,0.211105,0.421999,0.184696,0.379228,0
2275393372,0.310295,0.689414,-0.171112,0.793078,0.745316,0.314849,0
2275426706,0.63362,-1.167072,-0.14218,0.30717,0.297254,-0.169373,0
2275460040,0.958383,-0.565323,0.331232,0.015829,0.194882,-0.218225,0
2275493374,1.844314,0.840504,-0.651049,-0.137972,-0.117243,-0.56472,0
2275526708,0.769653,0.619275,0.443312,0.219912,-0.165816,-0.059072,0
2275560042,0.612071,0.864078,1.059718,0.066011,-0.001098,-0.156532,0
2275593376,0.680566,0.348012,-0.349315,-0.268594,-0.223483,-0.514062,0
2275626710,0.640757,0.201983,-0.088566,-0.432705,-0.121403,0.030946,0
2275660044,0.957711,-0.123691,-0.204042,-0.360192,0.775656,0.366364,0
2275693378,1.05665,-0.21323,-0.61989,-1.117434,0.336342,-0.10647,0
2275726712,-0.117099,-0.385748,-0.062606,-1.223564,-1.835444,0.429336,0
2275760046,-0.272994,0.24567,1.105012,-0.168831,-0.896868,-0.548686,0
2275793380,0.586278,0.254518,0.153117,0.453047,0.132189,-1.206012,0
2275826714,-0.285517,0.537117,-0.032435,0.876328,0.097607,-1.082924,0
2275860048,-0.149797,0.425046,0.331534,0.338033,0.215338,-0.416136,0
2275893382,0.662125,0.365391,-0.208291,-0.200617,0.180796,-0.168952,0
2275926716,0.920596,-0.272496,-0.357177,-0.141361,0.337551,0.159008,0
2275960050,0.549725,0.118814,-0.322731,-0.085342,0.84288,0.204741,0
2275993384,-0.053138,0.583302,-0.311238,-0.254369,0.43613,-0.528484,0
2276026718,-0.811171,0.002028,0.87077,-0.49203,0.573724,-0.373326,0
2276060052,-0.079819,0.588806,0.338844,0.089646,0.571354,-0.524683,0
2276093386,0.161802,0.193973,-0.358307,0.191755,0.470201,-1.167982,0
2276126720,0.298544,0.359605,0.305197,0.147044,0.225982,-1.058443,0
2276160054,0.468106,0.195904,-0.064226,0.111608,0.231792,-0.738627,0
2276193388,0.775101,0.145165,-0.167313,-0.306643,0.200517,-0.934364,0
2276226722,0.568569,0.072494,0.564965,-0.643037,0.365271,-0.668096,0
2276260056,0.342916,0.41616,-0.080009,-0.765989,0.715124,-0.521487,0
2276293390,0.492903,0.368914,0.002613,-0.799597,0.846427,-1.135372,0
2276326724,-0.104062,0.26091,0.363891,-1.040702,0.431338,-1.025255,0
2276360058,0.284387,0.213134,-0.098023,-0.782816,0.505258,-0.470778,0
2276393392,0.254573,-0.047276,-0.035211,-0.558735,0.398453,-0.373282,0
2276426726,0.052542,0.144267,-0.035015,-0.884151,0.136995,-0.421261,0
2276460060,0.053794,-0.080543,-0.085949,-0.109829,0.271405,0.068719,0
2276493394,0.754358,-0.295312,-0.013019,-0.071944,0.1657,0.613388,0
2276526728,0.587526,-0.863412,0.072386,-0.367569,-0.822714,0.051167,0
2276560062,1.224993,-0.450715,-0.103576,0.015111,-0.711943,0.271308,0
2276593396,0.723861,0.182182,-0.13964,0.246033,0.155802,0.610543,0
2276626730,-0.158035,0.378694,0.196481,-0.142086,0.284425,0.16023,0
2276660064,-0.123832,0.415505,0.049821,-0.292319,0.067275,-0.220975,0
2276693398,0.061786,0.017463,0.115033,-0.00706,0.167963,-0.108052,0
2276726732,0.083544,-0.501216,0.306816,-0.031344,-0.024106,-0.098499,0
2276760066,0.450668,-0.090582,0.041311,-0.184786,-0.218472,-0.338983,0
2276793400,0.317853,0.036356,0.171782,0.145814,0.186586,0.248656,0
2276826734,0.596329,0.153604,0.162752,0.014063,0.393734,0.123498,0
2276860068,0.465907,0.439409,-0.089338,-0.167869,-0.078596,-0.117527,0
2276893402,0.263913,0.51517,-0.004914,-0.027688,-0.175204,0.24922,0
2276926736,0.337687,0.556841,-0.151687,0.369806,-0.043067,0.465197,0
1854218282,0.064263,0.02844,0.173485,0.029755,0.007282,0.105796,1
1854251616,0.071999,-0.025713,0.171124,-0.019406,-0.007541,0.042329,1
1854284950,0.051182,-0.014882,0.181005,0.00823,-0.045775,0.113742,1
1854318284,0.04757,-0.009709,0.167383,0.007707,-0.009561,0.057345,1
1854351618,0.050958,0.01846,0.181407,0.056822,-0.014287,0.121581,1
1854384952,0.080634,0.034069,0.182106,0.071412,-0.053471,0.11803,1
1854418286,0.065876,0.040448,0.180132,0.046756,-0.03874,0.114252,1
1854451620,0.036793,0.03011,0.187779,0.018277,-0.011731,0.12483,1
1854484954,0.060754,-0.024091,0.180671,-0.004476,-0.034276,0.101912,1
1854518288,0.071339,-0.036765,0.174219,-0.005997,-0.022536,0.067481,1
1854551622,0.075208,-0.045497,0.182333,-0.030776,0.015607,0.069817,1
1854584956,0.056624,-0.043948,0.185836,0.003523,-0.030166,0.09157,1
1854618290,0.066221,-0.011092,0.172517,-0.0131,-0.020296,0.107323,1
1854651624,0.043661,0.021959,0.183076,-0.033806,-0.014469,0.07591,1
1854684958,0.044701,0.002383,0.163747,-0.01221,-0.008608,0.074301,1
1854718292,0.057976,-0.004928,0.188148,-0.020555,-0.001722,0.080048,1
1854751626,0.06719,0.0017,0.172129,4.5e-05,0.004905,0.078623,1
1854784960,0.072051,0.003578,0.186434,0.030714,-0.014097,0.120544,1
1854818294,0.067926,-0.008412,0.177973,0.044757,-0.038212,0.129849,1
1854851628,0.061918,0.00661,0.178033,0.059464,-0.020065,0.142329,1
1854884962,0.068324,-0.011619,0.186303,0.007592,-0.043147,0.102736,1
1854918296,0.067931,-0.013478,0.180406,0.034,-0.054552,0.097904,1
1854951630,0.075638,-0.034947,0.177137,-0.018389,-0.001395,0.0535,1
1854984964,0.03814,0.019436,0.184491,0.019436,-0.0153,0.100373,1
1855018298,0.052018,0.033222,0.17677,0.008857,-0.047189,0.088403,1
1855051632,0.05168,0.017762,0.194843,-0.00867,-0.001279,0.116361,1
1855084966,0.042521,-0.009021,0.197586,-0.017921,-0.026081,0.115829,1
1855118300,0.065291,-0.010515,0.171141,-0.009889,-0.023671,0.108278,1
1855151634,0.078905,-0.0214,0.160729,-0.007032,0.012032,0.048488,1
1855184968,0.086728,-0.026983,0.180558,0.004151,-0.019886,0.099301,1
1855218302,0.063165,0.015849,0.191336,0.038648,-0.055782,0.120211,1
1855251636,0.038194,0.040391,0.181872,0.015628,-0.025949,0.096144,1
1855284970,0.05771,0.012942,0.170375,0.012746,-0.020994,0.108967,1
1855318304,0.048657,-0.018792,0.189289,0.001253,-0.016303,0.076222,1
1855351638,0.047835,0.000574,0.191431,-0.018223,0.001244,0.067254,1
1855384972,0.060758,0.010703,0.168996,-0.007407,-0.001616,0.075136,1
1855418306,0.050753,-0.035641,0.175629,0.011062,-0.007926,0.096829,1
1855451640,0.064504,-0.037589,0.203422,-0.006267,-0.029195,0.076364,1
1855484974,0.045986,0.008134,0.173989,0.026264,0.014824,0.082014,1
1855518308,0.056144,0.015289,0.191567,0.00197,-0.004419,0.101393,1
1855551642,0.069606,-0.010281,0.171146,0.025563,-0.013724,0.079531,1
1855584976,0.052363,-0.01095,0.171346,0.013019,0.005336,0.096436,1
1855618310,0.06103,0.03032,0.174519,0.0521,-0.027876,0.085443,1
1855651644,0.043711,-0.000323,0.175867,0.004825,-0.022341,0.090164,1
1855684978,0.054739,-0.008745,0.200041,-0.028073,-0.005319,0.135359,1
1855718312,0.068852,-0.002811,0.173261,-0.04609,-0.005484,0.093538,1
1855751646,0.057244,-0.04236,0.176501,-0.047639,-0.000118,0.101375,1
1855784980,0.053718,-0.022563,0.175046,-0.028859,0.032734,0.068746,1
1855818314,0.053768,-0.000237,0.179555,0.014692,0.026061,0.065705,1
1855851648,0.073325,0.005154,0.176463,0.037861,-0.020101,0.105724,1
1855884982,0.084544,0.00532,0.181057,0.04832,-0.045944,0.148919,1
1855918316,0.058795,0.010242,0.196532,0.014242,-0.064016,0.140753,1
1855951650,0.034825,0.034078,0.197073,0.007842,-0.045694,0.100911,1
1855984984,0.05959,0.011318,0.187504,-0.018147,-0.025436,0.092432,1
1856018318,0.062705,-0.02279,0.180752,-0.039189,0.01707,0.092633,1
1856051652,0.071086,-0.037108,0.181562,-0.016412,0.012935,0.090411,1
1856084986,0.05459,0.001221,0.202879,-0.017345,-0.005458,0.084743,1
1856118320,0.066129,0.004039,0.177482,0.004077,0.009531,0.123857,1
1856151654,0.068994,-0.011796,0.205007,-0.010718,-0.037585,0.152524,1
1856184988,0.043716,0.001405,0.174064,0.019245,-0.041763,0.072536,1
1856218322,0.056519,-0.009579,0.181795,0.009107,-0.014609,0.092331,1
1856251656,0.09289,0.037878,0.184657,0.053282,-0.065863,0.087597,1
1856284990,0.072002,0.031408,0.16487,0.013893,-0.061929,0.098108,1
1856318324,0.040356,-0.027919,0.187023,-0.016762,-0.043111,0.117191,1
1856351658,0.060511,-0.01366,0.184306,0.016461,-0.026025,0.108413,1
1856384992,0.087656,0.011841,0.16884,-0.016639,-0.023168,0.093858,1
1856418326,0.068081,0.017315,0.193341,-0.032901,0.007016,0.076158,1
1856451660,0.067107,-0.009669,0.1897,-0.023579,-0.01364,0.106618,1
1856484994,0.067039,-0.020404,0.1868,-0.004805,-0.024345,0.09202,1
1856518328,0.069207,-0.001574,0.177896,-0.000719,-0.020086,0.095062,1
1856551662,0.060722,0.014127,0.173023,-0.002046,-0.049362,0.100989,1
1856584996,0.064116,0.008315,0.195293,-0.019957,-0.034181,0.092669,1
1856618330,0.067647,0.010565,0.179481,-0.006653,-0.036755,0.081698,1
1856651664,0.060858,0.001813,0.16785,-0.003416,-0.033766,0.098594,1
1856684998,0.062239,-0.003058,0.180678,0.006521,-0.008026,0.089313,1
1856718332,0.066657,-0.026999,0.180228,-0.020655,-0.007935,0.097751,1
1856751666,0.070634,-0.037828,0.184865,-0.003579,-0.024125,0.125145,1
1856785000,0.063378,0.005299,0.166566,-0.042862,-0.019353,0.047819,1
1856818334,0.062613,0.010809,0.193021,-0.006513,-0.039483,0.117657,1
1856851668,0.062277,-0.005949,0.178309,-0.023949,0.004899,0.059406,1
1856885002,0.068412,0.020557,0.173625,0.012614,0.006381,0.087429,1
1856918336,0.081157,0.04373,0.194936,0.035289,-0.067903,0.103622,1
1856951670,0.059352,0.034415,0.184992,0.019522,-0.039072,0.133551,1
1856985004,0.053272,0.021281,0.167686,0.032155,-0.033524,0.13306,1
1857018338,0.07911,-0.024602,0.189037,0.000541,-0.064193,0.124101,1
1857051672,0.075733,0.001102,0.167878,0.030931,-0.056023,0.069767,1
1857085006,0.097953,0.032079,0.181589,-0.019084,-0.022764,0.066221,1
1857118340,0.064315,0.037263,0.172091,0.045599,-0.057441,0.11036,1
1857151674,0.08202,0.02461,0.176328,0.04195,-0.047072,0.130105,1
1857185008,0.087348,0.035726,0.191544,0.04298,-0.056694,0.122969,1
1857218342,0.081095,0.045126,0.174901,0.044222,-0.070111,0.082375,1
1857251676,0.081352,0.016803,0.159442,-0.020437,-0.059315,0.077724,1
1857285010,0.072828,0.004057,0.179755,-0.021878,-0.047708,0.059934,1
1857318344,0.070663,0.038749,0.180554,0.000183,-0.056402,0.064241,1
1857351678,0.060096,0.063179,0.168895,0.018296,-0.008265,0.092586,1
1857385012,0.081015,0.008143,0.183634,0.04,-0.012124,0.10282,1
1857418346,0.088315,-0.002925,0.178922,0.042423,-0.034992,0.122483,1
1857451680,0.072307,-0.000436,0.160533,-0.007186,-0.035216,0.048014,1
1857485014,0.042295,0.001287,0.171948,-0.01448,-0.049656,0.130182,1
1857518348,0.066189,-0.007212,0.171165,-0.019089,-0.000352,0.040991,1
1857551682,0.062886,0.037438,0.184478,0.006821,0.020064,0.084525,1
1857585016,0.069402,0.049666,0.179612,0.035586,-0.048361,0.087148,1
1857618350,0.048968,0.005447,0.183641,0.030781,-0.00203,0.129872,1
1857651684,0.044739,0.000603,0.187792,0.013267,-0.011792,0.135714,1
1857685018,0.051721,0.017547,0.181491,-0.009677,-0.028071,0.091276,1
1857718352,0.072613,0.008382,0.173754,-0.020095,-0.000127,0.073143,1
1857751686,0.076559,0.000409,0.191937,-0.033801,0.00743,0.073948,1
1857785020,0.048606,0.031726,0.188631,-0.014997,0.002473,0.113692,1
1857818354,0.04969,0.01781,0.171294,0.01892,0.003744,0.089998,1
1857851688,0.066152,0.019486,0.188147,0.024138,0.000529,0.115755,1
1857885022,0.075563,0.018831,0.196167,0.044819,-0.037754,0.107211,1
1857918356,0.068169,-0.00249,0.173375,0.028725,-0.044363,0.099398,1
1857951690,0.084693,0.015099,0.188725,0.029652,-0.051957,0.119477,1
1857985024,0.076647,0.025546,0.185247,0.026843,-0.072825,0.109703,1
1858018358,0.076504,0.002304,0.177193,0.020925,-0.058941,0.09421,1
1858051692,0.072281,0.011103,0.169779,0.025701,-0.036015,0.073188,1
1858085026,0.086827,0.030948,0.189227,0.004965,-0.014198,0.085172,1
1858118360,0.081783,0.044449,0.188837,0.018966,-0.000305,0.10745,1
1858151694,0.058073,0.028921,0.173795,-0.00234,-0.019822,0.051708,1
1858185028,0.059525,0.015096,0.169027,0.031166,-0.052902,0.111121,1
1858218362,0.081604,-0.019248,0.181715,-0.006711,-0.013197,0.078277,1
1858251696,0.083727,0.024,0.176969,0.064554,-0.038943,0.098783,1
1858285030,0.072965,0.078864,0.18201,0.033699,-0.087482,0.085965,1
1858318364,0.066784,0.022232,0.175245,-0.002127,-0.046478,0.116948,1
1858351698,0.07333,-0.002314,0.157595,0.011427,-0.030402,0.119023,1
1858385032,0.094945,0.021242,0.190861,0.004,-0.043548,0.089835,1
1858418366,0.079508,0.019391,0.172726,-0.001758,-0.020312,0.052033,1
1858451700,0.078036,0.010123,0.188148,-0.009956,-0.037147,0.095284,1
1858485034,0.086258,0.04585,0.18727,0.031517,-0.077236,0.129424,1
1858518368,0.082233,0.019598,0.140932,0.043428,-0.086505,0.103872,1
1858551702,0.084847,0.032595,0.186805,0.075552,-0.072106,0.109635,1
1858585036,0.063303,0.050634,0.1841,0.041224,-0.042211,0.097439,1
1858618370,0.07739,0.035002,0.174117,0.027413,-0.045765,0.074561,1
1858651704,0.086632,0.045445,0.168532,0.02474,-0.028657,0.080516,1
1858685038,0.093468,0.06592,0.178086,0.02756,-0.048778,0.088768,1
1858718372,0.064251,0.026993,0.191677,0.053595,-0.063091,0.116893,1
1858751706,0.086482,0.01562,0.188022,0.034471,-0.045891,0.120947,1
1858785040,0.091183,0.005907,0.192483,0.033916,-0.052759,0.088116,1
1858818374,0.055235,0.022232,0.182619,0.041255,-0.047053,0.093557,1
1858851708,0.049314,0.036777,0.161438,0.000185,-0.014322,0.051516,1
1858885042,0.065289,0.027955,0.189379,-0.014486,-0.034249,0.146835,1
1858918376,0.080211,0.007045,0.178652,0.016922,-0.000165,0.05653,1
1858951710,0.074068,0.021589,0.172791,0.050746,-0.000633,0.10196,1
1858985044,0.080955,0.03732,0.155959,0.067857,-0.059366,0.093293,1
1859018378,0.06859,0.036644,0.176243,0.042267,-0.027548,0.130019,1
1859051712,0.0516,0.026607,0.194788,0.018406,-0.035662,0.125878,1
1859085046,0.050912,0.036486,0.177541,0.005233,-0.040358,0.100129,1
1859118380,0.077282,0.009445,0.167585,-0.001738,0.006272,0.075438,1
1859151714,0.062993,-0.001757,0.165181,-0.001159,0.023492,0.074628,1
1859185048,0.071581,0.009731,0.197472,0.008864,0.012742,0.11323,1
1859218382,0.06865,0.027172,0.189906,-0.003698,0.018729,0.102157,1
1859251716,0.078843,0.018082,0.187464,0.013409,0.001888,0.110666,1
1859285050,0.054834,0.022592,0.181828,0.009244,-0.025838,0.089921,1
1859318384,0.053445,0.044515,0.194095,-0.026295,-0.021503,0.075421,1
1859351718,0.084283,0.013863,0.176171,-0.01935,-0.009757,0.093715,1
1859385052,0.072071,0.021186,0.18466,-0.009999,0.00099,0.082905,1
1859418386,0.049945,0.039563,0.176507,-0.009786,-0.0041,0.080324,1
1859451720,0.067755,0.064536,0.210478,0.012248,0.004033,0.10634,1
1859485054,0.086379,0.039807,0.171641,0.025794,-0.007044,0.105116,1
1859518388,0.094743,-0.044526,0.157131,0.019945,-0.06495,0.086765,1
1859551722,0.082551,-0.017064,0.189628,0.013859,-0.051101,0.090478,1
1859585056,0.076563,0.01836,0.173723,-0.007199,-0.079356,0.087428,1
1859618390,0.078296,0.034617,0.170794,0.03689,-0.074317,0.09411,1
1859651724,0.084425,0.015238,0.201477,-0.003906,-0.008557,0.111596,1
1859685058,0.093493,0.07023,0.163076,0.041269,-0.015069,0.090303,1
1859718392,0.067154,0.058928,0.165897,0.035007,-0.03449,0.089265,1
1859751726,0.084303,0.012959,0.186664,0.015582,-0.015942,0.121045,1
1859785060,0.077586,0.004677,0.184591,0.007887,-0.04002,0.11058,1
1859818394,0.074612,-0.007861,0.190683,-0.008843,-0.055204,0.099453,1
1859851728,0.0921,0.027072,0.171919,0.018744,-0.047195,0.093802,1
1859885062,0.094475,0.033363,0.185714,0.012112,-0.038141,0.102057,1
1859918396,0.077003,0.018507,0.183524,0.050765,-0.053308,0.112339,1
1859951730,0.087376,0.053374,0.162752,0.069382,-0.054091,0.12066,1
1859985064,0.09335,0.050241,0.196699,0.271684,-0.165589,0.321284,1
1860018398,0.091169,0.044168,0.18137,0.991788,-0.185204,0.77553,1
1860051732,0.062638,0.041931,0.166071,2.10573,-0.344349,1.797607,1
1860085066,0.095474,0.005791,0.201701,2.35781,-0.960564,2.854955,1
1860118400,0.067053,-0.016236,0.179015,1.448655,-1.820446,3.480296,1
1860151734,0.078306,0.036829,0.20569,1.269428,-1.643551,4.258469,1
1860185068,0.081435,0.094237,0.214788,0.80664,-1.693783,4.566063,1
1860218402,0.052038,0.088358,0.186079,-0.448287,-0.467411,4.793971,1
1860251736,0.098589,0.0102,0.139684,-1.775126,0.214885,4.430096,1
1860285070,0.135076,-0.013872,0.14996,-1.941606,0.844648,1.338324,1
1860318404,0.203077,0.103888,0.135578,-1.744351,0.794305,-0.431102,1
1860351738,0.112774,0.133361,0.17247,-2.128717,0.416119,1.081285,1
1860385072,0.0394,0.091938,0.174671,-3.123691,1.042603,1.809628,1
1860418406,0.021738,0.058038,0.163771,-3.862769,1.654139,-0.397535,1
1860451740,0.082774,-0.00602,0.164227,-1.964829,2.282918,-3.056827,1
1860485074,0.126135,0.056771,0.166787,-0.053937,2.532902,-3.931476,1
1860518408,0.099605,0.10495,0.163021,1.280546,2.228758,-4.689375,1
1860551742,0.057199,0.086744,0.199176,0.85024,-0.426298,-5.061464,1
1860585076,0.024031,0.038546,0.205992,0.30084,-1.648087,-4.241898,1
1860618410,0.056757,-0.005476,0.191527,2.025528,-1.619155,-4.051412,1
1860651744,0.07842,-0.045871,0.199503,1.512697,0.103543,-2.284974,1
1860685078,0.120793,-0.06083,0.181705,2.14309,0.19075,-1.930431,1
1860718412,0.118924,-0.101835,0.152115,0.63753,0.419035,-0.962394,1
1860751746,0.139364,-0.02707,0.143375,0.497237,-0.50825,-0.888302,1
1860785080,0.138443,0.043527,0.200507,0.579884,-0.685567,-0.904262,1
1860818414,0.089762,0.112695,0.184491,0.843699,-1.010533,-1.257688,1
1860851748,0.010106,0.088173,0.205602,1.613132,-1.576439,-2.062942,1
1860885082,-0.039061,-0.040226,0.21112,2.012215,-1.504879,-2.459422,1
1860918416,-0.052263,-0.136744,0.196307,1.664282,-0.845221,-2.167242,1
1860951750,-0.016478,-0.187783,0.20256,1.814143,-0.880373,-2.787626,1
1860985084,0.069456,-0.179446,0.175333,1.540173,-0.013171,-2.457464,1
1861018418,0.129164,-0.082652,0.173816,1.651654,0.647032,-2.99469,1
1861051752,0.202156,0.038829,0.1789,0.285405,1.486411,-2.091964,1
1861085086,0.178298,0.123906,0.143937,-1.821693,1.890321,0.992349,1
1861118420,0.15993,0.174889,0.187152,-0.471674,1.830921,0.713999,1
1861151754,0.130919,0.213868,0.175551,-3.019109,0.537434,3.996117,1
1861185088,0.110795,0.163438,0.167698,-2.540063,-1.584188,1.751801,1
1861218422,0.098435,0.132669,0.205985,0.987637,1.131933,-3.375394,1
1861251756,0.063289,0.069653,0.184134,0.282717,1.463752,-2.774,1
1861285090,-0.024525,-0.018053,0.183299,-0.91961,0.389613,0.081179,1
1861318424,-0.104132,-0.084281,0.189116,-0.884026,0.076541,-0.253921,1
1861351758,0.025698,-0.094709,0.151502,-1.46163,0.279614,1.650684,1
1861385092,0.150714,-0.019051,0.173285,-0.44831,1.037653,1.364957,1
1861418426,0.185339,0.109434,0.179753,-0.257798,1.561062,0.427239,1
1861451760,0.1753,0.120108,0.18973,-1.113085,0.611675,0.314449,1
1861485094,0.094002,0.13948,0.181125,-1.263126,0.382933,1.86734,1
1861518428,0.050558,0.03082,0.174416,-0.491596,0.461841,2.693201,1
1861551762,0.084563,-0.051857,0.156652,0.21619,-0.355313,3.20837,1
1861585096,0.157772,-0.045061,0.19976,0.275771,-1.283951,2.7769,1
1861618430,0.152082,0.002798,0.161001,0.52804,-0.726215,1.806778,1
1861651764,0.052552,0.031232,0.19256,0.630693,-0.979874,1.385512,1
1861685098,-0.013196,0.001726,0.18466,0.521185,-1.261635,0.95617,1
1861718432,0.000249,-0.010822,0.203527,0.508743,-1.527067,0.988604,1
1861751766,0.023743,0.059415,0.173547,0.052166,-1.183142,0.637803,1
1861785100,0.08576,0.058965,0.221209,-0.368478,-1.285163,0.605119,1
1861818434,0.065192,0.014433,0.198926,0.075401,-1.16806,0.256251,1
1861851768,0.019323,0.038178,0.188865,0.328932,-1.385264,-0.176802,1
1861885102,0.085454,-0.131878,0.251482,0.341433,-1.522257,-0.41393,1
1861918436,0.072867,-0.183944,0.268794,0.345067,-1.165267,-0.416663,1
1861951770,0.146962,0.010117,0.24614,0.269022,-0.644484,-0.295846,1
1861985104,0.063494,0.305286,0.13063,0.044545,-0.317468,-0.265128,1
1862018438,0.089819,0.425811,0.126829,-0.218258,-0.194511,-0.092469,1
1862051772,0.221093,0.011861,0.264699,-0.488306,-0.069602,0.158921,1
1862085106,0.190275,0.197434,0.313881,-0.444986,0.099399,0.315429,1
1862118440,0.19382,0.218894,0.212557,-0.127848,0.739351,0.229358,1
1862151774,0.056336,0.005754,-0.086295,0.222668,1.014381,0.232167,1
1862185108,0.114648,-0.100232,0.082934,0.397939,1.037707,0.162593,1
1862218442,0.183375,0.020624,0.179942,0.410451,0.830699,0.081043,1
1862251776,0.059748,0.113912,0.118176,0.508934,0.731569,0.183703,1
1862285110,0.137843,0.066882,0.161044,0.464034,0.491845,0.331101,1
1862318444,0.08659,0.03321,0.162058,0.24841,0.182447,0.335356,1
1862351778,0.065642,0.057341,0.18658,-0.087451,-0.100475,0.180628,1
1862385112,0.043063,0.155882,0.174764,-0.238345,-0.178665,-0.014235,1
1862418446,0.046126,0.234056,0.211313,-0.25671,-0.292233,0.003619,1
1862451780,0.097952,0.218128,0.210663,-0.310267,-0.403113,0.104091,1
1862485114,0.07059,0.17065,0.165671,-0.251457,-0.331949,0.121881,1
1862518448,0.056748,0.055373,0.157985,-0.247599,-0.195013,0.131326,1
1862551782,0.108142,0.049544,0.124878,-0.177897,-0.24454,0.133058,1
1862585116,0.190165,0.069928,0.165409,-0.092494,-0.266971,0.101947,1
1862618450,0.16378,0.064168,0.144744,0.166767,-0.189144,-0.036525,1
1862651784,0.17769,0.189276,0.153,0.140012,-0.235186,0.004376,1
1862685118,0.134797,0.15655,0.200893,0.118675,-0.219421,0.206134,1
1862718452,0.092559,0.348617,0.201392,0.211017,-0.300439,0.182417,1
1862751786,-0.033815,0.137446,0.179778,0.228357,-0.349767,0.000911,1
1862785120,0.214774,0.333159,0.143644,0.153347,-0.175997,-0.063864,1
1862818454,0.193587,0.174105,0.104095,-0.015752,-0.283924,-0.038383,1
1862851788,0.262927,0.187358,0.202418,-0.10919,-0.327301,0.078483,1
1862885122,0.144985,0.112166,0.129701,-0.173708,-0.217002,0.117049,1
1862918456,0.148033,0.076332,0.155628,-0.195618,-0.163219,-0.017105,1
1862951790,0.105428,0.036759,0.100227,-0.08964,-0.075019,0.04611,1
1862985124,0.143447,0.128197,0.112586,-0.330032,0.036657,0.008568,1
1863018458,0.05819,0.455751,0.19766,0.026989,0.208377,0.0956,1
1863051792,-0.09481,0.240896,0.176306,0.568509,0.267833,0.208382,1
1863085126,-0.144233,-0.032658,0.082645,0.562304,0.360395,-0.125264,1
1863118460,0.013025,-0.000937,0.142397,0.447557,0.186439,0.146258,1
1863151794,0.089263,0.088568,0.216277,0.553381,-0.205624,1.007616,1
1863185128,-0.207823,0.039664,0.358152,-0.581313,-0.150125,-0.003505,1
1863218462,-0.301392,-0.383829,0.468285,-0.764898,-0.212049,-0.070381,1
1863251796,0.006906,-0.381753,-0.354578,0.002613,-0.542491,-0.273637,1
1863285130,0.203671,0.050742,-0.239067,-0.602758,-0.145256,-0.348772,1
1863318464,0.287904,0.515268,0.473657,-0.301624,0.91568,0.576678,1
1863351798,-0.061206,0.134235,0.450624,0.259911,0.632768,1.034417,1
1863385132,0.030616,-0.075515,0.112162,0.471649,0.425147,-0.82373,1
1863418466,0.203728,0.158232,-0.129651,0.676521,0.303348,-0.451329,1
1863451800,0.033321,0.200887,0.319194,0.400106,-0.593099,0.443549,1
1863485134,-0.119104,0.126579,0.480964,0.04557,-1.011504,0.469316,1
1863518468,-0.04519,0.11096,0.084762,-0.560544,-0.353578,-0.508675,1
1863551802,0.205177,0.103932,-0.193083,-0.920194,-0.115235,-0.21242,1
1863585136,0.213752,0.198541,0.080839,-0.567582,0.101925,0.646416,1
1863618470,0.048594,0.233202,0.57548,0.224256,0.216033,0.078031,1
1863651804,-0.113001,0.339963,0.261519,0.67918,0.358176,0.030004,1
1863685138,0.014047,0.491735,0.118942,0.737086,0.160115,0.250171,1
1863718472,-0.103494,0.170734,0.189609,0.558088,-0.015789,0.405503,1
1863751806,-0.122896,-0.034063,0.085572,-0.006361,-0.127252,0.221994,1
1863785140,-0.052998,0.008734,0.083077,-0.459374,-0.206689,-0.060307,1
1863818474,-0.008977,0.085086,0.178552,-0.769257,-0.328661,-0.405917,1
1863851808,0.135682,0.153325,0.169732,-0.314796,0.006005,-0.157942,1
1863885142,0.06408,0.025718,0.013322,0.406021,0.163632,0.270879,1
1863918476,-0.086578,-0.080801,0.044201,0.730821,0.46847,0.534186,1
1863951810,-0.276026,0.020882,0.200807,0.572284,0.787157,0.599187,1
1863985144,-0.712039,0.213643,0.315628,0.30147,0.901225,0.543401,1
1864018478,-0.799464,0.210469,0.332174,-0.127245,0.924336,0.208824,1
1864051812,-0.336643,0.289365,0.354132,-0.479729,0.34317,-0.116469,1
1864085146,-0.12194,0.450072,0.452939,-0.620498,0.129529,-0.194096,1
1864118480,-0.050909,0.441413,0.442802,-0.475605,0.213561,-0.038561,1
1864151814,-0.174139,0.04772,0.189281,-0.29101,0.211863,-0.010093,1
1864185148,-0.016546,-0.05038,-0.115351,0.136143,0.299299,0.066752,1
1864218482,-0.014769,-0.590643,-0.308044,0.461977,0.262888,0.15105,1
1864251816,0.148259,-0.612779,-0.189126,0.563405,0.266595,0.258222,1
1864285150,-0.157508,-0.459735,-0.302137,0.394853,0.171937,0.086546,1
1864318484,-0.290019,-0.442468,0.094053,0.078205,0.113014,-0.095047,1
1864351818,-0.330986,-0.452107,0.275941,-0.144336,0.043666,-0.119005,1
1864385152,-0.360599,-0.156212,0.215633,-0.193278,0.022024,-0.052116,1
1864418486,-0.157874,0.183417,0.295873,-0.060374,0.023578,0.010172,1
1864451820,0.233921,0.510977,0.576576,0.087319,0.056383,0.205912,1
1864485154,0.264205,0.947417,0.502752,0.210011,-0.026603,0.378014,1
1864518488,-0.172049,0.107425,0.118882,0.234161,-0.027998,0.374874,1
1864551822,0.604912,-0.554329,-0.05564,0.103203,0.03934,0.19782,1
1864585156,0.639871,-0.585191,-0.031453,-0.057152,0.246273,0.080783,1
1864618490,-0.241028,-0.290052,0.090907,-0.193007,0.277779,0.017778,1
1864651824,-0.356285,-0.376204,0.212335,-0.268277,0.209013,-0.022361,1
1864685158,-0.133068,-0.082605,0.304897,-0.291896,0.15108,-0.025324,1
1864718492,-0.072839,-0.094022,0.220254,-0.218711,0.074898,0.009931,1
1864751826,0.233365,0.017509,0.176547,-0.185303,-0.039554,-0.023905,1
1864785160,0.440899,0.005559,0.098772,-0.057154,-0.09946,0.017623,1
1864818494,0.232105,-0.032595,0.159391,-0.061337,-0.18702,0.03886,1
1864851828,-0.102453,-0.26716,0.063123,0.005662,-0.21109,0.085141,1
1864885162,0.203017,-0.152717,0.076649,0.051745,-0.327849,0.091836,1
1864918496,0.277226,-0.092029,0.156126,0.100557,-0.396782,0.109683,1
1864951830,0.075852,-0.071078,0.102193,0.078834,-0.437524,0.101302,1
1864985164,-0.127048,0.0194,0.134995,-0.00596,-0.417793,0.127505,1
1865018498,-0.145897,0.322178,0.074098,-0.074637,-0.322562,0.081855,1
1865051832,-0.025089,0.258305,0.069769,-0.129981,-0.205538,0.09529,1
1865085166,0.108972,-0.280351,0.114795,-0.141301,-0.080542,0.061248,1
1865118500,0.207502,-0.186989,0.058001,-0.121365,0.067569,0.068142,1
1865151834,0.677049,0.249804,0.19578,-0.0937,-0.014917,0.030956,1
1865185168,0.436971,0.327605,0.183617,-0.077296,-0.138573,0.037923,1
1865218502,0.058275,0.125239,0.247499,-0.067591,-0.146679,0.081781,1
1865251836,-0.076388,0.081283,0.300898,-0.083102,-0.199671,0.082657,1
1865285170,-0.27672,0.473857,0.308695,-0.12892,-0.249276,0.121213,1
1865318504,-0.232979,1.000562,0.457419,-0.155942,-0.269923,0.219599,1
1865351838,-0.02396,1.077398,0.260448,-0.293675,-0.222229,0.188757,1
1865385172,0.157753,0.232382,0.106383,-0.2773,-0.122923,0.081604,1
1865418506,0.333695,-0.287488,0.152898,-0.13044,0.017401,-0.133079,1
1865451840,0.367854,-0.206196,0.158051,-0.031049,-0.082624,-0.107354,1
1865485174,0.281295,0.06334,0.209601,0.094155,-0.235452,0.00423,1
1865518508,0.102117,0.259757,0.216415,0.080113,-0.320751,0.154927,1
1865551842,-0.027407,0.244897,0.156768,0.020884,-0.316083,0.237603,1
1865585176,0.132486,0.131135,0.221149,-0.053314,-0.275375,0.265717,1
1865618510,0.284051,0.020616,0.202468,-0.142138,-0.307593,0.236639,1
1865651844,0.288501,-0.104146,0.203812,-0.208311,-0.379757,0.110164,1
1865685178,0.174677,-0.030754,0.213762,-0.228878,-0.373098,0.040139,1
1865718512,0.053754,-0.031798,0.135948,-0.195836,-0.347803,-0.017204,1
1865751846,0.053328,-0.029662,0.162454,-0.214589,-0.251785,-0.026594,1
1865785180,0.136165,0.06929,0.174908,-0.135836,-0.153398,0.033076,1
1865818514,0.176748,0.053929,0.176826,-0.09012,-0.106928,0.062421,1
1865851848,0.125864,0.011712,0.206794,-0.067311,-0.087839,0.094466,1
1865885182,0.104497,0.014535,0.164118,0.013714,-0.082521,0.099283,1
1865918516,0.067666,-0.109193,0.128572,-0.01731,-0.108289,0.09106,1
1865951850,0.057403,-0.096192,0.187683,-0.066445,-0.062996,0.197845,1
1865985184,0.095823,0.006439,0.184406,-0.104459,-0.091269,0.130816,1
1866018518,0.08749,0.009706,0.179012,-0.099632,-0.110598,0.111981,1
1866051852,0.050551,-0.016592,0.175885,-0.15491,-0.062518,0.009343,1
1866085186,0.033963,0.038041,0.193379,-0.128103,-0.03769,0.021481,1
1866118520,0.013204,0.083115,0.170711,-0.074317,-0.049218,-0.011921,1
1866151854,-0.053921,0.059908,0.167043,-0.070037,-0.007145,0.019061,1
1866185188,0.056965,0.037377,0.176924,-0.065903,0.035838,0.113447,1
1866218522,0.115171,-0.009619,0.166912,-0.083864,0.065769,0.193927,1
1866251856,0.129136,-0.007167,0.204126,-0.007688,0.044288,0.373929,1
1866285190,0.09541,-0.029108,0.249497,0.005284,0.032644,0.35381,1
1866318524,-0.008408,-0.031796,0.145056,-0.045545,0.057247,0.150561,1
1866351858,-0.039895,0.042536,0.099304,-0.018817,0.100123,-0.046323,1
1866385192,0.044315,0.195568,0.175763,-0.05793,0.039503,-0.07243,1
1866418526,0.123492,0.235367,0.187262,-0.062834,-0.029066,-0.020895,1
1866451860,0.113314,0.139802,0.179118,0.001701,-0.02039,0.093026,1
1866485194,0.072528,0.039928,0.205643,0.118981,-0.057923,0.163251,1
1866518528,0.005708,0.001451,0.175061,0.15415,-0.085427,0.219673,1
1866551862,-0.031682,-0.013702,0.166324,0.152573,-0.093678,0.203886,1
1866585196,0.005816,-0.045549,0.169984,0.044934,-0.045193,0.135612,1
1866618530,0.066352,0.036085,0.169993,-0.079645,0.043115,0.074474,1
1866651864,0.093405,0.081194,0.201175,-0.207692,0.056371,0.039377,1
1866685198,0.04354,0.101451,0.165526,-0.170482,0.108994,-0.006525,1
1866718532,0.0292,0.066542,0.168788,-0.159723,0.101033,0.033255,1
1866751866,0.038055,0.040536,0.177753,-0.027778,0.05239,0.081787,1
1866785200,0.035161,0.011498,0.163094,0.02423,0.019493,0.097747,1
1866818534,0.028339,0.015396,0.194707,0.010983,-0.002389,0.131797,1
1866851868,0.078116,0.024033,0.17781,0.040187,-0.018222,0.139338,1
1866885202,0.106277,0.002144,0.174203,-0.013337,-0.047312,0.139191,1
1866918536,0.04881,0.037832,0.186055,-0.01834,-0.029437,0.08267,1
1866951870,0.052705,0.063246,0.186557,-0.029241,-0.011487,0.095134,1
1866985204,0.085052,0.01508,0.167866,-0.031033,0.01542,0.075691,1
1867018538,0.067635,0.052653,0.171741,-0.031496,0.013197,0.087729,1
1867051872,0.083297,0.052061,0.191375,-0.012586,-0.005754,0.090178,1
1867085206,0.070691,0.049488,0.17821,0.005368,-0.020451,0.073407,1
1867118540,0.08321,0.056786,0.17337,0.01536,-0.06353,0.104478,1
1867151874,0.098323,0.041687,0.196553,-0.008515,-0.055103,0.111099,1
1867185208,0.093543,0.053168,0.184136,0.022058,-0.088506,0.102149,1
1867218542,0.07056,0.06695,0.152597,0.011716,-0.067684,0.075647,1
1867251876,0.048788,0.026224,0.178679,0.002377,-0.01738,0.126043,1
1867285210,0.074972,0.045724,0.192945,-0.059977,-0.015506,0.062794,1
1867318544,0.057171,0.172651,0.171547,-0.018587,0.029317,0.066112,1
1867351878,0.103902,0.021953,0.181372,-0.059084,0.046073,0.084317,1
1867385212,0.115237,0.030027,0.179163,0.027196,0.018359,0.096661,1
1867418546,0.074874,0.123943,0.182582,0.061855,-0.055911,0.115269,1
1867451880,0.054752,0.039977,0.179145,0.00805,-0.072862,0.16221,1
1867485214,0.083242,0.004501,0.182903,0.005265,-0.072021,0.142749,1
1867518548,0.100072,0.032984,0.183968,-0.05953,-0.061215,0.119079,1
1867551882,0.094643,0.027436,0.171795,-0.056703,-0.032538,0.067924,1
1867585216,0.106955,0.031948,0.185241,-0.094615,0.003756,0.065538,1
1867618550,0.100198,0.044521,0.196418,-0.041704,-0.022067,0.064137,1
1867651884,0.095247,0.063936,0.19203,-0.052169,-0.051044,0.099844,1
1867685218,0.096352,0.058269,0.184744,-0.071185,-0.048404,0.091541,1
1867718552,0.082263,-0.001231,0.20074,-0.051973,-0.061425,0.094718,1
1867751886,0.104366,0.050844,0.187407,-0.066356,-0.071735,0.081948,1
1867785220,0.092876,0.051727,0.188622,-0.085235,-0.048421,0.092813,1
1867818554,0.104016,0.054862,0.183063,-0.053958,-0.010634,0.085036,1
1867851888,0.113678,0.032289,0.182636,-0.043101,0.000455,0.053946,1
1867885222,0.084822,0.005589,0.18171,-0.019118,0.004965,0.084765,1
1867918556,0.103107,0.008177,0.155719,-0.032684,-0.010041,0.056822,1
1867951890,0.102743,0.030042,0.184891,0.073685,-0.013015,0.11144,1
1867985224,0.093002,0.092257,0.181602,0.059959,-0.011973,0.086299,1
1868018558,0.086671,0.160289,0.186203,0.113013,-0.038105,0.109676,1
1868051892,0.068338,0.150682,0.17549,0.081113,-0.095843,0.092393,1
1868085226,0.079759,0.066965,0.196172,0.020186,-0.075733,0.127893,1
1868118560,0.07812,0.0319,0.170424,0.006862,-0.078634,0.132711,1
1868151894,0.090733,0.038004,0.160707,0.043265,-0.009003,0.177068,1
1868185228,0.08552,0.060862,0.18953,0.019659,0.060659,0.092312,1
1868218562,0.055883,0.057185,0.164628,0.008738,0.085391,0.031994,1
1868251896,0.05917,0.029154,0.179376,-0.050915,0.049001,0.014321,1
1868285230,0.087969,0.052632,0.184463,-0.036173,0.089543,0.036387,1
1868318564,0.112603,0.089335,0.184325,-0.036504,0.063436,0.000886,1
1868351898,0.124936,0.099817,0.180314,0.021767,-0.092912,0.136994,1
1868385232,0.139204,0.036855,0.199303,0.032883,-0.210059,0.195747,1
1868418566,0.094407,0.049838,0.19215,-0.011633,-0.218579,0.215036,1
1868451900,0.061735,0.00703,0.175308,0.089383,-0.110076,0.402267,1
1868485234,0.077395,-0.042289,0.191572,0.184541,0.261314,0.385876,1
1868518568,0.052163,-0.006596,0.201173,0.145984,0.233683,0.3267,1
1868551902,0.013466,0.04944,0.175257,0.169475,0.15141,0.107575,1
1868585236,0.013229,0.082523,0.148188,-0.001762,0.052583,-0.023637,1
1868618570,0.202845,0.07719,0.200377,-0.264721,-0.043278,-0.174829,1
1868651904,0.196148,0.096934,0.129434,-0.331026,-0.070985,-0.256111,1
1868685238,0.252743,0.093282,0.209906,-0.33417,-0.240323,-0.207264,1
1868718572,0.274974,0.059393,0.184972,-0.423516,-0.314783,-0.127753,1
1868751906,0.156753,0.013395,0.163526,-0.329591,-0.229001,-0.011957,1
1868785240,-0.008466,0.022556,0.134393,-0.207719,-0.262584,0.082447,1
1868818574,0.094992,0.03429,0.155278,-0.125854,-0.167045,0.306353,1
1868851908,0.246253,0.065348,0.261645,0.014385,-0.009513,0.389397,1
1868885242,0.298114,0.03945,0.181661,0.056018,-0.040686,0.240921,1
1868918576,0.2402,-0.099357,0.188292,0.118055,0.002884,0.063195,1
1868951910,0.17393,-0.054445,0.164491,0.011684,-0.013895,-0.078423,1
1868985244,0.158372,0.081712,0.195915,-0.102023,-0.063128,-0.096315,1
1869018578,0.184178,0.163386,0.188633,-0.152886,-0.162751,-0.040357,1
1869051912,0.290873,0.247447,0.185079,-0.106162,-0.294756,-0.036846,1
1869085246,0.329325,0.238387,0.221972,-0.033068,-0.350722,-0.035941,1
1869118580,0.273412,0.247502,0.166456,0.088159,-0.441355,0.034456,1
1869151914,0.234825,0.177575,0.186897,0.131283,-0.412131,0.104199,1
1869185248,0.19338,0.076605,0.159984,0.121037,-0.423839,0.215158,1
1869218582,0.193918,2.8e-05,0.187928,0.156075,-0.42017,0.266269,1
1869251916,0.15981,-0.019742,0.181179,0.110567,-0.345943,0.223956,1
1869285250,0.148663,-0.0129,0.198039,0.067485,-0.196248,0.133054,1
1869318584,0.179229,0.042154,0.180898,0.023798,-0.064599,0.019577,1
1869351918,0.145984,0.126474,0.207556,-0.049213,0.027175,0.056322,1
1869385252,0.140197,-0.071983,0.368041,-0.104854,0.130423,0.017012,1
1869418586,-0.088839,0.147737,0.089213,-0.231572,0.123593,-0.028014,1
1869451920,0.057234,0.096605,0.184885,-0.315399,0.155001,-0.033948,1
1869485254,0.089443,-0.07552,0.265854,-0.452919,0.22407,-0.00927,1
1869518588,-0.004196,0.060262,-0.007755,-0.378562,0.157805,-0.167387,1
1869551922,0.128266,0.043315,-0.078238,-0.21521,0.123346,0.110177,1
1869585256,0.183989,-0.100235,0.215608,0.046432,0.230716,0.11571,1
1869618590,0.207376,-0.037946,0.174722,0.359273,-0.001021,0.085295,1
1869651924,0.204019,0.109639,0.095554,0.592525,-0.145694,0.393821,1
1869685258,-0.088425,0.248309,0.372376,0.380021,0.012343,0.717174,1
1869718592,-0.125821,0.278417,0.305515,-0.038845,0.034471,0.513669,1
1869751926,-0.145033,0.250152,0.22756,-0.134293,0.053111,0.336118,1
1869785260,-0.19351,0.148512,0.246562,-0.392011,0.217105,0.033726,1
1869818594,-0.12174,0.09729,0.191118,-0.550227,0.241499,-0.277838,1
1869851928,-0.007662,0.099466,0.050407,-0.54517,0.215046,-0.279342,1
1869885262,0.074348,0.010558,0.186217,-0.570814,0.24195,-0.229644,1
1869918596,0.143088,-0.171158,0.24685,-0.400021,0.196302,-0.143175,1
1869951930,0.188182,-0.131506,0.148013,-0.153717,0.017767,0.072619,1
1869985264,0.107574,-0.049507,0.084721,0.026615,-0.087212,0.234746,1
1870018598,0.113121,-0.145342,0.328561,0.199298,-0.104491,0.338739,1
1870051932,0.086785,-0.131867,0.310817,0.374654,-0.106569,0.419566,1
1870085266,0.042403,0.026648,0.092195,0.305729,-0.145834,0.292124,1
1870118600,0.036847,0.071835,0.116236,0.095001,-0.03569,0.104125,1
1870151934,0.087054,-0.028464,0.329769,-0.052444,0.073132,0.063425,1
1870185268,0.055962,-0.108069,0.196287,-0.132829,-0.010972,0.063308,1
1870218602,0.071665,-0.024156,0.044447,-0.079815,0.025247,0.058141,1
1870251936,-0.029207,-0.000146,0.08812,-0.016395,0.107706,0.057558,1
1870285270,-0.081175,-0.03572,0.260912,0.009635,0.142714,0.058553,1
1870318604,-0.080475,-0.014533,0.059644,0.013505,0.048088,-0.007418,1
1870351938,0.023726,0.042904,0.075962,0.062968,-0.034774,-0.022277,1
1870385272,0.016847,-0.032731,0.178819,0.195815,-0.078254,0.016222,1
1870418606,0.116603,0.038818,0.104834,0.164639,-0.171256,0.046088,1
1870451940,0.246495,0.154334,0.020497,0.111205,-0.167997,0.043791,1
1870485274,0.202382,0.142228,0.12399,0.120684,-0.007505,-0.008472,1
1870518608,0.039713,0.096885,0.26914,0.099387,-0.069628,0.088812,1
1870551942,0.028799,0.083508,0.298551,0.041953,-0.02928,0.103518,1
1870585276,-0.022362,0.156942,0.191676,0.013388,0.101618,0.111543,1
1870618610,-0.233855,0.175673,0.230607,0.006501,0.150276,0.166305,1
1870651944,-0.27815,0.199704,0.232128,-0.024891,0.224161,0.15281,1
1870685278,-0.229543,0.337509,0.244328,-0.006558,0.279273,0.186433,1
1870718612,-0.331333,0.389847,0.323644,0.099956,0.441647,0.183559,1
1870751946,-0.632577,0.230484,0.206606,0.153642,0.44007,0.153706,1
1870785280,-0.117135,0.198029,0.214382,0.15909,0.335395,0.165161,1
1870818614,0.194301,0.202269,0.179112,0.230685,0.297844,0.230414,1
1870851948,0.414862,0.228888,-0.101849,0.316796,0.040306,0.171226,1
1870885282,0.360119,0.245625,-0.114532,0.415758,-0.139929,0.138901,1
1870918616,0.138364,0.187155,-0.002361,0.421899,-0.227917,0.058111,1
1870951950,-0.184134,0.111225,0.184697,0.480517,-0.24446,0.030658,1
1870985284,-0.704256,0.226335,0.101436,0.423329,-0.219918,-0.031099,1
1871018618,-0.464264,0.094364,0.116717,0.344041,0.093905,0.10041,1
1871051952,0.005206,0.076887,0.119846,0.269209,0.437248,0.16539,1
1871085286,0.074198,0.173643,0.089684,0.179841,0.552978,0.182086,1
1871118620,0.10785,0.139318,0.013901,-0.010462,0.348692,-0.002488,1
1871151954,0.295634,0.218786,0.177936,0.120222,0.173334,-0.062128,1
1871185288,0.61462,0.187337,0.58816,0.404744,0.126765,0.257773,1
1871218622,1.434859,0.026927,-0.230491,0.766146,0.083738,0.738764,1
1871251956,0.395944,0.049884,-0.1005,0.603023,0.43391,0.759686,1
1871285290,-1.885579,-0.626115,0.198398,-0.162888,0.476039,0.230305,1
1871318624,-1.683288,-0.235846,0.454884,-0.34667,0.582585,0.113607,1
1871351958,-1.134375,0.160488,0.288475,0.200737,0.717126,0.29999,1
1871385292,-0.173353,0.5334,0.318936,0.554342,0.97817,0.303498,1
1871418626,0.848675,0.727324,0.028361,0.216932,0.647307,0.125114,1
1871451960,0.655072,0.16705,0.036922,-0.433978,-0.096001,-0.220968,1
1871485294,0.328698,0.069899,0.156458,-1.405456,-0.196004,-0.461196,1
1871518628,0.12695,-0.093244,0.231801,-1.33997,-0.215291,-0.453201,1
1871551962,-0.272032,-0.151757,0.215918,-0.901418,-0.285264,-0.731299,1
1871585296,-0.219126,-0.380306,0.167327,-0.476058,-0.703747,-1.054308,1
1871618630,0.136256,-0.302226,0.21338,0.138118,-0.894894,-0.630456,1
1871651964,0.252082,-0.2872,0.042646,0.715406,-0.470819,-0.12432,1
1871685298,0.116841,-0.351351,0.012835,0.808978,-0.137059,0.380486,1
1871718632,0.301352,-0.269386,0.028766,0.706246,-0.05631,0.737421,1
1871751966,0.283716,-0.012886,0.298472,0.441967,-0.144838,0.938222,1
1871785300,0.103619,0.388297,0.145577,0.277406,-0.336052,0.810197,1
1871818634,0.437823,0.112425,0.199533,0.111478,-0.362266,0.428801,1
1871851968,0.351658,-0.240184,0.272632,-0.021659,-0.427049,0.073339,1
1871885302,0.26763,-0.026514,0.197822,-0.24719,-0.527674,-0.094456,1
1871918636,0.184366,0.014786,0.171893,-0.328319,-0.56953,-0.153251,1
1871951970,0.220894,0.057429,0.236006,-0.277578,-0.478728,-0.139703,1
1871985304,0.235772,0.218701,0.232784,-0.174662,-0.295259,-0.041735,1
1872018638,0.104017,0.298129,0.295392,-0.180577,-0.197719,0.037695,1
1872051972,-0.020644,0.380995,0.296627,-0.376653,-0.138253,0.241205,1
1872085306,0.061426,0.230492,0.22118,-0.786376,0.086519,0.201132,1
1872118640,0.220899,-0.089835,0.216038,-0.895476,0.033561,-0.024518,1
1872151974,0.363373,-0.073775,0.154864,-0.288389,-0.180845,-0.125196,1
1872185308,0.39656,0.104548,0.199616,0.286685,-0.37816,0.020722,1
1872218642,0.201028,0.020124,0.175344,0.27759,-0.095646,-0.034855,1
1872251976,0.065845,-0.002571,0.174378,0.080273,0.032304,0.047476,1
1872285310,0.03,-0.004452,0.144707,-0.353778,-0.112294,0.07895,1
1872318644,0.109313,-0.045011,0.198825,-0.239041,-0.288699,0.273956,1
1872351978,0.232268,0.091834,0.198608,-0.050893,-0.400974,0.13772,1
1872385312,0.257581,0.044943,0.210007,0.049098,-0.461782,-0.038451,1
1872418646,0.200541,-0.084596,0.116242,-0.057669,-0.43597,-0.070271,1
1872451980,0.197991,-0.072584,0.181228,-0.093783,-0.267878,0.062367,1
1872485314,0.263244,0.018626,0.136898,-0.099186,-0.166609,0.19726,1
1872518648,0.325416,-0.032804,0.18418,-0.085573,-0.179674,0.409887,1
1872551982,0.209646,-0.075383,0.184158,-0.066478,-0.20745,0.18328,1
1872585316,0.080483,-0.108571,0.133533,-0.078795,-0.197463,-0.034019,1
1872618650,0.043511,-0.031538,0.144489,-0.004008,-0.20502,-0.075506,1
1872651984,0.074696,0.067998,0.184446,-0.001302,-0.194473,-0.026812,1
1872685318,0.025021,0.115891,0.216907,0.008586,-0.051739,0.049191,1
1872718652,-0.026124,0.139891,0.183173,0.008533,-0.01865,0.141222,1
1872751986,-0.033492,0.0316,0.179558,-0.063648,0.051922,0.186033,1
1872785320,0.002362,-0.01486,0.222962,-0.064159,0.105359,0.103146,1
1872818654,0.019586,0.077976,0.125882,-0.011967,0.067752,0.033534,1
1872851988,0.078386,0.082927,0.190401,0.030616,0.124187,0.046145,1
1872885322,0.087017,0.075109,0.154753,0.115125,0.082285,0.069345,1
1872918656,0.065165,0.082321,0.234302,0.180087,0.013011,0.129745,1
1872951990,-0.003974,0.093405,0.165033,0.19322,0.01702,0.206274,1
1872985324,-0.001234,0.114141,0.252332,0.141712,-0.01873,0.382022,1
1873018658,0.069014,0.064475,0.207836,0.074132,-0.074224,0.404763,1
1873051992,0.017491,-0.086593,0.213634,-0.029758,-0.052709,0.324925,1
1873085326,0.007179,-0.036396,0.188958,-0.074761,0.017771,0.172734,1
1873118660,0.036588,0.099045,0.172477,-0.112374,0.062716,-0.008397,1
1873151994,0.039447,0.101175,0.138243,-0.102509,0.118574,-0.035716,1
1873185328,0.049753,0.198101,0.212665,-0.116265,0.122455,0.061804,1
1873218662,0.027694,0.159417,0.175912,-0.071525,0.136553,0.111011,1
1873251996,0.037874,0.001519,0.172728,-0.019371,0.116079,0.15089,1
1873285330,0.068538,-0.01292,0.183562,0.01075,0.092766,0.153082,1
1873318664,-0.024544,-0.040095,0.189938,0.007349,0.098672,0.163067,1
1873351998,0.05229,-0.027924,0.174108,-0.053228,0.103582,0.125568,1
1873385332,0.115459,-0.010086,0.170581,-0.148406,0.089782,0.06324,1
1873418666,0.102514,0.017703,0.184359,-0.180799,0.054488,0.00425,1
1873452000,0.090774,0.018424,0.179495,-0.195587,0.007011,0.011864,1
1873485334,0.05949,0.009406,0.156342,-0.173184,-0.017971,0.002008,1
1873518668,0.012491,0.031947,0.206678,-0.096381,-0.021749,0.082349,1
1873552002,0.026609,0.132588,0.152984,-0.036664,0.025495,0.056652,1
1873585336,0.095278,-0.088429,0.143513,0.064055,0.063113,0.122268,1
1873618670,0.200705,-0.061021,0.173668,0.116981,-0.001169,0.085518,1
1873652004,0.092008,0.091615,0.183268,0.137259,-0.047628,0.122179,1
1873685338,0.013736,0.066055,0.184286,0.070678,-0.084596,0.153967,1
1873718672,0.061957,0.063185,0.214196,0.006078,-0.122152,0.125771,1
1873752006,0.066504,0.090827,0.1863,-0.036425,-0.098605,0.087399,1
1873785340,0.098482,0.071551,0.174971,-0.081508,-0.048556,0.031496,1
1873818674,0.12929,0.02662,0.18104,-0.037563,-0.017009,0.047564,1
1873852008,0.115049,0.072621,0.179682,-0.019442,-0.004134,0.059016,1
1873885342,0.080906,0.048443,0.162105,0.001819,0.002974,0.086029,1
1873918676,0.054816,0.022971,0.176665,0.020406,-0.021002,0.153016,1
1873952010,0.091953,-0.001812,0.155744,0.038405,-0.00448,0.096131,1
1873985344,0.124141,0.05299,0.176059,0.053992,0.00303,0.076029,1
1874018678,0.100088,0.070635,0.177495,0.054171,-0.073691,0.112875,1
1874052012,0.066441,0.065316,0.191882,0.047568,-0.123493,0.129704,1
1874085346,0.075632,0.080657,0.17246,0.004333,-0.072559,0.089132,1
1874118680,0.059498,0.108345,0.190552,0.006728,-0.057974,0.129204,1
1874152014,0.098171,0.061814,0.151875,0.02262,-0.020686,0.071339,1
1874185348,0.099444,0.049008,0.169163,0.025312,0.01466,0.092562,1
1874218682,0.102255,0.115738,0.189874,0.034557,-0.031942,0.056381,1
1874252016,0.05007,0.101636,0.176591,0.047487,-0.048864,0.103335,1
1874285350,0.066211,0.056369,0.176312,0.033528,-0.074718,0.135107,1
1874318684,0.081783,0.047919,0.189778,0.033428,-0.048949,0.120678,1
1874352018,0.110106,0.070114,0.174074,0.016446,-0.034722,0.106562,1
1874385352,0.093086,0.073228,0.169328,0.006345,-0.037986,0.068021,1
1874418686,0.107071,0.015135,0.173107,0.000312,-0.017518,0.102591,1
1874452020,0.088809,0.034765,0.184065,-0.018774,-0.032496,0.073946,1
1874485354,0.07539,0.106966,0.186633,-0.016752,-0.040759,0.086787,1
1874518688,0.086181,0.06466,0.185039,-0.028664,-0.029071,0.081725,1
1874552022,0.089928,0.042852,0.186906,-0.001988,-0.002453,0.083573,1
1874585356,0.083892,0.060335,0.172029,0.079164,0.161159,0.162375,1
1874618690,0.0955,0.058054,0.174712,0.142252,0.238287,0.193295,1
1874652024,0.110295,0.040973,0.177359,0.235058,0.246129,0.166323,1
1874685358,0.073226,0.050435,0.173281,0.126136,0.126913,0.111549,1
1874718692,0.067887,0.059422,0.185006,0.269036,0.194445,0.190099,1
1874752026,0.068496,0.042656,0.176309,0.093215,0.310402,0.137698,1
1874785360,0.095796,0.029516,0.186689,0.181458,0.004401,0.157832,1
1874818694,0.100572,0.020409,0.162503,0.502131,0.296413,0.316881,1
1874852028,0.096558,0.069229,0.189217,0.264905,-0.151754,0.162407,1
1874885362,0.085656,0.096373,0.201847,0.256862,-0.300164,0.252599,1
1874918696,0.0569,0.036295,0.176034,0.136599,-0.377353,0.14634,1
1874952030,0.090924,0.010276,0.160749,-0.206471,-0.243719,-0.114304,1
1874985364,0.107874,0.063673,0.1841,-0.296231,0.102918,-0.094958,1
1875018698,0.093042,0.083801,0.170275,-0.599531,0.155791,-0.168487,1
1875052032,0.095797,0.05394,0.186669,-0.595615,-0.224995,-0.084907,1
1875085366,0.099552,0.094497,0.183074,-0.514026,-0.749795,0.023884,1
1875118700,0.073272,0.132834,0.18961,-0.595535,-0.570765,-0.20192,1
1875152034,0.038164,0.104874,0.187879,-0.995069,0.082131,-0.623345,1
1875185368,0.060635,0.014258,0.173562,-0.449659,-0.314009,-0.239278,1
1875218702,0.103581,-0.017966,0.163303,0.62788,-0.428221,0.525132,1
1875252036,0.121714,0.044003,0.198645,1.132525,-0.15314,0.791741,1
1875285370,0.098672,0.076054,0.191031,0.840046,-0.239561,0.456727,1
1875318704,0.076109,0.015708,0.13856,0.052252,-0.179184,-0.116142,1
1875352038,0.093827,0.018271,0.187169,-0.633183,-0.173529,-0.270232,1
1875385372,0.056455,0.058197,0.190741,-0.206064,-0.304067,0.227592,1
1875418706,0.057966,0.088753,0.175374,-0.144777,-0.013093,0.116147,1
1875452040,0.141095,0.019039,0.166163,-0.07205,0.062373,0.08031,1
1875485374,0.16009,0.056363,0.163521,0.405777,0.263248,0.356991,1
1875518708,0.078828,0.079016,0.177287,0.103126,0.170347,-0.008779,1
1875552042,0.047928,0.072901,0.191107,-0.108491,-0.077212,0.009564,1
1875585376,0.070811,0.007775,0.180781,0.347306,-0.170442,0.448786,1
1875618710,0.115584,0.003278,0.194301,0.176686,0.156921,0.150769,1
1875652044,0.083193,0.067286,0.172967,0.099009,-0.086342,0.154762,1
1875685378,0.078805,0.053322,0.170537,-0.002026,-0.244183,0.107349,1
1875718712,0.138679,0.045178,0.18624,0.009398,-0.087997,-0.001125,1
1875752046,0.093295,0.085494,0.162681,0.115229,-0.099226,0.143106,1
1875785380,0.082981,0.079108,0.174581,-0.059821,0.108502,0.079103,1
1875818714,0.10294,0.077938,0.198521,0.19911,0.233966,0.185906,1
1875852048,0.109128,0.067047,0.184431,-0.005452,0.273087,-0.011113,1
1875885382,0.085078,0.088796,0.185825,-0.005143,0.209903,0.046356,1
1875918716,0.096896,0.052043,0.197261,0.035832,0.238796,0.008951,1
1875952050,0.104175,0.048575,0.192129,-0.161661,0.161678,-0.012392,1
1875985384,0.084101,0.080463,0.178957,0.083456,0.251534,0.044456,1
1876018718,0.094857,0.087879,0.190232,0.10758,0.257584,0.024038,1
1876052052,0.077332,0.066781,0.174753,-0.05221,0.112684,-0.027334,1
1876085386,0.072568,0.053496,0.182745,0.132655,0.045533,0.106132,1
1876118720,0.087053,0.023007,0.200037,0.273665,0.28974,0.05535,1
1876152054,0.081096,0.025503,0.159556,-0.150562,-0.350239,0.134187,1
1876185388,0.088937,0.061207,0.190338,-0.021712,-0.266231,0.221707,1
1876218722,0.068302,0.034189,0.197135,-0.065967,-0.067509,0.088291,1
1876252056,0.071143,0.050115,0.185833,0.09182,-0.195701,0.290371,1
1876285390,0.094279,0.062315,0.21294,0.229179,-0.477873,0.3343,1
1876318724,0.091887,0.021891,0.163714,0.01773,-0.15985,0.069963,1
1876352058,0.105893,0.022661,0.19404,-0.259411,0.059064,-0.030005,1
1876385392,0.082094,0.044277,0.161756,-0.376392,-0.013656,-0.08501,1
1876418726,0.098466,0.060533,0.186826,-0.267813,0.063098,0.031359,1
1876452060,0.079096,0.027394,0.171368,-0.072501,0.079698,0.146976,1
1876485394,0.103151,0.011537,0.189686,0.224712,0.042279,0.247757,1
1876518728,0.118109,0.050458,0.186769,0.427524,0.018014,0.286788,1
1876552062,0.106109,0.086682,0.180486,0.367254,-0.048593,0.227015,1
1876585396,0.09681,0.051166,0.167683,0.203741,-0.065494,0.163548,1
1876618730,0.084699,0.012879,0.174879,-0.0063,-0.032009,0.079447,1
1876652064,0.079346,0.077898,0.197407,-0.139465,-0.037506,0.036537,1
1876685398,0.062713,0.11294,0.182037,-0.178356,-0.067266,0.000808,1
1876718732,0.090976,0.078998,0.183239,-0.258797,-0.065569,-0.061493,1
1876752066,0.10572,0.021645,0.162062,-0.1576,0.03009,-0.005354,1
1876785400,0.083856,0.026733,0.197726,-0.097854,0.072498,0.049541,1
1876818734,0.088193,0.11357,0.182747,0.013685,0.074956,0.094997,1
1876852068,0.106533,0.070971,0.177849,0.063929,0.040079,0.103351,1
1876885402,0.099624,-0.001297,0.177615,0.072702,-0.015024,0.156098,1
1876918736,0.089601,-0.002058,0.172223,0.049596,-0.032528,0.143925,1
1876952070,0.107112,0.029077,0.183136,0.001375,-0.124916,0.116571,1
1876985404,0.098891,0.055583,0.182136,-0.01878,-0.111752,0.091621,1
1877018738,0.084176,0.029163,0.182675,-0.083246,-0.081367,0.063975,1
1877052072,0.0821,0.050551,0.170618,-0.063843,-0.058597,0.058175,1
1877085406,0.107156,0.050353,0.177041,-0.016554,-0.007821,0.069327,1
1877118740,0.075524,0.087277,0.186071,-0.000869,0.020868,0.093177,1
1877152074,0.077569,0.100505,0.184377,0.016703,0.022378,0.093012,1
1877185408,0.080107,0.090951,0.180353,0.040013,-0.0199,0.104023,1
1877218742,0.087379,0.075143,0.17387,0.042013,-0.050761,0.135433,1
1877252076,0.075636,0.069158,0.181955,0.068069,-0.046577,0.100386,1
1877285410,0.071195,0.101377,0.168336,0.031195,-0.070381,0.085043,1
1877318744,0.092726,0.067831,0.176752,0.017351,-0.067722,0.131498,1
1877352078,0.084414,0.061022,0.160907,0.017339,-0.032598,0.08076,1
1877385412,0.077339,0.062763,0.195388,-0.001744,-0.035848,0.111564,1
1877418746,0.103104,0.048067,0.195955,0.023352,0.03277,0.08724,1
1877452080,0.071271,0.081716,0.16243,0.020229,0.016215,0.070987,1
1877485414,0.089281,0.138378,0.180252,0.074687,-0.016319,0.095475,1
1877518748,0.069886,0.086496,0.182494,0.045767,-0.058936,0.106813,1
1877552082,0.06418,0.083202,0.190784,0.023054,-0.060038,0.114532,1
1877585416,0.087598,0.060096,0.182286,0.022591,-0.063803,0.087585,1
1877618750,0.095516,0.070335,0.164931,0.021676,-0.068102,0.10162,1
1877652084,0.098268,0.04928,0.169944,0.010163,-0.027186,0.080467,1
1877685418,0.08351,0.063707,0.177888,0.00418,-0.017243,0.080668,1
1877718752,0.074224,0.090155,0.174625,0.010818,-0.013456,0.082532,1
1877752086,0.077603,0.067439,0.185342,-0.001892,-0.034051,0.083971,1
1877785420,0.076218,0.075263,0.187546,-0.002704,-0.032248,0.084958,1
1877818754,0.088669,0.071216,0.182428,-0.002055,-0.05058,0.088989,1
1877852088,0.086177,0.071371,0.175379,-0.00051,-0.057188,0.082648,1
1877885422,0.103996,0.062789,0.182121,-0.00536,-0.049193,0.075301,1
1877918756,0.07696,0.050912,0.186683,0.031316,-0.030665,0.09298,1
1877952090,0.096616,0.060751,0.161843,0.013815,7.8e-05,0.101383,1
1877985424,0.074434,0.060726,0.182673,-0.001943,0.006552,0.105383,1
1878018758,0.087728,0.078062,0.177028,-0.011078,0.006655,0.060128,1
1878052092,0.072355,0.060258,0.191608,-0.028467,-0.003556,0.104377,1
1878085426,0.090845,0.039941,0.176493,-0.034199,-0.007931,0.060808,1
1878118760,0.098396,0.063027,0.183481,-0.017078,-0.011327,0.050225,1
1878152094,0.082177,0.111704,0.167626,0.036875,-0.042722,0.063961,1
1878185428,0.071747,0.080897,0.18482,0.041492,-0.038882,0.11996,1
1878218762,0.061282,0.059836,0.173937,0.015107,-0.011645,0.080852,1
1878252096,0.097433,0.042239,0.169395,0.034204,0.008211,0.090492,1
1878285430,0.117075,0.061776,0.180986,0.045659,-0.007131,0.111915,1
1878318764,0.077166,0.09082,0.188884,0.016183,-0.009532,0.101936,1
1878352098,0.073539,0.08546,0.166686,0.080775,-0.028753,0.161219,1
1878385432,0.094143,0.079138,0.192895,0.032941,-0.178926,0.18541,1
1878418766,0.063556,0.05737,0.187863,0.096785,-0.098491,0.13913,1
1878452100,0.074879,0.073715,0.171788,-0.025818,-0.139752,-0.051608,1
1878485434,0.082825,0.095728,0.174482,-0.049455,-0.117138,0.04586,1
1878518768,0.09513,0.103804,0.183722,-0.093705,-0.173068,0.153279,1
1878552102,0.055444,0.080947,0.201807,-0.072613,-0.28987,0.163891,1
1878585436,0.056579,0.08843,0.171962,0.045522,-0.237961,0.09141,1
1878618770,0.09222,0.037573,0.187021,0.097602,-0.07808,0.016537,1
1878652104,0.087998,0.079566,0.179392,0.127829,0.064368,0.061357,1
1878685438,0.077055,0.065808,0.173764,0.113082,0.266167,0.092892,1
1878718772,0.093754,0.082687,0.197282,0.019152,0.345558,0.12308,1
1878752106,0.103927,0.09139,0.174362,0.000609,0.315451,0.028854,1
1878785440,0.073637,0.073396,0.177039,-0.092557,0.13959,-0.005259,1
1878818774,0.077604,0.06893,0.177464,-0.066327,-0.04014,0.006743,1
1878852108,0.080928,0.024894,0.180728,-0.068779,-0.179512,0.065285,1
1878885442,0.066699,0.049438,0.196017,-0.050165,-0.212255,0.132753,1
1878918776,0.074706,0.045737,0.189839,0.024485,-0.206016,0.166376,1
1878952110,0.109524,0.059869,0.181576,0.050386,-0.181354,0.172961,1
1878985444,0.114555,0.040008,0.176142,0.080732,-0.09381,0.121188,1
1879018778,0.115205,0.04098,0.185579,0.082324,-0.044269,0.116639,1
1879052112,0.099992,0.066565,0.188221,0.054126,0.022274,0.124996,1
1879085446,0.069703,0.097495,0.185377,0.005704,0.077159,0.143346,1
1879118780,0.081464,0.07586,0.191575,-0.011668,0.072005,0.081392,1
1879152114,0.096697,0.070432,0.169299,-0.014434,0.009109,0.015069,1
1879185448,0.102149,0.081138,0.178554,-0.004219,-0.046733,-0.065823,1
1879218782,0.091618,0.040398,0.205459,-0.016126,-0.152353,-0.123999,1
1879252116,0.094399,-0.045122,0.134509,-0.180345,-0.274305,-0.11939,1
1879285450,0.145812,-0.078618,0.162719,-0.188817,-0.215658,0.185095,1
1879318784,0.132627,0.129134,0.217337,0.02118,-0.109813,0.169508,1
1879352118,0.086291,0.267412,0.168998,0.111367,-0.06374,0.075497,1
1879385452,0.0735,0.20138,0.211813,0.223937,-0.054187,0.143535,1
1879418786,0.097923,0.118718,0.109727,0.42017,-0.030424,0.144613,1
1879452120,0.106849,0.071052,0.177663,0.356628,-0.036613,0.286015,1
1879485454,0.072523,0.202723,0.178915,0.288722,-0.06793,0.117876,1
1879518788,0.106615,0.110917,0.187082,0.220748,-0.195485,0.051127,1
1879552122,0.084887,0.020421,0.153362,0.096836,-0.179045,0.187707,1
1879585456,0.029873,0.026657,0.19671,-0.002455,-0.067434,0.057274,1
1879618790,-0.019674,0.005214,0.161949,-0.212323,-0.06578,0.051826,1
1879652124,0.101753,0.087886,0.214602,-0.220313,-0.066384,0.224885,1
1879685458,0.088547,0.128344,0.199191,-0.104626,0.05313,0.195518,1
1879718792,0.071642,0.10195,0.173833,-0.082803,0.171394,0.18448,1
1879752126,0.016784,-0.012953,0.230204,-0.050535,0.312502,0.260879,1
1879785460,-0.037834,-0.040131,0.183205,-0.081418,0.322503,0.151431,1
1879818794,0.033076,-0.073844,0.154092,-0.227191,0.245442,0.151922,1
1879852128,0.108345,-0.079754,0.213035,-0.196861,0.201961,0.058063,1
1879885462,0.081601,-0.034069,0.180956,-0.288103,0.132813,0.029199,1
1879918796,0.077497,0.012141,0.178546,-0.281063,0.117319,-0.053125,1
1879952130,0.072717,0.060268,0.171331,-0.262168,0.111368,-0.094135,1
1879985464,0.046872,0.037008,0.200217,-0.249711,0.14849,-0.129645,1
1880018798,0.092468,0.038391,0.129174,-0.215721,0.073172,-0.15809,1
1880052132,0.192117,0.036618,0.192462,-0.005001,0.024491,-0.016716,1
1880085466,0.151762,0.133083,0.180272,0.056577,-0.017768,0.08742,1
1880118800,0.06707,0.246991,0.189754,0.206474,-0.035871,0.213027,1
1880152134,0.032455,0.188881,0.215408,0.238867,-0.128259,0.234873,1
1880185468,0.005264,0.084086,0.204223,0.314776,-0.125677,0.201069,1
1880218802,0.061013,0.049011,0.172455,0.226702,-0.100905,0.158303,1
1880252136,0.12872,0.022529,0.180731,0.107693,-0.117046,0.13048,1
1880285470,0.156719,0.00719,0.14784,-0.040339,-0.182535,0.027521,1
1880318804,0.148726,0.034415,0.178459,-0.009248,-0.224427,0.007316,1
1880352138,0.149631,0.166871,0.177991,0.101249,-0.318552,0.043276,1
1880385472,0.098265,0.170338,0.166294,0.092684,-0.180443,0.021691,1
1880418806,0.065634,0.106118,0.185774,0.0556,-0.140785,0.141785,1
1880452140,0.089494,0.072188,0.18168,0.242296,-0.140742,0.306566,1
1880485474,0.097683,0.024302,0.176826,0.134534,0.000581,0.114636,1
1880518808,0.05529,0.05141,0.15414,-0.035736,0.073947,-0.133586,1
1880552142,0.068498,0.064614,0.150846,-0.084813,-0.01052,-0.111146,1
1880585476,0.101775,0.117769,0.167798,-0.034899,-0.055058,0.01352,1
1880618810,0.131259,0.122706,0.162744,0.027909,-0.036217,0.116334,1
1880652144,0.084832,0.202318,0.201625,0.176185,-0.006762,0.178797,1
1880685478,0.036691,0.226884,0.185274,0.230956,-0.082628,0.153152,1
1880718812,0.069419,0.102018,0.16057,0.256729,-0.165918,0.158845,1
1880752146,0.115902,0.07438,0.175188,0.08551,-0.145345,0.172904,1
1880785480,0.072243,0.065578,0.186937,-0.020589,-0.06873,0.163159,1
1880818814,-0.006269,0.048822,0.198354,-0.067272,0.005666,0.07029,1
1880852148,0.020363,0.077186,0.204149,-0.110128,0.08286,0.010555,1
1880885482,0.074725,0.068438,0.184636,-0.090992,0.168417,0.090326,1
1880918816,0.102598,0.003415,0.169002,0.011645,0.232658,0.101236,1
1880952150,0.079641,0.030275,0.166736,0.032116,0.213195,0.131791,1
1880985484,0.014303,0.035037,0.191463,-0.039282,0.16097,0.143002,1
1881018818,0.044398,0.027105,0.206615,-0.080027,0.020224,0.094285,1
1881052152,0.101991,0.002626,0.189324,-0.124095,-0.100797,0.093734,1
1881085486,0.082256,0.069696,0.19875,-0.21999,-0.140344,0.17302,1
1881118820,0.102539,0.088009,0.224923,0.089067,-0.137569,0.311229,1
1881152154,0.059936,0.08459,0.162387,0.24895,-0.066681,0.151137,1
1881185488,0.085255,-0.052593,0.172215,0.118317,0.163313,0.013741,1
1881218822,0.065225,-0.172997,0.176908,-0.20572,0.157057,-0.189599,1
1881252156,0.155828,-0.114415,0.156333,-0.391111,-0.01661,-0.168036,1
1881285490,0.194724,0.035906,0.170721,-0.426452,-0.110367,-0.1634,1
1881318824,0.100718,0.218622,0.211024,-0.302825,-0.22207,-0.280454,1
1881352158,-0.023768,0.23144,0.157597,-0.028745,-0.219355,-0.179541,1
1881385492,0.051444,0.074336,0.200109,0.041558,-0.033397,0.098337,1
1881418826,0.089329,0.022797,0.131141,0.206705,-0.024541,0.115891,1
1881452160,0.140065,0.153101,0.123517,0.496436,0.068586,0.58431,1
1881485494,0.081289,0.194011,0.272743,0.161048,0.252851,0.244886,1
1881518828,-0.046375,0.221447,0.161181,0.070952,0.170805,-0.213031,1
1881552162,0.074449,0.11456,0.141628,0.002553,0.082891,-0.121957,1
1881585496,0.156918,0.201583,0.222602,-0.071264,-0.132152,0.142323,1
1881618830,0.06775,0.298502,0.235871,-0.028673,-0.095974,0.548992,1
1881652164,-0.033465,0.197048,0.234999,0.138756,-0.070978,0.497512,1
1881685498,-0.08971,0.084066,0.158578,0.114048,0.044942,0.240377,1
1881718832,0.132143,-0.055572,0.116986,0.273361,0.053342,0.396711,1
1881752166,0.196877,-0.025864,0.197453,0.168224,-0.036621,0.565969,1
1881785500,-0.034541,-0.006058,0.217995,0.074287,0.19556,0.26708,1
1881818834,-0.22008,-0.033708,0.197661,-0.066771,0.208759,-0.132237,1
1881852168,-0.070554,-0.008137,0.202042,-0.083887,0.133107,-0.171384,1
1881885502,0.171825,-0.026115,0.188198,-0.337903,0.139738,-0.295227,1
1881918836,0.209633,0.028248,0.153543,-0.505055,0.063987,-0.287449,1
1881952170,0.248077,0.04155,0.126095,-0.435325,-0.3355,-0.2798,1
1881985504,0.391676,0.126749,0.120774,-0.233266,-0.592895,-0.292184,1
1882018838,0.4895,0.261797,0.166729,8e-06,-0.823929,-0.175461,1
1882052172,0.382241,0.324845,0.170954,0.224112,-0.945662,0.057169,1
1882085506,0.270521,0.215871,0.159666,0.497409,-0.857647,0.19854,1
1882118840,0.210348,0.075368,0.129294,0.565868,-0.873973,0.416104,1
1882152174,0.255319,-0.036516,0.1535,0.71668,-0.811841,0.495665,1
1882185508,0.311913,-0.083428,0.174081,0.791294,-0.642723,0.540211,1
1882218842,0.103334,-0.01151,0.183868,0.496268,-0.234656,0.391317,1
1882252176,-0.170159,-0.099582,0.220541,0.141659,-0.120573,0.334839,1
1882285510,-0.460673,-0.193968,0.25514,-0.100268,0.179111,0.262436,1
1882318844,-0.658016,-0.210468,0.20501,-0.213507,0.326587,0.185963,1
1882352178,-0.391064,-0.026431,0.094466,-0.289717,0.572422,0.21373,1
1882385512,0.096028,0.135548,0.179455,-0.381556,1.008655,0.1931,1
1882418846,0.358477,0.147836,0.24641,-0.607621,1.148011,0.033333,1
1882452180,0.292049,0.141274,0.238382,-0.691796,1.017012,-0.163337,1
1882485514,-0.005107,0.123832,0.180247,-0.758313,0.808488,-0.402485,1
1882518848,-0.013421,-0.01927,0.085124,-0.639624,0.696629,-0.546285,1
1882552182,0.085147,-0.057727,0.18954,-0.534621,0.260292,-0.382895,1
1882585516,0.117878,0.031436,0.223494,-0.361644,-0.137987,-0.037398,1
1882618850,0.281261,-0.060676,0.279848,-0.130387,-0.188368,0.204484,1
1882652184,0.396249,-0.088945,0.211408,0.073119,-0.067102,0.292901,1
1882685518,-0.035937,0.343639,0.358529,0.345087,-0.078345,0.365404,1
1882718852,0.059782,0.431392,0.223089,0.576927,-0.253498,0.561347,1
1882752186,-0.378472,-0.301536,-0.160931,0.724769,-0.310747,0.434895,1
1882785520,-0.160382,-0.026198,0.133001,0.52886,-0.393303,0.23833,1
1882818854,0.002298,0.182694,0.171849,0.285226,-0.467207,0.177075,1
1882852188,-0.128265,0.392149,0.219004,0.078613,-0.354098,0.09109,1
1882885522,0.065817,0.334742,0.189474,-0.03429,-0.123778,0.065465,1
1882918856,0.159375,0.096903,0.224519,-0.093001,-0.007149,0.07596,1
1882952190,-0.039716,0.147307,0.093915,-0.10859,0.065751,0.027475,1
1882985524,0.013705,-0.028195,0.171939,-0.08397,0.09808,0.011066,1
1883018858,0.10425,0.012812,0.178054,-0.10057,0.107118,-0.045162,1
1883052192,0.093912,0.072533,0.147375,-0.051648,0.060448,0.007833,1
1883085526,0.123289,0.010821,0.17392,-0.042107,0.022469,0.031702,1
1883118860,0.061453,0.145086,0.175302,-0.023047,-0.0608,0.058489,1
1883152194,0.040349,0.104353,0.162107,0.020213,-0.178918,0.049965,1
1883185528,0.056776,0.152465,0.185489,0.043595,-0.185805,0.1197,1
1883218862,0.071316,0.115011,0.196425,0.018999,-0.170617,0.142487,1
1883252196,0.089043,0.015372,0.1743,-0.00472,-0.131513,0.122846,1
1883285530,0.082485,0.066364,0.187236,0.019723,-0.060878,0.123446,1
1883318864,0.056598,0.02281,0.165719,0.006103,-0.011442,0.077767,1
1883352198,-0.007973,0.168424,0.243997,-0.037245,0.020531,0.068769,1
1883385532,-0.000781,0.173322,0.15777,-0.027702,0.032096,0.068382,1
1883418866,0.009304,0.191434,0.156011,0.002852,-0.025828,0.087314,1
1883452200,0.00208,0.212673,0.165237,0.060764,-0.048736,0.105747,1
1883485534,0.044881,0.139085,0.176019,0.123886,-0.069261,0.118199,1
1883518868,0.083105,0.13616,0.176935,0.182342,-0.129492,0.137254,1
1883552202,0.052572,0.131777,0.15169,0.223235,-0.149678,0.139066,1
1883585536,0.04507,0.152147,0.174015,0.206252,-0.162187,0.132502,1
1883618870,0.023452,0.110881,0.173271,0.207498,-0.169209,0.122947,1
1883652204,0.089658,0.102723,0.150501,0.164693,-0.178447,0.106902,1
1883685538,0.099506,0.04776,0.141204,0.078072,-0.179789,0.08988,1
1883718872,0.083841,0.048204,0.130791,0.08351,-0.093263,0.077268,1
1883752206,0.068439,0.083698,0.18076,0.038537,-0.052415,0.085041,1
1883785540,0.050378,0.08293,0.17282,0.062335,-0.044361,0.05587,1
1883818874,0.060025,0.095352,0.18452,0.006199,-0.040001,0.086965,1
1883852208,0.041593,0.055536,0.162876,-0.059321,-0.022704,0.049635,1
1883885542,0.062809,0.068639,0.176612,-0.065362,-0.040144,0.041975,1
1883918876,0.008077,0.114248,0.196522,-0.077215,-0.047079,0.066445,1
1883952210,0.066345,0.068155,0.15688,-0.079576,-0.017252,0.032111,1
1883985544,0.090225,0.016432,0.161715,-0.046987,-0.005603,0.109797,1
1884018878,0.09025,-0.015464,0.157948,-0.004021,-0.009326,0.109818,1
1884052212,0.045556,0.022052,0.187601,-0.012464,0.005933,0.102359,1
1884085546,0.047417,0.057398,0.174809,-0.045997,0.000541,0.120415,1
1884118880,0.104272,0.031667,0.185777,-0.051313,0.004169,0.11575,1
1884152214,0.066686,0.066416,0.181557,-0.084027,0.001483,0.071507,1
1884185548,-0.012352,0.114501,0.165184,-0.080098,-0.008891,0.082075,1
1884218882,0.005848,0.083241,0.206309,-0.079343,0.00709,0.132359,1
1884252216,0.046261,0.122792,0.2073,-0.031463,0.032491,0.121128,1
1884285550,0.064756,0.10174,0.174853,-0.032484,0.012243,0.085599,1
1884318884,0.042086,0.033501,0.167678,0.020016,0.004625,0.152493,1
1884352218,0.065385,0.042742,0.20063,-0.025533,-0.042373,0.111589,1
1884385552,0.057915,0.085826,0.168645,0.025844,-0.044233,0.115971,1
1884418886,0.070395,0.026563,0.178004,-0.046267,-0.055582,0.075212,1
1884452220,0.076726,0.096992,0.17734,-0.000928,-0.055334,0.094588,1
1884485554,0.045814,0.088862,0.195012,0.013181,-0.046996,0.091525,1
1884518888,0.03691,0.116426,0.182459,-0.03604,-0.052509,0.097443,1
1884552222,0.077582,0.053175,0.18722,0.008633,-0.05211,0.110729,1
1884585556,0.079771,0.058656,0.17526,-0.027102,-0.048603,0.109035,1
1884618890,0.069704,0.081445,0.167121,-0.004125,-0.030953,0.049555,1
1884652224,0.05042,0.073425,0.165155,-0.014425,-0.033377,0.075491,1
1884685558,0.058488,0.043486,0.193518,0.001022,-0.070162,0.090263,1
1884718892,0.063901,0.046212,0.169415,-0.016219,-0.069952,0.08935,1
1884752226,0.053358,0.120868,0.184652,0.007817,-0.067632,0.093823,1
1884785560,0.065666,0.062822,0.171143,-0.010759,-0.064728,0.085253,1
1884818894,0.07221,0.057439,0.178487,0.000973,-0.058378,0.086683,1
1884852228,0.062367,0.103707,0.183582,0.009762,-0.058229,0.127231,1
1884885562,0.046174,0.058134,0.19287,0.031543,-0.054598,0.11064,1
1884918896,0.036432,0.082964,0.173371,0.035996,-0.067383,0.107481,1
1884952230,0.05334,0.090042,0.165974,0.012623,-0.053964,0.082975,1
1884985564,0.059956,0.111948,0.169668,0.016988,-0.073139,0.102839,1
1885018898,0.070983,0.076475,0.166388,0.019697,-0.058348,0.130246,1
1885052232,0.095396,0.034436,0.169856,-0.023941,-0.074637,0.115171,1
1885085566,0.083788,0.050929,0.172708,0.021172,-0.047799,0.089766,1
1885118900,0.070821,0.090354,0.194925,-0.032108,-0.028643,0.075936,1
1885152234,0.043417,0.123311,0.177696,0.015298,-0.032769,0.091175,1
1885185568,0.000501,0.117495,0.19867,-0.022372,-0.050445,0.076994,1
1885218902,-0.012919,0.093151,0.203609,-0.028628,-0.036954,0.07912,1
1885252236,0.020448,0.160064,0.166913,0.00216,-0.026368,0.098031,1
1885285570,0.081809,0.072799,0.179739,0.014443,-0.009666,0.128925,1
1885318904,0.072031,0.025447,0.169153,0.041055,-0.022172,0.09848,1
1885352238,0.054178,0.004265,0.139277,0.0473,-0.04847,0.093695,1
1885385572,0.039057,0.046686,0.170974,0.036352,-0.069167,0.097229,1
1885418906,0.070522,0.083776,0.183882,0.009335,-0.0412,0.072816,1
1885452240,0.024012,0.134524,0.200053,-0.011602,-0.043237,0.077707,1
1885485574,-0.030224,0.201404,0.186193,0.031055,-0.026352,0.065599,1
1885518908,0.018487,0.117241,0.14757,0.046591,0.001824,0.095897,1
1885552242,0.051976,0.037078,0.177433,0.10388,0.013093,0.122976,1
1885585576,0.048449,0.060885,0.186839,0.113635,-0.028884,0.122905,1
1885618910,0.038307,0.065144,0.176319,0.072127,-0.039488,0.118506,1
1885652244,0.034683,0.073369,0.171698,0.009096,-0.055103,0.089915,1
1885685578,0.022424,0.096956,0.177681,-0.044475,-0.080072,0.083493,1
1885718912,0.051186,0.050932,0.174224,-0.073528,-0.059118,0.037256,1
1885752246,0.054231,0.039476,0.182927,-0.094955,-0.067024,0.084318,1
1885785580,0.052786,0.024578,0.166928,-0.046288,-0.003082,0.049349,1
1885818914,0.067909,0.071419,0.170513,-0.046039,0.017434,0.086285,1
1885852248,0.060563,0.068058,0.184429,0.032852,-0.027598,0.118999,1
1885885582,0.004059,0.086538,0.165835,0.01129,-0.036674,0.119743,1
1885918916,-0.013529,0.067871,0.189085,-0.027879,-0.078136,0.102879,1
1885952250,0.019558,0.092048,0.186704,-0.017664,-0.074715,0.083358,1
1885985584,0.034348,0.064447,0.188457,-0.048014,-0.042279,0.097688,1
1886018918,0.055309,0.079676,0.173139,-0.024851,-0.011777,0.073831,1
1886052252,0.049051,0.080535,0.154644,0.022278,-0.020908,0.089504,1
1886085586,0.076335,0.05339,0.143222,0.042301,-0.064253,0.111116,1
1886118920,0.105647,0.024607,0.200583,0.021428,-0.113572,0.163123,1
1886152254,0.07855,-0.040767,0.16229,0.021779,-0.155545,0.096392,1
1886185588,0.085045,0.041411,0.147351,0.049169,-0.146341,0.023103,1
1886218922,0.029912,0.05488,0.192746,0.010505,-0.111414,0.011168,1
1886252256,0.013485,0.133761,0.180486,0.022474,-0.086062,0.040955,1
1886285590,-0.008099,0.165226,0.184847,0.012897,-0.084847,0.134888,1
1886318924,-0.0237,0.129748,0.182631,0.035911,-0.028667,0.134708,1
1886352258,0.040676,0.127841,0.170604,0.039883,0.014219,0.118199,1
1886385592,0.052149,0.085586,0.189443,0.069701,-0.024461,0.128646,1
1886418926,0.039104,0.037595,0.164002,0.061622,-0.024984,0.1033,1
1886452260,0.013417,0.081504,0.165655,0.022894,-0.102943,0.133772,1
1886485594,0.008921,0.069316,0.1759,0.042508,-0.088074,0.079609,1
1886518928,0.007545,0.124251,0.191155,-0.004511,-0.067099,0.085311,1
1886552262,0.015048,0.126725,0.154874,0.05567,-0.036961,0.091475,1
1886585596,-0.013214,0.105443,0.184345,0.043188,-0.013491,0.117934,1
1886618930,0.016478,0.068312,0.158675,0.033117,-0.025458,0.142552,1
1886652264,0.034526,0.038104,0.183282,0.045341,-0.043677,0.107829,1
1886685598,-0.0205,0.103561,0.192191,0.028924,-0.044315,0.105556,1
1886718932,0.023124,0.084067,0.169833,0.012537,-0.043368,0.067489,1
1886752266,0.043382,0.045157,0.166478,0.003523,-0.080996,0.105089,1
1886785600,0.008524,0.03529,0.169003,0.020472,-0.074135,0.076649,1
1886818934,-0.005045,0.143997,0.178327,0.011114,-0.063215,0.085395,1
1886852268,0.023405,0.063343,0.152557,0.028742,-0.062,0.115211,1
1886885602,0.003342,0.103363,0.208797,0.017049,-0.063338,0.084435,1
1886918936,0.009931,0.114554,0.162092,0.031795,-0.055133,0.100784,1
1886952270,0.037242,0.04602,0.154725,0.027008,-0.072837,0.095825,1
1886985604,0.037465,-0.010895,0.161069,0.052666,-0.065484,0.093613,1
1887018938,0.003097,0.079864,0.16385,0.053454,-0.066622,0.08603,1
1887052272,0.043999,0.087036,0.147775,0.029291,-0.070872,0.09543,1
1887085606,0.005493,0.103544,0.16414,0.030007,-0.070458,0.112369,1
1887118940,0.018325,0.059604,0.1847,0.021322,-0.059485,0.083358,1
1887152274,0.033207,0.096428,0.180162,-0.011432,-0.064715,0.102118,1
1887185608,0.039252,0.013156,0.170163,0.025452,-0.011293,0.059542,1
1887218942,-0.018832,0.091495,0.196805,0.01841,-0.008699,0.103617,1
1887252276,-0.014856,0.147951,0.164864,0.07025,-0.032973,0.088762,1
1887285610,0.019558,0.054609,0.144636,0.049216,-0.06245,0.089992,1
1887318944,-0.009739,0.099431,0.18088,0.014343,-0.078502,0.135602,1
1887352278,-0.04671,0.082255,0.188762,0.049819,-0.017785,0.15228,1
1887385612,0.13333,0.210544,0.171407,0.036103,-0.05859,0.083026,1
1887418946,0.06053,0.089696,0.159454,0.048849,-0.091966,0.029884,1
1887452280,-0.00045,0.029695,0.163195,0.037617,-0.103233,0.065936,1
1887485614,-0.003229,0.086388,0.181472,0.058842,-0.146883,0.094253,1
1887518948,0.031705,0.082708,0.171357,0.066702,-0.140584,0.103004,1
1887552282,0.006562,0.129495,0.202665,0.089736,-0.061368,0.141551,1
1887585616,-0.009097,0.100296,0.161021,0.056247,-0.039329,0.137139,1
1887618950,0.027508,0.089119,0.173404,0.014366,-0.000847,0.098389,1
1887652284,0.004999,0.085475,0.169461,-0.011694,0.002908,0.098822,1
1887685618,-0.008894,0.072796,0.195705,-0.01541,-0.012435,0.077053,1
1887718952,0.037971,0.023669,0.14994,-0.021295,-0.022239,0.072338,1
1887752286,0.088202,-0.066284,0.14133,-0.004773,-0.031563,0.074428,1
1887785620,-0.003283,0.00207,0.193589,-0.012404,-0.057985,0.131326,1
1887818954,-0.022733,0.091623,0.174522,-0.030495,-0.026685,0.092362,1
1887852288,0.005995,0.092804,0.216832,-0.065083,-0.016931,0.096032,1
1887885622,0.013468,0.100558,0.182234,-0.046856,0.040867,0.054109,1
1887918956,-0.012924,0.121986,0.179757,-0.027496,0.071158,0.11097,1
1887952290,0.00688,0.093769,0.158302,0.060653,0.032115,0.114588,1
1887985624,-0.004977,0.095224,0.183188,0.052141,-0.01767,0.117438,1
1888018958,-0.01218,0.084432,0.18352,0.054905,-0.093284,0.13013,1
1888052292,0.047517,0.069059,0.174984,0.04548,-0.104339,0.096294,1
1888085626,0.0291,0.080047,0.182324,0.052642,-0.09228,0.082047,1
1888118960,0.020911,0.074275,0.161815,0.037098,-0.050111,0.079559,1
1888152294,0.012286,0.089647,0.183702,0.050461,-0.018246,0.124951,1
1888185628,0.026525,0.092202,0.172241,0.072854,-0.03452,0.081527,1
1888218962,0.041878,0.106855,0.15974,0.0566,-0.048705,0.066077,1
1888252296,0.034136,0.029231,0.157504,0.039817,-0.060462,0.092103,1
1888285630,0.041411,0.047824,0.188571,0.032259,-0.082941,0.096335,1
1888318964,0.033704,0.076682,0.184084,0.018351,-0.084374,0.098471,1
1888352298,0.01688,0.076958,0.171731,0.001534,-0.046575,0.099858,1
1888385632,0.024897,0.105412,0.19278,-0.012979,-0.01999,0.088513,1
1888418966,0.018039,0.05702,0.186244,-0.007793,-0.006457,0.080348,1
1888452300,0.024411,0.115195,0.17491,-0.008738,-0.01382,0.101342,1
1888485634,0.020181,0.068506,0.164958,-0.01612,-0.002949,0.07465,1
1888518968,-0.014006,0.106329,0.180839,-0.024721,-0.048579,0.097473,1
1888552302,0.039753,0.076644,0.169515,0.043398,-0.048517,0.09033,1
1888585636,0.033698,0.039244,0.179463,0.028084,-0.033533,0.118735,1
1888618970,0.044362,0.101695,0.167747,0.124276,-0.063293,0.127361,1
1888652304,0.044525,0.060148,0.188519,0.077021,-0.08656,0.12329,1
1888685638,0.012386,0.056884,0.175985,0.009972,-0.091453,0.110538,1
1888718972,-0.034781,0.167926,0.216824,-0.003551,-0.076391,0.123254,1
1888752306,0.013419,0.18604,0.199476,-0.044832,-0.051247,0.092875,1
1888785640,0.048073,0.081178,0.178123,-0.043594,-0.023004,0.034715,1
1888818974,0.06873,-0.045804,0.142343,-0.031579,-0.006808,0.09658,1
1888852308,0.047425,-0.028062,0.161768,0.003469,-0.027806,0.112268,1
1888885642,0.061701,0.037632,0.185631,0.024357,-0.064611,0.107412,1
1888918976,0.05211,0.031469,0.185076,0.026205,-0.087442,0.103898,1
1888952310,0.012512,0.092847,0.176384,0.000946,-0.104483,0.097496,1
1888985644,0.033553,0.082917,0.187593,-0.012331,-0.075331,0.102717,1
1889018978,0.039071,0.074036,0.176312,-0.012763,-0.041807,0.096123,1
1889052312,0.039045,0.055329,0.181775,0.022671,-0.031689,0.092306,1
1889085646,0.047068,0.039134,0.160621,0.001883,0.001446,0.098659,1
1889118980,0.039646,0.068835,0.179097,-0.014666,-0.032338,0.104735,1
1889152314,0.034396,0.042787,0.181287,-0.021424,-0.051327,0.088547,1
1889185648,0.007053,0.09785,0.1822,-0.065147,-0.077435,0.097243,1
1889218982,0.044442,0.03117,0.179991,-0.025669,-0.063558,0.05229,1
1889252316,0.029015,0.061692,0.169385,-0.004989,-0.033504,0.09714,1
1889285650,0.03227,0.141701,0.194156,0.070734,-0.026974,0.105842,1
1889318984,0.010508,0.1004,0.187041,0.074514,-0.034794,0.134817,1
1889352318,0.012077,0.022391,0.173894,0.028721,-0.070555,0.12497,1
1889385652,0.063955,0.027554,0.187525,0.023835,-0.081368,0.107871,1
1889418986,0.042799,0.077421,0.16459,-0.013368,-0.078766,0.085752,1
1889452320,0.063766,0.05141,0.175825,-0.026505,-0.039649,0.049373,1
1889485654,0.045463,0.071684,0.177361,0.000491,-0.064103,0.097896,1
1889518988,0.030933,0.089482,0.194989,0.032484,-0.074454,0.112603,1
1889552322,0.044469,0.102134,0.189056,0.02763,-0.063877,0.135697,1
1889585656,0.001038,0.093117,0.178268,-0.019177,-0.074211,0.091389,1
1889618990,-0.019198,0.137258,0.183306,-0.011545,-0.089577,0.082245,1
1889652324,-0.005725,0.144237,0.17141,-0.021793,-0.059108,0.064034,1
1889685658,0.062952,0.1004,0.164581,0.032515,-0.067378,0.089454,1
1889718992,0.04197,0.133785,0.17442,0.093851,-0.085387,0.109399,1
1889752326,0.046781,0.053386,0.167288,0.120353,-0.099755,0.14528,1
1889785660,0.069995,0.035568,0.180272,0.08582,-0.13101,0.119781,1
1889818994,0.062239,0.053301,0.171958,0.073023,-0.107032,0.141566,1
1889852328,0.019598,0.085287,0.18705,-0.045716,-0.133504,0.082269,1
1889885662,0.043838,0.072068,0.172072,0.003368,-0.082158,0.096771,1
1889918996,0.038675,0.129221,0.176551,-0.062257,-0.04829,0.020356,1
1889952330,0.041226,0.108973,0.154341,0.008284,-0.059063,0.078035,1
1889985664,0.044609,0.084496,0.172817,0.089638,-0.101537,0.108399,1
1890018998,0.050927,0.089449,0.181453,0.087382,-0.089461,0.144181,1
1890052332,0.068041,0.08423,0.169331,0.092367,-0.116252,0.15364,1
1890085666,0.071252,0.075732,0.159121,0.009129,-0.131587,0.090649,1
1890119000,0.065333,0.087299,0.172549,-0.034773,-0.122548,0.037084,1
1890152334,0.013978,0.111411,0.178663,-0.041641,-0.094065,0.050937,1
1890185668,0.021556,0.127024,0.169854,-0.017421,-0.065414,0.084476,1
1890219002,0.066348,0.092153,0.166184,0.014919,-0.04972,0.079624,1
1890252336,0.05728,0.051091,0.178535,0.019119,-0.059792,0.065534,1
1890285670,0.024371,0.081925,0.182936,-0.012882,-0.092119,0.045331,1
1890319004,-0.016359,0.132126,0.191444,-0.041595,-0.121044,-0.000174,1
1890352338,0.028147,0.097848,0.141845,-0.080489,-0.135897,0.077269,1
1890385672,0.122221,0.09433,0.192454,0.036046,-0.098464,0.186144,1
1890419006,0.139176,0.075205,0.175467,0.140121,-0.054713,0.186833,1
1890452340,0.05176,0.140151,0.158112,0.192974,-0.058522,0.148424,1
1890485674,0.044623,0.178459,0.163454,0.12843,-0.115455,0.126022,1
1890519008,0.014365,0.101851,0.195011,-0.023769,-0.17048,0.028332,1
1890552342,-0.024243,0.093116,0.137136,-0.001094,-0.12312,0.061817,1
1890585676,0.010557,0.110288,0.186637,-0.045512,-0.000297,0.065874,1
1890619010,0.047395,0.118817,0.180934,0.036885,0.086819,0.115788,1
1890652344,0.057631,0.11708,0.148292,0.078878,0.033728,0.104423,1
1890685678,0.033042,0.132032,0.189904,0.060506,0.002456,0.130042,1
1890719012,-0.006654,0.116934,0.192905,0.02316,-0.053109,0.120399,1
1890752346,0.032201,0.13514,0.182768,0.004917,-0.072741,0.118837,1
1890785680,0.013237,0.109417,0.169791,0.02989,-0.041832,0.069386,1
1890819014,0.001937,0.091023,0.188971,0.025146,-0.05158,0.103286,1
1890852348,0.012638,0.084242,0.170017,0.058402,0.003382,0.111613,1
1890885682,-0.006545,0.101821,0.173779,0.036555,0.008445,0.105469,1
1890919016,-0.034084,0.141483,0.189831,0.013137,0.02441,0.09995,1
1890952350,-0.035563,0.137353,0.189071,0.030502,0.017784,0.151983,1
1890985684,-0.005604,0.136343,0.192626,-0.036859,0.071623,0.155098,1
1891019018,-0.050899,0.153577,0.190825,0.081658,0.109174,0.087446,1
1891052352,-0.027797,0.144211,0.150915,0.103625,0.047252,0.076278,1
1891085686,-0.005624,0.118703,0.169893,0.093666,-0.030322,0.100846,1
1891119020,-0.01275,0.122967,0.20709,0.06156,-0.100949,0.134816,1
1891152354,-0.002466,0.127526,0.148124,0.082034,-0.033167,0.117875,1
1891185688,-0.01774,0.129452,0.185752,0.016503,0.034454,0.10475,1
1891219022,-0.020833,0.080829,0.170136,0.073528,0.037723,0.11832,1
1891252356,-0.027099,0.119212,0.174342,0.075284,0.01209,0.139041,1
1891285690,0.009934,0.133296,0.193559,0.068542,0.019737,0.10018,1
1891319024,0.01323,0.124654,0.166736,0.034016,-0.031067,0.087954,1
1891352358,-0.009696,0.17149,0.182562,0.00646,-0.045765,0.118086,1
1891385692,-0.005351,0.173281,0.152269,0.002958,-0.01572,0.094534,1
1891419026,-0.002333,0.053198,0.165598,-0.023343,0.02892,0.095451,1
1891452360,0.04426,0.092497,0.156805,-0.030452,0.027719,0.042202,1
1891485694,0.017419,0.085761,0.171175,0.02926,0.005087,0.084968,1
1891519028,0.030209,0.15138,0.152796,0.038173,-0.060619,0.089233,1
1891552362,0.023816,0.185321,0.160163,0.019334,-0.081598,0.08563,1
1891585696,0.022206,0.13865,0.214943,0.012944,-0.059498,0.113491,1
1891619030,0.00602,0.130758,0.176982,0.017722,-0.022653,0.112361,1
1891652364,-0.038812,0.144502,0.178046,0.026634,0.000666,0.150144,1
1891685698,0.034268,0.121832,0.168353,0.021266,-0.072381,0.153026,1
1891719032,0.062788,0.11093,0.173563,-0.020775,0.032353,0.06947,1
1891752366,0.019804,0.059313,0.181611,-0.033598,-0.024412,0.068132,1
1891785700,0.031532,0.078695,0.172577,-0.01703,-0.081335,0.099437,1
1891819034,0.06089,0.099296,0.158463,-0.015363,-0.09487,0.130522,1
1891852368,0.057828,0.060687,0.180025,0.040467,-0.066837,0.11937,1
1891885702,0.036884,0.098666,0.173048,0.001348,0.003278,0.092963,1
1891919036,0.035891,0.119458,0.179963,-0.013175,-0.012984,0.071873,1
1891952370,0.029566,0.100024,0.165438,-0.018582,-0.061114,0.086561,1
1891985704,0.047553,0.086711,0.191233,-0.001983,-0.100437,0.149616,1
1892019038,0.05378,0.107997,0.175792,0.036147,-0.051465,0.157754,1
1892052372,0.030063,0.12079,0.190893,0.025216,-0.006298,0.128183,1
1892085706,0.030515,0.109007,0.182802,0.009737,-0.019249,0.072999,1
1892119040,0.027376,0.110254,0.166618,-0.004363,-0.023175,0.089483,1
1892152374,0.016208,0.090944,0.189465,0.019215,-0.065852,0.113986,1
1892185708,0.019847,0.131726,0.194354,0.025371,-0.060185,0.106098,1
1892219042,0.026244,0.128969,0.188187,0.036969,-0.048392,0.121562,1
1892252376,0.000506,0.139364,0.180475,0.054164,-0.030364,0.129489,1
1892285710,0.024843,0.093794,0.169332,0.03132,-0.037991,0.117474,1
1892319044,0.013451,0.093157,0.192042,0.041536,-0.042404,0.123636,1
1892352378,-0.01254,0.12376,0.160593,0.03095,-0.052443,0.078871,1
1892385712,0.041703,0.108947,0.188028,0.026728,-0.043478,0.094456,1
1892419046,0.056792,0.045138,0.170222,-0.006632,-0.030736,0.085532,1
1892452380,0.059243,0.059042,0.161559,-0.042018,-0.062768,0.084995,1
1892485714,0.055526,0.070835,0.172939,-0.004045,-0.053588,0.086845,1
1892519048,0.028754,0.127139,0.18209,0.022554,-0.042322,0.123912,1
1892552382,0.01172,0.154297,0.166994,0.060564,-0.085156,0.115931,1
1892585716,0.002646,0.160648,0.178151,0.078181,-0.07083,0.120546,1
1892619050,-0.008626,0.140312,0.191392,0.038003,-0.082454,0.123345,1
1892652384,0.052299,0.109556,0.151128,0.064081,-0.022594,0.113614,1
1892685718,0.062756,0.178127,0.199538,0.051857,-0.017099,0.147296,1
1892719052,-0.000678,0.127264,0.183717,0.054657,-0.042667,0.118929,1
1892752386,0.013447,0.089079,0.176403,-0.025848,-0.062672,0.082227,1
1892785720,0.000344,0.007403,0.188148,-0.055129,-0.067345,0.077018,1
1892819054,0.059492,0.036879,0.147674,-0.001274,-0.033242,0.035765,1
1892852388,0.041669,0.066972,0.170032,0.001382,-0.045083,0.068577,1
1892885722,0.014825,0.113646,0.1671,0.026032,-0.053215,0.100167,1
1892919056,0.011042,0.158477,0.192755,0.079148,-0.065866,0.141672,1
1892952390,0.019286,0.131328,0.16187,0.093411,-0.069741,0.136552,1
1892985724,0.020153,0.139036,0.170566,0.050567,-0.045725,0.116938,1
1893019058,0.017608,0.127632,0.198421,0.014085,-0.038378,0.098967,1
1893052392,0.049936,0.085973,0.169769,0.030387,-0.036524,0.099989,1
1893085726,0.053775,0.118651,0.203053,-0.003547,-0.063736,0.069306,1
1893119060,-0.019399,0.096771,0.174035,0.035677,-0.067,0.105036,1
1893152394,0.018588,0.083606,0.164377,0.046818,-0.065151,0.138638,1
1893185728,0.064499,0.107016,0.181155,0.069018,-0.059307,0.138391,1
1893219062,0.020483,0.116897,0.168603,0.04132,-0.093532,0.104239,1
1893252396,0.005221,0.095751,0.176219,-7.1e-05,-0.099742,0.095459,1
1893285730,0.055208,0.081435,0.194495,-0.027675,-0.061895,0.096992,1
1893319064,0.081979,0.060402,0.154189,-0.02738,-0.050688,0.100393,1
1893352398,0.03591,0.051645,0.181115,-0.016973,-0.031879,0.082453,1
1893385732,0.003881,0.082659,0.165108,-0.041661,-0.029596,0.106502,1
1893419066,0.030068,0.048381,0.178333,0.023188,-0.02263,0.120522,1
