SampleTimeFine,D_Leg_Acc_X,D_Leg_Acc_Y,D_Leg_Acc_Z,R_Wrist_Acc_X,R_Wrist_Acc_Y,R_Wrist_Acc_Z,Activity
596281495,-0.150615,-0.06063,0.132051,-0.05341,-0.315223,0.064092,0
596314829,-0.081493,0.095454,0.069499,-0.250713,0.187195,0.177518,0
596348163,0.133925,0.004854,0.070601,0.120896,0.55276,0.009261,0
596381497,0.280879,0.040231,0.049653,0.263518,0.894883,-0.095327,0
596414831,0.236062,0.096406,-0.014205,0.222124,0.976766,-0.080402,0
596448165,0.216542,0.130644,0.014228,0.139643,0.50471,-0.035627,0
596481499,0.205515,0.021828,0.073386,-0.096093,0.057462,0.010995,0
596514833,0.552777,-0.139729,0.263189,-0.336534,-0.482699,0.241076,0
596548167,-0.156041,0.22227,0.258356,-0.311548,-0.651086,0.28462,0
596581501,-0.313886,-0.274493,0.002543,-0.186431,-1.389514,0.955756,0
596614835,-0.06814,0.355555,0.189281,0.19188,-1.60142,1.177877,0
596648169,-0.655315,-0.215597,-0.045692,0.332225,-1.827674,1.294707,0
596681503,0.160017,-0.039155,0.097662,0.366623,-1.920386,1.287208,0
596714837,-0.734662,-0.398515,0.35876,0.437948,-1.23774,0.4578,0
596748171,-1.391655,-0.193229,0.536796,0.680817,-0.493256,-0.645842,0
596781505,-1.344776,-0.020641,0.161291,1.234508,-0.283316,-1.236022,0
596814839,0.393322,0.630289,-0.21886,1.249313,-0.369612,-1.567062,0
596848173,0.971,-0.23956,0.128513,1.073502,-0.772079,-1.61612,0
596881507,-0.035119,-0.930776,0.222947,0.323848,-1.596891,-1.326395,0
596914841,-0.364729,-0.116564,0.032808,0.062026,-2.320497,-0.69267,0
596948175,0.254025,0.958994,-0.19538,-0.775321,-2.787283,-0.570596,0
596981509,1.113689,0.810464,0.047896,-1.154534,-2.54126,-0.433016,0
597014843,0.264082,-0.387908,0.437058,-1.080894,-1.930605,-0.05547,0
597048177,1.144543,0.694225,0.21692,-0.451459,-1.172235,0.19897,0
597081511,1.021597,0.264645,-0.419875,-0.687457,-0.709465,0.161557,0
597114845,0.225156,-0.843418,0.186909,-0.854157,0.46109,-0.083876,0
597148179,0.304063,0.967884,-0.107455,-0.754672,1.758438,-0.653262,0
597181513,-0.23465,0.655043,0.114682,-0.300423,3.275463,-1.841193,0
597214847,0.385201,-1.765288,0.417231,0.677552,3.955625,-2.681726,0
597248181,-0.024625,-0.929316,-0.052869,0.464918,3.75333,-3.355731,0
597281515,-0.937696,-0.476806,-0.427085,0.323938,3.968448,-3.555112,0
597314849,-1.303051,0.052542,-0.754948,-1.577833,4.342619,-3.491314,0
597348183,-1.788111,1.167787,-0.253707,-0.676904,4.841534,-1.549266,0
597381517,-1.518755,1.089232,0.378551,-1.269779,4.32442,-0.504504,0
597414851,0.19595,0.094766,-0.176999,-0.986064,3.421285,-0.085748,0
597448185,1.061775,-0.294448,-0.735772,-0.255234,1.909723,-0.410745,0
597481519,0.625697,-0.285451,0.524719,-0.772248,-0.146271,0.355594,0
597514853,0.496445,-0.288251,-0.298562,-0.500884,-1.777865,1.230355,0
597548187,-0.162436,-0.223196,-0.278609,-0.245181,-4.159279,2.243896,0
597581521,-0.354346,0.165,0.18715,-0.228197,-6.188818,2.950715,0
597614855,0.490594,-0.117265,-0.023456,-0.440049,-7.574327,3.255074,0
597648189,0.338308,-0.198524,0.058787,0.251587,-7.174007,3.62472,0
597681523,0.507612,0.231666,-0.444334,0.268741,-5.623991,3.029323,0
597714857,0.727578,-0.121901,0.266064,0.645031,-3.540668,2.103666,0
597748191,1.37498,-1.209865,1.009185,0.676996,-1.195353,0.746576,0
597781525,1.167221,-1.056131,0.274399,0.868087,0.61305,-0.772362,0
597814859,0.106422,-0.243426,-0.195372,1.014462,2.178058,-2.074121,0
597848193,0.046847,0.411582,0.292824,0.726587,3.656984,-2.887228,0
597881527,-0.213318,0.290167,-0.223319,0.991769,5.221705,-2.595181,0
597914861,-0.160171,0.083866,-0.180224,-0.117564,5.535328,-2.902467,0
597948195,0.190204,-0.042599,0.235099,0.5742,6.002939,-2.258206,0
597981529,-0.45768,0.176216,-0.014075,0.109644,5.501171,-2.53015,0
598014863,-0.627484,0.212415,-0.721109,-0.150872,4.008288,-2.683969,0
598048197,-0.209272,0.082371,0.154079,-0.592575,2.500198,-2.225878,0
598081531,-0.131932,0.068921,-0.261912,-0.96446,1.211227,-0.926956,0
598114865,-0.18729,-0.206394,-0.478501,-0.894851,-0.349091,0.731332,0
598148199,0.349272,-0.250562,0.369473,-0.267234,-1.950057,2.541078,0
598181533,0.015062,0.170806,-0.279938,-0.099706,-4.005062,3.350504,0
598214867,0.089144,0.07359,0.397392,-0.068418,-6.345492,3.93473,0
598248201,-0.075624,0.553521,0.089175,0.053369,-7.646554,3.365925,0
598281535,0.286038,-0.111559,-0.057827,-0.158202,-7.886758,2.860197,0
598314869,0.451691,-0.710081,0.29959,0.491986,-6.493327,2.505905,0
598348203,1.364832,-1.055191,0.626645,1.240775,-4.407035,2.373676,0
598381537,0.931061,-1.547724,0.175223,1.010518,-2.250352,1.919056,0
598414871,0.209355,-0.840708,-0.133946,0.866607,-0.3184,1.05095,0
598448205,0.384911,-0.023937,0.520013,0.435073,1.645556,-0.406363,0
598481539,0.185067,0.354347,0.300189,0.183467,3.369483,-2.122034,0
598514873,-0.203461,0.420607,-0.616561,-0.036387,3.823165,-2.820437,0
598548207,-0.308064,0.412303,0.321802,-0.033168,4.435754,-3.329925,0
598581541,0.236316,0.235531,0.445739,0.15584,4.894123,-3.7476,0
598614875,-0.322488,0.374104,-0.534022,-0.284621,5.45537,-3.928517,0
598648209,-0.035879,-0.028946,0.842146,-0.696854,5.616012,-3.928278,0
598681543,0.068645,0.00595,0.657688,0.354272,4.789931,-3.308665,0
598714877,-0.95996,1.178092,-1.172583,0.25121,4.55176,-2.171758,0
598748211,0.492623,0.193376,0.286651,0.336819,4.177324,-0.143226,0
598781545,0.799439,-0.238645,0.542309,-0.001186,1.877939,2.356653,0
598814879,-0.823168,0.324145,-1.302445,-0.231682,-1.624266,4.613887,0
598848213,0.166648,-0.44089,-0.646286,0.251199,-3.897228,4.65864,0
598881547,0.428948,-0.673783,0.883411,-0.593281,-6.118364,4.018007,0
598914881,0.290772,-0.638541,0.745248,-0.607118,-7.105407,3.336577,0
598948215,0.078772,-0.728474,-0.31817,-1.184486,-7.149222,3.292416,0
598981549,0.393017,-0.997329,-0.40218,-1.513316,-6.547007,3.170068,0
599014883,0.578787,-0.802803,0.2253,-0.77653,-5.370225,2.908576,0
599048217,0.229074,-0.454683,-0.050624,-0.141851,-3.543556,2.661901,0
599081551,0.38481,-0.137244,0.640844,0.30731,-1.200151,2.449867,0
599114885,0.065517,0.543092,0.426561,0.455466,0.704273,1.318328,0
599148219,0.074101,0.148202,-0.0342,0.002255,2.001436,0.017758,0
599181553,0.313209,-0.160833,0.782719,0.239534,2.861883,-1.105405,0
599214887,0.447955,-0.382672,0.711084,-0.187336,3.372333,-2.418567,0
599248221,-0.161218,-0.301186,-0.77265,0.228737,3.772163,-3.61716,0
599281555,0.020494,-0.228394,-0.765862,0.616699,3.505937,-4.073375,0
599314889,0.152639,0.560722,-0.111713,0.56364,3.754,-3.700769,0
599348223,0.321074,0.870025,0.15239,0.696701,4.875597,-3.762966,0
599381557,-0.350914,1.629077,1.381185,0.789396,4.817986,-3.648118,0
599414891,-0.438823,-0.043485,0.256926,0.634859,4.312413,-2.612614,0
599448225,-0.160021,-0.608738,-0.76347,0.663581,3.423669,-0.186725,0
599481559,0.226095,-0.077587,-0.219191,0.144236,2.19185,1.716438,0
599514893,0.70704,-0.400058,0.802978,-0.034783,-0.114006,2.779398,0
599548227,0.130957,0.016944,0.15104,0.01249,-3.828246,3.586056,0
599581561,0.293687,0.375226,0.056714,-0.950709,-6.085773,4.44945,0
599614895,0.432452,0.403221,0.213829,-0.996605,-8.204458,5.568899,0
599648229,0.949818,-0.111508,1.01258,-3.066908,-8.159031,5.590204,0
599681563,1.059403,-0.758055,1.167761,-2.22715,-6.473062,5.033549,0
599714897,1.048411,-0.796182,0.847251,-0.943367,-3.870497,4.746117,0
599748231,0.589248,-0.233494,0.331217,-0.367433,-1.99589,3.710319,0
599781565,0.502156,-0.60183,-0.190289,-0.021372,0.062144,2.356422,0
599814899,0.514304,-0.664922,0.106491,0.502143,1.697466,0.524475,0
599848233,0.206481,0.230669,0.249586,0.606633,2.532993,-1.421056,0
599881567,0.084223,0.230492,-0.38193,0.690235,3.046881,-2.818014,0
599914901,-0.477238,0.049411,-0.520613,0.814417,3.554918,-3.618121,0
599948235,-0.328749,0.048814,1.090338,0.712287,4.228772,-4.413641,0
599981569,-1.216833,0.902687,-0.612301,0.861665,5.425258,-5.164547,0
600014903,-0.198091,-0.65758,-0.511755,-0.093928,4.87392,-5.618795,0
600048237,-0.542669,0.186396,0.170472,0.91172,5.136906,-4.846988,0
600081571,-0.337782,-0.057096,0.001728,1.244513,4.481903,-2.86478,0
600114905,-0.527947,-0.237145,-0.130379,0.631926,3.572615,0.118984,0
600148239,-0.645973,0.180669,0.161875,0.269859,1.977694,2.387031,0
600181573,-0.463249,0.373506,-0.379219,-0.25472,-0.236377,3.860045,0
600214907,-0.039473,-0.197258,-0.28117,-0.016738,-2.762918,4.43026,0
600248241,0.208311,-0.580763,0.270603,-0.672133,-4.498959,4.761384,0
600281575,0.681758,-0.3322,0.237514,-1.195547,-6.378136,3.750721,0
600314909,0.440554,-0.506423,-0.609506,-1.376187,-7.174568,3.454395,0
600348243,0.386506,-0.596536,-0.213846,-1.296855,-6.933101,3.119977,0
600381577,0.453558,-0.075964,0.335482,-0.8327,-5.998507,2.935554,0
600414911,-0.228666,-0.201216,0.496791,-0.722756,-4.036034,2.648456,0
600448245,0.09761,0.536746,0.209415,-0.094546,-1.790768,2.434779,0
600481579,0.387088,0.057458,-0.203395,0.009236,0.025044,1.497656,0
600514913,0.301569,0.230558,0.274054,0.288748,1.448152,0.184862,0
600548247,0.196165,0.234957,0.341002,0.427442,2.179276,-1.286131,0
600581581,0.560837,0.081052,0.384089,0.651187,2.742649,-2.454607,0
600614915,0.845154,-0.367568,-0.122876,0.859108,3.328225,-3.514576,0
600648249,-0.044866,-0.383888,0.14746,0.130488,3.17602,-3.814094,0
600681583,0.325024,-0.178573,0.550143,0.633745,3.980434,-3.8235,0
600714917,0.745209,-0.453914,-0.376445,0.540017,4.022268,-3.19418,0
600748251,0.770256,0.091393,0.344947,0.218712,3.314274,-2.189151,0
600781585,0.261424,0.157479,0.393345,0.191068,2.766383,-1.392359,0
600814919,0.473815,0.558354,-0.149791,0.344078,2.033677,-0.86895,0
600848253,0.526438,0.863338,-0.447068,0.294912,1.041213,0.061233,0
600881587,-0.506097,1.136335,-0.245141,0.290108,-0.256442,0.975362,0
600914921,0.011381,0.25552,0.374518,-0.045864,-1.675705,1.912746,0
600948255,0.480885,-0.212866,0.910242,-0.037016,-3.406363,2.865108,0
600981589,0.464024,-0.235205,-0.431212,-0.268369,-4.409635,3.613192,0
601014923,0.535726,-0.653128,-0.245185,-0.429955,-4.893031,3.353717,0
601048257,0.417319,-0.655178,0.168072,-0.487643,-5.035311,2.952188,0
601081591,0.315777,-0.38514,-0.270132,-0.482686,-4.136673,2.705975,0
601114925,0.536459,-0.50942,-0.064273,-0.721165,-2.773405,2.164479,0
601148259,0.052539,-0.207941,-0.124567,-0.215835,-1.443883,1.560877,0
601181593,-0.632325,-0.124953,-0.299814,-0.082732,-0.160056,0.428723,0
601214927,-0.162934,-0.215511,-0.063721,0.022624,0.806366,-0.9435,0
601248261,-0.424058,-0.227661,-0.150573,0.207023,1.530975,-2.161077,0
601281595,0.461742,-0.627484,0.108174,0.392677,2.033717,-3.159293,0
601314929,0.07752,-0.897507,-0.102368,0.63072,2.355288,-3.866939,0
601348263,-0.121981,-0.447153,-0.202526,0.384814,2.231308,-4.535982,0
601381597,-0.999375,-0.043723,-0.363974,0.514431,2.184659,-4.940311,0
601414931,-1.711179,0.342334,-0.19331,0.380113,1.844347,-5.014956,0
601448265,-2.152647,0.057874,0.213732,0.389357,1.793931,-4.500747,0
601481599,-1.387538,0.490437,0.19717,0.345254,1.905481,-3.646938,0
601514933,-0.203334,0.827765,-0.195354,0.346052,1.932417,-2.360071,0
601548267,0.746593,-0.438409,0.303521,0.298135,2.076465,-1.103157,0
624815399,0.072949,0.023074,0.04373,0.121708,-0.264257,-0.008907,0
624848733,0.179522,0.043536,0.044267,0.191416,-0.270171,0.022626,0
624882067,-0.133787,-0.036708,0.094825,0.319459,-0.231524,0.062784,0
624915401,-0.2121,-0.069823,0.128592,0.40014,-0.225025,0.112592,0
624948735,-0.18421,-0.008696,0.146471,0.366119,-0.207214,0.094875,0
624982069,-0.169221,0.022911,0.108251,0.304384,-0.138861,0.11575,0
625015403,-0.109514,-0.083861,0.067912,0.283034,-0.235235,0.215926,0
625048737,-0.123354,-0.10576,0.08139,0.33262,-0.829632,0.576797,0
625082071,-0.182897,0.13248,0.099688,0.445227,-1.723286,1.453868,0
625115405,-0.142512,0.014655,0.094796,0.305803,-2.785444,2.199545,0
625148739,-0.231377,-0.213354,0.151183,0.55473,-3.79271,3.282191,0
625182073,-0.25387,-0.185536,0.134618,1.005537,-3.710724,3.813325,0
625215407,0.122155,-0.111269,0.064446,0.901018,-2.777815,3.904008,0
625248741,0.070031,-0.075009,0.112649,0.317416,-1.651068,2.923184,0
625282075,0.114988,-0.040689,0.241137,0.467328,-0.532251,1.872775,0
625315409,-0.511494,-0.26758,0.160388,0.598675,0.634269,0.576395,0
625348743,-0.009502,-0.152291,0.516165,0.18751,1.401251,-1.098225,0
625382077,-1.308912,-0.147466,0.185543,-0.221497,1.607034,-2.272981,0
625415411,-1.969108,-0.331933,0.434148,-0.043775,1.984646,-2.981048,0
625448745,-1.193195,-0.226648,0.365201,-0.15605,2.154414,-3.953983,0
625482079,0.462789,0.262765,-0.017285,0.147892,2.372057,-4.02269,0
625515413,1.177212,-0.33926,0.042238,-0.502226,2.010149,-4.3267,0
625548747,2.884449,0.373533,-0.613985,-1.029015,2.127972,-5.388386,0
625582081,2.31215,1.238896,-1.242487,0.079491,2.405254,-5.018845,0
625615415,-0.031354,-1.551368,0.458515,-0.275951,2.380814,-3.838729,0
625648749,-3.363104,-0.521551,0.59943,-0.639328,1.979243,-3.12035,0
625682083,-1.959931,2.537808,0.135507,-0.963195,1.35386,-2.558764,0
625715417,-0.93043,-0.297661,-0.519431,-1.245205,0.764659,-1.646639,0
625748751,-1.462068,-0.202089,0.151739,-1.286107,-0.439483,-0.895506,0
625782085,0.445579,0.201317,-0.18482,-1.194049,-2.144042,0.500378,0
625815419,0.179961,-0.433499,-0.045408,-0.624716,-3.641837,1.738225,0
625848753,0.05193,-0.179339,-0.144884,-0.926024,-4.412119,2.013085,0
625882087,0.51625,-0.406826,-1.008309,-0.232055,-5.163315,2.360629,0
625915421,1.292223,-0.965482,-0.229411,0.351943,-4.708424,2.266069,0
625948755,1.105074,-0.393066,0.205789,0.29938,-3.365775,1.797234,0
625982089,0.491549,-0.032865,-0.121085,0.355254,-1.977665,1.133563,0
626015423,0.663969,-0.301402,0.24392,0.671413,-0.282794,0.196901,0
626048757,0.693885,0.24627,0.645608,0.90726,1.301861,-1.026087,0
626082091,0.236196,0.761547,-0.940691,0.927028,2.495447,-1.693058,0
626115425,-0.232193,0.614232,0.014384,1.097362,3.999393,-2.094113,0
626148759,1.199177,0.049167,0.283897,0.725922,4.356595,-2.550649,0
626182093,-0.634211,-0.314751,-0.561487,0.481914,4.557513,-1.935642,0
626215427,0.257556,0.41953,1.312049,0.650156,4.517772,-1.32805,0
626248761,0.64561,0.752931,0.158463,0.172825,3.792294,-0.472098,0
626282095,-0.577291,0.605189,-0.94203,-0.617277,2.817836,-0.373232,0
626315429,0.364229,0.31658,1.151165,-0.692489,1.693032,0.311557,0
626348763,-0.241267,0.803334,-0.896866,-0.871401,0.415931,0.609258,0
626382097,-0.01814,0.135337,-0.047867,-0.998173,-0.998438,1.313123,0
626415431,1.34842,-0.578988,0.978903,-0.845942,-2.4805,2.144753,0
626448765,0.425694,-0.236722,0.245706,-0.696028,-3.957604,2.919233,0
626482099,0.126121,-0.271123,-0.733232,-0.819069,-4.566454,3.244101,0
626515433,0.615224,0.293546,0.715245,-0.231954,-4.456878,3.613168,0
626548767,-0.584542,0.097238,0.288373,0.239151,-3.906356,3.230743,0
626582101,0.314202,-0.909562,-0.027802,0.649972,-3.102425,2.322946,0
626615435,0.296984,-0.460232,-0.195075,0.802182,-2.420612,1.482655,0
626648769,0.195779,0.064924,-0.143547,0.875355,-1.244101,0.424698,0
626682103,0.085604,-0.696396,-0.256705,0.529166,-0.192402,-0.955808,0
626715437,0.396582,-0.341482,0.395849,0.353236,0.908327,-1.989197,0
626748771,0.037724,-0.706398,-0.451102,0.418766,2.157093,-3.059454,0
626782105,-0.020407,-0.432274,0.239256,0.837887,3.204879,-3.073811,0
626815439,-0.247477,0.544271,0.191227,-0.530284,3.701634,-3.352576,0
626848773,-0.712966,0.945569,-0.338606,0.389318,4.220939,-2.956442,0
626882107,0.068222,0.543472,0.263046,0.510546,4.184272,-3.27067,0
626915441,0.373922,0.265843,0.598643,0.382289,3.752778,-3.052686,0
626948775,-0.023373,0.275837,-0.096268,0.442649,2.847384,-2.116283,0
626982109,0.552044,0.026339,0.258714,0.114049,2.197405,0.042689,0
627015443,0.662255,-0.038518,0.687664,0.057603,1.350328,1.672794,0
627048777,0.170401,0.684292,-0.026306,0.037101,-0.005264,2.602505,0
627082111,0.195914,-0.260007,-0.182494,-0.313709,-1.424845,2.838182,0
627115445,0.486426,-0.983144,0.83966,-0.892748,-3.324319,2.867973,0
627148779,0.589044,-1.238817,0.139065,-1.351264,-4.724463,2.94092,0
627182113,-0.839011,-0.319933,-1.184337,-1.362382,-5.50056,3.204226,0
627215447,-0.132957,-0.348923,0.144053,-1.145431,-5.742249,3.415262,0
627248781,0.006669,0.125454,0.874969,-0.220102,-4.926678,2.968787,0
627282115,-0.136489,0.257123,-0.174223,0.205097,-3.371972,2.901924,0
627315449,0.077625,-0.587168,-0.509068,0.535268,-1.418858,2.449238,0
627348783,0.100683,-0.660639,-0.072445,1.121818,0.349713,1.682538,0
627382117,-0.186419,0.08809,0.177065,1.171034,1.699224,0.410265,0
627415451,-0.242898,-0.177273,-0.301706,0.888598,2.837152,-0.560539,0
627448785,0.071191,-0.181466,0.080529,0.402296,3.774727,-1.539378,0
627482119,0.212785,-0.439405,0.693086,0.017486,3.69395,-2.496197,0
627515453,-0.020399,-0.432607,0.355781,0.111901,4.09965,-3.202856,0
627548787,0.379056,-0.001443,0.6627,0.341279,4.160505,-3.940294,0
627582121,-0.140063,0.984914,0.272486,0.650988,4.327427,-4.05135,0
627615455,-0.243924,0.93015,-0.520225,1.425591,3.43975,-2.773374,0
627648789,-0.111838,0.159852,-0.552032,-0.030418,2.831414,-0.796171,0
627682123,0.147603,0.064654,0.046946,0.452481,1.333086,1.403518,0
627715457,0.267444,-0.024154,0.060822,-0.284265,0.163841,1.898949,0
627748791,0.479839,-0.749046,-0.459006,-0.939007,-2.387863,1.411929,0
627782125,0.210871,-0.18108,0.082153,-1.395531,-4.518737,2.283609,0
627815459,-0.014453,0.149413,0.359717,-1.45195,-6.22472,3.406154,0
627848793,0.106363,-0.273779,0.160761,-1.807338,-7.030069,3.633937,0
627882127,0.295297,0.214074,0.537026,-1.927956,-6.040089,4.188902,0
627915461,0.649312,-0.159142,0.920676,-0.72418,-4.417487,3.713959,0
627948795,0.911265,-0.006613,0.881111,0.212555,-1.918198,3.226814,0
627982129,0.780665,0.371295,0.805346,0.407582,0.14212,2.293734,0
628015463,1.134852,-0.062345,0.707423,0.43937,1.840281,0.772007,0
628048797,0.77286,-0.615757,0.245614,0.937424,2.893126,-0.531277,0
628082131,-0.435461,-0.110219,-0.39209,0.977988,3.03849,-1.790204,0
628115465,-0.43587,-0.117307,-1.021145,0.351385,3.192728,-1.938681,0
628148799,-0.576756,-0.325607,-1.198595,-0.354501,3.764197,-2.425243,0
628182133,0.606716,-0.497855,0.703952,-0.773115,3.79391,-2.667159,0
628215467,-0.352425,0.831031,0.518928,0.708574,3.84168,-2.813899,0
628248801,0.166272,0.304908,1.456445,-0.602746,3.213074,-1.585093,0
628282135,0.445483,0.116233,2.093933,0.739896,3.235393,-0.328484,0
628315469,0.49294,0.055517,1.61096,0.490265,3.384094,-0.466482,0
628348803,0.201331,-0.256832,-0.070405,1.009176,1.558458,-0.196206,0
628382137,-0.439177,0.281011,-1.293693,0.607016,0.571191,1.585861,0
628415471,-0.472898,0.877881,-1.768047,0.257636,-1.573364,2.218464,0
628448805,-0.25808,0.43467,-2.79075,-0.851213,-3.460459,2.651017,0
628482139,0.831006,-1.376793,-1.423824,-0.782151,-4.673708,2.573928,0
628515473,0.37793,-1.506205,2.43004,-0.230854,-5.173831,2.65909,0
628548807,-0.740144,-0.274208,2.185748,0.042065,-4.937217,3.066677,0
628582141,-0.828235,-0.165852,-0.835359,-0.32937,-4.070479,3.404315,0
628615475,0.094707,-0.55265,-1.088031,-0.587877,-2.869862,3.212759,0
628648809,0.495271,-0.363844,0.357982,-0.239822,-1.87232,2.578855,0
628682143,0.363095,0.477712,0.362243,-0.322221,-0.744545,1.487597,0
628715477,-0.016639,0.318267,-0.798298,0.01475,0.705433,0.596159,0
628748811,0.338798,-0.25954,0.006332,0.082458,1.436133,-0.349807,0
628782145,0.083197,-0.077372,0.340659,0.143015,1.94165,-1.17586,0
628815479,-0.304635,0.276001,0.887049,0.14147,2.632494,-1.792544,0
628848813,0.089537,0.690362,0.044584,0.030754,3.087616,-2.117603,0
628882147,0.376039,0.11167,-0.177255,-0.130218,3.013242,-2.724861,0
628915481,0.637829,-0.179431,-0.650659,-0.375763,2.68082,-3.203362,0
628948815,-0.029632,0.053023,0.274931,0.098244,2.790398,-2.556229,0
628982149,-0.297949,0.49726,0.095143,0.355386,2.882984,-1.865175,0
629015483,-0.904435,1.081604,0.209535,0.321383,2.881513,-0.733325,0
629048817,-0.113987,0.817103,0.085779,0.682727,1.899632,0.054616,0
629082151,0.028257,0.662255,0.334741,0.560153,-0.112072,1.340672,0
629115485,0.477775,0.656267,0.457746,0.375339,-1.59906,1.583812,0
629148819,1.036466,0.09629,-0.061561,-0.081144,-3.20322,2.010965,0
629182153,0.966702,-0.359969,0.149858,-0.371984,-4.160679,2.214758,0
629215487,0.922621,-0.210193,0.313049,-0.659063,-4.160208,2.237749,0
629248821,0.906955,-0.004262,0.281387,-0.770675,-3.981055,1.652717,0
629282155,0.58213,-0.602181,0.207307,-0.90349,-3.184434,2.167869,0
629315489,0.88673,-0.266766,0.628644,-0.413829,-2.272834,2.089603,0
629348823,0.860789,0.295642,-0.587454,-0.741428,-1.367777,0.801764,0
629382157,0.723562,-0.508621,0.397926,-0.469812,-0.550317,-0.223786,0
629415491,0.607144,-1.023438,-0.09984,-0.128321,-0.217333,-1.273832,0
629448825,0.561721,-0.753781,-0.841869,0.036086,0.316426,-1.990144,0
629482159,0.199881,-0.840173,0.052398,0.24194,0.906869,-2.141118,0
629515493,-0.312584,-0.956551,-0.222599,0.41719,1.77247,-2.264713,0
629548827,-0.416972,-0.487019,-0.210355,0.393597,2.248365,-2.348988,0
629582161,-0.048431,-1.059024,-0.198846,0.13249,2.761936,-2.573475,0
629615495,-0.372989,-1.106391,-0.553493,-0.020799,2.853883,-2.870532,0
629648829,-1.07415,-0.267926,-0.3981,0.02325,2.568571,-2.87303,0
629682163,-1.48776,0.525229,-0.101305,0.040955,2.605392,-2.96294,0
629715497,-1.264575,-0.016401,-0.102426,0.05853,2.059601,-2.349679,0
629748831,-1.247652,-0.033283,0.080968,-0.026586,1.877989,-1.312142,0
629782165,-1.410459,0.127696,0.467228,-0.316465,1.264987,-0.877461,0
610081771,-0.019273,-0.053255,0.10521,0.159534,0.50862,0.021199,0
610115105,0.162501,0.027807,0.026476,0.065381,0.50629,-0.045151,0
610148439,0.370649,-0.01207,-0.009354,-0.095347,0.355458,-0.155277,0
610181773,0.249748,-0.039095,0.125942,-0.190413,0.184814,-0.189934,0
610215107,0.010931,0.044939,0.093301,-0.319459,0.041776,-0.17785,0
610248441,-0.131553,0.005554,0.082137,-0.267288,-0.151278,-0.108243,0
610281775,-0.046207,-0.000454,0.217414,-0.284998,-0.225057,-0.011064,0
610315109,-0.095595,0.103782,-0.041466,-0.12934,-0.360114,0.129111,0
610348443,0.073781,-0.016615,0.107107,0.073586,-0.48809,0.321569,0
610381777,0.034093,-0.023365,0.116234,0.153441,-0.654397,0.575317,0
610415111,-0.20409,0.030946,0.035911,0.179093,-0.955518,0.754415,0
610448445,-0.143122,-0.026013,0.072445,0.228057,-1.390327,0.988324,0
610481779,-0.232287,-0.136865,0.260187,0.128849,-2.177024,1.57314,0
610515113,-0.088046,0.346349,0.16262,0.412197,-2.331536,0.893229,0
610548447,-0.739529,-0.088265,0.309213,0.705807,-3.156035,0.126777,0
610581781,-2.468255,-1.001881,0.469841,0.819439,-3.875932,0.234527,0
610615115,-1.883666,-0.504139,0.854272,0.592038,-3.627278,-0.14192,0
610648449,-1.404155,0.521396,-0.365687,0.279537,-3.131644,-0.740187,0
610681783,-1.27548,0.195366,-0.721416,0.103729,-2.56243,-1.07802,0
610715117,0.837777,1.507902,-0.171933,-0.198169,-1.338831,-1.584833,0
610748451,0.678899,-0.212529,0.117349,0.189657,-0.193859,-2.408121,0
610781785,-0.32113,-0.863392,0.090523,0.208405,1.00836,-3.241005,0
610815119,1.974339,0.562775,-0.5879,0.237537,1.822306,-3.571854,0
610848453,0.876678,0.343771,-0.464804,-0.034173,2.643738,-3.878689,0
610881787,-1.625319,-0.29586,0.575318,-0.06489,3.424046,-3.362018,0
610915121,0.944891,0.103716,-0.617943,-0.606488,3.921081,-2.698277,0
610948455,1.100393,-0.674102,0.258481,0.024721,4.634027,-2.921463,0
610981789,-0.89734,-0.969478,0.380048,-0.372758,4.630514,-2.835631,0
611015123,-0.699573,-0.588852,-1.915182,-0.579186,3.96511,-2.406986,0
611048457,-0.562628,-0.311781,-0.852949,-1.002147,2.975306,-1.924456,0
611081791,-0.826504,0.254888,0.144717,-1.26873,2.29142,-0.64397,0
611115125,0.060953,-0.466459,-0.878109,-0.99755,0.941703,0.042466,0
611148459,0.322414,-0.392949,0.281551,-0.783653,-0.511664,0.780658,0
611181793,0.158221,0.414777,0.15352,-0.738267,-1.8854,1.904302,0
611215127,0.673184,0.112839,-0.082588,-0.797669,-3.710419,2.672563,0
611248461,0.286898,-0.152018,0.609332,-0.038838,-5.314966,3.320421,0
611281795,0.041549,0.141704,-0.393696,0.061914,-6.026632,4.078671,0
611315129,1.422421,-0.725159,-0.003143,0.379156,-6.402716,3.843417,0
611348463,0.161962,-0.418874,0.312236,0.379624,-5.468262,3.832778,0
611381797,0.285607,-0.209138,0.837648,0.540589,-3.606385,3.209394,0
611415131,0.773462,-0.189108,0.151304,0.344204,-1.925991,2.136673,0
611448465,0.803384,-0.757299,0.49135,0.822316,0.603622,0.970473,0
611481799,0.405721,-0.043248,0.651263,1.000224,2.40454,-0.748634,0
611515133,-0.144535,0.130586,-0.551808,1.34958,3.589985,-2.227943,0
611548467,0.108685,0.651284,0.490037,1.454811,4.480297,-3.512039,0
611581801,0.121043,0.280632,0.912432,1.111592,5.227839,-3.776769,0
611615135,-0.58765,-0.027928,-0.418572,0.782561,5.425965,-3.739161,0
611648469,-0.299883,-0.040111,-0.889178,0.362297,5.765957,-3.118087,0
611681803,-0.259575,-0.472879,-1.078888,0.328061,5.619924,-2.669789,0
611715137,-0.023546,-0.393871,1.285778,1.057506,4.25842,-2.035033,0
611748471,-0.356382,0.513714,1.269025,0.658812,2.146552,-0.998458,0
611781805,0.145483,0.780367,-0.629529,-0.772929,1.659629,0.558974,0
611815139,0.492374,-0.004696,-1.424508,-0.345436,1.303051,2.152843,0
611848473,0.966392,-0.485514,0.751427,0.166872,0.039183,2.738213,0
611881807,0.185551,0.014944,1.670033,0.448293,-3.368178,3.872148,0
611915141,-0.27753,-0.306144,-0.050492,-0.580827,-4.572102,4.276971,0
611948475,0.287439,-0.550621,-0.972542,-2.058169,-5.211511,4.595514,0
611981809,0.067275,0.139046,-1.163074,-2.951287,-5.518555,3.492618,0
612015143,0.077121,-0.486203,0.453156,-2.651264,-5.905684,2.379605,0
612048477,0.132475,-0.153556,2.108029,-1.878351,-4.763795,2.485331,0
612081811,0.235543,0.002705,0.795924,-1.412624,-3.385182,2.821919,0
612115145,0.457684,-0.421148,-0.141799,-0.157347,-1.562389,2.118921,0
612148479,1.008783,-0.298641,-0.04389,0.955228,-0.476511,1.579844,0
612181813,0.27969,0.396658,-0.317285,1.624392,1.629377,0.612599,0
612215147,0.479601,0.305885,0.307266,0.089576,3.806947,-3.158864,0
612248481,0.546194,0.09293,0.878421,1.939289,5.051024,-3.091612,0
612281815,0.144015,0.214184,0.414563,0.07226,6.070035,-3.852359,0
612315149,0.022658,0.164354,-0.123337,1.163446,6.667387,-5.164798,0
612348483,0.184074,0.202375,0.818956,-0.28112,6.46139,-4.052758,0
612381817,0.0227,0.63962,0.87255,-0.621305,4.103261,-0.667019,0
612415151,-0.551971,0.583512,-0.180423,1.981534,3.109503,1.446684,0
612448485,-0.199307,0.37859,-0.220174,1.437773,3.400669,0.888288,0
612481819,0.178155,-0.019859,0.219856,1.601355,2.383746,0.246712,0
612515153,0.219548,-0.416188,0.724002,-0.007975,-3.763458,1.97723,0
612548487,-0.153041,0.346263,0.20882,-1.029496,-6.488986,4.065211,0
612581821,0.065377,0.350731,-0.064071,-2.791227,-10.781513,3.658749,0
612615155,0.560283,-0.287328,0.284326,-2.896899,-11.900982,4.434136,0
612648489,0.317449,-0.008206,0.386164,-2.617165,-9.959895,3.39407,0
612681823,0.204357,-0.16253,0.233164,-2.695902,-6.934547,4.046843,0
612715157,1.988292,-1.458393,1.926936,-1.769265,-1.756503,4.073438,0
612748491,0.199288,-0.339524,2.095216,-0.895596,2.277435,3.73024,0
612781825,-2.076716,1.727919,0.629618,0.386815,6.403346,1.834652,0
612815159,-1.335509,0.783056,-1.567145,-0.422077,8.457651,-1.253652,0
612848493,0.064249,-1.008332,-1.306061,0.663121,11.238023,-2.235609,0
612881827,0.711147,-0.965412,2.6456,0.30257,10.050126,-3.963379,0
612915161,-0.004369,-1.135647,2.642625,0.567695,7.45905,-3.395458,0
612948495,-1.391541,-3.312451,5.61134,1.255562,4.412849,-0.318156,0
612981829,0.017499,-1.537149,11.018684,-2.538758,-1.983755,3.369199,0
613015163,-5.658656,4.535212,-2.597043,-4.954422,-8.290429,2.213452,0
613048497,-3.664781,2.697774,-8.571012,-3.815801,-9.543202,0.39428,0
613081831,2.754737,3.126956,-3.523638,-1.767181,-7.686873,-1.484055,0
613115165,2.683958,-0.16803,-6.227231,-0.0573,-4.646357,-2.24803,0
613148499,-1.436975,-1.365715,-10.248991,1.132468,-2.983171,-2.324194,0
613181833,-10.514266,-11.334816,0.257273,0.411547,-1.948511,-0.102476,0
613215167,-6.113431,0.827523,7.566748,0.450483,-0.795616,0.272294,0
613248501,6.314802,1.219282,2.646721,-0.158798,0.10105,1.623236,0
613281835,-1.107001,1.462064,-4.772695,-0.182197,1.770912,2.722417,0
613315169,0.400891,1.530866,-2.045172,0.764163,2.50274,1.902219,0
613348503,4.176612,-0.432372,6.649315,1.969782,3.549571,0.072405,0
613381837,3.278812,-0.96795,-0.308237,1.90254,4.28981,-1.229999,0
613415171,1.721876,-1.166711,-3.077877,0.974327,5.224339,-1.811655,0
613448505,0.976584,1.477955,1.965553,0.979252,5.156986,-1.426402,0
613481839,0.415636,-0.620818,2.42745,0.76119,4.567664,-0.540219,0
613515173,0.397969,-1.825862,-0.239588,0.597762,3.270513,0.511115,0
613548507,0.959918,-2.402058,0.164841,0.571455,1.254014,0.902902,0
613581841,0.763731,-0.828114,-0.308257,0.86483,-1.337926,1.1687,0
613615175,-0.100929,-0.580589,-0.334542,0.075482,-4.014069,1.022502,0
613648509,1.000549,-0.841269,0.426214,-0.225418,-5.558192,1.111208,0
613681843,0.514039,-0.469144,-0.266245,-0.059245,-6.05716,1.076819,0
613715177,0.008896,0.056871,-0.297653,0.592133,-5.568356,1.697206,0
613748511,-0.05408,0.159602,0.367863,0.935242,-4.415962,2.195523,0
613781845,-0.00359,-0.295664,-0.044975,0.867824,-2.856243,2.010998,0
613815179,0.482007,-1.026272,-0.090574,0.66718,-1.579903,1.254916,0
613848513,0.742152,-0.311068,-0.184208,0.417377,-0.124375,0.370431,0
613881847,0.144078,-0.155221,0.194546,0.090974,0.994661,-0.295599,0
613915181,0.676546,-0.776217,-0.11902,0.016361,1.76067,-1.300451,0
613948515,1.016358,-0.240594,0.093098,0.446332,2.427151,-2.365053,0
613981849,0.220018,0.149122,0.006888,0.590005,2.806202,-3.039093,0
614015183,-0.037541,0.152289,0.20428,0.46644,3.172609,-3.609135,0
614048517,-0.126404,0.337354,-0.001516,0.560961,3.447974,-3.72754,0
614081851,0.040554,0.495507,0.143167,0.695244,3.250342,-3.839944,0
614115185,-0.437404,0.617466,-0.110624,0.51138,3.089073,-3.515171,0
614148519,-0.087029,0.23618,-0.18082,0.518414,2.933956,-2.76212,0
614181853,0.157701,-0.266014,-0.041331,0.783256,2.765477,-2.052084,0
614215187,0.300014,-0.2452,-0.072044,0.37711,1.83844,-1.372732,0
614248521,1.206544,-0.153729,-0.420053,0.298487,1.345172,-0.764663,0
614281855,1.515683,-0.127967,0.244537,0.053962,0.589371,0.111458,0
614315189,1.341527,0.295394,1.131701,-0.561161,0.126408,0.786654,0
614348523,0.486544,2.278616,0.144706,-0.800564,-0.716054,1.607786,0
614381857,-0.056471,2.90129,-0.190485,-0.983281,-1.494357,2.218471,0
614415191,-0.636918,2.33445,0.209421,-0.88871,-2.295215,2.649239,0
614448525,-0.04712,2.533997,0.951583,-0.83433,-2.352602,2.518553,0
614481859,-0.143489,1.949588,0.891098,-0.757059,-2.300486,1.971832,0
614515193,-1.480278,-1.862049,0.889001,-0.973308,-2.068763,1.081269,0
614548527,-0.883108,-2.53144,0.576578,-1.076729,-1.646637,0.36748,0
614581861,-1.308992,0.100727,-0.684393,-1.410646,-1.240277,-0.573368,0
614615195,-1.35912,-0.518108,-0.449883,-1.727346,-0.917076,-1.641045,0
614648529,-1.543558,-1.145507,-0.295756,-1.513586,-0.580739,-2.373835,0
614681863,-0.677658,-0.253666,0.070807,-1.063961,-0.117821,-2.584872,0
614715197,-0.863996,0.127676,-0.704793,-0.859034,0.373768,-2.635584,0
614748531,-0.427031,0.764307,-1.445004,-0.880217,0.838638,-2.510196,0
614781865,1.694277,1.159329,-1.506096,-0.542819,1.265252,-2.505377,0
614815199,3.546959,0.865587,-1.864677,-0.962178,1.579154,-2.471806,0
614848533,3.46962,1.555907,-0.682208,-0.75243,1.575571,-1.954298,0
614881867,0.31916,-1.796285,1.594039,-0.718545,1.461877,-1.499133,0
614915201,-1.267427,-1.38602,1.381043,-0.549902,1.179832,0.015557,0
614948535,-2.095274,2.709753,0.573092,-0.429255,0.722101,1.045096,0
614981869,-2.338598,0.20653,0.963252,-0.256675,-0.136622,1.638835,0
615015203,-2.088604,-0.468829,0.667095,-0.085484,-1.05372,1.884601,0
466512233,0.008779,0.19535,-0.02282,-0.049831,-0.576282,0.122074,1
466545567,-0.167772,0.054235,0.142921,-0.258324,-0.5636,-0.001364,1
466578901,-0.226057,-0.274723,0.212269,-0.409303,-0.469434,0.018137,1
466612235,-0.401737,-0.157761,0.162478,-0.402706,-0.255223,0.076094,1
466645569,-0.173332,-0.033417,0.160051,-0.354491,-0.106114,-0.122594,1
466678903,0.114141,-0.119271,0.084497,-0.332435,0.102209,-0.158965,1
466712237,0.348711,-0.191078,0.0391,-0.387383,0.146427,-0.135511,1
466745571,0.395685,0.022498,0.010974,-0.451591,0.108405,-0.21252,1
466778905,0.374983,0.067202,0.008249,-0.445136,0.078053,-0.403974,1
466812239,0.36042,0.023975,0.052794,-0.374632,0.047826,-0.480659,1
466845573,0.232365,0.016347,0.110763,-0.320864,0.008752,-0.471914,1
466878907,0.156709,0.109672,0.018492,-0.195809,0.003002,-0.502151,1
466912241,0.321875,0.03323,0.016234,0.010846,-0.036921,-0.269073,1
466945575,0.486143,-0.080633,-0.002759,0.107352,-0.193428,-0.01527,1
466978909,0.384597,-0.078076,-0.012063,0.091227,-0.399798,0.159863,1
467012243,0.240335,-0.260232,-0.012307,0.103954,-0.742314,0.209491,1
467045577,0.143598,-0.266551,0.031835,0.147273,-0.916937,0.156807,1
467078911,-0.152365,-0.286671,0.069554,0.166367,-0.953,0.132819,1
467112245,-0.099379,-0.283375,0.154719,0.290404,-0.970051,0.104023,1
467145579,-0.229936,-0.129279,0.160047,0.492159,-0.935198,-0.043638,1
467178913,0.02897,-0.215579,0.03299,0.65184,-0.856359,-0.140813,1
467212247,0.318054,-0.205157,0.082169,0.642597,-0.766251,-0.121993,1
467245581,0.303132,-0.165095,-0.023808,0.664699,-0.729098,-0.025057,1
467278915,0.476946,-0.059589,0.020798,0.601881,-0.647122,0.012728,1
467312249,0.103938,-0.046526,0.035482,0.632467,-0.556506,-0.041975,1
467345583,0.281644,-0.048947,0.043111,0.552931,-0.449677,0.011076,1
467378917,0.52179,0.065898,0.042239,0.471853,-0.360348,0.015033,1
467412251,0.379804,-0.244462,-0.047722,0.430317,-0.301506,0.035659,1
467445585,0.385751,-0.359424,0.091134,0.306988,-0.278132,0.108953,1
467478919,0.121515,-0.135049,0.127263,0.03749,-0.205591,0.224817,1
467512253,0.129181,0.12517,0.048737,-0.116133,-0.138085,0.126137,1
467545587,0.304522,0.051536,0.062738,-0.139625,-0.049752,-0.073126,1
467578921,0.243173,0.017349,0.091035,-0.241747,0.074062,-0.19952,1
467612255,0.273221,0.26813,0.153691,-0.357261,0.278283,-0.217842,1
467645589,0.18441,0.293064,0.059237,-0.344549,0.461813,-0.256932,1
467678923,0.376303,0.256396,0.067566,-0.278554,0.546561,-0.246158,1
467712257,0.299664,0.266342,0.048891,-0.222746,0.559012,-0.242032,1
467745591,0.249488,0.24752,0.051776,-0.323587,0.491355,-0.134871,1
467778925,0.252724,0.137488,0.058577,-0.390911,0.344812,-0.117682,1
467812259,0.340593,0.171086,0.122454,-0.391054,0.225556,-0.070669,1
467845593,0.347134,0.158919,0.048709,-0.38878,0.147409,0.047866,1
467878927,0.22711,0.18139,0.146902,-0.349522,0.053141,0.032264,1
467912261,0.332488,0.165466,0.019669,-0.184202,-0.107638,0.032209,1
467945595,0.244885,-0.009369,-0.008971,-0.02465,-0.254358,-0.01309,1
467978929,0.059377,-0.064066,0.108145,-0.139663,-0.394756,-0.033616,1
468012263,0.02714,-0.081115,0.149337,-0.129714,-0.387154,-0.161546,1
468045597,0.078933,-0.099593,0.052476,0.080181,-0.223786,-0.200224,1
468078931,0.249904,-0.031643,0.051466,0.196178,-0.034464,-0.186603,1
468112265,0.480109,-0.145175,-0.002357,0.257707,0.048814,-0.073434,1
468145599,0.30185,0.086048,0.11724,0.348758,0.080227,-0.074188,1
468178933,0.480877,0.284735,-0.078758,0.454436,0.04561,-0.10402,1
468212267,0.754924,-0.069109,0.020379,0.504347,-0.156253,-0.045341,1
468245601,0.499218,-0.113417,0.037924,0.479566,-0.38291,-0.167015,1
468278935,0.430888,0.114334,0.018386,0.547778,-0.473951,0.087664,1
468312269,0.365084,0.218605,-0.004686,0.559921,-0.551789,0.22185,1
468345603,-0.030829,-0.071281,-0.01717,0.426889,-0.711214,-0.000532,1
468378937,-0.322953,-0.483747,0.034868,0.417461,-0.756001,0.129036,1
468412271,-0.605896,-0.54487,0.151501,0.351207,-0.676936,0.177267,1
468445605,-0.50755,-0.301318,0.213558,0.095137,-0.664233,0.085381,1
468478939,-0.176905,-0.036355,0.144725,-0.134086,-0.589468,0.19495,1
468512273,0.174749,0.095301,-0.000507,-0.227475,-0.366972,0.076611,1
468545607,0.491228,0.276687,-0.055453,-0.428408,-0.303549,-0.103024,1
468578941,0.2305,0.189308,0.09129,-0.66804,-0.459733,-0.305006,1
468612275,-0.009625,0.238471,0.091865,-0.702697,-0.447642,-0.284013,1
468645609,-0.152683,0.345274,0.098284,-0.683829,-0.240938,-0.17773,1
468678943,0.138294,0.234565,0.073769,-0.576453,-0.023071,-0.176751,1
468712277,0.189578,0.123313,0.105008,-0.387232,0.158547,-0.210283,1
468745611,0.212763,0.114035,-0.005251,-0.161978,0.270273,-0.056003,1
468778945,0.088692,0.06077,0.036794,-0.070214,0.223318,0.139643,1
468812279,0.092785,-0.253195,0.125738,-0.159525,0.137513,0.187354,1
468845613,0.041039,-0.391192,0.088689,-0.205729,0.023388,0.171647,1
468878947,-0.083348,-0.152877,0.034531,-0.150773,-0.078707,0.05003,1
468912281,0.089119,-0.176213,0.037577,-0.112272,-0.129907,-0.091154,1
468945615,0.22942,-0.170576,-0.008504,-0.17478,-0.251837,-0.090131,1
468978949,0.208966,-0.086343,0.053144,-0.124863,-0.304535,-0.200602,1
469012283,0.152793,-0.135996,0.139385,-0.049053,-0.345702,-0.05619,1
469045617,-0.098035,0.051885,0.091702,-0.018796,-0.401839,0.042296,1
469078951,-0.255336,-0.034265,0.115422,0.099992,-0.408107,-0.153432,1
469112285,-0.064372,-0.205611,0.034096,0.231035,-0.434004,-0.14838,1
469145619,0.128768,-0.219717,-0.001904,0.26714,-0.470058,-0.112781,1
469178953,0.248681,-0.089941,0.007341,0.205042,-0.482153,-0.10857,1
469212287,0.259687,0.062237,0.036256,0.113878,-0.458362,0.013306,1
469245621,0.211581,-0.003911,-0.041899,-0.131748,-0.427925,0.196393,1
469278955,0.13534,-0.124385,0.058363,-0.172799,-0.441147,-0.045833,1
469312289,0.3267,0.060595,-0.011523,-0.232163,-0.489014,-0.10893,1
469345623,0.596878,0.186343,-0.159328,-0.286695,-0.553823,0.120265,1
469378957,0.583149,-0.007816,0.030791,-0.484069,-0.461767,0.230644,1
469412291,0.079569,-0.106203,0.165076,-0.451963,-0.401915,-0.004002,1
469445625,-0.508371,-0.111443,0.104884,-0.234369,-0.330648,-0.15806,1
469478959,-0.436206,-0.292055,0.151893,-0.05631,-0.141755,-0.370027,1
469512293,-0.312838,-0.423606,0.12759,0.185692,-0.063753,-0.492876,1
469545627,-0.161371,-0.256349,0.0789,0.427107,0.005221,-0.413548,1
469578961,0.018171,-0.109193,0.051208,0.614946,0.105774,-0.302464,1
469612295,0.442994,0.23766,-0.087364,0.779465,0.141841,-0.084139,1
469645629,0.624933,0.391309,-0.017537,0.871155,0.054375,-0.092361,1
469678963,0.653329,0.11229,0.219627,0.762446,-0.141582,0.013033,1
469712297,0.427943,-0.031725,0.022637,0.565905,-0.360951,0.162804,1
469745631,-0.358149,0.199918,0.02411,0.405472,-0.515078,0.130195,1
469778965,-0.421313,0.172908,0.125534,0.208434,-0.479488,0.007394,1
469812299,-0.107706,0.004404,0.065649,0.095074,-0.402595,-0.019184,1
469845633,0.117727,-0.255639,0.050299,0.087985,-0.154584,0.080683,1
469878967,0.05201,-0.295435,0.153794,0.043947,0.036079,0.242532,1
469912301,0.026198,-0.009151,0.118923,-0.052981,0.165875,0.276375,1
469945635,0.148984,-0.007286,-0.017685,-0.215627,0.274462,-0.053801,1
469978969,0.357465,0.185879,0.048324,-0.333761,0.366097,-0.243231,1
470012303,0.378134,0.186487,0.024027,-0.288451,0.371692,-0.299863,1
470045637,0.365406,-0.003383,0.017557,-0.119536,0.312478,-0.322911,1
470078971,0.053542,0.075314,0.032341,-0.119663,0.211823,-0.167779,1
470112305,0.113735,0.041279,0.087342,-0.149768,0.167309,-0.098508,1
470145639,0.267386,-0.102652,0.117439,-0.161465,0.074616,-0.112697,1
470178973,0.138168,-0.078239,0.050044,-0.066443,0.012964,-0.052695,1
470212307,0.1934,-0.082908,0.035405,-0.029854,-0.132184,-0.042489,1
470245641,0.195568,0.056676,0.043656,-0.055263,-0.308817,-0.092921,1
470278975,0.175958,0.115538,-0.071531,-0.038448,-0.423714,-0.07237,1
470312309,0.126915,-0.05227,0.009964,-0.021386,-0.520423,-0.047701,1
470345643,-0.036966,-0.181956,0.016259,0.074884,-0.560081,-0.012993,1
470378977,-0.034226,-0.267601,0.113316,0.088521,-0.668993,0.164469,1
470412311,-0.123504,-0.250101,0.206092,0.046671,-0.696178,0.253753,1
470445645,-0.228983,-0.230536,0.179847,-0.00815,-0.737992,0.069263,1
470478979,-0.264536,-0.294343,0.213925,-0.008472,-0.779333,0.010583,1
470512313,-0.357104,-0.006897,0.057673,0.000996,-0.803505,-0.039941,1
470545647,-0.16896,-0.103285,0.141747,0.03664,-0.697908,-0.149799,1
470578981,-0.103712,-0.198771,0.072187,0.088849,-0.606834,-0.102814,1
470612315,-0.121313,-0.281039,0.036376,0.127379,-0.527423,-0.073088,1
470645649,-0.069967,-0.229317,0.087674,0.146148,-0.45362,-0.013274,1
470678983,-0.008023,-0.092875,0.101065,0.087241,-0.426803,-0.032372,1
470712317,0.005891,-0.21926,-0.010456,0.067329,-0.469768,-0.10871,1
470745651,-0.045957,-0.3131,0.061153,-0.019631,-0.46015,-0.197803,1
470778985,0.037298,0.050556,0.112529,-0.020258,-0.425073,-0.20643,1
470812319,0.131384,-0.133597,-0.057818,0.012939,-0.332022,-0.166735,1
470845653,-0.037942,-0.134254,-0.077323,0.03687,-0.280876,-0.249656,1
470878987,0.082501,0.234563,0.132393,0.148403,-0.168188,-0.198092,1
470912321,0.300867,0.137263,0.078804,0.221128,-0.064124,-0.051379,1
470945655,0.226428,-0.213419,0.069201,0.253661,-0.051433,0.042718,1
470978989,0.938453,-0.02353,-0.118911,0.25059,-0.104724,0.016875,1
471012323,1.129344,0.241197,-0.201717,0.23586,-0.159407,-0.082261,1
471045657,1.252114,-0.148547,-0.021138,0.099212,-0.226698,-0.013781,1
471078991,1.091113,0.023503,-0.030894,-0.015777,-0.282396,0.026632,1
471112325,0.447804,0.204471,0.128818,-0.060635,-0.255888,0.061601,1
471145659,0.031091,0.238518,0.149975,-0.036737,-0.188786,0.118612,1
471178993,-0.224194,0.339434,0.118436,-0.014081,-0.112762,0.03651,1
471212327,-0.129571,0.178187,0.083602,-0.005073,-0.011857,-0.090936,1
471245661,0.002431,-0.026906,0.082969,0.021088,0.111794,-0.167161,1
471278995,0.255423,0.05334,0.091859,-0.013837,0.253031,-0.163424,1
471312329,0.416638,-0.032121,0.04064,-0.008836,0.339693,-0.054669,1
471345663,0.52247,0.225345,0.08826,-0.002527,0.428343,0.013522,1
471378997,0.253706,0.060512,0.076828,-0.055903,0.471418,0.078455,1
471412331,0.25828,0.007495,0.061644,-0.163703,0.45099,0.042068,1
471445665,-0.084157,0.295147,0.123294,-0.218386,0.360069,-0.094179,1
471478999,-0.188864,0.157987,0.032828,-0.23663,0.287763,-0.254532,1
471512333,-0.030479,0.198009,0.099701,-0.328335,0.234583,-0.296879,1
471545667,0.128892,0.059871,0.005581,-0.329085,0.2045,-0.151863,1
471579001,0.210537,0.011069,0.13812,-0.321885,0.191696,-0.024726,1
471612335,0.17812,0.095173,0.107084,-0.31303,0.134065,0.058268,1
471645669,0.227839,0.085703,0.010451,-0.360809,0.030906,0.079465,1
471679003,-0.030079,-0.04356,0.136431,-0.325109,-0.050168,-0.002877,1
471712337,-0.24163,0.09047,0.041303,-0.227093,-0.071593,-0.116484,1
471745671,-0.124868,-0.040581,0.089769,-0.143135,-0.07504,-0.132972,1
471779005,0.044784,-0.118381,0.05484,-0.051409,-0.049961,-0.157432,1
471812339,0.009139,-0.202281,0.045314,0.047696,0.023605,-0.103282,1
471845673,0.088017,-0.016767,0.129682,0.115086,0.052916,0.01386,1
471879007,0.104033,0.205937,0.004941,0.13497,0.06183,0.063923,1
471912341,0.23418,-0.06657,0.011938,0.178053,-0.01212,0.112232,1
471945675,0.135033,-0.063501,0.015775,0.129373,-0.17221,0.080992,1
471979009,-0.05855,-0.073834,0.042523,0.100302,-0.373117,-0.017385,1
472012343,-0.167439,-0.108706,0.038249,0.036801,-0.572918,0.02322,1
472045677,-0.169854,-0.257423,0.088281,-0.028447,-0.709793,0.076219,1
472079011,0.107015,-0.048174,0.21555,-0.01369,-0.739275,0.144447,1
472112345,0.115933,-0.195789,-0.168768,-0.013057,-0.678969,0.122895,1
472145679,0.529778,-0.210398,-0.015839,0.028246,-0.640538,0.022504,1
472179013,0.593182,-0.101277,-0.092148,0.117729,-0.537151,-0.264296,1
472212347,0.278674,0.070175,-0.058081,0.261814,-0.463262,-0.38163,1
472245681,0.201331,-0.109494,-0.206516,0.340268,-0.436178,-0.353131,1
472279015,0.56118,-0.380402,-0.033455,0.425661,-0.455285,-0.267112,1
472312349,0.477447,-0.408143,0.044559,0.526661,-0.502695,-0.12044,1
472345683,0.348864,-0.15587,-0.05145,0.570209,-0.631232,0.0484,1
472379017,0.153333,-0.141491,0.041199,0.561595,-0.648616,0.039838,1
472412351,-0.187752,-0.241687,0.117227,0.650688,-0.674157,-0.081963,1
472445685,-0.582137,-0.131523,0.14556,0.771585,-0.660265,-0.138504,1
472479019,-0.707613,-0.145158,0.308806,0.756134,-0.568079,-0.089607,1
472512353,-0.607107,-0.400929,0.34424,0.646664,-0.404601,0.091884,1
472545687,-0.550596,-0.3438,0.276665,0.616303,-0.232744,-0.007613,1
472579021,-0.631002,-0.060173,0.184683,0.619511,-0.044347,0.043944,1
472612355,-0.471448,0.102035,0.079005,0.584284,0.124016,0.045981,1
472645689,-0.029423,0.060808,0.06844,0.483077,0.250269,0.076198,1
472679023,0.143637,0.044376,0.015616,0.271469,0.19067,0.120565,1
472712357,0.120123,0.151088,0.054524,0.004678,0.042577,0.175127,1
472745691,0.141192,0.117863,0.063895,-0.271854,-0.199113,0.225031,1
472779025,-0.049359,0.196714,0.064107,-0.629889,-0.387171,0.198828,1
472812359,-0.094131,0.319936,0.049787,-0.862638,-0.384243,0.116014,1
472845693,0.076111,0.291312,0.113008,-0.9693,-0.216321,0.073887,1
472879027,0.205025,0.118957,0.052813,-0.935704,0.038074,-0.09502,1
472912361,0.132962,0.113254,-0.008696,-0.969276,0.256877,-0.234675,1
472945695,0.098508,0.232023,0.077094,-1.063827,0.443613,-0.410996,1
472979029,0.182132,0.124355,0.039988,-1.037359,0.516993,-0.48524,1
473012363,0.097449,0.060006,0.076512,-0.881039,0.604668,-0.598582,1
473045697,-0.041829,0.139382,0.091432,-0.669871,0.541367,-0.600739,1
473079031,-0.041955,0.21431,0.136238,-0.512855,0.366063,-0.488401,1
473112365,0.043621,0.295541,0.088302,-0.362328,0.118823,-0.330945,1
473145699,0.19059,0.205924,-0.024407,-0.245029,-0.131184,-0.008085,1
473179033,0.31833,0.105463,0.02869,-0.040882,-0.274733,0.239495,1
473212367,0.241723,0.191309,0.042069,0.113714,-0.32945,0.338409,1
473245701,0.192391,0.106567,0.035841,0.2392,-0.345214,0.350324,1
473279035,0.080116,0.083938,0.090181,0.31016,-0.301887,0.241295,1
473312369,0.007417,0.072995,0.047234,0.409712,-0.184159,0.08698,1
473345703,0.012056,0.169137,0.127091,0.409928,-0.057501,-0.050462,1
473379037,0.084835,0.198452,0.014422,0.386763,0.039567,-0.000338,1
473412371,0.217152,0.107079,0.077704,0.363565,0.169965,-0.110567,1
473445705,0.141233,0.095951,0.045436,0.264783,0.264397,-0.093685,1
473479039,0.11247,0.049076,0.051739,0.150805,0.292512,-0.032548,1
473512373,0.058765,-0.009593,0.071365,0.004531,0.320112,-0.123546,1
473545707,0.023124,-0.022366,0.076465,-0.068438,0.263969,-0.189761,1
473579041,-0.061444,0.029734,0.106314,-0.104988,0.158184,-0.215234,1
473612375,-0.075496,0.047163,0.079509,-0.230393,0.062858,-0.229876,1
473645709,0.035527,-0.055119,0.070368,-0.323381,-0.068692,-0.172307,1
473679043,0.084587,-0.073842,0.071603,-0.277462,-0.109329,-0.113482,1
473712377,0.021438,0.017952,0.059083,-0.212996,-0.129943,-0.079295,1
473745711,0.110512,0.052304,0.080486,-0.224354,-0.186193,0.003684,1
473779045,0.202635,-0.00643,0.02582,-0.115314,-0.253468,-0.044207,1
473812379,0.198713,0.025856,0.042308,-0.025434,-0.229572,0.013482,1
473845713,0.141842,0.121517,0.047426,0.068567,-0.23132,0.064838,1
473879047,0.066148,0.115948,0.114266,0.180949,-0.175298,-0.031561,1
473912381,-0.004404,0.096967,0.106427,0.277167,-0.074873,-0.156898,1
473945715,0.059662,0.12542,0.03257,0.404468,0.062891,-0.195019,1
473979049,0.203483,-0.002844,0.016236,0.512957,0.193528,-0.152298,1
474012383,0.214781,0.007782,0.016437,0.521283,0.148543,-0.084686,1
474045717,0.155196,0.036159,0.007078,0.514982,0.129703,0.135011,1
474079051,0.040229,-0.083434,0.100855,0.432552,-0.06157,0.370578,1
474112385,-0.26603,-0.002262,0.180697,0.337713,-0.222139,0.266539,1
474145719,-0.345051,0.034541,0.178358,0.164894,-0.159369,0.131495,1
474179053,-0.21648,0.169188,0.19976,0.028899,0.005564,-0.057337,1
474212387,-0.043642,0.213198,0.074137,0.122839,0.152079,-0.187118,1
474245721,0.151342,0.210323,0.019484,0.007838,0.197359,-0.269609,1
474279055,0.205768,0.101034,0.031846,-0.225563,0.058581,-0.145973,1
474312389,0.073525,0.169016,0.04902,-0.319129,-0.062825,-0.036518,1
474345723,0.092797,0.137726,-0.00673,-0.359974,-0.095711,0.035494,1
474379057,0.194509,0.025763,0.051722,-0.557134,-0.124926,0.025082,1
474412391,0.089701,0.094978,0.002146,-0.541279,-0.044731,-0.08394,1
474445725,0.136383,0.179805,0.026242,-0.548575,0.046823,-0.200395,1
474479059,0.211029,0.0182,0.007142,-0.600122,0.03793,-0.268755,1
474512393,0.175244,0.05742,0.012011,-0.560046,-0.045332,-0.271777,1
474545727,0.081649,0.040539,0.016835,-0.380668,-0.000816,-0.24756,1
474579061,-0.058731,-0.116995,0.093657,-0.302754,-0.046588,-0.132015,1
474612395,-0.265323,-0.15508,0.176773,-0.218052,-0.140612,0.014452,1
474645729,-0.361001,-0.113669,0.165262,-0.058338,-0.211339,0.163441,1
474679063,-0.266935,-0.064568,0.172822,0.058665,-0.250608,0.156937,1
474712397,-0.107922,-0.060933,0.078196,0.074819,-0.267121,0.069953,1
474745731,0.002299,0.027528,-0.00023,0.154381,-0.249912,-0.047949,1
474779065,0.142622,0.023202,0.031157,0.286181,-0.224626,-0.071834,1
474812399,0.196909,-0.011795,-0.029338,0.342027,-0.233932,0.013874,1
474845733,0.093028,0.024398,0.08704,0.306798,-0.245946,0.033231,1
474879067,-0.037026,0.050898,0.068055,0.319655,-0.260282,0.124935,1
474912401,-0.05027,0.055665,0.096801,0.290565,-0.265914,0.019263,1
474945735,-0.034394,0.073603,0.09762,0.139061,-0.222734,0.008368,1
474979069,0.024926,0.142095,0.064209,0.074556,-0.146456,-0.041721,1
475012403,0.031202,0.076073,0.081179,0.087362,-0.067153,-0.100797,1
475045737,0.01899,0.004022,0.080001,0.006657,0.01122,-0.141416,1
475079071,-0.010487,0.067409,0.034535,-0.10176,0.045139,-0.090335,1
475112405,0.030411,0.077646,0.053043,-0.169912,0.066447,-0.066791,1
475145739,0.123974,0.05018,0.056324,-0.225942,0.024454,-0.059784,1
475179073,0.143414,0.097637,-0.035402,-0.327866,0.017265,-0.07579,1
475212407,0.180501,0.047979,0.025349,-0.372027,-0.023378,-0.186084,1
475245741,0.123538,0.016659,0.085928,-0.354005,-0.066838,-0.161942,1
475279075,-0.02253,0.013562,0.067741,-0.318801,-0.075923,-0.151608,1
475312409,-0.085084,-0.090742,0.133878,-0.315614,-0.111412,-0.164015,1
475345743,-0.161496,-0.032263,0.107869,-0.204323,-0.147618,-0.17218,1
475379077,-0.139511,-0.076539,0.101352,-0.056357,-0.110738,-0.170472,1
475412411,-0.055034,-0.026896,0.107182,0.050257,-0.083758,-0.163618,1
475445745,0.139768,0.066216,0.0565,0.093175,-0.096385,-0.091674,1
475479079,0.226141,0.064229,0.000191,0.163877,-0.122328,-0.016504,1
475512413,0.183447,0.031941,0.043159,0.166733,-0.130088,0.03522,1
475545747,0.134647,0.087032,0.018495,0.094939,-0.129846,0.151261,1
475579081,0.069167,0.041358,0.077497,0.128299,-0.111416,0.049696,1
475612415,-0.060027,0.047831,0.098255,0.204038,-0.127642,-0.030755,1
475645749,-0.16865,0.089822,0.04106,0.191404,-0.139482,-0.12941,1
475679083,-0.146572,-0.032298,0.11145,0.066119,-0.175101,-0.148406,1
475712417,-0.122033,-0.073958,0.132658,-0.008001,-0.20566,-0.170829,1
475745751,-0.155709,0.080368,0.110602,-0.033485,-0.177276,-0.151581,1
475779085,-0.042306,0.18288,-0.008249,-0.066998,-0.194512,-0.088259,1
475812419,0.235533,-0.158932,0.089121,-0.062101,-0.236538,-0.054166,1
475845753,0.066878,-0.102112,0.059151,-0.10344,-0.304195,0.08722,1
475879087,-0.156749,0.118214,0.036666,-0.162803,-0.390159,0.161304,1
475912421,-0.159536,-0.093142,0.130005,-0.303384,-0.490589,0.1395,1
475945755,-0.199141,-0.109957,0.074232,-0.331869,-0.575091,0.056417,1
475979089,-0.130558,-0.017157,0.106055,-0.258364,-0.569038,-0.084777,1
476012423,-0.181007,-0.027745,0.071469,-0.166202,-0.538943,-0.094506,1
476045757,-0.172888,0.041423,0.09099,-0.05849,-0.499844,-0.164854,1
476079091,-0.114569,-0.048385,0.165741,0.038612,-0.385653,-0.121088,1
476112425,-0.13844,-0.026244,0.054309,0.091026,-0.337425,-0.096517,1
476145759,-0.055319,0.023822,0.093234,0.145889,-0.327272,-0.08385,1
476179093,-0.043821,0.147855,0.056323,0.166662,-0.317083,-0.166183,1
476212427,0.031329,0.172147,0.01062,0.112817,-0.286707,-0.217196,1
476245761,0.007593,0.024485,0.101685,0.102637,-0.28911,-0.295126,1
476279095,-0.074712,0.186025,0.017366,0.12635,-0.244071,-0.233166,1
476312429,-0.112817,0.228876,0.045254,0.051282,-0.263055,-0.145391,1
476345763,0.066529,0.109252,0.071503,0.012344,-0.235394,-0.126186,1
476379097,0.075858,0.29208,0.012623,-0.011203,-0.214895,-0.105564,1
476412431,0.180994,0.201755,0.034965,-0.042294,-0.182851,-0.099298,1
476445765,0.116958,-0.161182,0.139503,-0.062283,-0.187604,-0.185203,1
476479099,-0.05477,-0.152977,0.118472,-0.051169,-0.128077,-0.203668,1
476512433,-0.320336,0.182167,0.125189,-0.057497,-0.083051,-0.052808,1
476545767,-0.080875,-0.030276,0.046086,-0.030843,-0.011692,0.041424,1
476579101,0.38383,-0.223387,0.09255,0.001623,0.033582,0.026671,1
476612435,0.167767,0.149886,0.034288,0.019725,0.049474,-0.008919,1
476645769,0.111245,0.06918,-0.073612,0.079118,0.061646,-0.085534,1
476679103,0.391333,-0.079069,0.012842,0.112365,0.133019,-0.263949,1
476712437,0.569752,0.132733,0.044073,0.065612,0.10717,-0.365449,1
476745771,0.476986,0.063154,0.080056,0.085302,0.129699,-0.278312,1
476779105,0.113036,-0.333477,0.290751,0.132612,0.155794,-0.177231,1
476812439,-0.35704,-0.244499,0.330781,0.172936,0.166865,0.008859,1
476845773,-0.673085,-0.241264,0.224689,0.352712,0.088179,-0.023522,1
476879107,-0.629896,0.106529,0.13039,0.576405,0.085954,0.019205,1
476912441,0.075437,0.00403,0.08987,0.727495,0.053986,0.158608,1
476945775,0.555878,0.014262,0.074474,0.745456,0.024513,0.356959,1
476979109,0.450657,0.095441,0.037107,0.774943,0.006187,0.550825,1
477012443,-0.07444,0.340442,0.065973,0.759382,0.023594,0.634842,1
477045777,-0.324862,0.083788,0.104703,0.719384,0.114718,0.669931,1
477079111,-0.049622,-0.165128,0.138402,0.654094,0.18221,0.585431,1
477112445,0.277591,-0.289706,0.042807,0.627807,0.277992,0.39325,1
477145779,0.315135,-0.185622,0.096316,0.485953,0.37817,0.226771,1
477179113,0.476088,-0.144361,0.14466,0.222108,0.363419,0.013565,1
477212447,0.623375,0.154491,0.060146,0.055629,0.363914,-0.112674,1
477245781,0.1887,0.532086,-0.092515,-0.154235,0.316877,-0.148726,1
477279115,0.586939,0.074945,0.101991,-0.448515,0.330313,-0.440311,1
477312449,0.462515,-0.086421,0.167592,-0.168743,0.289565,-0.397593,1
477345783,-0.256251,0.19954,0.067465,0.19861,0.26531,-0.195087,1
477379117,-0.421609,0.374575,-0.017502,0.442694,0.124516,-0.137132,1
477412451,-0.062267,0.041604,0.092491,0.341666,-0.075447,-0.132836,1
477445785,0.100185,-0.177086,0.06481,0.329568,-0.247924,-0.057454,1
477479119,-0.156151,0.158465,0.137586,0.192213,-0.285079,-0.017783,1
477512453,-0.555725,0.294089,0.038552,-0.368317,-0.147303,0.017516,1
477545787,-0.473581,-0.106505,0.181773,-0.789873,-0.052746,-0.150864,1
477579121,-0.449021,-0.262529,0.191301,-0.548004,0.018715,-0.413137,1
477612455,-0.270626,0.067445,0.03056,-0.252578,-0.040749,-0.280219,1
477645789,0.083071,0.103413,0.040955,-0.089945,-0.298496,0.089182,1
477679123,-0.01786,0.188869,0.022774,-0.174974,-0.725288,-0.084432,1
477712457,-0.202214,0.298146,-0.020738,-0.222746,-0.978716,-0.24753,1
477745791,-0.001375,0.273177,0.088361,0.002237,-1.062503,-0.169778,1
477779125,0.078049,0.204323,0.096503,0.21439,-1.066496,0.023927,1
477812459,-0.263193,0.348383,-0.000772,0.39143,-0.867586,0.340785,1
477845793,-0.278379,0.263153,0.17959,0.375591,-0.654394,0.394163,1
477879127,-0.215774,0.216407,0.14249,0.307115,-0.432615,0.377836,1
477912461,-0.043208,0.188522,0.038241,0.070799,-0.232581,0.129673,1
477945795,0.075767,0.303842,0.149289,-0.173472,-0.044762,-0.154277,1
477979129,-0.096707,0.433325,0.035488,-0.369508,0.173984,-0.351961,1
478012463,-0.0119,0.156918,0.097266,-0.468934,0.352254,-0.48395,1
478045797,-0.208846,0.114288,0.219839,-0.825983,0.535801,-0.432218,1
478079131,-0.110679,0.158263,0.073703,-1.035362,0.577633,-0.412307,1
478112465,0.0908,0.055898,-0.006971,-0.981776,0.594991,-0.437624,1
478145799,0.108643,-0.04338,-0.004864,-0.932136,0.549696,-0.326908,1
478179133,0.13702,0.092003,0.105109,-0.89523,0.414974,-0.200094,1
478212467,0.130561,0.077952,0.003675,-0.849448,0.223395,-0.103351,1
478245801,-0.010301,0.277226,0.015048,-0.711952,0.122254,-0.085962,1
478279135,-0.004643,0.244019,0.106755,-0.501672,0.113366,-0.089422,1
478312469,0.10806,0.10373,0.118897,-0.232312,0.182009,-0.05677,1
478345803,0.07998,0.097489,0.111272,0.02828,0.194005,-0.084807,1
478379137,0.143496,0.280611,0.099898,0.272686,0.230325,-0.017007,1
478412471,0.250507,0.11747,0.058791,0.435878,0.209149,0.096648,1
478445805,0.026105,0.075979,0.106409,0.533242,0.100783,0.202932,1
478479139,-0.17864,0.174593,0.066713,0.553591,-0.112928,0.229528,1
478512473,-0.069258,-0.027419,0.097861,0.548936,-0.227848,0.217853,1
478545807,-0.087369,-0.035694,0.089724,0.521047,-0.303478,0.124341,1
478579141,-0.12894,0.012183,0.098718,0.531724,-0.276845,0.014174,1
478612475,-0.082504,-0.033951,0.08211,0.531031,-0.204761,-0.092325,1
478645809,-0.052224,-0.028791,0.113648,0.449363,-0.046571,-0.139818,1
478679143,-0.032441,-0.062911,0.07493,0.45437,0.025927,-0.130305,1
478712477,0.025164,-0.057982,0.052209,0.394584,0.031214,-0.169131,1
478745811,0.046858,-0.073607,0.043668,0.287767,0.035115,-0.123903,1
478779145,0.098825,-0.081481,0.04714,0.186013,-0.004377,-0.040576,1
478812479,0.080359,-0.027637,0.038945,0.032061,-0.133933,-0.043569,1
478845813,0.069737,0.048414,0.052699,-0.221344,-0.231603,-0.078118,1
478879147,0.036981,0.068633,0.07756,-0.295253,-0.24998,-0.146858,1
478912481,-0.015805,0.101891,0.053892,-0.249442,-0.212239,-0.156465,1
478945815,-0.025522,0.071768,0.052104,-0.267874,-0.227436,-0.183171,1
478979149,-0.111883,0.045863,0.098246,-0.269237,-0.266695,-0.155049,1
479012483,-0.250321,0.028402,0.089706,-0.224413,-0.270237,-0.074801,1
479045817,-0.296001,0.007508,0.083962,-0.19397,-0.350058,-0.041369,1
479079151,-0.220711,-0.123193,0.088638,-0.146072,-0.328645,0.000381,1
479112485,-0.10984,-0.221369,0.058128,-0.106334,-0.318449,0.009112,1
479145819,-0.194375,-0.093431,0.084675,-0.054058,-0.292655,0.069714,1
479179153,-0.172558,-0.008549,0.051046,0.018615,-0.313601,0.092187,1
479212487,-0.150302,-0.068709,0.084666,0.027699,-0.392378,0.008687,1
479245821,-0.167569,-0.150056,0.109692,-0.020845,-0.467125,0.001696,1
479279155,-0.192301,-0.098555,0.095576,0.010342,-0.412697,-0.045224,1
479312489,-0.183429,0.043186,0.047268,0.06331,-0.355962,-0.069655,1
479345823,-0.03218,0.017037,0.086236,0.069951,-0.259326,-0.028557,1
479379157,0.014783,0.028168,0.068769,0.066222,-0.219318,-0.018596,1
479412491,-0.051796,0.014798,0.053627,0.060285,-0.170583,-0.093557,1
479445825,-0.147847,-0.121861,0.144485,0.010216,-0.136114,-0.121625,1
479479159,-0.274833,-0.070023,0.127541,-0.004545,-0.080275,-0.137557,1
479512493,-0.265099,-0.030409,0.115197,0.016464,0.006531,-0.116872,1
479545827,-0.275777,-0.075168,0.111018,0.031911,0.044543,-0.112158,1
479579161,-0.069225,-0.154178,0.087233,0.045315,0.061066,-0.069525,1
479612495,0.032297,0.00984,-0.011189,0.02749,0.000155,-0.037511,1
479645829,0.16205,0.207178,0.016647,-0.04368,-0.018125,0.019478,1
479679163,0.102113,0.274081,0.062922,-0.096979,-0.140557,0.109017,1
479712497,0.011906,0.204762,0.036503,-0.166972,-0.223946,0.032583,1
479745831,0.092903,0.119697,0.037265,-0.243248,-0.295916,0.033322,1
479779165,-0.025262,0.194768,0.174685,-0.256351,-0.237348,0.008632,1
479812499,-0.032346,0.220602,0.072459,-0.209853,-0.078806,-0.004913,1
479845833,0.173528,0.164321,0.089638,-0.134032,0.092695,-0.048025,1
479879167,0.116064,0.158031,0.120311,-0.084045,0.212592,-0.083309,1
479912501,0.10372,0.142075,0.078336,-0.03593,0.303936,-0.180689,1
479945835,0.032074,0.200117,0.057216,-0.009042,0.331662,-0.224232,1
479979169,0.130801,0.167409,0.029166,0.043924,0.355287,-0.264833,1
480012503,0.078118,0.127726,0.073496,0.084563,0.351979,-0.243769,1
480045837,0.154096,0.152746,0.079074,0.12299,0.342066,-0.105501,1
480079171,0.163845,0.085372,0.043195,0.129657,0.271725,-0.01387,1
480112505,0.021688,0.155439,0.100788,0.093875,0.171835,0.002947,1
480145839,0.029143,0.189179,0.089075,0.09476,0.1065,-0.030272,1
480179173,0.08805,0.17432,0.084666,0.057237,0.07992,-0.035583,1
480212507,0.051608,0.109541,0.046364,0.025426,-0.000958,-0.038448,1
480245841,0.001842,0.090626,0.075971,0.006785,-0.056166,-0.031333,1
480279175,0.064639,0.148393,0.034605,0.001967,-0.107125,-0.022499,1
480312509,0.127311,0.173117,0.054759,-0.026773,-0.087995,-0.019894,1
480345843,0.111781,0.065673,0.064189,-0.043659,0.005237,0.016113,1
480379177,0.105907,0.105353,0.066332,-0.020239,0.033503,0.00479,1
480412511,0.08173,0.135337,0.085454,0.022904,0.057652,0.001193,1
480445845,-0.012647,0.06782,0.085765,-0.011469,0.017198,0.01943,1
480479179,-0.043331,0.093628,0.033947,-0.038466,-0.043432,-0.094852,1
480512513,0.071868,0.19356,0.090972,-0.016349,-0.030255,-0.131341,1
480545847,0.164028,0.130163,0.053067,0.022986,0.008308,-0.081541,1
480579181,0.130493,0.098514,0.014322,0.030487,-0.012836,-0.005854,1
480612515,0.030848,0.155086,0.107898,0.070257,-0.004289,-0.011591,1
480645849,-0.018424,0.148061,0.076928,0.039006,0.002293,0.028705,1
480679183,0.015971,0.101678,0.083059,0.032259,0.045463,-0.059491,1
480712517,0.005284,0.073522,0.146929,0.054936,0.104088,-0.094111,1
480745851,0.00291,0.101833,0.018507,0.049172,0.086291,-0.124544,1
480779185,0.043855,0.118881,0.054861,-0.028227,0.084114,-0.186343,1
480812519,0.011685,0.167324,0.014055,-0.01277,0.058948,-0.127234,1
480845853,0.029567,0.146158,0.051435,-0.004548,0.074053,-0.233507,1
480879187,0.048891,-0.030681,0.115365,-0.058596,0.136529,-0.231076,1
480912521,-0.079677,0.007928,0.11965,-0.040045,0.145593,-0.169514,1
480945855,-0.163943,0.007261,0.171608,0.007418,0.155071,-0.099592,1
480979189,-0.234468,-0.060837,0.208205,-0.003123,0.110446,-0.121392,1
481012523,-0.18375,0.044159,0.078908,0.056376,0.064342,-0.143708,1
481045857,0.024931,0.110791,0.051868,0.125825,-0.097551,-0.053887,1
481079191,0.040775,0.071332,0.181985,0.154858,-0.297805,-0.010215,1
481112525,-0.075241,0.001948,0.054717,0.097269,-0.461958,0.116304,1
481145859,-0.005855,-0.033341,-0.041789,0.287036,-0.626572,0.123374,1
481179193,-0.046704,-0.278191,0.129744,0.335728,-0.613342,0.211349,1
481212527,-0.210055,-0.296958,0.00233,0.232147,-0.481294,0.236223,1
481245861,-0.261702,-0.113521,0.091396,0.05913,-0.204758,0.153429,1
481279195,-0.16463,-0.04581,0.184766,0.058486,-0.004158,0.023775,1
481312529,-0.068962,0.02343,-0.041134,0.176813,0.189334,-0.244433,1
481345863,0.068459,0.177906,0.164492,-0.080987,0.183364,-0.249751,1
481379197,0.22338,0.01836,-0.012701,-0.1316,-0.002432,-0.374444,1
481412531,0.195905,0.000207,0.013726,0.060783,0.01127,-0.270863,1
481445865,0.016305,0.013112,-0.072717,0.05465,-0.284793,-0.242985,1
481479199,-0.078151,-0.055537,0.080626,-0.011791,-0.498225,0.042697,1
481512533,-0.144557,-0.129004,0.047399,0.065872,-0.531487,0.176616,1
481545867,-0.268747,-0.113861,0.217484,0.085,-0.516996,0.351564,1
481579201,-0.178304,-0.158167,0.041714,0.17604,-0.490399,0.215325,1
481612535,-0.067407,-0.143905,0.075702,0.18083,-0.253265,0.138838,1
481645869,-0.070514,-0.082667,0.044635,0.115495,-0.257042,0.123023,1
481679203,-0.026547,0.001766,0.061739,0.040125,-0.244671,0.088067,1
481712537,-0.011014,0.098283,0.065824,-0.20749,-0.093564,-0.132672,1
481745871,0.002861,0.218926,-0.002287,-0.391456,0.03347,-0.20793,1
481779205,-0.013233,0.192429,0.092858,-0.340339,0.253767,-0.161599,1
481812539,-0.00785,0.089601,0.119679,-0.226785,0.346965,-0.36063,1
481845873,-0.09513,0.046756,0.124271,-0.128481,0.308265,-0.317465,1
481879207,-0.189642,0.112033,0.127183,-0.081091,0.08652,-0.180096,1
481912541,-0.279292,0.101968,0.133418,-0.069601,-0.164859,-0.074255,1
481945875,-0.239075,0.078739,0.070337,-0.025463,-0.330023,0.077872,1
481979209,-0.127482,0.072516,0.087175,-0.0247,-0.283686,0.159668,1
482012543,-0.055466,-0.013641,0.091333,-0.103803,-0.224582,0.33395,1
482045877,-0.089253,0.03529,0.154739,-0.083181,0.061048,0.302758,1
482079211,-0.118463,0.075227,0.124806,-0.189589,0.176642,0.206163,1
482112545,-0.078116,0.13595,0.067666,-0.261812,0.317022,0.009685,1
482145879,0.010503,0.217409,0.073472,-0.3858,0.335522,-0.097789,1
482179213,-0.100143,0.310324,0.067458,-0.454739,0.292785,-0.273,1
482212547,0.101042,0.247212,0.070705,-0.502861,0.291152,-0.261342,1
482245881,0.169771,0.131092,0.058956,-0.532302,0.181785,-0.263206,1
482279215,0.109405,0.201661,0.056285,-0.457347,0.088682,-0.297187,1
482312549,0.11988,0.175326,0.088398,-0.385446,0.10174,-0.252952,1
482345883,0.093944,0.19084,0.056307,-0.297902,0.147681,-0.137691,1
482379217,0.100221,0.226804,0.087708,-0.240836,0.227798,-0.128083,1
482412551,0.103246,0.199544,0.061656,-0.142351,0.315057,-0.172347,1
482445885,0.119259,0.218307,0.033334,0.002411,0.42094,-0.255378,1
482479219,0.181941,0.231456,0.029504,0.069121,0.389164,-0.192659,1
482512553,0.194761,0.14292,0.009996,0.152268,0.299703,-0.193418,1
482545887,0.062835,0.009643,0.089792,0.229741,0.130349,-0.144605,1
482579221,-0.174721,0.033394,0.095447,0.275127,-0.039123,-0.058977,1
482612555,-0.263887,-0.024825,0.086981,0.234255,-0.228573,0.03027,1
482645889,-0.210845,-0.018131,0.132279,0.200305,-0.382187,0.12708,1
482679223,-0.137831,-0.034796,0.074786,0.207154,-0.404968,0.05406,1
482712557,-0.08139,0.001729,0.11108,0.252623,-0.310898,0.031247,1
482745891,-0.169847,0.171869,0.060165,0.237711,-0.209691,-0.02126,1
482779225,-0.072718,0.087025,0.126491,0.30399,-0.125169,-0.077421,1
482812559,-0.044173,-0.01598,0.013527,0.404439,-0.288724,-0.121652,1
482845893,0.184843,-0.168759,0.068784,0.223963,-0.458332,-0.119864,1
482879227,0.137612,-0.223377,0.04153,0.183537,-0.418665,-0.103177,1
482912561,-0.031447,-0.256545,0.008636,0.206428,-0.332237,0.062298,1
482945895,-0.11987,-0.286767,0.111581,0.103475,-0.448052,0.117321,1
482979229,-0.17393,-0.251109,0.1366,0.021285,-0.542894,0.045428,1
483012563,-0.109366,-0.105691,0.087379,-0.02213,-0.576165,0.070199,1
483045897,0.030514,-0.154567,0.038395,0.047425,-0.579855,-0.07733,1
483079231,0.064735,-0.081706,0.031426,0.060306,-0.542325,-0.169105,1
483112565,0.036912,-0.046018,0.07815,0.156632,-0.508863,-0.039812,1
483145899,-0.069178,0.01644,0.099724,0.233069,-0.495802,0.016169,1
483179233,-0.092923,-0.010496,0.134279,0.180374,-0.445568,0.076658,1
483212567,-0.129283,-0.087182,0.08412,0.268042,-0.376824,0.11916,1
483245901,-0.070254,-0.005607,0.075419,0.332405,-0.186518,0.021807,1
483279235,-0.015215,0.044169,0.109238,0.314432,0.018286,0.006047,1
483312569,-0.060482,0.041165,0.119808,0.295953,0.2103,-0.036329,1
483345903,-0.069198,0.070546,0.080234,0.265515,0.378869,-0.178525,1
483379237,0.01327,0.013315,0.085694,0.179048,0.426125,-0.147559,1
483412571,0.053353,0.032356,0.051873,0.149953,0.421304,-0.188869,1
483445905,0.095229,0.100541,0.031937,0.080008,0.370431,-0.161827,1
483479239,0.168385,0.054308,0.001826,0.003915,0.37505,-0.104136,1
483512573,0.213473,0.032207,0.046077,-0.092232,0.393727,-0.1152,1
483545907,0.161484,0.047428,0.040867,-0.116885,0.32006,-0.285241,1
483579241,0.101028,0.001171,0.093715,-0.136041,0.23197,-0.257233,1
483612575,-0.032939,-0.00378,0.046458,-0.147044,0.055541,-0.207979,1
483645909,-0.097782,0.007924,0.109294,-0.139328,-0.114116,-0.167729,1
483679243,-0.196248,-0.099772,0.139063,-0.069435,-0.227746,-0.070593,1
483712577,-0.259188,-0.080769,0.105499,0.034187,-0.343455,0.024907,1
483745911,-0.205236,0.018866,0.101946,0.072212,-0.495306,0.040466,1
483779245,-0.123657,0.037952,0.055902,0.114428,-0.53492,0.134734,1
483812579,-0.079481,-0.024213,0.082028,0.283332,-0.551979,0.173285,1
483845913,-0.075762,-0.083423,0.076714,0.136528,-0.548031,0.193832,1
483879247,-0.052795,-0.08161,0.06335,0.126872,-0.284435,0.137808,1
483912581,-0.097806,-0.023639,0.066264,0.078181,-0.154313,0.138433,1
483945915,-0.150066,-0.013536,0.112432,0.01638,-0.014422,0.038649,1
483979249,-0.227294,0.009425,0.115129,-0.064412,0.066865,-0.089355,1
484012583,-0.211803,0.044032,0.120596,-0.120438,0.096885,-0.155527,1
484045917,-0.152799,0.076412,0.127515,-0.143315,0.099399,-0.159788,1
484079251,-0.079982,0.10207,0.05239,-0.215425,0.104793,-0.113191,1
484112585,-0.013831,0.158174,0.053892,-0.321303,0.093822,-0.147989,1
484145919,0.003684,0.225748,0.083932,-0.308477,0.090433,-0.013597,1
484179253,0.057587,0.1276,0.041965,-0.317685,-0.001064,-0.032458,1
484212587,0.079194,0.109321,0.042983,-0.286096,-0.106947,-0.10256,1
484245921,0.074779,0.267665,0.048999,-0.311611,-0.188972,-0.075533,1
484279255,0.118174,0.29028,0.054074,-0.389191,-0.198178,0.018783,1
484312589,0.151186,0.157552,0.065367,-0.358669,-0.127889,-0.080996,1
484345923,-0.045375,0.202714,0.068641,-0.219703,0.068086,-0.077485,1
484379257,-0.216407,0.193176,0.108964,-0.201061,0.184448,-0.078838,1
484412591,-0.260923,0.080064,0.124206,-0.23235,0.328637,-0.1075,1
484445925,-0.141296,0.136062,0.060246,-0.142423,0.436317,-0.104675,1
484479259,-0.054833,0.176819,0.063481,-0.094907,0.436611,-0.153149,1
484512593,-0.103269,0.04499,0.101511,-0.086069,0.344365,-0.174045,1
484545927,-0.140706,-0.0448,0.077179,-0.115991,0.1567,-0.112723,1
484579261,-0.064971,-0.066976,0.129859,-0.122455,0.007874,-0.024387,1
484612595,-0.042713,-0.11848,0.061962,-0.112102,-0.092124,0.063691,1
484645929,-0.121575,-0.01565,0.114453,-0.100063,-0.21931,-0.002264,1
484679263,-0.150637,0.098528,0.09314,-0.036436,-0.340922,0.026128,1
484712597,-0.128354,0.079384,0.046659,-0.059145,-0.43049,0.179231,1
484745931,-0.03012,-0.023949,0.14713,0.117738,-0.305465,0.069659,1
484779265,-0.100961,0.1303,0.107209,-0.132833,-0.466424,0.023163,1
484812599,-0.071814,0.12106,0.137393,0.137158,-0.070339,0.064896,1
484845933,-0.031678,0.08368,0.100909,0.046417,-0.077284,0.066178,1
484879267,0.008985,0.141741,0.025818,-0.024071,-0.146761,0.140406,1
484912601,0.239575,0.098756,0.020583,-0.085567,-0.044533,0.257028,1
484945935,0.192149,0.24463,-0.039311,-0.127954,0.036935,0.208072,1
484979269,0.122249,0.166292,0.033771,-0.03354,-0.003613,0.096657,1
485012603,-0.001837,-0.04037,0.111692,-0.070059,-0.020489,0.00886,1
485045937,-0.149291,-0.010887,0.063802,-0.08152,-0.0939,-0.146496,1
485079271,0.011117,0.077207,0.099075,-0.00916,-0.008477,-0.384701,1
485112605,0.097179,0.033981,0.048095,0.065407,0.111867,-0.318501,1
485145939,-0.027773,0.008594,0.042103,0.144786,0.100808,-0.260743,1
485179273,-0.074881,-0.057568,0.097257,0.205323,0.091026,-0.264485,1
485212607,-0.063326,-0.024946,0.101192,0.316041,0.045911,-0.196372,1
485245941,-0.019706,0.07558,0.068832,0.344537,0.162995,0.010677,1
485279275,0.050915,0.047066,0.052742,0.365964,0.120783,0.055472,1
485312609,0.039778,0.069255,0.08305,0.385128,-0.020966,0.05097,1
485345943,0.069664,0.075103,0.059747,0.293871,-0.164797,0.00291,1
485379277,0.033096,0.082717,0.058411,0.1278,-0.272081,0.067654,1
485412611,-0.050181,0.060952,0.10006,-0.002295,-0.276899,-0.070287,1
485445945,-0.086569,0.000838,0.134707,-0.017048,-0.146711,-0.167568,1
485479279,-0.012979,0.071886,0.086376,0.083228,-0.008295,-0.239524,1
485512613,0.104042,0.114285,0.049538,0.13965,0.093824,-0.225515,1
485545947,0.142835,0.148895,0.087755,0.023494,0.024263,-0.254279,1
485579281,0.147865,0.01557,0.082593,-0.054271,0.114671,-0.11947,1
485612615,-0.023311,0.103088,0.008207,-0.099289,0.137699,-0.019352,1
485645949,-0.053204,0.082257,0.092186,-0.088398,0.156834,-0.092946,1
485679283,-0.120891,0.051564,0.031584,-0.102541,0.159525,-0.13203,1
485712617,-0.017573,0.09815,0.03041,-0.039289,0.189592,-0.150381,1
485745951,0.158028,0.116399,0.089929,-0.12055,0.168915,0.005252,1
485779285,0.002182,0.067315,0.089705,-0.218332,0.031434,0.15113,1
485812619,-0.201276,-0.015912,0.127066,-0.035369,-0.089194,0.117359,1
485845953,-0.246051,-0.104173,0.172687,-0.036632,-0.344243,0.060651,1
485879287,-0.266022,-0.009244,0.140324,-0.085835,-0.534209,-0.003334,1
485912621,-0.187792,0.136486,0.077319,-0.175,-0.493332,-0.112833,1
485945955,-0.043538,0.137918,0.079077,-0.113121,-0.227212,-0.143352,1
485979289,0.157831,0.036018,0.066146,0.043936,-0.023927,-0.168997,1
486012623,0.198253,0.085743,0.01806,0.147376,0.151882,-0.108889,1
486045957,0.059374,0.183345,0.05959,0.068188,0.171976,0.114734,1
486079291,-0.080264,0.087568,0.105362,0.025806,0.136418,-0.124833,1
486112625,-0.124472,0.019692,0.134223,-0.12125,0.158654,-0.215388,1
486145959,-0.055893,-0.048145,0.076074,-0.300248,0.068482,-0.263298,1
486179293,-0.038187,0.00072,0.059123,-0.11878,0.185572,-0.275742,1
486212627,-0.008231,0.117198,0.040055,0.012191,0.052581,-0.303864,1
486245961,0.080638,0.022066,0.037165,-0.007444,-0.094007,-0.088888,1
486279295,0.042057,0.004885,0.008002,-0.036985,-0.362047,0.113022,1
486312629,0.062545,-0.009783,0.029693,-0.038506,-0.35511,0.097841,1
486345963,0.026094,-0.05123,0.085691,-0.045172,-0.384581,0.130376,1
486379297,-0.168385,-0.017193,0.101093,-0.083231,-0.517487,0.025382,1
486412631,-0.271306,-0.06287,0.123388,0.002479,-0.378016,-0.036545,1
486445965,-0.194942,-0.028879,0.134737,-0.00894,-0.317037,-0.008269,1
486479299,-0.05025,-0.008611,0.066596,-0.059482,-0.230336,-0.077016,1
486512633,0.022016,0.004933,0.070584,0.021446,-0.08642,0.000866,1
486545967,-0.023821,0.022871,0.034151,0.093358,0.029554,0.03336,1
486579301,-0.103089,0.01028,0.085587,0.104462,0.051893,0.013357,1
486612635,-0.158643,-0.066823,0.10287,0.0666,0.020872,0.025833,1
486645969,-0.183037,-0.06472,0.111849,0.032919,-0.022183,-0.042626,1
486679303,-0.190683,-0.058361,0.107128,0.00028,-0.013889,-0.193445,1
486712637,-0.121457,0.014696,0.092897,-0.019491,0.010568,-0.246904,1
486745971,-0.052102,0.020743,0.056602,0.04045,0.055008,-0.192723,1
486779305,-0.024004,0.069113,0.090109,0.030151,0.093042,-0.104057,1
486812639,-0.054521,0.070483,0.095535,0.039795,0.039044,0.016106,1
486845973,-0.092663,-0.038536,0.091475,0.055044,-0.097589,0.031296,1
486879307,-0.117188,-0.056399,0.090737,-0.00794,-0.253905,-0.015307,1
486912641,-0.094309,0.070406,0.054358,-0.104184,-0.304554,0.034094,1
486945975,-0.004897,0.064357,0.05249,-0.151965,-0.30174,0.018073,1
486979309,0.021268,0.020834,0.058258,-0.134657,-0.198747,0.021563,1
487012643,-0.00491,0.024423,0.060846,-0.101405,-0.108025,0.018794,1
487045977,-0.094687,0.03673,0.083098,-0.060277,-0.099758,-0.144831,1
487079311,-0.1021,-0.05041,0.101174,0.019299,-0.142465,-0.208219,1
487112645,-0.124095,-0.05373,0.058743,0.109745,-0.206024,-0.11682,1
487145979,-0.117216,-0.008142,0.111304,0.111798,-0.250143,-0.009519,1
487179313,-0.157673,0.038339,0.110309,0.08417,-0.366808,0.099811,1
487212647,-0.050503,0.112791,0.044101,0.081283,-0.434697,0.172662,1
487245981,0.068647,-0.055601,0.102522,0.096529,-0.352903,0.13971,1
487279315,-0.101603,0.000438,0.12479,-0.049897,-0.101939,0.075583,1
487312649,-0.111174,0.114993,0.077949,-0.127982,0.20807,0.013159,1
487345983,-0.015828,0.128,0.076231,-0.077985,0.521487,-0.186956,1
487379317,0.018488,0.134424,0.079787,0.044688,0.665539,-0.399443,1
487412651,-0.015943,0.117109,0.074108,0.008007,0.599356,-0.461618,1
487445985,0.032202,-0.018842,0.105897,-0.094263,0.308494,-0.418555,1
487479319,-0.060529,0.057948,0.096824,-0.136874,0.082747,-0.295589,1
487512653,-0.134132,0.016884,0.089391,-0.096105,-0.176394,-0.124689,1
487545987,-0.054408,-0.003959,0.112473,-0.08636,-0.406726,0.082754,1
487579321,0.055602,0.035218,0.027263,-0.119823,-0.456902,0.237032,1
487612655,0.20492,0.126974,0.000427,-0.056205,-0.437526,0.396873,1
487645989,0.21839,0.081005,0.061245,0.029788,-0.177777,0.326215,1
487679323,0.017967,0.045746,0.070514,-0.131776,-0.049441,0.219345,1
487712657,-0.104264,0.133572,0.067121,-0.108676,0.038232,0.030348,1
487745991,-0.163082,0.099959,0.119984,-0.112155,0.175924,-0.186067,1
487779325,-0.182565,0.002037,0.186567,-0.145887,0.237021,-0.385186,1
487812659,-0.206775,0.07775,0.141237,-0.051007,0.310906,-0.408172,1
487845993,-0.142857,0.114612,0.121817,0.14767,0.350846,-0.25543,1
487879327,0.067843,0.008108,0.055799,0.227077,0.226,-0.12455,1
487912661,0.127961,0.01852,0.057636,0.198128,0.05506,0.045383,1
487945995,0.068576,0.092925,0.030361,0.167137,-0.115752,0.192781,1
487979329,0.12203,0.025227,0.063471,0.132951,-0.165955,0.130847,1
488012663,0.126961,0.042688,0.050017,0.116587,-0.28389,0.088632,1
488045997,0.042657,0.154828,0.053078,0.066998,-0.358462,0.033722,1
488079331,-0.006127,0.14654,0.085654,0.063458,-0.231152,-0.094525,1
488112665,0.007969,0.136658,0.07331,-0.017125,-0.094331,-0.210748,1
488145999,0.081681,0.096386,0.046294,-0.054623,0.052465,-0.24944,1
488179333,0.103745,0.093578,0.011622,0.001172,0.270299,-0.30856,1
488212667,0.100781,0.025804,0.025911,0.16027,0.351112,-0.278313,1
488246001,-0.037363,-0.053557,0.082081,0.031181,0.266982,-0.160686,1
488279335,-0.118414,0.010861,0.113008,0.013846,0.086418,-0.017125,1
488312669,-0.075004,-0.069485,0.107188,-0.035118,-0.13907,0.066682,1
488346003,-0.060961,-0.021542,0.066941,-0.100807,-0.291482,0.037355,1
488379337,-0.049558,0.088985,0.071658,-0.090697,-0.41063,-0.030324,1
488412671,-0.050067,0.08173,0.081875,-0.064922,-0.478204,-0.062544,1
488446005,-0.044083,0.061404,0.059772,-0.104967,-0.439262,-0.002311,1
488479339,-0.085978,0.0811,0.091573,-0.128943,-0.366405,0.101112,1
488512673,-0.065694,0.054339,0.037371,0.088482,-0.222105,0.153399,1
488546007,-0.054315,-0.027579,0.098773,0.005293,-0.13845,0.131333,1
488579341,-0.197941,-0.045602,0.145096,0.098982,-0.03948,0.147887,1
488612675,-0.323058,-0.0147,0.155682,0.120707,0.046881,0.095566,1
488646009,-0.247796,-0.034598,0.119661,-0.057416,0.060232,0.023694,1
488679343,-0.04653,-0.037653,0.10218,0.048857,0.249058,-0.18236,1
488712677,0.071906,0.03096,0.051662,0.078231,0.206542,-0.226137,1
488746011,0.109619,0.155909,0.023612,-0.025607,0.067708,-0.236819,1
488779345,0.174896,0.073822,0.030372,-0.065241,0.000118,-0.249572,1
488812679,0.133107,0.035647,0.01942,-0.031505,-0.04229,-0.209248,1
488846013,0.051937,0.01596,0.040993,0.010656,-0.048699,-0.080707,1
488879347,-0.021784,0.062947,0.032392,0.064089,-0.069009,-0.059894,1
488912681,-0.08098,-0.023138,0.098556,0.046079,-0.060644,0.09285,1
488946015,-0.14033,-0.118933,0.098518,0.035204,-0.089729,0.010537,1
488979349,-0.276337,-0.096093,0.109139,0.027397,-0.080731,-0.063069,1
489012683,-0.246972,-0.054719,0.093884,-0.051678,-0.036104,-0.020304,1
489046017,-0.160553,-0.108275,0.111,-0.054678,0.093142,-0.117879,1
489079351,-0.144989,-0.065578,0.060091,0.102829,0.100977,-0.180473,1
489112685,-0.14533,-0.049786,0.081148,0.138504,0.018712,-0.093196,1
489146019,-0.166183,-0.047327,0.092326,0.01513,-0.0851,-0.104248,1
489179353,-0.170679,0.029007,0.07694,-0.127169,-0.291488,-0.192169,1
489212687,-0.10322,0.048471,0.091632,-0.211557,-0.444599,-0.127431,1
489246021,-0.01565,0.090797,0.075848,-0.181552,-0.409338,-0.001728,1
489279355,-0.00951,0.110224,0.075537,-0.209213,-0.450542,0.106071,1
489312689,0.002515,0.123613,0.074803,-0.139229,-0.216847,0.143659,1
489346023,0.01429,0.240098,0.069368,-0.151353,-0.240526,0.116147,1
489379357,0.104436,0.209012,0.01035,-0.07,-0.056479,-0.029071,1
489412691,0.103691,0.140789,0.016987,-0.019572,0.228584,-0.15206,1
489446025,0.002745,0.1374,0.078049,-0.036941,0.459506,-0.282556,1
489479359,-0.112154,0.098038,0.117993,-0.129648,0.55515,-0.296181,1
489512693,-0.089508,0.048646,0.106834,-0.12206,0.439027,-0.30987,1
489546027,-0.046345,0.085751,0.10084,-0.076081,0.193542,-0.197598,1
489579361,-0.023067,0.092024,0.075022,-0.144337,-0.136809,-0.116608,1
489612695,0.02324,0.05312,0.074586,-0.227976,-0.485585,0.084505,1
489646029,-0.024461,0.01281,0.047101,-0.287096,-0.438542,0.100309,1
489679363,-0.051559,0.062824,0.08773,-0.180799,-0.344717,0.143244,1
489712697,-0.039418,0.044822,0.088418,-0.144416,-0.276136,0.047905,1
489746031,-0.006562,0.061779,0.059977,0.165117,-0.056124,0.029821,1
489779365,-0.018905,0.043355,0.091165,0.03697,-0.072214,-0.044867,1
489812699,-0.023922,0.036782,0.092371,-0.155064,-0.045033,-0.040977,1
489846033,-0.07295,-0.039587,0.083368,0.037182,0.069464,-0.279421,1
489879367,-0.089589,-0.041026,0.097254,0.007252,0.179234,-0.20124,1
489912701,-0.055814,-0.040773,0.067011,0.004347,0.125712,-0.094682,1
489946035,0.064274,-0.00535,0.06994,0.026252,0.020942,-0.090782,1
489979369,0.068143,0.004262,0.083345,0.054539,-0.103516,-0.03121,1
490012703,0.012993,0.047572,0.057254,0.101094,-0.138834,-0.013848,1
490046037,0.018999,0.085993,0.066364,0.11655,-0.129745,-0.09944,1
490079371,0.045659,0.104337,0.084257,0.304653,-0.055559,-0.110615,1
490112705,0.101052,0.098296,0.057158,0.320987,-0.007752,-0.109183,1
490146039,0.074571,0.122413,0.061051,0.257807,0.042686,-0.109589,1
490179373,0.079447,0.115626,0.030458,0.306647,0.053362,-0.159475,1
490212707,0.122658,0.076291,0.015123,0.384965,0.116414,-0.22528,1
490246041,0.081832,0.030628,0.049034,0.197567,0.017586,-0.221401,1
490279375,-0.033487,-0.018803,0.063353,0.095966,-0.020916,-0.109053,1
490312709,-0.169879,-0.015088,0.092394,0.052569,-0.079613,-0.063456,1
490346043,-0.197222,-0.082317,0.100129,0.034254,-0.127677,-0.021667,1
490379377,-0.202807,-0.096047,0.092008,-0.035469,-0.174518,0.033077,1
490412711,-0.1832,-0.069455,0.064528,-0.131844,-0.259461,0.057316,1
490446045,-0.14318,-0.087475,0.093736,-0.228696,-0.250581,0.062532,1
490479379,-0.133732,-0.09331,0.071777,-0.242824,-0.18061,0.013494,1
490512713,-0.143072,-0.032061,0.068394,-0.214284,-0.079984,0.000157,1
490546047,-0.090824,-0.038045,0.103733,-0.16394,-0.070718,0.035444,1
490579381,-0.148163,-0.045975,0.103115,-0.163567,-0.082856,0.024513,1
490612715,-0.12121,0.000786,0.083421,-0.166654,-0.124316,-0.01368,1
490646049,-0.101752,-0.029528,0.063824,-0.092713,-0.139028,-0.056726,1
490679383,-0.119321,-0.016978,0.110355,-0.029695,-0.173079,-0.097462,1
490712717,-0.138174,0.003806,0.099166,0.047036,-0.213283,-0.024305,1
490746051,-0.11463,0.071007,0.092527,0.01181,-0.256128,0.058205,1
490779385,-0.060507,0.035952,0.081337,0.030707,-0.220059,0.044487,1
490812719,-0.068468,0.105815,0.091134,0.104866,-0.173696,0.028222,1
490846053,-0.068613,0.030106,0.071896,0.14062,-0.128801,-0.01497,1
490879387,-0.06159,0.001795,0.112145,0.121093,-0.163129,0.002489,1
490912721,-0.140944,0.012363,0.096224,0.100685,-0.145561,-0.081976,1
490946055,-0.196843,-0.016436,0.122448,0.026212,-0.13136,-0.039109,1
490979389,-0.175817,-0.03859,0.064506,-0.011978,-0.098539,-0.063714,1
491012723,-0.054972,-0.033173,0.068344,0.0155,0.021345,-0.120454,1
491046057,0.043322,0.037767,0.061333,-0.062037,-0.014204,-0.182844,1
491079391,0.122477,0.21644,0.002152,-0.099725,0.056631,-0.234315,1
491112725,0.209111,0.260919,0.010364,-0.067479,0.169262,-0.122022,1
491146059,0.160117,0.086298,0.04726,0.010489,0.091967,-0.113344,1
491179393,-0.010216,0.054503,0.067444,0.112914,-0.069496,-0.044394,1
491212727,-0.12662,0.061087,0.09974,0.132785,-0.219352,0.032983,1
491246061,-0.167491,-0.028098,0.117688,0.078631,-0.330117,0.103322,1
491279395,-0.132504,-0.046816,0.10781,0.003,-0.402313,0.139524,1
491312729,-0.057413,0.011373,0.077062,-0.035453,-0.284767,0.085803,1
491346063,-0.026612,-0.024072,0.09384,0.006527,-0.113631,-0.001294,1
491379397,-0.065003,-0.005399,0.07214,0.017514,0.068503,-0.118454,1
491412731,-0.052177,0.039314,0.1288,-0.032178,0.211884,-0.139238,1
491446065,-0.027251,0.025847,0.08378,-0.054941,0.26574,-0.128228,1
491479399,0.010221,0.073207,0.033597,-0.032708,0.270009,-0.199067,1
491512733,0.096717,0.060652,0.070228,-0.09094,0.222106,-0.145358,1
491546067,0.026993,0.059928,0.088249,-0.167473,0.10498,-0.130626,1
491579401,-0.056212,0.097886,0.030876,-0.131532,0.030708,-0.116448,1
491612735,-0.034222,0.055384,0.133435,-0.12282,-0.00415,-0.012424,1
491646069,0.016525,0.088637,-0.119424,-0.037781,-0.119399,0.006035,1
491679403,-0.074487,-0.023902,0.367885,0.017878,-0.117708,0.095932,1
491712737,-0.245538,-0.113827,0.080259,0.056784,-0.198052,-0.176301,1
491746071,-0.146264,0.043993,0.014105,0.132104,-0.158943,-0.279609,1
491779405,0.091997,0.158833,-0.096553,0.107285,-0.093124,-0.184518,1
491812739,0.06093,0.319927,0.256425,0.0261,0.043723,0.238781,1
491846073,0.063298,0.181554,0.048912,0.139073,0.091975,0.333791,1
491879407,0.09574,-0.080056,0.048317,0.34745,0.185887,0.040628,1
491912741,-0.128401,-0.091201,-0.105925,0.095937,0.171496,-0.165387,1
491946075,-0.279742,0.049521,0.188589,-0.1035,0.089712,-0.11173,1
491979409,-0.020966,-0.113117,0.071328,-0.188149,0.02667,-0.373358,1
492012743,-0.053935,-0.18089,0.051408,-0.266878,0.073383,-0.311529,1
492046077,-0.039253,0.163921,0.212345,-0.433265,0.120274,0.22403,1
492079411,-0.130585,0.097747,0.178889,-0.410179,-0.066139,0.099006,1
492112745,-0.096953,-0.195902,0.066391,0.087835,-0.071825,-0.151808,1
492146079,-0.036609,-0.007978,-0.031243,0.00711,-0.060314,-0.487227,1
492179413,0.172651,0.294809,-0.240695,-0.271295,-0.216989,-0.422305,1
492212747,0.225328,0.127454,0.309047,-0.304446,-0.400991,-0.023041,1
492246081,-0.123311,-0.101316,0.156128,-0.010387,-0.279982,0.227169,1
492279415,-0.307533,-0.021115,0.095583,0.174593,-0.283939,0.562163,1
492312749,-0.240008,-0.167298,0.11985,0.11383,-0.350898,0.771155,1
492346083,0.078075,0.02603,-0.130046,-0.045593,-0.350897,0.113763,1
492379417,0.147907,0.425881,0.013462,-0.252921,-0.054119,-0.584445,1
492412751,0.11975,0.280492,0.128102,-0.422587,0.200222,-0.681681,1
492446085,0.082429,0.162457,-0.062119,-0.368709,0.384891,-0.612938,1
492479419,-0.040251,0.290532,0.326408,-0.020401,0.428484,-0.13838,1
492512753,-0.445576,-0.193325,0.408659,0.958928,0.57016,-0.14672,1
492546087,-0.505434,-0.430282,-0.186492,1.31298,0.207504,-0.166685,1
492579421,-0.219855,-0.268287,0.057173,0.81662,-0.43954,0.02161,1
492612755,0.118853,-0.190248,-0.098455,-0.16097,-0.854346,0.028081,1
492646089,0.247536,0.229794,-0.099985,-0.537855,-1.064871,0.398749,1
492679423,0.071104,0.221328,0.460216,-0.267263,-0.535018,0.670048,1
492712757,-0.268719,-0.084584,0.131637,0.533449,0.043894,0.524085,1
492746091,-0.222955,-0.111506,-0.019814,0.746758,0.07938,-0.110517,1
492779425,-0.124944,-0.013356,-0.033222,0.649741,0.054495,-0.511379,1
492812759,-0.014832,0.149166,0.023394,-0.063315,-0.300555,-0.658746,1
492846093,0.148014,0.009367,0.136871,-0.629088,-0.623258,-0.427145,1
492879427,0.01079,-0.008363,0.083956,-0.723942,-0.129249,0.109645,1
492912761,-0.030685,0.315619,0.020311,-0.554703,0.497344,0.301044,1
492946095,-0.151966,0.169492,0.33423,-0.518294,0.571855,0.403507,1
492979429,0.007475,-0.106403,0.054604,-0.170159,0.290476,0.079232,1
493012763,0.065701,-0.110281,0.035349,-0.259767,0.227329,-0.379495,1
493046097,-0.09187,-0.083375,-0.023878,-0.663042,0.060722,-0.730436,1
493079431,-0.062315,0.196795,-0.029029,-0.779896,-0.068099,-0.789773,1
493112765,0.044318,0.378952,0.154725,-0.414902,0.134986,-0.379444,1
493146099,0.060966,0.242732,0.239277,-0.200442,0.193193,0.300385,1
493179433,-0.091185,-0.085849,0.212019,0.043898,0.039896,0.617271,1
493212767,-0.147549,-0.114609,0.077918,0.254471,-0.138224,0.3211,1
493246101,-0.088256,0.083844,-0.140323,0.196462,-0.201271,0.044843,1
493279435,0.106077,-0.033864,0.195001,0.189334,-0.503859,0.078752,1
493312769,0.007822,-0.191867,0.033783,-0.044465,-0.455818,-0.139173,1
493346103,0.08612,0.369899,-0.046165,-0.314286,-0.237335,-0.524487,1
493379437,0.180529,0.792608,0.00018,-0.410614,0.420866,-0.602836,1
493412771,0.169933,0.308977,0.222918,0.061126,1.069973,-0.365862,1
493446105,0.023922,-0.017035,0.10525,0.756584,0.963762,0.022069,1
493479439,-0.210699,0.121345,0.208228,1.220147,0.63003,0.204265,1
493512773,-0.371459,-0.193909,0.131371,1.121871,0.367697,-0.010251,1
493546107,-0.232746,-0.441664,-0.075576,0.525266,-0.554723,-0.048694,1
493579441,-0.217915,-0.291077,0.122935,0.149918,-1.086808,0.093463,1
493612775,-0.237432,-0.262415,0.102807,-0.159692,-1.153105,0.254139,1
493646109,-0.057803,-0.096058,0.011651,-0.469957,-1.302702,0.540862,1
493679443,0.186796,0.337164,-0.038856,-0.512424,-0.981904,0.497746,1
493712777,0.324318,0.3995,0.047538,-0.373062,-0.256003,0.641266,1
493746111,0.22349,0.115273,0.137125,0.051674,0.187084,0.178648,1
493779445,-0.206588,0.093702,0.134953,0.109576,0.087712,-0.604585,1
493812779,-0.355975,0.01037,0.033511,-0.09914,0.130119,-0.880043,1
493846113,-0.217575,-0.282279,0.083469,-0.440461,0.168466,-0.914488,1
493879447,0.117103,-0.018571,-0.044587,-0.541268,0.105009,-0.609621,1
493912781,0.228037,0.333957,0.022161,-0.429317,0.13553,-0.042589,1
493946115,0.047468,0.053395,0.231851,-0.239659,0.318967,0.549091,1
493979449,-0.045074,-0.382184,0.168363,0.330418,0.459893,0.463776,1
494012783,-0.382491,-0.174839,0.10304,0.469037,0.372783,0.12592,1
494046117,-0.231478,-0.030704,-0.075923,0.510826,-0.024715,0.165984,1
494079451,0.105672,-0.104281,0.054972,0.166212,-0.369952,-0.261024,1
494112785,0.246682,0.065008,-0.082524,-0.161478,-0.557329,-0.636958,1
494146119,0.147768,0.470794,-0.04819,-0.285296,-0.354473,-0.79175,1
494179453,-0.132499,0.215247,0.248307,-0.069012,-0.067912,-0.556654,1
494212787,-0.311628,-0.156399,0.189294,0.554155,0.247056,0.030795,1
494246121,-0.231424,-0.114161,0.108868,1.211228,0.365713,0.329243,1
494279455,-0.099857,-0.028018,-0.012039,1.021749,0.057432,0.362265,1
494312789,0.088445,-0.11192,-0.065619,0.467592,-0.399169,0.283404,1
494346123,0.112771,-0.100385,-0.010373,-0.020501,-0.740701,0.21753,1
494379457,-0.113706,-0.069934,0.196827,-0.188833,-0.841305,0.239417,1
494412791,-0.302694,-0.048491,0.127988,-0.161829,-0.556001,0.097756,1
494446125,-0.245918,0.031794,0.095449,-0.013919,-0.376245,0.044882,1
494479459,-0.126715,-0.021867,0.066234,-0.057164,-0.1004,-0.001948,1
494512793,-0.069495,-0.189564,0.076823,-0.241534,-0.033257,-0.119062,1
494546127,-0.033773,-0.030923,0.032752,-0.538347,0.001566,-0.175205,1
494579461,-0.141803,0.128459,0.213223,-0.582475,0.075435,-0.090548,1
494612795,-0.067584,0.135007,0.073844,-0.47726,0.305056,-0.057647,1
494646129,0.028816,0.122918,0.055428,-0.535571,0.462144,0.010655,1
494679463,0.006683,0.042598,0.013608,-0.396231,0.472062,-0.043877,1
494712797,-0.005365,0.047042,-0.066727,-0.324637,0.291323,-0.258579,1
494746131,0.014485,0.206647,0.198651,-0.397838,-0.052989,-0.08755,1
494779465,-0.07182,0.281504,0.175022,-0.510286,-0.302932,-0.103225,1
494812799,0.078185,0.160538,0.045324,-0.449142,-0.056203,-0.046726,1
494846133,0.132652,0.202155,-0.001865,-0.097742,0.170993,-0.039501,1
494879467,0.095486,0.283043,-0.019265,0.214193,0.417851,-0.4361,1
494912801,0.2261,0.237844,0.010189,0.078856,0.224628,-0.417679,1
494946135,0.167472,0.149285,0.213171,-0.0381,0.089019,-0.077926,1
494979469,-0.061236,-0.056882,0.024644,0.087666,0.107268,0.026773,1
495012803,-0.285023,-0.085147,0.179831,0.208649,0.066064,0.036824,1
495046137,-0.338736,-0.00441,0.04365,0.35927,0.018586,-0.138975,1
495079471,-0.093681,-0.06279,-0.00376,0.201376,0.077667,-0.231826,1
495112805,0.026104,-0.091724,0.044998,-0.061506,-0.17274,-0.038766,1
495146139,-0.039622,0.256216,0.208577,-0.14461,-0.136524,0.004882,1
495179473,-0.122657,0.089448,0.150264,0.086709,0.038672,-0.113171,1
495212807,-0.146767,-0.259209,0.061238,0.386657,-0.056578,-0.151767,1
495246141,-0.208708,-0.148359,-0.012381,0.399718,-0.167799,-0.250475,1
495279475,-0.036007,-0.001563,0.01068,0.050804,-0.437558,-0.079947,1
495312809,-0.066183,-0.102695,0.203156,-0.168378,-0.745164,0.240327,1
495346143,-0.095009,-0.089718,0.046141,-0.031737,-0.610626,0.40929,1
495379477,-0.049545,0.051722,0.073523,-0.005154,-0.450374,0.53097,1
495412811,-0.141428,-0.008049,0.237919,0.152114,-0.483442,0.309012,1
495446145,-0.146774,-0.09186,0.125936,0.127001,-0.315738,-0.105707,1
495479479,0.014847,0.201506,-0.006739,-0.531001,-0.148134,-0.01272,1
495512813,0.124986,0.356805,0.21914,-0.100403,0.081628,-0.319933,1
495546147,0.394258,0.328789,-0.055103,0.922095,0.294617,-0.488653,1
495579481,0.548825,0.211469,-0.047997,0.74171,0.021222,-0.580166,1
495612815,0.218118,0.146538,-0.052452,0.122261,-0.198987,-0.483728,1
495646149,0.17663,0.316103,-0.187439,-0.461956,-0.095884,0.208282,1
495679483,-0.035721,0.23897,0.36421,-0.14347,0.26607,0.132695,1
495712817,-0.280164,-0.355302,0.130332,0.379694,0.66936,0.077247,1
495746151,-0.484109,-0.489039,0.244266,0.54802,0.744626,-0.023984,1
495779485,-0.580164,-0.47393,-0.008453,0.577835,0.531519,-0.036778,1
495812819,-0.246972,-0.271332,0.03523,0.31043,0.076677,-0.198828,1
495846153,0.197711,-0.260718,-0.130338,-0.467527,-0.200035,-0.201485,1
495879487,0.200169,0.303467,0.096271,-1.213585,-0.176625,-0.295543,1
495912821,0.192765,0.575608,0.072628,-1.256218,-0.033564,-0.14769,1
495946155,0.268245,0.373083,0.11856,-0.868268,0.031848,-0.095921,1
495979489,0.275916,0.163685,0.101068,-0.30922,0.136092,-0.088018,1
496012823,0.050387,0.001356,-0.085565,0.215433,0.06875,-0.202557,1
496046157,-0.200471,-0.206617,-0.035662,0.293892,-0.120351,-0.357058,1
496079491,-0.362958,-0.292674,0.084106,0.031673,-0.498254,-0.345236,1
496112825,-0.342981,-0.237529,0.162312,-0.243729,-0.680065,0.066287,1
496146159,-0.305192,-0.190902,0.192888,-0.257447,-0.783547,0.391581,1
496179493,-0.259622,-0.081338,0.102675,0.023592,-0.583249,0.470175,1
496212827,-0.262341,-0.062803,0.192309,0.443478,-0.271316,0.528919,1
496246161,-0.334843,-0.160252,0.061381,0.709921,-0.08637,0.262783,1
496279495,-0.353834,-0.226258,0.064169,0.81714,-0.165225,0.102819,1
496312829,-0.439436,-0.270859,0.201081,0.525084,-0.270577,0.143569,1
496346163,-0.480147,-0.204143,0.21237,0.035396,-0.517167,0.09209,1
496379497,-0.339647,0.066794,0.156305,-0.026309,-0.481052,0.030979,1
496412831,-0.059212,0.216967,0.07865,0.194954,-0.209939,0.029098,1
496446165,0.081671,0.258649,0.027619,0.165908,-0.119248,-0.138702,1
496479499,0.142147,0.320232,-0.025116,0.023602,0.062717,-0.257913,1
496512833,0.310111,0.12559,-0.046903,-0.15311,0.220712,-0.295267,1
496546167,0.381966,0.190658,-0.053398,-0.191824,0.159076,-0.189572,1
496579501,0.393482,0.126266,-0.050971,-0.220139,-0.057155,-0.055491,1
496612835,0.082539,-0.014151,0.057359,-0.30282,-0.262693,-0.150908,1
496646169,-0.186534,-0.092716,0.073821,-0.338846,-0.419075,0.040093,1
496679503,-0.291865,-0.148991,0.180772,-0.21017,-0.38473,-0.026807,1
496712837,-0.242991,-0.082994,0.092709,-0.194636,-0.374199,0.197501,1
496746171,-0.097215,-0.057132,0.07796,-0.091481,-0.52454,0.177142,1
496779505,-0.035217,-0.241069,0.091114,-0.071375,-0.584837,0.032659,1
496812839,-0.094385,-0.266984,0.126541,-0.159193,-0.460152,-0.034728,1
496846173,-0.199573,-0.087792,0.111317,-0.136945,-0.197875,-0.130001,1
496879507,-0.211182,-0.031596,0.115283,0.036077,0.213139,-0.15563,1
496912841,-0.135826,0.144989,0.117498,0.34203,0.512291,-0.231942,1
496946175,0.00916,0.190822,-0.005734,0.430662,0.697968,-0.195727,1
496979509,0.182518,0.083369,0.007807,0.319189,0.546358,-0.146441,1
497012843,0.129643,0.142822,0.014926,0.157158,0.372903,-0.223187,1
497046177,0.06566,0.275482,-0.044204,0.140673,0.287663,-0.155432,1
497079511,0.08109,0.167479,0.050283,0.115901,0.208225,0.044714,1
497112845,-0.056126,0.112498,0.077142,0.137361,0.078892,0.099016,1
497146179,-0.176645,-0.009032,0.142074,0.050195,-0.043321,0.134266,1
497179513,-0.264184,-0.117523,0.127407,-0.055915,-0.16593,0.134144,1
497212847,-0.191655,-0.016275,0.130713,-0.165437,-0.205873,0.049917,1
497246181,-0.08191,0.033312,0.129061,-0.323243,-0.180801,-0.032067,1
497279515,-0.03757,0.117795,0.081659,-0.387566,-0.08156,-0.072911,1
497312849,0.086164,0.188606,0.053438,-0.342233,0.075861,-0.257957,1
497346183,0.127161,0.354962,0.056206,-0.354894,0.202553,-0.397972,1
497379517,0.228462,0.321255,0.023444,-0.302424,0.30988,-0.384029,1
497412851,0.374586,0.206265,0.04177,-0.178283,0.443688,-0.397941,1
497446185,0.287534,0.176711,-0.037712,-0.009854,0.455491,-0.317131,1
497479519,0.29632,0.153566,-0.052808,0.074325,0.314559,-0.325629,1
497512853,-0.011064,0.000387,0.330712,0.092024,0.154855,0.190052,1
497546187,-0.336714,-0.431347,-0.069711,0.519741,-0.236478,0.219925,1
497579521,-0.45485,-0.382442,0.123747,0.348466,-0.682659,0.152084,1
497612855,-0.398655,-0.449381,0.150685,0.020026,-1.032448,0.166836,1
497646189,-0.310408,-0.244873,-0.004011,-0.055591,-0.991065,0.029561,1
497679523,-0.006517,0.107307,0.053374,-0.243607,-0.509722,-0.141521,1
497712857,0.157718,0.45621,0.083556,-0.500515,-0.045426,0.077703,1
497746191,0.129528,0.391575,0.355309,-0.284013,0.27198,0.247933,1
497779525,0.197375,0.015142,-0.129792,0.354455,0.561274,-0.218974,1
497812859,0.196754,0.26116,-0.007076,0.304357,0.526689,-0.640001,1
497846193,0.089319,0.0893,-0.080464,-0.142236,0.127668,-0.852563,1
497879527,0.229046,-0.003232,-0.18367,-0.296964,0.031676,-0.728321,1
497912861,0.133835,0.196568,0.102143,-0.321541,0.029676,-0.160211,1
497946195,0.013392,0.224469,0.222049,-0.386132,-0.09598,0.575922,1
497979529,-0.230092,-0.037767,0.27745,0.119758,0.040111,0.961928,1
498012863,-0.300832,-0.291615,0.018968,0.477368,-0.113682,0.700193,1
498046197,-0.446446,-0.081226,0.09993,0.239971,-0.401879,0.002777,1
498079531,-0.217584,-0.156539,0.04877,-0.013029,-0.553487,-0.259146,1
498112865,0.115321,-0.201246,0.004574,-0.106648,-0.540743,-0.359461,1
498146199,0.165123,0.07003,0.005756,-0.328414,-0.264912,-0.462777,1
498179533,-0.130272,0.20269,0.119743,-0.397503,0.156319,-0.051643,1
498212867,-0.195269,0.123107,0.257128,-0.041478,0.456493,0.117872,1
498246201,-0.139202,0.051811,0.149351,0.384945,0.659258,0.164265,1
498279535,0.013338,0.126618,-0.001059,0.485804,0.4608,-0.00141,1
498312869,0.133129,0.009877,-0.016252,0.163473,0.009356,-0.136374,1
498346203,0.168386,-0.050405,0.011252,-0.008392,-0.126417,-0.220341,1
498379537,-0.003937,-0.01901,0.028986,0.028201,-0.162317,-0.344675,1
498412871,-0.164701,0.024398,0.105754,0.035275,-0.181925,-0.364821,1
498446205,-0.19732,-0.110131,0.131798,0.124721,-0.181056,-0.044952,1
498479539,-0.165807,-0.135475,0.079247,0.305381,-0.173036,0.104903,1
498512873,-0.025233,-0.073404,0.0743,0.293758,-0.167576,0.23737,1
498546207,0.053375,-0.028921,0.029106,0.157804,-0.262285,0.276115,1
498579541,0.003614,0.01553,0.011827,-0.014683,-0.305782,0.093502,1
498612875,-0.043997,0.005351,0.041012,-0.147357,-0.282509,-0.051427,1
498646209,-0.075202,0.003473,0.098099,-0.188182,-0.270414,-0.126163,1
498679543,-0.12248,-0.012173,0.095994,-0.188339,-0.230128,-0.114796,1
498712877,-0.171759,0.005826,0.105241,-0.234179,-0.150095,-0.040209,1
498746211,-0.209124,-0.004595,0.080633,-0.246866,-0.11735,-0.026398,1
498779545,-0.139809,-0.036226,0.123217,-0.232088,-0.039103,-0.03222,1
498812879,-0.108528,0.040856,0.042786,-0.206345,0.024619,-0.149257,1
498846213,-0.05941,0.069542,0.040346,-0.247217,0.080854,-0.107653,1
498879547,-0.05134,0.035357,0.093507,-0.20497,0.111561,-0.078529,1
498912881,-0.071766,0.026958,0.10391,-0.188028,0.108598,-0.056939,1
498946215,-0.069044,0.063764,0.072098,-0.151393,0.115677,-0.113923,1
498979549,0.005799,0.096605,0.080492,-0.119761,0.136806,-0.124074,1
499012883,0.064428,0.275203,0.028449,-0.093357,0.065332,-0.089559,1
499046217,0.12369,0.157871,0.103083,-0.101926,0.064083,0.034391,1
499079551,0.050643,-0.086769,0.101364,0.011493,-0.09411,-0.001611,1
499112885,-0.124778,-0.068111,0.086246,0.05111,-0.135507,0.073556,1
499146219,-0.219058,-0.06989,0.080984,-0.036829,-0.22903,0.140915,1
499179553,-0.080296,-0.089728,-0.027507,-0.113854,-0.263572,-0.046975,1
499212887,0.053372,0.092292,0.195121,-0.155342,-0.165725,0.039902,1
499246221,0.082891,0.057297,0.142535,-0.107767,-0.006897,0.140728,1
499279555,-0.043366,-0.080486,0.04941,0.062345,0.042604,-0.007988,1
499312889,-0.137091,-0.079686,0.101027,0.17588,-0.003201,-0.142249,1
499346223,-0.193568,-0.026629,0.086926,0.136096,-0.24873,-0.180118,1
499379557,-0.107209,-0.185159,0.122804,0.159241,-0.503714,-0.1965,1
499412891,-0.001086,-0.201479,-0.115622,-0.079946,-0.529242,-0.434077,1
499446225,0.152919,0.240683,-0.007343,-0.3814,-0.106995,-0.158953,1
499479559,0.021663,0.271451,0.477348,-0.246199,0.171486,0.580378,1
499512893,0.179522,0.069198,-0.017593,0.173696,0.423939,-0.116439,1
499546227,0.233996,0.182994,0.019651,0.401142,0.572961,-0.271936,1
499579561,0.308059,0.252745,-0.115536,0.483843,0.564498,-0.426661,1
499612895,0.333231,0.116102,-0.06899,0.290247,0.441859,-0.737152,1
499646229,0.362671,0.000535,-0.320059,-0.106937,0.309869,-0.867929,1
499679563,0.100051,0.094538,0.650928,-0.265326,0.346158,0.030544,1
499712897,-0.361791,-0.00154,0.047326,-0.139315,0.163764,0.034554,1
499746231,-0.592172,-0.035885,0.14456,0.284707,0.140717,0.091446,1
499779565,-0.436775,-0.19939,0.090144,0.185027,-0.04176,0.313652,1
499812899,-0.295959,-0.19934,0.057896,-0.048639,-0.354407,0.261391,1
499846233,-0.037071,-0.209882,-0.0116,-0.206791,-0.513643,0.265479,1
499879567,0.015924,-0.028644,0.182443,-0.438365,-0.695569,0.322497,1
499912901,-0.137352,-0.021524,0.112372,-0.409293,-0.585928,0.15413,1
499946235,-0.149598,0.010364,0.093753,-0.080493,-0.384453,0.028355,1
499979569,-0.033184,0.000617,0.062008,0.114005,-0.266345,-0.015244,1
500012903,-0.000746,0.037483,0.050822,0.086301,-0.346049,-0.056847,1
500046237,0.097093,-0.00697,-0.001245,-0.10818,-0.478253,-0.101537,1
500079571,0.170877,-0.052074,0.061728,-0.114656,-0.52502,-0.079148,1
500112905,0.005529,-0.08136,0.070391,0.093439,-0.34115,0.011573,1
500146239,-0.065322,-0.052011,0.061066,0.255776,-0.174835,0.056772,1
500179573,-0.064745,-0.000827,0.057254,0.294163,-0.09279,0.046299,1
500212907,0.016086,-0.051975,0.061356,0.286359,-0.14742,-0.032967,1
500246241,0.051451,-0.082525,0.080028,0.240879,-0.159554,-0.049963,1
500279575,0.034284,0.015561,0.028181,0.212828,-0.145322,-0.165945,1
500312909,0.049566,0.056365,0.051235,0.197859,-0.049611,-0.308853,1
500346243,0.075715,0.006967,0.103381,0.176113,0.086233,-0.280968,1
500379577,0.087613,0.011291,0.052155,0.160314,0.240933,-0.339938,1
500412911,0.050423,0.033491,0.076486,0.131133,0.378915,-0.341313,1
500446245,-0.013482,-0.012685,0.073517,0.131885,0.488075,-0.30477,1
500479579,-0.060079,0.045298,0.123766,0.16101,0.387566,-0.240303,1
500512913,-0.068582,0.07313,0.073275,0.103758,0.239553,-0.139272,1
500546247,0.02295,0.031919,0.049121,0.022044,-0.008519,-0.069325,1
500579581,0.133442,-0.109254,0.050015,0.062648,-0.204052,0.001085,1
500612915,0.12132,-0.030348,0.063962,0.051728,-0.366204,0.031816,1
500646249,-0.065439,0.057348,0.030998,0.008811,-0.450696,0.133426,1
500679583,-0.114432,-0.000302,0.092345,-0.001534,-0.386766,0.070057,1
500712917,-0.078901,-0.155362,0.113612,-0.01805,-0.261579,0.000715,1
500746251,-0.126831,-0.120649,0.103702,-0.001506,-0.078214,-0.066271,1
500779585,-0.207317,-0.000491,0.055369,-0.072712,0.075475,-0.106824,1
500812919,-0.167698,0.004201,0.119626,-0.133001,0.180211,-0.077984,1
500846253,-0.118478,-0.004101,0.079408,-0.147249,0.246187,-0.053455,1
500879587,-0.02297,0.064658,0.072755,-0.144068,0.271165,-0.10178,1
500912921,-0.012382,0.132974,0.016052,-0.205013,0.170074,0.013109,1
500946255,-0.003087,0.129456,0.068167,-0.23453,0.072066,0.080151,1
500979589,-0.052813,0.03441,0.099523,-0.212032,-0.026527,0.075854,1
501012923,-0.258023,-0.022018,0.146133,-0.265505,-0.151392,0.078318,1
501046257,-0.428568,-0.040471,0.148594,-0.259871,-0.200899,0.094828,1
501079591,-0.296979,-0.004578,0.128757,-0.270373,-0.14439,0.13437,1
501112925,-0.121731,0.004535,0.094788,-0.31664,-0.139184,0.154558,1
501146259,-0.009901,0.059775,0.080601,-0.296962,-0.088065,0.074404,1
501179593,-0.006328,0.142163,0.048086,-0.346102,-0.038729,0.025619,1
501212927,-0.041392,0.187672,0.045034,-0.357432,0.053382,-0.026277,1
501246261,-0.018783,0.063855,0.06161,-0.287752,0.171735,-0.102443,1
501279595,-0.048012,-0.04047,0.131537,-0.283678,0.200713,-0.090844,1
501312929,-0.116764,0.005036,0.11084,-0.252351,0.196693,-0.073763,1
501346263,-0.141172,0.07046,0.091648,-0.219182,0.155276,-0.056963,1
501379597,-0.123828,0.063696,0.11477,-0.139097,0.07796,-0.078881,1
501412931,-0.086031,0.041686,0.104789,-0.097363,0.073845,-0.083732,1
501446265,-0.038805,0.036349,0.124217,-0.023377,0.061919,-0.150828,1
501479599,-0.070899,0.10092,0.123369,0.016998,0.058826,-0.260864,1
501512933,-0.152418,0.164464,0.128761,0.079636,0.072714,-0.227114,1
501546267,-0.090289,-0.052425,0.175535,0.104455,0.112605,-0.258815,1
501579601,-0.180296,-0.047025,0.135816,0.070673,0.236337,-0.41224,1
501612935,-0.119979,0.133344,0.086213,0.156854,0.456725,-0.483569,1
501646269,0.173671,0.008372,0.055999,0.207762,0.508091,-0.372156,1
501679603,0.308812,-0.02952,-0.052039,0.12176,0.358108,-0.244048,1
501712937,0.305456,-0.082173,-0.079815,0.132103,0.145352,-0.101431,1
501746271,0.231673,-0.042121,0.018218,0.196321,-0.040917,-0.01262,1
501779605,0.073467,0.036484,0.06673,0.063724,-0.286862,0.0636,1
501812939,-0.14113,-0.00438,0.004549,0.031783,-0.544546,0.144967,1
501846273,-0.182901,0.113297,0.106557,-0.040846,-0.734261,0.39435,1
501879607,-0.077666,0.0574,0.013298,-0.241161,-0.935203,0.583975,1
501912941,0.16019,0.068802,0.08882,-0.27018,-0.883213,0.686572,1
501946275,0.22482,-0.060922,0.122087,-0.114534,-0.556772,0.353869,1
501979609,0.208848,-0.199854,0.011238,0.01442,-0.397034,-0.046439,1
502012943,-0.062575,-0.030535,0.022889,0.061588,-0.307237,-0.123559,1
502046277,-0.182298,-0.047073,0.020526,-0.061536,-0.288483,-0.151718,1
502079611,-0.16643,-0.168262,0.120966,0.019524,-0.172042,-0.223149,1
502112945,-0.180525,-0.259572,0.089268,-0.004345,0.056277,-0.364292,1
502146279,-0.148547,-0.046078,0.100355,-0.086834,0.359765,-0.418872,1
502179613,0.022509,0.104038,-0.043783,0.062142,0.60332,-0.291183,1
502212947,0.22866,-0.007341,0.322685,0.365633,0.580326,-0.042705,1
502246281,0.383978,-0.134549,0.083391,0.635798,0.11094,-0.113837,1
502279615,-0.055027,-0.262567,-0.112801,0.454956,-0.538159,0.084467,1
502312949,0.053084,0.153847,0.093221,0.000213,-0.955849,0.129803,1
502346283,-0.228632,-0.284189,-0.018842,-0.134664,-1.111345,0.067438,1
502379617,-0.121957,0.20443,0.015643,-0.034886,-0.852961,0.023647,1
502412951,-0.146152,0.041237,0.196091,-0.22156,-0.381492,0.176093,1
502446285,-0.093815,-0.070529,0.387171,-0.026793,0.111868,0.314907,1
502479619,0.007558,-0.182198,-0.086038,0.731568,0.253644,-0.124374,1
502512953,0.03458,-0.268684,-0.015284,0.726079,0.253195,-0.452359,1
502546287,0.088201,-0.353843,0.012691,0.195622,-0.027728,-0.541527,1
502579621,-0.06215,-0.096198,-0.045934,-0.096795,-0.177962,-0.579146,1
502612955,0.116386,0.166708,-0.048302,-0.402077,-0.072188,-0.095977,1
502646289,-0.00635,0.232516,0.424325,-0.82972,0.023852,0.408278,1
502679623,0.130485,0.018525,-0.001823,-0.062411,0.294375,0.411023,1
502712957,0.110844,-0.009445,-0.087153,0.475141,0.481571,0.112199,1
502746291,0.131387,-0.039028,-0.104539,0.39502,0.121705,-0.120981,1
502779625,0.035423,-0.041594,-0.023224,-0.001348,-0.303754,-0.057602,1
502812959,-0.044732,0.032832,0.038675,-0.420992,-0.543595,-0.281022,1
502846293,-0.131333,0.109628,-0.0454,-0.831174,-0.313737,-0.368299,1
502879627,-0.184362,0.090771,0.117343,-0.753311,0.164165,-0.371605,1
502912961,-0.186158,-0.039126,0.183104,-0.140346,0.640991,-0.548878,1
502946295,-0.335289,-0.013379,0.135038,0.574082,0.777044,-0.507711,1
502979629,-0.220474,-0.092111,0.11196,0.627384,0.542724,-0.182076,1
503012963,-0.190695,-0.219377,0.092954,0.254498,-0.047499,0.060538,1
503046297,-0.170057,-0.269859,0.055727,-0.112271,-0.629115,0.334259,1
503079631,-0.093793,-0.190081,0.099727,-0.335177,-1.079927,0.445785,1
503112965,-0.12975,-0.145925,0.115602,-0.463532,-1.454286,0.517937,1
503146299,-0.234476,-0.064115,0.103903,0.079476,-0.956495,0.410367,1
503179633,-0.171173,0.04341,0.104541,0.040408,-0.620338,0.136191,1
503212967,-0.042118,0.017288,0.08307,-0.129652,-0.343161,0.069027,1
503246301,0.021497,-0.046751,0.101763,-0.292794,0.032446,-0.142297,1
503279635,-0.051633,0.135094,0.058043,-0.273884,0.391149,-0.408298,1
503312969,-0.00943,0.122175,0.050295,-0.140789,0.694176,-0.565471,1
503346303,0.064995,-0.102922,0.057131,-0.070302,0.809824,-0.513575,1
503379637,0.105009,-0.144104,0.11181,-0.078928,0.718303,-0.284902,1
503412971,0.051844,0.053797,0.120493,-0.094974,0.520079,-0.117831,1
503446305,0.012451,0.210088,0.015952,-0.173433,0.19103,-0.07377,1
503479639,0.112573,0.11937,-0.044848,-0.205066,-0.036847,-0.027021,1
503512973,0.175846,0.010227,0.052829,-0.107581,-0.114613,-0.008039,1
503546307,0.12472,0.000764,0.083927,-0.032905,-0.223476,0.042576,1
503579641,0.038892,0.057104,0.012928,-0.066405,-0.432387,0.170101,1
503612975,-0.006751,0.092718,0.062524,-0.098982,-0.550339,0.295444,1
503646309,-0.039506,0.044347,0.105193,-0.156254,-0.535007,0.226892,1
503679643,-0.064622,0.002984,0.019535,-0.163439,-0.465008,0.168837,1
503712977,-0.114049,-0.011354,0.088474,-0.16628,-0.309665,-0.023639,1
503746311,-0.185444,-0.119269,0.104795,-0.163056,-0.165536,-0.174915,1
503779645,-0.260495,-0.152393,0.124642,-0.034883,-0.005991,-0.274796,1
503812979,-0.378925,-0.137004,0.118132,0.111175,0.049202,-0.254451,1
503846313,-0.406363,-0.239286,0.127004,0.157491,-0.014118,-0.149444,1
503879647,-0.255107,-0.301964,0.142875,0.156094,-0.134703,-0.103,1
503912981,-0.188712,-0.246451,0.103448,0.139733,-0.283833,0.238628,1
503946315,-0.122629,-0.247519,0.090464,0.036902,-0.364762,0.189591,1
503979649,0.018617,-0.267416,0.121254,0.059847,-0.343798,0.066942,1
504012983,-0.161153,-0.034843,-0.013661,0.090373,-0.304825,0.158108,1
504046317,0.008408,-0.005252,0.03749,0.003025,-0.290227,0.22341,1
504079651,0.203235,0.071006,-0.025985,-0.088831,-0.293155,0.121555,1
504112985,0.105862,-0.004764,-0.015243,-0.085308,-0.264402,-0.040522,1
504146319,-0.072361,-0.079094,0.097106,-0.11701,-0.181064,-0.056474,1
504179653,-0.245543,0.038573,0.025836,-0.075069,-0.038847,-0.201814,1
504212987,-0.277713,-0.151894,0.170115,-0.003047,0.123022,-0.209828,1
504246321,-0.465277,-0.206167,0.253305,0.079165,0.240708,-0.074,1
504279655,-0.350218,0.142547,0.159536,0.202384,0.180191,-0.068448,1
504312989,0.077859,0.205879,-0.007054,0.304092,0.12443,-0.027659,1
504346323,0.45074,-0.006002,-0.032945,0.118494,-0.002568,0.000914,1
504379657,0.557014,0.045175,-0.041834,0.041961,-0.053308,-0.059832,1
504412991,0.53688,0.274583,-0.006242,0.0172,0.058572,0.055374,1
504446325,0.472993,0.191354,-0.014321,-0.131804,0.047796,0.074762,1
504479659,0.208669,0.169499,0.079451,-0.211873,0.082432,-0.052491,1
504512993,-0.037594,0.25467,0.138342,-0.212403,0.093532,-0.217589,1
504546327,0.089855,0.186096,0.020555,-0.227141,0.118053,-0.314808,1
504579661,0.181508,-0.012353,0.051523,-0.224616,0.211577,-0.388993,1
504612995,0.043741,0.022114,0.03282,-0.174248,0.28491,-0.307181,1
504646329,-0.017697,0.11164,0.096313,-0.102318,0.343212,-0.279867,1
504679663,0.005397,0.014391,0.094128,-0.072125,0.369829,-0.180383,1
504712997,-0.067815,-0.11733,0.027389,-0.050552,0.239821,-0.067729,1
504746331,-0.156945,-0.076292,0.106117,-0.089574,0.083894,-0.095232,1
504779665,-0.132112,-0.10568,0.125335,-0.111862,-0.077638,-0.043844,1
504812999,-0.072937,-0.042753,0.071997,-0.091105,-0.199462,0.036896,1
504846333,-0.183833,-0.050292,0.056399,-0.096734,-0.298819,0.02236,1
504879667,-0.174183,-0.098332,0.114328,-0.104298,-0.374466,0.027269,1
504913001,-0.091193,-0.058371,0.102017,-0.110189,-0.342982,0.030602,1
504946335,-0.002875,-0.07932,0.077343,-0.051715,-0.222926,0.01871,1
504979669,-0.024966,-0.09235,0.078231,0.077883,-0.160889,0.000302,1
505013003,0.039013,0.039236,0.08837,0.14492,-0.115559,-0.04123,1
505046337,0.127571,-0.009231,-0.008717,0.10491,-0.172208,0.002604,1
505079671,0.086844,-0.05097,0.067369,0.052683,-0.188349,-0.005975,1
505113005,-0.009924,0.011404,0.064538,0.155743,-0.111863,0.012426,1
505146339,0.096176,-0.02299,0.094389,0.196528,-0.071002,0.117529,1
505179673,0.038346,-0.078753,0.128376,0.077274,-0.123851,-0.027501,1
505213007,-0.149851,-0.087863,0.048119,0.041716,-0.087036,-0.151529,1
505246341,-0.113387,0.026861,0.108776,0.018316,0.027171,-0.321691,1
505279675,0.008007,0.109879,0.030392,0.047023,0.224824,-0.328192,1
505313009,0.159832,-0.028788,0.125817,0.079257,0.354927,-0.18301,1
505346343,0.004383,-0.1192,0.243752,0.026534,0.420979,-0.120298,1
505379677,-0.148269,0.16185,0.067139,0.04068,0.492682,-0.238851,1
505413011,-0.005536,0.364702,-0.015615,0.118834,0.492659,-0.386615,1
505446345,0.572063,0.209174,-0.07714,0.069944,0.439056,-0.386834,1
505479679,0.745482,-0.011211,-0.00533,-0.025894,0.40928,0.024035,1
505513013,0.447596,-0.089076,-0.031065,-0.093886,0.171472,0.150442,1
505546347,-0.012116,0.256197,0.117071,-0.051138,-0.076117,0.185151,1
505579681,-0.284298,0.219215,0.064369,-0.740712,-0.220604,0.093324,1
505613015,-0.217254,0.063448,0.036088,-0.395516,-0.1151,-0.052483,1
505646349,0.032106,-0.130471,0.124222,-0.33647,-0.009778,-0.081334,1
505679683,-0.054883,-0.109498,0.161454,-0.345785,-0.026734,-0.040191,1
505713017,-0.083796,0.044297,-0.04109,-0.457809,-0.099728,-0.011379,1
505746351,-0.07809,-0.011061,0.037358,-0.438484,-0.114454,0.021705,1
505779685,-0.068646,-0.028339,0.156477,-0.267602,-0.082192,0.014851,1
505813019,-0.035457,-0.124729,0.082361,-0.123194,-0.091603,0.034073,1
505846353,-0.08511,-0.026127,-0.019227,-0.087856,-0.178727,-0.020933,1
505879687,-0.115422,0.078925,0.091397,-0.145941,-0.284526,-0.04898,1
505913021,-0.104851,-0.005333,0.165323,-0.106873,-0.370005,0.087645,1
505946355,-0.00969,0.02083,-0.004649,0.025354,-0.398811,0.083449,1
505979689,0.114867,-0.022709,0.016769,0.10646,-0.327056,0.010633,1
506013023,0.112698,0.008183,0.063256,0.040408,-0.280755,0.066752,1
506046357,0.016456,0.038202,0.023022,0.100076,-0.225576,0.190805,1
506079691,-0.058796,-0.051916,0.093055,0.049701,-0.221821,0.137223,1
506113025,-0.108712,-0.154304,0.082791,-0.073629,-0.268409,0.015026,1
506146359,-0.156518,-0.191149,0.128444,-0.135403,-0.178284,-0.049348,1
506179693,-0.149213,-0.068359,0.250705,-0.074329,-0.054133,-0.162678,1
506213027,-0.355114,0.19825,0.103957,0.041498,0.029687,-0.269691,1
506246361,-0.259032,0.04133,0.055308,0.110253,0.156377,-0.216176,1
506279695,-0.085719,-0.122575,0.127817,0.076797,0.104811,-0.205756,1
506313029,-0.006985,-0.150631,0.027276,0.06094,0.112252,-0.093104,1
506346363,0.173073,-0.109676,-0.011099,0.010645,0.092725,0.009994,1
506379697,0.303056,0.021837,-0.049218,-0.126072,0.00011,0.000304,1
506413031,0.458571,0.055411,-0.08067,-0.104331,-0.096439,-0.075608,1
506446365,0.310609,0.006026,-0.00133,-0.045826,-0.16993,-0.06638,1
506479699,-0.040254,0.05978,0.098182,-0.043112,-0.288941,-0.068871,1
506513033,-0.250119,-0.108582,0.106139,0.027578,-0.334793,-0.058775,1
506546367,-0.338451,-0.171198,0.188991,0.090598,-0.314519,-0.057864,1
506579701,-0.421735,-0.184007,0.214536,0.140284,-0.240333,-0.07821,1
506613035,-0.340474,-0.146812,0.133945,0.225982,-0.047936,-0.084116,1
506646369,-0.097956,-0.112334,0.051225,0.270501,0.150963,-0.026,1
506679703,0.017581,-0.086845,0.047032,0.320352,0.281561,-0.065657,1
506713037,0.012361,-0.10505,0.030095,0.247369,0.320936,-0.048038,1
506746371,-0.08988,-0.091808,0.058586,-0.114475,0.012529,-0.02714,1
506779705,-0.134612,-0.04538,0.105959,-0.136093,-0.192219,0.00031,1
506813039,-0.119093,-0.050987,0.081304,-0.208699,-0.358859,-0.011724,1
506846373,-0.128039,-0.04511,0.135996,-0.260109,-0.512608,0.098489,1
506879707,-0.126227,-0.013677,0.07022,-0.286975,-0.586046,0.074553,1
506913041,-0.052171,-0.034742,0.060941,-0.286892,-0.482851,0.022343,1
506946375,-0.016552,-0.016274,0.052208,-0.270823,-0.260934,-0.057857,1
506979709,0.011114,-0.003372,0.073744,-0.15871,-0.013926,-0.113618,1
507013043,0.16693,-0.066321,0.144825,-0.040199,0.130951,-0.179577,1
507046377,0.599945,-0.157694,0.122272,0.085062,0.188022,-0.140326,1
507079711,0.156855,-0.116918,0.004239,0.111647,-0.018611,0.023794,1
507113045,0.187014,0.240108,0.156718,-0.071233,-0.232185,0.004242,1
507146379,-0.935845,0.156269,0.141002,-0.129796,-0.33428,0.121416,1
507179713,-0.839215,0.028902,0.043591,-0.073246,-0.275682,-0.004001,1
507213047,-0.263731,-0.360293,0.2215,-0.03783,-0.157896,-0.151389,1
507246381,0.048673,-0.126023,-0.055971,-0.006381,0.008757,-0.18215,1
507279715,0.14319,0.274997,-0.08856,0.114898,0.16635,-0.171479,1
507313049,0.321114,0.125235,-0.034964,0.124077,0.113493,-0.211627,1
507346383,0.177669,-0.003069,-0.030924,0.02134,-0.073237,-0.118176,1
507379717,-0.085857,-0.071071,0.127048,-0.052103,-0.186974,0.00037,1
507413051,-0.286587,0.008649,0.199358,-0.11194,-0.218175,0.072485,1
507446385,-0.256769,0.050198,0.073367,-0.132057,-0.02868,0.096463,1
507479719,-0.025658,-0.136851,0.116034,-0.077819,0.005565,0.080844,1
507513053,0.009878,-0.031482,0.027258,-0.026691,0.047218,-0.106842,1
507546387,0.088494,0.045863,-0.02874,-0.170676,-0.101527,-0.018679,1
507579721,-0.006201,-0.109742,0.151179,-0.185502,-0.236847,0.089727,1
507613055,-0.104227,-0.295572,0.164056,-0.302872,-0.239462,0.089142,1
507646389,-0.259721,-0.214713,0.265838,-0.335182,-0.184527,0.101754,1
507679723,-0.424261,0.252311,-0.087436,-0.182761,-0.062445,0.005129,1
507713057,-0.059485,0.227441,-0.052872,-0.111263,-0.001607,-0.241686,1
507746391,0.061668,0.127144,-0.069868,-0.13789,0.020889,-0.342714,1
507779725,0.129269,0.1388,0.090278,-0.125403,0.125572,-0.353498,1
507813059,0.199409,0.101538,0.047326,-0.064987,0.218174,-0.276481,1
507846393,-0.070463,0.008085,0.106379,0.060803,0.22133,-0.078507,1
507879727,-0.009284,-0.053843,0.109862,0.165787,0.19508,0.019432,1
507913061,0.084641,-0.05471,0.031775,0.154134,0.030706,-0.065771,1
507946395,0.183723,-0.040745,-0.028513,0.083489,-0.053933,-0.238426,1
507979729,0.106012,-0.066587,-0.009676,0.09947,-0.08843,-0.217369,1
508013063,0.01155,0.01559,0.065346,0.106398,-0.095192,-0.110203,1
508046397,-0.140873,-0.021367,0.130476,0.111964,-0.112687,0.088905,1
508079731,-0.006703,-0.082147,0.062781,0.155367,-0.2079,0.085787,1
508113065,0.065772,-0.035642,0.071373,0.068695,-0.275133,-0.021726,1
508146399,0.116711,0.040739,-0.016183,0.048055,-0.290655,-0.113381,1
508179733,0.06034,0.068064,0.007136,-0.01275,-0.349479,-0.14089,1
508213067,-0.096401,-0.035765,0.092529,-0.0404,-0.329917,-0.084219,1
508246401,-0.24246,-0.063213,0.118988,-0.034886,-0.231243,-0.014637,1
508279735,-0.122244,-0.071161,0.03288,-0.090184,-0.103565,-0.07483,1
508313069,0.024231,-0.052369,0.05509,-0.093845,0.017917,-0.178324,1
508346403,-0.036611,-0.041324,0.0441,-0.071744,0.117331,-0.323446,1
508379737,-0.052429,0.052136,0.089336,-0.138914,0.252823,-0.255532,1
508413071,0.09643,0.040608,0.00487,-0.049473,0.30167,-0.070975,1
508446405,0.133093,0.021605,0.041975,0.036294,0.104754,-0.047542,1
508479739,-0.091655,0.013659,0.046866,-0.028031,-0.304332,0.044914,1
508513073,-0.05352,0.002351,0.06831,-0.125529,-0.56546,0.083714,1
508546407,-0.08264,-0.070741,0.038071,-0.210455,-0.648394,0.069866,1
508579741,-0.061339,-0.110042,0.070531,-0.125756,-0.465645,0.034884,1
508613075,-0.165082,-0.079597,0.068177,0.053141,-0.216724,-0.032311,1
508646409,-0.129773,-0.135047,0.111485,0.146227,-0.093665,-0.045435,1
508679743,0.054828,-0.054179,0.128032,0.082205,-0.033742,6.7e-05,1
508713077,0.208668,0.113951,0.024738,0.087568,-0.046631,-0.063897,1
508746411,0.224959,0.077677,-0.038014,0.078544,-0.025718,-0.121741,1
508779745,0.27256,0.093233,0.020912,0.047184,-0.064499,-0.156808,1
508813079,0.219909,-0.102441,0.058805,-0.020441,-0.108589,-0.08552,1
508846413,-0.142608,0.092352,0.001863,-0.124918,-0.13165,0.099934,1
508879747,-0.16603,-0.057314,0.108082,-0.132741,-0.185967,0.290245,1
508913081,-0.114984,-0.134077,0.112385,-0.237912,-0.242368,0.082863,1
508946415,-0.121756,-0.100746,0.06502,-0.258528,-0.150752,-0.114682,1
508979749,-0.305919,0.070385,0.07232,-0.171514,0.054184,-0.289232,1
509013083,-0.156397,0.052262,0.096955,-0.148625,0.209301,-0.336398,1
509046417,-0.018256,0.029122,0.03862,-0.103019,0.305313,-0.209038,1
509079751,0.173694,-0.063855,0.134256,-0.045834,0.248715,-0.140371,1
509113085,0.073501,0.176167,-0.02337,-0.009351,0.130644,-0.088393,1
509146419,0.091223,0.048644,-0.033644,-0.040144,0.035405,-0.088865,1
509179753,-0.038685,-0.161513,0.070398,-0.039937,-0.086072,-0.011888,1
509213087,-0.15902,-0.178957,0.17579,-0.03126,-0.145141,0.080279,1
509246421,-0.300006,-0.091248,0.108482,-0.063251,-0.194351,0.159372,1
509279755,-0.134863,-0.083767,0.07973,-0.123487,-0.195526,0.179026,1
509313089,-0.041511,-0.035828,0.199484,-0.04726,-0.140268,0.067153,1
509346423,-0.285247,-0.098419,0.24242,0.016006,-0.057276,0.003911,1
509379757,-0.045517,0.254293,0.022515,0.011377,-0.042019,0.012095,1
509413091,0.338875,0.016495,0.016687,0.003097,-0.084479,-0.018743,1
509446425,0.584886,0.047085,-0.0296,0.019144,-0.109697,-0.082569,1
509479759,0.468611,0.082868,-0.023201,-0.040791,-0.076867,-0.077187,1
509513093,0.17279,0.240339,-0.020896,-0.019122,-0.019811,-0.105928,1
509546427,0.071626,0.151825,0.053092,0.011577,0.074504,-0.074135,1
509579761,0.036436,-0.042143,0.10132,0.022272,0.07403,-0.033496,1
509613095,-0.095948,0.056611,0.112302,0.048271,0.110989,-0.03895,1
509646429,-0.089929,0.041836,0.05005,-0.003377,0.108583,-0.040592,1
509679763,-0.038824,0.084289,0.055285,-0.014816,0.142872,-0.089755,1
509713097,-0.089048,0.066813,0.059388,-0.048649,0.167457,-0.120052,1
509746431,-0.140083,0.043523,0.000558,-0.059967,0.18626,-0.088281,1
509779765,0.015191,-0.016304,0.073918,-0.047994,0.178782,0.017329,1
509813099,0.029733,-0.041534,0.106565,-0.119469,0.112122,0.019882,1
509846433,-0.012924,0.106301,0.093568,-0.209646,0.059706,0.006623,1
