sep=,
DeviceTag:,23_Right
FirmwareVersion:,2.2.1
AppVersion:,2023.6.0
SyncStatus:,Synced
OutputRate:,30Hz
FilterProfile:,General
Measurement Mode:,Sensor fusion Mode - Complete(Quaternion)
StartTime: ,2026-05-01_14:55:52_441 AEST
© Movella Technologies B. V. 2005-2026

PacketCounter,SampleTimeFine,Quat_W,Quat_X,Quat_Y,Quat_Z,FreeAcc_X,FreeAcc_Y,FreeAcc_Z
1,3174829664,-0.352635,0.360758,0.474867,-0.721112,0.457883,0.390839,0.146711
2,3174862998,-0.356185,0.355668,0.481948,-0.717187,0.511402,0.095940,0.281717
3,3174896332,-0.356295,0.349080,0.489843,-0.715017,0.330463,-0.108635,0.404724
4,3174929666,-0.354182,0.342876,0.496573,-0.714427,0.099152,-0.048785,0.476007
5,3174963000,-0.352476,0.339952,0.500293,-0.714072,-0.060487,-0.010669,0.369592
6,3174996334,-0.352723,0.341613,0.500523,-0.712995,-0.076882,-0.062283,0.133718
7,3175029668,-0.354712,0.346546,0.498269,-0.711204,0.035891,-0.261706,0.004467
8,3175063002,-0.357174,0.351974,0.495157,-0.709478,0.083669,-0.404213,-0.083143
9,3175096336,-0.359305,0.356005,0.492363,-0.708335,0.085589,-0.403073,-0.072425
10,3175129670,-0.361310,0.358563,0.490054,-0.707625,0.063425,-0.248083,-0.060966
11,3175163004,-0.363600,0.360547,0.487876,-0.706949,0.025704,-0.119781,0.043260
12,3175196338,-0.366231,0.362871,0.485520,-0.706023,-0.003293,-0.065202,0.162084
13,3175229672,-0.368541,0.365348,0.483176,-0.705151,-0.086109,-0.157304,0.182545
14,3175263006,-0.370265,0.367391,0.480883,-0.704754,-0.161311,-0.196516,0.108638
15,3175296340,-0.371953,0.368900,0.478363,-0.704793,-0.257282,-0.178191,0.082948
16,3175329674,-0.374468,0.370799,0.474887,-0.704814,-0.274677,-0.072945,-0.196287
17,3175363008,-0.378130,0.374056,0.470240,-0.704253,-0.148034,0.149035,-0.189429
18,3175396342,-0.382897,0.378857,0.465108,-0.702518,0.018232,0.294298,0.004179
19,3175429676,-0.388125,0.384122,0.460567,-0.699776,0.144795,0.426448,0.004648
20,3175463010,-0.393444,0.389642,0.457197,-0.695954,0.299583,0.633092,0.078406
21,3175496344,-0.398225,0.394765,0.456116,-0.691039,0.320867,0.413686,0.074686
22,3175529678,-0.401568,0.397643,0.458350,-0.685957,0.280553,0.114518,0.086645
23,3175563012,-0.403269,0.397566,0.463682,-0.681405,0.110283,-0.061990,-0.076151
24,3175596346,-0.404083,0.395691,0.470726,-0.677172,-0.040951,-0.209831,-0.211519
25,3175629680,-0.405014,0.393186,0.477811,-0.673101,-0.215692,-0.356726,0.029286
26,3175663014,-0.407129,0.390919,0.483254,-0.669248,-0.343251,-0.439708,0.457038
27,3175696348,-0.411481,0.389970,0.485701,-0.665357,-0.280617,-0.253753,0.504793
28,3175729682,-0.418302,0.391935,0.484699,-0.660664,-0.252456,-0.409368,0.613956
29,3175763016,-0.426393,0.395758,0.481157,-0.655783,-0.034494,-0.604372,0.700644
30,3175796350,-0.434198,0.399877,0.476232,-0.651746,0.083820,-0.669908,0.112619
31,3175829684,-0.440224,0.403604,0.471134,-0.649106,0.161698,-0.732790,-0.335998
32,3175863018,-0.443967,0.406265,0.467007,-0.647877,0.246999,-0.736572,-0.277624
33,3175896352,-0.445929,0.406907,0.464490,-0.647936,0.269108,-0.743635,-0.104310
34,3175929686,-0.447018,0.405563,0.463230,-0.648930,0.392765,-0.561837,-0.060074
35,3175963020,-0.447912,0.403889,0.461958,-0.650264,0.389965,-0.328252,-0.055363
36,3175996354,-0.448974,0.403992,0.459290,-0.651356,0.354098,-0.177445,0.011887
37,3176029688,-0.449723,0.406174,0.455085,-0.652433,0.404964,-0.171859,0.042908
38,3176063022,-0.449753,0.409099,0.450195,-0.653975,0.436241,-0.096097,0.124891
39,3176096356,-0.449214,0.412031,0.445095,-0.655993,0.281366,0.105653,0.169059
40,3176129690,-0.448596,0.415691,0.439415,-0.657933,0.149706,0.268362,0.078817
41,3176163024,-0.448956,0.420723,0.432406,-0.659131,-0.098783,0.473401,0.167325
42,3176196358,-0.451353,0.427365,0.423273,-0.659150,-0.301462,0.466942,-0.034142
43,3176229692,-0.456296,0.434601,0.411555,-0.658436,-0.918096,0.615030,-0.088195
44,3176263026,-0.465583,0.444712,0.395681,-0.654904,-0.578145,0.960133,-0.919763
45,3176296360,-0.477559,0.458745,0.377480,-0.647301,-0.656946,0.570997,-0.935524
46,3176329694,-0.488594,0.471601,0.361896,-0.638670,-0.452347,0.413780,-0.427946
47,3176363028,-0.496302,0.478380,0.354465,-0.631816,-0.142469,0.485358,0.924310
48,3176396362,-0.500503,0.477099,0.356704,-0.628200,-0.466868,0.822884,1.273960
49,3176429696,-0.502553,0.471300,0.364128,-0.626679,-0.657184,0.808445,0.488316
50,3176463030,-0.504314,0.465990,0.371232,-0.625066,-0.783241,0.800690,-0.184555
51,3176496364,-0.507438,0.463913,0.375121,-0.621752,-0.748417,0.597189,-0.475219
52,3176529698,-0.512165,0.464540,0.376083,-0.616806,-0.560741,0.318936,-0.403615
53,3176563032,-0.517508,0.465954,0.376326,-0.611105,-0.378437,0.100833,0.082204
54,3176596366,-0.522220,0.466132,0.377947,-0.605939,-0.446168,-0.055568,0.383506
55,3176629700,-0.525890,0.464816,0.381106,-0.601783,-0.391237,-0.083572,0.495848
56,3176663034,-0.529169,0.463023,0.384241,-0.598287,-0.381005,-0.173344,0.074061
57,3176696368,-0.531977,0.461464,0.386518,-0.595529,-0.217974,-0.318437,-0.253663
58,3176729702,-0.533858,0.459650,0.388609,-0.593885,-0.151377,-0.400283,-0.175131
59,3176763036,-0.535244,0.457980,0.390271,-0.592837,-0.179007,-0.371464,-0.000195
60,3176796370,-0.536950,0.457605,0.390187,-0.591638,-0.042661,-0.250633,0.152130
61,3176829704,-0.538798,0.458685,0.388476,-0.590246,0.010578,-0.376472,0.344055
62,3176863038,-0.539382,0.459421,0.386908,-0.590170,-0.010824,-0.512698,0.199632
63,3176896372,-0.538193,0.459385,0.385911,-0.591933,-0.084445,-0.364150,-0.115514
64,3176929706,-0.535890,0.459718,0.384330,-0.594786,-0.076187,-0.146492,-0.209842
65,3176963040,-0.532974,0.460821,0.381934,-0.598087,0.005755,-0.027213,-0.016234
66,3176996374,-0.529172,0.462034,0.379666,-0.601958,0.079049,0.105555,0.130905
67,3177029708,-0.524441,0.462848,0.378201,-0.606380,-0.208661,0.287613,0.369054
68,3177063042,-0.518884,0.462839,0.377295,-0.611709,-0.476759,0.270258,0.400434
69,3177096376,-0.512980,0.461910,0.376210,-0.618026,-0.579617,0.545138,0.236498
70,3177129710,-0.508042,0.461533,0.373987,-0.623710,-0.650645,0.783247,0.102474
71,3177163044,-0.504934,0.462538,0.370700,-0.627440,-0.530658,0.646403,-0.145237
72,3177196378,-0.502817,0.463655,0.368459,-0.629632,-0.338010,0.503055,-0.172861
73,3177229712,-0.500705,0.462495,0.369525,-0.631541,-0.303773,0.364649,0.024108
74,3177263046,-0.498947,0.459065,0.372957,-0.633414,-0.270172,0.578297,-0.335216
75,3177296380,-0.498555,0.456598,0.376033,-0.633688,-0.300430,0.771702,-0.153402
76,3177329714,-0.499148,0.456264,0.377535,-0.632567,-0.332807,0.541202,-0.086603
77,3177363048,-0.499824,0.457207,0.377743,-0.631227,-0.433330,0.530895,-0.035320
78,3177396382,-0.500891,0.459502,0.376618,-0.629384,-0.459603,0.545671,0.321926
79,3177429716,-0.502478,0.462540,0.374611,-0.627087,-0.530954,0.351775,0.391370
80,3177463050,-0.503934,0.464798,0.372973,-0.625223,-0.560825,0.349993,0.383263
81,3177496384,-0.505482,0.466900,0.371408,-0.623336,-0.553282,0.274771,0.145284
82,3177529718,-0.506764,0.468351,0.370423,-0.621790,-0.514992,0.118000,0.001535
83,3177563052,-0.507359,0.468539,0.370784,-0.620948,-0.394765,0.047512,-0.023415
84,3177596386,-0.507023,0.467131,0.373221,-0.620824,-0.177156,-0.021462,0.144363
85,3177629720,-0.505686,0.463705,0.378056,-0.621556,-0.130176,-0.125462,0.246693
86,3177663054,-0.503280,0.458533,0.384460,-0.623415,-0.002839,-0.117974,0.097955
87,3177696388,-0.499682,0.452372,0.391538,-0.626399,-0.012556,-0.039005,0.131964
88,3177729722,-0.495419,0.446865,0.397624,-0.629894,-0.043730,0.000932,0.125772
89,3177763056,-0.490654,0.443388,0.401235,-0.633779,0.021142,0.322306,0.085841
90,3177796390,-0.486035,0.442973,0.402001,-0.637134,0.112494,0.200560,0.080416
91,3177829724,-0.481129,0.443360,0.402258,-0.640417,0.068674,0.121579,-0.002409
92,3177863058,-0.475802,0.442872,0.403628,-0.643863,0.037125,0.144724,-0.269882
93,3177896392,-0.470509,0.441658,0.405997,-0.647090,0.026732,0.015973,-0.523719
94,3177929726,-0.464845,0.439143,0.409258,-0.650830,-0.174913,0.211032,-0.962983
95,3177963060,-0.460159,0.437971,0.411617,-0.653457,-0.080276,0.141672,-1.134488
96,3177996394,-0.455493,0.435600,0.415141,-0.656076,0.118503,0.032076,-0.858157
97,3178029728,-0.450918,0.430276,0.421116,-0.658935,0.340406,-0.048749,0.409941
98,3178063062,-0.446227,0.421505,0.428537,-0.663001,0.475340,0.150870,1.741091
99,3178096396,-0.442405,0.412619,0.434025,-0.667566,0.248773,0.502818,1.735276
100,3178129730,-0.440913,0.409855,0.434063,-0.670225,0.127045,0.479887,1.177658
101,3178163064,-0.442215,0.415912,0.428640,-0.669127,-0.154750,0.029538,0.607282
102,3178196398,-0.443991,0.425492,0.420954,-0.666802,0.005478,-0.644286,0.058920
103,3178229732,-0.443504,0.431737,0.414496,-0.667158,0.219820,-1.269475,0.299151
104,3178263066,-0.438486,0.431859,0.409346,-0.673544,0.330613,-0.717387,-0.000142
105,3178296400,-0.430312,0.430105,0.402975,-0.683704,0.457610,-0.753016,0.374572
106,3178329734,-0.419421,0.427176,0.393752,-0.697542,0.563158,-0.431560,0.738480
107,3178363068,-0.407723,0.425211,0.381579,-0.712288,0.425730,0.061922,0.126951
108,3178396402,-0.397157,0.427751,0.366462,-0.724569,0.267407,-0.302865,0.473693
109,3178429736,-0.386364,0.431553,0.349801,-0.736290,0.335984,-0.451943,0.804351
110,3178463070,-0.373085,0.436136,0.333627,-0.747854,1.150520,0.188028,1.445127
111,3178496404,-0.358263,0.443716,0.313240,-0.759371,-0.250189,-0.458183,1.775658
112,3178529738,-0.342791,0.453132,0.288232,-0.770771,-0.439062,-0.464535,2.001574
113,3178563072,-0.327127,0.466757,0.258565,-0.779916,-0.252767,-0.335346,1.251060
114,3178596406,-0.309769,0.479483,0.227629,-0.788874,-0.080264,-0.333988,0.590539
115,3178629740,-0.291719,0.487518,0.198380,-0.798668,-0.633166,-0.296410,-0.926120
116,3178663074,-0.274863,0.489311,0.170373,-0.809937,-0.003744,-0.471218,1.139645
117,3178696408,-0.259860,0.475704,0.144817,-0.827772,-0.349101,0.099548,-0.986334
118,3178729742,-0.249200,0.456545,0.121408,-0.845414,-0.115721,0.589301,-1.500866
119,3178763076,-0.242397,0.435314,0.100573,-0.861179,0.205257,1.152210,-1.364499
120,3178796410,-0.239038,0.411818,0.083357,-0.875395,-0.248284,1.192582,-1.921536
121,3178829744,-0.238960,0.395743,0.068476,-0.884079,-0.813186,1.581008,-1.449063
122,3178863078,-0.240260,0.397624,0.053489,-0.883916,-0.042673,1.507376,-1.046704
123,3178896412,-0.242110,0.407980,0.039323,-0.879424,-0.604794,1.245552,0.272412
124,3178929746,-0.245261,0.415051,0.027746,-0.875676,-0.315358,0.560513,0.394063
125,3178963080,-0.249199,0.414857,0.018468,-0.874901,-0.162622,0.148315,0.392005
126,3178996414,-0.253266,0.412670,0.009949,-0.874906,-1.084102,-0.284576,0.010467
127,3179029748,-0.259611,0.408680,0.002109,-0.874973,-0.980263,-0.318847,-0.341219
128,3179063082,-0.266625,0.409145,-0.005695,-0.872627,-0.991236,-0.413897,-1.122882
129,3179096416,-0.276087,0.411688,-0.010695,-0.868432,-1.259596,-0.375266,-2.128985
130,3179129750,-0.289492,0.417361,-0.010933,-0.861327,-1.249158,-0.322194,-3.066670
131,3179163084,-0.308009,0.423475,-0.003986,-0.851929,-0.694481,0.262449,-2.537289
132,3179196418,-0.331898,0.428612,0.012151,-0.840230,-0.635567,0.699985,-3.811170
133,3179229752,-0.360556,0.429539,0.038266,-0.827061,0.586619,1.397702,-1.146882
134,3179263086,-0.390063,0.424485,0.072044,-0.813923,0.828997,1.785928,0.776903
135,3179296420,-0.416327,0.427180,0.103117,-0.795961,1.366265,2.576554,0.693020
136,3179329754,-0.437088,0.447629,0.121489,-0.770598,1.778252,2.192866,1.852573
137,3179363088,-0.455209,0.488843,0.122383,-0.734056,1.671313,1.402810,1.370950
138,3179396422,-0.472017,0.533340,0.114338,-0.692585,1.463174,-0.574232,2.261362
139,3179429756,-0.487128,0.550371,0.118684,-0.667616,0.613278,-1.007410,1.195017
140,3179463090,-0.500540,0.547640,0.136522,-0.656438,0.264693,-0.465494,0.163903
141,3179496424,-0.511613,0.536889,0.162570,-0.650825,-0.320833,0.123996,-0.255700
142,3179529758,-0.521077,0.528443,0.188742,-0.643119,-0.575851,0.216380,0.637671
143,3179563092,-0.528840,0.525072,0.209739,-0.632958,-0.284482,-0.153469,1.175384
144,3179596426,-0.533882,0.522639,0.226686,-0.624845,-0.524936,-0.552069,1.256883
145,3179629760,-0.536923,0.519525,0.240145,-0.619788,-0.647325,-0.839782,1.144401
146,3179663094,-0.539083,0.516215,0.250760,-0.616466,-0.484159,-0.832156,0.813689
147,3179696428,-0.540661,0.512894,0.259693,-0.614153,-0.409455,-0.773736,0.565865
148,3179729762,-0.542013,0.508955,0.267831,-0.612741,-0.438318,-0.527414,0.427159
149,3179763096,-0.544086,0.503620,0.275108,-0.612088,-0.125244,-0.408671,0.215374
150,3179796430,-0.546794,0.498139,0.281170,-0.611405,0.071545,-0.280696,0.043073
151,3179829764,-0.549746,0.494242,0.285528,-0.609900,0.140422,-0.124933,-0.053042
152,3179863098,-0.552069,0.491707,0.289019,-0.608204,0.363572,-0.121555,-0.035567
153,3179896432,-0.552997,0.489886,0.292551,-0.607140,0.432108,-0.078986,0.046373
154,3179929766,-0.551890,0.487784,0.296845,-0.607755,0.494490,-0.045011,0.054733
155,3179963100,-0.548599,0.485446,0.301892,-0.610116,0.485865,0.164949,0.060653
156,3179996434,-0.543976,0.483538,0.306826,-0.613301,0.372946,0.379316,0.077750
157,3180029768,-0.539095,0.482930,0.310881,-0.616042,0.142721,0.438421,0.034801
158,3180063102,-0.534338,0.483471,0.314302,-0.618023,-0.076772,0.397157,0.053339
159,3180096436,-0.529490,0.484001,0.318147,-0.619810,-0.225175,0.300772,0.024059
160,3180129770,-0.523451,0.482814,0.324368,-0.622635,-0.258828,0.069901,0.109634
161,3180163104,-0.514792,0.477823,0.335041,-0.628029,-0.134172,-0.081445,0.105508
162,3180196438,-0.503294,0.468264,0.350130,-0.636265,-0.033810,-0.050340,0.050962
163,3180229772,-0.490414,0.456186,0.367073,-0.645481,0.101631,0.092176,0.038414
164,3180263106,-0.477699,0.444570,0.382992,-0.653818,0.094929,0.162740,0.059116
165,3180296440,-0.466197,0.435226,0.396214,-0.660494,-0.100701,0.103350,0.089566
166,3180329774,-0.456560,0.429009,0.405842,-0.665429,-0.385863,0.028298,0.203694
167,3180363108,-0.449258,0.426147,0.411531,-0.668736,-0.702151,-0.030352,0.296977
168,3180396442,-0.444282,0.425882,0.413856,-0.670791,-0.803709,-0.101012,0.271494
169,3180429776,-0.441075,0.426448,0.414218,-0.672323,-0.732589,-0.114420,0.208322
170,3180463110,-0.439575,0.426761,0.413622,-0.673472,-0.529441,-0.108740,0.252613
171,3180496444,-0.439462,0.426078,0.412926,-0.674405,-0.339300,-0.043973,0.301074
172,3180529778,-0.439839,0.424489,0.412594,-0.675364,-0.149808,0.086599,0.063194
173,3180563112,-0.439793,0.422760,0.412790,-0.676357,0.046097,0.169562,-0.198240
174,3180596446,-0.438957,0.421083,0.413690,-0.677396,0.188903,0.186560,-0.283342
175,3180629780,-0.437458,0.419377,0.415446,-0.678349,0.294258,0.141559,-0.211813
176,3180663114,-0.435727,0.417609,0.417857,-0.679073,0.285945,0.146441,-0.086405
177,3180696448,-0.434235,0.416406,0.420238,-0.679297,0.194567,0.178703,-0.002461
178,3180729782,-0.433013,0.416299,0.422028,-0.679033,0.054389,0.124804,0.130783
179,3180763116,-0.431705,0.416899,0.423253,-0.678736,-0.140918,-0.043666,0.212156
180,3180796450,-0.429650,0.416978,0.424508,-0.679207,-0.246415,-0.132911,0.203931
181,3180829784,-0.427165,0.415953,0.425953,-0.680498,-0.300472,-0.056579,0.257793
182,3180863118,-0.425216,0.414435,0.426888,-0.682057,-0.305929,0.022783,0.099594
183,3180896452,-0.424497,0.413373,0.426722,-0.683252,-0.271243,0.167213,0.035476
184,3180929786,-0.424988,0.413225,0.425381,-0.683871,-0.184758,0.179473,0.040340
185,3180963120,-0.426157,0.413793,0.423327,-0.684075,-0.033209,0.306210,0.025323
186,3180996454,-0.427588,0.414592,0.421279,-0.683963,0.057257,0.324283,0.139564
187,3181029788,-0.429350,0.415295,0.419579,-0.683477,0.130690,0.323396,0.120770
188,3181063122,-0.431301,0.415891,0.418261,-0.682694,0.183896,0.305367,-0.026098
189,3181096456,-0.433264,0.416368,0.417421,-0.681673,0.199380,0.303800,0.012984
190,3181129790,-0.435653,0.417169,0.416676,-0.680115,0.148149,0.212730,-0.087503
191,3181163124,-0.438731,0.418440,0.415799,-0.677889,0.169968,0.113947,-0.026258
192,3181196458,-0.442583,0.419868,0.414916,-0.675037,0.154051,0.007632,0.231074
193,3181229792,-0.447270,0.421252,0.413957,-0.671666,0.129825,-0.119353,0.441733
194,3181263126,-0.452427,0.422401,0.413044,-0.668042,0.124344,-0.243204,0.597741
195,3181296460,-0.457204,0.423169,0.412079,-0.664893,0.092990,-0.328039,0.274301
196,3181329794,-0.460791,0.423993,0.410838,-0.662656,0.173258,-0.278113,-0.082931
197,3181363128,-0.463324,0.425321,0.409238,-0.661026,0.215095,-0.339691,-0.212511
198,3181396462,-0.465244,0.426712,0.407562,-0.659816,0.380194,-0.283935,-0.175683
199,3181429796,-0.466888,0.427785,0.406062,-0.658884,0.407678,-0.194362,-0.094819
200,3181463130,-0.468556,0.429265,0.404287,-0.657828,0.373304,-0.103453,0.002803
201,3181496464,-0.470090,0.431614,0.401895,-0.656662,0.313187,-0.103758,0.033694
202,3181529798,-0.470827,0.434401,0.399210,-0.655933,0.197546,-0.055300,0.038186
203,3181563132,-0.470667,0.437224,0.396535,-0.655795,0.028910,0.018102,0.057413
204,3181596466,-0.470008,0.439751,0.394113,-0.656037,-0.089323,0.093575,0.111010
205,3181629800,-0.469392,0.441692,0.391966,-0.656461,-0.238917,0.191916,0.097196
206,3181663134,-0.469602,0.443356,0.389710,-0.656532,-0.335864,0.275018,-0.013964
207,3181696468,-0.471088,0.445155,0.387089,-0.655801,-0.305941,0.333140,-0.076039
208,3181729802,-0.473814,0.447030,0.384314,-0.654192,-0.255178,0.276909,-0.167118
209,3181763136,-0.477157,0.448471,0.382025,-0.652112,-0.127184,0.228894,-0.186587
210,3181796470,-0.480678,0.449253,0.380603,-0.649817,-0.042224,0.148806,-0.169975
211,3181829804,-0.484256,0.449673,0.379844,-0.647308,0.041429,0.074979,-0.201172
212,3181863138,-0.487737,0.450034,0.379358,-0.644723,0.141917,0.065482,-0.193928
213,3181896472,-0.490673,0.450513,0.378844,-0.642460,0.118622,0.075206,-0.212128
214,3181929806,-0.492753,0.451993,0.377682,-0.640509,0.130904,0.211001,-0.236700
215,3181963140,-0.493598,0.454403,0.376256,-0.638991,-0.068656,0.125088,0.249862
216,3181996474,-0.493834,0.456853,0.374925,-0.637843,-0.746380,0.260970,0.720353
217,3182029808,-0.495221,0.460682,0.372459,-0.635454,-0.908678,0.006680,0.710070
218,3182063142,-0.497284,0.464197,0.369855,-0.632801,-0.858312,-0.282662,0.336986
219,3182096476,-0.498829,0.465093,0.368623,-0.631644,-0.722315,-0.150669,-0.134635
220,3182129810,-0.500051,0.464422,0.368366,-0.631322,-0.475662,0.047007,-0.286470
221,3182163144,-0.501117,0.462963,0.369063,-0.631140,-0.167744,0.038627,0.003523
222,3182196478,-0.501502,0.460026,0.371384,-0.631621,-0.076032,0.216674,0.225828
223,3182229812,-0.501635,0.456865,0.374087,-0.632214,-0.134113,0.405232,0.464641
224,3182263146,-0.502210,0.455178,0.375272,-0.632273,-0.344439,0.335654,0.367319
225,3182296480,-0.502716,0.454264,0.375195,-0.632573,-0.482887,0.354106,0.137175
226,3182329814,-0.503088,0.452458,0.375000,-0.633686,-0.593211,0.362113,-0.062592
227,3182363148,-0.504558,0.451158,0.374375,-0.633814,-0.369987,0.639413,-0.274724
228,3182396482,-0.507419,0.451219,0.373137,-0.632215,-0.016847,0.438204,-0.017941
229,3182429816,-0.510485,0.451054,0.372293,-0.630359,0.042040,0.362753,0.297446
230,3182463150,-0.513674,0.451337,0.370511,-0.628613,-0.084804,0.436215,0.320396
231,3182496484,-0.517400,0.453456,0.365943,-0.626706,0.015761,0.451844,0.165323
232,3182529818,-0.521171,0.456815,0.359519,-0.624857,0.231745,0.738052,-0.210114
233,3182563152,-0.524775,0.461642,0.352646,-0.622205,0.288485,0.793190,-0.389284
234,3182596486,-0.528573,0.467961,0.345932,-0.618024,0.116858,0.934078,-0.508572
235,3182629820,-0.533609,0.477840,0.338468,-0.610220,-0.053585,0.647920,-0.351005
236,3182663154,-0.539865,0.490715,0.330828,-0.598579,-0.533094,0.163591,-0.056567
237,3182696488,-0.547537,0.505516,0.322417,-0.583698,-0.682704,-0.549808,0.278623
238,3182729822,-0.554522,0.516778,0.316465,-0.570346,-0.603477,-1.063999,0.408308
239,3182763156,-0.558738,0.521635,0.316043,-0.561983,-0.167997,-0.963792,0.124361
240,3182796490,-0.560246,0.522199,0.319847,-0.557790,-0.073497,-0.554525,0.075665
241,3182829824,-0.560414,0.521860,0.323760,-0.555677,-0.045005,-0.643636,0.232566
242,3182863158,-0.559597,0.521428,0.326909,-0.555062,-0.084565,-0.522572,0.283302
243,3182896492,-0.557504,0.520696,0.329955,-0.556052,-0.201477,-0.158581,0.234212
244,3182929826,-0.554389,0.519680,0.332937,-0.558335,-0.336043,0.065205,0.100414
245,3182963160,-0.551206,0.518960,0.335482,-0.560627,-0.435990,0.326557,0.132490
246,3182996494,-0.549195,0.518767,0.336901,-0.561928,-0.511568,0.078090,0.245929
247,3183029828,-0.548174,0.518427,0.338107,-0.562513,-0.587170,0.539590,0.086039
248,3183063162,-0.548521,0.520355,0.337569,-0.560715,-0.431996,0.219973,0.163989
249,3183096496,-0.548994,0.522571,0.337011,-0.558523,-0.452095,-0.022050,0.136479
250,3183129830,-0.548963,0.523872,0.337553,-0.557005,-0.696158,-0.254824,0.102351
251,3183163164,-0.547994,0.523392,0.340115,-0.556853,-0.831843,-0.271295,0.043550
252,3183196498,-0.546119,0.521336,0.344802,-0.557739,-0.616860,-0.429050,-0.089291
253,3183229832,-0.542835,0.517065,0.352614,-0.560033,-0.424692,-0.490911,-0.149864
254,3183263166,-0.537923,0.510636,0.363330,-0.563808,-0.365841,-0.481347,-0.087120
255,3183296500,-0.531490,0.503107,0.375258,-0.568842,-0.278810,-0.546463,0.215255
256,3183329834,-0.523019,0.494265,0.387472,-0.576211,-0.278570,-0.372999,0.273583
257,3183363168,-0.513226,0.485884,0.397549,-0.585209,-0.338176,-0.266044,0.158421
258,3183396502,-0.503187,0.478730,0.404883,-0.594718,-0.515340,-0.124809,0.107103
259,3183429836,-0.493868,0.473519,0.409605,-0.603405,-0.663364,-0.125607,0.217299
260,3183463170,-0.485926,0.470076,0.412067,-0.610823,-0.685526,-0.274583,0.115682
261,3183496504,-0.478643,0.466602,0.413840,-0.617996,-0.566815,-0.389145,0.092875
262,3183529838,-0.470955,0.461509,0.416397,-0.625958,-0.292859,-0.383329,0.106015
263,3183563172,-0.462276,0.454150,0.420255,-0.635165,-0.161211,-0.267101,-0.177444
264,3183596506,-0.453358,0.445791,0.424505,-0.644618,0.102743,-0.059154,-0.211333
265,3183629840,-0.444546,0.437495,0.428457,-0.653759,0.322269,0.067737,-0.311811
266,3183663174,-0.435300,0.429549,0.432226,-0.662708,0.524121,0.213631,-0.401751
267,3183696508,-0.425324,0.421842,0.436052,-0.671570,0.504997,0.236152,-0.470938
268,3183729842,-0.415216,0.414554,0.439560,-0.680093,0.614117,0.324871,-0.545402
269,3183763176,-0.405528,0.407152,0.443025,-0.688115,0.736188,0.461890,-0.110984
270,3183796510,-0.396674,0.398963,0.446804,-0.695588,0.807058,0.703915,0.392402
271,3183829844,-0.389571,0.391201,0.450458,-0.701629,0.810975,0.987288,0.730899
272,3183863178,-0.384384,0.385425,0.453586,-0.705659,0.901256,1.086209,0.915807
273,3183896512,-0.379362,0.381343,0.456676,-0.708596,0.774034,0.874606,0.738364
274,3183929846,-0.373357,0.378487,0.459528,-0.711467,0.553928,0.741065,0.173639
275,3183963180,-0.367142,0.378021,0.461021,-0.713978,0.316600,0.652506,-0.288218
276,3183996514,-0.361873,0.380237,0.460808,-0.715628,0.142096,0.538523,-0.390887
277,3184029848,-0.358203,0.383603,0.459315,-0.716637,0.027455,0.465110,-0.441112
278,3184063182,-0.357145,0.387134,0.457001,-0.716745,-0.052478,0.669233,-0.397805
279,3184096516,-0.359944,0.391505,0.454335,-0.714663,-0.040767,0.761351,0.030010
280,3184129850,-0.365905,0.396238,0.452243,-0.710341,-0.063317,0.517594,0.258883
281,3184163184,-0.372103,0.399776,0.452235,-0.705125,-0.142203,0.076672,0.187833
282,3184196518,-0.375591,0.400058,0.455223,-0.701182,-0.253714,-0.387196,0.028367
283,3184229852,-0.376276,0.397014,0.459981,-0.699437,-0.322517,-0.467631,-0.241613
284,3184263186,-0.376389,0.392687,0.464505,-0.698829,-0.203284,-0.302851,-0.185838
285,3184296520,-0.377727,0.388924,0.467336,-0.698324,-0.047037,-0.151364,-0.073401
286,3184329854,-0.381203,0.387395,0.467629,-0.697088,0.007638,0.041620,-0.020082
287,3184363188,-0.386993,0.389766,0.465330,-0.694108,0.162376,-0.082529,0.173742
288,3184396522,-0.393045,0.393995,0.462074,-0.690485,0.319955,-0.216645,0.419347
289,3184429856,-0.396828,0.397290,0.459562,-0.688106,0.373232,-0.366525,0.478066
290,3184463190,-0.397376,0.398359,0.458568,-0.687835,0.169731,-0.336478,0.246528
291,3184496524,-0.396525,0.399041,0.457824,-0.688426,-0.007547,-0.228400,0.093774
292,3184529858,-0.396099,0.400527,0.456373,-0.688771,-0.048036,-0.258050,0.070022
293,3184563192,-0.396377,0.402179,0.454251,-0.689052,-0.051431,-0.213759,-0.095552
294,3184596526,-0.397343,0.404159,0.451681,-0.689027,-0.039754,-0.101875,-0.078702
295,3184629860,-0.398400,0.406093,0.449323,-0.688821,-0.047771,-0.143138,0.025245
296,3184663194,-0.398845,0.407325,0.447556,-0.688986,-0.000717,-0.006602,-0.053931
297,3184696528,-0.398803,0.408370,0.446157,-0.689299,-0.054543,0.061253,-0.107803
298,3184729862,-0.398569,0.409356,0.445194,-0.689471,-0.033106,0.029994,-0.067886
299,3184763196,-0.398038,0.409686,0.445029,-0.689690,0.055377,0.083415,-0.100110
300,3184796530,-0.397060,0.409237,0.445775,-0.690037,0.021767,0.110791,-0.052176
301,3184829864,-0.395578,0.408235,0.447342,-0.690468,0.029730,0.083373,0.053489
302,3184863198,-0.393581,0.406543,0.449583,-0.691153,-0.003917,0.093719,0.100640
303,3184896532,-0.391624,0.404778,0.451851,-0.691820,-0.045008,0.143838,0.043802
304,3184929866,-0.390078,0.403517,0.453842,-0.692126,-0.070106,0.062101,0.048884
305,3184963200,-0.388774,0.402165,0.455909,-0.692289,-0.074431,-0.019351,-0.005939
306,3184996534,-0.387690,0.400347,0.458185,-0.692448,0.050323,0.030456,-0.066314
307,3185029868,-0.386953,0.398250,0.460784,-0.692344,0.103398,-0.116926,-0.009227
308,3185063202,-0.386216,0.395330,0.463920,-0.692336,0.263431,-0.136639,-0.059383
309,3185096536,-0.385376,0.391918,0.467197,-0.692540,0.295182,-0.054551,0.075549
310,3185129870,-0.384694,0.389210,0.469913,-0.692609,0.274611,-0.073105,0.180276
311,3185163204,-0.384147,0.387591,0.471807,-0.692533,0.255863,-0.136115,0.253867
312,3185196538,-0.383640,0.387012,0.472664,-0.692553,0.142310,-0.128107,0.380175
313,3185229872,-0.383309,0.387544,0.472315,-0.692677,0.076008,-0.078102,0.440668
314,3185263206,-0.382808,0.388686,0.471240,-0.693046,-0.046847,-0.143321,0.453728
315,3185296540,-0.381914,0.389667,0.469978,-0.693845,-0.138003,-0.084256,0.349023
316,3185329874,-0.380731,0.390567,0.468549,-0.694955,-0.265996,-0.026921,0.225480
317,3185363208,-0.379739,0.391791,0.466650,-0.696085,-0.316755,-0.057410,-0.058198
318,3185396542,-0.379201,0.393105,0.464312,-0.697201,-0.287204,-0.047058,-0.181838
319,3185429876,-0.379493,0.394296,0.461681,-0.698115,-0.185709,0.016007,-0.211285
320,3185463210,-0.380460,0.395198,0.459157,-0.698744,-0.050844,0.025156,-0.271199
321,3185496544,-0.381351,0.395275,0.457476,-0.699317,0.061935,-0.013779,-0.134802
322,3185529878,-0.381294,0.394035,0.456707,-0.700549,0.087315,-0.230047,0.176696
323,3185563212,-0.378519,0.390879,0.455914,-0.704328,0.255543,-0.712844,0.870331
324,3185596546,-0.370511,0.382926,0.452160,-0.715290,0.091026,-1.718226,2.569266
325,3185629880,-0.357668,0.374194,0.439208,-0.734267,-0.117762,-0.869897,2.722078
326,3185663214,-0.342362,0.379491,0.412677,-0.753971,0.333777,-0.408345,3.349208
327,3185696548,-0.323854,0.398079,0.373479,-0.772764,0.020421,-0.835421,4.194453
328,3185729882,-0.299632,0.418819,0.324866,-0.793267,0.128114,-1.221075,5.144163
329,3185763216,-0.268611,0.434009,0.268093,-0.817073,-0.012898,-0.874432,5.425182
330,3185796550,-0.231024,0.436307,0.204861,-0.845160,0.488097,-0.059605,5.315916
331,3185829884,-0.187089,0.423127,0.135466,-0.876133,-0.259390,1.373767,3.979840
332,3185863218,-0.138206,0.415433,0.058366,-0.897166,-0.429318,2.024334,2.883657
333,3185896552,-0.079928,0.406197,-0.020811,-0.910045,0.222021,2.954823,1.752670
334,3185929886,-0.012724,0.386333,-0.098503,-0.916996,1.289006,4.376894,1.127199
335,3185963220,0.060197,0.354135,-0.170271,-0.917590,0.544162,3.311512,-2.258706
336,3185996554,0.134036,0.313014,-0.233752,-0.910722,1.114543,3.686877,-3.362413
337,3186029888,0.200740,0.251721,-0.290590,-0.901053,0.634776,1.367243,-4.670393
338,3186063222,0.256266,0.179006,-0.337726,-0.887820,0.658317,-0.245337,-5.202354
339,3186096556,0.298749,0.099061,-0.376218,-0.871433,0.367499,-2.482184,-4.025403
340,3186129890,0.333807,0.024004,-0.403047,-0.851792,0.699922,-1.057396,-3.364929
341,3186163224,0.355524,-0.058764,-0.426444,-0.829635,0.408974,-1.632184,-3.603189
342,3186196558,0.371324,-0.125725,-0.442521,-0.806527,-0.792598,-1.671421,-1.548682
343,3186229892,0.378561,-0.175606,-0.451030,-0.788939,-0.336272,-1.522571,-1.945304
344,3186263226,0.375724,-0.213310,-0.457106,-0.777421,-0.980209,-1.537184,-0.861748
345,3186296560,0.374458,-0.232340,-0.456619,-0.772850,-0.185899,-1.029984,-0.787926
346,3186329894,0.373554,-0.243927,-0.452669,-0.772041,0.355024,-0.202370,-1.502625
347,3186363228,0.369160,-0.257653,-0.451260,-0.770519,0.480382,0.256664,-0.817383
348,3186396562,0.367120,-0.266236,-0.448899,-0.769955,0.520012,0.486243,-0.371055
349,3186429896,0.364152,-0.275062,-0.448144,-0.768701,0.394933,0.396211,-0.248742
350,3186463230,0.358719,-0.285363,-0.450293,-0.766240,0.269285,0.808875,-0.150562
351,3186496564,0.352775,-0.293762,-0.454094,-0.763578,0.278959,0.050120,-0.160157
352,3186529898,0.350306,-0.295916,-0.455506,-0.763042,0.389216,-0.062052,-0.081270
353,3186563232,0.349640,-0.295850,-0.454751,-0.763823,0.434922,0.602512,-0.118254
354,3186596566,0.347436,-0.298039,-0.455374,-0.763606,0.224948,0.607224,0.329481
355,3186629900,0.346560,-0.298825,-0.455399,-0.763682,0.292665,0.973808,0.526401
356,3186663234,0.347491,-0.297783,-0.455214,-0.763777,0.136249,0.724503,0.250289
357,3186696568,0.347624,-0.296933,-0.456871,-0.763057,-0.155407,0.687782,-0.105432
358,3186729902,0.345861,-0.297708,-0.461774,-0.760601,-0.198675,0.592326,-0.177012
359,3186763236,0.346778,-0.294487,-0.466280,-0.758686,-0.060618,0.833512,-0.351731
360,3186796570,0.348227,-0.289099,-0.470656,-0.757391,-0.185573,0.089367,-0.661321
361,3186829904,0.347346,-0.285415,-0.475945,-0.755887,-0.150071,0.214992,-0.395232
362,3186863238,0.342064,-0.284913,-0.482182,-0.754531,-0.213686,-0.432602,-0.401182
363,3186896572,0.332296,-0.287148,-0.489378,-0.753415,-0.312865,0.508525,0.057278
364,3186929906,0.321053,-0.287354,-0.496802,-0.753352,-0.361932,0.381796,0.115535
365,3186963240,0.313293,-0.283778,-0.501969,-0.754549,0.490810,0.161532,0.073838
366,3186996574,0.310131,-0.278440,-0.503035,-0.757129,0.341408,0.199874,0.528270
367,3187029908,0.306882,-0.275563,-0.502749,-0.759692,0.182865,-0.084693,0.589402
368,3187063242,0.302106,-0.274600,-0.501625,-0.762691,-0.000098,0.214829,0.560236
369,3187096576,0.294838,-0.276141,-0.500862,-0.765476,-0.410840,0.186113,0.256221
370,3187129910,0.285997,-0.277736,-0.500157,-0.768707,-0.987225,-0.039258,-0.172760
371,3187163244,0.276453,-0.275924,-0.498066,-0.774189,-0.713517,-0.193095,-0.673130
372,3187196578,0.266115,-0.269058,-0.493909,-0.782843,-0.399707,0.147581,-0.859710
373,3187229912,0.253246,-0.259450,-0.489106,-0.793301,-0.266325,0.149216,-1.004103
374,3187263246,0.239079,-0.245533,-0.482306,-0.806186,-0.296680,-0.361216,-1.102809
375,3187296580,0.225658,-0.219746,-0.472323,-0.823226,-0.507190,-0.985140,-1.672089
376,3187329914,0.210716,-0.174001,-0.460084,-0.844775,-0.450169,-0.984232,-2.711744
377,3187363248,0.187624,-0.110763,-0.448024,-0.867066,-0.174279,-0.279445,-3.440091
378,3187396582,0.150327,-0.040076,-0.439365,-0.884733,0.490041,-0.065890,-3.652229
379,3187429916,0.101260,0.041451,-0.429801,-0.896269,1.568204,-0.179039,-3.766446
380,3187463250,0.048313,0.140971,-0.410608,-0.899552,1.632964,0.210906,-3.178632
381,3187496584,-0.014186,0.238991,-0.385449,-0.891128,-1.836032,1.238374,-1.823790
382,3187529918,-0.098565,0.300699,-0.356045,-0.879259,-1.286513,2.564428,-0.030824
383,3187563252,-0.188700,0.328296,-0.311179,-0.871654,-0.449326,0.385807,0.336209
384,3187596586,-0.266121,0.338000,-0.244410,-0.869022,-1.937337,0.251190,-0.895465
385,3187629920,-0.316782,0.341997,-0.165662,-0.869047,-1.526281,2.742332,3.481099
386,3187663254,-0.345385,0.356958,-0.087758,-0.863474,-0.111215,1.276176,0.590364
387,3187696588,-0.363187,0.344576,-0.000611,-0.865657,2.548329,0.862271,1.218326
388,3187729922,-0.369560,0.335265,0.086693,-0.862268,0.517926,2.476683,-0.292340
389,3187763256,-0.382180,0.358069,0.157661,-0.837178,-1.002377,3.131764,1.078575
390,3187796590,-0.411901,0.384731,0.216841,-0.797056,0.841702,2.885039,1.470573
391,3187829924,-0.455382,0.400985,0.269442,-0.747822,1.662982,2.504753,2.384092
392,3187863258,-0.507240,0.413624,0.313547,-0.687975,2.392020,2.093334,4.065737
393,3187896592,-0.559256,0.427373,0.344412,-0.621260,2.094151,0.528897,6.822468
394,3187929926,-0.596299,0.438286,0.363031,-0.566163,-0.612595,-2.255519,6.685711
395,3187963260,-0.601229,0.436689,0.381830,-0.549574,-3.201617,-1.644800,4.403163
396,3187996594,-0.586606,0.422631,0.398387,-0.564415,-1.404051,-0.980807,1.013043
397,3188029928,-0.562277,0.408007,0.409967,-0.591018,0.851774,0.923946,0.789241
398,3188063262,-0.551951,0.408935,0.402869,-0.604829,-0.405688,0.503128,0.294262
399,3188096596,-0.561241,0.422322,0.382442,-0.600324,-0.296691,-0.993517,-1.337568
400,3188129930,-0.580401,0.440597,0.358230,-0.583677,-0.387435,-2.456639,-1.887113
401,3188163264,-0.602060,0.454543,0.337604,-0.562971,-0.244073,-2.309689,-1.737876
402,3188196598,-0.624718,0.459593,0.325064,-0.541141,0.863598,-2.425779,-1.224986
403,3188229932,-0.646312,0.458698,0.319980,-0.519123,1.811696,-2.380814,0.129513
404,3188263266,-0.665488,0.459006,0.314197,-0.497714,2.140429,-2.038096,0.223906
405,3188296600,-0.679879,0.465836,0.302832,-0.478596,2.182349,-1.598250,-0.024467
406,3188329934,-0.685771,0.480640,0.286725,-0.465286,1.658174,-1.657285,-0.202272
407,3188363268,-0.679905,0.498722,0.273763,-0.462664,1.122992,-1.753910,-0.060508
408,3188396602,-0.661985,0.514784,0.269991,-0.473156,0.794073,-1.869264,0.693583
409,3188429936,-0.633886,0.523058,0.278348,-0.497112,0.547113,-1.536876,1.208013
410,3188463270,-0.597903,0.522542,0.296294,-0.530726,0.200839,-0.647165,1.074964
411,3188496604,-0.556137,0.511929,0.320842,-0.570701,-0.595120,-1.517046,2.094846
412,3188529938,-0.503661,0.450049,0.375923,-0.634399,-9.423305,8.788664,0.590822
413,3188563272,-0.475310,0.401486,0.404068,-0.670535,-4.092555,4.422081,-1.970113
414,3188596606,-0.473355,0.394033,0.406563,-0.674818,-0.966401,1.207444,-0.350353
415,3188629940,-0.481932,0.410427,0.396633,-0.664810,-0.462164,0.921723,-0.353405
416,3188663274,-0.498449,0.435676,0.380017,-0.646004,0.703582,0.276815,-0.236997
417,3188696608,-0.512996,0.450180,0.368436,-0.631211,1.627404,-0.416919,-0.091377
418,3188729942,-0.522058,0.448831,0.366590,-0.625793,1.880562,-0.505892,0.308646
419,3188763276,-0.526080,0.439090,0.370233,-0.627189,1.280523,0.016498,0.194510
420,3188796610,-0.527198,0.431449,0.372575,-0.630160,0.777905,0.659106,0.001916
421,3188829944,-0.526935,0.432058,0.370123,-0.631406,0.666170,0.811889,-0.124445
422,3188863278,-0.525256,0.439380,0.364650,-0.630937,0.756312,0.462787,-0.029555
423,3188896612,-0.521815,0.447663,0.360194,-0.630528,0.829408,0.127267,0.067719
424,3188929946,-0.516555,0.452069,0.359765,-0.631959,0.667344,0.052482,-0.018963
425,3188963280,-0.510590,0.452583,0.363095,-0.634530,0.472041,0.245847,-0.401015
426,3188996614,-0.505546,0.451765,0.368516,-0.636024,0.208817,0.403631,-0.445773
427,3189029948,-0.502629,0.451846,0.374446,-0.634813,-0.080542,0.297498,-0.228089
428,3189063282,-0.501155,0.452553,0.380488,-0.631876,-0.459946,0.319985,-0.123590
429,3189096616,-0.505252,0.460745,0.378995,-0.623536,-1.809626,0.175623,0.492601
430,3189129950,-0.514689,0.473148,0.370147,-0.611732,-1.592290,-0.912228,0.741282
431,3189163284,-0.521539,0.479056,0.364696,-0.604565,-0.802693,-1.195013,0.502946
432,3189196618,-0.522803,0.475445,0.367121,-0.604856,-0.191140,-0.936428,0.382316
433,3189229952,-0.519238,0.463933,0.375802,-0.611499,0.139817,-0.549250,0.330877
434,3189263286,-0.514236,0.450521,0.385043,-0.619946,0.174391,0.003381,0.157718
435,3189296620,-0.510416,0.440377,0.391074,-0.626581,0.242077,0.247525,-0.062403
436,3189329954,-0.508616,0.436069,0.392719,-0.630019,0.273493,0.239805,-0.135718
437,3189363288,-0.508409,0.436413,0.390950,-0.631048,0.326776,0.046282,-0.046610
438,3189396622,-0.508758,0.438520,0.387641,-0.631347,0.470650,-0.103682,0.011603
439,3189429956,-0.508577,0.440250,0.384691,-0.632092,0.525147,-0.023074,-0.102312
440,3189463290,-0.507634,0.441836,0.382595,-0.633016,0.475569,0.079934,-0.115614
441,3189496624,-0.505818,0.443515,0.381413,-0.634008,0.359174,0.121662,-0.083734
442,3189529958,-0.503204,0.444980,0.381258,-0.635154,0.347706,0.071137,-0.092066
443,3189563292,-0.499726,0.444009,0.383203,-0.637405,-0.159641,0.380056,0.022422
444,3189596626,-0.497414,0.442111,0.385269,-0.639284,-0.582847,0.387584,0.145109
445,3189629960,-0.497466,0.442226,0.385471,-0.639042,-0.781485,0.512864,0.102862
446,3189663294,-0.499972,0.445194,0.383479,-0.636219,-0.526542,0.187500,0.140181
447,3189696628,-0.502998,0.448273,0.381435,-0.632891,-0.222891,-0.085031,0.148188
448,3189729962,-0.505512,0.449982,0.380302,-0.630352,0.072434,-0.266651,0.089940
449,3189763296,-0.507007,0.449426,0.380887,-0.629194,0.212310,-0.145622,-0.060665
450,3189796630,-0.507729,0.447809,0.382527,-0.628769,0.213636,-0.121845,0.013303
451,3189829964,-0.508070,0.446680,0.384017,-0.628388,0.177264,-0.042372,0.085968
452,3189863298,-0.508040,0.446248,0.384887,-0.628188,0.086192,-0.134063,0.188848
453,3189896632,-0.507673,0.446064,0.385209,-0.628417,-0.079874,-0.103470,0.165897
454,3189929966,-0.507214,0.446042,0.385163,-0.628832,-0.167541,-0.062337,0.113433
455,3189963300,-0.506819,0.445887,0.385200,-0.629237,-0.112680,0.003443,0.053778
456,3189996634,-0.506682,0.445899,0.385114,-0.629392,-0.091957,-0.025616,-0.021134
457,3190029968,-0.506896,0.446115,0.384864,-0.629219,0.043682,-0.088927,0.022892
458,3190063302,-0.507114,0.446184,0.384734,-0.629074,0.120018,-0.157457,0.026036
459,3190096636,-0.506976,0.445782,0.385073,-0.629263,0.120096,-0.123723,0.033136
460,3190129970,-0.506524,0.445061,0.385697,-0.629755,0.045784,-0.039588,0.039738
461,3190163304,-0.506076,0.444358,0.386241,-0.630278,-0.017588,0.008559,0.097894
462,3190196638,-0.505685,0.443637,0.386727,-0.630801,-0.092118,0.063026,0.104517
463,3190229972,-0.505484,0.443161,0.386961,-0.631153,-0.118593,0.143489,0.161805
464,3190263306,-0.505503,0.443073,0.386826,-0.631283,-0.042787,0.146059,0.084578
465,3190296640,-0.505758,0.443273,0.386502,-0.631136,-0.066643,0.112085,0.038751
466,3190329974,-0.506452,0.443864,0.385876,-0.630547,0.054322,0.017072,0.101092
467,3190363308,-0.507298,0.444445,0.385233,-0.629851,0.077956,-0.095377,0.074619
468,3190396642,-0.507895,0.444682,0.384862,-0.629430,0.039122,-0.109974,0.045444
469,3190429976,-0.508227,0.444615,0.384739,-0.629284,0.021480,-0.085282,0.062709
470,3190463310,-0.508435,0.444390,0.384734,-0.629278,-0.042973,-0.043897,0.060048
471,3190496644,-0.508598,0.444147,0.384729,-0.629321,-0.016775,0.009315,0.063890
472,3190529978,-0.508790,0.444057,0.384667,-0.629266,0.002802,0.012489,0.058363
473,3190563312,-0.508985,0.444143,0.384586,-0.629098,0.006977,-0.041425,0.049850
474,3190596646,-0.509135,0.444279,0.384487,-0.628941,0.074757,-0.069378,0.029190
475,3190629980,-0.509164,0.444409,0.384547,-0.628788,0.036470,-0.106520,0.022203
476,3190663314,-0.508982,0.444411,0.384837,-0.628758,-0.009112,-0.168563,0.084012
477,3190696648,-0.508620,0.444129,0.385318,-0.628955,-0.037830,-0.158840,0.127092
478,3190729982,-0.508015,0.443562,0.385971,-0.629443,-0.026542,-0.105082,0.091843
479,3190763316,-0.507234,0.442727,0.386842,-0.630126,-0.046598,-0.074460,0.083677
480,3190796650,-0.506514,0.441812,0.387745,-0.630792,-0.036705,-0.012383,0.053826
481,3190829984,-0.505888,0.441034,0.388579,-0.631325,0.020777,0.021297,0.053221
482,3190863318,-0.505235,0.440441,0.389381,-0.631768,-0.010123,-0.002291,0.063960
483,3190896652,-0.504491,0.439874,0.390231,-0.632233,0.001175,0.001051,0.073684
484,3190929986,-0.503771,0.439315,0.391082,-0.632670,-0.029329,-0.012291,0.091430
485,3190963320,-0.503066,0.438798,0.391902,-0.633081,0.001127,-0.033820,0.060475
486,3190996654,-0.502379,0.438278,0.392636,-0.633533,-0.034664,-0.010229,0.114360
487,3191029988,-0.501561,0.437688,0.393353,-0.634144,-0.057609,0.020435,0.069637
488,3191063322,-0.500859,0.437195,0.393913,-0.634691,-0.034472,0.051136,0.022037
489,3191096656,-0.500497,0.436813,0.394282,-0.635010,-0.010500,0.043058,-0.007797
490,3191129990,-0.500410,0.436465,0.394604,-0.635119,0.108603,0.044070,0.078453
491,3191163324,-0.500495,0.436380,0.394779,-0.635001,0.115078,0.006028,0.115574
492,3191196658,-0.500484,0.436494,0.394766,-0.634939,0.116949,-0.040810,0.083311
493,3191229992,-0.500495,0.436809,0.394487,-0.634888,-0.022642,0.001548,0.115410
494,3191263326,-0.501090,0.437479,0.393716,-0.634435,-0.225475,0.030004,0.088111
495,3191296660,-0.502225,0.437841,0.392851,-0.633823,-0.386304,-0.027394,0.065534
496,3191329994,-0.503425,0.437322,0.392651,-0.633354,-0.285291,0.034555,0.005693
497,3191363328,-0.504373,0.437445,0.392521,-0.632594,0.038188,-0.236300,0.105008
498,3191396662,-0.504284,0.436714,0.393049,-0.632843,0.083286,-0.133577,0.142562
499,3191429996,-0.503974,0.436075,0.393229,-0.633419,0.116711,-0.007720,0.074394
500,3191463330,-0.503767,0.435767,0.393089,-0.633882,0.100500,0.074180,0.020503
501,3191496664,-0.503840,0.435504,0.392840,-0.634159,-0.011389,0.285035,-0.075312
502,3191529998,-0.504679,0.435866,0.392232,-0.633618,-0.143400,0.397097,-0.084213
503,3191563332,-0.506498,0.437238,0.391193,-0.631861,-0.210401,0.485559,0.052611
504,3191596666,-0.509399,0.440030,0.389469,-0.628649,-0.299432,0.123072,0.302458
505,3191630000,-0.512401,0.442652,0.387608,-0.625511,-0.254758,-0.160680,0.117034
506,3191663334,-0.515167,0.444843,0.385389,-0.623051,-0.125848,-0.202248,0.038828
507,3191696668,-0.517371,0.446227,0.383364,-0.621482,-0.018880,-0.127054,-0.016920
508,3191730002,-0.519456,0.447351,0.381229,-0.620247,0.057765,0.072665,-0.071922
509,3191763336,-0.521816,0.449153,0.378475,-0.618648,0.022354,0.248261,-0.184464
510,3191796670,-0.524704,0.452984,0.374178,-0.616020,0.123947,0.048730,0.030423
511,3191830004,-0.526769,0.456730,0.370342,-0.613806,0.075884,-0.032710,0.064663
512,3191863338,-0.527848,0.459890,0.367658,-0.612131,0.110225,0.008233,0.268796
513,3191896672,-0.528183,0.462148,0.366416,-0.610884,-0.004300,-0.036760,0.455984
514,3191930006,-0.527977,0.463012,0.366364,-0.610440,-0.227913,0.014600,0.330328
515,3191963340,-0.528796,0.464986,0.364380,-0.609418,-0.471102,0.033948,0.110039
516,3191996674,-0.530817,0.467842,0.360439,-0.607816,-0.334499,-0.127768,-0.162470
517,3192030008,-0.532587,0.469469,0.357647,-0.606661,-0.230767,-0.139565,-0.190769
518,3192063342,-0.534277,0.470077,0.356454,-0.605404,-0.203812,-0.140903,-0.087214
519,3192096676,-0.536445,0.470077,0.356092,-0.603699,-0.219706,-0.208049,0.030745
520,3192130010,-0.538755,0.469819,0.356175,-0.601791,-0.163988,-0.275158,0.172020
521,3192163344,-0.540914,0.469630,0.356208,-0.599979,-0.207234,-0.377846,0.166556
522,3192196678,-0.542120,0.468866,0.356508,-0.599309,-0.284274,-0.437896,0.145606
523,3192230012,-0.542316,0.467559,0.356769,-0.599998,-0.199010,-0.280973,0.162699
524,3192263346,-0.542426,0.466923,0.355583,-0.601096,-0.130229,-0.141453,-0.014410
525,3192296680,-0.542389,0.467489,0.352891,-0.602275,0.003872,-0.084768,-0.006374
526,3192330014,-0.541945,0.468687,0.349714,-0.603595,0.048954,-0.051188,0.092839
527,3192363348,-0.540979,0.469909,0.346906,-0.605130,0.061852,0.039955,0.017044
528,3192396682,-0.539448,0.471308,0.344754,-0.606637,0.080740,0.142392,-0.003386
529,3192430016,-0.537185,0.472430,0.343919,-0.608244,0.013636,0.152749,0.051941
530,3192463350,-0.534264,0.472726,0.344790,-0.610091,-0.129567,0.173503,0.064687
531,3192496684,-0.531287,0.472428,0.346835,-0.611760,-0.231667,0.195417,0.102647
532,3192530018,-0.528449,0.471590,0.349612,-0.613282,-0.354505,0.130179,0.102715
533,3192563352,-0.525701,0.470077,0.352872,-0.614936,-0.352585,0.103146,0.118476
534,3192596686,-0.522925,0.468081,0.356415,-0.616780,-0.354120,0.033273,0.036425
535,3192630020,-0.519892,0.465370,0.360423,-0.619062,-0.325683,-0.055683,-0.017560
536,3192663354,-0.516883,0.462032,0.364444,-0.621722,-0.247051,-0.005309,-0.146658
537,3192696688,-0.514357,0.458733,0.367854,-0.624246,-0.129021,-0.000590,-0.166434
538,3192730022,-0.512553,0.455714,0.370418,-0.626421,-0.006838,-0.005270,-0.056582
539,3192763356,-0.511579,0.452980,0.372227,-0.628126,0.079754,0.055126,0.139225
540,3192796690,-0.511583,0.451122,0.372772,-0.629136,0.278635,0.244308,0.330315
541,3192830024,-0.512232,0.450972,0.371926,-0.629217,0.365059,0.300271,0.562900
542,3192863358,-0.512558,0.451925,0.370629,-0.629033,0.200642,0.138538,0.331481
543,3192896692,-0.512495,0.453566,0.369130,-0.628783,0.122192,0.069579,-0.121333
544,3192930026,-0.512682,0.455860,0.367511,-0.627920,0.080677,-0.076121,-0.362991
545,3192963360,-0.513210,0.457713,0.366834,-0.626534,0.081008,-0.281169,-0.362078
546,3192996694,-0.513736,0.457802,0.368357,-0.625144,0.160809,-0.389837,-0.346010
547,3193030028,-0.514140,0.456027,0.372209,-0.623826,0.278595,-0.450888,-0.188343
548,3193063362,-0.514162,0.452505,0.378049,-0.622861,0.377597,-0.525366,0.115888
549,3193096696,-0.513103,0.447595,0.385314,-0.622829,0.542614,-0.479298,0.259095
550,3193130030,-0.510997,0.442470,0.392806,-0.623542,0.534663,-0.444880,0.425282
551,3193163364,-0.507850,0.438305,0.399237,-0.624969,0.500446,-0.413965,0.512346
552,3193196698,-0.503531,0.435442,0.403929,-0.627445,0.407524,-0.385759,0.410041
553,3193230032,-0.498381,0.434424,0.406295,-0.630727,0.282193,-0.286911,0.169777
554,3193263366,-0.492896,0.435136,0.406461,-0.634428,0.225120,-0.203611,0.124990
555,3193296700,-0.487328,0.436822,0.405309,-0.638296,0.154484,-0.129482,-0.031123
556,3193330034,-0.481727,0.438774,0.403743,-0.642189,0.150035,-0.016613,-0.229536
557,3193363368,-0.476237,0.440488,0.402533,-0.645860,0.126003,0.098589,-0.309586
558,3193396702,-0.471034,0.441584,0.402179,-0.649139,0.104404,0.186183,-0.300412
559,3193430036,-0.466158,0.441865,0.403036,-0.651930,0.095693,0.301106,-0.190282
560,3193463370,-0.461816,0.441406,0.404944,-0.654146,0.022667,0.422883,-0.039660
561,3193496704,-0.458448,0.441033,0.406957,-0.655516,-0.054687,0.536311,-0.091627
562,3193530038,-0.456229,0.441484,0.408540,-0.655775,-0.064502,0.496997,0.072588
563,3193563372,-0.454954,0.442052,0.410288,-0.655187,-0.042043,0.422928,0.243661
564,3193596706,-0.454293,0.442068,0.412852,-0.654022,-0.107432,0.331426,0.300031
565,3193630040,-0.454179,0.441720,0.416122,-0.652263,-0.167123,0.118284,0.208815
566,3193663374,-0.454335,0.440714,0.419717,-0.650528,-0.245072,-0.091243,0.057871
567,3193696708,-0.454795,0.439128,0.423073,-0.649104,-0.270104,-0.190810,0.003288
568,3193730042,-0.456110,0.437859,0.425251,-0.647615,-0.255682,-0.264108,-0.061481
569,3193763376,-0.458403,0.437264,0.425885,-0.645978,-0.078583,-0.260168,0.058254
570,3193796710,-0.461275,0.437224,0.425245,-0.644380,0.079860,-0.253772,0.193174
571,3193830044,-0.464346,0.437633,0.423788,-0.642855,0.142835,-0.242936,0.206202
572,3193863378,-0.467315,0.438639,0.421866,-0.641280,0.245532,-0.237558,0.240110
573,3193896712,-0.469735,0.439991,0.419957,-0.639838,0.285980,-0.294013,0.273125
574,3193930046,-0.471102,0.441279,0.418490,-0.638906,0.242753,-0.325935,0.173545
575,3193963380,-0.471074,0.442372,0.417612,-0.638745,0.157547,-0.361597,-0.126875
576,3193996714,-0.469812,0.443090,0.417314,-0.639372,0.048255,-0.323691,-0.222638
577,3194030048,-0.468131,0.443462,0.417264,-0.640379,-0.041333,-0.271495,-0.124650
578,3194063382,-0.466769,0.443454,0.417224,-0.641403,-0.058621,-0.206553,0.070115
579,3194096716,-0.466023,0.443391,0.416860,-0.642225,-0.102886,-0.082737,0.200339
580,3194130050,-0.465759,0.443722,0.415969,-0.642766,-0.150768,-0.062745,0.286740
581,3194163384,-0.465346,0.443862,0.414959,-0.643621,-0.225170,-0.084034,0.176431
582,3194196718,-0.464715,0.443619,0.413986,-0.644869,-0.203144,0.001567,0.070092
583,3194230052,-0.464406,0.443299,0.413069,-0.645899,-0.153712,-0.024259,0.040488
584,3194263386,-0.464522,0.442492,0.412598,-0.646670,-0.072804,-0.050107,-0.022232
585,3194296720,-0.464972,0.441336,0.412441,-0.647236,-0.021143,0.002256,-0.033584
586,3194330054,-0.465755,0.440484,0.412208,-0.647402,0.027023,-0.044602,0.005555
587,3194363388,-0.466465,0.439845,0.411914,-0.647513,0.146168,-0.057968,0.016657
588,3194396722,-0.466881,0.439384,0.411583,-0.647737,0.175451,-0.011431,-0.000288
589,3194430056,-0.467118,0.439345,0.411207,-0.647831,0.185204,-0.022686,0.057072
590,3194463390,-0.467083,0.439364,0.411153,-0.647878,0.158748,-0.081172,0.003759
591,3194496724,-0.466680,0.439096,0.411668,-0.648022,0.114297,-0.053195,0.006346
592,3194530058,-0.466164,0.438773,0.412463,-0.648107,0.036761,-0.068735,0.014767
593,3194563392,-0.465598,0.438409,0.413399,-0.648164,0.006462,-0.126585,0.022908
594,3194596726,-0.464955,0.437954,0.414380,-0.648306,-0.009699,-0.103548,0.077357
595,3194630060,-0.464400,0.437552,0.415249,-0.648420,0.030566,-0.046692,0.105700
596,3194663394,-0.463851,0.437150,0.416100,-0.648538,0.033486,-0.080076,0.043267
597,3194696728,-0.463248,0.436604,0.417020,-0.648746,0.008224,-0.044407,0.037893
598,3194730062,-0.462728,0.436132,0.417838,-0.648909,-0.007288,-0.041814,0.070622
599,3194763396,-0.462313,0.435752,0.418518,-0.649022,-0.013026,-0.036933,0.053788
600,3194796730,-0.461994,0.435446,0.419062,-0.649103,0.007011,-0.029433,0.059963
601,3194830064,-0.461780,0.435205,0.419525,-0.649118,0.003184,-0.058943,0.105319
602,3194863398,-0.461521,0.434751,0.420120,-0.649221,0.014853,-0.082068,0.072701
603,3194896732,-0.461162,0.433985,0.420903,-0.649482,0.004349,-0.104760,0.061976
604,3194930066,-0.460898,0.433261,0.421568,-0.649721,0.013559,-0.117639,0.036636
605,3194963400,-0.460658,0.432614,0.422066,-0.649999,0.047291,-0.112426,0.022492
606,3194996734,-0.460405,0.432012,0.422464,-0.650321,0.061921,-0.113413,0.066575
607,3195030068,-0.460010,0.431387,0.422911,-0.650724,0.091342,-0.111237,0.075664
608,3195063402,-0.459334,0.430564,0.423569,-0.651319,0.071700,-0.090222,0.060220
609,3195096736,-0.458495,0.429672,0.424274,-0.652039,0.019834,-0.051147,0.072752
610,3195130070,-0.457633,0.428844,0.424971,-0.652736,-0.020511,-0.077790,0.106541
611,3195163404,-0.456724,0.427918,0.425749,-0.653473,-0.034683,-0.079264,0.081697
612,3195196738,-0.455964,0.426813,0.426581,-0.654183,-0.047413,-0.083098,0.104474
613,3195230072,-0.455375,0.425378,0.427576,-0.654878,-0.000472,-0.121876,0.134782
614,3195263406,-0.454804,0.423587,0.428820,-0.655622,0.015413,-0.068074,0.111034
615,3195296740,-0.454136,0.421909,0.430076,-0.656344,0.064190,-0.080978,0.037582
616,3195330074,-0.453346,0.420525,0.431232,-0.657019,0.119458,-0.056385,0.065881
617,3195363408,-0.452502,0.419338,0.432339,-0.657632,0.122560,-0.062647,0.040595
618,3195396742,-0.451502,0.418323,0.433396,-0.658270,0.140522,-0.075694,-0.079090
619,3195430076,-0.450389,0.417509,0.434355,-0.658916,0.091595,-0.060204,0.017694
620,3195463410,-0.449205,0.416655,0.435354,-0.659606,0.142682,-0.056693,0.091160
621,3195496744,-0.447768,0.415561,0.436523,-0.660500,0.137354,-0.002918,0.016277
622,3195530078,-0.446399,0.414769,0.437380,-0.661356,0.126314,0.126061,0.027073
623,3195563412,-0.445546,0.414900,0.437693,-0.661642,0.192366,0.126421,0.049921
624,3195596746,-0.444869,0.415173,0.438220,-0.661578,0.246541,0.045976,-0.090679
625,3195630080,-0.444337,0.415106,0.439404,-0.661192,0.274173,-0.009590,-0.062720
626,3195663414,-0.444158,0.414627,0.441301,-0.660349,0.247626,-0.157035,-0.048523
627,3195696748,-0.444193,0.413602,0.443798,-0.659294,0.214275,-0.255466,-0.020940
628,3195730082,-0.444445,0.412290,0.446448,-0.658156,0.140464,-0.374518,0.098277
629,3195763416,-0.444995,0.410984,0.448734,-0.657046,0.107851,-0.526442,0.143285
630,3195796750,-0.445755,0.409598,0.450422,-0.656240,0.107505,-0.629600,0.213884
631,3195830084,-0.446742,0.408021,0.451440,-0.655852,0.253252,-0.645574,0.381150
632,3195863418,-0.447651,0.406350,0.452026,-0.655866,0.442620,-0.607258,0.429050
633,3195896752,-0.448057,0.404778,0.452621,-0.656150,0.522380,-0.579045,0.377683
634,3195930086,-0.447412,0.403788,0.453210,-0.656793,0.556805,-0.614830,-0.125883
635,3195963420,-0.444723,0.402774,0.454321,-0.658472,0.596876,-0.668318,-0.302668
636,3195996754,-0.440089,0.400882,0.456301,-0.661365,0.532761,-0.472640,-0.144837
637,3196030088,-0.434773,0.398991,0.458371,-0.664586,0.483370,-0.260820,-0.038902
638,3196063422,-0.429306,0.398109,0.459647,-0.667779,0.353780,-0.104178,-0.051821
639,3196096756,-0.424077,0.399480,0.459007,-0.670736,0.128640,0.044153,-0.238839
640,3196130090,-0.419023,0.403306,0.456278,-0.673479,0.061221,0.077504,-0.357558
641,3196163424,-0.413429,0.407597,0.453014,-0.676549,-0.042474,0.123857,-0.223851
642,3196196758,-0.406287,0.409085,0.451186,-0.681183,-0.023646,-0.063597,0.097440
643,3196230092,-0.396628,0.402281,0.453569,-0.689297,-1.289241,0.321076,0.436736
644,3196263426,-0.389371,0.390780,0.457262,-0.697562,-2.466690,0.820807,0.604357
645,3196296760,-0.391236,0.387742,0.455968,-0.699059,-1.635836,1.112221,-0.088317
646,3196330094,-0.398940,0.393027,0.451591,-0.694580,-0.416177,0.628331,-0.161155
647,3196363428,-0.406824,0.398502,0.448065,-0.689150,0.028724,0.052120,-0.132190
648,3196396762,-0.412701,0.400891,0.446613,-0.685201,0.206693,-0.193239,-0.113763
649,3196430096,-0.416549,0.400865,0.446775,-0.682778,0.257480,-0.137849,-0.064752
650,3196463430,-0.419719,0.401179,0.446782,-0.680644,0.241478,-0.275918,0.206955
651,3196496764,-0.422178,0.401369,0.446494,-0.679199,0.347355,-0.399271,0.334342
652,3196530098,-0.423512,0.400119,0.446563,-0.679060,0.291000,-0.253485,0.135338
653,3196563432,-0.424475,0.399043,0.446327,-0.679247,0.196634,-0.070588,-0.071793
654,3196596766,-0.425658,0.399425,0.445039,-0.679128,0.188406,-0.117364,-0.064288
655,3196630100,-0.426428,0.399411,0.443893,-0.679402,0.117842,-0.110327,-0.059729
656,3196663434,-0.426614,0.398194,0.443327,-0.680369,0.038589,-0.030073,-0.131845
657,3196696768,-0.426935,0.397094,0.442511,-0.681342,-0.132172,0.132972,-0.067185
658,3196730102,-0.427948,0.397297,0.440795,-0.681699,-0.211081,0.240341,0.078083
659,3196763436,-0.430054,0.399262,0.437988,-0.681035,-0.246696,0.299830,0.212419
660,3196796770,-0.433048,0.402381,0.434763,-0.679366,-0.254471,0.401473,0.232389
661,3196830104,-0.437012,0.406928,0.431477,-0.676208,-0.159524,0.304662,0.162899
662,3196863438,-0.441097,0.411496,0.429049,-0.672325,-0.135033,0.045466,-0.070204
663,3196896772,-0.444942,0.414527,0.427913,-0.668643,-0.097970,-0.256583,0.105342
664,3196930106,-0.448274,0.414927,0.428488,-0.665795,-0.197341,-0.230693,0.149207
665,3196963440,-0.451493,0.414388,0.429686,-0.663179,-0.157980,-0.102814,0.114970
666,3196996774,-0.455090,0.414608,0.429836,-0.660480,-0.195210,-0.168277,0.287839
667,3197030108,-0.458594,0.415480,0.428662,-0.658267,-0.121831,-0.100385,0.331712
668,3197063442,-0.461516,0.417707,0.426165,-0.656435,0.050215,-0.172661,0.127230
669,3197096776,-0.463318,0.420143,0.423340,-0.655438,0.046640,-0.191075,0.175897
670,3197130110,-0.464500,0.422227,0.420409,-0.655148,-0.114392,-0.117180,0.130280
671,3197163444,-0.465953,0.424463,0.417181,-0.654735,-0.203804,-0.120482,0.053502
672,3197196778,-0.467596,0.426524,0.414181,-0.654128,-0.227160,-0.194730,-0.046782
673,3197230112,-0.469048,0.427842,0.411908,-0.653664,-0.322871,-0.211363,0.021561
674,3197263446,-0.470471,0.428847,0.409923,-0.653230,-0.342299,-0.291590,0.151630
675,3197296780,-0.471289,0.428861,0.408433,-0.653565,-0.261533,-0.238995,0.214120
676,3197330114,-0.471414,0.428100,0.407317,-0.654669,-0.170750,0.004227,0.084604
677,3197363448,-0.471373,0.427451,0.406260,-0.655778,0.046739,0.147116,0.107471
678,3197396782,-0.471279,0.426497,0.405615,-0.656865,0.089666,0.275429,-0.020878
679,3197430116,-0.471936,0.426481,0.404634,-0.657009,0.150110,0.343595,-0.190337
680,3197463450,-0.473290,0.427257,0.403336,-0.656329,0.060788,0.150923,-0.164690
681,3197496784,-0.474973,0.428418,0.402101,-0.655112,0.062961,0.059344,0.006417
682,3197530118,-0.476696,0.429718,0.400971,-0.653701,0.010107,0.014750,0.130433
683,3197563452,-0.478415,0.431467,0.399403,-0.652251,-0.115755,-0.101662,0.105050
684,3197596786,-0.479888,0.433553,0.397547,-0.650919,-0.100730,-0.203439,0.109781
685,3197630120,-0.480791,0.435228,0.396247,-0.649926,-0.064233,-0.246979,0.080317
686,3197663454,-0.480919,0.435869,0.395973,-0.649569,-0.008013,-0.160876,0.077938
687,3197696788,-0.480621,0.435956,0.396232,-0.649573,-0.003170,-0.149792,0.202825
688,3197730122,-0.479896,0.435300,0.397148,-0.649989,-0.025044,0.164043,0.178596
689,3197763456,-0.479174,0.435079,0.397898,-0.650211,-0.018170,0.130005,0.110929
690,3197796790,-0.478447,0.435727,0.398015,-0.650242,-0.078824,0.222864,-0.182363
691,3197830124,-0.477769,0.437558,0.397238,-0.649985,-0.024797,-0.020247,-0.204228
692,3197863458,-0.477450,0.439587,0.396331,-0.649404,-0.055488,-0.097329,-0.173988
693,3197896792,-0.478115,0.441490,0.395615,-0.648059,0.084626,-0.228357,-0.096166
694,3197930126,-0.479694,0.443312,0.395146,-0.645931,0.160175,-0.460327,0.023643
695,3197963460,-0.481197,0.444549,0.395195,-0.643930,0.106317,-0.568328,0.121306
696,3197996794,-0.481653,0.444626,0.395941,-0.643077,0.069960,-0.620141,0.272471
697,3198030128,-0.480387,0.442560,0.397955,-0.644205,-0.008246,-0.468017,0.250949
698,3198063462,-0.477676,0.438709,0.400872,-0.647040,-0.072639,-0.143841,0.132263
699,3198096796,-0.474700,0.434868,0.403551,-0.650151,-0.189581,0.113098,0.133221
700,3198130130,-0.472317,0.431686,0.405495,-0.652792,-0.164693,0.254265,0.042347
701,3198163464,-0.471325,0.430258,0.406037,-0.654113,-0.030682,0.317594,0.021280
702,3198196798,-0.471243,0.430052,0.405774,-0.654471,0.101302,0.315274,-0.049802
703,3198230132,-0.471223,0.430694,0.405204,-0.654416,0.081437,0.246546,-0.078339
704,3198263466,-0.471096,0.431887,0.404549,-0.654126,-0.009014,0.142645,-0.045549
705,3198296800,-0.471190,0.433189,0.403861,-0.653622,-0.123117,0.092625,0.036480
706,3198330134,-0.471948,0.434896,0.402776,-0.652611,-0.232257,-0.090567,0.092123
707,3198363468,-0.473211,0.436529,0.401506,-0.651388,-0.077555,-0.116120,0.105653
708,3198396802,-0.474365,0.437517,0.400994,-0.650199,-0.047727,-0.215484,0.012796
709,3198430136,-0.475264,0.437644,0.401101,-0.649391,-0.019909,-0.342900,0.045383
710,3198463470,-0.475923,0.436816,0.401714,-0.649086,-0.017658,-0.245060,-0.014201
711,3198496804,-0.476632,0.435904,0.402371,-0.648773,0.007776,-0.212413,0.050001
712,3198530138,-0.477247,0.434852,0.402933,-0.648678,-0.044468,-0.154149,0.121449
713,3198563472,-0.477540,0.433766,0.403465,-0.648858,-0.085533,-0.085523,0.194386
714,3198596806,-0.477260,0.432487,0.404167,-0.649481,-0.283951,0.052287,0.227595
715,3198630140,-0.476848,0.431841,0.404448,-0.650040,-0.281106,0.041853,0.302050
716,3198663474,-0.475962,0.431492,0.404713,-0.650755,-0.230185,0.000221,0.061699
717,3198696808,-0.474670,0.431927,0.404882,-0.651304,-0.050936,-0.117226,-0.042216
718,3198730142,-0.473049,0.432567,0.405226,-0.651845,0.049501,-0.210279,-0.094224
719,3198763476,-0.471019,0.432799,0.406293,-0.652496,0.106026,-0.260978,-0.083372
720,3198796810,-0.468022,0.431771,0.408741,-0.653804,-0.016172,-0.359164,-0.079824
721,3198830144,-0.463944,0.429248,0.412683,-0.655892,-0.262402,-0.242030,0.159060
722,3198863478,-0.459173,0.426404,0.417270,-0.658199,-0.397936,-0.119592,0.148409
723,3198896812,-0.453790,0.423929,0.421802,-0.660636,-0.341736,-0.125824,0.063848
724,3198930146,-0.447370,0.420869,0.427075,-0.663578,-0.248226,-0.085926,-0.041987
725,3198963480,-0.440168,0.416681,0.433587,-0.666806,-0.093458,-0.141911,0.095472
726,3198996814,-0.432273,0.410049,0.441626,-0.670794,-0.252075,-0.035782,0.078394
727,3199030148,-0.425251,0.403035,0.449230,-0.674475,-0.707752,0.210931,0.033431
728,3199063482,-0.421357,0.400548,0.453035,-0.675853,-0.198960,-0.164889,-0.001339
729,3199096816,-0.417190,0.397949,0.455988,-0.677984,0.158809,-0.157788,0.058682
730,3199130150,-0.412119,0.394592,0.458549,-0.681313,0.072094,0.022878,0.209398
731,3199163484,-0.407704,0.392685,0.459171,-0.684644,0.058492,0.244559,0.244522
732,3199196818,-0.404359,0.392798,0.457900,-0.687409,-0.155093,0.411471,0.107291
733,3199230152,-0.401631,0.394714,0.455593,-0.689440,-0.306877,0.401330,0.082941
734,3199263486,-0.399065,0.397371,0.453278,-0.690928,-0.318472,0.336429,0.023091
735,3199296820,-0.396769,0.399336,0.451844,-0.692056,-0.411157,0.342645,-0.026282
736,3199330154,-0.395662,0.401165,0.451075,-0.692133,-0.483072,0.235570,-0.018047
737,3199363488,-0.396085,0.403404,0.450400,-0.691030,-0.412463,0.025373,0.064814
738,3199396822,-0.397048,0.404622,0.450286,-0.689837,-0.213525,-0.187101,0.052166
739,3199430156,-0.397340,0.403030,0.451668,-0.689697,-0.097435,-0.226455,0.051132
740,3199463490,-0.396804,0.399202,0.454228,-0.690551,-0.122713,-0.221980,0.034040
741,3199496824,-0.396034,0.394901,0.456866,-0.691724,-0.095921,-0.170602,0.071964
742,3199530158,-0.395117,0.390952,0.459169,-0.692966,0.001106,-0.220136,0.252400
743,3199563492,-0.393933,0.387041,0.461095,-0.694555,0.082411,-0.243514,0.244552
744,3199596826,-0.392716,0.383706,0.462154,-0.696389,0.201638,-0.114382,-0.013216
745,3199630160,-0.391783,0.381738,0.462317,-0.697886,0.306071,-0.142478,-0.171640
746,3199663494,-0.390538,0.380182,0.462558,-0.699271,0.467183,-0.246703,-0.349787
747,3199696828,-0.388188,0.377645,0.463814,-0.701121,0.533589,-0.247308,-0.516795
748,3199730162,-0.384839,0.373895,0.466247,-0.703359,0.634464,-0.155391,-0.345148
749,3199763496,-0.381247,0.369131,0.469625,-0.705581,0.737249,-0.004852,0.065425
750,3199796830,-0.378247,0.363986,0.473509,-0.707271,0.777313,0.154306,0.524260
751,3199830164,-0.376356,0.360317,0.476683,-0.708025,0.734595,0.255862,0.478040
752,3199863498,-0.374862,0.359805,0.478608,-0.707781,0.720623,0.264017,0.505204
753,3199896832,-0.372300,0.361824,0.479751,-0.707329,0.518580,0.001787,0.051651
754,3199930166,-0.367749,0.364811,0.480669,-0.707552,0.454257,-0.045129,-0.432320
755,3199963500,-0.361790,0.367683,0.482003,-0.708230,0.136159,-0.188120,-0.480402
756,3199996834,-0.356570,0.370484,0.483166,-0.708626,0.018865,-0.024713,-0.580916
757,3200030168,-0.353798,0.373641,0.484613,-0.707367,-0.098457,0.061314,0.049733
758,3200063502,-0.353216,0.375609,0.487308,-0.704759,-0.201437,-0.206751,0.430577
759,3200096836,-0.352723,0.374926,0.491598,-0.702387,-0.410848,-0.316883,0.184623
760,3200130170,-0.351582,0.372968,0.496299,-0.700693,-0.559073,-0.360073,0.030091
761,3200163504,-0.351345,0.371219,0.500184,-0.698977,-0.340317,-0.443547,0.181564
762,3200196838,-0.352494,0.369054,0.503124,-0.697433,-0.059512,-0.521011,0.011996
763,3200230172,-0.354357,0.365952,0.505680,-0.696274,0.071258,-0.444090,0.068019
764,3200263506,-0.357081,0.363200,0.507564,-0.694951,0.199871,-0.281395,0.310228
765,3200296840,-0.359778,0.361626,0.508570,-0.693644,0.384786,-0.213093,0.398260
766,3200330174,-0.361212,0.360822,0.508932,-0.693052,0.452017,-0.227683,0.255466
767,3200363508,-0.361388,0.361160,0.508499,-0.693102,0.416139,-0.251870,0.056986
768,3200396842,-0.360866,0.362628,0.507103,-0.693630,0.436507,-0.212163,-0.075981
769,3200430176,-0.360213,0.364594,0.504904,-0.694542,0.410643,-0.111270,0.066459
770,3200463510,-0.360327,0.367328,0.501833,-0.695267,0.246219,0.046265,0.056870
771,3200496844,-0.361584,0.371953,0.497862,-0.695011,0.215564,0.080297,-0.111743
772,3200530178,-0.362168,0.376940,0.494744,-0.694246,0.176876,-0.165943,-0.177949
773,3200563512,-0.360847,0.379285,0.494268,-0.693996,0.006258,-0.390589,-0.010954
774,3200596846,-0.357958,0.378004,0.496221,-0.694797,-0.111795,-0.264364,0.032500
775,3200630180,-0.355330,0.374883,0.498978,-0.695861,-0.173354,-0.207176,0.055148
776,3200663514,-0.354044,0.371871,0.501010,-0.696674,-0.238543,-0.187560,0.072847
777,3200696848,-0.354543,0.370374,0.501201,-0.697079,-0.206000,-0.072868,0.158957
778,3200730182,-0.356978,0.371350,0.499219,-0.696739,-0.125834,-0.033336,0.265872
779,3200763516,-0.360218,0.373846,0.496028,-0.696016,0.041560,-0.022539,0.255080
780,3200796850,-0.363100,0.376418,0.492725,-0.695477,0.127619,0.042387,0.018007
781,3200830184,-0.365606,0.378412,0.490179,-0.694881,0.168401,0.013001,-0.021998
782,3200863518,-0.368439,0.379860,0.488268,-0.693940,0.125986,-0.005080,-0.192677
783,3200896852,-0.372021,0.381438,0.486410,-0.692467,0.104010,0.019322,-0.228052
784,3200930186,-0.376605,0.383858,0.484016,-0.690325,0.065991,-0.072207,-0.191303
785,3200963520,-0.382037,0.386939,0.481172,-0.687603,0.176016,-0.115256,0.034319
786,3200996854,-0.387430,0.389586,0.478813,-0.684731,0.204560,-0.197449,0.391043
787,3201030188,-0.391840,0.391636,0.477210,-0.682168,0.166119,-0.220383,0.316834
788,3201063522,-0.394198,0.393080,0.476365,-0.680567,0.151985,-0.325254,0.243540
789,3201096856,-0.394256,0.393385,0.476084,-0.680554,0.131237,-0.102917,0.128881
790,3201130190,-0.393983,0.394267,0.475232,-0.680797,-0.041071,0.055117,0.003469
791,3201163524,-0.394647,0.396923,0.473181,-0.680297,-0.049658,0.003892,-0.106209
792,3201196858,-0.396005,0.400314,0.470484,-0.679391,-0.152820,-0.012651,-0.077544
793,3201230192,-0.398090,0.403710,0.467644,-0.678123,-0.280030,-0.069112,0.119298
794,3201263526,-0.400782,0.406444,0.464956,-0.676751,-0.447781,-0.217881,0.145278
795,3201296860,-0.403453,0.408376,0.462424,-0.675736,-0.490286,-0.200758,0.079892
796,3201330194,-0.405785,0.409598,0.460139,-0.675159,-0.466366,-0.219347,0.014476
797,3201363528,-0.407734,0.409656,0.458434,-0.675109,-0.257926,-0.186249,-0.032778
798,3201396862,-0.409729,0.408900,0.457342,-0.675100,-0.094581,-0.147282,-0.086464
799,3201430196,-0.411638,0.407786,0.456919,-0.674900,0.015112,-0.151517,-0.039335
800,3201463530,-0.413021,0.406565,0.456897,-0.674805,0.119286,-0.143508,-0.030597
801,3201496864,-0.413487,0.405356,0.457019,-0.675165,0.189665,-0.097823,0.029748
802,3201530198,-0.412939,0.404451,0.457144,-0.675958,0.176615,-0.073432,-0.008204
803,3201563532,-0.411566,0.404074,0.457305,-0.676911,0.175578,-0.058423,-0.113925
804,3201596866,-0.409638,0.403749,0.457751,-0.677973,0.140775,-0.082341,-0.111053
805,3201630200,-0.407377,0.403021,0.458654,-0.679157,0.068854,-0.088713,-0.072025
806,3201663534,-0.405027,0.401943,0.459889,-0.680365,-0.011692,-0.065525,0.013126
807,3201696868,-0.402718,0.400668,0.461218,-0.681587,-0.035529,-0.039715,0.116871
808,3201730202,-0.400459,0.399316,0.462452,-0.682874,-0.078250,-0.007156,0.232051
809,3201763536,-0.398417,0.398121,0.463302,-0.684189,-0.113756,0.065022,0.238731
810,3201796870,-0.396924,0.397510,0.463545,-0.685246,-0.145288,0.113435,0.165082
811,3201830204,-0.396184,0.397734,0.463117,-0.685834,-0.181122,0.045519,0.055459
812,3201863538,-0.395924,0.398271,0.462332,-0.686202,-0.151725,0.032873,-0.038941
813,3201896872,-0.395994,0.398702,0.461409,-0.686531,-0.131917,0.012846,-0.123683
814,3201930206,-0.396304,0.398706,0.460707,-0.686823,-0.032914,0.006853,-0.094515
815,3201963540,-0.396779,0.398086,0.460517,-0.687036,0.084883,0.038427,0.043009
816,3201996874,-0.397007,0.396926,0.460924,-0.687301,0.147766,0.081480,0.047039
817,3202030208,-0.396878,0.395821,0.461627,-0.687541,0.163703,0.102991,0.019513
818,3202063542,-0.396441,0.395172,0.462373,-0.687665,0.158914,0.037583,0.014630
819,3202096876,-0.395803,0.394818,0.463145,-0.687717,0.123200,-0.069067,0.020146
820,3202130210,-0.395197,0.394595,0.463886,-0.687694,0.077380,-0.111733,0.020262
821,3202163544,-0.394741,0.394472,0.464535,-0.687588,0.023416,-0.179704,0.026989
822,3202196878,-0.394226,0.394283,0.465166,-0.687565,0.012559,-0.220353,0.038336
823,3202230212,-0.393576,0.393868,0.465863,-0.687704,0.031202,-0.228897,0.107940
824,3202263546,-0.392712,0.393175,0.466665,-0.688050,0.002326,-0.240632,0.110452
825,3202296880,-0.391723,0.392453,0.467371,-0.688547,0.004853,-0.208501,0.056931
826,3202330214,-0.390787,0.391962,0.467813,-0.689059,0.009634,-0.213018,0.097635
827,3202363548,-0.389820,0.391458,0.468191,-0.689636,0.014543,-0.190815,0.160381
828,3202396882,-0.388813,0.390843,0.468540,-0.690315,0.011045,-0.139567,0.099006
829,3202430216,-0.387925,0.390429,0.468760,-0.690899,-0.005607,-0.096679,0.088901
830,3202463550,-0.387224,0.390237,0.468968,-0.691260,0.063151,-0.117117,0.030949
831,3202496884,-0.386468,0.389852,0.469557,-0.691500,0.142103,-0.143269,-0.078727
832,3202530218,-0.385730,0.389174,0.470687,-0.691527,0.232255,-0.144684,-0.110026
833,3202563552,-0.384835,0.388267,0.472428,-0.691347,0.350476,-0.222059,-0.159731
834,3202596886,-0.383244,0.386727,0.474986,-0.691342,0.443747,-0.168510,-0.167245
835,3202630220,-0.380971,0.384539,0.478218,-0.691590,0.422617,-0.206643,-0.087786
836,3202663554,-0.378698,0.382109,0.481452,-0.691942,0.373514,-0.178700,0.070351
837,3202696888,-0.377473,0.380709,0.483367,-0.692047,0.238341,-0.143016,0.027632
838,3202730222,-0.377741,0.381556,0.482876,-0.691778,0.194001,-0.082310,0.032592
839,3202763556,-0.378979,0.384777,0.480277,-0.691126,0.170889,-0.124817,0.196033
840,3202796890,-0.380244,0.388483,0.477151,-0.690522,0.186982,-0.109258,0.401579
841,3202830224,-0.381570,0.391399,0.474623,-0.689887,0.187114,-0.072039,0.483237
842,3202863558,-0.383186,0.393018,0.473179,-0.689062,0.196095,-0.169443,0.323547
843,3202896892,-0.384653,0.392472,0.473123,-0.688594,0.228539,-0.202603,0.185087
844,3202930226,-0.386133,0.390376,0.473906,-0.688419,0.260653,-0.285014,0.131316
845,3202963560,-0.387764,0.387240,0.474994,-0.688523,0.321509,-0.294325,0.049812
846,3202996894,-0.390320,0.383651,0.475933,-0.688440,0.598358,-0.081304,0.649529
847,3203030228,-0.394348,0.380401,0.476495,-0.687558,0.691508,-0.071548,0.835579
848,3203063562,-0.398671,0.378651,0.476287,-0.686173,0.725093,-0.227364,-0.200559
849,3203096896,-0.401297,0.378884,0.475105,-0.685334,0.795065,-0.490600,-0.862237
850,3203130230,-0.400502,0.378834,0.474350,-0.686348,0.973527,-0.567694,-0.682451
851,3203163564,-0.396203,0.376297,0.475634,-0.689343,0.941591,-0.365708,-0.201192
852,3203196898,-0.389806,0.371526,0.479061,-0.693195,0.795869,-0.134826,0.290836
853,3203230232,-0.383664,0.367776,0.482145,-0.696475,0.506287,0.209380,0.104176
854,3203263566,-0.378587,0.368275,0.482923,-0.698448,0.359516,0.087198,-0.467920
855,3203296900,-0.372532,0.371865,0.482173,-0.700317,0.379566,-0.185786,-0.999223
856,3203330234,-0.361086,0.371509,0.483497,-0.705569,0.667734,-0.725034,-0.569287
857,3203363568,-0.345817,0.358157,0.489693,-0.715775,-3.900808,0.616224,0.600295