sep=,
DeviceTag:,R_Wrist_n
FirmwareVersion:,2.2.1
AppVersion:,2023.6.0
SyncStatus:,Synced
OutputRate:,30Hz
FilterProfile:,General
Measurement Mode:,Sensor fusion Mode - Complete(Quaternion)
StartTime: ,2026-08-21_20:45:13_194 AEST
© Movella Technologies B. V. 2005-2026

PacketCounter,SampleTimeFine,Quat_W,Quat_X,Quat_Y,Quat_Z,FreeAcc_X,FreeAcc_Y,FreeAcc_Z
1,452080956,-0.344867,-0.528661,0.414694,-0.655449,-0.175325,-0.086832,0.318399
2,452114290,-0.338631,-0.526699,0.416351,-0.659219,-0.373022,-0.207411,0.254557
3,452147624,-0.332724,-0.525086,0.417644,-0.662687,-0.577413,-0.321269,0.152328
4,452180958,-0.327714,-0.524048,0.418391,-0.665527,-0.713474,-0.423060,0.045010
5,452214292,-0.324134,-0.523718,0.418567,-0.667427,-0.789372,-0.498040,-0.049726
6,452247626,-0.322354,-0.524087,0.418251,-0.668197,-0.830621,-0.509512,-0.133864
7,452280960,-0.322551,-0.525031,0.417612,-0.667760,-0.708602,-0.453960,-0.067630
8,452314294,-0.324457,-0.526539,0.416422,-0.666391,-0.488405,-0.320255,0.005782
9,452347628,-0.327570,-0.528407,0.414776,-0.664413,-0.303939,-0.175202,0.066608
10,452380962,-0.331425,-0.530472,0.412880,-0.662032,-0.083159,-0.019893,0.117628
11,452414296,-0.335622,-0.532632,0.410742,-0.659509,0.118249,0.097934,0.199615
12,452447630,-0.339904,-0.534661,0.408509,-0.657057,0.284763,0.217224,0.245031
13,452480964,-0.344075,-0.536267,0.406594,-0.654761,0.362301,0.372079,0.327075
14,452514298,-0.347798,-0.537451,0.405132,-0.652726,0.548791,0.413097,0.396417
15,452547632,-0.350363,-0.538529,0.403660,-0.651377,0.694005,0.476579,0.377699
16,452580966,-0.351378,-0.539405,0.402236,-0.650986,0.707359,0.503402,0.375430
17,452614300,-0.350756,-0.539798,0.401237,-0.651612,0.625303,0.472388,0.412278
18,452647634,-0.348755,-0.539475,0.400866,-0.653180,0.446130,0.386080,0.384381
19,452680968,-0.345866,-0.538459,0.401220,-0.655334,0.250607,0.299503,0.303656
20,452714302,-0.342299,-0.537032,0.401931,-0.657936,0.105858,0.192760,0.295159
21,452747636,-0.338218,-0.535531,0.402565,-0.660876,-0.096865,0.076513,0.243118
22,452780970,-0.333903,-0.534001,0.403055,-0.664002,-0.320522,-0.040045,0.172978
23,452814304,-0.329867,-0.532319,0.403653,-0.667000,-0.539410,-0.163301,0.151423
24,452847638,-0.326585,-0.530525,0.404396,-0.669589,-0.705101,-0.259243,0.099799
25,452880972,-0.324423,-0.528593,0.405366,-0.671579,-0.876712,-0.335971,-0.000493
26,452914306,-0.323748,-0.526521,0.406820,-0.672652,-0.975609,-0.389740,-0.030142
27,452947640,-0.324599,-0.524693,0.408430,-0.672695,-0.958852,-0.419868,0.028989
28,452980974,-0.326959,-0.523437,0.409793,-0.671701,-0.962451,-0.430470,0.072997
29,453014308,-0.330889,-0.522467,0.411223,-0.669654,-0.836791,-0.404746,0.007075
30,453047642,-0.336145,-0.521370,0.412937,-0.666831,-0.618409,-0.295844,0.023490
31,453080976,-0.342090,-0.520235,0.414603,-0.663653,-0.427161,-0.196864,0.070007
32,453114310,-0.348328,-0.519340,0.416004,-0.660223,-0.215717,-0.092311,0.146975
33,453147644,-0.354397,-0.518820,0.417060,-0.656726,-0.081949,-0.003434,0.101838
34,453180978,-0.360102,-0.518496,0.418097,-0.653210,0.001274,0.058312,0.243563
35,453214312,-0.365377,-0.518268,0.419117,-0.649799,0.126847,0.052317,0.304845
36,453247646,-0.370283,-0.517742,0.420473,-0.646558,0.185757,0.104259,0.158966
37,453280980,-0.374808,-0.516622,0.422578,-0.643467,0.322149,0.106780,0.045448
38,453314314,-0.378644,-0.515407,0.424929,-0.640640,0.447248,0.060137,0.025771
39,453347648,-0.381493,-0.514783,0.426751,-0.638236,0.487452,0.025418,0.081494
40,453380982,-0.383468,-0.514709,0.428005,-0.636269,0.490794,-0.028017,0.142732
41,453414316,-0.384795,-0.514798,0.429002,-0.634724,0.511682,-0.117008,0.202843
42,453447650,-0.385450,-0.514795,0.429721,-0.633842,0.482752,-0.144655,0.276674
43,453480984,-0.385495,-0.514503,0.430144,-0.633763,0.349870,-0.152730,0.287738
44,453514318,-0.385195,-0.513854,0.430582,-0.634176,0.183228,-0.133560,0.355374
45,453547652,-0.384738,-0.512987,0.430942,-0.634909,0.010987,-0.101578,0.395723
46,453580986,-0.384214,-0.512088,0.430996,-0.635916,-0.096361,-0.081289,0.345496
47,453614320,-0.383584,-0.511568,0.430228,-0.637233,-0.279968,-0.109858,0.332455
48,453647654,-0.383150,-0.511284,0.429366,-0.638302,-0.448241,-0.069121,0.268319
49,453680988,-0.383113,-0.511122,0.428704,-0.638900,-0.436631,-0.003330,0.156803
50,453714322,-0.383412,-0.511248,0.427817,-0.639213,-0.468069,0.030023,0.111761
51,453747656,-0.384073,-0.511939,0.426540,-0.639117,-0.484125,0.019808,0.163625
52,453780990,-0.385189,-0.513073,0.424926,-0.638611,-0.453840,-0.002256,0.100155
53,453814324,-0.387078,-0.513546,0.423709,-0.637897,-0.489869,-0.080483,-0.093165
54,453847658,-0.390012,-0.512129,0.425315,-0.636178,-0.420535,0.009914,-0.259008
55,453880992,-0.393214,-0.509916,0.429595,-0.633101,-0.171644,0.135285,-0.086805
56,453914326,-0.396388,-0.507544,0.435466,-0.629004,0.117997,-0.206200,0.058385
57,453947660,-0.400205,-0.503967,0.443942,-0.623514,0.331225,-0.667313,0.339742
58,453980994,-0.406730,-0.495202,0.460090,-0.614543,1.400544,-1.761885,1.269970
59,454014328,-0.415474,-0.474955,0.486732,-0.604062,2.092221,-0.869451,1.656002
60,454047662,-0.426368,-0.433502,0.531089,-0.590111,3.312881,-0.788163,2.138330
61,454080996,-0.429315,-0.376540,0.582661,-0.578284,7.211862,-1.070117,5.757703
62,454114330,-0.414128,-0.319599,0.619497,-0.585303,7.271945,-1.161217,7.869387
63,454147664,-0.379619,-0.266897,0.642748,-0.609534,3.946286,-0.247441,7.636951
64,454180998,-0.330176,-0.213948,0.660388,-0.639608,1.636282,0.215771,7.679893
65,454214332,-0.268793,-0.161495,0.665683,-0.677154,-0.285068,1.197150,7.245993
66,454247666,-0.201464,-0.108711,0.653203,-0.721748,-3.468669,2.341466,6.247784
67,454281000,-0.128620,-0.050791,0.636555,-0.758733,-5.621221,2.621996,0.307190
68,454314334,-0.049217,0.010825,0.630610,-0.774462,-5.376593,1.554286,-4.197164
69,454347668,0.025119,0.065598,0.631701,-0.772024,-4.639661,0.630908,-6.921247
70,454381002,0.087447,0.105872,0.633396,-0.761547,-2.943482,-1.325131,-9.152471
71,454414336,0.137090,0.130934,0.633893,-0.749828,-1.711747,-1.511312,-8.847643
72,454447670,0.172456,0.143169,0.634373,-0.739820,-0.934834,-0.867243,-8.233521
73,454481004,0.194214,0.147252,0.637608,-0.730790,-1.177373,-0.532745,-5.758386
74,454514338,0.207186,0.147172,0.644334,-0.721282,-1.023870,-0.349331,-3.585120
75,454547672,0.214597,0.147042,0.651314,-0.712824,-0.745030,-0.353278,-1.047884
76,454581006,0.217822,0.149624,0.655034,-0.707882,-0.365200,-0.467719,0.391914
77,454614340,0.220614,0.154184,0.660104,-0.701299,-0.320915,-0.704004,0.144524
78,454647674,0.223564,0.161777,0.664647,-0.694328,-0.250367,-1.136188,0.299043
79,454681008,0.223777,0.170714,0.666360,-0.690467,-0.098288,-1.768506,0.155939
80,454714342,0.220817,0.178550,0.665926,-0.689857,0.017395,-0.830896,-0.592973
81,454747676,0.217901,0.186090,0.666676,-0.688065,-0.447912,-0.233336,0.157071
82,454781010,0.215937,0.193152,0.667326,-0.686105,-0.376979,-0.236652,0.319286
83,454814344,0.214055,0.199568,0.666549,-0.685613,-0.372242,0.183369,0.238841
84,454847678,0.210661,0.208200,0.666484,-0.684159,0.216177,0.362290,-0.479315
85,454881012,0.208046,0.218674,0.670321,-0.677915,-0.219710,-0.083267,0.271986
86,454914346,0.204722,0.229657,0.672115,-0.673504,0.018893,-0.408203,0.419148
87,454947680,0.202458,0.239189,0.673237,-0.669740,0.015912,0.048761,0.515864
88,454981014,0.201129,0.247971,0.672790,-0.667391,-0.057810,0.053038,0.553138
89,455014348,0.199475,0.256219,0.670184,-0.667395,0.182332,-0.115457,-0.045321
90,455047682,0.200491,0.261535,0.668117,-0.667101,-0.150562,-0.195440,0.617721
91,455081016,0.203545,0.264809,0.663993,-0.668998,0.094400,-0.052022,0.113985
92,455114350,0.206428,0.267937,0.658576,-0.672216,0.038566,0.596599,-0.210885
93,455147684,0.209520,0.271775,0.653903,-0.674278,-0.042989,-0.163938,-0.017070
94,455181018,0.211781,0.275811,0.647273,-0.678318,0.286345,-0.378569,-0.644627
95,455214352,0.213322,0.278006,0.644223,-0.679841,0.430319,-0.255198,-1.153348
96,455247686,0.214581,0.279920,0.643614,-0.679236,-0.211410,-0.133058,-0.200298
97,455281020,0.214072,0.282510,0.641259,-0.680550,0.002093,-0.243087,0.113393
98,455314354,0.215289,0.284290,0.639482,-0.681097,-0.070219,0.157644,0.342004
99,455347688,0.219181,0.287084,0.637447,-0.680591,-0.253361,0.196240,1.128506
100,455381022,0.226171,0.290697,0.635607,-0.678488,-0.134380,0.190028,0.978855
101,455414356,0.235202,0.293214,0.634203,-0.675642,0.430710,-0.023162,0.071673
102,455447690,0.243381,0.294492,0.633371,-0.672965,0.695901,-0.376110,-1.420725
103,455481024,0.249226,0.294756,0.635112,-0.669058,0.546599,-0.049432,-1.890434
104,455514358,0.252277,0.295798,0.636149,-0.666465,0.296475,0.510781,-0.670211
105,455547692,0.255947,0.295853,0.638971,-0.662328,0.714997,0.796566,-0.463540
106,455581026,0.261206,0.295243,0.644577,-0.655075,0.292391,0.024496,0.259094
107,455614360,0.263336,0.294788,0.649571,-0.649471,0.782761,-0.679393,-0.131067
108,455647694,0.263706,0.293627,0.655617,-0.643747,0.117071,-0.692982,-0.448706
109,455681028,0.262319,0.292308,0.661965,-0.638394,-0.349616,-0.433928,-0.290126
110,455714362,0.258009,0.292239,0.666346,-0.635619,-0.573106,-0.377019,0.219703
111,455747696,0.251447,0.294342,0.667690,-0.635868,-0.256258,-0.400711,0.564283
112,455781030,0.244624,0.297630,0.666342,-0.638407,0.278380,-0.365275,0.267557
113,455814364,0.237376,0.300341,0.663900,-0.642406,0.690776,0.022435,-0.443865
114,455847698,0.228814,0.300916,0.662020,-0.647166,0.864238,0.610478,-1.029158
115,455881032,0.218876,0.298992,0.661803,-0.651701,1.174968,0.814193,-1.229483
116,455914366,0.208103,0.291813,0.663871,-0.656365,2.279013,1.565264,-1.801045
117,455947700,0.209494,0.272936,0.681586,-0.645801,-0.322169,1.231117,0.766741
118,455981034,0.215122,0.253265,0.699639,-0.632523,-0.799192,-0.133736,2.994527
119,456014368,0.216506,0.242745,0.703912,-0.631433,-0.982190,0.004686,3.368451
120,456047702,0.216762,0.239590,0.695528,-0.641758,-0.184186,-0.378088,1.869974
121,456081036,0.221955,0.237576,0.689432,-0.647286,0.498538,-0.397422,0.648744
122,456114370,0.228073,0.236223,0.686303,-0.648976,0.229787,-0.491063,0.219194
123,456147704,0.231294,0.236946,0.682168,-0.651926,0.060817,-0.670334,-0.017388
124,456181038,0.232116,0.239397,0.676922,-0.656193,0.075461,-0.889606,-0.132507
125,456214372,0.230590,0.242969,0.669793,-0.662701,0.505768,0.207953,-0.396665
126,456247706,0.228173,0.246692,0.664158,-0.667814,1.181909,0.716700,-1.322376
127,456281040,0.227086,0.250037,0.662926,-0.668164,0.804262,0.549228,-0.996330
128,456314374,0.224398,0.252575,0.663207,-0.667839,0.252987,0.500778,-0.648590
129,456347708,0.222296,0.254802,0.664591,-0.666318,-0.487353,-0.072024,0.668473
130,456381042,0.220118,0.259094,0.662388,-0.667578,-0.765043,-0.955303,1.191612
131,456414376,0.216643,0.265478,0.654611,-0.673849,-0.736692,-0.816568,0.981926
132,456447710,0.212823,0.272045,0.645104,-0.681571,0.017188,-0.075942,-0.105778
133,456481044,0.207459,0.277585,0.634895,-0.690519,-0.062802,-0.338485,-1.494794
134,456514378,0.199171,0.279768,0.625824,-0.700290,0.549279,0.271324,-2.256051
135,456547712,0.193016,0.279632,0.624137,-0.703565,-0.613540,0.990865,-0.491947
136,456581046,0.186866,0.279666,0.622234,-0.706890,-0.908165,-0.078571,-0.527370
137,456614380,0.178344,0.279427,0.619166,-0.711862,-0.511749,-0.977150,-1.465723
138,456647714,0.166476,0.278774,0.618491,-0.715570,-0.646691,-0.451601,-1.626605
139,456681048,0.149978,0.279209,0.621434,-0.716498,-0.945694,-0.290996,-1.438651
140,456714382,0.127819,0.280439,0.625947,-0.716385,-0.892046,-1.130768,-2.373982
141,456747716,0.097803,0.280557,0.629520,-0.717932,-1.463276,-1.255241,-3.162220
142,456781050,0.057496,0.277141,0.631896,-0.721523,-1.230390,-1.312368,-4.523808
143,456814384,0.006906,0.268889,0.633653,-0.725352,-1.467979,-0.371803,-4.722704
144,456847718,-0.053108,0.254719,0.637718,-0.724992,-1.839884,0.148897,-4.538850
145,456881052,-0.120189,0.234537,0.644565,-0.717693,-1.950770,1.341398,-4.260904
146,456914386,-0.191590,0.209426,0.651928,-0.703154,-2.161860,2.329988,-3.478559
147,456947720,-0.266614,0.177912,0.653486,-0.685726,-2.664738,2.329759,-2.882307
148,456981054,-0.343081,0.136641,0.646294,-0.667779,-2.191878,3.548970,-1.821483
149,457014388,-0.418930,0.086093,0.624912,-0.653124,-1.599992,5.572777,2.219017
150,457047722,-0.486825,0.030727,0.592611,-0.640992,-1.977110,3.724857,3.724829
151,457081056,-0.534741,-0.028875,0.572816,-0.620565,-1.867313,1.679599,3.567515
152,457114390,-0.566697,-0.091533,0.574778,-0.583187,-0.094311,2.108083,4.498454
153,457147724,-0.589977,-0.160287,0.584324,-0.533667,0.713189,0.827819,5.731155
154,457181058,-0.604970,-0.236958,0.588248,-0.481485,2.534955,-0.945062,6.696463
155,457214392,-0.605352,-0.325069,0.576320,-0.442418,4.913056,-2.984778,5.685305
156,457247726,-0.585611,-0.420390,0.547731,-0.424646,5.984100,-3.715183,4.148488
157,457281060,-0.554669,-0.498329,0.514204,-0.423798,4.028276,-2.417317,1.985415
158,457314394,-0.530065,-0.541071,0.495344,-0.425334,1.035879,-1.931902,0.991001
159,457347728,-0.522903,-0.546824,0.498297,-0.423386,0.764286,-2.511417,0.465125
160,457381062,-0.529834,-0.526847,0.514806,-0.420339,1.565489,-2.852329,0.181872
161,457414396,-0.544140,-0.493488,0.534752,-0.417640,2.732736,-3.242877,0.021006
162,457447730,-0.558334,-0.459341,0.549988,-0.418071,3.428384,-3.412392,-0.131568
163,457481064,-0.567756,-0.432537,0.557138,-0.424456,3.045758,-3.082364,-0.256392
164,457514398,-0.570498,-0.414392,0.558072,-0.437455,2.325150,-2.392780,-0.021044
165,457547732,-0.566685,-0.402431,0.555887,-0.455969,1.444213,-1.373536,0.533958
166,457581066,-0.558440,-0.393075,0.552561,-0.477821,1.092144,-0.426055,1.054778
167,457614400,-0.547190,-0.384759,0.547109,-0.503207,0.215390,0.474676,1.182048
168,457647734,-0.535522,-0.375589,0.541289,-0.528352,-0.664346,1.078604,0.994702
169,457681068,-0.524957,-0.364036,0.537336,-0.550608,-1.088976,1.435123,0.515158
170,457714402,-0.515843,-0.351054,0.535647,-0.568990,-1.297948,1.601787,0.072346
171,457747736,-0.508121,-0.338748,0.535011,-0.583803,-1.436528,1.765921,-0.316777
172,457781070,-0.501714,-0.328874,0.534211,-0.595604,-1.615808,1.895164,-0.600012
173,457814404,-0.496654,-0.322112,0.533088,-0.604480,-1.863638,2.037608,-0.853967
174,457847738,-0.493184,-0.318311,0.532556,-0.609781,-1.977012,2.103305,-0.959875
175,457881072,-0.491269,-0.317395,0.533098,-0.611329,-1.950141,1.986981,-1.101954
176,457914406,-0.490583,-0.319190,0.535063,-0.609224,-1.806686,1.763736,-1.127871
177,457947740,-0.491014,-0.323750,0.538187,-0.603694,-1.649809,1.501891,-0.790220
178,457981074,-0.492559,-0.331747,0.541045,-0.595483,-1.431749,1.215879,-0.234406
179,458014408,-0.495049,-0.343575,0.542257,-0.585526,-1.196128,0.929517,0.243524
180,458047742,-0.498362,-0.357983,0.541950,-0.574260,-0.939209,0.659742,0.502316
181,458081076,-0.502507,-0.372678,0.541196,-0.561877,-0.615290,0.357075,0.655315
182,458114410,-0.507663,-0.385617,0.540900,-0.548640,-0.270387,0.140922,0.837894
183,458147744,-0.513993,-0.395523,0.541172,-0.535263,0.049046,-0.000445,0.968130
184,458181078,-0.521742,-0.401406,0.542508,-0.521866,0.306763,-0.167297,0.925723
185,458214412,-0.530869,-0.402791,0.545595,-0.508197,0.740931,-0.388709,0.794085
186,458247746,-0.540681,-0.400488,0.549977,-0.494772,1.133460,-0.566461,0.521848
187,458281080,-0.550097,-0.396303,0.554533,-0.482526,1.476938,-0.771201,0.365820
188,458314414,-0.558203,-0.392033,0.558130,-0.472452,1.710037,-0.908090,0.224297
189,458347748,-0.564560,-0.388606,0.560334,-0.465062,1.817427,-0.914963,0.176221
190,458381082,-0.569239,-0.385913,0.561320,-0.460390,1.815465,-0.861969,0.190378
191,458414416,-0.572636,-0.382871,0.562014,-0.457863,1.741484,-0.759107,0.190928
192,458447750,-0.574979,-0.378635,0.563020,-0.457213,1.670268,-0.658831,0.273843
193,458481084,-0.576418,-0.372978,0.564270,-0.458509,1.410025,-0.499957,0.252196
194,458514418,-0.576807,-0.366044,0.565831,-0.461673,1.328887,-0.430320,0.353558
195,458547752,-0.576001,-0.358518,0.567766,-0.466188,0.986212,-0.191953,0.260931
196,458581086,-0.574009,-0.350844,0.569785,-0.471983,0.711083,-0.046550,0.315590
197,458614420,-0.570872,-0.343690,0.571672,-0.478722,0.391476,0.181960,0.133685
198,458647754,-0.566806,-0.337298,0.573818,-0.485483,0.030605,0.326793,0.057715
199,458681088,-0.561883,-0.332688,0.576109,-0.491635,-0.199923,0.245582,-0.240356
200,458714422,-0.555785,-0.332026,0.577520,-0.497326,-0.243489,-0.196234,-0.694914
201,458747756,-0.548622,-0.337212,0.576760,-0.502644,-0.380107,-0.581862,-0.509871
202,458781090,-0.541096,-0.347947,0.572942,-0.507825,-0.515142,-0.651792,0.056690
203,458814424,-0.534215,-0.361528,0.566205,-0.513152,-0.559392,-0.698778,0.530511
204,458847758,-0.529134,-0.374168,0.557816,-0.518515,-0.700622,-0.334690,0.974937
205,458881092,-0.527395,-0.381309,0.550536,-0.522846,-0.913965,-0.000641,1.156854
206,458914426,-0.529890,-0.379527,0.547424,-0.524884,-0.914670,0.234900,0.774927
207,458947760,-0.535782,-0.369502,0.548918,-0.524496,-0.516150,0.267067,0.435772
208,458981094,-0.543397,-0.355330,0.552563,-0.522624,-0.214866,0.345018,0.027351
209,459014428,-0.551261,-0.341127,0.556235,-0.519948,0.016678,0.418796,-0.282461
210,459047762,-0.558486,-0.329683,0.559012,-0.516632,0.198960,0.452773,-0.431787
211,459081096,-0.564188,-0.323053,0.560331,-0.513185,0.436817,0.391973,-0.380997
212,459114430,-0.567845,-0.321874,0.559948,-0.510301,0.577062,0.339269,-0.272625
213,459147764,-0.569425,-0.325130,0.557997,-0.508611,0.626546,0.301937,-0.050998
214,459181098,-0.569448,-0.330962,0.554990,-0.508114,0.558511,0.167061,0.251074
215,459214432,-0.568749,-0.336964,0.551800,-0.508426,0.473219,0.212673,0.409546
216,459247766,-0.568304,-0.340704,0.549476,-0.508948,0.406448,0.193231,0.434043
217,459281100,-0.568392,-0.341253,0.548471,-0.509566,0.463136,0.124689,0.434761
218,459314434,-0.568644,-0.339611,0.548098,-0.510781,0.477874,0.017426,0.368510
219,459347768,-0.568723,-0.336825,0.547979,-0.512663,0.386927,0.052472,0.192377
220,459381102,-0.568522,-0.333596,0.547994,-0.514976,0.326555,0.089570,0.066722
221,459414436,-0.568076,-0.330701,0.547628,-0.517718,0.240075,0.173764,-0.040684
222,459447770,-0.567444,-0.328585,0.546719,-0.520709,0.120682,0.343932,0.059419
223,459481104,-0.566819,-0.327277,0.545446,-0.523541,-0.010481,0.591902,0.149869
224,459514438,-0.566370,-0.326061,0.544563,-0.525701,-0.082647,0.765158,0.066932
225,459547772,-0.565976,-0.324708,0.544437,-0.527090,-0.078130,0.739257,0.052835
226,459581106,-0.565390,-0.323878,0.544571,-0.528091,-0.104124,0.721448,0.056836
227,459614440,-0.564787,-0.323448,0.544980,-0.528578,-0.240942,0.760274,0.060967
228,459647774,-0.564447,-0.322934,0.546061,-0.528139,-0.244677,0.643187,-0.046873
229,459681108,-0.564442,-0.322519,0.547659,-0.526742,-0.183041,0.587512,-0.049162
230,459714442,-0.564562,-0.322783,0.549286,-0.524753,-0.081597,0.480435,-0.036191
231,459747776,-0.564532,-0.324063,0.550799,-0.522406,0.002559,0.392376,-0.031454
232,459781110,-0.564272,-0.326178,0.552268,-0.519813,0.079896,0.274727,-0.016382
233,459814444,-0.563894,-0.328685,0.553690,-0.517125,0.144874,0.231098,-0.098689
234,459847778,-0.563441,-0.331013,0.555477,-0.514209,0.219258,0.083478,-0.006850
235,459881112,-0.562856,-0.333423,0.557381,-0.511223,0.297205,-0.044985,0.030861
236,459914446,-0.562074,-0.336209,0.559120,-0.508352,0.347991,-0.191180,0.114314
237,459947780,-0.561023,-0.339475,0.560471,-0.505849,0.413992,-0.227702,0.208237
238,459981114,-0.559469,-0.343497,0.561196,-0.504047,0.517650,-0.289260,0.384568
239,460014448,-0.557096,-0.348919,0.560761,-0.503435,0.594928,-0.294386,0.538078
240,460047782,-0.553934,-0.355304,0.559395,-0.503978,0.529752,-0.267189,0.536990
241,460081116,-0.550362,-0.361123,0.557776,-0.505548,0.440929,-0.291642,0.397861
242,460114450,-0.546988,-0.365042,0.556548,-0.507743,0.311772,-0.306499,0.326801
243,460147784,-0.544324,-0.366726,0.555914,-0.510082,0.138505,-0.384124,0.339682
244,460181118,-0.542884,-0.366176,0.555870,-0.512056,0.001194,-0.245579,0.298244
245,460214452,-0.542601,-0.363942,0.556323,-0.513454,0.069568,-0.241794,0.161662
246,460247786,-0.542321,-0.361860,0.556470,-0.515060,0.148611,-0.183718,0.200363
247,460281120,-0.541262,-0.361522,0.555495,-0.517458,0.079312,-0.089469,0.218310
248,460314454,-0.539734,-0.362424,0.553856,-0.520173,-0.094541,0.069172,0.126108
249,460347788,-0.538600,-0.363138,0.552429,-0.522364,-0.175126,0.153713,0.153338
250,460381122,-0.538183,-0.363219,0.551314,-0.523912,-0.122628,0.205296,0.165007
251,460414456,-0.538239,-0.362787,0.550533,-0.524975,-0.051210,0.276564,0.211379
252,460447790,-0.538354,-0.362226,0.549977,-0.525826,-0.004488,0.284853,0.178748
253,460481124,-0.538306,-0.361838,0.549611,-0.526525,-0.013812,0.262273,0.146162
254,460514458,-0.538106,-0.361806,0.549264,-0.527112,-0.005399,0.220107,0.157766
255,460547792,-0.537811,-0.362255,0.548675,-0.527719,-0.022331,0.126007,0.211190
256,460581126,-0.537503,-0.363010,0.547913,-0.528305,-0.039836,0.076721,0.310682
257,460614460,-0.537231,-0.363836,0.546986,-0.528973,-0.023056,-0.044455,0.347985
258,460647794,-0.537058,-0.364433,0.545941,-0.529817,-0.047743,-0.033212,0.220672
259,460681128,-0.537136,-0.364361,0.545036,-0.530719,-0.015002,-0.093581,0.165722
260,460714462,-0.537508,-0.364009,0.543826,-0.531824,0.042317,-0.075759,0.100377
261,460747796,-0.538260,-0.363482,0.542326,-0.532955,0.004371,0.114075,0.030203
262,460781130,-0.539420,-0.362412,0.541164,-0.533691,0.097998,0.247199,0.016254
263,460814464,-0.540596,-0.361466,0.540105,-0.534214,0.239383,0.342767,0.089333
264,460847798,-0.541360,-0.361143,0.538930,-0.534845,0.256510,0.421424,0.055513
265,460881132,-0.541633,-0.361056,0.538093,-0.535470,0.283976,0.445259,-0.023643
266,460914466,-0.541445,-0.361161,0.537506,-0.536179,0.273576,0.432701,0.011456
267,460947800,-0.541052,-0.361336,0.537103,-0.536861,0.162132,0.476564,0.024443
268,460981134,-0.540676,-0.361119,0.537301,-0.537188,0.113300,0.478141,0.069686
269,461014468,-0.540118,-0.360924,0.537890,-0.537290,0.098157,0.389446,0.055772
270,461047802,-0.539246,-0.361247,0.538446,-0.537393,0.008258,0.292801,0.124614
271,461081136,-0.538314,-0.361898,0.538883,-0.537451,-0.081965,0.202504,0.149648
272,461114470,-0.537694,-0.362463,0.539299,-0.537273,-0.132348,0.122991,0.139197
273,461147804,-0.537497,-0.362776,0.539732,-0.536824,-0.130593,0.098409,0.190631
274,461181138,-0.537634,-0.363024,0.540012,-0.536237,-0.112884,0.099579,0.237972
275,461214472,-0.538038,-0.363115,0.540331,-0.535449,-0.078560,0.123684,0.195326
276,461247806,-0.538666,-0.362947,0.540787,-0.534470,0.001799,0.139910,0.142544
277,461281140,-0.539413,-0.362711,0.541227,-0.533431,0.046600,0.179195,0.080750
278,461314474,-0.540286,-0.362369,0.541803,-0.532193,0.079173,0.293251,0.060896
279,461347808,-0.541234,-0.361866,0.542762,-0.530592,0.107665,0.364774,0.059158
280,461381142,-0.542135,-0.361446,0.544211,-0.528472,0.268232,0.372499,0.107035
281,461414476,-0.542413,-0.362167,0.545349,-0.526515,0.277315,0.251605,0.123209
282,461447810,-0.542115,-0.363699,0.546097,-0.524989,0.276447,0.111593,0.035950
283,461481144,-0.541657,-0.365034,0.546819,-0.523781,0.189238,0.028174,0.100653
284,461514478,-0.541690,-0.365235,0.547824,-0.522556,0.152368,-0.064734,0.188370
285,461547812,-0.542325,-0.364295,0.549121,-0.521190,0.217361,-0.073302,0.253610
286,461581146,-0.543139,-0.362829,0.550350,-0.520068,0.282835,-0.108711,0.265954
287,461614480,-0.543818,-0.361310,0.551315,-0.519394,0.251922,-0.004297,0.272887
288,461647814,-0.544473,-0.359557,0.552265,-0.518914,0.143965,0.107651,0.302110
289,461681148,-0.545159,-0.357593,0.553420,-0.518320,0.052515,0.121610,0.185913
290,461714482,-0.545889,-0.355724,0.554696,-0.517474,-0.002085,0.097889,0.145640
291,461747816,-0.546743,-0.354284,0.555650,-0.516535,-0.034632,0.028527,0.167726
292,461781150,-0.547926,-0.352916,0.556442,-0.515365,-0.071163,0.026924,0.096704
293,461814484,-0.549519,-0.351200,0.557267,-0.513947,0.009415,0.110854,0.126054
294,461847818,-0.551292,-0.349474,0.557942,-0.512490,0.095732,0.167054,0.140695
295,461881152,-0.552981,-0.348112,0.558486,-0.511003,0.124414,0.254676,0.185716
296,461914486,-0.554622,-0.346820,0.559089,-0.509442,0.115378,0.341042,0.153611
297,461947820,-0.556337,-0.345129,0.560156,-0.507544,0.146115,0.392556,0.149659
298,461981154,-0.557987,-0.343460,0.561561,-0.505306,0.182904,0.268508,0.107948
299,462014488,-0.559343,-0.342247,0.563053,-0.502966,0.183655,0.185017,0.058739
300,462047822,-0.560529,-0.341342,0.564524,-0.500606,0.146483,0.084595,0.088359
301,462081156,-0.561638,-0.340660,0.565961,-0.498199,0.139759,-0.087994,0.163601
302,462114490,-0.562661,-0.340320,0.567210,-0.495851,0.239581,-0.227554,0.292741
303,462147824,-0.563482,-0.340393,0.567947,-0.494021,0.248609,-0.318313,0.275235
304,462181158,-0.564152,-0.340477,0.568387,-0.492691,0.272629,-0.364421,0.239479
305,462214492,-0.564767,-0.340380,0.568550,-0.491865,0.273419,-0.401330,0.248621
306,462247826,-0.565398,-0.339999,0.568390,-0.491590,0.234706,-0.304755,0.220911
307,462281160,-0.566139,-0.339141,0.568115,-0.491647,0.246271,-0.171269,0.185490
308,462314494,-0.566814,-0.338124,0.567784,-0.491951,0.270459,-0.106938,0.150301
309,462347828,-0.567147,-0.337494,0.567320,-0.492534,0.230145,0.053467,0.113607
310,462381162,-0.567215,-0.337157,0.566786,-0.493303,0.179187,0.109803,0.119181
311,462414496,-0.567166,-0.337010,0.566264,-0.494057,0.111101,0.155646,0.126473
312,462447830,-0.567056,-0.336935,0.565895,-0.494657,0.075019,0.175199,0.155408
313,462481164,-0.566947,-0.336895,0.565566,-0.495186,-0.003515,0.175784,0.127155
314,462514498,-0.566993,-0.336720,0.565341,-0.495508,-0.024331,0.204630,0.195448
315,462547832,-0.567128,-0.336655,0.565038,-0.495743,-0.042554,0.189764,0.159812
316,462581166,-0.567364,-0.336519,0.564793,-0.495846,-0.111172,0.273065,0.134891
317,462614500,-0.567859,-0.335935,0.564867,-0.495590,-0.137915,0.265874,0.242139
318,462647834,-0.568652,-0.335061,0.565190,-0.494904,-0.183198,0.296406,0.235245
319,462681168,-0.569745,-0.333753,0.565846,-0.493779,-0.207430,0.268523,0.170979
320,462714502,-0.571074,-0.332106,0.566713,-0.492359,-0.170723,0.216616,0.095377
321,462747836,-0.572554,-0.330575,0.567600,-0.490646,-0.139437,0.204466,0.055995
322,462781170,-0.574116,-0.329488,0.568371,-0.488655,-0.058275,0.174219,0.078180
323,462814504,-0.575709,-0.328840,0.568944,-0.486546,0.004045,0.160276,0.137133
324,462847838,-0.577268,-0.328213,0.569575,-0.484378,0.031216,0.130485,0.218679
325,462881172,-0.578804,-0.327219,0.570466,-0.482165,0.052688,0.055340,0.206037
326,462914506,-0.580428,-0.325752,0.571521,-0.479952,0.080194,0.010558,0.170102
327,462947840,-0.582030,-0.324182,0.572569,-0.477819,0.116864,-0.052650,0.133608
328,462981174,-0.583422,-0.323103,0.573370,-0.475889,0.162620,-0.103174,0.175934
329,463014508,-0.584468,-0.322621,0.573834,-0.474371,0.168935,-0.092556,0.175909
330,463047842,-0.585272,-0.322198,0.574226,-0.473192,0.152508,-0.140855,0.146215
331,463081176,-0.585958,-0.321570,0.574664,-0.472237,0.155922,-0.091869,0.180808
332,463114510,-0.586416,-0.321395,0.574844,-0.471568,0.158789,-0.154269,0.245020
333,463147844,-0.586502,-0.321819,0.574751,-0.471286,0.108791,-0.137557,0.220808
334,463181178,-0.586533,-0.321944,0.574720,-0.471199,0.017809,-0.085344,0.255019
335,463214512,-0.586836,-0.321465,0.574719,-0.471150,-0.026194,-0.110428,0.233492
336,463247846,-0.587284,-0.320809,0.574654,-0.471118,-0.004622,-0.023402,0.154316
337,463281180,-0.587605,-0.320666,0.574284,-0.471266,0.036133,0.017165,0.108859
338,463314514,-0.587579,-0.321310,0.573697,-0.471576,0.024329,0.076313,0.053600
339,463347848,-0.587303,-0.322628,0.572999,-0.471869,0.053321,0.070516,0.114630
340,463381182,-0.586894,-0.324342,0.572234,-0.472129,0.068287,0.087873,0.170242
341,463414516,-0.586364,-0.326151,0.571497,-0.472434,0.105542,0.057447,0.245788
342,463447850,-0.585667,-0.328069,0.570701,-0.472933,0.098788,0.044313,0.260974
343,463481184,-0.584844,-0.329947,0.569976,-0.473520,0.039005,0.014141,0.254066
344,463514518,-0.584030,-0.331735,0.569257,-0.474138,-0.012490,-0.003540,0.285306
345,463547852,-0.583332,-0.333468,0.568427,-0.474778,-0.071072,-0.046078,0.308558
346,463581186,-0.582753,-0.335260,0.567384,-0.475474,-0.064783,-0.047588,0.289648
347,463614520,-0.582329,-0.336978,0.566167,-0.476229,-0.068358,-0.053562,0.246811
348,463647854,-0.582065,-0.338455,0.564949,-0.476949,-0.091892,-0.028111,0.116775
349,463681188,-0.581943,-0.339870,0.563732,-0.477531,-0.073975,-0.074711,0.183113
350,463714522,-0.581819,-0.341775,0.562205,-0.478123,-0.071004,-0.060905,0.116374
351,463747856,-0.581712,-0.343770,0.560648,-0.478652,-0.014155,-0.014887,0.049429
352,463781190,-0.581403,-0.345942,0.559126,-0.479242,0.079064,-0.085886,0.042594
353,463814524,-0.580729,-0.348531,0.557509,-0.480067,0.133534,-0.028704,0.062401
354,463847858,-0.579841,-0.351349,0.555778,-0.481092,0.136092,-0.015169,0.096910
355,463881192,-0.578851,-0.354030,0.554189,-0.482151,0.226039,-0.001440,0.036512
356,463914526,-0.577787,-0.356352,0.552849,-0.483254,0.269866,0.017503,-0.019732
357,463947860,-0.576502,-0.358379,0.551699,-0.484601,0.306760,0.014954,-0.021722
358,463981194,-0.575008,-0.360234,0.550593,-0.486257,0.244526,0.069258,0.025162
359,464014528,-0.573401,-0.361718,0.549688,-0.488073,0.148838,0.095326,0.076561
360,464047862,-0.571755,-0.362675,0.549080,-0.489975,0.084457,0.142385,0.113803
361,464081196,-0.570200,-0.363103,0.548776,-0.491806,-0.016347,0.155137,0.137198
362,464114530,-0.568739,-0.363253,0.548634,-0.493543,-0.080268,0.170540,0.123592
363,464147864,-0.567363,-0.363332,0.548613,-0.495089,-0.201247,0.195117,0.097721
364,464181198,-0.566118,-0.363454,0.548818,-0.496196,-0.244953,0.193668,0.164181
365,464214532,-0.565021,-0.364031,0.548877,-0.496959,-0.260995,0.189944,0.197407
366,464247866,-0.564142,-0.364913,0.548911,-0.497273,-0.333078,0.226884,0.319243
367,464281200,-0.563520,-0.366014,0.549085,-0.496976,-0.305673,0.163313,0.412800
368,464314534,-0.562975,-0.367192,0.549446,-0.496325,-0.203119,0.091997,0.124664
369,464347868,-0.562143,-0.369036,0.549332,-0.496027,-0.042806,-0.226637,0.086172
370,464381202,-0.560670,-0.372521,0.547877,-0.496699,-0.452898,-0.285213,0.087514
371,464414536,-0.559572,-0.374975,0.547121,-0.496923,-0.530985,-0.329476,-0.062322
372,464447870,-0.559238,-0.375008,0.547874,-0.496444,-0.082543,-0.477336,0.021183
373,464481204,-0.558672,-0.374699,0.548407,-0.496727,0.142216,-0.459018,0.011592
374,464514538,-0.557222,-0.375197,0.548211,-0.498192,0.158689,-0.367290,0.009346
375,464547872,-0.554988,-0.376283,0.547312,-0.500849,0.182581,-0.269678,0.048072
376,464581206,-0.552162,-0.377292,0.546071,-0.504555,-0.033538,-0.224862,-0.001543
377,464614540,-0.548925,-0.377474,0.545359,-0.508704,-0.153882,-0.232396,-0.010847
378,464647874,-0.545345,-0.377243,0.544735,-0.513372,-0.333098,-0.195341,0.069614
379,464681208,-0.541764,-0.376889,0.543895,-0.518291,-0.546568,-0.066247,0.354673
380,464714542,-0.538657,-0.376275,0.543081,-0.522808,-0.657030,0.198216,0.314083
381,464747876,-0.536194,-0.375108,0.542602,-0.526662,-0.611479,0.393257,0.438725
382,464781210,-0.534016,-0.373816,0.542188,-0.530209,-0.627560,0.483176,0.332888
383,464814544,-0.531872,-0.372543,0.542126,-0.533315,-0.758746,0.559499,0.062541
384,464847878,-0.529892,-0.371094,0.543064,-0.535337,-0.898653,0.414064,-0.061180
385,464881212,-0.528457,-0.369740,0.544696,-0.536034,-0.891782,0.309356,-0.111604
386,464914546,-0.527989,-0.368786,0.546481,-0.535336,-0.658411,0.169930,-0.089014
387,464947880,-0.528152,-0.369067,0.547794,-0.533635,-0.420804,0.147367,-0.100204
388,464981214,-0.528750,-0.370097,0.548952,-0.531135,-0.107154,0.104333,-0.167261
389,465014548,-0.529369,-0.371733,0.549927,-0.528360,0.191616,0.048397,-0.189886
390,465047882,-0.529588,-0.374373,0.550268,-0.525915,0.455160,-0.014235,-0.173730
391,465081216,-0.529439,-0.377887,0.550022,-0.523805,0.497044,-0.032144,-0.045944
392,465114550,-0.529415,-0.381391,0.549681,-0.521644,0.654032,0.003686,0.297435
393,465147884,-0.529707,-0.383957,0.549724,-0.519414,0.723169,0.019432,0.394253
394,465181218,-0.530225,-0.384842,0.550950,-0.516926,0.836801,-0.019024,0.335517
395,465214552,-0.530565,-0.384328,0.553135,-0.514622,1.009013,-0.077046,0.314550
396,465247886,-0.530198,-0.383456,0.555524,-0.513074,1.097810,-0.124535,0.321782
397,465281220,-0.528732,-0.383383,0.557370,-0.512639,1.071117,-0.142925,0.219880
398,465314554,-0.526149,-0.384487,0.558568,-0.513166,1.045555,-0.153286,0.155165
399,465347888,-0.522662,-0.386584,0.559126,-0.514546,0.961647,-0.160024,0.205029
400,465381222,-0.518420,-0.389224,0.559309,-0.516642,0.864454,-0.145967,0.202645
401,465414556,-0.513789,-0.391930,0.559322,-0.519202,0.782821,-0.191422,0.338835
402,465447890,-0.508887,-0.394716,0.558920,-0.522342,0.695118,-0.197412,0.341363
403,465481224,-0.503833,-0.397145,0.558416,-0.525928,0.571530,-0.176913,0.271573
404,465514558,-0.498628,-0.399328,0.557732,-0.529946,0.483069,-0.193328,0.386142
405,465547892,-0.493303,-0.401711,0.556454,-0.534453,0.312964,-0.110902,0.425500
406,465581226,-0.488120,-0.404020,0.554903,-0.539063,0.180317,-0.043798,0.467838
407,465614560,-0.483076,-0.406265,0.553122,-0.543731,0.087623,-0.022827,0.471240
408,465647894,-0.478165,-0.408630,0.550951,-0.548483,0.004849,0.045639,0.497060
409,465681228,-0.473497,-0.411163,0.548324,-0.553251,-0.116818,0.056450,0.512137
410,465714562,-0.469234,-0.413654,0.545457,-0.557842,-0.245803,0.099844,0.478327
411,465747896,-0.465766,-0.415531,0.542777,-0.561952,-0.316666,0.088127,0.444927
412,465781230,-0.463300,-0.416331,0.540601,-0.565485,-0.376029,0.132739,0.352909
413,465814564,-0.461795,-0.416032,0.539216,-0.568252,-0.358729,0.162858,0.172087
414,465847898,-0.460904,-0.415403,0.538227,-0.570368,-0.284115,0.192349,0.012194
415,465881232,-0.460247,-0.415474,0.537001,-0.572000,-0.224519,0.198187,-0.120178
416,465914566,-0.459695,-0.416827,0.535201,-0.573146,-0.152268,0.163412,-0.163774
417,465947900,-0.459359,-0.419337,0.532877,-0.573750,-0.100520,0.187514,-0.117043
418,465981234,-0.459588,-0.422363,0.530341,-0.573697,0.014328,0.183118,0.055707
419,466014568,-0.460187,-0.425791,0.527573,-0.573234,0.180717,0.190317,0.142166
420,466047902,-0.460886,-0.429352,0.524682,-0.572670,0.328824,0.191365,0.357337
421,466081236,-0.461480,-0.432587,0.521737,-0.572447,0.407664,0.180637,0.528525
422,466114570,-0.462155,-0.434494,0.519459,-0.572530,0.377427,0.202372,0.516812
423,466147904,-0.463129,-0.434409,0.518445,-0.572726,0.410369,0.202143,0.420366
424,466181238,-0.464135,-0.433059,0.518175,-0.573178,0.463679,0.205252,0.259052
425,466214572,-0.464919,-0.431675,0.517865,-0.573867,0.368519,0.236608,0.025159
426,466247906,-0.465516,-0.431024,0.517247,-0.574429,0.362975,0.292100,0.009794
427,466281240,-0.465868,-0.431834,0.515864,-0.574779,0.384022,0.280608,0.104346
428,466314574,-0.465859,-0.434007,0.513774,-0.575022,0.451028,0.278237,0.133019
429,466347908,-0.465377,-0.436590,0.511522,-0.575464,0.489658,0.210878,0.201359
430,466381242,-0.464544,-0.438983,0.509348,-0.576245,0.448327,0.092227,0.396518
431,466414576,-0.463813,-0.440642,0.507390,-0.577294,0.367726,0.073319,0.398311
432,466447910,-0.463788,-0.440789,0.506149,-0.578290,0.298961,0.119926,0.212075
433,466481244,-0.464408,-0.439626,0.505625,-0.579136,0.361433,0.132910,0.109118
434,466514578,-0.465024,-0.438393,0.504951,-0.580162,0.359518,0.284818,0.094533
435,466547912,-0.465494,-0.437562,0.503975,-0.581262,0.269822,0.362988,0.176498
436,466581246,-0.465927,-0.436812,0.503203,-0.582146,0.204535,0.390489,0.173582
437,466614580,-0.466279,-0.435674,0.502995,-0.582896,0.189678,0.360599,0.170233
438,466647914,-0.466283,-0.434173,0.503226,-0.583814,0.106575,0.322663,0.217280
439,466681248,-0.465902,-0.432499,0.503633,-0.585008,0.029844,0.303533,0.226001
440,466714582,-0.465243,-0.430861,0.504022,-0.586404,-0.088040,0.232500,0.147227
441,466747916,-0.464469,-0.429103,0.504533,-0.587866,-0.205124,0.231520,0.117396
442,466781250,-0.463723,-0.427252,0.505174,-0.589252,-0.335963,0.171678,0.089151
443,466814584,-0.463098,-0.425468,0.505880,-0.590426,-0.464950,0.162356,0.117766
444,466847918,-0.462677,-0.423635,0.506651,-0.591412,-0.592924,0.086530,0.094471
445,466881252,-0.462609,-0.421450,0.507906,-0.591951,-0.742132,0.089135,0.041794
446,466914586,-0.462950,-0.419103,0.509613,-0.591883,-0.770801,-0.034457,-0.026528
447,466947920,-0.463667,-0.417150,0.511329,-0.591221,-0.839709,-0.106159,-0.036186
448,466981254,-0.465056,-0.415631,0.513145,-0.589624,-0.906242,-0.266284,0.012501
449,467014588,-0.467429,-0.414307,0.515041,-0.587021,-0.843399,-0.317292,0.012699
450,467047922,-0.470482,-0.413227,0.516781,-0.583805,-0.671901,-0.446953,0.147540
451,467081256,-0.473716,-0.412689,0.517922,-0.580550,-0.573376,-0.495663,0.193795
452,467114590,-0.477132,-0.412533,0.518488,-0.577350,-0.458802,-0.508402,0.209840
453,467147924,-0.480863,-0.412271,0.518836,-0.574120,-0.348197,-0.462088,0.269127
454,467181258,-0.484773,-0.411725,0.518978,-0.571087,-0.180982,-0.400124,0.178512
455,467214592,-0.488508,-0.410919,0.519111,-0.568357,-0.055223,-0.335375,0.035421
456,467247926,-0.491718,-0.410011,0.519212,-0.566148,0.056430,-0.217136,-0.003260
457,467281260,-0.494274,-0.409256,0.519279,-0.564405,0.117986,-0.128532,0.013761
458,467314594,-0.496018,-0.408805,0.519285,-0.563195,0.110112,-0.091307,-0.070892
459,467347928,-0.497086,-0.408521,0.519353,-0.562396,0.012512,0.001189,0.002833
460,467381262,-0.497897,-0.408139,0.519654,-0.561678,-0.066334,-0.014083,0.071065
461,467414596,-0.498749,-0.407313,0.520499,-0.560738,-0.111444,0.046428,0.112240
462,467447930,-0.499617,-0.405857,0.521959,-0.559663,-0.113086,0.017279,0.090965
463,467481264,-0.500191,-0.404411,0.523667,-0.558601,-0.098025,-0.057599,0.131347
464,467514598,-0.500292,-0.403595,0.525100,-0.557755,-0.167316,-0.131332,0.182788
465,467547932,-0.500161,-0.403101,0.526384,-0.557018,-0.262229,-0.237724,0.128989
466,467581266,-0.500069,-0.402424,0.527761,-0.556286,-0.279657,-0.338382,0.149504
467,467614600,-0.500054,-0.401618,0.528996,-0.555709,-0.273145,-0.370439,0.037541
468,467647934,-0.500282,-0.400796,0.530081,-0.555064,-0.290308,-0.354481,0.063418
469,467681268,-0.500449,-0.400642,0.530689,-0.554442,-0.214642,-0.341642,0.152144
470,467714602,-0.500479,-0.400900,0.530913,-0.554014,-0.241391,-0.251271,0.158896
471,467747936,-0.500509,-0.400681,0.531448,-0.553633,-0.240889,-0.222935,0.154948
472,467781270,-0.500544,-0.400190,0.532152,-0.553279,-0.196313,-0.161665,0.077340
473,467814604,-0.500550,-0.399770,0.532934,-0.552826,-0.196469,-0.084672,0.015012
474,467847938,-0.500337,-0.399619,0.533864,-0.552230,-0.130687,-0.087379,0.057210
475,467881272,-0.499672,-0.400026,0.534634,-0.551792,-0.145556,-0.075450,0.119808
476,467914606,-0.498812,-0.400480,0.535622,-0.551282,-0.180068,-0.083940,0.155119
477,467947940,-0.497750,-0.400918,0.536846,-0.550733,-0.181582,-0.138259,0.169266
478,467981274,-0.496478,-0.401533,0.538028,-0.550280,-0.227747,-0.174107,0.130093
479,468014608,-0.495124,-0.402215,0.539162,-0.549890,-0.273621,-0.197927,0.041666
480,468047942,-0.493879,-0.402746,0.540342,-0.549464,-0.305500,-0.207133,0.039649
481,468081276,-0.492852,-0.403119,0.541619,-0.548854,-0.338229,-0.187406,0.120493
482,468114610,-0.492218,-0.403264,0.543135,-0.547818,-0.285464,-0.197003,0.216007
483,468147944,-0.491402,-0.403666,0.544428,-0.546970,-0.265368,-0.216684,0.174818
484,468181278,-0.491420,-0.403170,0.546416,-0.545335,-0.273869,-0.213008,0.228666
485,468214612,-0.490380,-0.403972,0.547386,-0.544704,-0.236888,-0.274379,0.189751
486,468247946,-0.489765,-0.404591,0.548388,-0.543790,-0.261000,-0.276546,0.189718
487,468281280,-0.489688,-0.404805,0.549368,-0.542710,-0.175025,-0.299918,0.162666
488,468314614,-0.489665,-0.405011,0.549993,-0.541943,-0.154197,-0.314059,0.201593
489,468347948,-0.490053,-0.404829,0.550523,-0.541190,-0.106304,-0.262686,0.248093
490,468381282,-0.490872,-0.404150,0.550986,-0.540484,-0.092444,-0.198270,0.294626
491,468414616,-0.492004,-0.402912,0.551598,-0.539754,-0.047447,-0.144963,0.308538
492,468447950,-0.493340,-0.401221,0.552207,-0.539171,-0.030027,-0.095924,0.296961
493,468481284,-0.494791,-0.399057,0.552853,-0.538785,-0.033421,0.021380,0.286644
494,468514618,-0.496335,-0.396499,0.553608,-0.538478,-0.075780,0.096447,0.239466
495,468547952,-0.497962,-0.393617,0.554551,-0.538120,-0.096424,0.181931,0.122628
496,468581286,-0.499603,-0.390663,0.555624,-0.537645,-0.070022,0.199315,0.044134
497,468614620,-0.501157,-0.388041,0.556665,-0.537020,-0.041678,0.244512,-0.038143
498,468647954,-0.502666,-0.385764,0.557680,-0.536196,-0.025275,0.258545,-0.073811
499,468681288,-0.504229,-0.383761,0.558792,-0.535008,0.041199,0.304815,-0.079717
500,468714622,-0.505876,-0.381946,0.560089,-0.533392,0.048984,0.390858,0.000446
501,468747956,-0.507542,-0.380306,0.561726,-0.531255,0.182615,0.283631,0.033084
502,468781290,-0.508940,-0.379127,0.563409,-0.528974,0.244366,0.269692,0.011753
503,468814624,-0.509935,-0.378327,0.565048,-0.526837,0.309944,0.219955,0.064884
504,468847958,-0.510424,-0.377790,0.566661,-0.525012,0.302739,0.198045,0.117636
505,468881292,-0.510506,-0.377222,0.568491,-0.523360,0.281174,0.218598,0.176408
506,468914626,-0.510244,-0.376351,0.570695,-0.521841,0.307267,0.196803,0.141621
507,468947960,-0.509421,-0.375535,0.573086,-0.520612,0.324870,0.097182,0.144155
508,468981294,-0.507964,-0.375358,0.575181,-0.519852,0.280286,0.057019,0.122876
509,469014628,-0.506166,-0.375538,0.577029,-0.519428,0.204776,-0.002738,0.032302
510,469047962,-0.504268,-0.375908,0.578671,-0.519179,0.113131,0.015605,0.193488
511,469081296,-0.502637,-0.376212,0.580144,-0.518898,0.064053,0.009098,0.290124
512,469114630,-0.501382,-0.376145,0.581727,-0.518387,0.059650,-0.049102,0.304955
513,469147964,-0.500463,-0.375461,0.583522,-0.517754,0.059000,0.000503,0.242927
514,469181298,-0.499645,-0.374395,0.585426,-0.517165,0.099621,-0.090925,0.404234
515,469214632,-0.498715,-0.373888,0.586723,-0.516960,0.046847,-0.151725,0.452543
516,469247966,-0.497896,-0.373259,0.587736,-0.517053,-0.013890,-0.090888,0.331780
517,469281300,-0.497428,-0.372019,0.588697,-0.517305,-0.062699,-0.112880,0.412726
518,469314634,-0.497241,-0.370784,0.589219,-0.517776,-0.135230,-0.062878,0.236232
519,469347968,-0.497526,-0.369177,0.589709,-0.518093,-0.139042,0.034556,0.089092
520,469381302,-0.498444,-0.367232,0.590130,-0.518114,-0.175670,0.091807,0.128112
521,469414636,-0.500016,-0.365394,0.590385,-0.517607,-0.158747,0.173268,0.257022
522,469447970,-0.502232,-0.363696,0.590512,-0.516512,-0.089515,0.219183,0.269908
523,469481304,-0.505039,-0.361692,0.590818,-0.514830,0.017248,0.289218,0.337848
524,469514638,-0.508141,-0.359505,0.591276,-0.512779,0.107813,0.275358,0.419791
525,469547972,-0.511329,-0.357312,0.591838,-0.510489,0.203249,0.296463,0.332856
526,469581306,-0.514466,-0.355156,0.592548,-0.508013,0.257392,0.311942,0.236225
527,469614640,-0.517356,-0.353333,0.593362,-0.505392,0.365808,0.195925,0.119203
528,469647974,-0.519652,-0.352562,0.593818,-0.503033,0.459836,0.110119,0.044696
529,469681308,-0.521346,-0.353056,0.593555,-0.501240,0.489366,0.103749,0.047589
530,469714642,-0.522704,-0.354329,0.592846,-0.499766,0.456937,0.026217,0.112715
531,469747976,-0.524111,-0.355782,0.591983,-0.498281,0.463685,0.048475,0.214171
532,469781310,-0.525873,-0.356681,0.591280,-0.496614,0.442184,0.040848,0.411021
533,469814644,-0.528073,-0.356770,0.590762,-0.494828,0.498548,-0.011242,0.558922
534,469847978,-0.530470,-0.356118,0.590402,-0.493162,0.544758,-0.083196,0.513089
535,469881312,-0.533005,-0.354543,0.590243,-0.491751,0.533402,-0.183449,0.491670
536,469914646,-0.535605,-0.352341,0.590036,-0.490756,0.485724,-0.160704,0.625946
537,469947980,-0.538116,-0.349647,0.589934,-0.490057,0.432558,-0.143666,0.320473
538,469981314,-0.540396,-0.346432,0.590151,-0.489570,0.459856,-0.217785,0.152947
539,470014648,-0.542229,-0.343315,0.590252,-0.489618,0.386015,-0.186617,0.027056
540,470047982,-0.543648,-0.340639,0.590268,-0.489893,0.291638,-0.171762,-0.142685
541,470081316,-0.544889,-0.338446,0.590306,-0.489990,0.276550,-0.100451,-0.259930
542,470114650,-0.545960,-0.337230,0.590142,-0.489834,0.346317,-0.133474,-0.258309
543,470147984,-0.546405,-0.337851,0.589517,-0.489662,0.462477,-0.165336,-0.233937
544,470181318,-0.545832,-0.340558,0.588216,-0.489990,0.540109,-0.189291,-0.094025
545,470214652,-0.544236,-0.344652,0.586517,-0.490939,0.548324,-0.279455,0.080177
546,470247986,-0.541726,-0.349452,0.584541,-0.492676,0.577684,-0.385111,0.217877
547,470281320,-0.538407,-0.354636,0.582122,-0.495466,0.549863,-0.465198,0.334182
548,470314654,-0.534420,-0.359844,0.579159,-0.499483,0.500647,-0.498732,0.358041
549,470347988,-0.530110,-0.364601,0.575842,-0.504438,0.394961,-0.480574,0.406960
550,470381322,-0.525721,-0.368941,0.572072,-0.510132,0.305025,-0.475696,0.466229
551,470414656,-0.521309,-0.372773,0.567889,-0.516508,0.211379,-0.397300,0.353855
552,470447990,-0.516876,-0.375881,0.563428,-0.523548,0.111981,-0.310980,0.326787
553,470481324,-0.512287,-0.378577,0.558638,-0.531193,-0.031321,-0.143750,0.341719
554,470514658,-0.507662,-0.381045,0.553509,-0.539177,-0.140966,0.029337,0.206847
555,470547992,-0.503201,-0.383225,0.548320,-0.547059,-0.265601,0.210839,0.242530
556,470581326,-0.498834,-0.385743,0.542850,-0.554690,-0.349507,0.310664,0.402237
557,470614660,-0.494526,-0.388749,0.536986,-0.562108,-0.465037,0.429865,0.291629
558,470647994,-0.490422,-0.391412,0.531374,-0.569144,-0.600561,0.562305,0.160745
559,470681328,-0.486440,-0.393457,0.526624,-0.575531,-0.748415,0.642711,0.234055
560,470714662,-0.482202,-0.395852,0.522251,-0.581410,-0.826901,0.651731,0.397118
561,470747996,-0.477355,-0.399511,0.517402,-0.587214,-0.968717,0.633014,0.341685
562,470781330,-0.472397,-0.404658,0.510212,-0.593951,-1.135567,0.367278,0.596273
563,470814664,-0.470649,-0.407052,0.500856,-0.601616,-2.401615,-0.510548,-0.078955
564,470847998,-0.471992,-0.404956,0.497798,-0.604510,-1.629375,-0.375485,-0.215878
565,470881332,-0.473778,-0.403975,0.495993,-0.605252,-1.368155,-0.214366,-0.458969
566,470914666,-0.475356,-0.404274,0.496860,-0.603101,-1.032212,0.238584,-0.776200
567,470948000,-0.476040,-0.406726,0.498608,-0.599459,-0.398311,0.335737,-0.812644
568,470981334,-0.474957,-0.412975,0.498345,-0.596255,-0.143657,0.420817,-0.882208
569,471014668,-0.472809,-0.420791,0.497577,-0.593131,-0.037965,0.267502,-0.728827
570,471048002,-0.470031,-0.429126,0.496293,-0.590436,0.097857,-0.076549,0.053828
571,471081336,-0.466808,-0.438019,0.494221,-0.588197,0.116418,-0.383529,0.722523
572,471114670,-0.463830,-0.445928,0.492407,-0.586128,0.173015,-0.347589,0.936038
573,471148004,-0.461965,-0.449979,0.492648,-0.584299,0.236458,-0.491318,0.398439
574,471181338,-0.461058,-0.449439,0.495334,-0.583160,0.581158,-0.538800,-0.067569
575,471214672,-0.459853,-0.447387,0.497741,-0.583639,0.639409,-0.658422,0.103065
576,471248006,-0.457311,-0.447325,0.497633,-0.585772,0.475507,-0.587252,0.404541
577,471281340,-0.453943,-0.449187,0.495607,-0.588677,0.158181,-0.348537,0.448069
578,471314674,-0.450601,-0.450695,0.493520,-0.591837,0.056682,-0.098026,0.362814
579,471348008,-0.447078,-0.451059,0.491896,-0.595572,-0.069358,-0.006034,0.344546
580,471381342,-0.443329,-0.450963,0.490483,-0.599599,-0.259048,0.052799,0.218538
581,471414676,-0.440044,-0.450404,0.489827,-0.602966,-0.460286,0.199190,-0.023787
582,471448010,-0.437660,-0.449969,0.489631,-0.605181,-0.329356,0.168987,-0.027539
583,471481344,-0.435443,-0.450964,0.488583,-0.606884,-0.261660,0.156730,-0.047987
584,471514678,-0.433143,-0.453030,0.486932,-0.608317,-0.338998,0.208630,0.093543
585,471548012,-0.431150,-0.454890,0.485660,-0.609360,-0.400182,0.158414,0.260454
586,471581346,-0.429817,-0.455814,0.485219,-0.609963,-0.416610,0.139928,0.252523
587,471614680,-0.429288,-0.455567,0.485672,-0.610158,-0.386606,0.128309,0.189806
588,471648014,-0.429366,-0.454709,0.486650,-0.609965,-0.352029,0.097927,0.159007
589,471681348,-0.429955,-0.453775,0.487874,-0.609267,-0.294473,0.095253,0.128358
590,471714682,-0.430864,-0.452924,0.489134,-0.608247,-0.205120,0.070963,0.118644
591,471748016,-0.431958,-0.452231,0.490324,-0.607028,-0.120920,0.046168,0.142974
592,471781350,-0.433170,-0.451651,0.491422,-0.605707,-0.059000,0.020936,0.200530
593,471814684,-0.434439,-0.451206,0.492376,-0.604353,-0.046229,0.008408,0.269060
594,471848018,-0.435832,-0.450635,0.493371,-0.602963,-0.022453,0.001560,0.292225
595,471881352,-0.437350,-0.449738,0.494540,-0.601574,0.008150,-0.012070,0.286560
596,471914686,-0.438991,-0.448462,0.495818,-0.600279,0.013182,-0.044680,0.224929
597,471948020,-0.440797,-0.446815,0.497190,-0.599046,0.034158,-0.047353,0.160610
598,471981354,-0.442531,-0.445191,0.498398,-0.597973,0.057452,0.012828,0.138642
599,472014688,-0.444045,-0.444042,0.499174,-0.597057,0.045585,0.057260,0.188905
600,472048022,-0.445259,-0.443441,0.499596,-0.596245,0.000764,0.125070,0.131662
601,472081356,-0.446355,-0.442807,0.500252,-0.595346,-0.029974,0.138929,0.138231
602,472114690,-0.447479,-0.441875,0.501390,-0.594238,-0.024921,0.052139,0.147441
603,472148024,-0.448744,-0.440726,0.502806,-0.592939,0.044562,-0.011923,0.114483
604,472181358,-0.450074,-0.439536,0.504079,-0.591733,0.106290,-0.060204,0.075920
605,472214692,-0.451236,-0.438681,0.504927,-0.590758,0.183360,-0.082585,0.109169
606,472248026,-0.452062,-0.438404,0.505331,-0.589985,0.208476,-0.095654,0.161016
607,472281360,-0.452651,-0.438435,0.505444,-0.589415,0.203603,-0.092761,0.221536
608,472314694,-0.452970,-0.438520,0.505221,-0.589297,0.264905,-0.098869,0.267985
609,472348028,-0.453037,-0.438365,0.504857,-0.589672,0.149400,-0.042571,0.240219
610,472381362,-0.453175,-0.437454,0.504950,-0.590163,0.090793,0.017885,0.209217
611,472414696,-0.453393,-0.436103,0.505251,-0.590737,0.038378,0.079264,0.142137
612,472448030,-0.453538,-0.434857,0.505525,-0.591311,-0.006573,0.136405,0.109134
613,472481364,-0.453447,-0.434073,0.505700,-0.591806,-0.046382,0.150292,0.040087
614,472514698,-0.453222,-0.433725,0.505856,-0.592101,-0.117020,0.176030,0.063293
615,472548032,-0.452917,-0.433756,0.506044,-0.592151,-0.088755,0.093310,0.103663
616,472581366,-0.452529,-0.434055,0.506398,-0.591925,-0.121843,0.120006,0.145868
617,472614700,-0.451941,-0.434753,0.506458,-0.591811,-0.031705,-0.021234,0.202591
618,472648034,-0.451289,-0.435649,0.506454,-0.591652,-0.101892,-0.098583,0.208908
619,472681368,-0.450874,-0.436331,0.506425,-0.591491,-0.074989,-0.155133,0.278128
620,472714702,-0.450786,-0.436635,0.506305,-0.591437,-0.082827,-0.134152,0.245624
621,472748036,-0.450836,-0.436752,0.506162,-0.591435,-0.026751,-0.051744,0.294780
622,472781370,-0.450672,-0.437157,0.505711,-0.591647,-0.082548,0.002680,0.261905
623,472814704,-0.450314,-0.437826,0.505183,-0.591875,-0.142000,0.011385,0.254589
624,472848038,-0.449970,-0.438335,0.504822,-0.592068,-0.244666,0.042855,0.166054
625,472881372,-0.449870,-0.438379,0.504876,-0.592065,-0.251771,0.005411,0.080752
626,472914706,-0.450097,-0.438315,0.504999,-0.591835,-0.251162,-0.016463,-0.016690
627,472948040,-0.450895,-0.438162,0.505075,-0.591277,-0.271882,0.019849,-0.014674
628,472981374,-0.452407,-0.437528,0.505496,-0.590230,-0.183500,0.029187,0.066431
629,473014708,-0.454296,-0.436531,0.506175,-0.588934,-0.009683,0.054094,0.082992
630,473048042,-0.456013,-0.435450,0.506975,-0.587718,0.053105,0.127887,0.022378
631,473081376,-0.457391,-0.434359,0.508035,-0.586538,0.129023,0.133753,0.050424
632,473114710,-0.458264,-0.433684,0.509007,-0.585512,0.118538,0.068225,0.077437
633,473148044,-0.458875,-0.432999,0.510107,-0.584583,0.118506,0.007905,0.061462
634,473181378,-0.459423,-0.431841,0.511549,-0.583748,0.099760,-0.030328,0.160769
635,473214712,-0.459927,-0.430478,0.513062,-0.583030,0.105353,-0.089733,0.136410
636,473248046,-0.460262,-0.429097,0.514620,-0.582410,0.100512,-0.125536,0.054371
637,473281380,-0.460334,-0.427979,0.515953,-0.581996,0.109180,-0.152575,0.157299
638,473314714,-0.460150,-0.427462,0.516767,-0.581799,0.080426,-0.153749,0.189666
639,473348048,-0.459723,-0.427430,0.517251,-0.581730,0.101430,-0.185962,0.234414
640,473381382,-0.459024,-0.427706,0.517401,-0.581947,0.127313,-0.180712,0.193204
641,473414716,-0.457954,-0.428402,0.517117,-0.582530,0.127939,-0.231686,0.212479
642,473448050,-0.456398,-0.429918,0.516197,-0.583449,0.136055,-0.220798,0.235829
643,473481384,-0.454495,-0.432118,0.514620,-0.584701,0.141425,-0.251565,0.306314
644,473514718,-0.452429,-0.434542,0.512541,-0.586330,0.123282,-0.270184,0.366367
645,473548052,-0.450402,-0.436751,0.510222,-0.588269,0.103838,-0.258931,0.299646
646,473581386,-0.448607,-0.438331,0.508070,-0.590324,0.100081,-0.183361,0.213702
647,473614720,-0.446916,-0.439535,0.506010,-0.592477,0.110290,-0.131304,0.234392
648,473648054,-0.445107,-0.440913,0.503616,-0.594850,0.115625,-0.082770,0.251931
649,473681388,-0.443189,-0.442279,0.501004,-0.597468,0.043590,-0.028981,0.275489
650,473714722,-0.441327,-0.443079,0.498650,-0.600217,-0.001748,0.015572,0.252139
651,473748056,-0.439604,-0.443264,0.496661,-0.602987,-0.058428,0.069579,0.202971
652,473781390,-0.438035,-0.443080,0.494926,-0.605685,-0.195510,0.104441,0.212473
653,473814724,-0.436971,-0.442315,0.493613,-0.608080,-0.308631,0.275454,0.121235
654,473848058,-0.436327,-0.441049,0.492962,-0.609987,-0.314590,0.297899,0.049603
655,473881392,-0.435610,-0.439968,0.492636,-0.611542,-0.307949,0.304069,0.047065
656,473914726,-0.434629,-0.439484,0.492114,-0.613006,-0.399796,0.233283,0.078992
657,473948060,-0.433673,-0.439316,0.491627,-0.614193,-0.454843,0.131146,0.097932
658,473981394,-0.433127,-0.439222,0.491114,-0.615055,-0.481314,0.059693,0.114106
659,474014728,-0.433221,-0.438945,0.490765,-0.615465,-0.450059,-0.014134,0.151106
660,474048062,-0.433824,-0.438641,0.490417,-0.615535,-0.326373,-0.065204,0.214187
661,474081396,-0.434742,-0.438207,0.490027,-0.615506,-0.260725,-0.060083,0.180584
662,474114730,-0.435893,-0.437476,0.489743,-0.615439,-0.177821,-0.062955,0.202360
663,474148064,-0.437277,-0.436445,0.489519,-0.615367,-0.166596,-0.026665,0.221089
664,474181398,-0.438944,-0.434936,0.489600,-0.615184,-0.128412,0.020967,0.177512
665,474214732,-0.440806,-0.432956,0.490041,-0.614899,-0.088001,0.040351,0.174398
666,474248066,-0.442811,-0.430664,0.490719,-0.614526,-0.137362,0.159797,0.161736
667,474281400,-0.444917,-0.428229,0.491650,-0.613962,-0.124770,0.198870,0.146049
668,474314734,-0.446840,-0.425982,0.492752,-0.613245,-0.128876,0.247489,0.025281
669,474348068,-0.448429,-0.424224,0.493875,-0.612399,-0.104930,0.164743,-0.049692
670,474381402,-0.449734,-0.423273,0.494659,-0.611466,-0.062353,0.081944,0.056297
671,474414736,-0.450866,-0.423006,0.494915,-0.610611,-0.051209,0.031737,0.162749
672,474448070,-0.452049,-0.422601,0.495277,-0.609722,-0.058298,0.001611,0.143915
673,474481404,-0.453279,-0.421814,0.495849,-0.608889,0.028879,-0.058794,0.154894
674,474514738,-0.454419,-0.420876,0.496443,-0.608204,0.019206,-0.059162,0.148710
675,474548072,-0.455560,-0.419725,0.497176,-0.607547,0.030001,-0.050664,0.143980
676,474581406,-0.456713,-0.418304,0.498127,-0.606881,-0.100847,-0.028071,0.111281
677,474614740,-0.458018,-0.416574,0.499322,-0.606106,0.071488,-0.030208,0.258118
678,474648074,-0.459191,-0.414964,0.500020,-0.605746,-0.010221,-0.046644,0.264425
679,474681408,-0.460519,-0.412798,0.501111,-0.605317,0.010966,-0.030506,0.189008
680,474714742,-0.461939,-0.410132,0.502389,-0.604987,-0.016994,0.013676,0.101668
681,474748076,-0.463455,-0.407209,0.503828,-0.604606,-0.034892,0.028770,0.063646
682,474781410,-0.464749,-0.404767,0.504917,-0.604344,-0.062790,0.091885,0.151283
683,474814744,-0.466152,-0.402376,0.505968,-0.603981,-0.067927,0.135078,0.030770
684,474848078,-0.467403,-0.400140,0.507045,-0.603596,-0.006896,0.114452,0.049974
685,474881412,-0.469022,-0.397698,0.508474,-0.602752,0.036090,0.118228,0.277872
686,474914746,-0.469979,-0.396085,0.509141,-0.602506,0.018002,0.080061,0.547001
687,474948080,-0.470888,-0.394368,0.509422,-0.602684,-0.132377,0.151058,0.563663
688,474981414,-0.471879,-0.391512,0.510517,-0.602844,-0.246742,0.112283,0.665907
689,475014748,-0.473431,-0.387408,0.512270,-0.602792,-0.282307,0.127106,0.345122
690,475048082,-0.475189,-0.382756,0.514264,-0.602682,-0.369307,0.103627,-0.037391
691,475081416,-0.477210,-0.378076,0.516512,-0.602117,-0.483071,0.198517,-0.406350
692,475114750,-0.479744,-0.373793,0.519064,-0.600581,-0.434498,0.293192,-0.549872
693,475148084,-0.482429,-0.371068,0.521478,-0.598023,-0.340037,0.331069,-0.524407
694,475181418,-0.485163,-0.370047,0.523705,-0.594488,-0.235424,0.427960,-0.809159
695,475214752,-0.487712,-0.369350,0.527147,-0.589774,-0.003672,0.425023,-1.002818
696,475248086,-0.489838,-0.370270,0.530970,-0.583977,0.231089,0.289590,-0.137714
697,475281420,-0.491332,-0.375185,0.532314,-0.578335,0.460872,0.067424,0.258043
698,475314754,-0.492242,-0.381710,0.532560,-0.573041,0.347340,0.000811,0.408992
699,475348088,-0.492752,-0.387087,0.533627,-0.567981,0.606025,-0.312623,0.745940
700,475381422,-0.492229,-0.391729,0.534220,-0.564685,0.684364,-0.600229,0.651229
701,475414756,-0.490755,-0.394940,0.534826,-0.563155,0.460176,-0.643624,0.717065
702,475448090,-0.489168,-0.397032,0.534854,-0.563038,0.323600,-0.762794,0.932165
703,475481424,-0.488059,-0.398236,0.534139,-0.563828,0.105630,-0.622356,0.478457
704,475514758,-0.487552,-0.397795,0.534012,-0.564698,0.157683,-0.504879,0.113659
705,475548092,-0.486886,-0.397094,0.533734,-0.566027,0.246384,-0.304292,-0.114979
706,475581426,-0.485578,-0.397464,0.532730,-0.567834,0.209431,-0.086350,-0.093452
707,475614760,-0.483355,-0.400153,0.530410,-0.570009,0.168274,0.063332,0.200489
708,475648094,-0.480320,-0.405352,0.526748,-0.572293,0.105403,0.124706,0.418061
709,475681428,-0.476655,-0.412003,0.522317,-0.574664,0.139652,0.034687,0.408868
710,475714762,-0.472523,-0.418876,0.517250,-0.577683,0.231906,-0.230698,0.296827
711,475748096,-0.468464,-0.424379,0.511997,-0.581639,0.047473,-0.211297,0.098586
712,475781430,-0.465703,-0.426365,0.508600,-0.585372,-0.253288,-0.084979,-0.005498
713,475814764,-0.464719,-0.425093,0.507612,-0.587931,-0.067741,-0.205440,0.619759
714,475848098,-0.464584,-0.422609,0.506553,-0.590736,-0.361760,0.240305,0.385544
715,475881432,-0.465068,-0.418783,0.506604,-0.593031,-0.329070,0.121477,0.494707
716,475914766,-0.464995,-0.415349,0.506831,-0.595304,-0.393811,0.362297,-0.064855
717,475948100,-0.464491,-0.412226,0.507821,-0.597023,-0.430726,0.400398,-0.356503
718,475981434,-0.463766,-0.410694,0.508984,-0.597652,-0.316723,0.338133,-0.543913
719,476014768,-0.462440,-0.412712,0.508804,-0.597442,-0.154694,0.194048,-0.391446
720,476048102,-0.460563,-0.417782,0.507104,-0.596813,-0.083872,0.111743,-0.208548
721,476081436,-0.458639,-0.423573,0.505247,-0.595787,-0.027477,-0.119653,0.215004
722,476114770,-0.456861,-0.428452,0.503767,-0.594917,-0.026395,-0.088985,0.458753
723,476148104,-0.455606,-0.431233,0.503302,-0.594263,0.079534,-0.148707,0.476596
724,476181438,-0.454263,-0.433179,0.503032,-0.594105,0.266830,-0.274826,0.434015
725,476214772,-0.452580,-0.435132,0.502177,-0.594685,0.178960,-0.139708,0.182567
726,476248106,-0.450742,-0.436692,0.501147,-0.595806,0.168953,-0.197140,0.128544
727,476281440,-0.448940,-0.438016,0.499891,-0.597247,0.048906,-0.054005,0.179939
728,476314774,-0.447499,-0.438897,0.498687,-0.598687,-0.041659,0.023610,0.266860
729,476348108,-0.446421,-0.439178,0.497826,-0.600001,-0.073327,0.037701,0.290576
730,476381442,-0.445676,-0.438698,0.497445,-0.601220,-0.122543,0.104563,0.346061
731,476414776,-0.445170,-0.437326,0.497544,-0.602511,-0.236410,0.118628,0.303005
732,476448110,-0.444845,-0.435330,0.498084,-0.603750,-0.332006,0.108881,0.193650
733,476481444,-0.444768,-0.433056,0.498871,-0.604790,-0.450728,0.096891,0.054983
734,476514778,-0.445214,-0.430827,0.499720,-0.605354,-0.479178,0.041153,0.028956
735,476548112,-0.446219,-0.429102,0.500320,-0.605343,-0.423967,-0.007024,0.067212
736,476581446,-0.447630,-0.427817,0.500658,-0.604932,-0.371966,0.010633,0.068653
737,476614780,-0.449278,-0.426642,0.500966,-0.604285,-0.265898,0.053459,0.133639
738,476648114,-0.451127,-0.425318,0.501432,-0.603453,-0.186571,0.079873,0.203878
739,476681448,-0.453111,-0.423964,0.501961,-0.602479,-0.058200,0.073921,0.168183
740,476714782,-0.455005,-0.422739,0.502494,-0.601467,-0.001412,0.081414,0.112858
741,476748116,-0.456806,-0.421418,0.503311,-0.600344,0.071117,0.070218,0.152247
742,476781450,-0.458263,-0.420334,0.503842,-0.599549,0.117854,0.024404,0.184793
743,476814784,-0.459465,-0.419341,0.504225,-0.599001,0.046347,0.057990,0.176719
744,476848118,-0.460463,-0.418272,0.504639,-0.598634,0.023183,0.048212,0.163837
745,476881452,-0.461222,-0.417286,0.504998,-0.598435,-0.039519,0.050882,0.159097
746,476914786,-0.461880,-0.416492,0.505251,-0.598268,-0.092475,0.063965,0.161326
747,476948120,-0.462426,-0.416027,0.505321,-0.598110,-0.099261,0.025757,0.131344
748,476981454,-0.462948,-0.415666,0.505389,-0.597899,-0.115813,-0.025980,0.149839
749,477014788,-0.463478,-0.415294,0.505315,-0.597809,-0.150193,-0.034259,0.151426
750,477048122,-0.464305,-0.414722,0.505358,-0.597529,-0.103383,-0.057021,0.157092
751,477081456,-0.465196,-0.414149,0.505325,-0.597261,-0.012367,-0.017447,0.162483
752,477114790,-0.466091,-0.413646,0.505200,-0.597018,-0.006975,-0.001527,0.184467
753,477148124,-0.466593,-0.413475,0.504865,-0.597027,0.026954,-0.018122,0.208776
754,477181458,-0.467130,-0.413088,0.504582,-0.597114,0.020907,-0.019717,0.181642
755,477214792,-0.467835,-0.412168,0.504556,-0.597220,0.008098,-0.014495,0.113446
756,477248126,-0.468352,-0.411175,0.504453,-0.597587,-0.011875,0.020556,0.099725
757,477281460,-0.468791,-0.410248,0.504243,-0.598056,-0.047313,0.072423,0.124727
758,477314794,-0.469105,-0.409495,0.503939,-0.598581,-0.074144,0.108376,0.157618
759,477348128,-0.469406,-0.408750,0.503787,-0.598984,-0.099092,0.154792,0.171447
760,477381462,-0.469655,-0.408116,0.503706,-0.599288,-0.095890,0.129241,0.140461
761,477414796,-0.469735,-0.407795,0.503449,-0.599659,-0.117765,0.110156,0.090077
762,477448130,-0.469773,-0.407593,0.503109,-0.600052,-0.122284,0.102280,0.073847
763,477481464,-0.470080,-0.407206,0.502954,-0.600205,-0.110991,0.108452,0.084127
764,477514798,-0.470407,-0.406804,0.502945,-0.600229,-0.127604,0.177470,0.162685
765,477548132,-0.470651,-0.406581,0.502951,-0.600183,-0.062473,0.130620,0.210884
766,477581466,-0.470639,-0.406565,0.502856,-0.600283,-0.083130,0.118260,0.143322
767,477614800,-0.470670,-0.406304,0.502947,-0.600359,-0.061534,0.069538,0.089963
768,477648134,-0.470697,-0.406090,0.503016,-0.600425,-0.064169,0.086756,0.062683
769,477681468,-0.470473,-0.406212,0.502881,-0.600631,-0.072968,0.103990,0.086639
770,477714802,-0.470350,-0.406198,0.502928,-0.600698,-0.076541,0.084260,0.128922
771,477748136,-0.470249,-0.406098,0.503128,-0.600678,-0.090034,0.060055,0.192999
772,477781470,-0.470438,-0.405886,0.503442,-0.600408,-0.072627,0.042982,0.214835
773,477814804,-0.470313,-0.405990,0.503493,-0.600395,-0.089757,0.007827,0.214911
774,477848138,-0.470327,-0.405850,0.503672,-0.600328,-0.090546,0.028099,0.171671
775,477881472,-0.470569,-0.405392,0.504081,-0.600105,-0.111166,0.034826,0.097805
776,477914806,-0.470839,-0.405016,0.504469,-0.599821,-0.114428,0.071080,0.052255
777,477948140,-0.471364,-0.404625,0.505015,-0.599211,-0.118088,0.099673,0.062679
778,477981474,-0.471793,-0.404427,0.505655,-0.598468,-0.071909,0.117194,0.094253
779,478014808,-0.472200,-0.404375,0.506418,-0.597536,-0.014217,0.105501,0.108239
780,478048142,-0.472371,-0.404616,0.507140,-0.596624,0.060161,0.062618,0.073317
781,478081476,-0.472457,-0.405112,0.507826,-0.595635,0.143215,0.017186,0.127295
782,478114810,-0.472095,-0.406051,0.508177,-0.594985,0.150448,-0.038577,0.112122
783,478148144,-0.471425,-0.407063,0.508394,-0.594638,0.082509,-0.076941,0.205808
784,478181478,-0.470792,-0.407808,0.508635,-0.594423,0.067135,-0.148279,0.282530
785,478214812,-0.470328,-0.408007,0.508995,-0.594346,-0.042651,-0.163537,0.249273
786,478248146,-0.470032,-0.407811,0.509391,-0.594374,-0.088892,-0.212757,0.200431
787,478281480,-0.470043,-0.407526,0.509719,-0.594281,-0.135815,-0.173704,0.201025
788,478314814,-0.470320,-0.407200,0.509975,-0.594065,-0.171254,-0.143435,0.221318
789,478348148,-0.470728,-0.406805,0.510243,-0.593782,-0.150055,-0.106604,0.127422
790,478381482,-0.471297,-0.406470,0.510565,-0.593282,-0.109886,-0.040816,0.038328
791,478414816,-0.471845,-0.406774,0.510651,-0.592565,0.025991,-0.067559,0.101473
792,478448150,-0.472107,-0.407931,0.510233,-0.591920,0.138672,-0.172446,0.189219
793,478481484,-0.472247,-0.408794,0.509646,-0.591720,0.087220,-0.179335,0.331259
794,478514818,-0.473027,-0.407954,0.509805,-0.591539,0.078332,-0.193549,0.281332
795,478548152,-0.474030,-0.406051,0.510390,-0.591541,0.126615,-0.116301,0.129113
796,478581486,-0.474945,-0.403780,0.511046,-0.591795,0.030142,-0.013111,0.083720
797,478614820,-0.475655,-0.401612,0.511683,-0.592150,0.003298,0.069085,0.068412
798,478648154,-0.476211,-0.399826,0.512255,-0.592417,-0.094359,0.168279,0.077360
799,478681488,-0.476650,-0.398438,0.512891,-0.592448,-0.081126,0.149207,0.071932
800,478714822,-0.476763,-0.397831,0.513353,-0.592365,-0.053006,0.031262,0.098896
801,478748156,-0.476650,-0.397753,0.513569,-0.592322,-0.093179,-0.027797,0.109840
802,478781490,-0.476654,-0.397585,0.513781,-0.592247,-0.061382,-0.167862,0.234254
803,478814824,-0.476838,-0.397328,0.513858,-0.592205,-0.007774,-0.247137,0.272735
804,478848158,-0.477035,-0.396827,0.513744,-0.592481,-0.006164,-0.247108,0.277581
805,478881492,-0.477426,-0.395858,0.513579,-0.592957,-0.026335,-0.206827,0.247441
806,478914826,-0.477927,-0.394766,0.513290,-0.593531,-0.001661,-0.111936,0.205254
807,478948160,-0.478408,-0.393822,0.512846,-0.594154,0.002977,0.022469,0.123609
808,478981494,-0.478742,-0.393128,0.512353,-0.594770,-0.039366,0.106705,0.115242
809,479014828,-0.478983,-0.392785,0.511861,-0.595226,-0.054385,0.183712,0.089820
810,479048162,-0.478981,-0.392899,0.511296,-0.595638,-0.052912,0.213185,0.060710
811,479081496,-0.478699,-0.393420,0.510757,-0.595983,-0.075367,0.275999,0.042816
812,479114830,-0.478127,-0.394312,0.510329,-0.596220,-0.158006,0.219721,0.072400
813,479148164,-0.477566,-0.395287,0.510181,-0.596151,-0.196575,0.170667,0.071750
814,479181498,-0.477230,-0.396143,0.510324,-0.595729,-0.153672,0.105982,0.064324
815,479214832,-0.476931,-0.397185,0.510503,-0.595120,-0.097305,0.022564,0.066553
816,479248166,-0.476502,-0.398592,0.510493,-0.594531,-0.079501,-0.051207,0.102752
817,479281500,-0.476166,-0.399906,0.510444,-0.593960,-0.032424,-0.104370,0.136510
818,479314834,-0.476008,-0.400819,0.510526,-0.593400,0.002587,-0.116095,0.205358
819,479348168,-0.476035,-0.401271,0.510689,-0.592933,0.032197,-0.073649,0.193579
820,479381502,-0.476118,-0.401542,0.510917,-0.592487,0.017849,0.016618,0.206005
821,479414836,-0.476076,-0.402161,0.510933,-0.592086,0.024276,0.050123,0.185153
822,479448170,-0.475815,-0.402900,0.510884,-0.591836,-0.069091,0.112876,0.122099
823,479481504,-0.475559,-0.403385,0.511110,-0.591515,-0.138514,0.103977,0.035878
824,479514838,-0.475396,-0.403827,0.511550,-0.590965,-0.140345,0.108858,0.046690
825,479548172,-0.475330,-0.404324,0.512032,-0.590261,-0.160307,0.102375,0.122264
826,479581506,-0.475208,-0.404867,0.512555,-0.589532,-0.151837,0.055207,0.148396
827,479614840,-0.475314,-0.405262,0.513227,-0.588589,-0.090053,-0.037501,0.191629
828,479648174,-0.475589,-0.405604,0.513855,-0.587584,-0.054020,-0.069963,0.206766
829,479681508,-0.475827,-0.406027,0.514319,-0.586691,0.007635,-0.139707,0.219015
830,479714842,-0.476049,-0.406426,0.514643,-0.585951,0.014790,-0.152651,0.186502
831,479748176,-0.476312,-0.406635,0.514923,-0.585346,0.044362,-0.149037,0.210874
832,479781510,-0.476703,-0.406554,0.515207,-0.584833,0.054918,-0.107606,0.229425
833,479814844,-0.477121,-0.406258,0.515494,-0.584446,0.070160,-0.075198,0.198124
834,479848178,-0.477270,-0.406081,0.515639,-0.584319,0.063785,-0.030432,0.157276
835,479881512,-0.477229,-0.406061,0.515706,-0.584306,-0.007700,-0.004408,0.148300
836,479914846,-0.477202,-0.406083,0.515795,-0.584235,-0.094684,0.026494,0.130111
837,479948180,-0.477183,-0.406152,0.515891,-0.584117,-0.049865,-0.030797,0.110632
838,479981514,-0.477123,-0.406376,0.515949,-0.583960,-0.086547,0.013825,0.188369
839,480014848,-0.477062,-0.406728,0.515907,-0.583802,-0.040802,-0.056694,0.209226
840,480048182,-0.477072,-0.406958,0.515938,-0.583606,-0.073340,-0.039949,0.170351
841,480081516,-0.477033,-0.407081,0.515945,-0.583546,-0.047564,-0.098885,0.170996
842,480114850,-0.477077,-0.407231,0.515837,-0.583501,-0.028318,-0.088447,0.207541
843,480148184,-0.477234,-0.407227,0.515701,-0.583495,-0.017442,-0.029186,0.171199
844,480181518,-0.477327,-0.407082,0.515621,-0.583591,0.002005,0.006203,0.116662
845,480214852,-0.477288,-0.407129,0.515491,-0.583705,-0.000294,0.039326,0.086513
846,480248186,-0.477102,-0.407410,0.515218,-0.583903,-0.043350,0.047606,0.131504
847,480281520,-0.476825,-0.407617,0.515049,-0.584133,-0.079483,0.068600,0.185684
848,480314854,-0.476747,-0.407449,0.515163,-0.584213,-0.086608,0.040111,0.122522
849,480348188,-0.476590,-0.407418,0.515221,-0.584312,-0.115945,-0.004138,0.169141
850,480381522,-0.476493,-0.407468,0.515185,-0.584388,-0.150207,-0.022456,0.169424
851,480414856,-0.476572,-0.407417,0.515117,-0.584419,-0.118923,-0.076114,0.181427
852,480448190,-0.476928,-0.407147,0.515025,-0.584398,-0.107580,-0.052953,0.197106
853,480481524,-0.477336,-0.406818,0.514879,-0.584423,-0.077879,0.010127,0.156657
854,480514858,-0.477698,-0.406523,0.514781,-0.584418,-0.052626,0.067489,0.157593
855,480548192,-0.477942,-0.406377,0.514704,-0.584388,-0.044832,0.053517,0.101642
856,480581526,-0.478015,-0.406390,0.514624,-0.584389,-0.075919,0.086950,0.142486
857,480614860,-0.478355,-0.406301,0.514698,-0.584108,-0.060605,0.021908,0.146215
858,480648194,-0.478529,-0.406273,0.514780,-0.583913,-0.086941,0.066165,0.077612
859,480681528,-0.478711,-0.406208,0.514966,-0.583645,-0.073733,0.034689,0.086155
860,480714862,-0.479062,-0.406218,0.515208,-0.583136,-0.067979,0.097722,0.112464
861,480748196,-0.479234,-0.406407,0.515403,-0.582691,-0.041437,0.083226,0.123808
862,480781530,-0.479213,-0.406655,0.515677,-0.582293,-0.010704,0.068872,0.076002
863,480814864,-0.479188,-0.406982,0.515967,-0.581827,-0.043271,-0.007898,0.196602
864,480848198,-0.479145,-0.407409,0.516137,-0.581414,-0.068161,-0.016893,0.186128
865,480881532,-0.479156,-0.407666,0.516356,-0.581029,-0.028101,-0.086075,0.183100
866,480914866,-0.479250,-0.407976,0.516491,-0.580614,-0.004815,-0.117032,0.150893
867,480948200,-0.479274,-0.408565,0.516288,-0.580360,0.019180,-0.101728,0.135505
868,480981534,-0.479352,-0.409145,0.515920,-0.580215,0.079102,-0.053963,0.165834
869,481014868,-0.479273,-0.409646,0.515441,-0.580352,0.116308,-0.018528,0.220593
870,481048202,-0.479145,-0.409963,0.514958,-0.580663,0.068008,0.033122,0.180228
871,481081536,-0.478963,-0.410099,0.514538,-0.581089,0.002325,0.056657,0.117184
872,481114870,-0.478880,-0.410177,0.514192,-0.581409,-0.045113,0.121552,0.106923
873,481148204,-0.478693,-0.410538,0.513814,-0.581641,-0.063675,0.139781,0.076422
874,481181538,-0.478480,-0.411144,0.513457,-0.581704,-0.059441,0.153056,0.159560
875,481214872,-0.478176,-0.412005,0.513088,-0.581671,-0.072629,0.119905,0.146275
876,481248206,-0.477854,-0.412844,0.512879,-0.581524,-0.080634,0.112488,0.095533
877,481281540,-0.477627,-0.413627,0.512840,-0.581190,-0.074873,0.111074,0.060544
878,481314874,-0.477463,-0.414537,0.512876,-0.580643,-0.044450,0.084693,0.104483
879,481348208,-0.477252,-0.415593,0.512957,-0.579990,0.002308,0.071459,0.166236
880,481381542,-0.477057,-0.416580,0.513190,-0.579236,0.043037,0.037165,0.230341
881,481414876,-0.476676,-0.417655,0.513325,-0.578656,0.091998,-0.076862,0.237726
882,481448210,-0.476385,-0.418508,0.513445,-0.578173,0.086343,-0.139902,0.260770
883,481481544,-0.476244,-0.419027,0.513519,-0.577846,0.051678,-0.178460,0.195672
884,481514878,-0.476293,-0.419230,0.513569,-0.577615,0.027249,-0.165572,0.169860
885,481548212,-0.476392,-0.419451,0.513437,-0.577489,0.056308,-0.090717,0.148000
886,481581546,-0.476423,-0.419898,0.513072,-0.577464,0.084118,-0.010636,0.164565
887,481614880,-0.476288,-0.420532,0.512570,-0.577560,0.083815,0.041310,0.185750
888,481648214,-0.476039,-0.421208,0.512127,-0.577665,0.111532,0.037384,0.164722
889,481681548,-0.475531,-0.422000,0.511649,-0.577929,0.082772,0.025311,0.165594
890,481714882,-0.475143,-0.422619,0.511236,-0.578161,0.029183,-0.025251,0.134382
891,481748216,-0.474775,-0.423052,0.510902,-0.578442,0.013888,-0.017533,0.124610
892,481781550,-0.474613,-0.423438,0.510523,-0.578627,0.015851,-0.000192,0.195669
893,481814884,-0.474394,-0.424108,0.509897,-0.578868,-0.022645,0.027933,0.190914
894,481848218,-0.474125,-0.424935,0.509277,-0.579028,0.004006,-0.003316,0.192219
895,481881552,-0.473733,-0.426069,0.508364,-0.579317,0.000408,-0.020245,0.175083
896,481914886,-0.473207,-0.427424,0.507213,-0.579758,-0.024862,-0.041303,0.272098
897,481948220,-0.472666,-0.428800,0.505886,-0.580342,-0.026823,-0.035761,0.290971
898,481981554,-0.472356,-0.429802,0.504685,-0.580899,-0.072042,0.001887,0.235440
899,482014888,-0.472170,-0.430555,0.503571,-0.581460,-0.071494,0.026598,0.172806
900,482048222,-0.471785,-0.431477,0.502243,-0.582236,-0.067203,0.050323,0.146192
901,482081556,-0.471851,-0.432015,0.501325,-0.582574,-0.144894,0.081503,0.077911
902,482114890,-0.471721,-0.432750,0.500312,-0.583005,-0.117277,0.100922,0.073237
903,482148224,-0.471694,-0.433580,0.499267,-0.583306,-0.143675,0.112805,0.077471
904,482181558,-0.471763,-0.434333,0.498404,-0.583429,-0.153539,0.129372,0.163630
905,482214892,-0.472014,-0.434843,0.497733,-0.583418,-0.170017,0.102399,0.189852
906,482248226,-0.472486,-0.434998,0.497312,-0.583279,-0.193028,0.079891,0.180915
907,482281560,-0.473218,-0.434812,0.497074,-0.583028,-0.204934,0.061479,0.226680
908,482314894,-0.474246,-0.434282,0.496992,-0.582658,-0.238494,0.073704,0.209206
909,482348228,-0.475521,-0.433487,0.497134,-0.582089,-0.233409,0.057304,0.336375
910,482381562,-0.476890,-0.432874,0.496951,-0.581581,-0.221430,-0.002362,0.356741
911,482414896,-0.478591,-0.431965,0.496724,-0.581053,-0.309399,0.002658,0.269706
912,482448230,-0.480794,-0.430366,0.496833,-0.580327,-0.330077,-0.005369,0.313812
913,482481564,-0.483519,-0.428251,0.497159,-0.579347,-0.310251,-0.002239,0.291328
914,482514898,-0.486499,-0.425936,0.497565,-0.578210,-0.304542,0.103063,0.129629
915,482548232,-0.489481,-0.423375,0.498306,-0.576935,-0.242456,0.099728,-0.022532
916,482581566,-0.492263,-0.420781,0.499225,-0.575669,-0.270431,0.168155,-0.025820
917,482614900,-0.494941,-0.418383,0.500311,-0.574176,-0.284590,0.136440,0.004342
918,482648234,-0.497757,-0.415986,0.501670,-0.572295,-0.386226,0.163846,-0.002648
919,482681568,-0.500952,-0.413035,0.503761,-0.569802,-0.382054,0.132431,-0.054226
920,482714902,-0.504549,-0.409642,0.506152,-0.566952,-0.274007,-0.114218,0.082288
921,482748236,-0.508549,-0.406033,0.508729,-0.563658,-0.364403,-0.147880,0.065509
922,482781570,-0.512473,-0.403170,0.510959,-0.560132,-0.251395,-0.150403,0.217301
923,482814904,-0.516245,-0.401173,0.512668,-0.556528,-0.273224,-0.062946,0.204309
924,482848238,-0.519851,-0.399516,0.514408,-0.552746,-0.127418,0.049258,0.188026
925,482881572,-0.523123,-0.398296,0.516099,-0.548950,-0.054224,0.124971,0.273850
926,482914906,-0.526217,-0.397283,0.517874,-0.545041,-0.105798,0.149732,0.190858
927,482948240,-0.529391,-0.396094,0.519904,-0.540883,-0.034570,0.043112,0.258710
928,482981574,-0.532452,-0.395283,0.521579,-0.536845,-0.073454,-0.147771,0.335622
929,483014908,-0.535562,-0.394390,0.523008,-0.533004,-0.136029,-0.189418,0.269698
930,483048242,-0.538927,-0.392882,0.524490,-0.529255,-0.212965,-0.169854,0.328323
931,483081576,-0.542485,-0.391056,0.526130,-0.525331,-0.137042,-0.256952,0.422411
932,483114910,-0.545893,-0.389535,0.527585,-0.521458,-0.068498,-0.451797,0.069309
933,483148244,-0.549197,-0.387646,0.529281,-0.517664,0.018412,-0.595440,-0.248445
934,483181578,-0.552599,-0.385012,0.531035,-0.514201,0.198995,-0.743755,-0.307218
935,483214912,-0.555817,-0.382279,0.532255,-0.511503,0.428793,-0.821582,-0.305889
936,483248246,-0.558160,-0.380242,0.533011,-0.509680,0.622327,-0.758853,-0.379967
937,483281580,-0.559235,-0.379719,0.533168,-0.508725,0.549766,-0.634610,-0.391399
938,483314914,-0.558862,-0.380916,0.532789,-0.508637,0.488188,-0.546286,-0.287622
939,483348248,-0.557357,-0.382746,0.532527,-0.509189,0.487671,-0.529868,-0.034888
940,483381582,-0.554752,-0.384478,0.532536,-0.510718,0.611068,-0.529670,0.257732
941,483414916,-0.550496,-0.386618,0.531963,-0.514292,0.607324,-0.404084,0.420338
942,483448250,-0.544994,-0.387848,0.531725,-0.519446,0.218536,-0.351229,0.474121
943,483481584,-0.538522,-0.388365,0.531799,-0.525697,-0.105876,-0.217954,0.469157
944,483514918,-0.531595,-0.388587,0.532064,-0.532274,-0.589718,0.068612,0.378488
945,483548252,-0.525036,-0.387776,0.533040,-0.538365,-0.970944,0.091006,0.270542
946,483581586,-0.519053,-0.386003,0.534696,-0.543771,-1.018786,0.019353,0.150215
947,483614920,-0.513365,-0.384981,0.535592,-0.548988,-1.159940,0.023485,0.131649
948,483648254,-0.508597,-0.384813,0.535593,-0.553524,-1.535609,-0.014711,0.107096
949,483681588,-0.505741,-0.384160,0.536196,-0.556005,-1.548875,-0.024818,-0.144261
950,483714922,-0.505211,-0.382180,0.537698,-0.556401,-1.429651,0.058626,-0.055351
951,483748256,-0.506452,-0.379636,0.539506,-0.555262,-1.209509,0.027470,0.397553
952,483781590,-0.508476,-0.378049,0.540391,-0.553633,-0.979543,0.096528,0.649370
953,483814924,-0.510940,-0.377242,0.540515,-0.551790,-0.890411,0.076779,0.580322
954,483848258,-0.513686,-0.375758,0.541171,-0.549607,-0.762751,-0.178232,0.411269
955,483881592,-0.517051,-0.372777,0.542406,-0.547258,-0.529288,-0.276220,0.153560
956,483914926,-0.521681,-0.367917,0.543797,-0.544767,-0.402114,-0.208300,0.004304
957,483948260,-0.527564,-0.361741,0.545317,-0.541710,-0.266589,-0.035604,-0.035549
958,483981594,-0.534010,-0.355439,0.547046,-0.537808,0.032996,0.171417,-0.016726
959,484014928,-0.539936,-0.350639,0.548095,-0.533961,0.362170,0.273960,0.025864
960,484048262,-0.544512,-0.348155,0.548062,-0.530965,0.499667,0.377055,-0.049305
961,484081596,-0.547827,-0.347000,0.547900,-0.528472,0.487750,0.526633,-0.123885
962,484114930,-0.550252,-0.346571,0.548310,-0.525802,0.611598,0.486223,-0.047214
963,484148264,-0.551917,-0.347409,0.548689,-0.523101,0.729840,0.392635,-0.006591
964,484181598,-0.553060,-0.349205,0.548945,-0.520423,0.729221,0.372839,0.156703
965,484214932,-0.554099,-0.350776,0.549723,-0.517432,0.742631,0.306397,0.221225
966,484248266,-0.555236,-0.351266,0.551488,-0.513991,0.827304,0.202513,0.234123
967,484281600,-0.556196,-0.350871,0.553969,-0.510544,0.971988,0.022749,0.110636
968,484314934,-0.556563,-0.350120,0.556589,-0.507803,1.037642,-0.160227,-0.000656
969,484348268,-0.556176,-0.349589,0.558867,-0.506087,0.955760,-0.321332,0.049821
970,484381602,-0.555508,-0.348810,0.560995,-0.505002,0.778820,-0.288994,-0.000440
971,484414936,-0.555130,-0.346916,0.563486,-0.503948,0.740766,-0.340661,0.077834
972,484448270,-0.554938,-0.344424,0.566034,-0.503013,0.750964,-0.330993,0.221557
973,484481604,-0.554603,-0.341894,0.568426,-0.502410,0.750528,-0.309222,0.357059
974,484514938,-0.553850,-0.339591,0.570520,-0.502429,0.636046,-0.235944,0.447358
975,484548272,-0.552739,-0.337141,0.572607,-0.502929,0.506084,-0.123400,0.334737
976,484581606,-0.551081,-0.335081,0.574482,-0.503985,0.437749,-0.124874,0.260984
977,484614940,-0.548657,-0.334429,0.575711,-0.505658,0.310643,-0.090626,0.115417
978,484648274,-0.545768,-0.335128,0.576255,-0.507698,0.173871,-0.029462,-0.005233
979,484681608,-0.543041,-0.336498,0.576548,-0.509381,0.059531,0.000148,0.026493
980,484714942,-0.540712,-0.338444,0.576637,-0.510467,0.081144,0.000198,0.144474
981,484748276,-0.538636,-0.340726,0.576626,-0.511155,0.149938,0.007109,0.200733
982,484781610,-0.536659,-0.343038,0.576606,-0.511711,0.188468,-0.040066,0.287336
983,484814944,-0.534596,-0.345424,0.576589,-0.512284,0.257037,-0.063289,0.368799
984,484848278,-0.532372,-0.348021,0.576354,-0.513107,0.263630,-0.166267,0.397560
985,484881612,-0.530136,-0.350587,0.575941,-0.514137,0.216082,-0.209109,0.301603
986,484914946,-0.528153,-0.352843,0.575351,-0.515294,0.212878,-0.262360,0.341364
987,484948280,-0.526479,-0.354976,0.574305,-0.516707,0.173861,-0.247293,0.321474
988,484981614,-0.525238,-0.356653,0.573133,-0.518115,0.109292,-0.157520,0.217320
989,485014948,-0.524422,-0.357825,0.572068,-0.519309,0.122949,-0.064754,0.198573
990,485048282,-0.523766,-0.359253,0.570775,-0.520407,0.150856,-0.020313,0.242898
991,485081616,-0.523207,-0.361269,0.569167,-0.521334,0.125004,0.032940,0.254109
992,485114950,-0.522764,-0.363568,0.567472,-0.522027,0.186600,0.044189,0.304089
993,485148284,-0.522400,-0.366036,0.565711,-0.522578,0.233223,0.050936,0.257723
994,485181618,-0.522162,-0.368555,0.563933,-0.522966,0.317965,0.027223,0.251601
995,485214952,-0.522204,-0.371028,0.562071,-0.523180,0.364143,0.005860,0.216915
996,485248286,-0.522619,-0.373137,0.560256,-0.523213,0.432538,0.013488,0.258662
997,485281620,-0.523458,-0.374572,0.558676,-0.523039,0.545610,-0.006776,0.224067
998,485314954,-0.524491,-0.375203,0.557426,-0.522884,0.612058,0.041969,0.198400
999,485348288,-0.525567,-0.375084,0.556566,-0.522807,0.649332,0.047730,0.202528
1000,485381622,-0.526383,-0.374665,0.555947,-0.522944,0.611663,0.046340,0.148664
1001,485414956,-0.526882,-0.374174,0.555532,-0.523234,0.525674,0.023567,0.077629
1002,485448290,-0.527126,-0.373635,0.555253,-0.523669,0.442504,-0.019569,0.076862
1003,485481624,-0.527077,-0.373500,0.554818,-0.524276,0.385808,-0.056288,0.088150
1004,485514958,-0.526750,-0.374078,0.553994,-0.525063,0.354937,-0.067569,0.087911
1005,485548292,-0.526078,-0.375268,0.552728,-0.526221,0.336854,0.006379,0.181633
1006,485581626,-0.524872,-0.377074,0.551214,-0.527719,0.268319,0.049484,0.316277
1007,485614960,-0.523135,-0.379145,0.549706,-0.529531,0.162536,0.104373,0.309770
1008,485648294,-0.521005,-0.380855,0.548491,-0.531659,0.057032,0.096426,0.190429
1009,485681628,-0.518489,-0.381988,0.547785,-0.534028,-0.023213,0.069898,0.046398
1010,485714962,-0.515610,-0.382916,0.547287,-0.536655,-0.114175,0.044465,-0.043595
1011,485748296,-0.512502,-0.384048,0.546764,-0.539350,-0.275718,0.041382,-0.065923
1012,485781630,-0.509401,-0.385686,0.546114,-0.541772,-0.360239,0.043098,-0.024799
1013,485814964,-0.506460,-0.387906,0.545326,-0.543735,-0.426709,0.004316,-0.024465
1014,485848298,-0.503631,-0.390718,0.544257,-0.545417,-0.403604,-0.041741,-0.026179
1015,485881632,-0.500829,-0.394036,0.542833,-0.547028,-0.437861,-0.022599,0.181006
1016,485914966,-0.498113,-0.397654,0.541194,-0.548511,-0.449191,-0.027898,0.277950
1017,485948300,-0.495561,-0.401212,0.539558,-0.549842,-0.433219,-0.072081,0.327209
1018,485981634,-0.493233,-0.404461,0.537879,-0.551198,-0.438645,-0.132966,0.411478
1019,486014968,-0.491259,-0.407216,0.536257,-0.552512,-0.488907,-0.190055,0.369821
1020,486048302,-0.489750,-0.409185,0.534911,-0.553700,-0.508740,-0.219217,0.286793
1021,486081636,-0.488530,-0.410730,0.533651,-0.554849,-0.481919,-0.294722,0.190044
1022,486114970,-0.487302,-0.412566,0.532042,-0.556110,-0.476102,-0.333307,0.171656
1023,486148304,-0.486075,-0.414991,0.529869,-0.557452,-0.454979,-0.286251,0.159806
1024,486181638,-0.485003,-0.417653,0.527409,-0.558729,-0.381544,-0.172493,0.139982
1025,486214972,-0.483944,-0.420387,0.524935,-0.559926,-0.226474,-0.142847,0.162413
1026,486248306,-0.482777,-0.422918,0.522533,-0.561272,-0.213131,-0.037028,0.033776
1027,486281640,-0.481703,-0.424751,0.520704,-0.562510,-0.136163,0.012339,0.030834
1028,486314974,-0.480427,-0.426372,0.519046,-0.563905,-0.075603,0.021338,0.065787
1029,486348308,-0.478739,-0.428029,0.517371,-0.565621,-0.196623,0.055055,0.153430
1030,486381642,-0.476768,-0.429538,0.515901,-0.567482,-0.338962,0.031758,0.329015
1031,486414976,-0.474813,-0.430729,0.514705,-0.569302,-0.534257,0.011756,0.330584
1032,486448310,-0.473164,-0.431334,0.514021,-0.570833,-0.579307,-0.071179,0.268182
1033,486481644,-0.471846,-0.431612,0.513556,-0.572131,-0.624834,-0.120652,0.115204
1034,486514978,-0.470896,-0.431798,0.513160,-0.573127,-0.626648,-0.126237,0.026807
1035,486548312,-0.470348,-0.432345,0.512421,-0.573825,-0.571294,-0.144197,0.049988
1036,486581646,-0.470214,-0.433399,0.511220,-0.574211,-0.507302,-0.104961,0.055460
1037,486614980,-0.470453,-0.434418,0.509999,-0.574332,-0.432767,-0.063124,0.120570
1038,486648314,-0.470987,-0.434932,0.509092,-0.574309,-0.332861,-0.044240,0.214906
1039,486681648,-0.471603,-0.435034,0.508415,-0.574326,-0.272609,-0.015965,0.263592
1040,486714982,-0.472244,-0.434653,0.507962,-0.574489,-0.236765,0.009984,0.230288
1041,486748316,-0.472987,-0.433611,0.507905,-0.574716,-0.274361,0.014663,0.168632
1042,486781650,-0.473882,-0.432080,0.508181,-0.574887,-0.268360,0.018012,0.158633
1043,486814984,-0.474848,-0.430281,0.508617,-0.575054,-0.316804,0.022073,0.136248
1044,486848318,-0.475883,-0.428333,0.509193,-0.575143,-0.358694,0.010998,0.165595
1045,486881652,-0.477038,-0.426239,0.509904,-0.575112,-0.447265,0.034045,0.116724
1046,486914986,-0.478405,-0.423801,0.510941,-0.574857,-0.450088,0.040646,0.043096
1047,486948320,-0.479844,-0.421454,0.512110,-0.574343,-0.403639,0.049752,0.000105
1048,486981654,-0.481196,-0.419718,0.513037,-0.573655,-0.385552,0.043359,0.006838
1049,487014988,-0.482520,-0.418495,0.513825,-0.572731,-0.325171,0.053629,0.027310
1050,487048322,-0.483840,-0.417452,0.514608,-0.571674,-0.224238,0.026659,0.053888
1051,487081656,-0.485055,-0.416449,0.515419,-0.570644,-0.146359,0.007297,0.066557
1052,487114990,-0.486098,-0.415414,0.516325,-0.569692,-0.115572,0.005833,0.085860
1053,487148324,-0.486863,-0.414281,0.517295,-0.568983,-0.096182,-0.000667,0.098622
1054,487181658,-0.487406,-0.413116,0.518346,-0.568409,-0.118787,-0.030710,0.184513
1055,487214992,-0.487764,-0.412023,0.519358,-0.567971,-0.171200,-0.066601,0.189982
1056,487248326,-0.488090,-0.410719,0.520463,-0.567625,-0.191370,-0.108572,0.194551
1057,487281660,-0.488500,-0.409105,0.521628,-0.567367,-0.235094,-0.123513,0.183533
1058,487314994,-0.488915,-0.407373,0.522729,-0.567243,-0.254459,-0.104833,0.104238
1059,487348328,-0.489220,-0.405806,0.523692,-0.567215,-0.325406,-0.079622,0.096173
1060,487381662,-0.489501,-0.404385,0.524585,-0.567162,-0.364902,-0.072141,0.075073
1061,487414996,-0.489874,-0.403022,0.525506,-0.566958,-0.350977,-0.041083,0.036676
1062,487448330,-0.490282,-0.401760,0.526347,-0.566721,-0.304422,-0.017972,0.095913
1063,487481664,-0.490609,-0.400769,0.527079,-0.566458,-0.327852,0.018323,0.180389
1064,487514998,-0.490933,-0.399772,0.527895,-0.566122,-0.325885,0.023278,0.249339
1065,487548332,-0.491318,-0.398598,0.528835,-0.565739,-0.306746,0.010050,0.278352
1066,487581666,-0.491776,-0.397273,0.529845,-0.565327,-0.328926,0.024119,0.285369
1067,487615000,-0.492383,-0.395870,0.530938,-0.564757,-0.379248,0.044436,0.255030
1068,487648334,-0.493260,-0.394472,0.532079,-0.563896,-0.364384,0.048510,0.202029
1069,487681668,-0.494301,-0.393244,0.533155,-0.562826,-0.315696,0.044619,0.084089
1070,487715002,-0.495422,-0.392375,0.534111,-0.561537,-0.247451,0.028420,0.044976
1071,487748336,-0.496448,-0.392198,0.534750,-0.560146,-0.176889,0.047931,0.094332
1072,487781670,-0.497511,-0.392382,0.535313,-0.558533,-0.086546,0.045498,0.040601
1073,487815004,-0.498769,-0.392765,0.535907,-0.556569,0.044985,0.034243,0.123328
1074,487848338,-0.500146,-0.393445,0.536465,-0.554311,0.110749,0.003129,0.096691
1075,487881672,-0.501551,-0.394464,0.536910,-0.551881,0.285050,-0.006466,0.115160
1076,487915006,-0.502869,-0.395689,0.537107,-0.549609,0.383310,-0.013632,0.129090
1077,487948340,-0.504051,-0.396775,0.537404,-0.547449,0.485299,-0.007549,0.138599
1078,487981674,-0.505168,-0.397484,0.537910,-0.545404,0.516421,-0.001143,0.116777
1079,488015008,-0.506317,-0.397644,0.538741,-0.543397,0.594464,-0.014849,0.121598
1080,488048342,-0.507440,-0.397628,0.539793,-0.541313,0.647823,-0.035170,0.157057
1081,488081676,-0.508358,-0.397802,0.540903,-0.539212,0.746459,-0.053656,0.173350
1082,488115010,-0.508677,-0.398690,0.541653,-0.537501,0.854631,-0.129874,0.176801
1083,488148344,-0.508006,-0.400582,0.541730,-0.536650,0.877546,-0.200271,0.300484
1084,488181678,-0.506598,-0.402801,0.541384,-0.536669,0.717531,-0.208946,0.406061
1085,488215012,-0.505241,-0.404066,0.541393,-0.536988,0.603695,-0.248053,0.432169
1086,488248346,-0.504126,-0.404198,0.541705,-0.537622,0.546263,-0.292549,0.321505
1087,488281680,-0.503155,-0.403597,0.542081,-0.538603,0.442867,-0.325925,0.213899
1088,488315014,-0.502587,-0.402405,0.542349,-0.539755,0.289862,-0.259807,0.208755
1089,488348348,-0.502805,-0.400684,0.542562,-0.540616,0.214096,-0.205647,0.215417
1090,488381682,-0.503727,-0.398707,0.542715,-0.541067,0.243065,-0.093016,0.225491
1091,488415016,-0.504779,-0.396932,0.542790,-0.541316,0.302809,0.009996,0.220197
1092,488448350,-0.505601,-0.395769,0.542640,-0.541551,0.331404,0.061413,0.260940
1093,488481684,-0.506076,-0.395400,0.542206,-0.541811,0.273344,0.060762,0.172394
1094,488515018,-0.506486,-0.395181,0.541925,-0.541870,0.271356,0.031296,0.077063
1095,488548352,-0.507000,-0.395057,0.541664,-0.541740,0.309278,-0.024958,0.120081
1096,488581686,-0.507522,-0.395285,0.541249,-0.541500,0.371489,-0.042893,0.183675
1097,488615020,-0.507975,-0.395669,0.540702,-0.541341,0.417388,-0.035254,0.286644
1098,488648354,-0.508251,-0.396047,0.540080,-0.541426,0.453348,-0.076791,0.293367
1099,488681688,-0.508304,-0.396450,0.539377,-0.541781,0.427262,-0.073954,0.253237
1100,488715022,-0.508268,-0.396812,0.538552,-0.542370,0.352526,-0.091550,0.184269
1101,488748356,-0.508225,-0.397071,0.537715,-0.543052,0.320221,-0.049818,0.130328
1102,488781690,-0.508214,-0.397169,0.536890,-0.543806,0.288534,-0.021096,0.166432
1103,488815024,-0.508198,-0.397187,0.536102,-0.544585,0.251836,0.015443,0.102267
1104,488848358,-0.508123,-0.397152,0.535443,-0.545328,0.279187,0.070117,0.102195
1105,488881692,-0.507832,-0.397305,0.534752,-0.546165,0.268154,0.070987,0.134523
1106,488915026,-0.507249,-0.397707,0.534072,-0.547079,0.236558,0.091783,0.043031
1107,488948360,-0.506462,-0.398131,0.533548,-0.548010,0.218728,0.074716,0.002242
1108,488981694,-0.505502,-0.398635,0.533049,-0.549015,0.215241,0.093110,-0.012419
1109,489015028,-0.504348,-0.399431,0.532483,-0.550046,0.176962,0.110877,0.047775
1110,489048362,-0.502777,-0.400746,0.531789,-0.551198,0.182024,0.075789,0.095098
1111,489081696,-0.500901,-0.402134,0.531307,-0.552358,0.100368,0.075986,0.140369
1112,489115030,-0.498573,-0.403776,0.530704,-0.553844,0.083791,-0.053747,0.166674
1113,489148364,-0.495935,-0.405671,0.529849,-0.555644,-0.022895,-0.078875,0.131848
1114,489181698,-0.493147,-0.407679,0.528649,-0.557795,-0.138647,-0.100544,0.171878
1115,489215032,-0.490431,-0.409532,0.527419,-0.559991,-0.230921,-0.128768,0.240614
1116,489248366,-0.487914,-0.411058,0.526216,-0.562199,-0.280747,-0.123387,0.285439
1117,489281700,-0.485535,-0.412268,0.524998,-0.564508,-0.352523,-0.086457,0.222949
1118,489315034,-0.483362,-0.413114,0.523881,-0.566787,-0.403316,-0.062600,0.075847
1119,489348368,-0.481593,-0.413696,0.522967,-0.568709,-0.425243,0.015588,0.022024
1120,489381702,-0.480181,-0.414637,0.521951,-0.570148,-0.354304,0.066573,0.111983
1121,489415036,-0.478843,-0.416406,0.520618,-0.571202,-0.290000,0.120399,0.096727
1122,489448370,-0.477486,-0.418419,0.519363,-0.572009,-0.251399,0.103686,0.089176
1123,489481704,-0.476099,-0.420219,0.518373,-0.572744,-0.212279,0.081933,0.093614
1124,489515038,-0.474744,-0.421876,0.517518,-0.573424,-0.256757,0.098698,0.131103
1125,489548372,-0.473391,-0.423713,0.516650,-0.573970,-0.251902,0.112116,0.335531
1126,489581706,-0.471890,-0.425777,0.515792,-0.574451,-0.289340,0.091065,0.459713
1127,489615040,-0.470327,-0.427491,0.515308,-0.574893,-0.339407,-0.028393,0.453862
1128,489648374,-0.468808,-0.428604,0.515045,-0.575540,-0.417751,-0.171674,0.255434
1129,489681708,-0.467633,-0.428985,0.514998,-0.576253,-0.551985,-0.259136,0.135056
1130,489715042,-0.466969,-0.428907,0.514870,-0.576965,-0.604637,-0.258359,0.067698
1131,489748376,-0.466982,-0.428502,0.514765,-0.577348,-0.658986,-0.198981,0.137974
1132,489781710,-0.467498,-0.428230,0.514570,-0.577307,-0.632899,-0.214411,0.213325
1133,489815044,-0.468227,-0.428371,0.514110,-0.577022,-0.571921,-0.237028,0.301308
1134,489848378,-0.469187,-0.428399,0.513599,-0.576675,-0.579371,-0.257374,0.273417
1135,489881712,-0.470621,-0.427750,0.513502,-0.576075,-0.500264,-0.298715,0.183579
1136,489915046,-0.472485,-0.426623,0.513651,-0.575252,-0.405243,-0.239922,0.054423
1137,489948380,-0.474498,-0.425620,0.513754,-0.574244,-0.266299,-0.179850,-0.067467
1138,489981714,-0.476297,-0.425168,0.513694,-0.573143,-0.132394,-0.074137,-0.064406
1139,490015048,-0.477538,-0.425480,0.513381,-0.572159,-0.036569,-0.019145,0.060799
1140,490048382,-0.478218,-0.426284,0.512917,-0.571407,-0.021028,0.039176,0.113708
1141,490081716,-0.478513,-0.426789,0.512917,-0.570783,-0.025883,0.019860,0.175966
1142,490115050,-0.478532,-0.426730,0.513327,-0.570443,-0.085244,0.020855,0.197713
1143,490148384,-0.478476,-0.425935,0.514225,-0.570275,-0.216199,-0.007617,0.131756
1144,490181718,-0.478518,-0.424341,0.515707,-0.570089,-0.366517,-0.049146,0.133513
1145,490215052,-0.478740,-0.422228,0.517552,-0.569800,-0.491754,-0.073785,0.090138
1146,490248386,-0.479191,-0.419982,0.519565,-0.569248,-0.571544,-0.142144,0.098623
1147,490281720,-0.479831,-0.418052,0.521423,-0.568430,-0.626543,-0.203453,0.098330
1148,490315054,-0.480741,-0.416535,0.523014,-0.567312,-0.626853,-0.253998,0.124122
1149,490348388,-0.482002,-0.415335,0.524248,-0.565982,-0.523137,-0.266833,0.145145
1150,490381722,-0.483524,-0.414135,0.525342,-0.564547,-0.438329,-0.186999,0.188404
1151,490415056,-0.485201,-0.412873,0.526321,-0.563118,-0.314017,-0.215954,0.258199
1152,490448390,-0.486938,-0.411459,0.527224,-0.561808,-0.268469,-0.151302,0.249852
1153,490481724,-0.488801,-0.409433,0.528325,-0.560636,-0.244056,-0.150870,0.226326
1154,490515058,-0.490729,-0.406917,0.529630,-0.559550,-0.187972,-0.120432,0.294009
1155,490548392,-0.492483,-0.404298,0.530957,-0.558650,-0.168221,-0.094863,0.270567
1156,490581726,-0.493924,-0.401884,0.532149,-0.557983,-0.158529,-0.124727,0.200772
1157,490615060,-0.494984,-0.400041,0.532966,-0.557589,-0.192750,-0.118636,0.171318
1158,490648394,-0.495980,-0.398530,0.533628,-0.557153,-0.237049,-0.128417,0.194679
1159,490681728,-0.496907,-0.397311,0.534069,-0.556775,-0.204464,-0.095775,0.165854
1160,490715062,-0.497963,-0.396075,0.534419,-0.556375,-0.165605,-0.054475,0.143632
1161,490748396,-0.499019,-0.394897,0.534757,-0.555943,-0.132893,0.036413,0.118569
1162,490781730,-0.500136,-0.393741,0.535179,-0.555352,-0.091909,0.066165,0.073743
1163,490815064,-0.501207,-0.392729,0.535682,-0.554618,-0.022908,0.083217,0.006433
1164,490848398,-0.502052,-0.391911,0.536243,-0.553889,0.048983,0.064401,-0.011285
1165,490881732,-0.502689,-0.391299,0.536824,-0.553181,0.079015,0.057203,-0.052156
1166,490915066,-0.503185,-0.390874,0.537347,-0.552522,0.141495,0.079276,-0.035481
1167,490948400,-0.503550,-0.390449,0.537973,-0.551881,0.135458,0.088270,0.027740
1168,490981734,-0.503738,-0.389866,0.538872,-0.551245,0.172324,0.058922,0.078664
1169,491015068,-0.503728,-0.389027,0.540002,-0.550739,0.135183,0.054927,0.142324
1170,491048402,-0.503494,-0.388021,0.541223,-0.550465,0.088076,-0.018701,0.174060
1171,491081736,-0.503044,-0.386930,0.542412,-0.550474,0.006051,-0.046410,0.189025
1172,491115070,-0.502543,-0.385717,0.543494,-0.550715,-0.124271,-0.072481,0.173830
1173,491148404,-0.502147,-0.384502,0.544383,-0.551048,-0.218563,-0.059618,0.164967
1174,491181738,-0.501929,-0.383516,0.544939,-0.551384,-0.349151,0.036127,0.315015
1175,491215072,-0.502044,-0.383015,0.545118,-0.551451,-0.442796,0.124114,0.530350
1176,491248406,-0.502706,-0.382713,0.545242,-0.550935,-0.449925,0.208513,0.425401
1177,491281740,-0.503962,-0.382125,0.545656,-0.549784,-0.324418,0.193778,0.165876
1178,491315074,-0.505604,-0.381668,0.546100,-0.548150,-0.203914,0.135834,0.008737
1179,491348408,-0.507669,-0.381632,0.546371,-0.545994,-0.096881,0.165450,0.070786
1180,491381742,-0.510369,-0.381625,0.546655,-0.543190,0.051170,0.140861,0.171712
1181,491415076,-0.513562,-0.381344,0.547187,-0.539832,0.269050,0.108982,0.138967
1182,491448410,-0.516947,-0.380974,0.547794,-0.536234,0.413284,0.066151,0.109970
1183,491481744,-0.520285,-0.380707,0.548402,-0.532561,0.565008,-0.039817,0.009318
1184,491515078,-0.523415,-0.380653,0.548835,-0.529075,0.709357,-0.073447,-0.021671
1185,491548412,-0.526359,-0.380847,0.549021,-0.525812,0.780920,-0.079226,0.089681
1186,491581746,-0.529220,-0.381129,0.549255,-0.522481,0.885907,-0.107900,0.164555
1187,491615080,-0.531988,-0.381069,0.549832,-0.519096,0.977098,-0.129347,0.231812
1188,491648414,-0.534301,-0.380599,0.550695,-0.516142,1.180083,-0.225843,0.284534
1189,491681748,-0.535483,-0.380359,0.551386,-0.514353,1.242940,-0.320328,0.258900
1190,491715082,-0.535450,-0.380384,0.551738,-0.513992,1.178549,-0.374858,0.224121
1191,491748416,-0.534711,-0.380195,0.551873,-0.514756,0.964148,-0.376024,0.248913
1192,491781750,-0.533746,-0.379622,0.551956,-0.516089,0.867448,-0.337266,0.307540
1193,491815084,-0.532536,-0.378983,0.551781,-0.517992,0.784115,-0.296758,0.381670
1194,491848418,-0.530877,-0.378549,0.551296,-0.520523,0.611391,-0.228161,0.358867
1195,491881752,-0.528708,-0.378299,0.550662,-0.523575,0.454803,-0.203996,0.348577
1196,491915086,-0.526045,-0.378470,0.549670,-0.527164,0.266058,-0.159688,0.316049
1197,491948420,-0.523221,-0.379018,0.548284,-0.531009,0.057764,-0.061499,0.262036
1198,491981754,-0.520646,-0.379643,0.546790,-0.534621,-0.095257,0.010715,0.150832
1199,492015088,-0.518484,-0.380286,0.545391,-0.537686,-0.159029,0.087744,0.153474
1200,492048422,-0.516666,-0.381077,0.544000,-0.540279,-0.245289,0.131863,0.187343
1201,492081756,-0.515082,-0.382112,0.542614,-0.542450,-0.270575,0.118661,0.131903
1202,492115090,-0.513674,-0.383293,0.541294,-0.544267,-0.318478,0.096015,0.013263
1203,492148424,-0.512403,-0.384686,0.539952,-0.545814,-0.324924,0.050180,0.106629
1204,492181758,-0.511484,-0.386292,0.538509,-0.546965,-0.348594,0.024812,0.102742
1205,492215092,-0.511065,-0.387678,0.537268,-0.547596,-0.292546,0.042684,0.090324
1206,492248426,-0.511100,-0.388699,0.536400,-0.547691,-0.140553,-0.025909,0.195706
1207,492281760,-0.511244,-0.389694,0.535442,-0.547787,-0.040961,-0.029184,0.174232
1208,492315094,-0.511426,-0.390214,0.534673,-0.547998,-0.016665,-0.003380,0.137697
1209,492348428,-0.511760,-0.389924,0.534319,-0.548237,-0.040585,0.034900,0.072561
1210,492381762,-0.512284,-0.389090,0.534303,-0.548356,-0.034010,0.083285,0.045659
1211,492415096,-0.512802,-0.388154,0.534453,-0.548390,-0.015684,0.130268,0.002609
1212,492448430,-0.513131,-0.387386,0.534635,-0.548447,-0.061978,0.157575,-0.052832
1213,492481764,-0.513232,-0.386892,0.535037,-0.548309,-0.047134,0.127804,-0.073056
1214,492515098,-0.513123,-0.387007,0.535330,-0.548045,-0.018455,0.109890,-0.081300
1215,492548432,-0.512846,-0.387673,0.535495,-0.547672,-0.015002,0.049252,0.015568
1216,492581766,-0.512461,-0.388488,0.535746,-0.547209,-0.000162,0.024751,0.139302
1217,492615100,-0.512026,-0.389050,0.536161,-0.546811,0.004365,-0.063304,0.233579
1218,492648434,-0.511489,-0.389249,0.536749,-0.546595,-0.022098,-0.125455,0.239647
1219,492681768,-0.510960,-0.389014,0.537478,-0.546540,-0.086076,-0.159311,0.219253
1220,492715102,-0.510366,-0.388697,0.538058,-0.546750,-0.155744,-0.170009,0.205714
1221,492748436,-0.509828,-0.388339,0.538517,-0.547054,-0.238991,-0.144254,0.195077
1222,492781770,-0.509348,-0.387982,0.538912,-0.547365,-0.309713,-0.092728,0.200079
1223,492815104,-0.508895,-0.387698,0.539265,-0.547640,-0.333068,-0.063941,0.173864
1224,492848438,-0.508467,-0.387539,0.539573,-0.547848,-0.371875,-0.060495,0.236080
1225,492881772,-0.507918,-0.387879,0.539605,-0.548085,-0.400189,-0.101512,0.298034
1226,492915106,-0.507401,-0.388433,0.539435,-0.548338,-0.457608,-0.128138,0.263825
1227,492948440,-0.507064,-0.388676,0.539320,-0.548590,-0.527760,-0.154478,0.217708
1228,492981774,-0.507024,-0.388523,0.539330,-0.548726,-0.525064,-0.193619,0.226637
1229,493015108,-0.507396,-0.388189,0.539290,-0.548658,-0.526716,-0.196212,0.195438
1230,493048442,-0.508024,-0.387839,0.539236,-0.548377,-0.497622,-0.158108,0.210788
1231,493081776,-0.508797,-0.387592,0.539142,-0.547927,-0.452768,-0.157694,0.235225
1232,493115110,-0.509764,-0.387482,0.539004,-0.547242,-0.392423,-0.158319,0.238253
1233,493148444,-0.510849,-0.387466,0.538786,-0.546456,-0.293495,-0.167738,0.161057
1234,493181778,-0.511972,-0.387404,0.538520,-0.545710,-0.231740,-0.157107,0.073913
1235,493215112,-0.512966,-0.387407,0.538205,-0.545085,-0.129709,-0.099164,0.069642
1236,493248446,-0.513817,-0.387559,0.537945,-0.544432,-0.042359,-0.030779,0.049543
1237,493281780,-0.514296,-0.387849,0.537738,-0.543977,-0.019710,0.035900,0.120828
1238,493315114,-0.514264,-0.388138,0.537665,-0.543873,-0.058951,0.001152,0.161543
1239,493348448,-0.514120,-0.387886,0.538114,-0.543745,-0.167145,0.029161,0.045811
1240,493381782,-0.513901,-0.387406,0.538852,-0.543564,-0.172221,-0.049558,0.000631
1241,493415116,-0.513480,-0.387435,0.539427,-0.543370,-0.191912,-0.010919,0.018403
1242,493448450,-0.512976,-0.388088,0.539702,-0.543107,-0.211203,-0.048519,0.093823
1243,493481784,-0.512520,-0.388880,0.539981,-0.542695,-0.162026,-0.066284,0.140806
1244,493515118,-0.512027,-0.389532,0.540273,-0.542400,-0.112723,-0.086504,0.131953
1245,493548452,-0.511607,-0.389886,0.540646,-0.542172,-0.093665,-0.102826,0.175184
1246,493581786,-0.511188,-0.390028,0.541079,-0.542032,-0.101395,-0.092824,0.175776
1247,493615120,-0.510747,-0.389904,0.541628,-0.541989,-0.079651,-0.113294,0.178257
1248,493648454,-0.510225,-0.389693,0.542222,-0.542038,-0.120162,-0.102892,0.143003
1249,493681788,-0.509732,-0.389481,0.542869,-0.542007,-0.101026,-0.143907,0.139488
1250,493715122,-0.509071,-0.389666,0.543278,-0.542085,-0.052908,-0.131107,0.124355
1251,493748456,-0.508429,-0.389946,0.543529,-0.542236,-0.049481,-0.137289,0.129352
1252,493781790,-0.507762,-0.390279,0.543652,-0.542497,-0.030672,-0.152963,0.149839
1253,493815124,-0.507242,-0.390411,0.543835,-0.542705,0.018822,-0.120472,0.153914
1254,493848458,-0.506770,-0.390371,0.544055,-0.542954,0.065859,-0.148838,0.204588
1255,493881792,-0.506189,-0.390336,0.544104,-0.543472,0.030507,-0.140233,0.207216
1256,493915126,-0.505360,-0.390389,0.544094,-0.544214,0.048374,-0.161474,0.256885
1257,493948460,-0.504449,-0.390280,0.544096,-0.545135,-0.017963,-0.101004,0.194263
1258,493981794,-0.503472,-0.390095,0.544073,-0.546194,-0.044136,-0.116776,0.145894
1259,494015128,-0.502482,-0.390032,0.544012,-0.547210,-0.122387,-0.063519,0.186296
1260,494048462,-0.501467,-0.390363,0.543744,-0.548170,-0.132576,-0.099882,0.201938
1261,494081796,-0.500385,-0.390983,0.543310,-0.549146,-0.124322,-0.093379,0.148149
1262,494115130,-0.499341,-0.391654,0.542753,-0.550168,-0.135051,-0.116613,0.173397
1263,494148464,-0.498494,-0.392330,0.542062,-0.551135,-0.090475,-0.086998,0.202597
1264,494181798,-0.497829,-0.392878,0.541365,-0.552030,-0.063439,-0.052341,0.207265
1265,494215132,-0.497229,-0.393293,0.540766,-0.552862,0.007237,-0.017583,0.187226
1266,494248466,-0.496518,-0.393817,0.540076,-0.553802,-0.023349,0.001492,0.157141
1267,494281800,-0.495828,-0.394278,0.539468,-0.554684,-0.040222,0.016853,0.171780
1268,494315134,-0.495099,-0.394926,0.538716,-0.555604,-0.034823,0.030665,0.195948
1269,494348468,-0.494381,-0.395690,0.537988,-0.556406,-0.063276,0.059951,0.226347
1270,494381802,-0.493637,-0.396472,0.537296,-0.557177,-0.131349,0.047564,0.197488
1271,494415136,-0.492977,-0.397197,0.536692,-0.557827,-0.190570,0.037627,0.152367
1272,494448470,-0.492464,-0.398042,0.536007,-0.558337,-0.222145,0.026618,0.171308
1273,494481804,-0.492119,-0.399053,0.535232,-0.558662,-0.219256,0.029407,0.194896
1274,494515138,-0.492119,-0.399878,0.534495,-0.558777,-0.200691,0.062656,0.162984
1275,494548472,-0.492482,-0.400338,0.534042,-0.558561,-0.132183,0.031956,0.092885
1276,494581806,-0.492946,-0.400825,0.533681,-0.558148,-0.060330,0.068037,0.139837
1277,494615140,-0.493502,-0.401626,0.533132,-0.557605,0.077004,0.034123,0.180283
1278,494648474,-0.493985,-0.402511,0.532543,-0.557102,0.124634,0.037107,0.069962
1279,494681808,-0.494785,-0.402967,0.532195,-0.556394,0.233061,0.031796,0.066238
1280,494715142,-0.495694,-0.403261,0.531892,-0.555662,0.311461,0.067565,0.051933
1281,494748476,-0.496661,-0.403306,0.531851,-0.554805,0.398313,0.117311,0.101388
1282,494781810,-0.497643,-0.402977,0.532091,-0.553932,0.444437,0.154996,0.088175
1283,494815144,-0.498221,-0.402586,0.532501,-0.553302,0.474227,0.139401,0.129386
1284,494848478,-0.498567,-0.402176,0.533078,-0.552732,0.463685,0.124290,0.143841
1285,494881812,-0.498502,-0.401924,0.533670,-0.552404,0.446030,0.072870,0.195102
1286,494915146,-0.498136,-0.401845,0.534218,-0.552262,0.415174,-0.011616,0.223596
1287,494948480,-0.497617,-0.401776,0.534677,-0.552336,0.312447,-0.053204,0.224091
1288,494981814,-0.497202,-0.401359,0.535206,-0.552501,0.255114,-0.104005,0.244697
1289,495015148,-0.497009,-0.400716,0.535650,-0.552710,0.193537,-0.074756,0.257394
1290,495048482,-0.497019,-0.400057,0.535884,-0.552952,0.162330,-0.046340,0.252293
1291,495081816,-0.497107,-0.399481,0.535971,-0.553204,0.128826,0.014761,0.216816
1292,495115150,-0.497387,-0.398770,0.536177,-0.553266,0.109656,0.050502,0.145610
1293,495148484,-0.497572,-0.398291,0.536334,-0.553293,0.093784,0.072260,0.115795
1294,495181818,-0.497923,-0.398058,0.536433,-0.553048,0.125923,0.056194,0.216373
1295,495215152,-0.498265,-0.398092,0.536499,-0.552652,0.167942,0.021662,0.208836
1296,495248486,-0.498504,-0.398139,0.536557,-0.552346,0.198161,-0.059522,0.247082
1297,495281820,-0.498578,-0.398380,0.536388,-0.552269,0.189746,-0.110813,0.286636
1298,495315154,-0.498633,-0.398685,0.536012,-0.552365,0.168893,-0.107013,0.253805
1299,495348488,-0.498820,-0.398636,0.535642,-0.552590,0.118951,-0.108478,0.224891
1300,495381822,-0.499142,-0.398273,0.535357,-0.552838,0.085510,-0.076038,0.169756
1301,495415156,-0.499467,-0.397924,0.535021,-0.553120,0.057066,-0.020380,0.129694
1302,495448490,-0.499900,-0.397479,0.534783,-0.553280,0.014498,0.030400,0.087873
1303,495481824,-0.500390,-0.396944,0.534715,-0.553287,0.005072,0.058842,0.059788
1304,495515158,-0.500840,-0.396510,0.534704,-0.553201,0.009998,0.091982,0.065529
1305,495548492,-0.501158,-0.396335,0.534744,-0.553000,-0.022364,0.080400,0.108215
1306,495581826,-0.501197,-0.396456,0.534819,-0.552805,-0.029117,0.055250,0.139478
1307,495615160,-0.500939,-0.396781,0.534934,-0.552694,-0.087368,-0.000351,0.187422
1308,495648494,-0.500679,-0.396983,0.535169,-0.552556,-0.137581,-0.073777,0.164373
1309,495681828,-0.500511,-0.396939,0.535493,-0.552427,-0.165559,-0.126214,0.160433
1310,495715162,-0.500612,-0.396558,0.535924,-0.552191,-0.185989,-0.139252,0.119372
1311,495748496,-0.500808,-0.396117,0.536365,-0.551903,-0.182105,-0.121638,0.076228
1312,495781830,-0.501042,-0.395918,0.536716,-0.551491,-0.137134,-0.187200,0.095428
1313,495815164,-0.501198,-0.396131,0.536787,-0.551127,-0.084011,-0.174486,0.061996
1314,495848498,-0.501308,-0.396298,0.536804,-0.550890,-0.073650,-0.199428,0.108439
1315,495881832,-0.501357,-0.396342,0.536804,-0.550815,-0.046695,-0.171198,0.102705
1316,495915166,-0.501520,-0.396105,0.536874,-0.550769,0.012532,-0.110361,0.096457
1317,495948500,-0.501512,-0.395929,0.536947,-0.550831,0.057368,-0.096620,0.145238
1318,495981834,-0.501221,-0.395951,0.536924,-0.551102,0.057880,-0.086879,0.202895
1319,496015168,-0.500565,-0.396021,0.536901,-0.551670,-0.043141,-0.069679,0.190452
1320,496048502,-0.499717,-0.395956,0.536999,-0.552390,-0.139316,-0.100134,0.180150
1321,496081836,-0.498990,-0.395704,0.537166,-0.553065,-0.257256,-0.139635,0.183574
1322,496115170,-0.498332,-0.395400,0.537297,-0.553749,-0.371300,-0.117957,0.202108
1323,496148504,-0.497837,-0.395000,0.537403,-0.554375,-0.432459,-0.079395,0.214720
1324,496181838,-0.497794,-0.394195,0.537745,-0.554656,-0.477956,-0.059764,0.192132
1325,496215172,-0.497835,-0.393545,0.537876,-0.554953,-0.482004,-0.036900,0.186623
1326,496248506,-0.498332,-0.392743,0.538093,-0.554864,-0.539798,0.045827,0.113979
1327,496281840,-0.499082,-0.391850,0.538562,-0.554367,-0.481091,0.049609,0.079597
1328,496315174,-0.500025,-0.391125,0.539090,-0.553515,-0.440443,0.052016,0.144302
1329,496348508,-0.500933,-0.390851,0.539545,-0.552443,-0.384863,0.011727,0.196346
1330,496381842,-0.501806,-0.390676,0.540043,-0.551287,-0.348369,-0.042551,0.189132
1331,496415176,-0.502903,-0.390138,0.540782,-0.549942,-0.304509,-0.131587,0.158621
1332,496448510,-0.504157,-0.389454,0.541514,-0.548557,-0.204238,-0.153814,0.141760
1333,496481844,-0.505215,-0.388996,0.541985,-0.547442,-0.156096,-0.172583,0.143226
1334,496515178,-0.506449,-0.388389,0.542549,-0.546172,-0.067436,-0.141869,0.167224
1335,496548512,-0.507286,-0.388041,0.542879,-0.545315,-0.066709,-0.143819,0.162374
1336,496581846,-0.508092,-0.387446,0.543366,-0.544502,-0.044587,-0.148269,0.147910
1337,496615180,-0.508740,-0.386902,0.543787,-0.543862,-0.012498,-0.126643,0.106925
1338,496648514,-0.509222,-0.386302,0.544365,-0.543260,-0.019773,-0.122273,0.095358
1339,496681848,-0.509567,-0.385799,0.544897,-0.542760,-0.006606,-0.113142,0.075502
1340,496715182,-0.509685,-0.385611,0.545320,-0.542358,0.026088,-0.103085,0.080329
1341,496748516,-0.509533,-0.385712,0.545632,-0.542115,0.055504,-0.095466,0.083027
1342,496781850,-0.509166,-0.385980,0.545918,-0.541981,0.082692,-0.087532,0.084342
1343,496815184,-0.508719,-0.386262,0.546239,-0.541877,0.088937,-0.077952,0.073349
1344,496848518,-0.508035,-0.386722,0.546498,-0.541929,0.150963,-0.117985,0.038324
1345,496881852,-0.507131,-0.387281,0.546763,-0.542109,0.133418,-0.096248,0.148541
1346,496915186,-0.506061,-0.387997,0.546923,-0.542436,0.123312,-0.132182,0.228000
1347,496948520,-0.504842,-0.388684,0.547121,-0.542880,0.039042,-0.145540,0.174035
1348,496981854,-0.503478,-0.389350,0.547195,-0.543595,0.023383,-0.184518,0.247343
1349,497015188,-0.502045,-0.390075,0.547096,-0.544498,-0.044806,-0.151878,0.229289
1350,497048522,-0.500630,-0.390832,0.546883,-0.545472,-0.070147,-0.137331,0.251325
1351,497081856,-0.499219,-0.391841,0.546388,-0.546537,-0.133753,-0.106550,0.192225
1352,497115190,-0.497891,-0.393038,0.545824,-0.547451,-0.163010,-0.075625,0.166199
1353,497148524,-0.496637,-0.394524,0.545063,-0.548279,-0.173082,-0.054196,0.179127
1354,497181858,-0.495655,-0.396012,0.544327,-0.548826,-0.165291,-0.023563,0.176591
1355,497215192,-0.494898,-0.397318,0.543785,-0.549102,-0.105758,-0.059191,0.191525
1356,497248526,-0.494283,-0.398473,0.543331,-0.549269,-0.031748,-0.063146,0.132079
1357,497281860,-0.493738,-0.399608,0.542888,-0.549371,0.066935,-0.078451,0.111599
1358,497315194,-0.493273,-0.400710,0.542435,-0.549434,0.147321,-0.086928,0.115078
1359,497348528,-0.492750,-0.401823,0.541915,-0.549605,0.209405,-0.081514,0.139085
1360,497381862,-0.492207,-0.402780,0.541447,-0.549850,0.228899,-0.076778,0.152864
1361,497415196,-0.491680,-0.403480,0.541072,-0.550178,0.240467,-0.055638,0.148608
1362,497448530,-0.491074,-0.403846,0.540941,-0.550580,0.235988,-0.025369,0.153237
1363,497481864,-0.490367,-0.404038,0.540913,-0.551097,0.209039,-0.053370,0.235186
1364,497515198,-0.489540,-0.404366,0.540791,-0.551710,0.137669,-0.069781,0.182158
1365,497548532,-0.488847,-0.404466,0.540801,-0.552242,0.087264,-0.080053,0.136279
1366,497581866,-0.488286,-0.404477,0.540779,-0.552750,0.059113,-0.073019,0.183797
1367,497615200,-0.487771,-0.404692,0.540612,-0.553212,0.120640,-0.059837,0.162414
1368,497648534,-0.487183,-0.405118,0.540306,-0.553717,0.177919,-0.033635,0.123959
1369,497681868,-0.486360,-0.405804,0.539887,-0.554346,0.204785,-0.041362,0.161306
1370,497715202,-0.485446,-0.406699,0.539347,-0.555017,0.204565,-0.004160,0.204071
1371,497748536,-0.484397,-0.407651,0.538759,-0.555805,0.190354,-0.009616,0.232404
1372,497781870,-0.483137,-0.408550,0.538173,-0.556809,0.172301,-0.036201,0.208519
1373,497815204,-0.481874,-0.409363,0.537613,-0.557846,0.054937,-0.027726,0.207308
1374,497848538,-0.480723,-0.410078,0.537077,-0.558829,-0.007120,-0.043788,0.222946
1375,497881872,-0.479738,-0.410638,0.536573,-0.559748,-0.084306,-0.047877,0.164570
1376,497915206,-0.478936,-0.411102,0.536087,-0.560560,-0.104482,-0.040151,0.220710
1377,497948540,-0.478324,-0.411557,0.535606,-0.561208,-0.150200,-0.000247,0.167395
1378,497981874,-0.477990,-0.411864,0.535218,-0.561636,-0.168497,0.004534,0.152622
1379,498015208,-0.477947,-0.411974,0.535047,-0.561755,-0.127104,0.001276,0.127281
1380,498048542,-0.478079,-0.412003,0.534938,-0.561725,-0.030742,-0.051517,0.101115
1381,498081876,-0.478326,-0.411967,0.534915,-0.561564,-0.008235,-0.014881,0.187043
1382,498115210,-0.478630,-0.411998,0.534796,-0.561394,0.070939,-0.064562,0.190869
1383,498148544,-0.478864,-0.411870,0.534748,-0.561335,0.099638,-0.065458,0.158211
1384,498181878,-0.479100,-0.411401,0.534805,-0.561424,0.097133,-0.077480,0.171107
1385,498215212,-0.479453,-0.410612,0.535001,-0.561512,0.091349,-0.055946,0.150295
1386,498248546,-0.479883,-0.409581,0.535296,-0.561618,0.081527,-0.001819,0.156461
1387,498281880,-0.480188,-0.408575,0.535635,-0.561766,0.017246,-0.004783,0.134466
1388,498315214,-0.480375,-0.407745,0.536024,-0.561838,-0.021579,0.006454,0.159038
1389,498348548,-0.480462,-0.407176,0.536300,-0.561913,-0.080332,-0.026939,0.162777
1390,498381882,-0.480553,-0.406815,0.536403,-0.561999,-0.132889,-0.031471,0.193696
1391,498415216,-0.480687,-0.406436,0.536302,-0.562255,-0.154134,0.013045,0.232250
1392,498448550,-0.481485,-0.405640,0.535428,-0.562980,-0.145492,-0.027181,0.359488
1393,498481884,-0.483278,-0.404380,0.533342,-0.564328,-0.081926,-0.242443,0.379817
1394,498515218,-0.485335,-0.403413,0.530968,-0.565492,-0.537733,-0.297207,0.015675
1395,498548552,-0.487029,-0.402160,0.530459,-0.565406,-0.277283,-0.169976,0.114300
1396,498581886,-0.487975,-0.401894,0.529856,-0.565345,-0.075046,-0.019648,0.137052
1397,498615220,-0.488647,-0.402215,0.529153,-0.565195,-0.235574,0.028298,0.058094
1398,498648554,-0.489484,-0.402206,0.529233,-0.564401,-0.074900,0.065218,0.144734
1399,498681888,-0.490064,-0.402711,0.528934,-0.563818,-0.059917,0.072460,0.030740
1400,498715222,-0.490485,-0.403024,0.529075,-0.563096,0.029262,0.032797,0.125778
1401,498748556,-0.490690,-0.403425,0.529334,-0.562386,-0.023375,-0.056619,0.151640
1402,498781890,-0.490520,-0.403777,0.529896,-0.561752,-0.018801,-0.200924,0.142023
1403,498815224,-0.489863,-0.403865,0.531429,-0.560812,0.029850,-0.322616,0.207928
1404,498848558,-0.488408,-0.404687,0.533038,-0.559962,-0.100672,-0.096879,0.092957
1405,498881892,-0.487025,-0.405036,0.534778,-0.559254,-0.245744,-0.043966,0.160299
1406,498915226,-0.486453,-0.404451,0.536925,-0.558118,-0.120280,-0.055108,0.224581
1407,498948560,-0.486303,-0.404003,0.537987,-0.557550,-0.142355,-0.040758,0.239946
1408,498981894,-0.486516,-0.403721,0.538190,-0.557372,-0.328233,-0.114364,0.151460
1409,499015228,-0.487331,-0.403170,0.538112,-0.557135,-0.314582,-0.138540,0.202487
1410,499048562,-0.488277,-0.403001,0.537397,-0.557119,-0.438393,-0.175903,0.143305
1411,499081896,-0.489080,-0.402580,0.537477,-0.556640,-0.115362,-0.096654,0.203197
1412,499115230,-0.490222,-0.402144,0.537250,-0.556170,0.061880,-0.079654,0.276915
1413,499148564,-0.491513,-0.402225,0.535720,-0.556449,-0.098085,-0.079299,0.235054
1414,499181898,-0.493079,-0.401977,0.534323,-0.556585,-0.021639,-0.036247,0.116366
1415,499215232,-0.494614,-0.401676,0.532909,-0.556796,-0.146426,-0.116311,0.167052
1416,499248566,-0.496337,-0.401310,0.531368,-0.557000,-0.000797,-0.105761,0.230156
1417,499281900,-0.497698,-0.401872,0.528965,-0.557667,-0.226092,-0.050588,0.074743
1418,499315234,-0.499943,-0.401385,0.527042,-0.557830,0.214081,-0.206976,0.293745
1419,499348568,-0.502324,-0.403612,0.521173,-0.559596,0.480826,-0.003336,0.419498
1420,499381902,-0.505337,-0.408284,0.512176,-0.561796,-0.392155,0.240565,-0.134212
1421,499415236,-0.509295,-0.411306,0.505306,-0.562239,-1.166252,-0.055408,-0.256233
1422,499448570,-0.513089,-0.412168,0.501683,-0.561402,-0.044111,-0.011846,0.203744
1423,499481904,-0.515904,-0.413894,0.497480,-0.561292,-0.238997,-0.126252,0.151675
1424,499515238,-0.517902,-0.415146,0.494472,-0.561185,0.006432,-0.064582,0.189346
1425,499548572,-0.518850,-0.417548,0.489781,-0.562640,0.455900,0.031720,0.344090
1426,499581906,-0.519160,-0.421998,0.480381,-0.567120,0.575505,-0.186719,0.377260
1427,499615240,-0.515992,-0.430795,0.464797,-0.576309,1.127216,-0.039615,0.433748
1428,499648574,-0.507174,-0.445735,0.439341,-0.592515,1.178213,-0.529337,0.429932
1429,499681908,-0.488885,-0.470003,0.398178,-0.617693,1.092292,0.643349,0.409358
1430,499715242,-0.469472,-0.490773,0.354876,-0.642497,-0.439358,0.077827,0.061651
1431,499748576,-0.455803,-0.501163,0.322474,-0.661128,-0.897334,-0.173803,0.017098
1432,499781910,-0.448072,-0.503644,0.300749,-0.674629,0.025697,0.331379,0.202492
1433,499815244,-0.443314,-0.501829,0.282770,-0.686791,-0.463089,-0.196317,0.117675
1434,499848578,-0.441307,-0.496569,0.271721,-0.696301,0.007481,0.034583,0.013363
1435,499881912,-0.438714,-0.492417,0.260365,-0.705171,-0.199514,0.994194,-0.026100
1436,499915246,-0.436392,-0.487386,0.248402,-0.714363,-0.858769,0.149776,-0.185995
1437,499948580,-0.436719,-0.480505,0.244751,-0.720062,-0.442647,-0.256738,-0.310675
1438,499981914,-0.437488,-0.475923,0.245451,-0.722396,-0.353939,0.545308,-0.285564
1439,500015248,-0.439195,-0.472143,0.245127,-0.723949,-0.775078,0.535426,-0.361047
1440,500048582,-0.443200,-0.468110,0.248090,-0.723118,-0.121893,0.034228,-0.161257
1441,500081916,-0.447440,-0.467241,0.251587,-0.719853,-0.394957,0.512856,-0.357516
1442,500115250,-0.452549,-0.467253,0.253574,-0.715944,-0.764327,0.400075,0.053980
1443,500148584,-0.460531,-0.465647,0.260398,-0.709421,-0.611057,-0.145167,0.175282
1444,500181918,-0.473580,-0.460657,0.278213,-0.697219,-0.861041,-0.536323,0.221448
1445,500215252,-0.490366,-0.454313,0.305162,-0.678246,-0.799330,0.132556,-0.062953
1446,500248586,-0.509118,-0.445332,0.334906,-0.655985,-1.693088,0.393081,-0.091587
1447,500281920,-0.530625,-0.428745,0.372502,-0.629172,-1.108080,0.961060,-0.186635
1448,500315254,-0.551913,-0.407984,0.413342,-0.598406,-0.189605,0.723724,0.662056
1449,500348588,-0.570347,-0.388132,0.442726,-0.572758,1.346391,0.057635,1.479848
1450,500381922,-0.585021,-0.374372,0.455760,-0.556669,0.868178,-0.526738,0.763714
1451,500415256,-0.597134,-0.362182,0.465778,-0.543421,0.186583,-0.619529,0.096852
1452,500448590,-0.607810,-0.347025,0.481526,-0.527516,-0.041888,-0.800441,-0.014640
1453,500481924,-0.615710,-0.326847,0.503890,-0.510066,0.448504,-1.086399,0.449444
1454,500515258,-0.623498,-0.295948,0.533741,-0.488658,1.134864,-0.675199,1.104661
1455,500548592,-0.631104,-0.252023,0.567844,-0.464484,2.031239,-1.106514,1.400967
1456,500581926,-0.633601,-0.206996,0.595915,-0.447871,2.412386,-2.422160,1.695951
1457,500615260,-0.630223,-0.167330,0.616764,-0.440932,2.169196,-1.817714,1.589818
1458,500648594,-0.622488,-0.130491,0.632753,-0.441706,2.039775,-1.924915,1.659324
1459,500681928,-0.611058,-0.097294,0.644380,-0.449352,1.833716,-1.123124,2.039498
1460,500715262,-0.595232,-0.064226,0.654464,-0.461791,1.833892,-0.951365,2.556361
1461,500748596,-0.575456,-0.032217,0.660090,-0.481763,1.678252,-0.195672,3.296331
1462,500781930,-0.549608,0.004928,0.665885,-0.504484,0.872803,0.465147,2.820201
1463,500815264,-0.516747,0.044810,0.672366,-0.528099,0.333925,0.176016,2.694214
1464,500848598,-0.480184,0.079470,0.673213,-0.556681,0.099690,0.706646,2.973731
1465,500881932,-0.441490,0.110180,0.665937,-0.591164,-0.456642,1.535007,2.627786
1466,500915266,-0.400539,0.140815,0.652162,-0.628033,-0.799351,1.743242,3.144165
1467,500948600,-0.358930,0.168631,0.631234,-0.666542,-0.724062,2.663496,4.365927
1468,500981934,-0.305362,0.199278,0.610701,-0.702913,-0.381500,1.859338,2.192387
1469,501015268,-0.236455,0.231635,0.592863,-0.734131,-0.703430,1.362394,-0.045844
1470,501048602,-0.163982,0.260107,0.571767,-0.760616,-2.315785,1.363326,-1.661613
