sep=,
DeviceTag:,2B_Left
FirmwareVersion:,2.2.1
AppVersion:,2023.6.0
SyncStatus:,Synced
OutputRate:,30Hz
FilterProfile:,General
Measurement Mode:,Sensor fusion Mode - Complete(Quaternion)
StartTime: ,2026-05-01_14:27:10_196 AEST
© Movella Technologies B. V. 2005-2026

PacketCounter,SampleTimeFine,Quat_W,Quat_X,Quat_Y,Quat_Z,FreeAcc_X,FreeAcc_Y,FreeAcc_Z
1,1452595220,-0.138233,0.207310,-0.415184,0.874951,0.183818,0.239610,0.232981
2,1452628554,-0.139641,0.208236,-0.414556,0.874806,0.131828,0.119917,0.143235
3,1452661888,-0.141351,0.209496,-0.413750,0.874612,-0.092179,0.046791,0.082163
4,1452695222,-0.142720,0.210469,-0.413050,0.874487,0.034256,0.140206,0.127058
5,1452728556,-0.143936,0.211386,-0.412547,0.874304,0.200232,0.078235,0.222936
6,1452761890,-0.145342,0.212451,-0.411955,0.874092,-0.015534,-0.018676,0.205372
7,1452795224,-0.146404,0.212809,-0.411588,0.874000,-0.092291,0.048494,0.230843
8,1452828558,-0.147135,0.212979,-0.411520,0.873869,-0.000333,0.105286,0.123908
9,1452861892,-0.147752,0.212955,-0.411567,0.873748,0.027656,0.062598,0.214049
10,1452895226,-0.148307,0.212839,-0.411602,0.873666,0.052771,0.126530,0.108725
11,1452928560,-0.148732,0.212593,-0.411873,0.873526,0.090573,0.120418,0.116761
12,1452961894,-0.149224,0.212350,-0.412234,0.873331,0.078887,0.098374,0.197802
13,1452995228,-0.150149,0.213178,-0.412372,0.872905,0.019691,0.113600,0.113070
14,1453028562,-0.151243,0.214307,-0.412424,0.872415,0.020584,0.070449,0.174854
15,1453061896,-0.151934,0.214264,-0.412744,0.872154,-0.095908,0.138175,0.111898
16,1453095230,-0.152299,0.214114,-0.413254,0.871886,0.108791,0.126800,0.210459
17,1453128564,-0.152636,0.213969,-0.413548,0.871723,0.108661,0.099110,0.212136
18,1453161898,-0.152844,0.213583,-0.413927,0.871602,0.049174,0.083774,0.122183
19,1453195232,-0.153072,0.213176,-0.414325,0.871472,0.066598,0.091005,0.172936
20,1453228566,-0.153374,0.213044,-0.414674,0.871285,0.007840,0.112566,0.183441
21,1453261900,-0.153457,0.213146,-0.414993,0.871094,0.067191,0.106835,0.146232
22,1453295234,-0.153347,0.212852,-0.415390,0.870996,0.054148,0.074870,0.220231
23,1453328568,-0.153511,0.212509,-0.415782,0.870863,0.148137,0.205968,-0.004603
24,1453361902,-0.154041,0.212801,-0.415972,0.870608,0.095674,0.125540,0.168630
25,1453395236,-0.154698,0.213632,-0.415998,0.870275,-0.013038,0.159333,0.064766
26,1453428570,-0.155189,0.214393,-0.416199,0.869905,0.021834,0.112668,0.079988
27,1453461904,-0.155871,0.215541,-0.416517,0.869347,0.200787,0.057069,0.217023
28,1453495238,-0.156841,0.217307,-0.416571,0.868706,0.148259,0.041978,0.181661
29,1453528572,-0.156893,0.217362,-0.416985,0.868484,0.024833,0.169469,0.129644
30,1453561906,-0.156816,0.217594,-0.417387,0.868247,-0.029505,0.146754,0.083782
31,1453595240,-0.156794,0.218155,-0.417802,0.867911,0.074364,0.157991,0.127719
32,1453628574,-0.156712,0.218662,-0.418197,0.867608,0.021254,0.066943,0.199227
33,1453661908,-0.156500,0.219048,-0.418451,0.867426,0.141675,0.123438,0.142225
34,1453695242,-0.156448,0.219756,-0.418716,0.867129,0.049872,0.067473,0.207112
35,1453728576,-0.156494,0.220944,-0.418772,0.866791,-0.022937,0.052661,0.201733
36,1453761910,-0.156186,0.221538,-0.418958,0.866605,0.020784,0.126251,0.144382
37,1453795244,-0.155953,0.222330,-0.419094,0.866379,0.141540,0.148638,0.058745
38,1453828578,-0.156057,0.223586,-0.419151,0.866009,0.049255,0.056350,0.291389
39,1453861912,-0.156411,0.225485,-0.418960,0.865545,0.080493,0.042524,0.160587
40,1453895246,-0.156566,0.227346,-0.418893,0.865062,0.166596,0.132079,0.142133
41,1453928580,-0.156468,0.228784,-0.419053,0.864623,-0.065595,0.097452,0.039171
42,1453961914,-0.155948,0.229393,-0.419508,0.864336,0.078485,0.049246,0.192971
43,1453995248,-0.155383,0.230147,-0.419796,0.864097,0.097605,0.100194,0.154378
44,1454028582,-0.154719,0.230842,-0.420209,0.863830,-0.029243,0.034898,0.211547
45,1454061916,-0.153878,0.231344,-0.420628,0.863642,0.130374,0.036657,0.221117
46,1454095250,-0.153313,0.231959,-0.420790,0.863499,0.131796,0.144529,0.083603
47,1454128584,-0.152965,0.232678,-0.420925,0.863301,-0.117528,0.055155,0.146177
48,1454161918,-0.152420,0.233110,-0.421007,0.863241,-0.036206,0.125905,0.175472
49,1454195252,-0.151991,0.233613,-0.421009,0.863180,0.039969,0.034424,0.283506
50,1454228586,-0.151914,0.234547,-0.420686,0.863097,0.022815,0.062088,0.136715
51,1454261920,-0.151909,0.235169,-0.420364,0.863086,0.071107,0.080148,0.185045
52,1454295254,-0.152138,0.235527,-0.419877,0.863185,0.022981,0.006446,0.235657
53,1454328588,-0.152712,0.236556,-0.419257,0.863103,-0.017640,0.142625,0.061134
54,1454361922,-0.153208,0.237714,-0.418859,0.862890,-0.023635,-0.019074,0.233974
55,1454395256,-0.153256,0.238443,-0.418728,0.862744,0.054512,-0.037101,0.237228
56,1454428590,-0.152652,0.238435,-0.418893,0.862774,0.135880,0.013982,0.265228
57,1454461924,-0.151716,0.238285,-0.419101,0.862879,0.057482,0.115965,0.127590
58,1454495258,-0.150822,0.237818,-0.419314,0.863061,0.089723,0.042040,0.207622
59,1454528592,-0.150707,0.236833,-0.419366,0.863327,-0.045789,0.068829,0.068884
60,1454561926,-0.151180,0.237053,-0.419229,0.863250,-0.185080,0.080226,0.280300
61,1454595260,-0.151401,0.237490,-0.419009,0.863198,0.379641,-0.026340,0.027241
62,1454628594,-0.151795,0.236753,-0.418818,0.863424,0.490882,0.012419,-0.117773
63,1454661928,-0.152447,0.238091,-0.418054,0.863312,0.108939,0.214704,0.080068
64,1454695262,-0.152578,0.239331,-0.417069,0.863422,-0.038637,-0.288072,0.011270
65,1454728596,-0.152026,0.238831,-0.417247,0.863572,0.490193,-0.113825,0.034647
66,1454761930,-0.152880,0.239894,-0.417331,0.863086,1.159743,-0.505543,0.905766
67,1454795264,-0.155019,0.241774,-0.416462,0.862599,0.574277,-0.044223,0.154683
68,1454828598,-0.155946,0.242414,-0.416305,0.862328,0.482284,-0.275988,0.166327
69,1454861932,-0.155884,0.241213,-0.416452,0.862605,0.685819,-0.402945,0.243446
70,1454895266,-0.156020,0.240619,-0.415777,0.863072,0.280946,-0.037761,-0.019717
71,1454928600,-0.156279,0.240555,-0.415365,0.863241,-0.073988,0.248235,-0.142356
72,1454961934,-0.156582,0.240519,-0.415263,0.863245,0.260670,0.199211,0.325756
73,1454995268,-0.157299,0.241588,-0.414923,0.862980,-0.204966,-0.368202,-0.032981
74,1455028602,-0.158013,0.241126,-0.415725,0.862593,0.612309,-0.376650,0.734412
75,1455061936,-0.159132,0.240836,-0.416514,0.862087,-0.441665,-0.010246,0.154305
76,1455095270,-0.158978,0.240134,-0.418223,0.861484,0.492248,0.101451,-0.161813
77,1455128604,-0.159916,0.239123,-0.419830,0.860810,0.781407,-0.157992,-0.225174
78,1455161938,-0.162375,0.239212,-0.420570,0.859963,1.055810,-0.542392,0.597263
79,1455195272,-0.164023,0.237399,-0.420401,0.860236,0.659504,-1.122463,0.278872
80,1455228606,-0.165595,0.236084,-0.419571,0.860701,0.493047,-0.721390,0.488158
81,1455261940,-0.167425,0.233924,-0.418416,0.861499,0.716795,-0.801886,0.109422
82,1455295274,-0.170060,0.230598,-0.416972,0.862579,0.913416,-0.495801,0.302279
83,1455328608,-0.174089,0.228803,-0.413948,0.863709,0.588151,-0.344234,0.110541
84,1455361942,-0.178375,0.227636,-0.410750,0.864669,0.031080,-0.753680,0.184483
85,1455395276,-0.182153,0.225956,-0.408126,0.865564,0.307660,-0.480808,0.061719
86,1455428610,-0.184811,0.224930,-0.405992,0.866271,0.639830,-0.351886,0.045289
87,1455461944,-0.185064,0.222410,-0.405262,0.867209,-0.173079,-0.364847,-0.302075
88,1455495278,-0.183177,0.216983,-0.406374,0.868463,0.396235,0.551646,0.068933
89,1455528612,-0.181688,0.213124,-0.408314,0.868821,-0.034200,-0.008719,0.496539
90,1455561946,-0.181653,0.211255,-0.410377,0.868313,-0.374544,-0.365796,0.250484
91,1455595280,-0.182583,0.209167,-0.412780,0.867484,0.061044,0.120987,0.250086
92,1455628614,-0.184437,0.205553,-0.416325,0.866261,-0.166726,0.277402,0.452155
93,1455661948,-0.186519,0.202282,-0.420002,0.864809,-0.578808,-0.325627,0.632546
94,1455695282,-0.188801,0.198566,-0.423902,0.863271,0.334395,-0.047826,0.629178
95,1455728616,-0.193948,0.196203,-0.426507,0.861385,0.011639,0.411148,-0.010038
96,1455761950,-0.198549,0.194703,-0.429214,0.859330,-0.747438,0.138344,-0.160316
97,1455795284,-0.201838,0.193625,-0.431426,0.857698,-0.414711,0.496676,-0.321566
98,1455828618,-0.204436,0.192052,-0.433016,0.856634,0.144977,0.488713,0.388290
99,1455861952,-0.207624,0.190353,-0.433490,0.856007,-0.087444,0.309281,-0.048830
100,1455895286,-0.210715,0.191514,-0.433374,0.855051,0.123310,0.074585,0.325140
101,1455928620,-0.214057,0.193264,-0.432580,0.854229,-0.076013,0.213688,-0.025876
102,1455961954,-0.216815,0.194445,-0.432034,0.853541,-0.062720,-0.062463,0.053608
103,1455995288,-0.219055,0.195136,-0.432039,0.852809,-0.351554,0.527780,-0.420769
104,1456028622,-0.220145,0.194911,-0.432626,0.852282,0.551721,0.492950,0.435072
105,1456061956,-0.221628,0.194521,-0.432829,0.851884,0.184821,0.158174,-0.000816
106,1456095290,-0.224094,0.194901,-0.432466,0.851335,0.306123,0.076665,0.289034
107,1456128624,-0.225925,0.194338,-0.431688,0.851375,-0.143393,0.350532,-0.286616
108,1456161958,-0.226921,0.194458,-0.430923,0.851470,0.020312,0.189118,0.041612
109,1456195292,-0.227379,0.195348,-0.429579,0.851824,0.249060,0.292169,-0.384944
110,1456228626,-0.227199,0.197232,-0.428184,0.852140,0.068591,0.112157,0.074307
111,1456261960,-0.226415,0.200283,-0.426414,0.852524,-0.318700,0.002206,0.064903
112,1456295294,-0.225097,0.203810,-0.423565,0.853457,0.729585,0.543912,-0.430126
113,1456328628,-0.225014,0.208685,-0.420128,0.853999,0.624084,-0.025064,0.262437
114,1456361962,-0.224883,0.213705,-0.415505,0.855054,0.081995,0.245661,0.130795
115,1456395296,-0.224045,0.222016,-0.409743,0.855937,-0.092609,0.140795,-0.583555
116,1456428630,-0.222507,0.228390,-0.404962,0.856935,0.336778,0.005690,0.109740
117,1456461964,-0.219910,0.232138,-0.399589,0.859118,0.478378,0.364901,0.986125
118,1456495298,-0.218279,0.240642,-0.392398,0.860507,0.146796,0.419874,-1.291987
119,1456528632,-0.214369,0.245702,-0.388023,0.862043,0.004058,-0.043781,0.316170
120,1456561966,-0.209270,0.250830,-0.384449,0.863420,0.158440,-0.358426,0.367709
121,1456595300,-0.205265,0.255498,-0.383108,0.863608,0.126328,-0.582629,1.394429
122,1456628634,-0.202439,0.259404,-0.383490,0.862941,0.411828,-0.499374,1.081884
123,1456661968,-0.201503,0.264867,-0.383681,0.861414,0.412499,0.356436,0.212985
124,1456695302,-0.199861,0.272183,-0.383101,0.859772,-0.277090,0.122413,-0.583301
125,1456728636,-0.195066,0.275629,-0.384526,0.859140,-0.020259,-0.444455,-0.007864
126,1456761970,-0.188992,0.278589,-0.386450,0.858679,0.004484,-0.046652,0.255634
127,1456795304,-0.182963,0.279128,-0.388817,0.858741,0.757701,0.445883,0.136750
128,1456828638,-0.178588,0.279732,-0.390295,0.858796,-0.488492,-0.158151,0.487310
129,1456861972,-0.175622,0.280365,-0.391744,0.858541,0.025096,0.150421,0.749785
130,1456895306,-0.174897,0.281228,-0.392833,0.857909,0.442397,0.007372,0.706471
131,1456928640,-0.175424,0.282930,-0.393312,0.857022,-0.173898,-0.510487,0.587133
132,1456961974,-0.176543,0.284147,-0.394242,0.855962,-0.201091,-0.318097,-0.035924
133,1456995308,-0.177348,0.282565,-0.396213,0.855408,0.321194,0.643922,-0.131395
134,1457028642,-0.178909,0.282502,-0.396879,0.854796,-0.028816,0.109191,-0.487564
135,1457061976,-0.179881,0.281802,-0.396854,0.854834,-0.382775,0.486932,0.038985
136,1457095310,-0.180335,0.281619,-0.396025,0.855183,-0.399975,0.199908,-0.668245
137,1457128644,-0.181225,0.280251,-0.394831,0.855996,0.359609,0.636651,0.372106
138,1457161978,-0.183755,0.281035,-0.392586,0.856232,-0.039151,0.457900,-0.308849
139,1457195312,-0.186957,0.281938,-0.391538,0.855722,-0.679354,-0.391594,0.629224
140,1457228646,-0.189156,0.280613,-0.391366,0.855753,0.039513,0.455415,0.304564
141,1457261980,-0.189931,0.278895,-0.390669,0.856461,0.201371,-0.296585,0.252790
142,1457295314,-0.190117,0.276327,-0.390866,0.857162,0.169659,0.842408,-0.771429
143,1457328648,-0.188952,0.272999,-0.392230,0.857863,-0.258260,-0.159383,-0.078788
144,1457361982,-0.188211,0.270731,-0.392206,0.858754,0.424949,0.327003,0.444030
145,1457395316,-0.188767,0.272607,-0.391680,0.858279,-0.236077,-0.778407,-0.438751
146,1457428650,-0.188960,0.270012,-0.392911,0.858494,0.289183,-0.352084,0.778813
147,1457461984,-0.189798,0.268509,-0.392981,0.858749,1.040598,0.480485,0.557182
148,1457495318,-0.193151,0.270122,-0.392592,0.857672,-0.973573,-0.240034,0.031590
149,1457528652,-0.195400,0.269336,-0.394395,0.856582,0.606033,-0.320070,0.067060
150,1457561986,-0.199604,0.268065,-0.396736,0.854929,0.315522,-0.127367,0.569092
151,1457595320,-0.206521,0.268530,-0.400507,0.851374,-0.498684,-0.407588,0.564994
152,1457628654,-0.210334,0.266452,-0.407385,0.847823,-0.662152,-1.135025,0.645484
153,1457661988,-0.212063,0.261384,-0.415198,0.845176,0.703303,0.354232,-0.333308
154,1457695322,-0.213806,0.255163,-0.421707,0.843413,0.928578,1.498544,-0.248917
155,1457728656,-0.216651,0.249611,-0.426408,0.841984,-1.070601,0.421766,-0.306218
156,1457761990,-0.220191,0.244055,-0.428823,0.841467,-0.233382,0.612114,0.192721
157,1457795324,-0.226420,0.240751,-0.428186,0.841090,0.069993,0.476742,-0.243625
158,1457828658,-0.234779,0.238094,-0.426857,0.840230,-0.498061,-0.210300,0.478052
159,1457861992,-0.242132,0.234205,-0.426337,0.839500,0.562330,-0.478999,0.584941
160,1457895326,-0.250462,0.231130,-0.425647,0.838258,0.549809,0.272616,0.515819
161,1457928660,-0.257324,0.227820,-0.426460,0.836670,-0.095125,-0.592784,0.362696
162,1457961994,-0.262518,0.222777,-0.428299,0.835474,0.595097,0.682695,0.273573
163,1457995328,-0.266954,0.219464,-0.429837,0.834155,0.000144,0.447567,-0.343343
164,1458028662,-0.270282,0.216160,-0.431621,0.833024,-0.742935,0.259295,0.103407
165,1458061996,-0.272847,0.213877,-0.432528,0.832307,0.030740,0.427098,-0.289401
166,1458095330,-0.275960,0.213410,-0.431865,0.831744,-0.703224,0.292039,0.202094
167,1458128664,-0.278762,0.214990,-0.429924,0.831408,-0.288601,0.186280,-0.537722
168,1458161998,-0.281078,0.216088,-0.426862,0.831922,-0.086366,0.477136,0.836235
169,1458195332,-0.281754,0.217822,-0.423682,0.832866,-0.121664,0.068356,-0.307495
170,1458228666,-0.281599,0.219514,-0.420608,0.834031,-0.115983,-0.172615,0.155482
171,1458262000,-0.281024,0.221693,-0.417368,0.835276,0.651388,0.215598,0.127369
172,1458295334,-0.280988,0.224932,-0.413679,0.836256,-0.213692,0.276789,0.023457
173,1458328668,-0.280039,0.229244,-0.410019,0.837206,-0.434316,0.196904,-0.001596
174,1458362002,-0.277730,0.232937,-0.407190,0.838336,0.088276,0.156668,-0.620683
175,1458395336,-0.275520,0.236668,-0.403953,0.839585,0.460621,0.065610,0.503150
176,1458428670,-0.274002,0.241780,-0.398696,0.841137,0.228738,0.590660,0.087893
177,1458462004,-0.271379,0.248479,-0.393451,0.842503,-0.660742,-0.485598,-0.212235
178,1458495338,-0.268057,0.254740,-0.388719,0.843892,0.379018,-0.011829,0.168360
179,1458528672,-0.265934,0.261941,-0.383754,0.844632,0.427261,-0.345777,0.831546
180,1458562006,-0.263665,0.269895,-0.379294,0.844853,-0.049079,-0.545806,0.537333
181,1458595340,-0.260203,0.276527,-0.377127,0.844752,0.508963,-0.706677,0.512251
182,1458628674,-0.255949,0.280903,-0.376307,0.844973,0.633940,-0.477187,0.829691
183,1458662008,-0.252326,0.285612,-0.374818,0.845146,-0.178914,-0.067879,-0.249153
184,1458695342,-0.246869,0.290128,-0.373414,0.845841,0.165010,0.214924,-0.098626
185,1458728676,-0.240378,0.294262,-0.372252,0.846794,-0.392599,-0.170863,-0.229454
186,1458762010,-0.232998,0.296641,-0.371960,0.848154,0.013560,0.091546,0.134927
187,1458795344,-0.225850,0.299202,-0.372174,0.849094,0.519253,-0.613047,1.098448
188,1458828678,-0.220074,0.300900,-0.373124,0.849593,0.178776,-0.373180,1.262486
189,1458862012,-0.216394,0.302655,-0.374048,0.849509,0.117020,0.003209,-0.189363
190,1458895346,-0.213240,0.303844,-0.374932,0.849493,-0.253331,-0.077397,0.394025
191,1458928680,-0.210917,0.305447,-0.375977,0.849036,-0.343427,0.185747,-0.084718
192,1458962014,-0.208664,0.305880,-0.377993,0.848541,0.151396,0.266988,0.434663
193,1458995348,-0.207116,0.305453,-0.380126,0.848121,-0.669079,0.219633,0.014250
194,1459028682,-0.206104,0.303430,-0.382398,0.848073,-0.148398,0.033510,0.021384
195,1459062016,-0.205049,0.301984,-0.384033,0.848106,-0.747823,0.432376,-0.705495
196,1459095350,-0.202742,0.298112,-0.386291,0.849004,0.061976,0.601105,-0.372438
197,1459128684,-0.201531,0.294708,-0.387311,0.850016,0.160225,0.514623,-0.226153
198,1459162018,-0.201763,0.292685,-0.386220,0.851155,-0.352141,-0.112549,0.385899
199,1459195352,-0.202296,0.291723,-0.384634,0.852076,-0.571300,-0.172553,-0.435754
200,1459228686,-0.201785,0.287472,-0.385646,0.853185,0.337016,-0.605426,0.745397
201,1459262020,-0.201988,0.282642,-0.387075,0.854102,1.269862,-0.178408,0.701579
202,1459295354,-0.203602,0.282026,-0.387281,0.853829,0.315515,-0.637581,0.124321
203,1459328688,-0.204602,0.280171,-0.387326,0.854181,0.871913,0.407097,-0.146544
204,1459362022,-0.205325,0.278794,-0.386485,0.854838,0.652962,0.061874,-0.020618
205,1459395356,-0.206416,0.278555,-0.386003,0.854872,-0.733430,0.062458,-0.589132
206,1459428690,-0.207002,0.276127,-0.386211,0.855423,-0.010678,-0.384445,-0.423618
207,1459462024,-0.207063,0.270968,-0.388154,0.856178,0.244267,-1.035407,0.840276
208,1459495358,-0.208848,0.266900,-0.388286,0.856963,0.377018,0.480111,0.873869
209,1459528692,-0.210561,0.263507,-0.388162,0.857649,0.129689,-0.564908,0.381484
210,1459562026,-0.213284,0.257823,-0.389300,0.858188,0.347845,0.254418,0.392759
211,1459595360,-0.216738,0.252510,-0.392466,0.857460,-0.161191,-0.065342,0.439618
212,1459628694,-0.219909,0.247066,-0.397407,0.855961,0.158291,-0.571911,1.047358
213,1459662028,-0.223139,0.241160,-0.403329,0.854038,0.020401,-0.637505,0.401077
214,1459695362,-0.225809,0.232857,-0.410627,0.852161,0.202151,0.336873,-0.028873
215,1459728696,-0.227351,0.222556,-0.419032,0.850409,-0.269307,-0.139587,-0.121710
216,1459762030,-0.227585,0.210793,-0.426811,0.849475,-0.560005,0.036034,0.271296
217,1459795364,-0.229370,0.201201,-0.432256,0.848567,-0.044220,1.294098,-0.691953
218,1459828698,-0.233498,0.195215,-0.435702,0.847076,-0.334506,0.845140,-0.347645
219,1459862032,-0.239670,0.191795,-0.437351,0.845282,-0.270349,0.844067,0.216292
220,1459895366,-0.246452,0.189690,-0.438731,0.843088,-0.356024,0.084591,-0.150659
221,1459928700,-0.252154,0.186733,-0.441760,0.840477,0.752279,-0.094334,0.661160
222,1459962034,-0.258635,0.185076,-0.443445,0.837983,0.351130,0.411976,-0.193565
223,1459995368,-0.264598,0.183620,-0.445511,0.835341,-0.117036,0.895889,-0.514293
224,1460028702,-0.266904,0.179405,-0.449188,0.833553,-0.182814,0.162225,0.425013
225,1460062036,-0.268694,0.177483,-0.450121,0.832885,-0.400416,0.498846,-0.149738
226,1460095370,-0.271562,0.179287,-0.449126,0.832106,-0.127528,0.115560,0.067333
227,1460128704,-0.274043,0.180909,-0.448105,0.831492,0.104088,0.078788,0.225646
228,1460162038,-0.275742,0.183936,-0.445943,0.831428,0.275842,-0.247753,-0.047038
229,1460195372,-0.275896,0.186856,-0.443337,0.832119,0.227130,0.034685,0.238034
230,1460228706,-0.275534,0.190006,-0.440007,0.833293,0.444728,0.443031,-0.274109
231,1460262040,-0.274237,0.193575,-0.436506,0.834739,0.032183,-0.192287,0.447977
232,1460295374,-0.271979,0.196062,-0.432839,0.836804,0.275225,0.456359,-0.584695
233,1460328708,-0.269312,0.199719,-0.428346,0.839110,0.644456,-0.130919,0.447145
234,1460362042,-0.267574,0.204742,-0.422703,0.841315,0.430971,0.276454,0.397410
235,1460395376,-0.265148,0.209263,-0.417375,0.843628,-0.194317,-0.179313,-0.533243
236,1460428710,-0.261579,0.212404,-0.412728,0.846239,0.519174,0.619065,-0.380451
237,1460462044,-0.258129,0.217449,-0.407573,0.848512,0.615720,-0.151930,0.440763
238,1460495378,-0.255139,0.224537,-0.402461,0.850009,-0.327086,-1.072608,0.551231
239,1460528712,-0.251751,0.230235,-0.399271,0.850999,0.232685,-0.094286,0.205703
240,1460562046,-0.246662,0.233957,-0.399170,0.851521,0.727034,-0.565415,1.038946
241,1460595380,-0.242159,0.238459,-0.399067,0.851614,0.182308,-1.127007,1.137832
242,1460628714,-0.238019,0.240909,-0.399935,0.851684,0.425006,0.360382,0.878065
243,1460662048,-0.233792,0.242224,-0.401099,0.851935,0.136633,-0.235996,-0.350995
244,1460695382,-0.230759,0.241851,-0.401768,0.852552,0.097324,1.643748,-0.539097
245,1460728716,-0.227535,0.243275,-0.400917,0.853413,-0.737304,-0.062007,-0.270183
246,1460762050,-0.224230,0.244569,-0.399009,0.854811,-0.343336,0.305418,-0.004303
247,1460795384,-0.221694,0.245223,-0.397665,0.855911,-0.342179,-0.040252,0.616603
248,1460828718,-0.220114,0.244344,-0.397249,0.856763,-0.865757,-0.746102,0.773393
249,1460862052,-0.219300,0.241275,-0.397980,0.857502,-0.021693,-0.178373,1.510213
250,1460895386,-0.219986,0.238693,-0.399465,0.857358,-1.521102,-0.515222,0.523560
251,1460928720,-0.221045,0.235426,-0.402064,0.856774,-0.372730,0.506834,-0.192472
252,1460962054,-0.224253,0.234240,-0.403708,0.855492,0.387273,0.725946,-0.627458
253,1460995388,-0.226945,0.232941,-0.404712,0.854661,-0.673840,0.397639,-0.761817
254,1461028722,-0.226991,0.230041,-0.405693,0.854970,-0.374815,0.872218,-0.556320
255,1461062056,-0.226344,0.227547,-0.405613,0.855846,0.260568,0.542572,0.038868
256,1461095390,-0.227661,0.226533,-0.403881,0.856585,-0.352355,0.061940,0.203316
257,1461128724,-0.229470,0.225861,-0.402167,0.857086,-0.531048,-0.536396,-0.014571
258,1461162058,-0.231899,0.225291,-0.401185,0.857042,0.358505,-0.938718,0.932986
259,1461195392,-0.235553,0.225635,-0.399856,0.856576,0.461181,-0.318064,-0.003327
260,1461228726,-0.237274,0.223858,-0.399480,0.856743,0.072698,-0.291324,-0.325622
261,1461262060,-0.236342,0.219637,-0.400508,0.857612,0.865361,-0.159498,0.235045
262,1461295394,-0.234721,0.216174,-0.401464,0.858490,-0.234744,-0.452191,-0.068707
263,1461328728,-0.233629,0.213670,-0.402243,0.859050,-0.128378,-0.214066,-0.507531
264,1461362062,-0.233601,0.211251,-0.402532,0.859520,0.458153,-0.418536,1.044667
265,1461395396,-0.234813,0.210085,-0.402095,0.859680,-0.018577,0.135831,-0.633762
266,1461428730,-0.236382,0.209533,-0.401793,0.859526,0.151920,-0.712164,0.470325
267,1461462064,-0.238271,0.208472,-0.402007,0.859162,0.164552,-0.489665,0.812067
268,1461495398,-0.241462,0.209229,-0.402773,0.857728,-0.683862,-0.918598,0.040251
269,1461528732,-0.244904,0.211342,-0.404341,0.855493,0.753483,-0.266991,0.559936
270,1461562066,-0.246730,0.211263,-0.407621,0.853429,-1.016510,-1.035239,0.002335
271,1461595400,-0.245374,0.208210,-0.412645,0.852155,0.408047,-0.777388,1.570478
272,1461628734,-0.244201,0.205391,-0.417588,0.850767,-0.986590,-0.396297,-0.128393
273,1461662068,-0.243334,0.200662,-0.421988,0.849972,-0.046681,0.516115,0.073543
274,1461695402,-0.244471,0.195889,-0.424351,0.849583,-0.428688,1.011859,-0.519256
275,1461728736,-0.246784,0.191858,-0.425118,0.849450,-0.374883,1.760055,-0.687635
276,1461762070,-0.250515,0.191577,-0.423437,0.849261,-0.970499,0.493331,-0.023615
277,1461795404,-0.254666,0.194489,-0.420006,0.849069,-0.817974,0.175733,0.094417
278,1461828738,-0.259365,0.197999,-0.416766,0.848431,-0.304113,0.228414,0.228487
279,1461862072,-0.264161,0.202278,-0.414772,0.846918,0.114793,-0.712092,1.161352
280,1461895406,-0.269135,0.205521,-0.413013,0.845430,0.842855,0.158984,0.138349
281,1461928740,-0.271473,0.204639,-0.414089,0.844369,0.450518,-0.453915,0.155786
282,1461962074,-0.272237,0.201766,-0.416092,0.843829,0.395593,0.961429,-0.545053
283,1461995408,-0.272468,0.200513,-0.417863,0.843179,-0.082440,0.898689,-0.910025
284,1462028742,-0.270943,0.198173,-0.419506,0.843407,0.304799,0.692457,0.062188
285,1462062076,-0.269326,0.197075,-0.419265,0.844302,-0.598868,1.193644,-0.521804
286,1462095410,-0.267192,0.199556,-0.417501,0.845270,-0.189435,-0.478164,0.420091
287,1462128744,-0.266098,0.202836,-0.414519,0.846302,0.294217,0.580163,0.574409
288,1462162078,-0.265562,0.207634,-0.411297,0.846878,-0.118220,-0.580074,-0.196609
289,1462195412,-0.263578,0.211190,-0.408110,0.848160,0.393126,-0.218201,0.896022
290,1462228746,-0.261345,0.215377,-0.403242,0.850124,0.070031,0.087785,-0.212182
291,1462262080,-0.256810,0.218795,-0.398950,0.852655,-0.559883,-0.317970,0.078548
292,1462295414,-0.250982,0.222317,-0.394277,0.855647,0.350436,0.570967,-0.354436
293,1462328748,-0.245528,0.228136,-0.389672,0.857805,-0.085575,-0.576914,0.403262
294,1462362082,-0.239714,0.232880,-0.384317,0.860586,0.361878,-0.048136,0.808905
295,1462395416,-0.234078,0.239402,-0.378982,0.862711,0.127110,0.350682,-0.439064
296,1462428750,-0.228772,0.246370,-0.376534,0.863245,0.532198,-0.409146,1.401574
297,1462462084,-0.223819,0.253608,-0.374859,0.863176,0.465317,-0.126138,0.775601
298,1462495418,-0.217894,0.258540,-0.376613,0.862465,0.531281,-0.165703,1.190408
299,1462528752,-0.211110,0.259964,-0.380574,0.861985,0.078565,-0.193687,0.089459
300,1462562086,-0.204322,0.259508,-0.385086,0.861754,0.375806,0.121420,0.127702
301,1462595420,-0.197580,0.259758,-0.388440,0.861746,-0.705885,0.150437,-0.548866
302,1462628754,-0.190388,0.257947,-0.391782,0.862396,-0.691007,0.648997,-1.041014
303,1462662088,-0.182923,0.255172,-0.394001,0.863825,-0.614327,1.185988,-0.719677
304,1462695422,-0.175341,0.252949,-0.395943,0.865162,-0.707576,0.399952,0.511222
305,1462728756,-0.168417,0.251648,-0.396749,0.866546,-0.756869,0.396648,-0.168670
306,1462762090,-0.162046,0.247813,-0.399118,0.867777,0.239461,-0.945146,1.248853
307,1462795424,-0.158492,0.242875,-0.400681,0.869109,0.288365,-0.330247,1.184178
308,1462828758,-0.156472,0.238216,-0.402599,0.869878,-0.893622,0.047532,0.122619
309,1462862092,-0.153990,0.231453,-0.405698,0.870706,-0.009395,0.177572,-0.409433
310,1462895426,-0.151618,0.224054,-0.409197,0.871420,0.472449,0.087824,-0.308221
311,1462928760,-0.148720,0.216830,-0.411308,0.872752,-0.115183,0.326448,-0.240410
312,1462962094,-0.144766,0.208320,-0.413155,0.874615,-0.096664,-0.411634,0.443245
313,1462995428,-0.141308,0.199025,-0.413364,0.877243,-0.144650,0.257197,-0.454313
314,1463028762,-0.140575,0.194903,-0.412565,0.878661,-0.222810,-0.078964,0.074031
315,1463062096,-0.141658,0.192982,-0.411726,0.879304,-0.284307,-0.893533,0.560164
316,1463095430,-0.142370,0.190549,-0.410466,0.880308,0.789509,0.263688,0.179952
317,1463128764,-0.142593,0.189493,-0.409412,0.880991,0.674566,0.022399,0.205355
318,1463162098,-0.142234,0.186893,-0.408767,0.881903,0.422584,0.340704,-0.409712
319,1463195432,-0.140962,0.182470,-0.408809,0.883014,0.398155,-0.300043,0.491303
320,1463228766,-0.140256,0.176858,-0.408486,0.884416,-0.219924,-0.515924,0.516664
321,1463262100,-0.139288,0.169950,-0.408175,0.886066,-0.372119,-0.574477,0.320503
322,1463295434,-0.139003,0.163416,-0.407799,0.887512,0.191449,-0.058414,0.189518
323,1463328768,-0.139526,0.158898,-0.407265,0.888495,-0.307002,-0.349617,0.262943
324,1463362102,-0.140365,0.154262,-0.408040,0.888824,-0.459155,-0.495605,1.066669
325,1463395436,-0.138952,0.148834,-0.409895,0.889118,-0.612766,-0.872306,0.670167
326,1463428770,-0.135899,0.143547,-0.412556,0.889228,0.940238,0.281036,-1.042189
327,1463462104,-0.132816,0.136632,-0.419332,0.887612,0.038453,0.056259,0.229930
328,1463495438,-0.127977,0.128717,-0.427473,0.885621,0.297916,-0.510293,0.096012
329,1463528772,-0.122680,0.118662,-0.434456,0.884376,0.064029,0.338806,0.626716
330,1463562106,-0.117763,0.108981,-0.439649,0.883724,-0.153989,0.363896,-0.563680
331,1463595440,-0.115435,0.100507,-0.443051,0.883336,-0.771828,0.855379,-0.040772
332,1463628774,-0.115021,0.095010,-0.444053,0.883495,-1.003484,0.765621,-0.684816
333,1463662108,-0.114908,0.091025,-0.444458,0.883726,-0.150648,0.118223,1.356556
334,1463695442,-0.114875,0.087718,-0.444479,0.884054,-0.393036,0.050200,-0.644442
335,1463728776,-0.114827,0.084567,-0.444618,0.884297,1.085964,-0.301508,1.257660
336,1463762110,-0.114654,0.081415,-0.444947,0.884450,0.004088,-0.055355,0.112068
337,1463795444,-0.113148,0.076421,-0.445775,0.884673,-0.160258,0.274878,-0.417483
338,1463828778,-0.109229,0.069708,-0.447490,0.884854,-0.537467,0.261120,-0.259026
339,1463862112,-0.103451,0.061416,-0.450310,0.884732,-0.577517,0.284415,-0.760415
340,1463895446,-0.098247,0.055346,-0.452980,0.884362,0.759963,0.109204,0.815132
341,1463928780,-0.095193,0.050589,-0.454577,0.884162,0.209476,-0.117956,-0.115111
342,1463962114,-0.091600,0.044527,-0.455739,0.884269,0.026060,-0.572872,0.884873
343,1463995448,-0.085876,0.036276,-0.456306,0.884928,-0.084544,0.100126,-0.453646
344,1464028782,-0.079587,0.027039,-0.457232,0.885369,0.364629,0.399983,-0.505791
345,1464062116,-0.073527,0.019287,-0.457550,0.885931,0.235495,-0.284347,0.601842
346,1464095450,-0.066488,0.014304,-0.455953,0.887404,-0.034394,-0.740124,0.535277
347,1464128784,-0.057587,0.008271,-0.454175,0.889013,-0.509819,-0.422003,-0.104800
348,1464162118,-0.046924,0.000675,-0.452858,0.890349,-0.026507,0.195470,-0.660042
349,1464195452,-0.034962,-0.005820,-0.451743,0.891446,-0.429814,-0.078042,0.053499
350,1464228786,-0.020442,-0.013049,-0.449920,0.892741,0.018681,-0.362715,-0.111940
351,1464262120,-0.004820,-0.017131,-0.446631,0.894543,0.093468,-0.870830,1.004350
352,1464295454,0.013469,-0.022369,-0.442046,0.896614,-0.191349,-0.591388,0.627078
353,1464328788,0.032528,-0.027869,-0.438125,0.897895,0.221482,0.109751,-0.395106
354,1464362122,0.051150,-0.031668,-0.434967,0.898437,-1.610516,-0.412545,0.981559
355,1464395456,0.068056,-0.034453,-0.433093,0.898118,-1.208521,-0.103818,1.595123
356,1464428790,0.083723,-0.035566,-0.432474,0.897048,-1.332044,0.504515,0.025330
357,1464462124,0.098476,-0.036827,-0.433579,0.894963,-0.565131,0.333989,-0.601984
358,1464495458,0.116238,-0.041345,-0.434426,0.892220,-0.633678,1.278546,-0.277913
359,1464528792,0.136142,-0.046131,-0.433986,0.889380,0.199697,1.043612,-0.522865
360,1464562126,0.154877,-0.050192,-0.433110,0.886517,0.214086,1.230699,-0.672734
361,1464595460,0.173248,-0.053834,-0.431868,0.883505,-0.992912,0.650944,0.676844
362,1464628794,0.189513,-0.056289,-0.430286,0.880780,-0.637556,-0.054230,0.664173
363,1464662128,0.203667,-0.058871,-0.428178,0.878476,-1.517017,0.354858,0.226552
364,1464695462,0.217273,-0.063353,-0.426366,0.875782,-0.755076,0.151898,0.490982
365,1464728796,0.230433,-0.068294,-0.424759,0.872823,-0.503132,0.363665,-0.205844
366,1464762130,0.243093,-0.073343,-0.423861,0.869409,-0.587924,0.316863,0.297843
367,1464795464,0.257604,-0.079249,-0.422206,0.865509,-0.670678,0.260713,0.013630
368,1464828798,0.271837,-0.084909,-0.420907,0.861241,0.324595,-0.591645,-0.123436
369,1464862132,0.285697,-0.092224,-0.419523,0.856666,-0.730198,0.372636,0.264781
370,1464895466,0.300590,-0.100532,-0.417240,0.851736,-0.564014,-0.050395,0.448283
371,1464928800,0.314980,-0.108307,-0.414281,0.847013,-0.707107,0.356153,0.539901
372,1464962134,0.329773,-0.116860,-0.410736,0.841958,-0.080174,0.420101,-0.274314
373,1464995468,0.344763,-0.124197,-0.407215,0.836596,-0.410778,0.657859,0.266511
374,1465028802,0.359973,-0.132507,-0.403173,0.830853,0.455011,-0.204675,-0.234239
375,1465062136,0.374181,-0.140112,-0.399219,0.825218,-0.457191,0.332043,0.098756
376,1465095470,0.387898,-0.148424,-0.394762,0.819556,-0.179238,0.277998,0.645589
377,1465128804,0.400890,-0.156178,-0.390419,0.813924,-0.207295,0.209834,0.074350
378,1465162138,0.412899,-0.163690,-0.386204,0.808437,-0.249827,0.239283,0.703418
379,1465195472,0.424430,-0.170331,-0.382080,0.803034,-0.667033,0.616092,0.405157
380,1465228806,0.435492,-0.177222,-0.377759,0.797647,0.586194,0.481559,-0.358038
381,1465262140,0.445349,-0.182822,-0.375703,0.791891,0.345358,0.511204,0.123612
382,1465295474,0.454321,-0.186717,-0.375857,0.785789,0.355657,-0.153899,0.442059
383,1465328808,0.462599,-0.189942,-0.377877,0.779190,-0.380499,0.056547,0.300082
384,1465362142,0.472041,-0.197210,-0.380070,0.770608,-0.239484,-0.287109,-0.005593
385,1465395476,0.483095,-0.207855,-0.380721,0.760572,-0.048842,0.150643,-0.097344
386,1465428810,0.495042,-0.219226,-0.379897,0.750037,0.510072,-0.096689,-0.637765
387,1465462144,0.506442,-0.231045,-0.377997,0.739769,0.636287,0.360149,-0.578771
388,1465495478,0.517001,-0.242786,-0.375640,0.729838,-0.547645,0.950619,0.986259
389,1465528812,0.526108,-0.251090,-0.373710,0.721462,-1.319580,0.324825,1.195220
390,1465562146,0.535130,-0.260669,-0.370169,0.713208,-1.215425,0.147791,0.865270
391,1465595480,0.545192,-0.272333,-0.364977,0.703844,-0.225431,0.374896,0.024160
392,1465628814,0.555254,-0.284121,-0.359520,0.694059,-0.340695,0.569145,-0.138832
393,1465662148,0.565589,-0.296373,-0.353279,0.683717,-0.178653,0.577465,0.052515
394,1465695482,0.576564,-0.307500,-0.346546,0.672999,-0.091916,0.445106,0.220393
395,1465728816,0.586985,-0.318550,-0.339145,0.662540,0.502103,-0.175754,-0.734025
396,1465762150,0.596295,-0.329224,-0.332097,0.652502,-0.122060,0.894897,0.015700
397,1465795484,0.606546,-0.341327,-0.323308,0.641150,-0.738505,0.573992,0.990134
398,1465828818,0.616358,-0.352302,-0.313803,0.630490,0.042971,0.297043,-0.072539
399,1465862152,0.625514,-0.362697,-0.304665,0.619972,0.300899,0.737287,0.044950
400,1465895486,0.634532,-0.373039,-0.295126,0.609193,0.153172,0.784011,-0.037347
401,1465928820,0.643573,-0.382550,-0.284827,0.598621,-0.314964,0.990788,0.503998
402,1465962154,0.652085,-0.391204,-0.273842,0.588863,0.621498,0.136750,-0.072620
403,1465995488,0.660104,-0.398065,-0.264065,0.579725,0.779390,0.832584,-0.198746
404,1466028822,0.668127,-0.402937,-0.255421,0.570974,0.570467,0.960670,0.438622
405,1466062156,0.676371,-0.406002,-0.247833,0.562376,0.468654,0.104868,-0.244757
406,1466095490,0.684461,-0.408259,-0.240612,0.554028,0.966359,0.561572,-0.093822
407,1466128824,0.693279,-0.410548,-0.233616,0.544281,0.447506,0.001351,0.125172
408,1466162158,0.701992,-0.409806,-0.227992,0.535993,0.765056,-0.263708,-0.040561
409,1466195492,0.710021,-0.408965,-0.224252,0.527573,0.432053,0.009777,0.119703
410,1466228826,0.718954,-0.407471,-0.219614,0.518504,0.215771,-0.120433,0.285069
411,1466262160,0.728569,-0.404728,-0.215644,0.508806,0.673296,-0.271088,-0.347054
412,1466295494,0.738096,-0.401268,-0.213141,0.498772,0.622389,0.164172,-0.230797
413,1466328828,0.748114,-0.395620,-0.212360,0.488588,0.049731,-0.201431,0.997994
414,1466362162,0.757187,-0.387942,-0.215054,0.479505,0.879599,0.138195,-0.972455
415,1466395496,0.765037,-0.384398,-0.217351,0.468743,-0.195389,1.115537,1.586429
416,1466428830,0.773050,-0.381047,-0.219031,0.457413,0.466142,0.701330,0.513748
417,1466462164,0.780395,-0.378804,-0.221197,0.445609,0.651728,-0.234578,-0.097812
418,1466495498,0.786479,-0.377861,-0.223746,0.434297,0.377509,0.227008,0.045152
419,1466528832,0.792347,-0.378017,-0.224255,0.423088,0.612538,-0.050283,-0.322635
420,1466562166,0.798081,-0.377002,-0.226005,0.412143,0.677580,0.110946,0.350795
421,1466595500,0.803751,-0.373989,-0.229841,0.401615,0.765080,0.104988,-0.069153
422,1466628834,0.809272,-0.371547,-0.233055,0.390795,0.820185,-0.022792,-0.713015
423,1466662168,0.814575,-0.371684,-0.233982,0.378912,0.101021,0.516621,0.501188
424,1466695502,0.819837,-0.371165,-0.235410,0.367000,0.065707,-0.040975,0.062980
425,1466728836,0.824441,-0.370722,-0.237214,0.355801,0.259661,0.926192,0.830706
426,1466762170,0.829313,-0.371741,-0.235273,0.344526,0.701919,0.810991,0.314957
427,1466795504,0.833561,-0.374507,-0.231329,0.333784,0.401342,0.478735,0.815299
428,1466828838,0.837036,-0.376083,-0.228419,0.325208,0.033286,0.607055,0.948565
429,1466862172,0.839836,-0.376780,-0.226820,0.318229,0.771965,0.307119,0.009506
430,1466895506,0.842485,-0.378309,-0.224782,0.310769,0.331980,0.307706,-0.085764
431,1466928840,0.845261,-0.379926,-0.222070,0.303115,0.117142,0.050043,-0.213914
432,1466962174,0.847750,-0.380821,-0.221020,0.295716,0.795408,0.100261,-0.383141
433,1466995508,0.850460,-0.381496,-0.219662,0.287976,0.632514,0.258848,-0.110287
434,1467028842,0.853028,-0.381621,-0.218317,0.281157,-0.048519,0.331793,0.760583
435,1467062176,0.855119,-0.381319,-0.218418,0.275072,0.724039,0.996490,0.444519
436,1467095510,0.857329,-0.381809,-0.216423,0.269021,0.168946,0.036553,0.279865
437,1467128844,0.859159,-0.382079,-0.215654,0.263362,0.605575,0.365109,-0.288886
438,1467162178,0.860568,-0.382778,-0.215265,0.258008,0.159384,-0.083329,0.404439
439,1467195512,0.861914,-0.382435,-0.216108,0.253275,-0.135994,-0.429174,-0.094314
440,1467228846,0.863040,-0.381920,-0.217839,0.248696,0.214335,-0.045957,0.321052
441,1467262180,0.864358,-0.380436,-0.219791,0.244640,0.424861,0.160744,0.010892
442,1467295514,0.865860,-0.379161,-0.220370,0.240758,0.122375,0.238294,0.555350
443,1467328848,0.867587,-0.377345,-0.220369,0.237370,0.474841,-0.418554,0.132567
444,1467362182,0.868850,-0.375843,-0.221242,0.234301,0.362344,-0.582967,-0.896893
445,1467395516,0.869854,-0.376084,-0.219744,0.231583,0.030592,0.024018,0.564930
446,1467428850,0.870318,-0.375849,-0.219920,0.230050,0.420327,0.508413,1.152361
447,1467462184,0.870040,-0.375706,-0.222374,0.228974,0.308529,-0.128136,0.351135
448,1467495518,0.868611,-0.379260,-0.223949,0.226996,0.113978,0.153234,-0.188293
449,1467528852,0.867887,-0.386249,-0.219908,0.221874,-0.151560,0.315741,0.466039
450,1467562186,0.868554,-0.393445,-0.211242,0.214929,0.211046,-0.932525,0.597749
451,1467595520,0.869019,-0.399104,-0.204623,0.208936,1.368687,-0.414872,-0.453475
452,1467628854,0.868910,-0.403733,-0.200211,0.204729,1.180788,0.442117,0.271257
453,1467662188,0.867980,-0.406234,-0.199075,0.204835,-0.011636,-0.431028,-0.320699
454,1467695522,0.866067,-0.406613,-0.202637,0.208653,0.880091,-0.473341,0.233018
455,1467728856,0.865224,-0.406722,-0.204103,0.210499,0.448068,-1.344545,-0.808071
456,1467762190,0.863927,-0.408968,-0.205188,0.210422,-0.210835,-0.258119,0.357314
457,1467795524,0.862865,-0.412704,-0.203567,0.209054,-0.249753,0.853058,0.675496
458,1467828858,0.862345,-0.418079,-0.197289,0.206524,-0.220792,-0.093893,0.951330
459,1467862192,0.861398,-0.423612,-0.191668,0.204485,-0.053955,-0.383459,0.251549
460,1467895526,0.860890,-0.427785,-0.186914,0.202325,0.602390,-0.177043,-0.114565
461,1467928860,0.861513,-0.432026,-0.179036,0.197734,0.085879,-1.086898,-0.958434
462,1467962194,0.862337,-0.436266,-0.170956,0.191897,-0.044750,-0.541364,0.075067
463,1467995528,0.863847,-0.437359,-0.165841,0.187046,0.198846,-0.167180,0.176063
464,1468028862,0.865230,-0.438456,-0.160527,0.182668,-0.090117,-0.271693,0.061336
465,1468062196,0.866439,-0.439010,-0.156560,0.179016,-0.134320,-0.099199,0.478024
466,1468095530,0.868281,-0.438384,-0.152510,0.175077,-0.246596,0.090043,0.441985
467,1468128864,0.870291,-0.437511,-0.148051,0.171065,0.226935,-0.331564,-0.542418
468,1468162198,0.872303,-0.436993,-0.143234,0.166171,0.469076,-0.601575,-0.592033
469,1468195532,0.874534,-0.436108,-0.138862,0.160376,-0.082096,-0.658762,-0.141443
470,1468228866,0.876688,-0.433976,-0.137035,0.155912,-0.071331,-1.277109,-0.970459
471,1468262200,0.878242,-0.431517,-0.138212,0.152923,0.552632,-0.052258,-0.075308
472,1468295534,0.879773,-0.428298,-0.141615,0.150027,0.957070,0.296315,0.494390
473,1468328868,0.881682,-0.423923,-0.146229,0.146785,0.232221,-0.421530,-0.052142
474,1468362202,0.883773,-0.418256,-0.152472,0.144091,-0.816710,-0.206790,0.123047
475,1468395536,0.885784,-0.412359,-0.158481,0.142248,-0.323000,-0.413424,-0.235661
476,1468428870,0.887008,-0.409495,-0.161910,0.138993,0.258069,0.276932,0.777032
477,1468462204,0.887785,-0.408420,-0.164054,0.134615,0.265623,0.993438,1.754622
478,1468495538,0.888517,-0.407764,-0.165518,0.129895,-0.137850,0.687146,2.197252
479,1468528872,0.888915,-0.408553,-0.164901,0.125401,0.328487,-0.577643,0.074445
480,1468562206,0.888902,-0.411535,-0.162508,0.118685,0.059931,0.284753,0.075451
481,1468595540,0.889861,-0.412970,-0.159308,0.110584,-1.145437,0.601471,0.853656
482,1468628874,0.890571,-0.414432,-0.156639,0.102946,1.103612,-0.525670,-0.974490
483,1468662208,0.890468,-0.418883,-0.151820,0.092510,0.785015,-0.267053,0.281184
484,1468695542,0.890304,-0.422037,-0.149323,0.083368,-0.549985,-0.877789,0.441813
485,1468728876,0.889347,-0.423985,-0.152644,0.077475,0.714000,-0.673245,-0.351438
486,1468762210,0.888224,-0.425939,-0.156511,0.071708,1.327173,-0.020950,0.606373
487,1468795544,0.887541,-0.427247,-0.159102,0.066487,0.982523,-0.192751,0.225964
488,1468828878,0.886204,-0.429013,-0.162818,0.063912,0.439702,-0.546953,-0.054213
489,1468862212,0.884444,-0.430354,-0.168513,0.064504,0.197642,-0.170958,0.868361
490,1468895546,0.883188,-0.430634,-0.173545,0.066473,-0.392978,0.058175,0.295863
491,1468928880,0.882376,-0.430666,-0.176837,0.068344,0.106929,-0.243421,-0.436039
492,1468962214,0.881570,-0.431496,-0.178544,0.069077,0.541399,-0.093767,-0.544791
493,1468995548,0.881304,-0.432766,-0.177030,0.068421,0.403025,-0.261211,-0.056818
494,1469028882,0.881320,-0.433667,-0.174835,0.068152,-0.531521,-0.400666,0.041188
495,1469062216,0.881456,-0.433356,-0.174267,0.069805,0.232996,-0.315513,-0.042754
496,1469095550,0.881709,-0.432692,-0.173958,0.071478,0.258171,-0.060398,-0.156242
497,1469128884,0.881885,-0.431855,-0.174064,0.074056,0.218722,-0.106099,0.123159
498,1469162218,0.881770,-0.431035,-0.175208,0.077434,0.326999,0.246763,0.053931
499,1469195552,0.882054,-0.429866,-0.175360,0.080297,-0.198562,0.085553,0.371154
500,1469228886,0.882637,-0.427791,-0.175742,0.084055,-0.065493,-0.220990,0.405968
501,1469262220,0.883359,-0.424878,-0.176746,0.088994,-0.235015,-0.637418,0.370214
502,1469295554,0.883863,-0.420988,-0.179628,0.096396,-0.002661,-0.232275,0.259538
503,1469328888,0.883220,-0.418955,-0.182960,0.104538,0.786428,0.257831,0.461452
504,1469362222,0.881598,-0.418842,-0.186441,0.112247,1.187714,0.606171,0.432071
505,1469395556,0.879260,-0.421539,-0.187278,0.118897,-0.614771,-0.509445,0.386589
506,1469428890,0.876058,-0.425234,-0.189736,0.125308,-0.362833,0.348832,0.402919
507,1469462224,0.873807,-0.429464,-0.186888,0.130758,0.116500,-0.376439,0.089640
508,1469495558,0.871472,-0.433602,-0.183793,0.136928,0.887911,-0.918229,-0.387010
509,1469528892,0.868669,-0.436518,-0.183416,0.145702,0.861915,-0.789342,-0.237796
510,1469562226,0.866492,-0.438538,-0.181378,0.154860,0.950109,-0.049578,-0.099341
511,1469595560,0.865210,-0.438896,-0.178811,0.163742,-0.629846,-0.874812,0.475983
512,1469628894,0.863489,-0.437168,-0.181354,0.174314,0.753680,-0.447972,-0.391919
513,1469662228,0.862088,-0.435720,-0.182506,0.183434,-0.350707,-0.631926,0.463379
514,1469695562,0.860788,-0.434899,-0.181729,0.192054,0.237834,0.062128,0.396791
515,1469728896,0.859317,-0.433974,-0.181806,0.200475,0.456854,0.193513,0.179248
516,1469762230,0.858028,-0.433842,-0.180317,0.207503,0.349917,-0.180980,0.309903
517,1469795564,0.856899,-0.434164,-0.178060,0.213365,-0.081257,-0.999014,-0.115254
518,1469828898,0.855339,-0.434412,-0.178326,0.218825,0.866778,-0.858028,-1.018231
519,1469862232,0.854341,-0.434672,-0.177689,0.222691,0.078300,-0.562986,0.170136
520,1469895566,0.853804,-0.432874,-0.179174,0.227022,0.389336,-0.576125,0.251130
521,1469928900,0.853450,-0.430244,-0.182491,0.230683,0.236994,-0.433972,0.117280
522,1469962234,0.853539,-0.427946,-0.184549,0.232979,-0.338848,-0.419393,-0.008676
523,1469995568,0.853939,-0.425200,-0.186850,0.234701,-0.332649,-0.236445,0.491006
524,1470028902,0.854670,-0.420848,-0.191757,0.235924,0.333289,-0.230402,0.091877
525,1470062236,0.855876,-0.416212,-0.196063,0.236236,0.122683,-0.588272,-0.075120
526,1470095570,0.857119,-0.411295,-0.201063,0.236137,0.309882,-0.403157,-0.464171
527,1470128904,0.858828,-0.404934,-0.206929,0.235854,-0.113541,-0.278082,0.212055
528,1470162238,0.860656,-0.397234,-0.214324,0.235681,0.376723,-0.256352,0.006118
529,1470195572,0.861756,-0.390243,-0.223546,0.234771,0.811861,-0.005612,-0.754167
530,1470228906,0.862623,-0.384463,-0.231901,0.233013,-0.098965,0.011960,0.414099
531,1470262240,0.863806,-0.378058,-0.239731,0.231179,-0.652497,-0.691068,0.595318
532,1470295574,0.864115,-0.372947,-0.249338,0.228143,0.617124,0.084153,-0.024116
533,1470328908,0.864178,-0.370892,-0.256828,0.222886,-0.897678,-0.286575,0.504458
534,1470362242,0.863077,-0.370415,-0.265865,0.217282,-0.083865,0.764031,0.722034
535,1470395576,0.862243,-0.372882,-0.270928,0.209993,0.202642,0.430706,1.375055
536,1470428910,0.861514,-0.375685,-0.275027,0.202530,0.200838,-0.591690,-0.246561
537,1470462244,0.860597,-0.378233,-0.279430,0.195537,0.630405,-0.712582,-0.386946
538,1470495578,0.860175,-0.380259,-0.283273,0.187782,0.773203,-0.767890,-0.714313
539,1470528912,0.859794,-0.381680,-0.286877,0.181054,0.149190,-0.291556,0.152030
540,1470562246,0.859556,-0.383075,-0.289575,0.174834,0.945927,-0.240644,-0.462067
541,1470595580,0.859917,-0.385821,-0.288835,0.168116,0.539416,-0.061249,0.521052
542,1470628914,0.860295,-0.387304,-0.288378,0.163496,-0.407699,-0.305332,0.909733
543,1470662248,0.860055,-0.387545,-0.289357,0.162453,0.213105,-0.166098,0.980330
544,1470695582,0.859495,-0.387992,-0.290082,0.163054,0.223702,0.332754,0.759375
545,1470728916,0.859150,-0.388344,-0.289795,0.164540,-0.215761,-0.699427,-0.009426
546,1470762250,0.857938,-0.389120,-0.290631,0.167528,0.374574,0.013384,0.196602
547,1470795584,0.857528,-0.390055,-0.289614,0.169208,0.700745,0.048220,0.054144
548,1470828918,0.857815,-0.390392,-0.287805,0.170055,0.047840,-0.122795,-0.067123
549,1470862252,0.858148,-0.389634,-0.286881,0.171671,0.082740,-0.832937,-0.480195
550,1470895586,0.857987,-0.387679,-0.288167,0.174718,0.466471,-0.214690,-0.240393
551,1470928920,0.858601,-0.385599,-0.287509,0.177367,0.148650,-0.341705,-0.211749
552,1470962254,0.859194,-0.383680,-0.286918,0.179601,-0.021492,0.262835,0.516142
553,1470995588,0.859364,-0.382584,-0.286385,0.181962,-0.410045,0.000097,-0.088337
554,1471028922,0.859439,-0.381761,-0.285671,0.184439,-0.167003,0.006392,0.373042
555,1471062256,0.859352,-0.380546,-0.286264,0.186430,-0.348116,0.012765,0.185529
556,1471095590,0.859136,-0.379144,-0.287661,0.188120,0.232138,0.056104,-0.192931
557,1471128924,0.859948,-0.378856,-0.284775,0.189381,-0.542910,-0.990943,-0.178120
558,1471162258,0.859662,-0.378643,-0.284031,0.192202,0.371775,0.295797,0.289270
559,1471195592,0.859976,-0.378186,-0.280753,0.196464,-1.102201,-1.344154,0.046191
560,1471228926,0.859262,-0.377123,-0.280544,0.201857,0.614175,0.864814,0.453197
561,1471262260,0.859130,-0.376545,-0.278234,0.206635,-0.026723,-0.022020,0.540487
562,1471295594,0.858271,-0.378128,-0.274623,0.212078,0.031076,0.157803,-0.000263
563,1471328928,0.857202,-0.381583,-0.268472,0.218006,-0.197957,-0.025623,0.453410
564,1471362262,0.855501,-0.388020,-0.260869,0.222509,1.059026,0.505847,0.134924
565,1471395596,0.853904,-0.396245,-0.251471,0.224954,-0.479026,0.447139,0.486284
566,1471428930,0.852210,-0.403858,-0.242062,0.228136,-0.391464,-1.007904,0.332829
567,1471462264,0.850293,-0.411785,-0.232990,0.230552,1.225182,0.569636,-0.257510
568,1471495598,0.849693,-0.420747,-0.218024,0.231220,0.484007,-0.448466,0.159190
569,1471528932,0.848654,-0.427020,-0.205955,0.234576,0.053916,-0.561317,0.420788
570,1471562266,0.847475,-0.431849,-0.194871,0.239419,1.457537,0.302141,-0.308522
571,1471595600,0.846530,-0.436994,-0.182595,0.243078,-0.045100,-0.824214,0.219609
572,1471628934,0.844869,-0.440847,-0.173965,0.248175,0.718504,-0.110487,0.041713
573,1471662268,0.843359,-0.443647,-0.166833,0.253169,0.447764,0.163047,0.320951
574,1471695602,0.841766,-0.446857,-0.159839,0.257299,-0.297421,-0.302720,0.179077
575,1471728936,0.839732,-0.450310,-0.154195,0.261340,-0.082487,0.148660,0.184243
576,1471762270,0.837901,-0.453596,-0.148822,0.264629,-0.787939,-0.700041,-0.033160
577,1471795604,0.836721,-0.456911,-0.141940,0.266433,0.024297,-0.898672,-0.513529
578,1471828938,0.835909,-0.460184,-0.134884,0.267017,0.106934,-0.983589,0.053242
579,1471862272,0.835611,-0.461116,-0.132293,0.267635,0.933035,0.390737,0.123228
580,1471895606,0.836318,-0.460708,-0.129197,0.267642,-0.438186,-0.410181,0.406617
581,1471928940,0.836724,-0.458690,-0.129354,0.269756,0.428035,0.569620,-0.233210
582,1471962274,0.836867,-0.457328,-0.128981,0.271795,-0.537186,-0.838271,0.508845
583,1471995608,0.837755,-0.454830,-0.129280,0.273104,-0.016899,-0.076696,-0.345272
584,1472028942,0.839242,-0.451282,-0.130906,0.273653,-0.371150,-0.375829,0.693799
585,1472062276,0.841639,-0.446437,-0.133726,0.272871,0.277646,-0.266028,-0.653317
586,1472095610,0.844932,-0.440865,-0.135967,0.270635,-0.839146,-1.583162,-0.115744
587,1472128944,0.847699,-0.434712,-0.141119,0.269297,0.869543,0.652506,-0.755029
588,1472162278,0.851068,-0.429722,-0.142975,0.265678,0.199737,0.984913,1.574776
589,1472195612,0.854289,-0.423337,-0.146576,0.263621,0.182230,-0.728814,-0.798073
590,1472228946,0.856388,-0.419321,-0.150119,0.261222,-0.657835,-0.339001,0.859417
591,1472262280,0.858530,-0.413941,-0.155332,0.259720,0.189135,0.146133,0.142081
592,1472295614,0.859676,-0.412102,-0.159867,0.256078,0.746846,0.695867,0.757665
593,1472328948,0.860197,-0.411627,-0.164849,0.251900,0.245289,1.066587,1.019792
594,1472362282,0.859996,-0.411510,-0.170235,0.249180,-0.336832,-0.102306,0.334078
595,1472395616,0.859710,-0.411419,-0.175017,0.246995,0.677868,-0.536297,-0.802386
596,1472428950,0.860530,-0.412504,-0.175738,0.241760,0.481637,-1.109066,-0.918826
597,1472462284,0.861972,-0.413347,-0.175482,0.235282,-0.335410,-1.151897,0.249820
598,1472495618,0.863605,-0.412282,-0.175982,0.230748,0.758105,-0.267809,-0.036921
599,1472528952,0.864537,-0.412746,-0.175131,0.227042,1.530231,0.020555,0.515978
600,1472562286,0.865649,-0.411607,-0.174631,0.225254,0.389369,0.270151,0.658216
601,1472595620,0.865966,-0.411063,-0.174483,0.225141,0.733931,0.879174,1.665052
602,1472628954,0.866164,-0.410802,-0.174056,0.225188,1.040173,0.135863,-0.564837
603,1472662288,0.865719,-0.412404,-0.173347,0.224517,-0.320437,0.089801,0.656210
604,1472695622,0.866081,-0.413656,-0.171198,0.222460,0.335236,-0.614425,-0.428685
605,1472728956,0.866961,-0.415292,-0.168257,0.218182,0.665121,-0.227922,-1.170137
606,1472762290,0.867975,-0.416788,-0.164345,0.214245,-0.888338,-1.561707,0.446056
607,1472795624,0.868630,-0.416196,-0.164305,0.212770,0.624559,-0.840495,-0.926967
608,1472828958,0.868510,-0.415749,-0.165716,0.213036,0.458209,-0.166117,0.313553
609,1472862292,0.867960,-0.414320,-0.168841,0.215592,-0.295060,-0.233774,0.604275
610,1472895626,0.867759,-0.411175,-0.173358,0.218817,0.447627,0.349084,-0.032261
611,1472928960,0.867855,-0.409367,-0.175544,0.220075,0.023908,0.253314,-0.265538
612,1472962294,0.868483,-0.407748,-0.176116,0.220150,-0.648965,-0.239423,0.892984
613,1472995628,0.869175,-0.406584,-0.176394,0.219344,0.511984,-0.139598,-0.877400
614,1473028962,0.869735,-0.405626,-0.176203,0.219051,-1.418172,-0.606002,0.953862
615,1473062296,0.870049,-0.403112,-0.178512,0.220574,1.073037,0.612705,0.261333
616,1473095630,0.870383,-0.401829,-0.178861,0.221312,-0.153177,0.662201,0.872541
617,1473128964,0.870320,-0.400704,-0.179023,0.223459,0.369876,0.707958,1.041529
618,1473162298,0.869525,-0.400433,-0.179443,0.226679,0.333985,0.272174,0.141717
619,1473195632,0.868128,-0.399738,-0.181575,0.231514,-0.873732,-0.064317,0.758486
620,1473228966,0.866596,-0.399650,-0.183492,0.235851,0.677590,0.189061,-0.230341
621,1473262300,0.865468,-0.401851,-0.181943,0.237446,-0.296803,0.401140,1.490710
622,1473295634,0.864466,-0.406065,-0.177651,0.237178,-0.015599,0.171984,-0.321286
623,1473328968,0.863871,-0.411697,-0.169898,0.235309,0.848883,0.724579,-0.033305
624,1473362302,0.863757,-0.417984,-0.159024,0.232224,0.143043,-0.935871,0.656315
625,1473395636,0.864280,-0.423216,-0.147879,0.228129,0.930398,-1.046981,-0.532332
626,1473428970,0.864875,-0.425165,-0.140547,0.226883,0.779291,-1.025282,-0.461908
627,1473462304,0.864945,-0.425144,-0.138087,0.228163,0.207509,-1.295292,0.216024
628,1473495638,0.863923,-0.423174,-0.142340,0.233032,0.861890,-0.403326,-0.313057
629,1473528972,0.861901,-0.420812,-0.149238,0.240367,0.067875,-0.370044,0.316087
630,1473562306,0.859280,-0.419725,-0.155099,0.247824,-0.300933,-0.214862,0.137115
631,1473595640,0.856364,-0.418747,-0.160905,0.255745,-0.473841,-0.059309,0.152629
632,1473628974,0.854057,-0.419814,-0.162592,0.260597,0.142142,0.664586,1.018545
633,1473662308,0.853320,-0.421781,-0.160416,0.261181,0.759662,0.290728,0.203037
634,1473695642,0.853390,-0.423564,-0.157696,0.259721,-0.562928,-0.804684,0.034817
635,1473728976,0.853538,-0.423877,-0.157296,0.258964,0.722911,-0.249826,-0.795746
636,1473762310,0.854094,-0.422913,-0.157907,0.258336,0.018471,-0.750433,0.200511
637,1473795644,0.855001,-0.420844,-0.160373,0.257193,0.377143,-0.741860,-0.618983
638,1473828978,0.855895,-0.418795,-0.162970,0.255927,0.026795,0.284439,0.085444
639,1473862312,0.856917,-0.416776,-0.164650,0.254724,-0.241946,0.574036,1.041458
640,1473895646,0.859560,-0.412279,-0.165615,0.252504,0.427110,0.125805,0.631695
641,1473928980,0.862700,-0.407733,-0.166358,0.248656,0.137717,-0.968876,-1.340449
642,1473962314,0.865146,-0.403673,-0.168518,0.245308,0.452370,0.506813,0.267901
643,1473995648,0.868036,-0.397964,-0.171934,0.242033,-0.560194,0.199351,0.239526
644,1474028982,0.870243,-0.392766,-0.176318,0.239431,0.418271,0.156727,0.124801
645,1474062316,0.872746,-0.388743,-0.178731,0.235057,0.318480,0.300370,0.651857
646,1474095650,0.875796,-0.383971,-0.181514,0.229356,-0.524749,0.139069,0.927794
647,1474128984,0.877739,-0.379699,-0.186942,0.224632,0.574101,0.122899,-0.664020
648,1474162318,0.879267,-0.378336,-0.190549,0.217822,0.073028,0.757065,1.674889
649,1474195652,0.880688,-0.377532,-0.194089,0.210218,0.482812,0.413567,0.562739
650,1474228986,0.881036,-0.380056,-0.195986,0.202302,0.057523,-0.140559,0.251119
651,1474262320,0.881162,-0.383411,-0.196138,0.195147,0.126868,0.335238,0.769247
652,1474295654,0.881902,-0.385959,-0.195106,0.187672,0.334328,-0.932313,-0.820804
653,1474328988,0.882870,-0.388486,-0.194051,0.178796,0.183334,-1.229056,-1.069764
654,1474362322,0.883687,-0.390266,-0.194705,0.169951,0.270898,-0.601477,-0.047666
655,1474395656,0.884355,-0.390079,-0.197619,0.163418,-0.330953,-0.888515,-0.335539
656,1474428990,0.883925,-0.390455,-0.202538,0.158756,1.256538,-0.166516,-0.021796
657,1474462324,0.883375,-0.393124,-0.203621,0.153767,0.797268,0.789393,0.995038
658,1474495658,0.882859,-0.395669,-0.203235,0.150680,0.255603,0.367015,1.426882
659,1474528992,0.881725,-0.398596,-0.203632,0.149065,0.395905,0.144335,0.962672
660,1474562326,0.880694,-0.402102,-0.202137,0.147773,0.606420,-0.339833,0.175490
661,1474595660,0.879984,-0.406273,-0.198623,0.145339,0.497217,-0.022709,0.125630
662,1474628994,0.879320,-0.409769,-0.195791,0.143373,0.367874,-0.740262,-0.527283
663,1474662328,0.878802,-0.412607,-0.193380,0.141671,0.461882,-0.690831,-0.247844
664,1474695662,0.878848,-0.413270,-0.192503,0.140642,-0.190261,-0.997661,-0.122554
665,1474728996,0.878995,-0.411064,-0.196453,0.140728,0.490407,-0.354363,-0.185040
666,1474762330,0.879533,-0.408541,-0.199579,0.140314,0.585651,-0.437980,-0.516083
667,1474795664,0.879791,-0.406540,-0.202645,0.140112,0.370191,-0.046311,0.050783
668,1474828998,0.879732,-0.403977,-0.206796,0.141820,-0.901929,0.134522,1.058331
669,1474862332,0.880216,-0.399685,-0.211240,0.144407,0.520072,0.112215,-0.391288
670,1474895666,0.881086,-0.397609,-0.211854,0.143932,0.102459,0.621815,0.976622
671,1474929000,0.882748,-0.394317,-0.211540,0.143267,-0.772655,-0.389406,0.375901
672,1474962334,0.884194,-0.391304,-0.211274,0.143000,0.482917,-0.107445,-0.167080
673,1474995668,0.885437,-0.389879,-0.209473,0.141846,0.469793,-0.121013,-0.002759
674,1475029002,0.886103,-0.390213,-0.206325,0.141382,0.015702,0.654545,1.347668
675,1475062336,0.886937,-0.389727,-0.203208,0.142006,0.096582,-0.047369,0.452323
676,1475095670,0.887363,-0.391258,-0.198885,0.141253,0.066533,-0.006880,0.501345
677,1475129004,0.887011,-0.395593,-0.192692,0.139972,-0.357035,-0.571153,-0.334322
678,1475162338,0.885599,-0.401714,-0.187888,0.137994,-0.158261,0.351340,0.804917
679,1475195672,0.883465,-0.407633,-0.186547,0.136120,0.177857,0.033633,-0.683600
680,1475229006,0.881159,-0.413032,-0.186727,0.134537,1.134508,-0.483068,-0.460102
681,1475262340,0.878936,-0.418607,-0.185511,0.133528,0.823680,-1.307209,-0.821537
682,1475295674,0.876411,-0.423068,-0.186830,0.134222,0.533111,-0.940596,0.396974
683,1475329008,0.874180,-0.425847,-0.189929,0.135628,-0.030994,-0.541966,-0.370854
684,1475362342,0.871867,-0.428136,-0.193529,0.138195,0.008787,-0.007850,0.369424
685,1475395676,0.870677,-0.429364,-0.194682,0.140253,-0.529259,-0.724001,-0.014921
686,1475429010,0.869610,-0.430017,-0.196399,0.142462,0.178756,-0.665624,0.030599
687,1475462344,0.868799,-0.431078,-0.196839,0.143591,0.376875,0.430600,0.638618
688,1475495678,0.868271,-0.431595,-0.196747,0.145348,-0.170405,-0.486407,0.138201
689,1475529012,0.867835,-0.432498,-0.196153,0.146069,0.391606,-0.426105,-0.043938
690,1475562346,0.867979,-0.433551,-0.193873,0.145133,-0.632671,-0.656567,0.203133
691,1475595680,0.868120,-0.433126,-0.193961,0.145434,-0.215202,-0.499719,0.330120
692,1475629014,0.868588,-0.431711,-0.195677,0.144552,1.651875,-0.114660,0.035962
693,1475662348,0.869641,-0.431363,-0.194959,0.140159,-0.012059,-0.685672,-0.117991
694,1475695682,0.870394,-0.430122,-0.197004,0.136391,-0.654000,-0.627925,0.166194
695,1475729016,0.871101,-0.428080,-0.200472,0.133212,-0.162769,-0.410445,0.420286
696,1475762350,0.871977,-0.425272,-0.204999,0.129534,0.202425,-0.292952,0.633611
697,1475795684,0.872998,-0.422516,-0.209280,0.124742,-0.134583,-0.439534,0.071323
698,1475829018,0.874055,-0.419575,-0.213960,0.119202,-0.013191,-0.271753,-0.054742
699,1475862352,0.875001,-0.417081,-0.218691,0.112225,0.104162,-0.596050,-0.534451
700,1475895686,0.876254,-0.415598,-0.221292,0.102422,-0.321076,0.127543,0.775904
701,1475929020,0.877853,-0.413329,-0.223923,0.091628,-0.740173,-0.472946,-0.194726
702,1475962354,0.879160,-0.412027,-0.225552,0.080256,0.348875,0.229403,0.618362
703,1475995688,0.880670,-0.410928,-0.225781,0.067714,-0.419861,0.381519,0.892716
704,1476029022,0.881957,-0.409877,-0.226072,0.055212,-0.180314,-0.399927,-0.225079
705,1476062356,0.882503,-0.410923,-0.224786,0.042482,-0.382746,0.028399,0.343478
706,1476095690,0.882241,-0.413163,-0.223653,0.030496,-0.162765,0.340883,1.112294
707,1476129024,0.881633,-0.416348,-0.221425,0.018752,0.135379,0.519961,0.446230
708,1476162358,0.881007,-0.420800,-0.216146,0.006262,-0.226413,-0.075743,0.591990
709,1476195692,0.879982,-0.426280,-0.209489,-0.005857,-0.331579,-0.564161,-0.517877
710,1476229026,0.878951,-0.431491,-0.202474,-0.016371,-0.755391,-0.145404,0.133075
711,1476262360,0.877921,-0.435157,-0.198273,-0.024172,1.168713,-0.160223,-0.226036
712,1476295694,0.877067,-0.438622,-0.193190,-0.032330,0.261905,-1.213006,-0.590741
713,1476329028,0.876554,-0.442342,-0.185355,-0.040411,0.077784,-0.481168,-0.137755
714,1476362362,0.876913,-0.444127,-0.177714,-0.046864,0.123603,0.516312,1.078483
715,1476395696,0.877769,-0.444354,-0.171792,-0.050624,0.641940,0.058112,0.583517
716,1476429030,0.878465,-0.445288,-0.165010,-0.052845,0.724980,0.095862,0.123325
717,1476462364,0.879279,-0.446310,-0.157248,-0.054343,-0.025475,0.309529,0.297701
718,1476495698,0.879843,-0.447929,-0.148759,-0.055766,0.676473,0.065621,0.346515
719,1476529032,0.880416,-0.449667,-0.139024,-0.057819,0.006752,-0.142733,-0.168731
720,1476562366,0.880797,-0.451134,-0.131026,-0.059252,1.080465,-0.093095,0.221585
721,1476595700,0.881389,-0.451749,-0.123492,-0.061885,0.561746,-0.463167,-0.343983
722,1476629034,0.881737,-0.452756,-0.116198,-0.063663,-0.034459,-0.293736,-0.037820
723,1476662368,0.882283,-0.452986,-0.111354,-0.063117,-0.121832,-0.024434,0.042315
724,1476695702,0.882855,-0.453198,-0.107091,-0.060943,0.604427,-0.107513,0.569489
725,1476729036,0.883738,-0.453002,-0.101354,-0.059388,0.592616,0.080093,0.585814
726,1476762370,0.885155,-0.451660,-0.094874,-0.059216,0.741017,-0.334948,0.436028
727,1476795704,0.886498,-0.450203,-0.089105,-0.059183,-0.315702,-0.733599,-1.107090
728,1476829038,0.887408,-0.450040,-0.080919,-0.058543,1.230086,-0.223065,0.701293
729,1476862372,0.888664,-0.449242,-0.070813,-0.058719,0.454233,-0.260555,0.051200
730,1476895706,0.889763,-0.448637,-0.060764,-0.057951,0.835352,-0.358291,0.397903
731,1476929040,0.890815,-0.447929,-0.050765,-0.056881,0.788684,-0.805331,0.180725
732,1476962374,0.891150,-0.448387,-0.041994,-0.055152,0.800679,-0.970576,0.100731
733,1476995708,0.890512,-0.450561,-0.036844,-0.051279,0.071397,0.246584,0.069560
734,1477029042,0.889481,-0.453419,-0.032711,-0.046569,0.402948,0.675422,0.157375
735,1477062376,0.888289,-0.456456,-0.023966,-0.044943,0.140599,0.157936,-0.082719
736,1477095710,0.886403,-0.460497,-0.012184,-0.045693,0.395019,-0.611023,-0.273588
737,1477129044,0.883794,-0.465485,0.001431,-0.047253,0.309774,-0.447947,-0.119726
738,1477162378,0.880951,-0.470758,0.011040,-0.046832,0.140103,-0.251976,0.226619
739,1477195712,0.878429,-0.475392,0.018129,-0.045155,0.432773,0.096341,0.293350
740,1477229046,0.876253,-0.479352,0.024437,-0.042531,-0.558067,0.076166,0.362872
741,1477262380,0.874709,-0.482342,0.027107,-0.038716,0.169057,0.020658,0.296338
742,1477295714,0.873302,-0.484663,0.032773,-0.037086,-0.052408,-0.124683,-0.123629
743,1477329048,0.871605,-0.487228,0.040254,-0.036011,-0.394820,-0.156173,-0.155930
744,1477362382,0.869481,-0.490400,0.048011,-0.034786,0.192343,0.268427,0.466191
745,1477395716,0.867234,-0.493474,0.056856,-0.034049,-0.068657,0.369410,0.721450
746,1477429050,0.865483,-0.495726,0.064012,-0.033184,0.256437,0.371928,0.750525
747,1477462384,0.864323,-0.496403,0.072895,-0.034944,-0.111673,-0.177818,0.038330
748,1477495718,0.863046,-0.497212,0.080907,-0.037275,-0.355777,-0.415216,-0.254886
749,1477529052,0.862017,-0.497958,0.086359,-0.038871,0.224514,-0.171506,0.011317
750,1477562386,0.861512,-0.498104,0.089933,-0.040055,-0.134359,-0.162345,0.099142
751,1477595720,0.861490,-0.497715,0.092002,-0.040677,0.106985,-0.510698,-0.304850
752,1477629054,0.861214,-0.497808,0.093678,-0.041541,-0.021572,-0.385209,-0.151581
753,1477662388,0.860872,-0.498082,0.094846,-0.042672,-0.183487,-0.199775,-0.043902
754,1477695722,0.860539,-0.498193,0.096445,-0.044476,-0.514054,0.018620,0.167549
755,1477729056,0.860537,-0.497995,0.096808,-0.045923,-0.094395,-0.001456,0.058389
756,1477762390,0.860574,-0.497630,0.097240,-0.048214,0.065525,-0.281654,-0.089209
757,1477795724,0.860619,-0.497364,0.096831,-0.050903,-0.423065,0.099896,0.262609
758,1477829058,0.861060,-0.496430,0.096269,-0.053554,-0.119229,0.178047,0.044303
759,1477862392,0.861602,-0.495137,0.096113,-0.056976,-0.310112,0.287824,0.389142
760,1477895726,0.862351,-0.493601,0.095195,-0.060413,0.042082,0.182452,0.041092
761,1477929060,0.862603,-0.492325,0.096161,-0.065494,-0.159267,0.170251,0.002346
762,1477962394,0.862953,-0.490725,0.096829,-0.071615,-0.271888,0.614458,0.620140
763,1477995728,0.863689,-0.488365,0.096499,-0.078951,0.008805,0.148065,0.177991
764,1478029062,0.863998,-0.486154,0.097266,-0.087770,-0.584782,0.053825,0.045231
765,1478062396,0.864341,-0.484178,0.096415,-0.095886,-0.287691,0.072970,0.281127
766,1478095730,0.864827,-0.481945,0.094653,-0.104153,-0.499407,0.068591,0.090897
767,1478129064,0.865137,-0.479690,0.093338,-0.112819,-0.345260,0.211142,0.024570
768,1478162398,0.865202,-0.477363,0.092570,-0.122411,0.143408,0.078567,-0.017320
769,1478195732,0.864958,-0.475019,0.091647,-0.133449,-0.071101,-0.014692,0.184481
770,1478229066,0.864445,-0.472508,0.090734,-0.145743,-0.319753,0.091426,-0.025405
771,1478262400,0.863160,-0.471145,0.090006,-0.157732,0.848154,0.047564,1.036384
772,1478295734,0.862298,-0.469608,0.087916,-0.167886,-0.173737,0.719790,0.813452
773,1478329068,0.861512,-0.467906,0.086397,-0.177199,-0.975745,-0.567061,-1.083381
774,1478362402,0.859551,-0.467342,0.087396,-0.187430,0.029813,-0.215035,-0.262403
775,1478395736,0.857914,-0.466103,0.086985,-0.197911,0.410993,0.715681,1.106141
776,1478429070,0.856784,-0.463682,0.086769,-0.208314,0.050800,0.083398,-0.059084
777,1478462404,0.854837,-0.462014,0.088727,-0.218924,0.109921,-0.111179,-0.288181
778,1478495738,0.852217,-0.460661,0.092879,-0.229989,0.108545,0.377427,0.349756
779,1478529072,0.849171,-0.458889,0.098691,-0.242062,0.852543,0.435943,0.655852
780,1478562406,0.846224,-0.455946,0.105442,-0.254762,0.387593,0.489232,0.603722
781,1478595740,0.843935,-0.452064,0.111234,-0.266539,0.792234,-0.012002,0.087734
782,1478629074,0.842045,-0.447287,0.116745,-0.277971,0.410111,-0.550300,-0.021464
783,1478662408,0.840042,-0.442356,0.121832,-0.289501,0.183408,-0.475201,-0.430105
784,1478695742,0.838112,-0.437560,0.126625,-0.300134,0.170971,-0.478521,0.198848
785,1478729076,0.836248,-0.433477,0.130091,-0.309625,0.831959,-0.658988,0.337984
786,1478762410,0.834283,-0.429484,0.133093,-0.319070,0.369089,-0.171678,0.301339
787,1478795744,0.832440,-0.425527,0.135888,-0.327886,0.369579,-0.477777,0.049597
788,1478829078,0.830233,-0.421870,0.139367,-0.336629,0.242250,-0.399004,-0.213007
789,1478862412,0.827626,-0.418544,0.143504,-0.345350,0.186431,-0.385977,0.278383
790,1478895746,0.824774,-0.415526,0.147344,-0.354090,0.401271,-0.204836,0.373428
791,1478929080,0.822521,-0.412509,0.149464,-0.361884,0.339979,-0.473629,0.198294
792,1478962414,0.820289,-0.409672,0.151885,-0.369094,-0.476339,-0.264941,0.039939
793,1478995748,0.817738,-0.407640,0.154859,-0.375707,0.346919,-0.669968,0.317766
794,1479029082,0.814999,-0.404988,0.159020,-0.382725,0.100592,-0.294283,0.455153
795,1479062416,0.812020,-0.402528,0.163695,-0.389618,-0.132569,0.017377,0.057895
796,1479095750,0.808848,-0.399839,0.168580,-0.396836,0.066752,0.263875,0.377421
797,1479129084,0.805687,-0.396230,0.173839,-0.404541,-0.035975,-0.538965,0.263677
798,1479162418,0.801824,-0.391881,0.180234,-0.413554,-0.629025,-0.501142,-0.402287
799,1479195752,0.798077,-0.388706,0.185961,-0.421191,-0.439005,-0.166234,-0.214339
800,1479229086,0.794846,-0.385881,0.191021,-0.427585,0.393760,-0.477608,0.823905
801,1479262420,0.792086,-0.383419,0.194603,-0.433270,0.129287,-0.336927,0.315411
802,1479295754,0.789407,-0.380810,0.197989,-0.438889,-0.033344,-0.069141,0.228309
803,1479329088,0.786519,-0.377967,0.201539,-0.444875,-0.065716,-0.215486,-0.311368
804,1479362422,0.783146,-0.374602,0.206522,-0.451341,0.168215,-0.442634,0.211287
805,1479395756,0.779629,-0.371102,0.211595,-0.457923,-0.167404,-0.286897,0.038372
806,1479429090,0.776132,-0.367838,0.216001,-0.464394,-0.159890,-0.225761,0.268529
807,1479462424,0.772965,-0.365277,0.219505,-0.470021,-0.269811,0.052190,-0.297390
808,1479495758,0.770049,-0.363596,0.222781,-0.474548,0.300090,0.086084,0.449882
809,1479529092,0.767020,-0.360873,0.226642,-0.479674,0.270744,0.178917,0.444109
810,1479562426,0.763922,-0.357881,0.230239,-0.485117,0.205238,-0.009608,0.319638
811,1479595760,0.760497,-0.354924,0.234518,-0.490590,0.109291,-0.300289,-0.152582
812,1479629094,0.756746,-0.352277,0.239324,-0.495948,-0.077994,-0.259829,-0.044564
813,1479662428,0.752833,-0.349832,0.243827,-0.501410,0.158631,-0.167919,0.274213
814,1479695762,0.749107,-0.347257,0.247021,-0.507184,-0.151734,0.361956,0.289864
815,1479729096,0.745075,-0.344422,0.250078,-0.513519,0.034201,0.097104,-0.328200
816,1479762430,0.740650,-0.341304,0.253308,-0.520373,-0.164530,-0.002469,0.067735
817,1479795764,0.735555,-0.337647,0.257166,-0.528036,-0.185072,0.269936,-0.053033
818,1479829098,0.730502,-0.334180,0.259789,-0.535914,0.013640,-0.072547,0.260618
819,1479862432,0.725839,-0.330446,0.260998,-0.543918,-0.000981,0.649718,0.218855
820,1479895766,0.721021,-0.326799,0.262488,-0.551755,0.282491,-0.278885,0.118813
821,1479929100,0.715414,-0.322435,0.265679,-0.560033,0.233224,-0.056417,0.335078
822,1479962434,0.709883,-0.318564,0.268203,-0.568026,-0.218655,-0.187058,0.464322
823,1479995768,0.704772,-0.317411,0.268130,-0.575027,-0.160629,-0.636700,-0.272507
824,1480029102,0.698576,-0.317961,0.268753,-0.581952,0.396029,-0.838768,-0.047546
825,1480062436,0.690628,-0.318814,0.271435,-0.589675,-0.079638,0.512469,0.216239
826,1480095770,0.681248,-0.320561,0.275341,-0.597773,0.251535,-0.522390,-0.021616
827,1480129104,0.671635,-0.322029,0.279731,-0.605771,0.024996,-0.066689,0.898441
828,1480162438,0.663126,-0.323992,0.281988,-0.613008,-0.169693,-0.813612,-0.083709
829,1480195772,0.655525,-0.326782,0.285038,-0.618270,-0.146635,0.234553,-0.549541
830,1480229106,0.647940,-0.328523,0.289709,-0.623152,0.474113,0.023757,-0.156975
831,1480262440,0.640007,-0.328387,0.294349,-0.629218,-0.013679,-0.146882,0.570462
832,1480295774,0.631574,-0.327360,0.297613,-0.636695,0.187925,-0.166880,0.333186
833,1480329108,0.622471,-0.325321,0.301171,-0.644977,0.548250,-1.555936,0.633686
834,1480362442,0.613063,-0.322559,0.306055,-0.653026,0.662802,-0.249727,0.603460
835,1480395776,0.604098,-0.319488,0.310531,-0.660732,0.380234,-0.343911,0.343968
836,1480429110,0.594181,-0.315656,0.315990,-0.668928,0.272133,-0.437285,-0.303772
837,1480462444,0.583896,-0.310930,0.322161,-0.677203,0.332690,-0.018376,-0.084276
838,1480495778,0.573545,-0.304059,0.328446,-0.686091,-0.098268,0.146848,0.266625
839,1480529112,0.562686,-0.298448,0.334343,-0.694645,-0.172926,-0.038424,-0.058107
840,1480562446,0.551792,-0.292758,0.340434,-0.702799,0.104314,-0.912176,0.694476
841,1480595780,0.540483,-0.285830,0.346973,-0.711191,0.173308,-0.564936,0.389349
842,1480629114,0.529621,-0.279063,0.353396,-0.718846,-0.052531,-0.286629,0.544867
843,1480662448,0.519144,-0.271966,0.359654,-0.726069,-0.283377,-0.241317,0.113756
844,1480695782,0.509021,-0.265248,0.365270,-0.732887,-0.461818,0.000832,0.373122
845,1480729116,0.499166,-0.258467,0.370343,-0.739512,-0.979479,-0.417576,-0.270670
846,1480762450,0.489802,-0.251313,0.375392,-0.745668,-0.766542,0.270253,-0.115064
847,1480795784,0.481959,-0.247028,0.378449,-0.750649,-0.360002,-0.134658,-0.069698
848,1480829118,0.475410,-0.243301,0.379718,-0.755386,-0.636983,0.191289,-0.206779
849,1480862452,0.468073,-0.239183,0.381215,-0.760512,-0.772179,-0.096852,-0.058710
850,1480895786,0.460562,-0.236690,0.381856,-0.765539,-0.296673,-0.215876,0.062845
851,1480929120,0.452827,-0.233721,0.381839,-0.771054,-0.181973,0.490579,-0.081121
852,1480962454,0.444680,-0.231473,0.380920,-0.776907,-0.221622,-0.297994,-0.126723
853,1480995788,0.435607,-0.229521,0.379710,-0.783193,-0.180823,-0.354270,-0.276554
854,1481029122,0.426286,-0.227776,0.377756,-0.789748,-0.093507,0.089863,0.434396
855,1481062456,0.416090,-0.226216,0.375291,-0.796778,-0.539599,-0.666606,-0.252492
856,1481095790,0.405992,-0.225025,0.372438,-0.803634,0.184575,0.439256,0.770282
857,1481129124,0.397285,-0.227238,0.367491,-0.809618,-0.206321,-0.803473,0.229010
858,1481162458,0.389019,-0.230124,0.363147,-0.814761,-0.058328,-0.209906,0.452505
859,1481195792,0.380683,-0.233027,0.358893,-0.819743,-0.249474,-0.364965,0.562442
860,1481229126,0.371624,-0.235609,0.356289,-0.824286,-0.505745,-0.462448,0.130994
861,1481262460,0.363242,-0.238128,0.354932,-0.827875,-0.300490,0.465904,0.718067
862,1481295794,0.355108,-0.241694,0.353581,-0.830943,-0.476455,-0.529418,-0.067101
863,1481329128,0.345609,-0.243150,0.353686,-0.834471,-0.075659,-0.246821,0.515982
864,1481362462,0.335611,-0.245280,0.353701,-0.837916,-0.738284,-0.037537,-0.439755
865,1481395796,0.323195,-0.245981,0.354900,-0.842073,-0.756732,0.058204,-0.280266
866,1481429130,0.309566,-0.247300,0.356346,-0.846187,-0.499127,0.404413,-0.802722
867,1481462464,0.296105,-0.250450,0.358140,-0.849315,-0.221067,-0.139293,0.551573
868,1481495798,0.283541,-0.253782,0.359624,-0.851982,-0.252373,-0.463739,0.849061
869,1481529132,0.272548,-0.254628,0.362524,-0.854086,-0.608511,-0.032600,0.851565
870,1481562466,0.263504,-0.254410,0.366276,-0.855387,-0.260819,0.094037,0.705889
871,1481595800,0.256046,-0.255057,0.369690,-0.855990,-0.308014,-0.519520,0.666240
872,1481629134,0.248892,-0.255462,0.372874,-0.856598,-0.162185,-0.040126,0.279528
873,1481662468,0.242505,-0.257467,0.374157,-0.857271,-0.628588,0.190998,-0.416749
874,1481695802,0.235114,-0.254965,0.376488,-0.859055,-1.287440,0.463212,-0.751522
875,1481729136,0.227087,-0.250692,0.378904,-0.861406,-0.884782,0.397452,-0.347890
876,1481762470,0.220466,-0.248429,0.379431,-0.863547,-0.278343,0.514781,0.040112
877,1481795804,0.217843,-0.250626,0.377839,-0.864276,-0.186943,0.533490,-0.768453
878,1481829138,0.216579,-0.252735,0.377171,-0.864271,-0.752341,-0.985582,0.509450
879,1481862472,0.215555,-0.254496,0.376111,-0.864472,0.193452,-0.236029,0.795297
880,1481895806,0.214941,-0.256262,0.374431,-0.864833,0.511708,0.661113,-0.121042
881,1481929140,0.214397,-0.256678,0.374202,-0.864943,-0.117653,-0.438614,0.274407
882,1481962474,0.213367,-0.254896,0.373569,-0.865998,0.117139,-0.109794,0.448546
883,1481995808,0.213229,-0.254623,0.371941,-0.866813,-0.458156,0.303587,0.137612
884,1482029142,0.213227,-0.254391,0.370020,-0.867703,-0.692483,0.173994,0.530751
885,1482062476,0.212992,-0.252696,0.368309,-0.868983,-0.329058,0.227983,0.296942
886,1482095810,0.214237,-0.250963,0.366909,-0.869771,0.140461,0.463350,0.350271
887,1482129144,0.215829,-0.251862,0.366536,-0.869275,-0.354372,-0.644831,1.296917
888,1482162478,0.215766,-0.248182,0.369503,-0.869093,-0.435833,-0.107585,-0.427739
889,1482195812,0.212926,-0.237992,0.378370,-0.868828,-0.527245,-0.412062,-0.037402
890,1482229146,0.209635,-0.225981,0.388476,-0.868375,0.494651,0.452103,0.348927
891,1482262480,0.208633,-0.216321,0.396614,-0.867398,0.085058,0.996641,-0.033922
892,1482295814,0.209424,-0.211558,0.401735,-0.866024,-0.494321,0.646759,-0.190374
893,1482329148,0.212050,-0.209877,0.403555,-0.864947,-0.619955,1.048472,-0.051358
894,1482362482,0.217758,-0.213255,0.402952,-0.862982,-0.446047,1.265351,-0.684214
895,1482395816,0.225838,-0.220275,0.401165,-0.859969,-0.649803,0.600964,0.026579
896,1482429150,0.234319,-0.227382,0.399365,-0.856682,-0.474438,-0.080869,0.078523
897,1482462484,0.242465,-0.232388,0.398377,-0.853525,0.094915,-0.312686,0.740968
898,1482495818,0.249867,-0.235522,0.397304,-0.851028,-0.335437,-0.596800,0.525686
899,1482529152,0.255465,-0.235544,0.396514,-0.849728,0.209550,0.465571,-0.180435
900,1482562486,0.259929,-0.234558,0.396333,-0.848730,-0.035824,0.718640,-0.460863
901,1482595820,0.263773,-0.234806,0.395313,-0.847951,-0.165269,0.764904,-0.089522
902,1482629154,0.267193,-0.236785,0.393655,-0.847101,-0.432206,-0.184258,0.021568
903,1482662488,0.269713,-0.238292,0.391886,-0.846700,0.368509,0.174521,-0.037356
904,1482695822,0.271833,-0.240390,0.389999,-0.846300,0.374542,-0.129325,0.382946
905,1482729156,0.273721,-0.241364,0.387502,-0.846561,0.805910,0.400392,0.262970
906,1482762490,0.275542,-0.243037,0.383970,-0.847101,0.091500,0.033737,0.063397
907,1482795824,0.275499,-0.244983,0.380443,-0.848145,-0.386700,-0.402907,-0.269238
908,1482829158,0.273664,-0.244687,0.377772,-0.850017,0.532774,0.215705,-0.280712
909,1482862492,0.271119,-0.245147,0.374332,-0.852219,-0.012525,-0.532025,0.604853
910,1482895826,0.268718,-0.248439,0.369290,-0.854223,-0.031022,-0.379781,-0.562393
911,1482929160,0.265222,-0.249503,0.364996,-0.856847,0.701343,0.826576,1.127438
912,1482962494,0.261112,-0.251269,0.360422,-0.859526,-0.420766,-0.077759,-0.124659
913,1482995828,0.255535,-0.252112,0.357710,-0.862084,0.145182,-0.106467,1.050162
914,1483029162,0.250121,-0.254372,0.356408,-0.863546,-0.502995,-0.348311,0.260909
915,1483062496,0.246349,-0.256230,0.357041,-0.863819,0.676411,0.480568,1.282700
916,1483095830,0.243625,-0.260249,0.358346,-0.862849,-1.008482,-1.361299,0.493638
917,1483129164,0.240203,-0.261761,0.361463,-0.862051,0.199040,0.104226,1.192313
918,1483162498,0.236915,-0.264025,0.363809,-0.861283,-0.233865,0.267391,-0.716166
919,1483195832,0.232593,-0.266043,0.367394,-0.860318,-0.255948,0.036417,-0.304733
920,1483229166,0.227172,-0.264633,0.370105,-0.861039,-0.011945,0.465659,0.804236
921,1483262500,0.222240,-0.266002,0.370018,-0.861941,-0.559370,0.667763,-0.667188
922,1483295834,0.217578,-0.267278,0.370272,-0.862627,-1.685108,0.381132,0.441127
923,1483329168,0.212770,-0.267146,0.372908,-0.862731,-1.751123,-0.525809,0.018688
924,1483362502,0.210428,-0.263801,0.376970,-0.862570,0.581273,0.414736,0.994037
925,1483395836,0.212091,-0.264694,0.378805,-0.861084,0.129145,-0.099240,0.838877
926,1483429170,0.216356,-0.266229,0.379592,-0.859200,0.188870,0.329485,-0.174806
927,1483462504,0.219031,-0.266879,0.381189,-0.857613,-1.255765,-0.611957,0.005156
928,1483495838,0.219163,-0.263425,0.383634,-0.857557,-0.355548,0.699077,-0.761249
929,1483529172,0.219228,-0.261013,0.386242,-0.857107,0.143014,0.545229,0.014916
930,1483562506,0.220263,-0.260376,0.386806,-0.856781,-0.430836,0.582294,-0.038036
931,1483595840,0.221370,-0.260409,0.386072,-0.856817,0.341575,-0.028609,0.734429
932,1483629174,0.223064,-0.259872,0.383820,-0.857551,0.192907,0.783797,-0.459616
933,1483662508,0.224623,-0.259033,0.381600,-0.858389,-0.050363,0.220201,0.440080
934,1483695842,0.226169,-0.261036,0.378879,-0.858581,-0.519206,-0.681767,-0.237742
935,1483729176,0.226959,-0.260990,0.376454,-0.859453,-0.107120,-0.065929,0.241553
936,1483762510,0.226788,-0.260592,0.374612,-0.860424,0.479694,0.331510,-0.085521
937,1483795844,0.227153,-0.260686,0.371254,-0.861753,0.030969,0.246410,0.191498
938,1483829178,0.227848,-0.263360,0.367268,-0.862465,-0.017601,-0.771542,-0.010150
939,1483862512,0.229945,-0.261623,0.365178,-0.863324,0.329547,0.397235,1.088632
940,1483895846,0.233997,-0.263837,0.362599,-0.862648,-1.539335,-0.587346,-0.650659
941,1483929180,0.239065,-0.264366,0.363006,-0.860923,0.767327,0.669295,1.387484
942,1483962514,0.246426,-0.267606,0.364789,-0.857085,-0.864272,-0.935293,0.031880
943,1483995848,0.252576,-0.266532,0.370218,-0.853293,1.041350,0.016128,0.832473
944,1484029182,0.257372,-0.264157,0.377149,-0.849555,0.200752,0.490035,-0.564263
945,1484062516,0.259505,-0.257223,0.385655,-0.847212,-1.298778,0.330399,0.616280
946,1484095850,0.262706,-0.250787,0.392301,-0.845101,-1.160711,0.965771,-0.460645
947,1484129184,0.270430,-0.250104,0.393853,-0.842140,-0.800355,0.097497,0.243480
948,1484162518,0.280358,-0.250662,0.392663,-0.839278,-0.570794,0.873554,0.143189
949,1484195852,0.289482,-0.251622,0.391622,-0.836375,-0.638456,1.077668,-0.282063
950,1484229186,0.296651,-0.253008,0.391600,-0.833450,0.697197,-0.431890,1.140580
951,1484262520,0.302211,-0.251359,0.392484,-0.831532,0.787796,-0.376876,0.952053
952,1484295854,0.306616,-0.247462,0.393941,-0.830400,0.066557,0.370637,0.325405
953,1484329188,0.308681,-0.244439,0.396455,-0.829333,-0.760576,0.377208,-0.850432
954,1484362522,0.308824,-0.240111,0.398259,-0.829679,-0.348686,0.862889,-0.544827
955,1484395856,0.307882,-0.237781,0.398330,-0.830666,-0.488707,0.487939,-0.072402
956,1484429190,0.307009,-0.238194,0.395175,-0.832376,-0.510994,1.149730,0.070798
957,1484462524,0.305845,-0.241739,0.390618,-0.833932,-0.048173,0.823558,-1.266447
958,1484495858,0.304421,-0.245075,0.387023,-0.835154,0.176387,-0.560220,0.993603
959,1484529192,0.304098,-0.249234,0.381376,-0.836638,0.445837,0.393257,-0.154377
960,1484562526,0.304476,-0.254197,0.375435,-0.837693,0.345773,0.237228,0.382047
961,1484595860,0.303176,-0.257397,0.369238,-0.839939,-0.343856,-0.255912,0.090686
962,1484629194,0.301490,-0.264043,0.360976,-0.842072,-0.351596,0.231669,-0.868097
963,1484662528,0.297937,-0.268399,0.355638,-0.844228,-0.139809,-1.013936,0.618838
964,1484695862,0.294814,-0.272736,0.348562,-0.846881,0.572898,0.644236,0.437590
965,1484729196,0.293321,-0.281655,0.340040,-0.847945,0.208696,-0.669682,0.366415
966,1484762530,0.290801,-0.285677,0.335038,-0.849457,0.575247,1.594875,0.797203
967,1484795864,0.287138,-0.291724,0.331392,-0.850078,0.222730,-0.921735,0.989119
968,1484829198,0.282826,-0.296508,0.330634,-0.850163,-0.258700,-0.662393,0.920649
969,1484862532,0.277102,-0.298897,0.333589,-0.850057,-0.505906,0.014977,0.688351
970,1484895866,0.270264,-0.299028,0.339631,-0.849820,-0.515175,-0.430663,0.483075
971,1484929200,0.262154,-0.296755,0.347359,-0.850034,-0.327618,0.282180,-0.132654
972,1484962534,0.253666,-0.292226,0.355834,-0.850672,-0.584149,0.888156,-0.938669
973,1484995868,0.245102,-0.285676,0.363614,-0.852117,-0.235199,1.746703,-0.227906
974,1485029202,0.238287,-0.282137,0.368559,-0.853103,-1.136894,1.536448,-0.701985
975,1485062536,0.232807,-0.279244,0.372933,-0.853668,-0.929631,0.571014,0.055364
976,1485095870,0.229107,-0.274000,0.378776,-0.853795,-1.008972,-0.960375,0.834763
977,1485129204,0.229168,-0.267551,0.384017,-0.853483,-0.188144,0.612112,0.852482
978,1485162538,0.232060,-0.267006,0.386715,-0.851652,-1.029696,-0.590869,0.434787
979,1485195872,0.233452,-0.264146,0.390136,-0.850603,-0.028812,0.583266,0.080873
980,1485229206,0.233154,-0.260823,0.394080,-0.849891,-0.499437,0.429654,-0.802623
981,1485262540,0.230678,-0.256027,0.398359,-0.850031,-0.552631,0.285357,0.046435
982,1485295874,0.227469,-0.251195,0.401686,-0.850771,-0.111100,0.061437,0.603206
983,1485329208,0.226555,-0.249431,0.402135,-0.851321,0.242199,0.339417,-0.120239
984,1485362542,0.227690,-0.248065,0.401941,-0.851509,0.424856,0.500358,0.095336
985,1485395876,0.229298,-0.245902,0.402054,-0.851651,0.159986,0.026618,-0.009315
986,1485429210,0.230819,-0.243998,0.401803,-0.851907,0.502729,-0.165557,1.141204
987,1485462544,0.232600,-0.242954,0.399842,-0.852643,-0.012891,0.409652,-0.019653
988,1485495878,0.233688,-0.240484,0.397623,-0.854082,1.007044,0.484543,0.651188
989,1485529212,0.236562,-0.239419,0.394941,-0.854834,-0.733410,0.358605,-1.637074
990,1485562546,0.239753,-0.236247,0.394501,-0.855032,-0.547388,-0.915538,1.039636
991,1485595880,0.243065,-0.231271,0.393782,-0.855788,-0.475993,-0.690667,1.016371
992,1485629214,0.247175,-0.226808,0.392823,-0.856245,-0.141467,-0.550585,1.024676
993,1485662548,0.251535,-0.221167,0.393074,-0.856336,-0.576518,-0.306554,0.598164
994,1485695882,0.255035,-0.214661,0.395342,-0.855913,-1.349054,-0.198107,0.343683
995,1485729216,0.255561,-0.203846,0.401961,-0.855317,-1.641415,0.119859,0.610099
996,1485762550,0.254011,-0.191659,0.410301,-0.854636,-0.788443,-0.053439,-0.484819
997,1485795884,0.251572,-0.180189,0.418699,-0.853779,-0.128750,0.726481,-1.004560
998,1485829218,0.249750,-0.167701,0.426010,-0.853241,0.793286,1.818775,-0.906206
999,1485862552,0.251046,-0.158512,0.431104,-0.852058,0.358714,2.087313,-0.962186
1000,1485895886,0.256393,-0.154177,0.434760,-0.849400,0.167431,1.653087,-0.861257
1001,1485929220,0.265987,-0.158170,0.437113,-0.844493,-0.380619,-0.638833,0.524325
1002,1485962554,0.275530,-0.162455,0.438500,-0.839889,-0.246012,-1.273620,1.538901
1003,1485995888,0.283723,-0.165371,0.439971,-0.835813,0.726135,0.122641,0.564440
1004,1486029222,0.289646,-0.166495,0.441954,-0.832505,-0.365504,0.048639,0.254442
1005,1486062556,0.291724,-0.163518,0.444436,-0.831047,0.231785,0.757423,0.332197
1006,1486095890,0.293869,-0.164283,0.443745,-0.830510,-0.900280,0.388886,-0.772280
1007,1486129224,0.294941,-0.166116,0.442955,-0.830187,-0.743039,0.357784,-0.086226
1008,1486162558,0.295930,-0.168254,0.441398,-0.830234,-0.148146,0.203169,-0.380962
1009,1486195892,0.297675,-0.173244,0.437699,-0.830541,0.537769,0.276647,0.477309
1010,1486229226,0.299266,-0.178916,0.432329,-0.831580,0.166495,0.069454,-0.072484
1011,1486262560,0.299121,-0.182133,0.428142,-0.833098,0.561876,-0.157915,0.519095
1012,1486295894,0.297816,-0.183573,0.423391,-0.835673,0.417042,-0.426689,0.376980
1013,1486329228,0.294670,-0.183906,0.418460,-0.839192,0.240550,-0.532799,0.506532
1014,1486362562,0.290694,-0.184136,0.412959,-0.843244,0.545360,0.664247,-0.297096
1015,1486395896,0.287246,-0.185708,0.407355,-0.846799,0.372449,-0.001032,0.020361
1016,1486429230,0.283326,-0.186988,0.401279,-0.850730,-0.499290,-0.081289,0.172230
1017,1486462564,0.278841,-0.190702,0.395040,-0.854299,0.152536,-0.153637,-0.281984
1018,1486495898,0.274617,-0.194713,0.390076,-0.857040,-0.105490,-0.707034,0.437551
1019,1486529232,0.270624,-0.198789,0.386215,-0.859120,-0.379658,-0.075458,1.219537
1020,1486562566,0.266523,-0.204541,0.383501,-0.860267,-0.401567,-0.240467,0.358655
1021,1486595900,0.262588,-0.209175,0.382901,-0.860630,0.100209,-0.383058,0.945669
1022,1486629234,0.258424,-0.212057,0.383456,-0.860938,0.031038,0.377355,0.629128
1023,1486662568,0.253389,-0.214335,0.384708,-0.861312,-0.805804,0.196463,-0.272641
1024,1486695902,0.247882,-0.215721,0.386802,-0.861630,0.001071,1.211245,-0.316757
1025,1486729236,0.243345,-0.220005,0.387059,-0.861725,-0.726893,0.286297,-0.080300
1026,1486762570,0.238433,-0.225233,0.386892,-0.861823,-0.730635,0.775593,-0.391697
1027,1486795904,0.234687,-0.230822,0.386196,-0.861684,-0.587147,0.184751,-0.064722
1028,1486829238,0.230848,-0.232577,0.386466,-0.862128,-0.873686,0.435054,0.384902
1029,1486862572,0.228404,-0.234616,0.387125,-0.861931,-0.586022,-0.279448,0.690127
1030,1486895906,0.227988,-0.235557,0.388249,-0.861279,-0.039254,0.273027,1.383882
1031,1486929240,0.229846,-0.237481,0.389372,-0.859748,-0.500173,1.104772,-1.074708
1032,1486962574,0.230994,-0.238512,0.391190,-0.858328,-0.348329,0.004055,0.172536
1033,1486995908,0.230174,-0.237652,0.393860,-0.857566,-0.950919,0.452163,-0.311274
1034,1487029242,0.228112,-0.235860,0.396480,-0.857405,-0.219953,0.783806,0.058558
1035,1487062576,0.226253,-0.236880,0.397536,-0.857127,-0.782234,-0.191169,-0.336721
1036,1487095910,0.224758,-0.235496,0.397764,-0.857796,0.096747,0.525285,-0.406615
1037,1487129244,0.225044,-0.234948,0.397076,-0.858189,0.039310,0.198551,0.307030
1038,1487162578,0.227465,-0.236866,0.394716,-0.858113,-0.254269,-0.267285,0.537962
1039,1487195912,0.229908,-0.238233,0.392310,-0.858186,-0.402203,-0.485575,0.241689
1040,1487229246,0.230841,-0.237258,0.390825,-0.858884,0.703384,-0.305278,0.327008
1041,1487262580,0.231502,-0.236530,0.388826,-0.859813,0.258923,0.065024,0.186794
1042,1487295914,0.231307,-0.233945,0.387129,-0.861337,-0.272110,0.142935,0.091982
1043,1487329248,0.231107,-0.232399,0.385150,-0.862696,-0.725451,-0.470804,-0.107772
1044,1487362582,0.231515,-0.229973,0.383570,-0.863939,-0.336932,0.412961,0.173155
1045,1487395916,0.233757,-0.228159,0.382628,-0.864234,-0.330628,0.007627,0.198094
1046,1487429250,0.237707,-0.227084,0.381710,-0.863846,0.485812,-0.218749,1.282634
1047,1487462584,0.244335,-0.228537,0.379563,-0.862558,0.422183,-0.175836,0.375297
1048,1487495918,0.250778,-0.228396,0.380031,-0.860538,-0.813571,-0.601850,0.298379
1049,1487529252,0.255429,-0.223768,0.384251,-0.858509,0.320664,0.272627,0.424330
1050,1487562586,0.259220,-0.217939,0.390670,-0.855972,-0.014822,-0.279655,0.490154
1051,1487595920,0.260797,-0.209853,0.397404,-0.854413,-0.026800,0.631808,-0.072503
1052,1487629254,0.261811,-0.201821,0.402710,-0.853553,-0.341162,0.744878,-0.327122
1053,1487662588,0.263129,-0.195313,0.406067,-0.853071,-1.521014,0.435714,-0.046622
1054,1487695922,0.266526,-0.191356,0.406473,-0.852719,-0.749714,1.827007,-0.650846
1055,1487729256,0.271616,-0.191237,0.405974,-0.851377,-1.345565,0.070972,-0.120676
1056,1487762590,0.276623,-0.190005,0.406117,-0.849971,-0.303302,0.342444,0.173988
1057,1487795924,0.282707,-0.190636,0.406557,-0.847614,0.245969,-0.177478,1.238211
1058,1487829258,0.287854,-0.189806,0.407057,-0.845826,0.247737,0.807512,-0.086260
1059,1487862592,0.290395,-0.187473,0.409822,-0.844141,0.528716,0.574941,0.213785
1060,1487895926,0.292362,-0.186012,0.411861,-0.842792,-0.089923,0.964925,-0.369061
1061,1487929260,0.293048,-0.185686,0.413607,-0.841770,-0.378036,0.832380,-0.347507
1062,1487962594,0.292843,-0.185922,0.414149,-0.841522,0.051779,0.723449,0.088792
1063,1487995928,0.292442,-0.188921,0.412371,-0.841868,-0.133177,-0.031912,0.364752
1064,1488029262,0.292435,-0.192982,0.409427,-0.842385,0.121468,-0.449054,-0.141563
1065,1488062596,0.293117,-0.195582,0.406662,-0.842888,0.399778,0.662656,0.283655
1066,1488095930,0.293064,-0.199441,0.402739,-0.843885,0.031630,-0.259692,0.233769
1067,1488129264,0.291706,-0.201991,0.398933,-0.845555,0.073983,-0.379790,0.022369
1068,1488162598,0.290155,-0.204093,0.394680,-0.847577,0.610094,0.262669,0.111890
1069,1488195932,0.288282,-0.206361,0.389551,-0.850037,0.007562,0.065565,0.017950
1070,1488229266,0.285504,-0.208125,0.385205,-0.852521,-0.036042,-0.196208,0.335130
1071,1488262600,0.281917,-0.209100,0.380850,-0.855428,0.334040,-0.229727,0.189741
1072,1488295934,0.278782,-0.210643,0.375895,-0.858264,0.240822,-0.023866,0.353931
1073,1488329268,0.275206,-0.211630,0.371369,-0.861141,0.094650,0.924971,0.215359
1074,1488362602,0.270046,-0.213852,0.367863,-0.863726,-0.485593,-0.549025,0.364247
1075,1488395936,0.264842,-0.216929,0.364776,-0.865877,-0.323702,-0.257637,0.601037
1076,1488429270,0.259185,-0.221013,0.363500,-0.867091,-0.248920,-0.166553,0.728663
1077,1488462604,0.254494,-0.224635,0.364933,-0.866948,0.033170,0.173789,0.736958
1078,1488495938,0.250238,-0.226797,0.367593,-0.866500,0.017201,-0.041630,0.738026
1079,1488529272,0.244677,-0.225973,0.371473,-0.866649,-0.700857,0.054686,-0.144138
1080,1488562606,0.237374,-0.222969,0.375981,-0.867514,-0.105206,0.773857,-0.452698
1081,1488595940,0.230959,-0.220486,0.380502,-0.867909,-0.216535,1.211162,-0.578809
1082,1488629274,0.224247,-0.217720,0.383881,-0.868879,-1.187618,0.127410,-0.099037
1083,1488662608,0.216641,-0.213795,0.387674,-0.870098,-0.587657,0.215104,-0.044294
1084,1488695942,0.210254,-0.210067,0.390397,-0.871354,0.164639,1.089344,-0.195535
1085,1488729276,0.204026,-0.206205,0.393072,-0.872554,-0.535834,-0.583720,0.770385
1086,1488762610,0.197984,-0.201090,0.395851,-0.873882,-0.016906,-0.189863,0.667974
1087,1488795944,0.193201,-0.195247,0.399307,-0.874705,-0.318081,-0.115970,0.720040
1088,1488829278,0.189809,-0.188816,0.403329,-0.875015,-0.166995,0.095109,0.004575
1089,1488862612,0.186671,-0.180880,0.408155,-0.875128,-0.474489,-0.226896,0.566806
1090,1488895946,0.182888,-0.171297,0.413159,-0.875507,-0.384804,0.065063,-0.116836
1091,1488929280,0.178924,-0.161379,0.418621,-0.875616,-0.288254,0.394429,-0.428625
1092,1488962614,0.174941,-0.151202,0.423445,-0.875917,-0.186156,0.151795,-0.028481
1093,1488995948,0.169495,-0.140403,0.426783,-0.877165,-0.788164,-0.081386,0.484056
1094,1489029282,0.162859,-0.129623,0.429056,-0.878971,-0.033025,0.790914,-1.190710
1095,1489062616,0.157184,-0.118564,0.431846,-0.880198,0.256868,-0.229163,0.129990
1096,1489095950,0.151747,-0.108233,0.432741,-0.882042,0.083370,-0.695194,1.023281
1097,1489129284,0.146370,-0.099003,0.432167,-0.884313,0.214837,-0.968083,0.203960
1098,1489162618,0.141834,-0.087787,0.431357,-0.886629,0.232460,-0.414545,0.203829
1099,1489195952,0.138508,-0.076620,0.429956,-0.888868,-0.510056,-0.832842,0.393118
1100,1489229286,0.134232,-0.064110,0.427556,-0.891668,-1.214021,-0.588403,0.344778
1101,1489262620,0.129757,-0.051746,0.426000,-0.893875,-0.211785,0.263517,-0.543736
1102,1489295954,0.125651,-0.040866,0.425228,-0.895392,-0.778064,-0.454776,0.513895
1103,1489329288,0.120976,-0.031195,0.424306,-0.896861,-0.378741,-0.186263,0.555677
1104,1489362622,0.116750,-0.025455,0.424342,-0.897585,-0.530759,-0.191034,0.294923
1105,1489395956,0.113547,-0.021094,0.427229,-0.896739,-0.549284,-0.322130,-0.071368
1106,1489429290,0.109788,-0.015308,0.433745,-0.894193,-0.660283,-0.551140,0.355252
1107,1489462624,0.104799,-0.007057,0.441542,-0.891073,-0.259159,-0.578320,0.414455
1108,1489495958,0.098123,0.004013,0.448916,-0.888163,0.233688,0.079546,-0.039940
1109,1489529292,0.091670,0.013923,0.454042,-0.886145,-0.694467,0.843209,-0.604948
1110,1489562626,0.083362,0.025531,0.458656,-0.884329,-1.067433,1.442037,-0.532012
1111,1489595960,0.075429,0.034173,0.462497,-0.882747,-0.378535,1.037925,-0.368615
1112,1489629294,0.069058,0.039916,0.466230,-0.881062,-0.842050,-0.176045,0.029030
1113,1489662628,0.061521,0.048730,0.470452,-0.878931,-0.403795,-1.028358,1.203718
1114,1489695962,0.054416,0.056118,0.472759,-0.877720,-0.849621,-0.604207,0.740193
1115,1489729296,0.044977,0.066192,0.474998,-0.876342,-0.332722,0.169829,-0.518952
1116,1489762630,0.034013,0.078390,0.477547,-0.874443,-0.496846,0.365671,-0.262582
1117,1489795964,0.021677,0.090941,0.479801,-0.872384,-0.888409,0.134441,-0.146970
1118,1489829298,0.008053,0.103787,0.481394,-0.870303,-0.587660,0.070395,-0.207436
1119,1489862632,-0.007312,0.118286,0.482619,-0.867778,-0.107948,-0.290295,0.319584
1120,1489895966,-0.023530,0.132490,0.482283,-0.865621,-0.744495,-0.382879,0.334050
1121,1489929300,-0.039832,0.144151,0.480356,-0.864231,-0.282188,0.069398,0.402385
1122,1489962634,-0.055697,0.151118,0.477110,-0.863962,-0.285333,-0.883956,0.522533
1123,1489995968,-0.071861,0.157880,0.472112,-0.864305,-1.759951,0.105056,0.535810
1124,1490029302,-0.090894,0.167030,0.467063,-0.863536,-0.536166,0.227182,-1.179301
1125,1490062636,-0.109980,0.177665,0.462465,-0.861667,-1.116377,0.130154,0.349527
1126,1490095970,-0.130492,0.188911,0.457030,-0.859309,-0.726003,-0.375386,0.301650
1127,1490129304,-0.151371,0.198601,0.450901,-0.856934,-0.676484,0.083252,0.139171
1128,1490162638,-0.173858,0.208715,0.444142,-0.853788,-0.865893,-0.118906,0.234614
1129,1490195972,-0.197013,0.217565,0.436822,-0.850319,-0.930178,0.444672,-0.103885
1130,1490229306,-0.221829,0.226883,0.429248,-0.845615,-0.838799,0.423444,0.187420
1131,1490262640,-0.247639,0.234400,0.420880,-0.840593,-1.087439,0.635820,0.654137
1132,1490295974,-0.274094,0.240915,0.412746,-0.834552,-0.915802,1.029745,-0.149865
1133,1490329308,-0.300219,0.246221,0.405232,-0.827668,-0.425635,-0.059998,0.802256
1134,1490362642,-0.326316,0.249341,0.397499,-0.820576,-1.421717,1.221621,1.579478
1135,1490395976,-0.352529,0.251960,0.389783,-0.812596,-0.622097,0.589473,0.043885
1136,1490429310,-0.378162,0.256269,0.383251,-0.802771,-0.882113,1.233631,0.226914
1137,1490462644,-0.403397,0.262294,0.376628,-0.791598,-0.590531,1.596584,-0.081592
1138,1490495978,-0.427224,0.267152,0.371209,-0.779947,-0.375176,1.575669,-0.305124
1139,1490529312,-0.449394,0.271612,0.365392,-0.768612,-0.530284,0.760524,-0.255896
1140,1490562646,-0.469052,0.276599,0.358879,-0.758085,-0.129409,1.910645,-0.506968
1141,1490595980,-0.487686,0.282023,0.352576,-0.747208,-0.616181,1.116918,0.560618
1142,1490629314,-0.504584,0.286062,0.346047,-0.737440,-0.821905,1.451529,0.716853
1143,1490662648,-0.520971,0.291111,0.338995,-0.727275,-0.284526,0.946810,0.210901
1144,1490695982,-0.536776,0.296979,0.331858,-0.716623,-0.401227,0.780042,0.159622
1145,1490729316,-0.552455,0.303288,0.323726,-0.705702,0.007926,0.878305,0.312573
1146,1490762650,-0.567968,0.309238,0.314861,-0.694731,0.520758,1.086532,-1.180506
1147,1490795984,-0.582855,0.316038,0.306358,-0.683044,0.668791,0.843988,-0.036304
1148,1490829318,-0.596620,0.322349,0.298342,-0.671664,0.203017,0.417455,0.069902
1149,1490862652,-0.609187,0.326032,0.291159,-0.661683,-0.788004,2.028321,0.983299
1150,1490895986,-0.621169,0.329076,0.284364,-0.651920,-0.206909,0.391499,0.114115
1151,1490929320,-0.631769,0.331154,0.278751,-0.643045,-0.096588,0.626866,0.239027
1152,1490962654,-0.642846,0.334728,0.272235,-0.632928,0.027018,0.945070,0.241743
1153,1490995988,-0.652840,0.338235,0.266623,-0.623148,-0.003456,0.366562,0.071939
1154,1491029322,-0.662355,0.341490,0.261427,-0.613457,0.423329,1.080130,-0.151266
1155,1491062656,-0.671842,0.344364,0.256246,-0.603641,0.091009,-0.043502,0.207060
1156,1491095990,-0.680434,0.345469,0.252869,-0.594745,0.297231,0.490059,-0.246264
1157,1491129324,-0.688973,0.347417,0.248856,-0.585399,0.261529,0.927989,-0.154132
1158,1491162658,-0.698170,0.350656,0.243322,-0.574802,-0.262103,0.329457,0.463398
1159,1491195992,-0.706537,0.351951,0.240308,-0.564970,0.035978,0.370723,0.292286
1160,1491229326,-0.714047,0.353163,0.238330,-0.555532,0.212730,0.247734,-0.006874
1161,1491262660,-0.720763,0.354490,0.238357,-0.545919,0.531480,1.077893,0.324042
1162,1491295994,-0.727437,0.355561,0.240010,-0.535547,-0.317666,0.421490,0.493186
1163,1491329328,-0.734114,0.358357,0.240868,-0.524064,0.322552,0.262773,-0.187820
1164,1491362662,-0.739318,0.364076,0.242226,-0.512043,-0.565104,0.792393,0.898699
1165,1491395996,-0.744492,0.369340,0.242472,-0.500531,-0.016575,1.002315,0.839131
1166,1491429330,-0.750033,0.376184,0.240291,-0.488058,0.319967,1.566865,0.684985
1167,1491462664,-0.755168,0.383552,0.236021,-0.476348,0.367488,0.651464,0.225311
1168,1491495998,-0.759872,0.388356,0.232814,-0.466450,0.907943,0.590959,0.378794
1169,1491529332,-0.763831,0.389557,0.233228,-0.458711,0.219983,-0.700217,-0.643513
1170,1491562666,-0.766293,0.387704,0.237578,-0.453918,0.106174,-0.891101,-0.264457
1171,1491596000,-0.769557,0.386530,0.239691,-0.448249,1.213271,1.310758,-0.368149
1172,1491629334,-0.774490,0.389118,0.235361,-0.439728,0.765683,-0.239649,0.394834
1173,1491662668,-0.778722,0.389178,0.233517,-0.433136,0.351635,-0.656626,-0.053936
1174,1491696002,-0.781478,0.388148,0.234172,-0.428719,0.940645,0.672740,-0.214493
1175,1491729336,-0.784798,0.388443,0.231893,-0.423596,0.481452,0.677145,0.405442
1176,1491762670,-0.788541,0.389632,0.229073,-0.417036,0.515544,0.158407,-0.134110
1177,1491796004,-0.792722,0.390818,0.226373,-0.409404,0.212098,-0.395774,-0.196775
1178,1491829338,-0.797039,0.391011,0.225035,-0.401499,0.036685,0.255246,0.238267
1179,1491862672,-0.801375,0.391856,0.223672,-0.392709,0.861593,-0.050781,-0.998246
1180,1491896006,-0.805270,0.395434,0.220810,-0.382648,0.022962,1.002699,1.264049
1181,1491929340,-0.809379,0.399071,0.216438,-0.372568,0.134192,0.867956,0.392547
1182,1491962674,-0.813778,0.403786,0.209926,-0.361466,-0.094387,0.830010,1.085581
1183,1491996008,-0.818488,0.407459,0.203880,-0.349988,0.817471,0.420182,0.254622
1184,1492029342,-0.822779,0.410266,0.199119,-0.339223,0.532253,-0.561799,-0.524904
1185,1492062676,-0.826922,0.411261,0.195083,-0.330170,-0.265638,0.018117,-0.123974
1186,1492096010,-0.831650,0.410023,0.191744,-0.321680,0.349902,-0.616622,-0.128338
1187,1492129344,-0.836701,0.407142,0.191128,-0.312474,0.785903,-0.450283,-0.615582
1188,1492162678,-0.842682,0.402758,0.189406,-0.302988,0.436825,-0.330227,0.106761
1189,1492196012,-0.848295,0.397766,0.190066,-0.293354,0.446592,-0.306400,-0.582353
1190,1492229346,-0.853450,0.392718,0.192077,-0.283736,-0.203245,-0.085283,0.451880
1191,1492262680,-0.858954,0.386757,0.193957,-0.273863,-0.229303,0.451707,0.923684
1192,1492296014,-0.863426,0.381144,0.197416,-0.265056,0.465438,-0.370130,0.023272
1193,1492329348,-0.866977,0.377800,0.200865,-0.255492,1.099713,1.223675,1.364719
1194,1492362682,-0.869428,0.377100,0.203626,-0.245826,0.024536,0.490175,0.708104
1195,1492396016,-0.870684,0.378583,0.206454,-0.236568,0.503176,0.619875,1.308260
1196,1492429350,-0.872030,0.381249,0.207200,-0.226460,0.016563,-0.720705,-0.391299
1197,1492462684,-0.873501,0.384458,0.206220,-0.216019,0.282382,-0.908837,-0.648097
1198,1492496018,-0.875227,0.387443,0.204411,-0.205147,0.677471,-0.458941,-0.532283
1199,1492529352,-0.876446,0.390547,0.202815,-0.195408,1.098293,-0.124594,0.275307
1200,1492562686,-0.877595,0.393728,0.200182,-0.186376,1.019168,0.496473,1.225934
1201,1492596020,-0.878250,0.396238,0.198716,-0.179413,0.555303,0.391185,1.244740
1202,1492629354,-0.878703,0.397957,0.197317,-0.174874,0.102789,-0.406606,0.109275
1203,1492662688,-0.878563,0.400056,0.196610,-0.171555,0.410242,-0.305920,0.253942
1204,1492696022,-0.878558,0.402107,0.195457,-0.168065,0.501948,-0.697405,-0.892120
1205,1492729356,-0.878194,0.404673,0.194853,-0.164471,0.761514,-0.268387,-0.195194
1206,1492762690,-0.878667,0.407201,0.190952,-0.160226,0.929244,0.022550,-0.102551
1207,1492796024,-0.879462,0.409009,0.186485,-0.156475,-0.168595,-0.579898,-0.039633
1208,1492829358,-0.879705,0.409744,0.184918,-0.155041,0.418428,-0.335043,-0.312333
1209,1492862692,-0.879999,0.410810,0.182484,-0.153426,0.831246,0.277946,0.003841
1210,1492896026,-0.880209,0.412567,0.179352,-0.151186,-0.690745,0.298087,0.444085
1211,1492929360,-0.880210,0.412968,0.178679,-0.150884,-0.143082,0.338051,0.397846
1212,1492962694,-0.880989,0.412535,0.176660,-0.149894,0.408732,0.291291,-0.062117
1213,1492996028,-0.881545,0.412502,0.174517,-0.149222,-0.931430,-1.163592,-0.616681
1214,1493029362,-0.880909,0.412263,0.176642,-0.151127,0.897298,0.053591,0.086297
1215,1493062696,-0.881365,0.411346,0.175748,-0.152008,0.547734,0.259966,0.836147
1216,1493096030,-0.881680,0.408069,0.179518,-0.154589,0.273454,0.265404,0.331465
1217,1493129364,-0.881271,0.405081,0.184115,-0.159301,0.289378,0.352381,0.081978
1218,1493162698,-0.880729,0.403698,0.185396,-0.164243,0.589940,0.043900,0.507550
1219,1493196032,-0.879647,0.402592,0.188738,-0.168889,0.593602,0.531909,0.868152
1220,1493229366,-0.877633,0.402790,0.192803,-0.174215,-0.587441,-0.510716,0.067814
1221,1493262700,-0.874148,0.405141,0.197442,-0.180959,-0.177168,0.100608,-0.267958
1222,1493296034,-0.870164,0.410550,0.198877,-0.186318,0.144017,0.672048,0.047469
1223,1493329368,-0.866960,0.417818,0.194942,-0.189231,0.051414,-0.497467,0.183142
1224,1493362702,-0.863807,0.424734,0.190734,-0.192518,0.193524,-0.785063,0.367933
1225,1493396036,-0.860546,0.430499,0.187340,-0.197581,0.325357,-0.361198,-0.240332
1226,1493429370,-0.857180,0.434529,0.185704,-0.204807,0.966531,0.099396,0.202296
1227,1493462704,-0.853841,0.436523,0.186725,-0.213400,0.977230,0.261526,-0.425773
1228,1493496038,-0.850711,0.438804,0.185943,-0.221744,0.221499,-1.176445,-0.255300
1229,1493529372,-0.847357,0.440539,0.187637,-0.229581,0.535895,0.564258,0.644012
1230,1493562706,-0.844646,0.440836,0.189755,-0.237138,0.151978,0.341787,0.820464
1231,1493596040,-0.842770,0.441024,0.190000,-0.243187,-0.191492,0.056260,0.606269
1232,1493629374,-0.841780,0.440489,0.189053,-0.248270,-0.247886,-0.494112,-0.258795
1233,1493662708,-0.840831,0.439782,0.189040,-0.252711,-0.326703,-0.275926,0.475674
1234,1493696042,-0.840253,0.438128,0.189643,-0.257018,0.158007,-0.294817,-0.357697
1235,1493729376,-0.840413,0.435128,0.190528,-0.260907,-0.311729,-0.604043,0.269514
1236,1493762710,-0.840699,0.430351,0.195175,-0.264450,0.800541,0.474844,-0.352190
1237,1493796044,-0.841566,0.426847,0.197107,-0.265933,0.366897,-0.614286,-0.607869
1238,1493829378,-0.842818,0.422910,0.199153,-0.266731,-0.249914,-0.333651,-0.081326
1239,1493862712,-0.843608,0.418072,0.204242,-0.268012,-0.381117,0.101267,0.171194
1240,1493896046,-0.844893,0.412550,0.208676,-0.269105,0.265340,0.196503,-0.021710
1241,1493929380,-0.846993,0.406573,0.212585,-0.268538,-0.543724,-0.623059,-0.144103
1242,1493962714,-0.849216,0.399919,0.217792,-0.267334,0.041460,-0.079363,-0.024623
1243,1493996048,-0.851863,0.393457,0.222070,-0.264970,0.076231,0.017278,0.331336
1244,1494029382,-0.854862,0.386422,0.226333,-0.262041,-0.496384,-0.014722,0.664281
1245,1494062716,-0.857358,0.378299,0.232498,-0.260336,0.290639,-0.021421,-0.541401
1246,1494096050,-0.858869,0.372550,0.238526,-0.258184,0.217022,0.204406,0.390377
1247,1494129384,-0.860068,0.367909,0.244491,-0.255253,0.220466,0.575680,0.782543
1248,1494162718,-0.860304,0.364966,0.251225,-0.252125,0.342016,0.901594,1.091536
1249,1494196052,-0.859981,0.366098,0.255426,-0.247317,0.513264,0.344949,1.275052
1250,1494229386,-0.859433,0.368885,0.259321,-0.240946,-0.229696,0.216675,0.522985
1251,1494262720,-0.858791,0.371955,0.263163,-0.234259,0.248510,-0.320647,0.215481
1252,1494296054,-0.858356,0.376064,0.265567,-0.226445,0.256201,-0.694168,-0.599280
1253,1494329388,-0.858687,0.380454,0.265995,-0.217170,0.011320,-0.512175,0.107687
1254,1494362722,-0.859607,0.383620,0.265774,-0.208040,0.398703,-0.278732,-0.450681
1255,1494396056,-0.860921,0.387003,0.264000,-0.198372,0.783026,-0.133572,0.110335
1256,1494429390,-0.861842,0.390531,0.261592,-0.190491,1.061242,-0.031901,-0.007434
1257,1494462724,-0.862080,0.393509,0.259691,-0.185832,0.595020,0.364304,1.178926
1258,1494496058,-0.861696,0.396592,0.258075,-0.183295,1.373667,0.230145,0.281265
1259,1494529392,-0.860266,0.400013,0.257770,-0.183001,0.069482,0.212403,-0.104496
1260,1494562726,-0.859465,0.403570,0.254250,-0.183878,-0.663601,-0.912898,-0.080906
1261,1494596060,-0.858223,0.406325,0.252946,-0.185404,0.171397,-0.707568,-0.356978
1262,1494629394,-0.858018,0.408280,0.250979,-0.184732,0.975027,-0.510781,-0.776845
1263,1494662728,-0.858706,0.409735,0.248011,-0.182304,0.133956,0.053925,0.137437
1264,1494696062,-0.860181,0.409695,0.244349,-0.180377,0.300741,-1.191133,-0.406593
1265,1494729396,-0.860941,0.407432,0.245317,-0.180564,0.232622,0.349278,0.126672
1266,1494762730,-0.862291,0.403980,0.245313,-0.181880,-0.325455,-0.249752,0.473701
1267,1494796064,-0.863015,0.399458,0.247623,-0.185268,0.043942,-0.066451,0.093674
1268,1494829398,-0.863733,0.394520,0.250148,-0.189073,0.561490,-0.031646,-0.268839
1269,1494862732,-0.864477,0.390149,0.252318,-0.191838,0.529963,0.115728,0.588769
1270,1494896066,-0.865360,0.385427,0.254754,-0.194172,0.105702,-0.102768,-0.146930
1271,1494929400,-0.865451,0.381630,0.257988,-0.196974,0.353431,0.071974,0.214377
1272,1494962734,-0.865379,0.379458,0.259765,-0.199139,0.666492,0.382609,0.128907
1273,1494996068,-0.865285,0.378967,0.259256,-0.201137,-0.128095,0.145739,1.350159
1274,1495029402,-0.862758,0.379880,0.262480,-0.206029,0.653315,0.724177,-0.200528
1275,1495062736,-0.858947,0.385224,0.261891,-0.212674,-0.492300,0.026204,0.722094
1276,1495096070,-0.853531,0.390851,0.263691,-0.221793,-0.493326,0.018374,-0.865357
1277,1495129404,-0.848167,0.398699,0.263932,-0.228025,2.179318,0.336811,-0.710451
1278,1495162738,-0.846110,0.409361,0.255222,-0.226685,0.656068,-1.406472,-0.582160
1279,1495196072,-0.844686,0.418136,0.246650,-0.225470,-0.598090,-0.850564,0.323525
1280,1495229406,-0.843571,0.421040,0.242184,-0.229050,-0.465329,-0.510667,1.412092
1281,1495262740,-0.842157,0.418400,0.243768,-0.237261,0.916963,0.198313,-0.006969
1282,1495296074,-0.841219,0.415003,0.244522,-0.245634,-0.240215,-0.673850,0.179721
1283,1495329408,-0.839859,0.412936,0.244693,-0.253475,0.134180,0.216085,-0.012048
1284,1495362742,-0.838542,0.412848,0.242467,-0.260033,-0.868323,-0.110857,0.829547
1285,1495396076,-0.836997,0.411814,0.241853,-0.267127,-0.747638,-0.297287,0.594533
1286,1495429410,-0.835608,0.410356,0.241553,-0.273904,0.548262,-0.642439,-0.684952
1287,1495462744,-0.835130,0.410567,0.239604,-0.276742,0.358711,-0.611099,0.052967
1288,1495496078,-0.835460,0.408835,0.238682,-0.279095,0.548356,-1.197082,-0.226701
1289,1495529412,-0.836156,0.405178,0.240790,-0.280531,0.148381,-0.293828,-0.232833
1290,1495562746,-0.837747,0.400268,0.242999,-0.280929,-0.197390,-0.404564,0.622033
1291,1495596080,-0.839255,0.394420,0.246981,-0.281228,-0.486148,-0.092484,-0.756809
1292,1495629414,-0.840537,0.388475,0.251096,-0.282027,-0.487035,0.247056,1.057603
1293,1495662748,-0.842254,0.382708,0.254628,-0.281622,0.110293,0.562632,0.012627
1294,1495696082,-0.844718,0.378405,0.255901,-0.278890,0.072417,-0.094701,-0.190522
1295,1495729416,-0.847842,0.374685,0.256658,-0.273689,-0.067993,-0.236955,0.437486
1296,1495762750,-0.851337,0.369084,0.258937,-0.268250,-0.040115,-0.762939,-0.373113
1297,1495796084,-0.853896,0.363246,0.263503,-0.263598,0.219673,-0.263093,-0.367183
1298,1495829418,-0.855499,0.358253,0.268867,-0.259791,0.336936,0.491587,0.111928
1299,1495862752,-0.856471,0.354478,0.274458,-0.255889,-0.258813,1.138070,1.644577
1300,1495896086,-0.856483,0.352270,0.280001,-0.252873,-0.189351,-1.010976,0.133373
1301,1495929420,-0.855620,0.353812,0.284358,-0.248748,0.327506,0.639741,0.318403
1302,1495962754,-0.855036,0.356935,0.286186,-0.244158,-0.159996,-0.148772,0.808187
1303,1495996088,-0.854126,0.360569,0.288425,-0.239317,1.031898,0.206503,0.405986
1304,1496029422,-0.853712,0.364744,0.289145,-0.233530,0.118836,-1.066789,-1.249716
1305,1496062756,-0.853552,0.367510,0.290483,-0.228052,-0.252069,-0.818045,0.188895
1306,1496096090,-0.853644,0.368433,0.292335,-0.223816,1.355327,-0.074179,-0.975139
1307,1496129424,-0.854707,0.370330,0.290709,-0.218686,0.652793,-0.773071,1.177389
1308,1496162758,-0.855180,0.372831,0.289058,-0.214741,0.697763,0.309455,-0.247834
1309,1496196092,-0.855577,0.376580,0.284641,-0.212504,0.143618,0.221477,2.120307
1310,1496229426,-0.854304,0.378878,0.284722,-0.213432,1.394663,0.449437,-0.277174
1311,1496262760,-0.853641,0.383536,0.280192,-0.213761,-0.500936,-0.728901,0.261757
1312,1496296094,-0.853252,0.388729,0.275064,-0.212591,0.246181,-0.455423,-0.060279
1313,1496329428,-0.853383,0.392932,0.269407,-0.211578,-0.554146,-0.685456,-0.588615
1314,1496362762,-0.853917,0.396336,0.263640,-0.210336,0.870839,-0.191699,0.306260
1315,1496396096,-0.854730,0.397491,0.260666,-0.208553,0.489720,-0.369919,-0.629977
1316,1496429430,-0.855350,0.397846,0.258817,-0.207636,0.180150,0.070370,0.640770
1317,1496462764,-0.855942,0.395758,0.259068,-0.208871,-0.522044,-0.450305,0.054722
1318,1496496098,-0.856008,0.393000,0.260729,-0.211719,-0.351279,-0.960888,-0.035712
1319,1496529432,-0.855928,0.390521,0.262281,-0.214695,0.106240,0.034465,-0.451326
1320,1496562766,-0.856614,0.388061,0.261740,-0.217064,-0.109159,0.309901,0.839502
1321,1496596100,-0.857257,0.385701,0.261390,-0.219146,0.412607,0.446977,0.198199
1322,1496629434,-0.858503,0.384159,0.258632,-0.220244,0.034538,0.366736,0.544744
1323,1496662768,-0.859279,0.383511,0.255899,-0.221537,0.241957,0.398055,0.228863
1324,1496696102,-0.859792,0.383752,0.252145,-0.223423,0.363780,0.094652,0.626695
1325,1496729436,-0.858995,0.385729,0.250065,-0.225414,0.068731,0.824323,0.450220
1326,1496762770,-0.857160,0.388392,0.248883,-0.229106,-0.014705,0.216061,0.816464
1327,1496796104,-0.854227,0.391886,0.248615,-0.234342,0.220295,0.107680,0.838559
1328,1496829438,-0.851683,0.396941,0.245869,-0.237962,0.669573,0.203301,-0.047542
1329,1496862772,-0.850298,0.403523,0.239187,-0.238657,0.567150,-0.276631,-0.141455
1330,1496896106,-0.849915,0.409079,0.231544,-0.238095,0.870983,-0.656235,-0.322472
1331,1496929440,-0.849072,0.413077,0.226445,-0.239104,0.463326,-0.706870,-0.482488
1332,1496962774,-0.848166,0.412875,0.224649,-0.244305,0.461931,-1.262902,-0.391442
1333,1496996108,-0.846897,0.410946,0.225488,-0.251093,1.222420,-0.095639,0.443068
1334,1497029442,-0.845633,0.409315,0.225819,-0.257635,0.864612,-0.261937,-0.282477
1335,1497062776,-0.844043,0.408732,0.225854,-0.263673,-0.314680,0.271771,0.681656
1336,1497096110,-0.842149,0.407698,0.225981,-0.271115,-0.350329,-0.425254,0.010408
1337,1497129444,-0.840308,0.408303,0.224506,-0.277079,-0.241630,-0.434758,-0.041051
1338,1497162778,-0.838850,0.411180,0.221097,-0.279968,-0.014213,-0.054183,0.299898
1339,1497196112,-0.838314,0.413949,0.216982,-0.280709,-0.172601,-0.307385,0.343980
1340,1497229446,-0.838524,0.415443,0.213978,-0.280182,0.082263,-0.408342,-0.310771
1341,1497262780,-0.838953,0.416608,0.211897,-0.278744,-0.142674,-0.449296,-0.062123
1342,1497296114,-0.839705,0.417007,0.210317,-0.277078,-0.016105,0.092621,-0.033291
1343,1497329448,-0.840464,0.417016,0.209264,-0.275555,-0.330611,-0.204399,0.624758
1344,1497362782,-0.841372,0.415336,0.210986,-0.274003,0.511324,0.591652,-0.598604
1345,1497396116,-0.842543,0.413963,0.212243,-0.271502,-0.720200,-0.644181,0.453758
1346,1497429450,-0.844043,0.412595,0.213423,-0.267975,0.616208,0.336155,-0.992422
1347,1497462784,-0.846350,0.412063,0.212401,-0.262270,-0.563494,-0.477900,0.587286
1348,1497496118,-0.848913,0.408812,0.214965,-0.256932,0.503536,0.539532,0.428633
1349,1497529452,-0.852206,0.404342,0.217240,-0.251123,-0.089579,-0.004781,0.535583
1350,1497562786,-0.855484,0.399424,0.220224,-0.245179,-0.139853,-0.431474,0.091501
1351,1497596120,-0.858217,0.394416,0.223898,-0.240360,0.558125,-0.417009,-0.693653
1352,1497629454,-0.859228,0.391636,0.229600,-0.235874,1.250731,0.404156,-0.183586
1353,1497662788,-0.860004,0.393754,0.229618,-0.229415,0.307708,0.467497,0.415785
1354,1497696122,-0.859049,0.396723,0.231856,-0.225594,-0.766987,0.446783,1.827791
1355,1497729456,-0.857466,0.397884,0.237853,-0.223318,-0.029963,0.382752,1.379662
1356,1497762790,-0.858020,0.397635,0.240772,-0.218451,-0.161929,-0.123353,0.409866
1357,1497796124,-0.860103,0.397021,0.240757,-0.211275,0.443631,-1.595066,-1.046139
1358,1497829458,-0.861973,0.395563,0.242616,-0.204141,0.967450,-0.636631,-0.700055
1359,1497862792,-0.863943,0.394630,0.243257,-0.196722,1.474147,-0.331613,-0.339133
1360,1497896126,-0.864922,0.393996,0.245134,-0.191284,0.953084,-0.490307,0.781804
1361,1497929460,-0.864835,0.391861,0.249308,-0.190670,0.544747,0.210064,0.921879
1362,1497962794,-0.864139,0.389657,0.253456,-0.192859,1.261470,-0.071249,0.601105
1363,1497996128,-0.863250,0.388402,0.256837,-0.194891,0.814877,0.633864,0.461134
1364,1498029462,-0.863478,0.388159,0.255601,-0.195986,-1.108265,-1.342358,-0.031168
1365,1498062796,-0.863155,0.385934,0.258125,-0.198477,0.734486,-0.404155,-0.449660
1366,1498096130,-0.862440,0.385479,0.260064,-0.199935,1.236590,-0.581762,-1.279307
1367,1498129464,-0.862272,0.389633,0.254954,-0.199186,0.289789,-0.641809,-0.607105
1368,1498162798,-0.862460,0.393617,0.248884,-0.198213,0.090453,0.098635,0.886189
1369,1498196132,-0.862592,0.393685,0.248012,-0.198597,0.080055,0.222681,0.811101
1370,1498229466,-0.862503,0.392558,0.248613,-0.200454,0.080639,-0.387517,-0.474923
1371,1498262800,-0.862594,0.392189,0.247675,-0.201941,-0.491178,-0.134003,0.664810
1372,1498296134,-0.862660,0.390459,0.248295,-0.204236,0.003005,0.483202,0.511949
1373,1498329468,-0.862894,0.388059,0.248963,-0.206990,-0.143624,-0.354537,-0.179012
1374,1498362802,-0.863333,0.386360,0.248390,-0.209017,0.517199,0.229368,-0.296540
1375,1498396136,-0.863764,0.385707,0.246770,-0.210357,0.209731,-0.462191,0.152986
1376,1498429470,-0.864064,0.383620,0.247716,-0.211824,0.335741,0.659647,-0.170478
1377,1498462804,-0.864704,0.382509,0.246140,-0.213058,-0.464435,0.354433,0.972933
1378,1498496138,-0.865369,0.381771,0.243909,-0.214244,0.439551,0.316163,-0.091347
1379,1498529472,-0.865871,0.382833,0.239857,-0.214892,0.011728,0.109395,0.569617
1380,1498562806,-0.866079,0.384362,0.235428,-0.216219,-0.094556,0.428958,0.603879
1381,1498596140,-0.865321,0.385705,0.233182,-0.219274,0.122650,0.061666,0.368708
1382,1498629474,-0.864008,0.388748,0.230076,-0.222339,0.146063,-0.082014,0.398032
1383,1498662808,-0.862224,0.393886,0.226817,-0.223564,0.029199,0.388297,0.553326
1384,1498696142,-0.860917,0.398950,0.222299,-0.224160,-0.073876,-0.699581,-0.594376
1385,1498729476,-0.859673,0.405056,0.215952,-0.224185,0.204110,-0.370073,0.155633
1386,1498762810,-0.858795,0.409860,0.209578,-0.224871,0.839209,-0.232179,0.918406
1387,1498796144,-0.858681,0.411595,0.205329,-0.226054,1.194872,-0.018977,-0.076900
1388,1498829478,-0.859446,0.412281,0.199639,-0.226990,0.513889,-0.804417,-0.314985
1389,1498862812,-0.859967,0.411942,0.195571,-0.229164,0.661908,-0.468879,0.071684
1390,1498896146,-0.860738,0.411531,0.190960,-0.230889,0.797470,-0.813693,0.024661
1391,1498929480,-0.861326,0.412102,0.186303,-0.231485,1.835739,0.181639,-0.089151
1392,1498962814,-0.861953,0.414498,0.180251,-0.229657,0.665790,-0.326047,0.460060
1393,1498996148,-0.862919,0.416543,0.174430,-0.226804,0.855366,-0.128387,0.591103
1394,1499029482,-0.864812,0.419357,0.166113,-0.220566,0.843459,-0.391035,0.017722
1395,1499062816,-0.866672,0.422263,0.159169,-0.212702,0.319704,-1.364972,-0.957428
1396,1499096150,-0.867260,0.426081,0.155277,-0.205445,0.518139,-0.786251,-0.979828
1397,1499129484,-0.867125,0.431677,0.150223,-0.197954,-0.374300,-0.612857,-0.558264
1398,1499162818,-0.866218,0.436414,0.148261,-0.192955,-2.106890,-0.071396,0.576451
1399,1499196152,-0.863870,0.438312,0.152821,-0.195603,-1.739800,-0.574748,-0.671937
1400,1499229486,-0.860194,0.442208,0.156985,-0.199695,0.475503,1.110795,0.175991
1401,1499262820,-0.857710,0.446266,0.157505,-0.200937,-0.257536,0.388396,1.330692
1402,1499296154,-0.856101,0.447057,0.160991,-0.203265,-0.536144,-1.199008,0.355824
1403,1499329488,-0.855041,0.448493,0.162178,-0.203622,1.425273,0.010180,-0.039982
1404,1499362822,-0.855333,0.450380,0.159627,-0.200217,0.109618,-0.208796,0.511783
1405,1499396156,-0.855933,0.449293,0.161815,-0.198327,0.124735,-0.253215,0.116692
1406,1499429490,-0.856832,0.447294,0.164689,-0.196592,0.269073,-0.142084,-0.240722
1407,1499462824,-0.857883,0.445640,0.166574,-0.194160,-0.117126,-0.062546,0.218874
1408,1499496158,-0.859114,0.443494,0.168707,-0.191776,-0.294437,-0.084356,-0.108912
1409,1499529492,-0.860456,0.441759,0.169950,-0.188640,-0.076101,-0.087734,-0.017673
1410,1499562826,-0.861970,0.440342,0.170385,-0.184605,0.031098,-0.071470,0.285533
1411,1499596160,-0.863663,0.438850,0.170761,-0.179838,0.016748,0.175698,0.816300
1412,1499629494,-0.865169,0.437397,0.171662,-0.175219,0.251933,0.106737,0.104358
1413,1499662828,-0.866334,0.436701,0.172009,-0.170805,0.326742,0.228541,0.581255
1414,1499696162,-0.867520,0.436048,0.171611,-0.166809,0.086383,0.096795,0.645221
1415,1499729496,-0.868293,0.435267,0.172186,-0.164212,0.151854,-0.228572,0.224032
1416,1499762830,-0.868928,0.434972,0.172155,-0.161649,0.043187,-0.936384,-0.321584
1417,1499796164,-0.869508,0.435330,0.171610,-0.158106,-0.180189,-0.703301,-0.503571
1418,1499829498,-0.870268,0.435540,0.170900,-0.154063,-0.275916,-0.164789,0.101542
1419,1499862832,-0.871171,0.435578,0.169725,-0.150102,-0.017424,-0.219740,0.178737
1420,1499896166,-0.872148,0.436132,0.167051,-0.145754,0.179408,-0.416024,0.333838
1421,1499929500,-0.873150,0.436932,0.163986,-0.140755,0.522901,0.176607,0.513288
1422,1499962834,-0.874027,0.438156,0.160172,-0.135810,-0.071031,0.161407,0.604016
1423,1499996168,-0.874899,0.438959,0.156259,-0.132113,-0.312433,-0.736610,-0.013253
1424,1500029502,-0.875718,0.439880,0.152115,-0.128407,0.488293,0.086990,0.454570
1425,1500062836,-0.876578,0.440688,0.147817,-0.124736,0.610568,0.003704,0.328509
1426,1500096170,-0.877707,0.440800,0.143617,-0.121257,0.668023,-0.251198,0.360205
1427,1500129504,-0.878649,0.440963,0.139902,-0.118152,0.605470,-0.425325,-0.302877
1428,1500162838,-0.879578,0.440922,0.136601,-0.115214,0.744119,-0.302882,0.261675
1429,1500196172,-0.880715,0.440081,0.134497,-0.112183,0.579137,-0.409905,0.313766
1430,1500229506,-0.881752,0.438665,0.133896,-0.110286,0.107985,-0.763748,-0.500990
1431,1500262840,-0.882291,0.438288,0.132213,-0.109501,0.346840,-0.296015,0.168410
1432,1500296174,-0.882917,0.437491,0.130942,-0.109170,0.446710,0.027345,0.511395
1433,1500329508,-0.883915,0.435721,0.130524,-0.108667,0.345467,-0.164556,0.164897
1434,1500362842,-0.884883,0.434647,0.128635,-0.107333,0.327446,-0.195581,-0.042711
1435,1500396176,-0.885794,0.434258,0.125356,-0.105258,0.307382,-0.181005,0.311292
1436,1500429510,-0.886721,0.434419,0.120968,-0.101864,0.893440,0.353479,0.357137
1437,1500462844,-0.887403,0.436695,0.111898,-0.096419,0.447702,0.548073,0.675370
1438,1500496178,-0.888157,0.439253,0.099876,-0.090904,0.132691,0.920207,0.988215
1439,1500529512,-0.889039,0.440870,0.088463,-0.086149,0.127574,-0.528211,-0.545447
1440,1500562846,-0.889067,0.444612,0.074323,-0.079747,1.000322,-1.497541,-1.370698
1441,1500596180,-0.888288,0.449540,0.060347,-0.072250,0.489050,-0.873079,0.145941
1442,1500629514,-0.887704,0.452315,0.053617,-0.067245,0.674188,-0.352881,0.406210
1443,1500662848,-0.887531,0.453595,0.050507,-0.063188,-0.136079,-0.176398,-0.272358
1444,1500696182,-0.887040,0.455653,0.045011,-0.059307,0.002450,0.363317,0.031302
1445,1500729516,-0.886822,0.456844,0.040908,-0.056301,-0.296006,0.925442,0.859599
1446,1500762850,-0.887501,0.456040,0.038977,-0.053413,-0.227022,0.630512,0.250988
1447,1500796184,-0.888589,0.454686,0.035080,-0.049431,-0.281158,0.112013,-0.417519
1448,1500829518,-0.889521,0.453599,0.031359,-0.044951,-0.176197,0.330048,0.302660
1449,1500862852,-0.890360,0.452447,0.029959,-0.040698,-0.273356,0.439041,0.155896
1450,1500896186,-0.890937,0.452086,0.025048,-0.035011,-0.090265,0.560987,0.051311
1451,1500929520,-0.891252,0.452224,0.019203,-0.028257,-0.066853,0.443932,0.596358
1452,1500962854,-0.891539,0.452317,0.012512,-0.020339,-0.054014,-0.049672,-0.078121
1453,1500996188,-0.891315,0.453196,0.005881,-0.011868,0.305946,0.104377,0.098429
1454,1501029522,-0.891015,0.453973,-0.000909,-0.001925,0.640342,-0.027947,0.045246
1455,1501062856,-0.890357,0.455071,-0.009692,0.009222,-0.505842,0.180875,0.386578
1456,1501096190,-0.889777,0.455661,-0.017178,0.019475,-0.336105,0.082681,0.057981
1457,1501129524,-0.889276,0.455884,-0.022941,0.028923,-0.013073,-0.517745,-0.022207
1458,1501162858,-0.888358,0.456669,-0.028134,0.038544,-0.572087,-0.124551,-0.330579
1459,1501196192,-0.887182,0.457907,-0.032559,0.046619,-0.164347,0.632039,0.612746
1460,1501229526,-0.885974,0.458815,-0.038915,0.055033,0.018215,0.399458,0.585086
1461,1501262860,-0.884379,0.459906,-0.047034,0.064438,0.297067,0.327118,0.935839
1462,1501296194,-0.882744,0.461127,-0.053252,0.072755,0.036813,0.157116,0.350338
1463,1501329528,-0.880570,0.463319,-0.059217,0.080181,-0.371199,-0.315462,-0.208566
1464,1501362862,-0.877774,0.465960,-0.067217,0.088764,-0.179788,-0.175120,-0.127038
1465,1501396196,-0.874511,0.468728,-0.076526,0.098351,-0.224613,0.005703,0.463361
1466,1501429530,-0.871491,0.470633,-0.085630,0.108071,0.077054,-0.457754,0.272643
