sep=,
DeviceTag:,23_Right
FirmwareVersion:,2.2.1
AppVersion:,2023.6.0
SyncStatus:,Synced
OutputRate:,30Hz
FilterProfile:,General
Measurement Mode:,Sensor fusion Mode - Complete(Quaternion)
StartTime: ,2026-05-27_14:58:38_208 AEST
© Movella Technologies B. V. 2005-2026

PacketCounter,SampleTimeFine,Quat_W,Quat_X,Quat_Y,Quat_Z,FreeAcc_X,FreeAcc_Y,FreeAcc_Z
1,2786597261,0.829621,-0.553735,-0.071633,0.002552,0.040745,0.088735,0.158763
2,2786630595,0.829599,-0.553785,-0.071503,0.002376,-0.016085,0.020032,0.104468
3,2786663929,0.829619,-0.553792,-0.071224,0.002206,-0.016215,-0.062024,0.088436
4,2786697263,0.829518,-0.553953,-0.071155,0.001825,-0.052207,-0.071579,0.112597
5,2786730597,0.829465,-0.554026,-0.071209,0.001841,-0.032159,0.081229,0.111774
6,2786763931,0.829436,-0.554077,-0.071146,0.001850,-0.055621,0.030771,0.107491
7,2786797265,0.829341,-0.554206,-0.071250,0.001982,-0.014811,0.000348,0.090092
8,2786830599,0.829212,-0.554382,-0.071383,0.001953,-0.010589,-0.010614,0.116148
9,2786863933,0.829176,-0.554420,-0.071497,0.002165,0.042193,0.000853,0.079292
10,2786897267,0.829170,-0.554444,-0.071383,0.002041,-0.052555,-0.023891,0.087809
11,2786930601,0.829090,-0.554551,-0.071480,0.002028,-0.099190,0.010890,0.147112
12,2786963935,0.829091,-0.554560,-0.071405,0.002050,0.015971,-0.028089,0.073956
13,2786997269,0.829048,-0.554599,-0.071588,0.002371,0.084600,0.044891,0.080417
14,2787030603,0.828987,-0.554685,-0.071638,0.002030,-0.119432,-0.018796,0.144150
15,2787063937,0.829027,-0.554643,-0.071501,0.001963,0.067592,-0.035102,0.028605
16,2787097271,0.829023,-0.554657,-0.071447,0.001839,0.064717,0.027811,0.095285
17,2787130605,0.829089,-0.554565,-0.071393,0.001817,-0.118026,-0.013375,0.112106
18,2787163939,0.829121,-0.554515,-0.071402,0.001871,0.049193,0.124693,0.115124
19,2787197273,0.829102,-0.554539,-0.071444,0.001793,-0.039085,-0.076185,0.074261
20,2787230607,0.829061,-0.554589,-0.071533,0.001666,-0.017629,0.046952,0.091979
21,2787263941,0.829110,-0.554525,-0.071463,0.001692,-0.007829,-0.059313,0.091198
22,2787297275,0.829120,-0.554525,-0.071354,0.001655,-0.031176,0.004838,0.094625
23,2787330609,0.829092,-0.554550,-0.071477,0.001623,-0.097063,-0.011320,0.145834
24,2787363943,0.829157,-0.554449,-0.071506,0.001916,0.054690,0.025096,0.103126
25,2787397277,0.829112,-0.554508,-0.071549,0.002213,-0.050165,-0.059893,0.103633
26,2787430611,0.829034,-0.554590,-0.071818,0.002334,-0.130102,-0.015664,0.129446
27,2787463945,0.828963,-0.554636,-0.072256,0.003009,0.102087,0.067162,0.012620
28,2787497279,0.828829,-0.554753,-0.072853,0.003834,-0.019184,-0.017683,0.125236
29,2787530613,0.828724,-0.554848,-0.073288,0.004449,-0.103311,0.051264,0.136289
30,2787563947,0.828618,-0.554974,-0.073514,0.004769,0.028371,0.017456,0.074198
31,2787597281,0.828633,-0.554944,-0.073560,0.004911,0.111540,-0.023157,0.073581
32,2787630615,0.828654,-0.554911,-0.073565,0.005083,-0.098930,0.051432,0.144985
33,2787663949,0.828668,-0.554919,-0.073334,0.005192,0.037700,0.029478,0.069075
34,2787697283,0.828601,-0.555052,-0.073102,0.004953,-0.057246,-0.045524,0.133658
35,2787730617,0.828576,-0.555085,-0.073126,0.005089,0.058584,0.050638,0.105811
36,2787763951,0.828518,-0.555202,-0.072892,0.005038,-0.059479,0.042803,0.104849
37,2787797285,0.828546,-0.555196,-0.072613,0.005159,-0.075175,-0.042153,0.066665
38,2787830619,0.828503,-0.555267,-0.072556,0.005293,0.077239,0.050446,0.105057
39,2787863953,0.828478,-0.555333,-0.072328,0.005299,-0.088319,0.004278,0.078038
40,2787897287,0.828479,-0.555383,-0.071939,0.005278,-0.014289,-0.014556,0.097277
41,2787930621,0.828508,-0.555391,-0.071553,0.005054,0.073177,0.076137,0.119714
42,2787963955,0.828549,-0.555414,-0.070939,0.004556,-0.087182,0.035215,0.054266
43,2787997289,0.828638,-0.555378,-0.070203,0.004203,0.170577,0.265183,0.080405
44,2788030623,0.828708,-0.555487,-0.068544,0.003225,-0.129362,0.114567,0.170695
45,2788063957,0.828940,-0.555321,-0.067079,0.002958,-0.025768,-0.015368,0.132936
46,2788097291,0.829109,-0.555204,-0.065964,0.002690,0.137237,0.192228,-0.069208
47,2788130625,0.828807,-0.555517,-0.067071,0.003407,0.071167,0.289195,-0.094721
48,2788163959,0.828206,-0.555965,-0.070499,0.006260,-0.180117,-0.192980,0.091851
49,2788197293,0.828068,-0.555759,-0.073339,0.009415,-0.309568,0.061566,0.145361
50,2788230627,0.827717,-0.555872,-0.076077,0.011611,-0.076460,0.287939,0.193298
51,2788263961,0.827114,-0.556553,-0.077628,0.011658,-0.208007,0.378256,0.242028
52,2788297295,0.826522,-0.557383,-0.078051,0.011160,-0.164251,0.142330,0.129873
53,2788330629,0.826073,-0.557940,-0.078824,0.011151,-0.055503,-0.054815,0.112117
54,2788363963,0.825986,-0.557938,-0.079743,0.011135,0.059314,0.025534,-0.153144
55,2788397297,0.825626,-0.558158,-0.081838,0.011595,-0.393617,0.195586,0.174636
56,2788430631,0.825251,-0.558119,-0.085608,0.012930,-0.071978,0.338807,0.167989
57,2788463965,0.825404,-0.557524,-0.088092,0.012056,-0.048910,0.028136,0.071408
58,2788497299,0.825888,-0.556310,-0.091286,0.011198,-0.122380,0.147538,0.214709
59,2788530633,0.826820,-0.554470,-0.094157,0.009913,0.207823,0.415377,0.375842
60,2788563967,0.828451,-0.552098,-0.094116,0.005459,-0.111093,-0.086147,-0.013848
61,2788597301,0.830004,-0.549602,-0.095155,0.002662,-0.405534,0.169277,0.094421
62,2788630635,0.831226,-0.547442,-0.096956,0.001257,-0.345503,-0.216289,0.136729
63,2788663969,0.832540,-0.545116,-0.098779,-0.000376,0.213559,-0.104270,0.001180
64,2788697303,0.833827,-0.543167,-0.098597,-0.003339,-0.170894,0.378247,0.123989
65,2788730637,0.835121,-0.541301,-0.097760,-0.006318,-0.194823,0.204146,0.280119
66,2788763971,0.836603,-0.539201,-0.096417,-0.009590,-0.179440,0.366687,-0.016006
67,2788797305,0.838400,-0.536501,-0.095447,-0.013137,-0.297580,0.776274,0.302862
68,2788830639,0.841016,-0.532366,-0.094913,-0.017373,0.132856,0.338052,0.054247
69,2788863973,0.843437,-0.528331,-0.094937,-0.022333,-0.069180,-0.102851,-0.100659
70,2788897307,0.845627,-0.524575,-0.094841,-0.027808,-0.882058,0.783171,0.337034
71,2788930641,0.848437,-0.519891,-0.094108,-0.032301,-0.345653,-0.412983,0.450722
72,2788963975,0.851750,-0.514544,-0.092316,-0.035723,-0.219030,-0.369796,0.057011
73,2788997309,0.855060,-0.509352,-0.089455,-0.038221,-0.135340,0.171314,-0.211075
74,2789030643,0.858709,-0.503954,-0.083754,-0.040809,-0.725661,-0.280497,0.049479
75,2789063977,0.862726,-0.497695,-0.077882,-0.044374,-0.288316,0.371750,0.220477
76,2789097311,0.866701,-0.491132,-0.071110,-0.050922,-0.766099,0.166120,0.486713
77,2789130645,0.870398,-0.484896,-0.063943,-0.056794,-1.124839,0.391748,0.228797
78,2789163979,0.873522,-0.479264,-0.060123,-0.060680,0.125831,0.790617,0.143553
79,2789197313,0.876022,-0.474652,-0.056894,-0.063918,-0.059975,-0.069298,0.193983
80,2789230647,0.878482,-0.470301,-0.053020,-0.065627,-0.122492,0.471473,-0.121967
81,2789263981,0.880792,-0.466275,-0.050629,-0.065276,0.333271,0.749335,0.264789
82,2789297315,0.883060,-0.462368,-0.043571,-0.067479,0.370494,0.111907,0.071651
83,2789330649,0.885416,-0.458247,-0.034371,-0.069985,-0.438409,0.378787,0.194803
84,2789363983,0.887693,-0.454176,-0.028023,-0.070510,-0.002385,0.442232,0.242456
85,2789397317,0.889946,-0.450082,-0.021755,-0.070575,-0.254026,-0.621101,0.001769
86,2789430651,0.892355,-0.445741,-0.015051,-0.069439,0.342657,0.152204,-0.057290
87,2789463985,0.894666,-0.441625,-0.008242,-0.067110,-0.084034,0.079074,0.497669
88,2789497319,0.897095,-0.437342,-0.004163,-0.062972,-0.257262,0.152533,0.785006
89,2789530653,0.899018,-0.433995,-0.000184,-0.058707,0.888027,-0.822743,0.265400
90,2789563987,0.900088,-0.431836,0.007489,-0.057746,1.087163,-2.013859,-0.181136
91,2789597321,0.899310,-0.432933,0.019118,-0.058963,0.554224,-1.958017,-0.129815
92,2789630655,0.897769,-0.434456,0.039280,-0.061216,-2.567639,-2.574538,-0.165136
93,2789663989,0.897160,-0.434174,0.055683,-0.059383,-1.947991,2.826483,0.377603
94,2789697323,0.897026,-0.431666,0.073388,-0.060449,-0.512702,4.426464,1.190901
95,2789730657,0.895926,-0.428870,0.095029,-0.066237,1.332405,2.412686,0.509912
96,2789763991,0.895290,-0.427808,0.105259,-0.066242,1.570141,0.035883,-0.661188
97,2789797325,0.895152,-0.427589,0.109229,-0.063009,0.891272,-0.805316,-0.467098
98,2789830659,0.895374,-0.427804,0.109964,-0.056814,0.167109,-0.915313,0.266146
99,2789863993,0.895467,-0.427556,0.112319,-0.052438,0.006832,0.860574,0.456963
100,2789897327,0.894580,-0.427343,0.119232,-0.054032,-0.261476,0.213893,0.716051
101,2789930661,0.893546,-0.426935,0.126492,-0.057740,-0.353893,0.090993,0.216284
102,2789963995,0.892822,-0.426227,0.132634,-0.060320,-0.271373,0.219283,-0.343390
103,2789997329,0.892725,-0.425731,0.134845,-0.060366,0.130266,0.562166,-0.286943
104,2790030663,0.892627,-0.425493,0.136446,-0.059889,-0.080344,0.662758,-0.104516
105,2790063997,0.892691,-0.424734,0.138311,-0.060052,-0.471502,0.634018,0.506210
106,2790097331,0.892971,-0.424077,0.138433,-0.060247,-0.683091,-0.175682,0.692280
107,2790130665,0.892920,-0.423393,0.139817,-0.062564,-0.309187,0.232487,0.124933
108,2790163999,0.892643,-0.422726,0.141952,-0.066116,-0.029106,0.150450,-0.118343
109,2790197333,0.892805,-0.422383,0.140913,-0.068305,-0.200706,0.862524,0.243074
110,2790230667,0.893063,-0.421233,0.141235,-0.071309,-0.801585,1.959529,1.816640
111,2790264001,0.893322,-0.417936,0.144005,-0.081238,-0.187270,1.585871,1.143634
112,2790297335,0.892731,-0.419593,0.140029,-0.085994,1.112565,-1.677091,-0.169719
113,2790330669,0.891706,-0.418835,0.144592,-0.092530,-1.185590,-0.005732,-0.443626
114,2790364003,0.891263,-0.418951,0.143028,-0.098511,-0.463674,0.565578,0.149437
115,2790397337,0.890902,-0.420550,0.136783,-0.103698,-0.473313,-0.713385,0.865442
116,2790430671,0.889762,-0.421730,0.135632,-0.110013,-0.113042,-1.578123,-0.355975
117,2790464005,0.887987,-0.424598,0.133840,-0.115389,-1.117223,-0.813215,0.415010
118,2790497339,0.887121,-0.425818,0.129422,-0.122377,0.764208,0.952636,-0.101516
119,2790530673,0.885102,-0.428357,0.127257,-0.130161,0.392935,0.873701,0.157282
120,2790564007,0.883218,-0.430842,0.124399,-0.137323,0.718989,-0.250440,0.627698
121,2790597341,0.880926,-0.433126,0.123908,-0.145082,0.909803,0.495072,-0.366275
122,2790630675,0.878934,-0.435626,0.119986,-0.152776,0.301839,-0.371951,-0.147927
123,2790664009,0.877096,-0.437883,0.115892,-0.159881,1.040666,-0.423054,-0.088968
124,2790697343,0.875713,-0.438449,0.114420,-0.166820,-0.055162,-0.389616,0.364412
125,2790730677,0.875154,-0.437652,0.112877,-0.172790,0.627451,0.601590,0.006125
126,2790764011,0.873540,-0.439322,0.110531,-0.178149,0.396235,-0.445143,-0.089863
127,2790797345,0.872634,-0.439411,0.108667,-0.183440,1.733254,0.769929,-0.683852
128,2790830679,0.871336,-0.440715,0.107472,-0.187149,0.616623,-0.013762,0.470069
129,2790864013,0.870835,-0.441047,0.105878,-0.189593,0.064848,0.415752,0.283223
130,2790897347,0.870572,-0.440310,0.105792,-0.192538,-0.216102,-0.169204,-0.089775
131,2790930681,0.870314,-0.439404,0.105567,-0.195868,0.214250,0.724789,-0.036283
132,2790964015,0.870349,-0.437428,0.107016,-0.199320,-0.207975,0.746466,0.177449
133,2790997349,0.870668,-0.435280,0.107960,-0.202098,-0.015762,0.335495,-0.093065
134,2791030683,0.871084,-0.432907,0.109490,-0.204567,0.028615,0.735933,0.001420
135,2791064017,0.872218,-0.429726,0.110361,-0.205966,0.340655,0.765587,0.052096
136,2791097351,0.873400,-0.425768,0.113489,-0.207473,-0.774402,0.736505,-0.215381
137,2791130685,0.875814,-0.422676,0.110373,-0.205289,0.316294,0.982989,0.092631
138,2791164019,0.878044,-0.419309,0.110508,-0.202580,-0.621592,-0.296706,0.062958
139,2791197353,0.880675,-0.415261,0.111001,-0.199197,-0.404306,1.162275,0.330323
140,2791230687,0.883251,-0.411462,0.110350,-0.196011,0.681891,0.740308,0.224086
141,2791264021,0.885460,-0.407643,0.111888,-0.193130,-0.241029,0.550487,0.477170
142,2791297355,0.888339,-0.404193,0.111894,-0.187065,0.475106,0.768952,0.284666
143,2791330689,0.891118,-0.400457,0.114093,-0.180437,0.268841,0.549279,0.458860
144,2791364023,0.893594,-0.397479,0.116697,-0.172954,-0.720758,0.107948,0.909051
145,2791397357,0.896008,-0.395463,0.117574,-0.164274,0.867798,1.275838,0.656967
146,2791430691,0.898327,-0.393258,0.118279,-0.156200,0.656308,1.483120,2.040200
147,2791464025,0.900804,-0.388944,0.118410,-0.152592,1.909230,1.398318,2.213227
148,2791497359,0.903920,-0.380918,0.119822,-0.153309,1.664763,1.599107,3.997888
149,2791530693,0.902667,-0.366684,0.157603,-0.161018,0.546152,-1.401690,4.295953
150,2791564027,0.905160,-0.347672,0.184608,-0.160501,0.080650,-4.162074,-0.590988
151,2791597361,0.913659,-0.330588,0.186900,-0.145048,-2.813749,-7.141607,0.056736
152,2791630695,0.929940,-0.323956,0.135957,-0.108679,2.087993,-3.397836,-3.393013
153,2791664029,0.939141,-0.320264,0.095700,-0.079481,0.674987,-1.177644,-3.740447
154,2791697363,0.943212,-0.321253,0.061291,-0.058496,-0.134118,0.107126,-4.028087
155,2791730697,0.943417,-0.327963,0.025190,-0.042441,0.496717,0.763192,-3.925234
156,2791764031,0.940375,-0.338464,0.006614,-0.033526,1.101593,1.849188,-1.194555
157,2791797365,0.937697,-0.346330,-0.006548,-0.027726,-0.019259,0.449153,1.331159
158,2791830699,0.936160,-0.350528,-0.000877,-0.027651,0.766687,3.495856,2.319255
159,2791864033,0.934214,-0.353671,0.026947,-0.038279,-0.585661,-0.410874,0.533525
160,2791897367,0.933719,-0.354206,0.031655,-0.041666,-1.210893,-0.398257,0.752107
161,2791930701,0.932920,-0.355272,0.037399,-0.045557,-0.843443,1.575143,1.236082
162,2791964035,0.931280,-0.356185,0.051915,-0.056440,-1.039033,1.555607,1.017635
163,2791997369,0.929948,-0.356267,0.062460,-0.066339,-1.797616,-0.097105,1.433982
164,2792030703,0.930353,-0.354384,0.061045,-0.071837,0.377393,1.673575,1.295950
165,2792064037,0.930150,-0.352625,0.063379,-0.080561,-0.842616,0.939989,0.409735
166,2792097371,0.930918,-0.351313,0.052208,-0.085302,-1.858817,-0.653261,0.820692
167,2792130705,0.932183,-0.350490,0.030586,-0.085365,0.021083,0.140504,0.251864
168,2792164039,0.932719,-0.349668,0.014949,-0.087040,0.816266,-1.176211,0.217562
169,2792197373,0.934162,-0.347172,-0.002741,-0.082690,-0.010132,-1.732939,-2.018120
170,2792230707,0.933250,-0.350102,-0.021601,-0.077707,0.492596,-0.622450,-1.018253
171,2792264041,0.931078,-0.355359,-0.033688,-0.075568,-0.028169,-1.227561,-0.324080
172,2792297375,0.928467,-0.361515,-0.046644,-0.071490,-0.589933,-0.642783,-0.090055
173,2792330709,0.925937,-0.366836,-0.057148,-0.069558,-0.473961,1.432358,0.743279
174,2792364043,0.922983,-0.372622,-0.062490,-0.073352,-0.868920,0.851220,1.274438
175,2792397377,0.920481,-0.377067,-0.067146,-0.077828,-0.836508,1.054002,0.552580
176,2792430711,0.917493,-0.381795,-0.074012,-0.083618,0.298851,0.194680,-0.458035
177,2792464045,0.913785,-0.388131,-0.081430,-0.088043,-0.494693,-0.215112,-0.338122
178,2792497379,0.910976,-0.392527,-0.084038,-0.094940,2.108593,1.990610,-0.338812
179,2792530713,0.908544,-0.396863,-0.078873,-0.104197,0.320811,-0.080870,0.774856
180,2792564047,0.906555,-0.399528,-0.086474,-0.105299,0.412338,1.139748,1.376168
181,2792597381,0.905509,-0.400506,-0.092983,-0.105041,-0.092387,-0.453532,0.039130
182,2792630715,0.904811,-0.400751,-0.100260,-0.103416,0.489063,-0.834288,-0.983244
183,2792664049,0.904420,-0.400942,-0.102697,-0.103705,0.092010,-0.181025,-0.571000
184,2792697383,0.905224,-0.399781,-0.098399,-0.105322,-0.189169,-0.312592,-0.013639
185,2792730717,0.906770,-0.397463,-0.094522,-0.104349,-0.015364,1.400264,1.001347
186,2792764051,0.909572,-0.392846,-0.087476,-0.103583,-0.218988,0.508498,0.283433
187,2792797385,0.912387,-0.388009,-0.084448,-0.099495,-0.588700,0.234463,0.585742
188,2792830719,0.915485,-0.382485,-0.082232,-0.094133,-0.033856,0.237007,1.020513
189,2792864053,0.918095,-0.377721,-0.082612,-0.087375,-0.293818,-0.893029,-0.249939
190,2792897387,0.920453,-0.372392,-0.091053,-0.076363,-0.689274,0.591485,1.176188
191,2792930721,0.922978,-0.366618,-0.096793,-0.066075,0.246374,-0.315752,0.553846
192,2792964055,0.925539,-0.360977,-0.099360,-0.056852,0.389441,-0.371823,-0.244058
193,2792997389,0.927452,-0.356939,-0.101195,-0.047091,0.614041,-1.369271,0.192600
194,2793030723,0.929087,-0.354172,-0.100189,-0.036786,0.679662,0.273151,1.269125
195,2793064057,0.929928,-0.354128,-0.095222,-0.028117,0.947515,-0.552627,0.344779
196,2793097391,0.930345,-0.354866,-0.090458,-0.019425,-0.249689,0.659858,0.025490
197,2793130725,0.929584,-0.356529,-0.093325,-0.009031,0.932948,0.238566,0.052076
198,2793164059,0.929178,-0.357879,-0.092633,-0.000824,0.890418,-0.161294,-0.231971
199,2793197393,0.929126,-0.359983,-0.084638,0.002022,0.152550,-0.740928,0.257580
200,2793230727,0.930477,-0.359991,-0.068182,0.001162,-1.570683,-1.626053,0.733454
201,2793264061,0.930611,-0.362596,-0.050065,-0.003478,-0.365624,-1.017953,-0.644198
202,2793297395,0.929939,-0.365847,-0.036929,-0.006033,-0.471430,-0.856632,0.272387
203,2793330729,0.929087,-0.368272,-0.034673,-0.001716,0.129267,-0.988918,-0.189474
204,2793364063,0.927634,-0.371509,-0.038488,0.005114,-0.166306,0.567630,0.478341
205,2793397397,0.926424,-0.374564,-0.037385,0.008626,-0.688586,0.030128,0.552042
206,2793430731,0.925760,-0.376406,-0.034542,0.011131,-0.930627,1.166568,1.248744
207,2793464065,0.926024,-0.376301,-0.027719,0.011788,-1.104602,0.249282,0.163889
208,2793497399,0.926575,-0.375279,-0.022425,0.012368,-1.063677,1.417178,0.723313
209,2793530733,0.927942,-0.372482,-0.011313,0.009194,-0.802170,-1.154968,0.309096
210,2793564067,0.929362,-0.368531,-0.018276,0.012971,0.995445,-1.231988,-1.023274
211,2793597401,0.929746,-0.366180,-0.033699,0.019492,1.170175,-1.017460,-0.860483
212,2793630735,0.928894,-0.365177,-0.055215,0.028008,0.411179,0.171642,0.152121
213,2793664069,0.927525,-0.366296,-0.068372,0.029667,0.206811,2.278704,-0.218686
214,2793697403,0.926017,-0.370795,-0.068099,0.019938,-0.772146,0.040841,1.485734
215,2793730737,0.924903,-0.374214,-0.066730,0.009809,-0.160064,-1.612008,0.154891
216,2793764071,0.923827,-0.379053,-0.053441,-0.006157,0.402905,1.298724,1.182095
217,2793797405,0.921781,-0.385740,-0.027459,-0.028316,0.475186,-0.942065,0.747139
218,2793830739,0.918475,-0.392817,-0.015059,-0.043632,-1.059762,-1.795404,0.474174
219,2793864073,0.913766,-0.402395,-0.015290,-0.053926,0.917475,-0.643304,0.284566
220,2793897407,0.909571,-0.410185,-0.012420,-0.065622,0.089777,-1.292846,0.025083
221,2793930741,0.906125,-0.415908,-0.010509,-0.076676,0.549710,0.170402,-0.025905
222,2793964075,0.903114,-0.420178,-0.006899,-0.088424,0.549126,0.871165,-0.229529
223,2793997409,0.899505,-0.425307,-0.005405,-0.100033,1.303324,0.953638,0.070870
224,2794030743,0.896800,-0.428067,-0.000237,-0.111982,0.184100,-0.025232,0.022957
225,2794064077,0.894745,-0.430083,0.001680,-0.120364,-0.736102,0.111474,-0.291203
226,2794097411,0.893584,-0.430672,-0.000730,-0.126730,-0.139628,1.182582,0.843313
227,2794130745,0.892966,-0.429990,0.000357,-0.133235,-0.624403,0.335823,-0.041671
228,2794164079,0.893470,-0.427129,0.003542,-0.138890,0.421917,0.693310,-0.244636
229,2794197413,0.893726,-0.424219,0.010167,-0.145669,0.211502,0.354635,-0.909501
230,2794230747,0.894088,-0.420991,0.014668,-0.152280,-0.548389,1.231601,1.141073
231,2794264081,0.894567,-0.418556,0.017471,-0.155840,-0.031387,-0.440606,0.729855
232,2794297415,0.896413,-0.412908,0.023748,-0.159429,0.696633,-0.340015,-1.178489
233,2794330749,0.898928,-0.406769,0.028870,-0.160203,-0.629729,0.665909,1.337500
234,2794364083,0.901528,-0.399665,0.036602,-0.161884,0.510783,0.583382,0.254441
235,2794397417,0.903949,-0.393662,0.043515,-0.161380,-0.147331,0.899586,0.869502
236,2794430751,0.906405,-0.387251,0.052602,-0.160410,-0.447781,-0.161876,-0.089370
237,2794464085,0.908460,-0.382770,0.058967,-0.157295,0.665383,0.850361,0.275522
238,2794497419,0.910095,-0.378308,0.070287,-0.153953,0.563174,-0.386983,0.816745
239,2794530753,0.910166,-0.375683,0.086267,-0.151819,1.947439,-0.099817,-0.095640
240,2794564087,0.909545,-0.375314,0.098403,-0.149047,-0.017477,-0.388279,-0.104481
241,2794597421,0.908861,-0.376782,0.106362,-0.143961,0.955324,0.183341,0.521378
242,2794630755,0.906682,-0.381272,0.113420,-0.140450,1.340725,0.651682,0.546294
243,2794664089,0.904284,-0.386933,0.118888,-0.135831,0.570557,-0.113302,0.317550
244,2794697423,0.902509,-0.391799,0.122559,-0.130308,0.367149,0.042324,0.210169
245,2794730757,0.901759,-0.395341,0.122891,-0.124360,0.122870,-0.670571,-0.058435
246,2794764091,0.900982,-0.397015,0.125789,-0.121728,0.932891,-0.262970,-0.674169
247,2794797425,0.899848,-0.397288,0.132131,-0.122509,-0.097818,-0.314533,0.765396
248,2794830759,0.899063,-0.396311,0.139247,-0.123553,-0.580077,0.779602,0.561596
249,2794864093,0.898192,-0.395908,0.145382,-0.124110,-0.395458,0.499085,0.582305
250,2794897427,0.897146,-0.396843,0.150631,-0.122417,-0.412102,-0.755514,1.307151
251,2794930761,0.894319,-0.399073,0.161894,-0.121474,0.554309,-1.392519,-1.421262
252,2794964095,0.891855,-0.403374,0.166191,-0.119563,-0.645535,1.592404,0.630925
253,2794997429,0.890943,-0.407066,0.164263,-0.116477,0.759458,0.765060,-0.882708
254,2795030763,0.890845,-0.409118,0.161288,-0.114168,0.988517,-0.240632,0.585176
255,2795064097,0.890430,-0.409346,0.161690,-0.116009,-0.043297,0.368760,0.561552
256,2795097431,0.890849,-0.408736,0.160035,-0.117229,-0.935705,0.478355,0.828643
257,2795130765,0.891012,-0.406218,0.161983,-0.121974,0.474291,-0.090396,-0.733332
258,2795164099,0.891164,-0.404535,0.161302,-0.127242,-0.464701,1.082187,0.990268
259,2795197433,0.891541,-0.400680,0.163033,-0.134394,-0.159534,0.394796,-0.234710
260,2795230767,0.892186,-0.397823,0.161688,-0.140106,-0.370257,-0.706763,0.293589
261,2795264101,0.892245,-0.396640,0.158813,-0.146237,-0.656391,-0.681527,-0.003877
262,2795297435,0.892030,-0.398061,0.152446,-0.150405,0.398999,-0.685639,0.417503
263,2795330769,0.891680,-0.399310,0.147104,-0.154433,0.563459,0.262623,0.491532
264,2795364103,0.890339,-0.400156,0.144788,-0.161988,0.690373,-0.041792,0.638474
265,2795397437,0.888903,-0.400023,0.143620,-0.170988,0.061900,0.387896,0.886281
266,2795430771,0.886646,-0.401658,0.141756,-0.180183,0.847216,-0.168332,0.496947
267,2795464105,0.883624,-0.403167,0.141310,-0.191644,1.598337,-0.058395,-0.446357
268,2795497439,0.879791,-0.406768,0.139733,-0.202517,-0.534851,-0.643370,0.996039
269,2795530773,0.876296,-0.410677,0.136623,-0.211696,1.021802,0.238143,-0.633403
270,2795564107,0.872985,-0.414989,0.131554,-0.220015,1.530992,0.200143,-0.032008
271,2795597441,0.870313,-0.418955,0.126190,-0.226141,0.530655,0.507667,-0.001685
272,2795630775,0.868336,-0.421368,0.122316,-0.231325,0.042565,0.425247,0.278309
273,2795664109,0.866504,-0.423765,0.118669,-0.235676,1.098755,0.738046,0.512773
274,2795697443,0.864470,-0.425863,0.116537,-0.240378,-0.089323,-0.011099,0.488478
275,2795730777,0.863471,-0.426856,0.112803,-0.243964,0.068859,0.144876,-0.469678
276,2795764111,0.863250,-0.426562,0.109874,-0.246581,0.155309,-0.033557,-0.287155
277,2795797445,0.863967,-0.424776,0.106398,-0.248669,0.608509,1.053533,0.443708
278,2795830779,0.864955,-0.424074,0.101675,-0.248409,-0.908428,0.537607,0.470445
279,2795864113,0.866475,-0.422748,0.094866,-0.248066,0.780822,0.315410,0.459451
280,2795897447,0.867440,-0.421746,0.088875,-0.248619,1.089354,0.771334,0.338384
281,2795930781,0.868473,-0.419744,0.084134,-0.250043,0.296498,0.790003,-0.035361
282,2795964115,0.870683,-0.418215,0.075880,-0.247549,1.217689,1.762608,0.672674
283,2795997449,0.873270,-0.415005,0.069071,-0.245828,0.129978,0.773309,0.754855
284,2796030783,0.875885,-0.411160,0.062686,-0.244694,0.088932,-0.451763,-0.416460
285,2796064117,0.877673,-0.405983,0.061215,-0.247288,0.556970,0.087870,1.014098
286,2796097451,0.879248,-0.398566,0.067450,-0.252089,-1.525238,-0.425298,0.126740
287,2796130785,0.881165,-0.394400,0.067165,-0.252026,-1.027902,0.511044,0.384087
288,2796164119,0.883081,-0.392016,0.067358,-0.248969,-0.042907,-1.782483,-0.307593
289,2796197453,0.884874,-0.389271,0.072777,-0.245358,-0.611407,0.112506,0.112250
290,2796230787,0.885487,-0.387753,0.081781,-0.242699,0.544471,-0.416115,0.335960
291,2796264121,0.886401,-0.387615,0.088331,-0.237228,0.797933,0.010113,0.944822
292,2796297455,0.886209,-0.389156,0.094527,-0.232997,0.739800,-0.748235,-0.114969
293,2796330789,0.886770,-0.389661,0.098418,-0.228360,0.133987,-0.648636,-0.034403
294,2796364123,0.887348,-0.389445,0.101392,-0.225159,0.590222,-0.309880,-0.162173
295,2796397457,0.888319,-0.388809,0.101989,-0.222140,0.099420,-0.998029,0.326067
296,2796430791,0.889608,-0.387314,0.103271,-0.218980,-0.859471,-0.994985,0.134133
297,2796464125,0.890844,-0.386571,0.103666,-0.215044,-0.952120,-0.626997,0.171390
298,2796497459,0.891794,-0.387033,0.102144,-0.210967,-0.144378,0.564239,0.674442
299,2796530793,0.892259,-0.388105,0.101278,-0.207418,0.804445,0.858003,0.146948
300,2796564127,0.892201,-0.389547,0.100886,-0.205143,0.677855,0.002824,-0.005445
301,2796597461,0.892552,-0.391058,0.098929,-0.201666,0.444196,-0.121609,-0.423648
302,2796630795,0.892982,-0.390793,0.099977,-0.199747,-0.284679,0.323025,0.362210
303,2796664129,0.893488,-0.389156,0.102167,-0.199575,0.006148,-0.055297,0.487348
304,2796697463,0.893470,-0.388016,0.104336,-0.200751,-0.222066,0.174871,-0.070175
305,2796730797,0.893216,-0.387526,0.105201,-0.202367,-0.123665,-0.320135,0.799613
306,2796764131,0.893610,-0.386801,0.104382,-0.202441,-0.368858,-0.171557,-0.379051
307,2796797465,0.893949,-0.385632,0.103493,-0.203625,-0.898471,0.106346,1.378456
308,2796830799,0.894696,-0.383173,0.103734,-0.204860,-0.502239,-0.913606,-0.083528
309,2796864133,0.895983,-0.380247,0.103213,-0.204952,0.414541,-0.150604,0.287767
310,2796897467,0.897039,-0.376865,0.104682,-0.205831,-0.475743,-0.741215,-0.537539
311,2796930801,0.896622,-0.376205,0.107843,-0.207218,0.213899,0.524610,-0.320610
312,2796964135,0.895114,-0.374821,0.116332,-0.211608,-0.193144,0.371475,0.219599
313,2796997469,0.891983,-0.374912,0.127063,-0.218388,0.582114,0.660766,0.473068
314,2797030803,0.888650,-0.373312,0.137474,-0.228192,0.117497,0.048636,0.574466
315,2797064137,0.884988,-0.374163,0.142307,-0.237862,1.092013,0.472814,0.472419
316,2797097471,0.880214,-0.377687,0.145352,-0.247953,0.385405,0.457206,1.137742
317,2797130805,0.874388,-0.382976,0.147964,-0.258676,0.079183,-0.018642,0.762306
318,2797164139,0.868333,-0.389460,0.148740,-0.268750,1.113152,-0.310156,-0.374189
319,2797197473,0.861950,-0.395745,0.149490,-0.279487,1.805958,0.163277,-0.439490
320,2797230807,0.855795,-0.398146,0.155155,-0.291637,1.809768,-0.220423,-0.700045
321,2797264141,0.850976,-0.398671,0.160884,-0.301741,-0.138155,-0.056635,0.922032
322,2797297475,0.847623,-0.399053,0.163520,-0.309167,-0.277039,0.252143,0.007360
323,2797330809,0.844466,-0.400316,0.163733,-0.315986,0.011611,0.862382,0.733080
324,2797364143,0.840605,-0.399428,0.166587,-0.325762,0.734740,0.719543,-0.348071
325,2797397477,0.836451,-0.398321,0.170590,-0.335591,0.833330,-0.554020,-0.664146
326,2797430811,0.835294,-0.400511,0.166563,-0.337881,0.113432,-0.310373,-0.379752
327,2797464145,0.834857,-0.403379,0.161194,-0.338152,0.630820,-0.736578,-1.233127
328,2797497479,0.834502,-0.409932,0.152141,-0.335331,0.197467,-0.122374,2.398627
329,2797530813,0.833498,-0.409407,0.154459,-0.337402,0.208932,1.798584,-0.171005
330,2797564147,0.832637,-0.407392,0.159377,-0.339673,0.940261,1.366948,0.672136
331,2797597481,0.831691,-0.402199,0.168756,-0.343625,0.057272,0.437873,-0.251933
332,2797630815,0.831796,-0.395007,0.177822,-0.347124,1.158299,0.002134,0.465042
333,2797664149,0.832316,-0.387229,0.186794,-0.349918,0.562548,-0.151999,0.179884
334,2797697483,0.834138,-0.380598,0.192730,-0.349635,-0.075397,0.379021,0.828167
335,2797730817,0.835342,-0.376493,0.197051,-0.348794,0.363140,-0.235510,0.614886
336,2797764151,0.837071,-0.373873,0.198591,-0.346587,1.630101,-0.303101,-0.183078
337,2797797485,0.836913,-0.371652,0.204584,-0.345874,0.391498,-0.262500,1.026813
338,2797830819,0.836487,-0.369875,0.209698,-0.345746,0.350039,-0.095672,0.508230
339,2797864153,0.834653,-0.370450,0.216298,-0.345496,0.382804,0.090347,0.352341
340,2797897487,0.832692,-0.371657,0.223406,-0.344406,0.724183,0.151116,-0.456525
341,2797930821,0.831925,-0.373926,0.226398,-0.341843,1.816564,0.348274,-0.038843
342,2797964155,0.832346,-0.374597,0.228106,-0.338934,-0.238006,-0.310876,0.673164
343,2797997489,0.838263,-0.374583,0.216193,-0.332106,0.104127,0.790670,1.163619
344,2798030823,0.848237,-0.378482,0.191112,-0.317415,-0.866705,1.980904,0.725814
345,2798064157,0.854965,-0.382853,0.169168,-0.306386,0.254313,1.338924,0.141022
346,2798097491,0.858231,-0.384325,0.158327,-0.301161,-0.281182,-0.586405,-0.542886
347,2798130825,0.861673,-0.387167,0.145666,-0.293997,0.557705,-1.190623,-0.534050
348,2798164159,0.864025,-0.387430,0.140088,-0.289423,-0.516003,-0.651785,-0.231441
349,2798197493,0.866217,-0.385460,0.137173,-0.286886,1.612650,0.561917,0.197042
350,2798230827,0.864788,-0.379963,0.149048,-0.292552,1.850020,0.105742,-0.033638
351,2798264161,0.861452,-0.374755,0.164340,-0.300805,-0.102392,-0.457599,0.041777
352,2798297495,0.859131,-0.372198,0.173534,-0.305417,0.125368,-0.462709,-0.159537
353,2798330829,0.857637,-0.370512,0.178744,-0.308646,-0.195612,0.204122,0.165855
354,2798364163,0.856784,-0.368235,0.181964,-0.311842,-0.219358,0.128135,0.058584
355,2798397497,0.855673,-0.365686,0.185230,-0.315941,0.493479,-0.270346,-0.567946
356,2798430831,0.852558,-0.362887,0.193693,-0.322446,0.052326,-0.023407,-1.386798
357,2798464165,0.848002,-0.361761,0.201857,-0.330615,0.037248,0.830712,-0.742729
358,2798497499,0.844859,-0.361871,0.204722,-0.336724,-0.292780,0.645314,2.200826
359,2798530833,0.841390,-0.357951,0.210862,-0.345691,2.368803,0.630969,1.010384
360,2798564167,0.833233,-0.351300,0.226622,-0.361918,0.253050,-1.128902,-0.222949
361,2798597501,0.823227,-0.348923,0.237852,-0.379483,1.234778,0.237259,0.308999
362,2798630835,0.809057,-0.348301,0.251133,-0.401344,1.591750,-0.132371,1.322489
363,2798664169,0.793500,-0.351105,0.264000,-0.421211,0.643116,0.685067,0.869370
364,2798697503,0.780393,-0.359699,0.270068,-0.434393,0.769496,0.273802,0.810228
365,2798730837,0.768491,-0.368389,0.275273,-0.444935,-1.101174,-0.258210,-0.003618
366,2798764171,0.760813,-0.380785,0.271016,-0.450275,1.425582,0.300102,-0.405168
367,2798797505,0.751738,-0.390737,0.268974,-0.458147,0.680588,-0.714927,-1.105487
368,2798830839,0.740683,-0.395848,0.272219,-0.469703,1.254332,-0.261819,0.008861
369,2798864173,0.729992,-0.397152,0.277215,-0.482250,1.736267,0.393307,0.255105
370,2798897507,0.720512,-0.396345,0.282155,-0.494159,1.031671,-0.055962,0.380421
371,2798930841,0.711345,-0.393996,0.286945,-0.506408,1.259946,0.505255,0.996208
372,2798964175,0.700715,-0.388603,0.293506,-0.521412,0.501139,-0.203278,-0.133408
373,2798997509,0.690805,-0.383988,0.297522,-0.535587,0.597556,0.103979,-0.546297
374,2799030843,0.684947,-0.382695,0.295078,-0.545300,0.777772,-0.478028,0.782958
375,2799064177,0.677788,-0.376061,0.297404,-0.557462,0.763134,0.314830,-0.167791
376,2799097511,0.672167,-0.370496,0.298917,-0.567102,1.113483,0.213420,0.505401
377,2799130845,0.667087,-0.364045,0.301557,-0.575813,0.623449,-0.199798,0.018693
378,2799164179,0.661108,-0.354830,0.308449,-0.584742,1.065454,0.128513,0.139057
379,2799197513,0.656935,-0.345545,0.314503,-0.591738,1.835624,-1.017007,-0.309707
380,2799230847,0.653568,-0.337831,0.319691,-0.597116,1.097379,0.013151,0.414679
381,2799264181,0.651086,-0.330152,0.323918,-0.601826,0.672222,-0.260388,-0.187880
382,2799297515,0.646226,-0.320721,0.329423,-0.609132,0.375095,0.192618,0.437392
383,2799330849,0.640545,-0.309776,0.335850,-0.617234,0.574772,0.432037,-0.270197
384,2799364183,0.634872,-0.300125,0.341605,-0.624659,0.913612,-0.453458,1.014568
385,2799397517,0.629202,-0.291556,0.347712,-0.631053,1.159622,-0.485969,-0.132162
386,2799430851,0.624087,-0.286961,0.351979,-0.635854,0.635144,-1.198292,0.474661
387,2799464185,0.618397,-0.281145,0.358666,-0.640260,-0.677914,-0.188502,0.286434
388,2799497519,0.613293,-0.274947,0.365872,-0.643774,-0.988135,-0.437551,-0.325680
389,2799530853,0.608480,-0.271594,0.370115,-0.647329,-0.524794,0.304276,-0.407627
390,2799564187,0.600959,-0.267670,0.375275,-0.652993,1.376391,-1.161697,-0.267079
391,2799597521,0.592092,-0.262395,0.381089,-0.659832,0.666299,-0.126191,0.802732
392,2799630855,0.586980,-0.261051,0.382630,-0.664027,1.927982,-0.339117,0.197090
393,2799664189,0.582233,-0.257906,0.383657,-0.668826,1.483531,-0.685710,0.553577
394,2799697523,0.576939,-0.253951,0.382929,-0.675312,1.662895,-0.850736,-0.232151
395,2799730857,0.570891,-0.250347,0.381664,-0.682476,1.626964,-0.083651,0.261851
396,2799764191,0.563802,-0.247767,0.378752,-0.690881,1.571735,-1.095630,0.016309
397,2799797525,0.555057,-0.247450,0.375212,-0.699948,1.063134,-1.519701,1.059498
398,2799830859,0.543999,-0.244732,0.373387,-0.710482,0.635258,-0.569104,1.054206
399,2799864193,0.533008,-0.239758,0.372772,-0.720757,-1.011838,0.045228,-0.795950
400,2799897527,0.523388,-0.237815,0.371856,-0.728878,-0.649298,0.145041,-0.284124
401,2799930861,0.511628,-0.233773,0.373664,-0.737559,0.337777,0.677726,-0.472989
402,2799964195,0.500096,-0.228459,0.376172,-0.745813,0.394866,0.893883,0.328870
403,2799997529,0.490250,-0.222471,0.378935,-0.752729,-0.346529,0.948044,0.058001
404,2800030863,0.482164,-0.217115,0.380144,-0.758881,1.339195,0.190499,0.201864
405,2800064197,0.473259,-0.211981,0.380623,-0.765668,0.849564,-1.451895,0.687612
406,2800097531,0.461436,-0.205283,0.383268,-0.773351,0.285542,1.502246,1.537794
407,2800130865,0.448355,-0.199226,0.384186,-0.782125,0.437515,-0.520149,0.580571
408,2800164199,0.433418,-0.193261,0.384985,-0.791591,1.323681,-0.918384,0.317942
409,2800197533,0.417634,-0.189857,0.385685,-0.800509,0.819461,-2.227051,-0.349372
410,2800230867,0.405650,-0.184481,0.386471,-0.807519,1.828873,3.855039,2.227189
411,2800264201,0.399945,-0.183117,0.383142,-0.812247,-0.371271,0.990739,-0.726440
412,2800297535,0.397805,-0.191811,0.381949,-0.811853,-3.516082,2.742545,-4.028198
413,2800330869,0.390137,-0.193719,0.384439,-0.813943,-1.709371,-2.978328,-0.141804
414,2800364203,0.369126,-0.186369,0.393981,-0.820867,0.971547,-1.670129,-1.154053
415,2800397537,0.359684,-0.188500,0.396747,-0.823236,5.576505,-2.199785,3.678749
416,2800430871,0.348050,-0.180204,0.397225,-0.829838,2.975714,-0.839638,2.165383
417,2800464205,0.336598,-0.173162,0.396707,-0.836284,1.084096,-2.246011,-0.390103
418,2800497539,0.317983,-0.161397,0.399607,-0.844502,-0.483211,-3.398721,-1.668818
419,2800530873,0.295187,-0.146762,0.406658,-0.852048,0.311520,-0.386275,-0.232654
420,2800564207,0.278900,-0.136829,0.410502,-0.857328,1.920913,0.766809,1.911263
421,2800597541,0.263216,-0.123957,0.411344,-0.863817,0.745276,-0.686424,0.460559
422,2800630875,0.248015,-0.110331,0.413204,-0.869257,-0.605943,-0.251608,0.074815
423,2800664209,0.231990,-0.091486,0.415163,-0.874918,0.443440,0.927679,-0.226167
424,2800697543,0.222516,-0.080612,0.413918,-0.879028,0.672608,-0.503051,-0.754658
425,2800730877,0.213267,-0.069593,0.411944,-0.883180,1.057683,-0.466831,0.117051
426,2800764211,0.209065,-0.063508,0.407819,-0.886552,0.216786,-0.241676,0.489388
427,2800797545,0.205942,-0.054725,0.404363,-0.889446,1.082485,-0.164953,-0.695966
428,2800830879,0.205235,-0.050079,0.401647,-0.891112,1.212745,-1.603169,0.450137
429,2800864213,0.203439,-0.042297,0.400459,-0.892461,-0.475459,-0.332332,-0.849633
430,2800897547,0.204760,-0.036195,0.396686,-0.894111,0.554321,-0.927868,0.963203
431,2800930881,0.206421,-0.028563,0.393276,-0.895511,0.277712,-0.106724,0.320563
432,2800964215,0.210664,-0.022442,0.390975,-0.895704,0.851984,0.050999,1.186465
433,2800997549,0.213777,-0.009286,0.390122,-0.895572,-1.193616,-0.534889,-0.882468
434,2801030883,0.212450,0.011757,0.393214,-0.894506,-0.475678,0.441307,0.450491
435,2801064217,0.209798,0.025332,0.398519,-0.892500,1.891632,0.092224,1.410457
436,2801097551,0.207790,0.030329,0.407174,-0.888901,1.259045,-1.464674,0.590510
437,2801130885,0.206790,0.032724,0.416545,-0.884697,-0.334426,-2.188938,-0.741162
438,2801164219,0.205751,0.035121,0.425217,-0.880713,-0.766639,-1.414580,-0.921490
439,2801197553,0.207402,0.036661,0.432375,-0.876769,-0.090720,-0.445028,0.963164
440,2801230887,0.211324,0.036341,0.433328,-0.875374,0.171438,-1.733156,0.681119
441,2801264221,0.207624,0.045720,0.437189,-0.873899,-0.250420,0.235140,-0.087588
442,2801297555,0.203663,0.052544,0.439284,-0.873396,0.906154,0.596971,0.536217
443,2801330889,0.197599,0.060282,0.441481,-0.873182,-0.103582,-0.050722,-0.722990
444,2801364223,0.191264,0.068677,0.444122,-0.872633,0.620677,-0.445761,-0.127310
445,2801397557,0.184796,0.078590,0.446200,-0.872130,1.275540,-0.297360,0.312876
446,2801430891,0.180083,0.087231,0.448035,-0.871353,1.000140,-0.671276,0.676499
447,2801464225,0.176872,0.091295,0.448838,-0.871181,0.965364,-0.006776,0.356745
448,2801497559,0.176186,0.086354,0.450461,-0.870986,-0.252422,0.645318,0.612072
449,2801530893,0.168752,0.088985,0.453741,-0.870491,0.729008,-1.092304,0.147772
450,2801564227,0.162177,0.089619,0.455170,-0.870930,1.715001,-0.320604,0.190364
451,2801597561,0.161194,0.083168,0.454090,-0.872315,0.473301,-1.255735,0.224002
452,2801630895,0.161062,0.081296,0.451431,-0.873894,0.115987,-1.472748,-0.342205
453,2801664229,0.159097,0.080594,0.450101,-0.875005,0.411290,0.166698,0.390066
454,2801697563,0.158023,0.077165,0.446794,-0.877200,0.497179,-1.314545,0.613015
455,2801730897,0.149305,0.081571,0.446448,-0.878504,0.301086,-0.920984,-0.292295
456,2801764231,0.137650,0.088252,0.447161,-0.879399,0.181629,-1.731360,0.216321
457,2801797565,0.119873,0.102274,0.449355,-0.879364,-0.303734,-0.284950,0.398100
458,2801830899,0.103155,0.111435,0.451521,-0.879261,0.465116,0.580021,0.283753
459,2801864233,0.088691,0.113908,0.455557,-0.878440,0.037662,0.067601,0.436007
460,2801897567,0.074140,0.111906,0.460024,-0.877719,-0.242303,-1.961757,-0.425530
461,2801930901,0.056799,0.112745,0.466388,-0.875543,-0.137214,-0.706111,0.539266
462,2801964235,0.040112,0.112058,0.470991,-0.874090,-1.039223,-0.937506,-0.765526
463,2801997569,0.023092,0.112758,0.474183,-0.872889,-0.174162,-0.024313,-0.190305
464,2802030903,0.006617,0.114057,0.475654,-0.872199,0.721366,-0.627312,0.688778
465,2802064237,-0.007842,0.113338,0.475716,-0.872249,-0.164414,-1.472778,-0.026618
466,2802097571,-0.023196,0.115248,0.476093,-0.871520,0.840691,-0.872444,0.403022
467,2802130905,-0.034137,0.110195,0.476903,-0.871370,0.586055,-0.738593,-0.555279
468,2802164239,-0.040891,0.102196,0.476260,-0.872405,0.006364,-1.478795,0.310328
469,2802197573,-0.048674,0.100891,0.475229,-0.872720,0.557850,-0.777361,1.119691
470,2802230907,-0.058313,0.104181,0.472848,-0.873036,1.028664,-0.561962,0.195147
471,2802264241,-0.067353,0.104885,0.470567,-0.873533,-1.074922,-0.717032,-1.263988
472,2802297575,-0.075042,0.104558,0.469283,-0.873637,0.305270,-1.027032,0.670808
473,2802330909,-0.081973,0.105809,0.466033,-0.874602,0.900031,-0.527974,0.772310
474,2802364243,-0.086751,0.106184,0.462343,-0.876053,0.982990,-0.733311,0.014709
475,2802397577,-0.088467,0.103292,0.460034,-0.877442,-1.087854,-1.808305,0.159953
476,2802430911,-0.091746,0.104488,0.457472,-0.878303,1.332187,-0.125183,0.951058
477,2802464245,-0.093239,0.104375,0.454091,-0.879912,0.827099,-0.720650,0.478123
478,2802497579,-0.094047,0.103772,0.449361,-0.882322,0.069464,-2.152059,0.117375
479,2802530913,-0.099584,0.108578,0.444468,-0.883614,-0.021598,-1.258801,0.157786
480,2802564247,-0.108439,0.115141,0.439445,-0.884253,0.159923,-0.935356,0.456697
481,2802597581,-0.117611,0.119133,0.437376,-0.883577,1.728562,-0.481293,1.509682
482,2802630915,-0.124632,0.121141,0.435448,-0.883294,-0.183870,-1.109828,-0.143080
483,2802664249,-0.131022,0.125703,0.436093,-0.881411,0.337733,0.373261,0.621099
484,2802697583,-0.135565,0.129153,0.437070,-0.879740,0.160481,-0.399919,-0.370626
485,2802730917,-0.139507,0.129001,0.439695,-0.877836,-1.216113,-0.569206,-0.476835
486,2802764251,-0.142499,0.125951,0.443745,-0.875758,-0.491263,-0.624408,0.720312
487,2802797585,-0.146905,0.124437,0.447833,-0.873161,0.523047,-0.245188,0.084365
488,2802830919,-0.150909,0.120673,0.450271,-0.871752,-0.185765,-0.936336,0.495988
489,2802864253,-0.154814,0.117836,0.450316,-0.871432,0.391549,-0.384876,-0.036114
490,2802897587,-0.158304,0.116348,0.448887,-0.871742,0.044181,-0.277613,0.039424
491,2802930921,-0.162863,0.118630,0.446132,-0.872009,1.296925,-0.599163,0.466993
492,2802964255,-0.167853,0.122652,0.443456,-0.871871,0.633397,-0.300737,-0.179703
493,2802997589,-0.174156,0.127332,0.440601,-0.871412,-0.049118,-0.559857,-0.186726
494,2803030923,-0.181014,0.134246,0.436575,-0.871002,1.139187,-0.701112,-0.275949
495,2803064257,-0.181560,0.132926,0.433333,-0.872709,-1.148052,-1.311800,-0.240749
496,2803097591,-0.183570,0.132062,0.429759,-0.874186,0.320204,-1.034728,0.008323
497,2803130925,-0.187040,0.129690,0.426362,-0.875467,-0.274122,-0.892547,0.400859
498,2803164259,-0.192668,0.130172,0.422310,-0.876139,0.696572,-0.745569,0.220809
499,2803197593,-0.195681,0.128993,0.419240,-0.877119,0.640726,-0.334609,0.263376
500,2803230927,-0.200090,0.128102,0.415511,-0.878030,0.601484,-1.458743,0.871277
501,2803264261,-0.205131,0.128290,0.411489,-0.878732,-0.370105,-1.096297,-0.500190
502,2803297595,-0.208286,0.125287,0.409372,-0.879412,-0.180033,-1.230590,0.260771
503,2803330929,-0.213162,0.124087,0.406122,-0.879921,0.864287,0.085785,0.555775
504,2803364263,-0.218221,0.120760,0.404455,-0.879911,1.138636,0.053803,1.410277
505,2803397597,-0.222695,0.116523,0.403892,-0.879620,0.541536,-0.952089,0.333892
506,2803430931,-0.226461,0.110291,0.405992,-0.878495,-0.085012,-0.482191,0.476800
507,2803464265,-0.230733,0.105905,0.408050,-0.876968,0.069716,0.680977,0.376000
508,2803497599,-0.235683,0.100511,0.409706,-0.875514,1.358592,0.770053,1.679163
509,2803530933,-0.239795,0.093549,0.412705,-0.873758,-0.114028,1.051766,-0.391975
510,2803564267,-0.245396,0.092146,0.417721,-0.869960,0.221982,-0.759646,0.533253
511,2803597601,-0.249045,0.088306,0.424325,-0.866117,-1.448030,-0.825144,-0.165299
512,2803630935,-0.252496,0.083796,0.430934,-0.862294,-0.905870,0.333650,0.036994
513,2803664269,-0.255729,0.080569,0.435286,-0.859458,-0.661643,0.748974,-0.674314
514,2803697603,-0.259683,0.080515,0.437951,-0.856920,1.147526,-0.572333,0.926961
515,2803730937,-0.263154,0.080378,0.439692,-0.854981,-0.595867,-0.186725,-0.076892
516,2803764271,-0.268140,0.082081,0.441945,-0.852103,0.309688,-1.245229,0.489428
517,2803797605,-0.271762,0.081062,0.443428,-0.850281,0.191677,-1.060738,-0.000364
518,2803830939,-0.273978,0.081037,0.443681,-0.849439,-0.520311,-0.528405,0.013083
519,2803864273,-0.277401,0.083616,0.441924,-0.848994,0.467513,-1.391024,0.122747
520,2803897607,-0.281536,0.086268,0.439506,-0.848623,0.522446,-1.144956,0.203152
521,2803930941,-0.284680,0.088899,0.436975,-0.848609,0.139436,-0.888508,-0.180144
522,2803964275,-0.284800,0.089068,0.434614,-0.849763,-0.561530,-1.822217,0.750008
523,2803997609,-0.283572,0.090514,0.431262,-0.851727,0.854050,-0.864939,0.511712
524,2804030943,-0.278427,0.084908,0.428382,-0.855447,-0.579580,-1.345723,-0.297970
525,2804064277,-0.275634,0.082941,0.425229,-0.858113,0.229440,-0.870420,0.667755
526,2804097611,-0.274403,0.082838,0.420012,-0.861082,-0.181783,-1.683515,0.627594
527,2804130945,-0.274099,0.085930,0.414793,-0.863402,0.208363,0.003251,-0.286217
528,2804164279,-0.274171,0.090232,0.409889,-0.865280,0.421274,-0.195782,0.532818
529,2804197613,-0.274713,0.094821,0.405971,-0.866465,-0.362618,-0.123069,-0.041416
530,2804230947,-0.273454,0.098887,0.405017,-0.866855,-0.984350,-0.367905,-0.883182
531,2804264281,-0.269953,0.102453,0.406437,-0.866873,-0.951802,0.243641,-0.231166
532,2804297615,-0.266065,0.107044,0.408345,-0.866623,-0.954524,-0.184582,0.568954
533,2804330949,-0.264715,0.116772,0.408822,-0.865555,-0.091304,0.303825,-0.284003
534,2804364283,-0.262584,0.126901,0.410803,-0.863839,0.057842,1.369690,-0.127728
535,2804397617,-0.261522,0.135344,0.412945,-0.861856,0.233775,-0.034840,0.046362
536,2804430951,-0.260142,0.140520,0.415216,-0.860353,0.337518,-0.294849,0.003345
537,2804464285,-0.257868,0.143677,0.417805,-0.859262,-0.086076,-0.432942,0.149269
538,2804497619,-0.257220,0.146815,0.419825,-0.857940,-0.357771,0.062825,0.241959
539,2804530953,-0.259262,0.152046,0.419599,-0.856524,0.796813,-0.151481,-0.175072
540,2804564287,-0.259906,0.153788,0.419130,-0.856247,0.131113,-0.717855,0.026229
541,2804597621,-0.258392,0.152602,0.418966,-0.856998,-0.396844,-1.419889,-0.013895
542,2804630955,-0.258159,0.152365,0.417381,-0.857883,-0.056306,-0.828071,0.122310
543,2804664289,-0.259909,0.152177,0.415220,-0.858436,0.374175,-0.324104,-0.480929
544,2804697623,-0.261946,0.150895,0.412154,-0.859520,0.032257,-0.232599,0.385251
545,2804730957,-0.265806,0.152515,0.408627,-0.859733,0.539865,-0.896797,0.390346
546,2804764291,-0.267734,0.149956,0.406380,-0.860650,0.330109,-0.676676,0.384639
547,2804797625,-0.269251,0.147357,0.404337,-0.861587,-0.179127,-0.743580,-0.071910
548,2804830959,-0.270445,0.145752,0.402246,-0.862465,1.060199,0.120572,0.706698
549,2804864293,-0.270594,0.140929,0.400394,-0.864080,-0.313957,-0.912170,0.782731
550,2804897627,-0.272468,0.136840,0.398988,-0.864798,0.186166,-0.712973,0.479134
551,2804930961,-0.275519,0.132877,0.397961,-0.864923,-0.067372,-1.260644,1.185588
552,2804964295,-0.281536,0.131017,0.396699,-0.863848,-0.020576,-0.426736,-0.244101
553,2804997629,-0.286323,0.126575,0.397303,-0.862658,0.198323,-0.335485,0.385175
554,2805030963,-0.291113,0.123826,0.398083,-0.861093,0.312259,0.811998,-0.728071
555,2805064297,-0.295294,0.122132,0.401354,-0.858389,-0.076003,0.874560,-0.008259
556,2805097631,-0.302384,0.124342,0.405639,-0.853576,-1.557482,0.454419,-0.202078
557,2805130965,-0.311241,0.131003,0.410033,-0.847273,1.450241,0.423656,1.035573
558,2805164299,-0.317243,0.133478,0.415177,-0.842140,0.181803,0.130308,0.278134
559,2805197633,-0.322939,0.136158,0.420117,-0.837080,0.353945,-0.000539,0.136741
560,2805230967,-0.325936,0.133298,0.424975,-0.833921,-1.590429,-0.055590,0.063922
561,2805264301,-0.328207,0.134580,0.429107,-0.830703,-0.264171,0.148664,0.161057
562,2805297635,-0.332059,0.138608,0.430931,-0.827559,-0.563947,-0.149161,-0.462362
563,2805330969,-0.337050,0.142764,0.430877,-0.824859,0.138126,-0.726004,0.172019
564,2805364303,-0.341539,0.145723,0.430212,-0.822839,0.624892,-0.654220,0.456769
565,2805397637,-0.344753,0.146285,0.430153,-0.821429,0.401722,-0.432594,0.649676
566,2805430971,-0.346793,0.145935,0.429465,-0.820992,0.498354,-0.519312,0.302644
567,2805464305,-0.349221,0.146942,0.426856,-0.821144,-0.272930,-0.749223,-0.023156
568,2805497639,-0.351797,0.147395,0.423981,-0.821453,-1.369776,-1.322287,-0.466970
569,2805530973,-0.354518,0.148827,0.420679,-0.821722,-0.134222,-0.554037,-0.410977
570,2805564307,-0.354916,0.149485,0.416834,-0.823389,0.503177,-0.884546,0.606264
571,2805597641,-0.355891,0.150891,0.410725,-0.825778,0.378177,-0.632783,0.283546
572,2805630975,-0.356389,0.152304,0.405155,-0.828052,0.789933,-0.964670,0.818600
573,2805664309,-0.356022,0.154169,0.399492,-0.830613,-0.374384,-1.417989,-0.190846
574,2805697643,-0.356860,0.161587,0.392785,-0.832040,-0.180925,-0.375038,-0.312700
575,2805730977,-0.358825,0.171296,0.386543,-0.832176,0.515478,0.127722,0.816073
576,2805764311,-0.360275,0.180709,0.380275,-0.832447,0.031952,-0.344799,0.334760
577,2805797645,-0.360347,0.191256,0.374439,-0.832705,-0.915329,0.238163,-0.518073
578,2805830979,-0.358149,0.200757,0.371373,-0.832790,-0.298878,0.273880,0.779437
579,2805864313,-0.356937,0.210886,0.369925,-0.831451,-0.025598,0.081572,0.922735
580,2805897647,-0.353919,0.216227,0.373381,-0.829822,-0.051693,0.722015,-0.025841
581,2805930981,-0.350351,0.219138,0.377206,-0.828843,-1.126899,0.218134,-0.460246
582,2805964315,-0.345803,0.220691,0.382631,-0.827853,-0.252030,1.011666,0.268073
583,2805997649,-0.342300,0.222358,0.385810,-0.827387,0.038160,0.520061,0.228621
584,2806030983,-0.339581,0.222947,0.387592,-0.827516,-0.186655,0.115717,-0.004334
585,2806064317,-0.337915,0.224719,0.388252,-0.827410,0.731582,0.089702,0.421350
586,2806097651,-0.336567,0.227069,0.388557,-0.827174,0.545125,-0.422804,-0.105141
587,2806130985,-0.333922,0.226103,0.389524,-0.828055,-0.130227,-0.472999,0.547606
588,2806164319,-0.332288,0.225563,0.390867,-0.828227,-0.090496,-0.368531,-0.212853
589,2806197653,-0.331103,0.223383,0.391407,-0.829037,-1.024939,-0.989516,-0.004641
590,2806230987,-0.329770,0.220799,0.391513,-0.830210,0.217814,-0.748867,0.873525
591,2806264321,-0.327823,0.216681,0.391009,-0.832301,0.849104,-0.113439,0.351137
592,2806297655,-0.324937,0.210341,0.390524,-0.835281,0.528165,-0.449539,0.089405
593,2806330989,-0.323640,0.204533,0.390214,-0.837369,0.032922,-0.589608,0.372281
594,2806364323,-0.323200,0.199275,0.390715,-0.838573,0.388258,-0.711967,0.539958
595,2806397657,-0.322912,0.194251,0.391075,-0.839694,0.426408,-0.323283,-0.013472
596,2806430991,-0.322584,0.186631,0.392084,-0.841077,-0.282873,-0.861204,0.279755
597,2806464325,-0.323004,0.178616,0.393405,-0.842038,-1.102856,-0.583853,-0.215125
598,2806497659,-0.325247,0.173310,0.394438,-0.841800,0.096633,-0.209872,0.093623
599,2806530993,-0.325304,0.164834,0.396694,-0.842421,-0.042027,-0.730147,0.299130
600,2806564327,-0.325550,0.155015,0.400823,-0.842235,-0.043510,-0.246081,0.138879
601,2806597661,-0.326601,0.144558,0.404874,-0.841750,-0.971516,-0.612644,0.312565
602,2806630995,-0.330946,0.139782,0.408791,-0.838962,-0.379753,-0.010817,0.041390
603,2806664329,-0.336192,0.135998,0.412974,-0.835442,0.404633,-0.154847,0.757342
604,2806697663,-0.338210,0.128687,0.419827,-0.832365,-0.078293,0.295049,0.549594
605,2806730997,-0.340825,0.122201,0.426200,-0.829029,0.505772,0.179324,0.535630
606,2806764331,-0.342660,0.115264,0.432205,-0.826152,-0.547056,0.742029,-1.178367
607,2806797665,-0.344361,0.107527,0.437684,-0.823600,-0.103887,1.024835,0.233744
608,2806830999,-0.345794,0.100752,0.441160,-0.822000,-0.303386,0.377798,0.611258
609,2806864333,-0.347911,0.097327,0.442683,-0.820700,0.075744,0.433952,0.029506
610,2806897667,-0.349701,0.093364,0.444486,-0.819424,0.420829,0.215229,0.246932
611,2806931001,-0.351875,0.089568,0.445765,-0.818222,0.207059,0.143714,0.153932
612,2806964335,-0.353367,0.085382,0.446601,-0.817570,0.022443,-0.705964,0.388518
613,2806997669,-0.354056,0.082207,0.445989,-0.817931,-0.253521,-0.527923,0.380919
614,2807031003,-0.355148,0.078944,0.444242,-0.818729,0.358852,-0.873097,0.298894
615,2807064337,-0.356636,0.073902,0.443388,-0.819016,0.526219,-0.468527,-0.042892
616,2807097671,-0.359043,0.068547,0.442676,-0.818815,0.213651,-0.928981,0.277148
617,2807131005,-0.361222,0.063341,0.442009,-0.818637,-0.029525,-0.710510,0.003710
618,2807164339,-0.361375,0.056827,0.442540,-0.818760,0.206422,-0.582370,0.156547
619,2807197673,-0.360675,0.047509,0.443568,-0.819107,0.677393,-0.467558,0.050061
620,2807231007,-0.357290,0.034881,0.446857,-0.819437,-0.395664,-0.801894,0.717418
621,2807264341,-0.355910,0.028037,0.447494,-0.819952,0.898941,-0.064251,0.168967
622,2807297675,-0.353571,0.021697,0.447490,-0.821158,0.395803,-0.132575,0.576239
623,2807331009,-0.353159,0.018483,0.445821,-0.822321,-0.275038,-0.405916,0.020944
624,2807364343,-0.354013,0.019200,0.442532,-0.823712,0.441176,-0.167631,0.270957
625,2807397677,-0.355888,0.021776,0.438817,-0.824827,0.028847,-0.406046,0.306673
626,2807431011,-0.358000,0.023796,0.438136,-0.824219,-0.130156,-0.294618,0.425718
627,2807464345,-0.362841,0.029253,0.438767,-0.821587,0.854111,-0.468234,0.505601
628,2807497679,-0.364414,0.031777,0.442430,-0.818828,0.484822,-0.423610,1.248098
629,2807531013,-0.363976,0.034705,0.445769,-0.817091,-0.553042,0.918174,-0.703781
630,2807564347,-0.360557,0.037518,0.448825,-0.816810,-0.412603,1.253817,-0.573741
631,2807597681,-0.357758,0.044042,0.447464,-0.818460,0.315833,0.912769,0.041733
632,2807631015,-0.355936,0.051749,0.445295,-0.819985,-0.012265,0.995558,-0.133771
633,2807664349,-0.356375,0.059699,0.442427,-0.820806,1.255658,0.381871,0.912230
634,2807697683,-0.356970,0.067395,0.439834,-0.821345,0.827655,0.660246,0.197829
635,2807731017,-0.356808,0.074990,0.437064,-0.822235,-0.171177,0.119711,0.477407
636,2807764351,-0.356275,0.085014,0.432697,-0.823799,-0.098444,0.504063,-0.322354
637,2807797685,-0.355660,0.095538,0.427492,-0.825627,0.169403,-0.244344,0.396479
638,2807831019,-0.354486,0.105633,0.421616,-0.827921,1.021676,0.272672,0.242251
639,2807864353,-0.353698,0.115814,0.415097,-0.830187,0.543202,-0.062508,0.124835
640,2807897687,-0.353547,0.126161,0.408838,-0.831848,0.773027,-0.157267,0.281037
641,2807931021,-0.352878,0.136985,0.402556,-0.833482,-0.274656,0.247634,0.342759
642,2807964355,-0.353190,0.149382,0.395540,-0.834579,0.976713,-0.497652,0.223760
643,2807997689,-0.353753,0.159465,0.389657,-0.835242,-0.285446,0.067051,-0.248901
644,2808031023,-0.355940,0.173245,0.384575,-0.833922,0.014847,-0.123547,0.123098
645,2808064357,-0.357144,0.183718,0.379797,-0.833355,0.170702,-1.044055,1.308607
646,2808097691,-0.359769,0.192757,0.375182,-0.832274,-0.895653,-0.764369,-0.691508
647,2808131025,-0.363091,0.204229,0.371689,-0.829659,0.142968,-0.865941,1.614198
648,2808164359,-0.366025,0.214906,0.365687,-0.828339,0.487481,-0.890442,1.193542
649,2808197693,-0.367847,0.219428,0.362666,-0.827674,-0.736961,0.149983,-0.420846
650,2808231027,-0.375787,0.228536,0.359181,-0.823150,-0.210263,0.077165,-0.043319
651,2808264361,-0.386879,0.237021,0.355981,-0.816978,-0.948142,0.074359,0.011710
652,2808297695,-0.399795,0.245512,0.354783,-0.808733,-0.160152,0.061316,0.256478
653,2808331029,-0.409959,0.248927,0.358088,-0.801107,-1.673899,0.258635,0.396193
654,2808364363,-0.422068,0.259766,0.360171,-0.790372,-0.638635,0.701020,0.115304
655,2808397697,-0.432945,0.264211,0.363964,-0.781225,-1.020419,0.069988,-0.065286
656,2808431031,-0.444358,0.266467,0.366702,-0.772724,-1.174457,0.282283,0.079751
657,2808464365,-0.455361,0.269519,0.368736,-0.764245,-0.414516,-0.582638,0.404289
658,2808497699,-0.465680,0.274472,0.369016,-0.756086,-0.456855,0.581295,-0.451212
659,2808531033,-0.474785,0.277807,0.370017,-0.748680,-1.692682,-0.365487,0.201906
660,2808564367,-0.483134,0.283620,0.369075,-0.741590,-0.074808,-0.278902,0.172666
661,2808597701,-0.490689,0.287154,0.368489,-0.735536,-0.104597,-0.515018,0.139001
662,2808631035,-0.496199,0.287510,0.368211,-0.731831,-0.619705,0.803002,-0.238864
663,2808664369,-0.500316,0.289027,0.367381,-0.728841,-0.593045,-0.977150,0.393418
664,2808697703,-0.505138,0.291679,0.364798,-0.725750,-1.098552,-1.169131,0.277129
665,2808731037,-0.510616,0.296267,0.360908,-0.721993,-0.768350,-0.488052,0.284300
666,2808764371,-0.516585,0.303290,0.354853,-0.717820,-0.669418,-0.931925,0.467910
667,2808797705,-0.523043,0.308929,0.347145,-0.714501,-1.431735,0.447045,-0.410513
668,2808831039,-0.529900,0.319662,0.336255,-0.709919,0.900331,-0.819072,0.380321
669,2808864373,-0.535673,0.325875,0.327148,-0.707011,-1.928588,0.869454,-0.560142
670,2808897707,-0.543832,0.335789,0.315782,-0.701288,0.230573,-0.556617,0.492593
671,2808931041,-0.551420,0.343907,0.305157,-0.696114,-1.644444,-0.461861,0.217918
672,2808964375,-0.558987,0.353205,0.294707,-0.689898,0.170174,-0.420547,0.691106
673,2808997709,-0.565342,0.361068,0.285187,-0.684630,-0.136591,-0.319017,0.247097
674,2809031043,-0.572197,0.370706,0.272957,-0.678744,0.003124,0.412857,0.088915
675,2809064377,-0.578882,0.381063,0.261531,-0.671803,-1.435243,0.710988,0.566084
676,2809097711,-0.587304,0.393288,0.248559,-0.662306,-1.192901,0.595253,-0.066370
677,2809131045,-0.594630,0.406721,0.239141,-0.651026,0.818319,-0.304917,1.006199
678,2809164379,-0.599795,0.415197,0.235075,-0.642362,-1.086746,0.273837,-0.408075
679,2809197713,-0.603953,0.422297,0.231787,-0.634990,-0.262867,0.327677,-0.239456
680,2809231047,-0.606870,0.427539,0.229334,-0.629568,-0.828056,0.679470,0.193065
681,2809264381,-0.609860,0.433684,0.225261,-0.623921,0.054008,0.294318,0.926608
682,2809297715,-0.613425,0.438765,0.222284,-0.617912,0.369986,0.099370,0.131683
683,2809331049,-0.618578,0.442391,0.219474,-0.611157,0.156414,-0.278234,0.406713
684,2809364383,-0.623571,0.446254,0.216356,-0.604349,-0.488226,0.314404,-0.371875
685,2809397717,-0.628669,0.451194,0.210271,-0.597509,-1.325878,0.374014,0.001032
686,2809431051,-0.635201,0.457482,0.200596,-0.589085,-0.398678,-0.163815,0.132213
687,2809464385,-0.642059,0.462906,0.190905,-0.580572,-0.595039,0.276719,-0.667481
688,2809497719,-0.649168,0.467665,0.181666,-0.571751,-0.322976,-0.411760,0.045546
689,2809531053,-0.656423,0.470268,0.173392,-0.563847,-0.222630,0.247806,-0.096489
690,2809564387,-0.664617,0.472079,0.164490,-0.555337,-1.703964,1.021961,0.140244
691,2809597721,-0.673753,0.476511,0.152496,-0.543848,-0.895423,0.237056,0.026701
692,2809631055,-0.681464,0.479144,0.143482,-0.534295,-0.571668,-0.411625,0.628656
693,2809664389,-0.689240,0.479338,0.136561,-0.525895,-0.981927,1.040233,-0.177380
694,2809697723,-0.696779,0.481474,0.129713,-0.515642,0.033962,-0.088839,0.227555
695,2809731057,-0.705002,0.480626,0.125652,-0.506175,-0.375279,0.928997,0.056807
696,2809764391,-0.713039,0.482063,0.120809,-0.494599,0.312533,-0.044755,0.347205
697,2809797725,-0.721699,0.482315,0.117357,-0.482474,-0.820974,0.545649,-0.178621
698,2809831059,-0.731054,0.483963,0.112772,-0.467604,-0.011361,-0.170168,0.532403
699,2809864393,-0.741007,0.484279,0.110233,-0.451954,-0.407720,0.624601,-0.083797
700,2809897727,-0.751349,0.486170,0.107439,-0.433129,0.013067,0.406271,0.041341
701,2809931061,-0.760635,0.489640,0.105394,-0.413049,-0.480014,0.008254,0.428671
702,2809964395,-0.768944,0.492872,0.106692,-0.393003,-1.092557,0.479213,0.186533
703,2809997729,-0.776404,0.496091,0.108968,-0.373159,-1.015405,0.918879,0.128701
704,2810031063,-0.783210,0.497576,0.113199,-0.355271,-0.168379,0.341462,0.470884
705,2810064397,-0.789605,0.498435,0.114684,-0.339065,-0.326901,0.405317,-0.306723
706,2810097731,-0.795537,0.498705,0.115070,-0.324352,-0.508730,-0.178772,0.095325
707,2810131065,-0.802106,0.498737,0.113273,-0.308363,-0.293357,1.184250,0.174825
708,2810164399,-0.808311,0.501038,0.105084,-0.290832,-0.774029,-0.406995,-0.089757
709,2810197733,-0.812924,0.501382,0.101188,-0.278502,-1.089320,0.641250,0.255705
710,2810231067,-0.816697,0.501515,0.097654,-0.268298,-0.845405,0.301088,-0.260798
711,2810264401,-0.819800,0.501734,0.093775,-0.259669,-0.790314,0.133638,0.448524
712,2810297735,-0.823812,0.500372,0.089575,-0.250935,-0.508114,1.527597,0.034616
713,2810331069,-0.827190,0.500821,0.080742,-0.241756,-0.404369,-0.109086,-0.302216
714,2810364403,-0.829718,0.500907,0.072738,-0.235373,-0.869269,0.578491,0.484726
715,2810397737,-0.832476,0.500190,0.065682,-0.229151,-0.841117,1.566238,-0.050599
716,2810431071,-0.834672,0.500143,0.056561,-0.223634,-0.620503,-0.180721,0.399029
717,2810464405,-0.837154,0.499523,0.045408,-0.218219,-1.039526,0.389724,0.125890
718,2810497739,-0.839849,0.498166,0.035553,-0.212724,-0.994420,0.939996,0.120404
719,2810531073,-0.843291,0.495792,0.025578,-0.205982,-0.712033,0.297109,0.320280
720,2810564407,-0.845787,0.494362,0.016424,-0.200031,-0.867577,0.739898,0.529560
721,2810597741,-0.848400,0.493163,0.007104,-0.192324,-0.166175,0.605263,-0.355450
722,2810631075,-0.850192,0.492952,-0.001310,-0.184936,-0.101321,0.352632,-0.516699
723,2810664409,-0.851614,0.492919,-0.007782,-0.178201,-0.794052,1.275956,0.547246
724,2810697743,-0.852951,0.493206,-0.016162,-0.170268,-0.776358,0.632871,0.272766
725,2810731077,-0.853296,0.495030,-0.025043,-0.161976,0.174242,0.629383,0.373112
726,2810764411,-0.853114,0.497642,-0.033029,-0.153263,0.313566,0.387824,-0.313719
727,2810797745,-0.852579,0.500257,-0.037528,-0.146539,0.096921,1.482645,-0.180490
728,2810831079,-0.852192,0.502297,-0.041343,-0.140671,-0.284824,0.499677,0.474690
729,2810864413,-0.852332,0.503315,-0.045451,-0.134792,-0.061610,0.224776,0.082051
730,2810897747,-0.852934,0.503608,-0.050681,-0.127846,0.902951,0.935678,-0.720255
731,2810931081,-0.854057,0.502853,-0.057974,-0.119981,-0.003856,0.611708,0.192036
732,2810964415,-0.855106,0.502113,-0.066071,-0.111093,-0.512387,-0.119326,0.301666
733,2810997749,-0.856025,0.501306,-0.072186,-0.103602,0.294585,0.936102,-0.632952
734,2811031083,-0.857172,0.499858,-0.076707,-0.097697,-0.625523,0.728838,-0.316414
735,2811064417,-0.858194,0.498789,-0.080395,-0.090995,-0.492098,0.260740,0.096570
736,2811097751,-0.859046,0.498014,-0.085187,-0.082433,-0.832406,0.964116,0.704707
737,2811131085,-0.859919,0.497018,-0.091119,-0.072398,-0.420147,1.091753,0.222759
738,2811164419,-0.861086,0.495167,-0.097506,-0.062162,-0.209149,1.389450,0.672190
739,2811197753,-0.861854,0.493324,-0.106036,-0.051262,-0.591938,-0.200037,0.286862
740,2811231087,-0.862929,0.491178,-0.111108,-0.042226,-0.347698,0.311660,-0.020623
741,2811264421,-0.864434,0.488225,-0.115410,-0.033177,-0.811434,0.777223,-0.000088
742,2811297755,-0.865702,0.485550,-0.119335,-0.024311,-0.842833,0.675548,0.450252
743,2811331089,-0.866621,0.483297,-0.123378,-0.014154,-0.303248,0.790412,-0.375519
744,2811364423,-0.867893,0.480710,-0.125295,-0.003419,1.071960,1.561772,-0.322772
745,2811397757,-0.868301,0.478613,-0.130077,0.009680,0.204478,0.578389,0.041371
746,2811431091,-0.868673,0.476081,-0.135136,0.022870,0.079909,-0.199947,0.452700
747,2811464425,-0.868413,0.473974,-0.140900,0.037230,-0.429487,-0.548721,-0.062705
748,2811497759,-0.868754,0.471558,-0.142693,0.050684,1.212750,0.434831,0.000110
749,2811531093,-0.866995,0.470486,-0.149919,0.067217,-0.240965,-0.291924,0.837234
750,2811564427,-0.864901,0.470345,-0.154419,0.083114,-0.117281,1.221256,0.629722
751,2811597761,-0.862971,0.471588,-0.154117,0.095738,0.072224,-0.170897,-0.532082
752,2811631095,-0.861547,0.473428,-0.150820,0.104341,0.184539,-0.608902,-0.267283
753,2811664429,-0.860273,0.474202,-0.149403,0.113016,0.144666,0.710004,0.038436
754,2811697763,-0.858824,0.475150,-0.148114,0.121439,-0.340478,1.319818,0.471261
755,2811731097,-0.857191,0.475872,-0.147742,0.130279,0.154341,1.157530,0.341397
756,2811764431,-0.855363,0.477008,-0.147259,0.138434,0.174705,0.923261,-0.057047
757,2811797765,-0.854058,0.477441,-0.146409,0.145708,-0.315129,0.195606,0.013701
758,2811831099,-0.853112,0.477483,-0.145651,0.151747,0.032693,1.294659,0.496793
759,2811864433,-0.852901,0.475625,-0.146438,0.157889,0.439288,1.854138,0.129096
760,2811897767,-0.852536,0.473752,-0.147960,0.163956,-0.915989,0.966220,-0.290477
761,2811931101,-0.853875,0.470776,-0.145747,0.167500,0.369259,2.244789,0.396681
762,2811964435,-0.854676,0.467208,-0.146595,0.172589,0.102365,1.281671,0.219215
763,2811997769,-0.855411,0.462704,-0.148847,0.179035,-1.022025,1.716025,0.552729
764,2812031103,-0.856807,0.456996,-0.150860,0.185224,0.055185,0.693721,0.318371
765,2812064437,-0.857551,0.450367,-0.156220,0.193395,-1.030663,0.089392,-0.377090
766,2812097771,-0.858703,0.443409,-0.160265,0.200905,0.069488,1.514978,-0.121701
767,2812131105,-0.860161,0.436284,-0.164393,0.206847,0.416979,1.395043,-0.261925
768,2812164439,-0.863148,0.429541,-0.163767,0.209003,0.615218,1.019531,-0.236162
769,2812197773,-0.866881,0.427236,-0.154202,0.205521,-0.387093,0.306046,0.422742
770,2812231107,-0.868927,0.426535,-0.147392,0.203324,0.162409,0.420489,0.488376
771,2812264441,-0.868984,0.426353,-0.146480,0.204117,-0.128264,0.722441,0.691056
772,2812297775,-0.868221,0.427107,-0.147134,0.205318,1.556128,1.117531,0.622999
773,2812331109,-0.866298,0.427191,-0.153317,0.208713,0.953755,-0.589885,0.008195
774,2812364443,-0.863410,0.426956,-0.163485,0.213389,-0.195821,-0.480551,0.035621
775,2812397777,-0.860599,0.426459,-0.173277,0.217963,0.786515,0.334817,-0.425355
776,2812431111,-0.857841,0.424438,-0.185519,0.222653,1.145550,0.273166,0.114038
777,2812464445,-0.855052,0.422015,-0.197318,0.227785,-1.270427,-0.823569,-0.401784
778,2812497779,-0.853608,0.419843,-0.204414,0.230936,-0.054131,0.537110,-0.205538
779,2812531113,-0.851852,0.417132,-0.212699,0.234819,0.596107,0.554762,0.119107
780,2812564447,-0.849883,0.415492,-0.219690,0.238396,-1.033044,0.974979,0.588311
781,2812597781,-0.849744,0.413744,-0.220886,0.240812,0.858390,0.650733,-0.234787
782,2812631115,-0.849047,0.413233,-0.222266,0.242871,-1.044518,0.052686,0.613474
783,2812664449,-0.848362,0.410935,-0.224589,0.246993,-0.463210,0.365119,0.148771
784,2812697783,-0.848720,0.409610,-0.224067,0.248433,-0.361359,0.934742,0.890679
785,2812731117,-0.849462,0.406926,-0.223729,0.250603,0.025128,0.386378,-0.452179
786,2812764451,-0.849488,0.405223,-0.223280,0.253655,0.434316,0.010749,-0.801553
787,2812797785,-0.849018,0.403623,-0.222913,0.258068,0.137862,1.194957,0.378139
788,2812831119,-0.848345,0.401839,-0.223719,0.262331,0.373315,0.762384,0.089863
789,2812864453,-0.847906,0.400430,-0.223965,0.265675,-0.469236,0.852565,0.149808
790,2812897787,-0.847978,0.398432,-0.222445,0.269692,0.135492,0.858788,0.444091
791,2812931121,-0.846827,0.397428,-0.221896,0.275189,-0.284307,0.746147,0.354330
792,2812964455,-0.846269,0.395897,-0.219504,0.280969,0.806621,0.644505,0.512963
793,2812997789,-0.843703,0.395596,-0.220409,0.288306,-1.940187,-0.297067,1.016526
794,2813031123,-0.841226,0.396574,-0.218636,0.295461,0.955611,0.711456,-0.980629
795,2813064457,-0.837662,0.400112,-0.216955,0.301986,0.471460,0.524325,0.413308
796,2813097791,-0.833190,0.403864,-0.216712,0.309443,-0.487553,-0.726176,-0.378587
797,2813131125,-0.829112,0.410793,-0.212201,0.314365,1.372399,0.482545,-0.194815
798,2813164459,-0.824477,0.417845,-0.208834,0.319472,-0.622606,-0.387279,0.514573
799,2813197793,-0.820000,0.425009,-0.205133,0.323913,0.744917,-0.342899,-0.175072
800,2813231127,-0.816147,0.430628,-0.202007,0.328159,0.281023,-0.274238,-0.050876
801,2813264461,-0.812812,0.435395,-0.199326,0.331763,0.702607,0.495591,-0.127006
802,2813297795,-0.810507,0.438970,-0.196104,0.334602,0.922573,0.545384,0.258670
803,2813331129,-0.808749,0.442905,-0.192464,0.335782,0.172484,0.239543,0.295552
804,2813364463,-0.808017,0.445962,-0.188087,0.335979,-0.129868,0.304163,-0.167118
805,2813397797,-0.806933,0.449149,-0.184059,0.336568,0.010027,0.039922,-0.210397
806,2813431131,-0.805404,0.451150,-0.181760,0.338797,-0.059698,1.008008,-0.240077
807,2813464465,-0.804646,0.451749,-0.180166,0.340645,0.995917,0.687343,-0.098797
808,2813497799,-0.804217,0.450826,-0.180795,0.342542,0.291740,0.712405,-0.030324
809,2813531133,-0.804431,0.449019,-0.181862,0.343845,-0.667325,0.553138,0.229162
810,2813564467,-0.805091,0.445714,-0.184124,0.345395,-0.032128,1.525170,0.319086
811,2813597801,-0.806503,0.441847,-0.185603,0.346277,0.250681,1.096953,0.196736
812,2813631135,-0.807924,0.438095,-0.186961,0.346999,0.457912,1.123331,0.304078
813,2813664469,-0.809223,0.433437,-0.189481,0.348451,0.927236,0.581915,-0.559927
814,2813697803,-0.810401,0.428551,-0.194453,0.349018,-1.942657,1.038395,1.190173
815,2813731137,-0.811916,0.422864,-0.198510,0.350149,0.132132,-0.355448,0.106780
816,2813764471,-0.813333,0.417674,-0.203934,0.349972,0.219846,0.736738,-1.144198
817,2813797805,-0.815973,0.413566,-0.207356,0.346678,0.477210,0.453289,0.678452
818,2813831139,-0.817440,0.408923,-0.214518,0.344365,1.191788,-0.481731,-0.228797
819,2813864473,-0.816930,0.404550,-0.224984,0.344062,0.483811,0.206382,0.878335
820,2813897807,-0.815822,0.401383,-0.236376,0.342759,0.016508,-0.444278,0.008335
821,2813931141,-0.814005,0.399427,-0.248435,0.340829,-0.703667,0.136597,0.531372
822,2813964475,-0.812629,0.400455,-0.255792,0.337448,0.348415,0.142584,-0.213013
823,2813997809,-0.810880,0.402955,-0.262003,0.333897,0.342551,0.198995,-0.344296
824,2814031143,-0.809399,0.406057,-0.266540,0.330119,0.805611,-0.042627,-0.080789
825,2814064477,-0.807875,0.407526,-0.272724,0.326975,0.307058,-0.194423,0.115632
826,2814097811,-0.807555,0.407836,-0.278007,0.322905,-1.204710,-0.329047,0.229559
827,2814131145,-0.808015,0.408077,-0.281148,0.318703,-0.219240,0.817354,0.193938
828,2814164479,-0.807496,0.408579,-0.284906,0.316027,-0.043894,0.950737,0.313738
829,2814197813,-0.807502,0.408034,-0.287712,0.314170,0.441172,0.942584,-0.005711
830,2814231147,-0.808711,0.405712,-0.290484,0.311502,0.109516,1.679049,2.120720
831,2814264481,-0.810020,0.399647,-0.295225,0.311487,0.986226,1.199524,-0.692849
832,2814297815,-0.810577,0.394514,-0.299435,0.312561,-0.033942,0.955894,0.844391
833,2814331149,-0.810732,0.388497,-0.303796,0.315472,-0.998004,0.071865,-0.091141
834,2814364483,-0.811148,0.383492,-0.305640,0.318730,-0.198135,0.389929,-0.534748
835,2814397817,-0.812227,0.378710,-0.304768,0.322512,0.213675,0.307325,-0.503871
836,2814431151,-0.813234,0.376558,-0.302212,0.324888,0.148853,-0.559902,-0.722561
837,2814464485,-0.814869,0.373795,-0.298784,0.327148,0.314227,0.465487,0.296377
838,2814497819,-0.815599,0.369929,-0.297524,0.330850,-0.818834,0.577497,0.663145
839,2814531153,-0.816612,0.366396,-0.295074,0.334457,0.208814,0.488121,0.015792
840,2814564487,-0.817121,0.364387,-0.292377,0.337762,-0.850028,0.521158,0.269646
841,2814597821,-0.819495,0.364978,-0.284199,0.338351,1.076672,0.769323,0.521441
842,2814631155,-0.820130,0.365182,-0.278964,0.340940,0.768053,0.595361,0.194557
843,2814664489,-0.819962,0.366801,-0.274444,0.343265,0.105087,0.762354,0.399769
844,2814697823,-0.818277,0.369119,-0.271064,0.347461,0.699312,0.014059,0.451541
845,2814731157,-0.813786,0.370168,-0.273268,0.355084,-0.313279,-1.388131,-0.794188
846,2814764491,-0.808440,0.373615,-0.274726,0.362483,-0.942894,0.052674,0.672926
847,2814797825,-0.803945,0.378175,-0.272894,0.369074,0.729641,0.176945,-0.597081
848,2814831159,-0.798550,0.382540,-0.272354,0.376611,1.172080,-0.348272,-0.679599
849,2814864493,-0.793926,0.385084,-0.272412,0.383686,0.372983,-0.270780,-0.065595
850,2814897827,-0.790879,0.387261,-0.270706,0.388960,0.744960,0.106599,0.237184
851,2814931161,-0.788198,0.387884,-0.270763,0.393710,-0.298048,0.508201,0.949814
852,2814964495,-0.785163,0.387061,-0.272705,0.399208,0.488073,0.040890,-0.480265
853,2814997829,-0.783069,0.386743,-0.271897,0.404148,0.437026,0.827742,0.700633
854,2815031163,-0.780202,0.385588,-0.272218,0.410531,0.232331,-0.572235,-0.366425
855,2815064497,-0.777233,0.381603,-0.274566,0.418249,0.491455,0.439966,0.013906
856,2815097831,-0.774912,0.378930,-0.277237,0.423194,-0.107470,1.195171,1.036292
857,2815131165,-0.773929,0.376421,-0.278846,0.426167,0.632433,0.367795,-0.263719
858,2815164499,-0.773370,0.373729,-0.280412,0.428516,-0.799369,-0.392051,0.159209
859,2815197833,-0.774247,0.369286,-0.281530,0.430049,0.702225,-1.023539,0.162107
860,2815231167,-0.774240,0.363265,-0.284809,0.433019,0.596933,0.424551,-0.334575
861,2815264501,-0.776066,0.359231,-0.286014,0.432322,0.887689,1.056634,0.557284
862,2815297835,-0.776423,0.355815,-0.290316,0.431637,0.127748,0.662289,0.494153
863,2815331169,-0.776892,0.352634,-0.294381,0.430650,-0.182493,0.178824,0.648643
864,2815364503,-0.777008,0.348614,-0.300253,0.429657,0.206014,0.305753,-0.049129
865,2815397837,-0.777433,0.344106,-0.306696,0.427970,0.012070,0.132886,0.394432
866,2815431171,-0.778365,0.340761,-0.311991,0.425116,1.249752,-0.184308,-0.865512
867,2815464505,-0.777776,0.337140,-0.319974,0.423142,0.881947,0.244717,0.692770
868,2815497839,-0.774480,0.333687,-0.331219,0.423273,0.071504,0.157093,0.518797
869,2815531173,-0.770946,0.332714,-0.339773,0.423708,0.876083,-0.012738,0.189336
870,2815564507,-0.767057,0.333298,-0.348141,0.423515,-0.939798,0.124203,0.005030
871,2815597841,-0.765592,0.333432,-0.352203,0.422701,1.482918,-0.109318,-0.583670
872,2815631175,-0.764392,0.332345,-0.357123,0.421599,-0.769319,0.110183,0.648160
873,2815664509,-0.766601,0.331717,-0.355904,0.419107,0.898984,-0.329637,-0.466945
874,2815697843,-0.766137,0.328795,-0.358425,0.420108,0.480130,0.125329,0.423398
875,2815731177,-0.764422,0.325225,-0.362337,0.422647,0.464999,1.434381,0.757201
876,2815764511,-0.763825,0.324411,-0.362325,0.424360,0.849675,0.225707,0.220816
877,2815797845,-0.761888,0.323398,-0.363407,0.427677,0.452532,-0.168945,-0.565904
878,2815831179,-0.760547,0.322311,-0.362930,0.431274,0.735461,0.398846,-0.159373
879,2815864513,-0.760222,0.321235,-0.361105,0.434171,0.585438,0.755229,0.646554
880,2815897847,-0.759780,0.319902,-0.359745,0.437049,-0.422506,0.408094,0.205723
881,2815931181,-0.760526,0.319992,-0.355180,0.439411,0.021882,0.785486,0.421878
882,2815964515,-0.762183,0.319857,-0.349394,0.441274,0.679186,0.144299,-0.534685
883,2815997849,-0.764054,0.320691,-0.343639,0.441952,0.187028,0.462894,-0.142813
884,2816031183,-0.766768,0.320935,-0.336168,0.442820,-0.087720,0.699987,0.580444
885,2816064517,-0.769782,0.320779,-0.328208,0.443675,0.616299,0.796424,0.366688
886,2816097851,-0.771386,0.321140,-0.321025,0.445877,0.909478,0.065730,1.125214
887,2816131185,-0.769503,0.319495,-0.318214,0.452284,0.274426,0.113414,-0.224701
888,2816164519,-0.767282,0.319860,-0.313207,0.459239,1.038058,0.543396,0.300138
889,2816197853,-0.765430,0.319727,-0.307421,0.466277,0.326053,0.041407,-0.640529
890,2816231187,-0.763449,0.323125,-0.300510,0.471658,0.954829,-1.353750,0.157321
891,2816264521,-0.760340,0.328861,-0.294856,0.476261,-1.347127,0.422132,0.637196
892,2816297855,-0.759703,0.339867,-0.283485,0.476455,-0.512632,-0.005802,0.146206
893,2816331189,-0.757354,0.351816,-0.274622,0.476711,0.525778,0.382523,0.273969
894,2816364523,-0.752543,0.360945,-0.271683,0.479184,-0.441335,-0.200721,0.475485
895,2816397857,-0.747763,0.367792,-0.270501,0.482120,0.531004,-0.919370,0.105845
896,2816431191,-0.742787,0.371152,-0.271471,0.486671,-0.523058,-1.012943,-0.692864
897,2816464525,-0.739580,0.373387,-0.270218,0.490526,0.371174,0.035966,-0.272637
898,2816497859,-0.736647,0.374518,-0.269479,0.494469,0.421972,0.956970,0.226404
899,2816531193,-0.734003,0.376323,-0.267324,0.498187,0.550076,1.407306,0.466739
900,2816564527,-0.731973,0.377639,-0.264837,0.501495,0.078908,1.602715,0.458628
901,2816597861,-0.732550,0.380104,-0.259227,0.501720,0.003966,1.036992,0.221355
902,2816631195,-0.733155,0.382137,-0.253730,0.502103,0.271766,0.337366,-0.066900
903,2816664529,-0.733639,0.382577,-0.249150,0.503353,0.419231,0.556793,0.066516
904,2816697863,-0.733439,0.381294,-0.246087,0.506116,0.217166,0.843384,-0.215272
905,2816731197,-0.732517,0.380280,-0.242776,0.509801,0.873328,1.062926,0.127600
906,2816764531,-0.731340,0.379049,-0.240025,0.513696,0.415643,-0.159040,-0.151873
907,2816797865,-0.730058,0.374857,-0.240800,0.518213,0.341030,-0.227378,0.336471
908,2816831199,-0.730959,0.369611,-0.240818,0.520696,0.860248,-0.078886,0.227624
909,2816864533,-0.734326,0.366504,-0.238006,0.519447,-0.051926,0.495146,0.398308
910,2816897867,-0.739370,0.362942,-0.234406,0.516420,-0.122405,-0.141328,-0.992904
911,2816931201,-0.744892,0.360945,-0.230976,0.511405,-0.899479,-0.022325,0.106996
912,2816964535,-0.750510,0.358100,-0.228302,0.506367,-1.284116,1.660150,1.349827
913,2816997869,-0.756240,0.356489,-0.225411,0.500237,-0.459802,0.338434,0.854689
914,2817031203,-0.761177,0.354251,-0.224296,0.494811,0.117764,-0.544315,-0.317920
915,2817064537,-0.764918,0.351385,-0.226525,0.490048,-1.424905,-0.020437,0.954877
916,2817097871,-0.769132,0.348901,-0.227662,0.484670,-0.001993,-0.054909,0.082391
917,2817131205,-0.773500,0.346779,-0.228092,0.479006,-0.087958,0.528194,0.401479
918,2817164539,-0.778421,0.345985,-0.226487,0.472324,-0.283023,-0.746725,-1.176816
919,2817197873,-0.783349,0.346206,-0.223649,0.465316,-0.181603,-0.246068,-0.610364
920,2817231207,-0.788780,0.346048,-0.219754,0.458058,-0.707368,0.107248,-0.003064
921,2817264541,-0.794760,0.346447,-0.214696,0.449743,-0.799081,0.237159,0.635077
922,2817297875,-0.800615,0.346676,-0.209514,0.441549,-0.711602,0.020314,-0.124884
923,2817331209,-0.805624,0.347662,-0.204826,0.433795,-0.646418,0.265269,0.190469
924,2817364543,-0.810459,0.349381,-0.199930,0.425616,-0.439217,0.607794,0.513501
925,2817397877,-0.814960,0.351395,-0.195099,0.417527,0.237609,0.198384,-0.341504
926,2817431211,-0.819611,0.353200,-0.189924,0.409203,-0.381956,0.528011,-0.328744
927,2817464545,-0.823626,0.354535,-0.185583,0.401915,-0.417163,0.959611,0.403448
928,2817497879,-0.827937,0.356294,-0.180301,0.393825,0.080726,0.178520,-0.368283
929,2817531213,-0.832357,0.358526,-0.174539,0.384979,-0.728676,0.082062,-0.596209
930,2817564547,-0.837275,0.359815,-0.166234,0.376697,0.518546,2.770087,3.068325
931,2817597881,-0.840731,0.365343,-0.155693,0.368085,1.469431,-0.522832,0.221231
932,2817631215,-0.844013,0.371089,-0.144254,0.359385,0.532642,-0.329882,-0.148360
933,2817664549,-0.847401,0.378298,-0.130972,0.348827,-0.705235,-0.471905,-0.213766
934,2817697883,-0.850470,0.384353,-0.119982,0.338540,-3.252558,0.067844,1.934346
935,2817731217,-0.853599,0.390089,-0.109160,0.327590,-2.346383,-0.404195,0.619439
936,2817764551,-0.856220,0.397505,-0.097854,0.315172,0.418220,-0.579016,-0.421064
937,2817797885,-0.857102,0.405810,-0.089461,0.304503,0.243487,-0.657739,0.281927
938,2817831219,-0.856959,0.412755,-0.085933,0.296481,0.415050,-0.553823,0.067299
939,2817864553,-0.856791,0.418428,-0.082255,0.289986,1.031289,0.215050,-0.235642
940,2817897887,-0.856641,0.421431,-0.080126,0.286659,0.546314,-0.099632,-0.426275
941,2817931221,-0.857457,0.425383,-0.069365,0.281135,2.215457,1.095787,-0.618267
942,2817964555,-0.857219,0.435593,-0.050139,0.270095,1.781863,-0.005687,0.515643
943,2817997889,-0.857479,0.443922,-0.035021,0.257811,-0.103728,-0.318799,0.487700
944,2818031223,-0.857817,0.450001,-0.024250,0.247168,-1.984024,0.104489,0.498125
945,2818064557,-0.857315,0.455867,-0.012123,0.238917,-2.621067,-0.029012,0.994134
946,2818097891,-0.857324,0.458100,-0.003645,0.234856,-1.787464,0.568739,0.462706
947,2818131225,-0.857764,0.457395,0.000704,0.234650,-0.559101,1.299604,0.187253
948,2818164559,-0.858362,0.456461,0.006053,0.234207,-0.924844,0.032853,0.217744
949,2818197893,-0.859602,0.455021,0.012351,0.232205,0.537351,-0.506261,-0.394015
950,2818231227,-0.861178,0.452256,0.014644,0.231634,-0.018953,-1.074270,-0.319756
951,2818264561,-0.863083,0.448928,0.015911,0.230932,-0.826555,0.070544,0.293695
952,2818297895,-0.866046,0.445346,0.019266,0.226477,-0.383203,0.554750,0.589665
953,2818331229,-0.869693,0.440254,0.017445,0.222570,0.003892,0.161770,-0.506827
954,2818364563,-0.873337,0.434892,0.013220,0.219108,0.455269,0.493979,-0.579018
955,2818397897,-0.876576,0.430581,0.009794,0.214824,-0.956185,-0.157279,0.281194
956,2818431231,-0.880697,0.426070,0.007678,0.206905,-0.875328,0.039175,0.969223
957,2818464565,-0.885867,0.420077,0.005555,0.196915,-0.487307,-0.295479,0.479616
958,2818497899,-0.891275,0.414010,0.002360,0.185069,-0.330522,0.289429,-0.071992
959,2818531233,-0.896803,0.408508,0.001542,0.169986,-0.046490,1.078418,0.127883
960,2818564567,-0.901849,0.403538,0.001405,0.154448,0.503665,0.146388,-1.035828
961,2818597901,-0.903957,0.403534,0.003028,0.141582,0.504650,-0.578107,-0.039310
962,2818631235,-0.904390,0.405721,0.000726,0.132290,-0.677724,0.247794,1.130524
963,2818664569,-0.904303,0.407958,-0.006368,0.125688,-2.312429,-0.761384,1.298416
964,2818697903,-0.904425,0.410879,-0.005871,0.114854,-0.713073,-0.971879,0.686526
965,2818731237,-0.904906,0.413429,-0.000470,0.101254,0.094521,-0.800630,-0.250595
966,2818764571,-0.905958,0.414105,0.003933,0.088165,-0.326370,-1.074391,0.564966
967,2818797905,-0.907546,0.413033,0.007309,0.075780,0.000160,-0.883119,0.280133
968,2818831239,-0.908899,0.411647,0.006484,0.066618,0.428117,1.020492,-0.107438
969,2818864573,-0.909838,0.410844,0.005723,0.058309,-0.739761,-0.709636,0.036660
970,2818897907,-0.910921,0.409788,0.009460,0.047322,0.012592,-0.032928,0.045917
971,2818931241,-0.911791,0.408791,0.012633,0.037405,-0.184551,0.258116,0.184217
972,2818964575,-0.912605,0.407549,0.015229,0.029252,-0.721487,0.209349,0.355549
973,2818997909,-0.913521,0.405828,0.017755,0.022362,-0.406646,0.628480,0.049490
974,2819031243,-0.914414,0.404063,0.018603,0.016269,-1.021892,-0.352965,0.493186
975,2819064577,-0.915159,0.402539,0.018973,0.010843,-0.575512,-0.060985,-0.281298
976,2819097911,-0.915707,0.401374,0.019255,0.006367,-0.666418,0.491839,0.177947
977,2819131245,-0.916137,0.400401,0.019953,0.002304,-0.468165,0.663510,0.741117
978,2819164579,-0.916280,0.400076,0.020016,-0.001367,-0.032691,-0.154723,0.053061
979,2819197913,-0.915910,0.400921,0.019473,-0.004811,-1.000707,-0.584249,0.945443
980,2819231247,-0.915427,0.402040,0.018109,-0.007799,0.220983,0.011597,-0.697957
981,2819264581,-0.914033,0.405195,0.017230,-0.009755,-0.179938,0.257412,0.363139
982,2819297915,-0.912479,0.408741,0.014966,-0.010962,-0.148266,-0.505039,0.138621
983,2819331249,-0.910012,0.413997,0.017126,-0.014907,-0.467592,-0.364495,0.478727
984,2819364583,-0.907023,0.420114,0.022300,-0.018658,-0.846213,-0.619333,0.424622
985,2819397917,-0.904081,0.425764,0.029650,-0.022700,-0.195082,-0.524658,0.040991
986,2819431251,-0.901349,0.430644,0.037962,-0.026586,0.201620,-0.590817,-0.319032
987,2819464585,-0.899024,0.434517,0.045530,-0.030140,0.674485,-0.118332,-0.314200
988,2819497919,-0.896903,0.438249,0.049501,-0.032905,0.173199,-0.625621,0.214281
989,2819531253,-0.895341,0.440583,0.054369,-0.036423,-0.466976,0.001818,0.510262
990,2819564587,-0.894110,0.442199,0.059487,-0.038977,0.188423,-0.321564,0.004512
991,2819597921,-0.892572,0.443882,0.066674,-0.043243,-0.025931,0.013346,0.252275
992,2819631255,-0.891413,0.444431,0.074375,-0.048610,-0.103751,0.191338,0.418989
993,2819664589,-0.890778,0.443791,0.081279,-0.054674,0.075245,-0.594434,0.259025
994,2819697923,-0.890441,0.442603,0.086500,-0.061365,0.057872,-0.092880,0.407404
995,2819731257,-0.890837,0.440527,0.087909,-0.068182,-0.430346,-0.439905,0.144851
996,2819764591,-0.890736,0.438917,0.090235,-0.076353,-0.828197,0.474954,0.215033
997,2819797925,-0.890274,0.437406,0.094422,-0.084873,-0.291200,0.369118,0.348888
998,2819831259,-0.889894,0.435234,0.098639,-0.094666,-0.507228,-0.127458,0.150168
999,2819864593,-0.890457,0.431714,0.099732,-0.103896,0.161467,-0.449217,0.059418
1000,2819897927,-0.890764,0.428921,0.099408,-0.112761,0.004954,-0.391085,0.161945
1001,2819931261,-0.891232,0.425599,0.098114,-0.122374,-0.389821,-0.506950,1.165114
1002,2819964595,-0.891559,0.422500,0.094117,-0.133382,0.299450,-0.184107,-0.731565
1003,2819997929,-0.890814,0.420840,0.091110,-0.145166,0.175497,-0.799996,0.511855
1004,2820031263,-0.889353,0.420197,0.087039,-0.157931,0.157743,-0.379191,-0.396503
1005,2820064597,-0.886240,0.421689,0.085813,-0.171536,-0.586877,0.251109,0.449104
1006,2820097931,-0.882102,0.423568,0.086721,-0.187076,-0.698804,-0.150173,0.185437
1007,2820131265,-0.877639,0.425117,0.087659,-0.203401,-0.840046,0.348638,0.411708
1008,2820164599,-0.872872,0.426590,0.091286,-0.218663,-0.930427,-0.268218,1.005999
1009,2820197933,-0.868762,0.426944,0.094548,-0.232514,-0.494949,-0.136395,0.191676
1010,2820231267,-0.864863,0.428092,0.096126,-0.244008,0.011027,-0.322140,-0.522835
1011,2820264601,-0.860732,0.429211,0.097965,-0.255640,-0.369419,-0.346793,-0.155978
1012,2820297935,-0.856175,0.429155,0.101448,-0.269314,-0.681794,-0.131030,-0.237265
1013,2820331269,-0.851461,0.427543,0.107055,-0.284238,-0.619355,-0.404375,0.397145
1014,2820364603,-0.847519,0.425067,0.111600,-0.297669,-0.566604,-0.723948,0.333363
1015,2820397937,-0.845035,0.422524,0.113434,-0.307496,-0.573187,-0.995999,0.458160
1016,2820431271,-0.843614,0.420119,0.113687,-0.314517,-0.493464,-0.850116,0.293539
1017,2820464605,-0.841967,0.418221,0.113995,-0.321276,0.095848,-0.487095,0.136882
1018,2820497939,-0.839629,0.416190,0.116260,-0.329127,-0.251341,-0.207898,0.104403
1019,2820531273,-0.836825,0.413617,0.120222,-0.337969,-0.501689,-0.059258,-0.263977
1020,2820564607,-0.834245,0.410685,0.123893,-0.346489,-0.789867,-0.866353,0.619143
1021,2820597941,-0.831332,0.407911,0.128433,-0.355010,-0.219690,-0.747662,0.345611
1022,2820631275,-0.828324,0.404536,0.133725,-0.363838,-0.879230,-0.177520,0.180376
1023,2820664609,-0.826348,0.400885,0.137390,-0.370937,-1.154666,-0.238798,0.226485
1024,2820697943,-0.824294,0.397587,0.141272,-0.377541,-0.789989,0.030204,0.267409
1025,2820731277,-0.822383,0.394185,0.144635,-0.383948,-1.050289,0.063087,-0.365976
1026,2820764611,-0.820264,0.390231,0.150033,-0.390395,-1.214264,-0.710311,0.687720
1027,2820797945,-0.818614,0.385976,0.155077,-0.396075,-1.023520,-0.543799,0.550567
1028,2820831279,-0.816733,0.383674,0.160895,-0.399857,-0.098783,-0.701250,0.560785
1029,2820864613,-0.816008,0.383225,0.163616,-0.400663,-0.174868,-1.031379,-0.492795
1030,2820897947,-0.815878,0.383981,0.164354,-0.399901,0.372542,-1.059031,0.751669
1031,2820931281,-0.813763,0.385707,0.164868,-0.402331,0.755693,-1.110490,-0.165192
1032,2820964615,-0.808762,0.387249,0.171924,-0.407940,-0.237662,-1.937606,1.123401
1033,2820997949,-0.803304,0.387621,0.180974,-0.414406,-0.876053,-0.638367,0.099360
1034,2821031283,-0.798325,0.387594,0.191519,-0.419285,-0.026996,-0.406743,-0.160566
1035,2821064617,-0.794004,0.385623,0.202220,-0.424253,0.502186,-0.046885,0.238033
1036,2821097951,-0.790167,0.382984,0.210933,-0.429532,0.755889,-0.371446,-0.033598
1037,2821131285,-0.786695,0.379770,0.217475,-0.435455,0.228729,0.123772,-0.401973
1038,2821164619,-0.783807,0.377199,0.222153,-0.440507,0.086133,-0.437996,-0.253193
1039,2821197953,-0.781243,0.374613,0.226494,-0.445035,-0.162147,-0.679406,0.877890
1040,2821231287,-0.778578,0.371804,0.231610,-0.449407,0.298287,-0.175883,0.389656
1041,2821264621,-0.775701,0.369129,0.236349,-0.454095,0.662806,-0.580410,0.446294
1042,2821297955,-0.773209,0.367382,0.238518,-0.458605,0.903231,-0.673061,-0.101687
1043,2821331289,-0.770510,0.365560,0.241398,-0.463075,0.207253,-0.331103,0.124913
1044,2821364623,-0.767269,0.362746,0.244548,-0.468979,-0.613087,0.218393,0.162362
1045,2821397957,-0.763896,0.360862,0.246593,-0.474831,-0.246340,0.207143,-0.566688
1046,2821431291,-0.759470,0.358262,0.249396,-0.482377,-0.500296,-0.844988,0.697704
1047,2821464625,-0.754717,0.355552,0.250814,-0.491029,-0.009405,0.009547,-0.248136
1048,2821497959,-0.749135,0.353200,0.252362,-0.500390,-0.273752,-0.823555,0.456795
1049,2821531293,-0.743436,0.351265,0.252877,-0.509903,-0.308288,-0.756703,0.531083
1050,2821564627,-0.738504,0.351299,0.250552,-0.518127,-0.682899,-0.270308,-0.074872
1051,2821597961,-0.732761,0.351671,0.249501,-0.526469,-0.138711,-1.000971,-0.062272
1052,2821631295,-0.725770,0.350534,0.249532,-0.536796,-0.881967,-0.642491,0.442406
1053,2821664629,-0.717413,0.349433,0.249538,-0.548614,-0.307425,-0.516519,-0.029808
1054,2821697963,-0.708133,0.348779,0.249866,-0.560802,-0.547997,-0.797986,0.222413
1055,2821731297,-0.699272,0.348954,0.249297,-0.571954,0.057959,-0.824591,-0.304703
1056,2821764631,-0.689645,0.348500,0.252169,-0.582563,-0.388505,-1.335648,0.944890
1057,2821797965,-0.680468,0.348437,0.253119,-0.592889,-0.128382,-1.060584,0.436884
1058,2821831299,-0.671406,0.349310,0.253087,-0.602640,-0.144843,-0.155217,0.010837
1059,2821864633,-0.662167,0.351403,0.251588,-0.612198,-0.255765,-0.201590,-0.110672
1060,2821897967,-0.651433,0.353819,0.248967,-0.623293,-0.297720,-0.203591,-0.362105
1061,2821931301,-0.638556,0.353483,0.251344,-0.635731,0.930781,-0.657902,0.273028
1062,2821964635,-0.625067,0.351442,0.255933,-0.648312,1.279176,-0.519599,0.375863
1063,2821997969,-0.610570,0.348866,0.263059,-0.660552,0.842999,-0.656318,0.419545
1064,2822031303,-0.595078,0.342791,0.272666,-0.673840,0.539027,-0.452048,0.346011
1065,2822064637,-0.581917,0.337956,0.281103,-0.684230,0.795197,-0.139639,0.336134
1066,2822097971,-0.572870,0.336854,0.286093,-0.690312,0.549787,-0.312130,0.139849
1067,2822131305,-0.565628,0.335771,0.289779,-0.695256,0.056563,-0.239087,-0.172729
1068,2822164639,-0.559126,0.334323,0.293012,-0.699844,0.007950,-0.234699,0.014285
1069,2822197973,-0.553224,0.332651,0.294888,-0.704527,-0.270939,-0.282650,-0.026301
1070,2822231307,-0.546621,0.330003,0.296744,-0.710125,-0.212669,-0.907636,0.032729
1071,2822264641,-0.539809,0.326165,0.300114,-0.715671,-0.174708,-1.298543,0.296364
1072,2822297975,-0.531704,0.320171,0.306060,-0.721900,-0.595948,-1.288959,0.209603
1073,2822331309,-0.523461,0.312806,0.313043,-0.728132,0.152599,-1.366906,0.650892
1074,2822364643,-0.517569,0.305261,0.319422,-0.732761,0.707265,-0.628814,0.081189
1075,2822397977,-0.512686,0.298061,0.324596,-0.736873,0.297945,-0.521108,0.125335
1076,2822431311,-0.508188,0.291236,0.329087,-0.740716,0.471459,-0.411062,0.192844
1077,2822464645,-0.503193,0.283175,0.333949,-0.745062,0.159468,-0.250862,0.382678
1078,2822497979,-0.498978,0.277397,0.338558,-0.747985,0.163195,-0.032909,0.069122
1079,2822531313,-0.494814,0.273558,0.342930,-0.750170,0.591879,-0.065132,-0.023543
1080,2822564647,-0.488972,0.268919,0.350168,-0.752332,0.755993,-1.328303,0.616405
1081,2822597981,-0.482644,0.263391,0.359826,-0.753815,0.738349,-0.676744,0.604019
1082,2822631315,-0.475299,0.256384,0.371898,-0.755037,0.307841,-0.028885,0.231946
1083,2822664649,-0.468897,0.249319,0.384176,-0.755258,0.266916,-0.256976,-0.201556
1084,2822697983,-0.463447,0.241036,0.396657,-0.754860,0.279096,-0.679794,0.039732
1085,2822731317,-0.458645,0.232686,0.407484,-0.754646,-0.137393,-0.222121,-0.116997
1086,2822764651,-0.454068,0.225835,0.416230,-0.754721,0.573766,-0.478478,0.077005
1087,2822797985,-0.448532,0.218154,0.424115,-0.755900,0.109513,-1.074304,0.197536
1088,2822831319,-0.442208,0.209110,0.431909,-0.757767,-0.049322,-0.639628,0.223303
1089,2822864653,-0.436649,0.200993,0.438088,-0.759638,0.357245,-0.586232,0.243325
1090,2822897987,-0.432938,0.195120,0.441882,-0.761094,0.405186,-0.068425,-0.455892
1091,2822931321,-0.429709,0.188787,0.446105,-0.762058,-0.048926,-0.654996,-0.011868
1092,2822964655,-0.425125,0.181119,0.450052,-0.764166,0.067076,-0.682907,0.193252
1093,2822997989,-0.419639,0.173673,0.453467,-0.766903,-0.243946,-0.530438,-0.254442
1094,2823031323,-0.414612,0.166127,0.456491,-0.769510,0.641155,-0.858948,-0.013224
1095,2823064657,-0.410239,0.158961,0.458678,-0.772063,0.765612,-0.461981,0.655869
1096,2823097991,-0.406048,0.152489,0.460140,-0.774710,0.177424,-0.315521,0.069310
1097,2823131325,-0.403285,0.147607,0.460587,-0.776830,1.044316,-0.704315,0.524461
1098,2823164659,-0.401063,0.143293,0.459526,-0.779412,-0.344233,-0.402261,0.318074
1099,2823197993,-0.398345,0.140320,0.456664,-0.783020,-0.910951,-0.593341,-0.298160
1100,2823231327,-0.394848,0.138599,0.452712,-0.787381,0.588612,-0.282878,-0.006624
1101,2823264661,-0.388791,0.137487,0.448605,-0.792921,0.254614,-0.760064,0.371382
1102,2823297995,-0.382175,0.137686,0.443731,-0.798824,0.235094,-1.327833,0.197556
1103,2823331329,-0.372883,0.135384,0.440767,-0.805224,-0.081968,-0.260638,0.086229
1104,2823364663,-0.363922,0.134228,0.437382,-0.811339,-0.237123,-0.392445,0.148983
1105,2823397997,-0.353125,0.131737,0.434979,-0.817785,0.224545,-0.470774,0.035162
1106,2823431331,-0.339358,0.124122,0.434089,-0.825244,0.356960,-0.227334,1.145813
1107,2823464665,-0.322453,0.109515,0.438382,-0.831795,-4.520193,2.137292,-0.430198
1108,2823497999,-0.308571,0.106907,0.442287,-0.835325,0.266165,2.309315,-0.817547
1109,2823531333,-0.295201,0.107950,0.441017,-0.840677,0.497918,0.421846,-0.375040
1110,2823564667,-0.282850,0.110829,0.440130,-0.845003,1.324733,-0.534856,0.535401
1111,2823598001,-0.269577,0.107472,0.443359,-0.848082,0.604640,-0.394566,1.334617
1112,2823631335,-0.257160,0.103365,0.447504,-0.850268,-0.380516,-0.072330,0.695807
1113,2823664669,-0.243752,0.099305,0.453138,-0.851716,-0.336760,1.359348,-0.358808
1114,2823698003,-0.235161,0.100953,0.455760,-0.852539,-0.362091,0.940861,0.241300
1115,2823731337,-0.231666,0.107668,0.455866,-0.852617,0.609672,0.159550,0.050122
1116,2823764671,-0.228195,0.112051,0.456329,-0.852741,0.073645,0.867597,-0.286942
1117,2823798005,-0.227998,0.120269,0.454771,-0.852506,0.834374,-0.517598,-0.256907
1118,2823831339,-0.226470,0.124286,0.453324,-0.853107,1.623693,-1.632347,1.014283
1119,2823864673,-0.222063,0.123219,0.452526,-0.854843,1.502810,-0.467564,0.405928
1120,2823898007,-0.219065,0.122881,0.451831,-0.856032,0.958455,-0.427679,-0.203788
1121,2823931341,-0.217984,0.123650,0.450623,-0.856833,0.085949,-0.689934,0.068194
1122,2823964675,-0.215632,0.121212,0.448911,-0.858674,0.388384,-1.506637,1.073228
1123,2823998009,-0.211449,0.116742,0.445642,-0.862029,0.197663,-0.669471,0.637402
1124,2824031343,-0.206433,0.108425,0.444274,-0.865033,-0.440708,-0.608893,0.390474
1125,2824064677,-0.206564,0.101922,0.442182,-0.866862,-0.269805,-0.716425,0.064115
1126,2824098011,-0.209614,0.097193,0.439868,-0.867849,-0.074096,0.309908,-0.225111
1127,2824131345,-0.210589,0.089769,0.439068,-0.868818,0.555881,2.107646,-0.001583
1128,2824164679,-0.210857,0.083804,0.438148,-0.869813,-0.277879,0.288839,-0.080073
1129,2824198013,-0.214757,0.082159,0.436676,-0.869756,0.794120,-1.367974,0.227062
1130,2824231347,-0.218519,0.081262,0.434674,-0.869905,1.168595,-2.132624,1.048979
1131,2824264681,-0.219432,0.078981,0.431910,-0.871262,0.757355,-1.009655,-0.500697
1132,2824298015,-0.218863,0.076860,0.429966,-0.872555,0.605104,0.749594,-0.851567
1133,2824331349,-0.219023,0.076631,0.428062,-0.873470,0.399533,-0.219993,-0.372355
1134,2824364683,-0.220361,0.080233,0.425543,-0.874041,1.259392,-0.595278,0.835561
1135,2824398017,-0.222650,0.087659,0.421817,-0.874554,0.625003,-0.913426,0.395700
1136,2824431351,-0.225479,0.093416,0.416994,-0.875546,0.721249,-0.836235,0.147799
1137,2824464685,-0.227860,0.096992,0.413136,-0.876369,0.142007,-1.663551,0.753571
1138,2824498019,-0.230806,0.098574,0.409041,-0.877342,-0.246296,-0.996904,0.264606
1139,2824531353,-0.231556,0.094555,0.406844,-0.878607,-0.878106,-1.275961,0.914451
1140,2824564687,-0.230076,0.088538,0.406075,-0.879978,-0.453973,1.504680,-1.390779
1141,2824598021,-0.222858,0.072629,0.409740,-0.881591,-0.497135,-0.359365,0.247544
1142,2824631355,-0.215402,0.054875,0.413179,-0.883122,-0.172731,0.004694,-0.084686
1143,2824664689,-0.209881,0.041495,0.417529,-0.883136,0.034093,0.171295,0.348832
1144,2824698023,-0.206541,0.034927,0.420652,-0.882726,0.791435,1.336417,0.409045
1145,2824731357,-0.200961,0.031165,0.424231,-0.882442,0.303452,1.863841,-0.287821
1146,2824764691,-0.193017,0.030948,0.427660,-0.882567,0.471379,2.004567,-0.203370
1147,2824798025,-0.181546,0.033198,0.432080,-0.882767,-0.028652,1.690748,0.596001
1148,2824831359,-0.170803,0.040845,0.435814,-0.882755,0.711334,1.996567,0.216438
1149,2824864693,-0.160117,0.053251,0.439704,-0.882167,1.439211,1.130011,0.721880
1150,2824898027,-0.148470,0.063370,0.444342,-0.881211,1.018418,2.212700,-0.578508
1151,2824931361,-0.134355,0.064945,0.450507,-0.880230,-0.038458,0.517666,-0.994602
1152,2824964695,-0.119952,0.064989,0.457664,-0.878614,-0.829556,0.954800,0.580157
1153,2824998029,-0.105699,0.071053,0.462847,-0.877259,-0.673145,-0.079287,0.352571
1154,2825031363,-0.092805,0.080953,0.466232,-0.876067,1.370064,-0.582937,1.035428
1155,2825064697,-0.082112,0.091316,0.466933,-0.875742,1.127248,-1.282932,-0.602536
1156,2825098031,-0.074509,0.098139,0.469158,-0.874494,-1.112770,-2.441157,-3.482979
1157,2825131365,-0.066754,0.092590,0.475516,-0.872288,-2.087054,-0.705884,0.966602
1158,2825164699,-0.060556,0.090422,0.480356,-0.870314,1.485845,-1.643037,0.447551
1159,2825198033,-0.051863,0.078915,0.485449,-0.869168,-2.180114,-2.566558,-0.784971
1160,2825231367,-0.050533,0.072206,0.487884,-0.868466,-0.016527,-0.720426,3.371998
1161,2825264701,-0.057242,0.071739,0.487382,-0.868370,0.740966,-0.656995,1.765664
1162,2825298035,-0.070082,0.075406,0.485558,-0.868140,0.411465,0.048410,0.580888
1163,2825331369,-0.078434,0.078655,0.482521,-0.868831,0.150407,-0.018011,-0.251722
1164,2825364703,-0.085616,0.083741,0.480154,-0.868988,0.882782,-2.026363,-0.149729
1165,2825398037,-0.089362,0.084964,0.478426,-0.869445,0.819746,-1.486992,1.103986
1166,2825431371,-0.093480,0.086905,0.476924,-0.869646,0.141531,1.317645,-0.231013
1167,2825464705,-0.098308,0.088341,0.476037,-0.869455,-1.263457,0.468609,-0.301390
1168,2825498039,-0.106350,0.093845,0.474877,-0.868565,-0.778292,0.488846,0.306274
1169,2825531373,-0.115464,0.101795,0.473716,-0.867139,0.265796,0.191645,0.278416
1170,2825564707,-0.121059,0.105320,0.472933,-0.866382,1.477442,-0.706142,0.382989
1171,2825598041,-0.120896,0.103379,0.471396,-0.867476,2.085915,0.406270,0.374627
1172,2825631375,-0.118092,0.099350,0.470278,-0.868939,1.306217,-0.262963,-0.268297
1173,2825664709,-0.116502,0.094177,0.469145,-0.870340,0.783920,-0.030144,0.545850
1174,2825698043,-0.117024,0.093602,0.465157,-0.872470,0.267756,0.000109,0.400119
1175,2825731377,-0.117407,0.096774,0.458327,-0.875681,0.065649,-0.275683,0.357762
1176,2825764711,-0.119315,0.106454,0.449515,-0.878862,-0.683495,-1.064834,0.232388
1177,2825798045,-0.122611,0.119994,0.439793,-0.881579,-0.736390,0.239294,-1.906203
1178,2825831379,-0.123779,0.124507,0.432429,-0.884428,1.078961,-2.843466,0.824981
1179,2825864713,-0.124052,0.124922,0.424290,-0.888265,0.137382,-0.959789,1.313197
1180,2825898047,-0.123938,0.125610,0.417757,-0.891275,-0.876882,0.342637,0.596190
1181,2825931381,-0.125515,0.128853,0.412581,-0.893001,-0.776025,0.686193,-0.016123
1182,2825964715,-0.130049,0.138268,0.406584,-0.893695,-0.440274,0.815308,0.339478
1183,2825998049,-0.134845,0.151584,0.399945,-0.893820,-0.535372,1.478934,-0.256663
1184,2826031383,-0.134336,0.158211,0.396570,-0.894252,-0.589105,1.208602,0.437554
1185,2826064717,-0.130496,0.161217,0.394956,-0.894998,0.155985,0.472329,0.487511
1186,2826098051,-0.123709,0.159645,0.393072,-0.897070,1.472319,0.142020,0.477272
1187,2826131385,-0.111242,0.148689,0.391500,-0.901263,1.486621,-0.146090,0.067248
1188,2826164719,-0.101536,0.140999,0.389678,-0.904429,-0.541221,0.093808,-0.394605
1189,2826198053,-0.094699,0.138462,0.386009,-0.907132,0.985871,1.256987,-1.003989
1190,2826231387,-0.080474,0.121543,0.388105,-0.910031,-0.994910,1.562913,-0.307249
1191,2826264721,-0.063071,0.104140,0.390272,-0.912631,-0.712315,0.296745,0.396578
1192,2826298055,-0.046522,0.090669,0.390882,-0.914799,-0.870172,-0.990313,0.108155
1193,2826331389,-0.035803,0.087525,0.390244,-0.915859,-0.291587,0.418055,0.641488
1194,2826364723,-0.028974,0.091693,0.388521,-0.916425,0.185960,-0.119724,0.853539
1195,2826398057,-0.026357,0.100943,0.384671,-0.917156,-0.282346,-1.293345,-0.329914
1196,2826431391,-0.026190,0.111100,0.382164,-0.917035,-0.467774,-0.987764,-0.726437
1197,2826464725,-0.025935,0.119357,0.381274,-0.916375,0.421358,-0.139090,0.166191
1198,2826498059,-0.026340,0.127023,0.381665,-0.915169,0.043775,-1.992957,-0.613040
1199,2826531393,-0.034577,0.142333,0.383647,-0.911807,0.473155,-2.126011,0.197179
1200,2826564727,-0.049769,0.163902,0.385469,-0.906700,1.433992,-1.698500,-0.055097
1201,2826598061,-0.071325,0.188861,0.387475,-0.899521,1.608549,-3.661020,-1.832870
1202,2826631395,-0.090472,0.208523,0.385809,-0.894156,5.936272,2.252803,3.536766
1203,2826664729,-0.095263,0.203610,0.386170,-0.894635,0.949686,-0.054793,-0.916944
1204,2826698063,-0.092926,0.190764,0.390760,-0.895719,-1.705692,-1.289049,0.132668
1205,2826731397,-0.092323,0.184549,0.394709,-0.895352,1.780421,-0.544677,0.462930
1206,2826764731,-0.092496,0.173285,0.398260,-0.896012,-0.106901,-1.659302,1.094747
1207,2826798065,-0.096569,0.164568,0.401140,-0.895941,0.775159,0.078370,0.463507
1208,2826831399,-0.105043,0.159875,0.401990,-0.895456,0.898622,-0.498502,0.139025
1209,2826864733,-0.113983,0.157332,0.401268,-0.895137,-0.179477,-0.879467,0.895451
1210,2826898067,-0.122589,0.158136,0.396820,-0.895841,0.514980,0.225357,1.498613
1211,2826931401,-0.127851,0.160964,0.388123,-0.898408,-0.294519,0.425479,0.825485
1212,2826964735,-0.128254,0.164693,0.376815,-0.902479,-0.769830,1.123258,0.880133
1213,2826998069,-0.122991,0.167597,0.364339,-0.907785,-1.314233,1.638258,0.070047
1214,2827031403,-0.110650,0.163760,0.354243,-0.914047,-0.553079,1.831007,-0.357883
1215,2827064737,-0.091894,0.153682,0.347950,-0.920271,0.263991,1.151739,-1.058821
1216,2827098071,-0.071290,0.141362,0.345081,-0.925141,0.447785,0.049422,-1.948874
1217,2827131405,-0.055890,0.134026,0.344195,-0.927617,0.892779,-1.298330,-0.985150
1218,2827164739,-0.047066,0.124455,0.343106,-0.929841,1.555250,-0.970083,0.545949
1219,2827198073,-0.045011,0.116940,0.343953,-0.930605,0.811868,-1.326164,-2.403495
1220,2827231407,-0.049786,0.110320,0.354871,-0.927065,1.089728,-0.149498,-2.611856
1221,2827264741,-0.058297,0.101287,0.377906,-0.918455,-1.660740,-2.976413,-2.764559
1222,2827298075,-0.067348,0.093019,0.401909,-0.908467,4.352265,1.846462,10.631086
1223,2827331409,-0.056730,0.075482,0.412936,-0.905869,0.193819,-0.291397,3.540026
1224,2827364743,-0.064886,0.078328,0.417124,-0.903157,-3.992636,-6.524351,-1.341806
1225,2827398077,-0.079260,0.092849,0.419778,-0.899397,1.245643,4.183303,-1.515581
1226,2827431411,-0.083401,0.089579,0.424522,-0.897124,-1.621849,-2.136499,0.075194
1227,2827464745,-0.095313,0.093802,0.427899,-0.893896,-0.561159,-0.659363,-0.727765
1228,2827498079,-0.106459,0.093187,0.431629,-0.890904,0.138501,-2.600463,1.238502
1229,2827531413,-0.118425,0.092246,0.432822,-0.888911,0.937987,-2.975075,1.098241
1230,2827564747,-0.126152,0.087808,0.433770,-0.887835,2.335401,-0.411679,0.516788
1231,2827598081,-0.128928,0.077893,0.435773,-0.887380,1.800156,-0.424427,0.833677
1232,2827631415,-0.131849,0.068166,0.436576,-0.887357,1.295486,-0.196369,0.281228
1233,2827664749,-0.134734,0.059412,0.436996,-0.887346,1.448310,0.219854,-0.246100
1234,2827698083,-0.133494,0.047904,0.436538,-0.888454,0.067290,-0.572345,0.191293
1235,2827731417,-0.132779,0.042794,0.433186,-0.890460,-0.441641,-0.348099,-0.180800
1236,2827764751,-0.133744,0.042521,0.428865,-0.892419,-1.107962,-0.791389,-0.824366
1237,2827798085,-0.133827,0.040726,0.426436,-0.893653,-0.141089,-0.450707,0.268357
1238,2827831419,-0.130726,0.035606,0.424958,-0.895034,0.575955,0.888518,-0.101469
1239,2827864753,-0.122613,0.025248,0.423780,-0.897090,0.336859,-0.245617,1.237062
1240,2827898087,-0.116311,0.020154,0.420735,-0.899488,-0.000868,-0.938357,0.076892
1241,2827931421,-0.110175,0.018565,0.418335,-0.901412,0.320541,-0.277002,0.569388
1242,2827964755,-0.103003,0.017299,0.417227,-0.902798,0.344879,-0.484840,0.192766
1243,2827998089,-0.096034,0.017284,0.416162,-0.904057,0.477914,-0.344401,-0.103559
1244,2828031423,-0.087795,0.016941,0.415280,-0.905306,0.413229,-0.045477,0.132936
1245,2828064757,-0.080526,0.019192,0.415031,-0.906051,0.366266,-0.492560,0.411330
1246,2828098091,-0.077133,0.026834,0.415005,-0.906164,0.278592,-0.352873,-0.563894
1247,2828131425,-0.074346,0.033008,0.417174,-0.905196,-0.438621,-0.798315,-0.132946
1248,2828164759,-0.075226,0.046459,0.419397,-0.903504,0.232237,0.648284,0.816273
1249,2828198093,-0.070976,0.056422,0.422720,-0.901731,1.187460,0.350054,0.474668
1250,2828231427,-0.060682,0.057245,0.426284,-0.900752,0.592264,-0.728640,0.346393
1251,2828264761,-0.052752,0.057250,0.429437,-0.899753,0.058600,0.753137,0.195906
1252,2828298095,-0.046835,0.056611,0.432569,-0.898619,-0.484295,0.151016,-0.531571
1253,2828331429,-0.041391,0.054602,0.434347,-0.898153,0.578933,0.351178,0.833308
1254,2828364763,-0.036831,0.058700,0.434135,-0.898196,1.324044,0.408075,0.073855
1255,2828398097,-0.030836,0.061061,0.433198,-0.898717,0.907384,-0.072187,0.682789
1256,2828431431,-0.026494,0.064281,0.433835,-0.898323,0.722828,1.296101,-0.061310
1257,2828464765,-0.022297,0.063802,0.434817,-0.897997,0.448974,-0.469683,0.245147
1258,2828498099,-0.018680,0.063989,0.435313,-0.897825,-0.190410,-1.279933,-0.283710
1259,2828531433,-0.013287,0.064315,0.436207,-0.897464,0.628783,-0.759276,0.147445
1260,2828564767,-0.007361,0.061767,0.436257,-0.897687,0.290191,-0.884288,0.258754
1261,2828598101,-0.004601,0.061554,0.435266,-0.898201,0.507983,-0.193775,0.278907
1262,2828631435,-0.005479,0.064229,0.434242,-0.898504,1.366631,0.430272,0.190319
1263,2828664769,-0.005440,0.062527,0.432751,-0.899343,0.065660,-0.561314,-0.224818
1264,2828698103,-0.005782,0.061375,0.431996,-0.899784,1.272178,-0.487107,1.187221
1265,2828731437,-0.005596,0.059462,0.430168,-0.900788,0.989753,-0.737199,-0.009097
1266,2828764771,-0.005017,0.056413,0.429824,-0.901152,0.746925,0.469916,0.244321
1267,2828798105,-0.006473,0.053736,0.427735,-0.902299,0.529756,-0.628659,0.129107
1268,2828831439,-0.008978,0.052110,0.425082,-0.903626,0.631726,-0.131099,0.196338
1269,2828864773,-0.011252,0.050667,0.422369,-0.904954,0.672243,0.091444,0.343695
1270,2828898107,-0.014042,0.048160,0.420602,-0.905874,0.159227,-0.376882,-0.436443
1271,2828931441,-0.017410,0.043441,0.420112,-0.906282,0.199907,-0.569635,0.273961
1272,2828964775,-0.022084,0.042542,0.420918,-0.905849,-0.446357,-0.315772,-0.147723
1273,2828998109,-0.026228,0.042796,0.424043,-0.904267,0.859363,0.654219,1.001976
1274,2829031443,-0.029244,0.040382,0.428454,-0.902204,-0.178454,0.719565,-0.194243
1275,2829064777,-0.031555,0.036000,0.435535,-0.898915,0.695726,0.425008,0.864236
1276,2829098111,-0.034091,0.029117,0.442353,-0.895737,-0.315946,0.070031,0.199860
1277,2829131445,-0.036951,0.022573,0.449310,-0.892343,-0.402594,0.496487,0.171232
1278,2829164779,-0.041543,0.017624,0.453938,-0.889907,-0.439300,0.339454,-0.550778
1279,2829198113,-0.044677,0.012103,0.457651,-0.887944,0.064036,0.310300,0.179974
1280,2829231447,-0.044803,0.003386,0.459581,-0.887016,-0.739455,-0.450842,-0.267395
1281,2829264781,-0.045902,-0.001642,0.459904,-0.886797,0.281478,-0.175395,0.027924
1282,2829298115,-0.046347,-0.005510,0.460329,-0.886538,0.218919,-0.251658,0.467833
1283,2829331449,-0.050037,-0.005645,0.460629,-0.886181,-0.182172,-1.322765,0.251452
1284,2829364783,-0.054042,-0.005114,0.460964,-0.885775,0.100304,0.060191,-0.120417
1285,2829398117,-0.056397,-0.004058,0.461032,-0.885598,0.543068,0.492874,0.272888
1286,2829431451,-0.057616,-0.004285,0.458916,-0.886617,0.073339,-0.389939,0.009591
1287,2829464785,-0.059129,-0.003259,0.456945,-0.887539,0.196512,-0.281362,0.085080
1288,2829498119,-0.061944,-0.001493,0.453634,-0.889049,0.514490,-0.668216,0.301888
1289,2829531453,-0.063921,-0.000670,0.451004,-0.890247,0.265099,-0.408987,0.204025
1290,2829564787,-0.065565,0.002063,0.447869,-0.891707,0.539958,0.133745,-0.299706
1291,2829598121,-0.064000,0.003472,0.445022,-0.893241,-0.021014,-0.671841,0.032379
1292,2829631455,-0.063207,0.006283,0.441894,-0.894833,0.259253,-0.402323,0.647804
1293,2829664789,-0.061373,0.009422,0.438569,-0.896568,-0.519481,-0.455889,-0.209966
1294,2829698123,-0.058535,0.013553,0.436125,-0.897895,0.420108,0.147532,0.189615
1295,2829731457,-0.054109,0.014950,0.433386,-0.899476,0.682245,-0.322877,0.544548
1296,2829764791,-0.046267,0.012052,0.432187,-0.900533,-0.451470,0.473189,-0.472077
1297,2829798125,-0.034471,0.003657,0.432190,-0.901133,1.025308,-0.530518,1.323880
1298,2829831459,-0.024312,-0.003600,0.431769,-0.901667,1.149179,-1.600765,0.340269
1299,2829864793,-0.017457,-0.006179,0.430562,-0.902388,0.356012,-0.904174,0.376348
1300,2829898127,-0.009534,-0.007435,0.429575,-0.902967,0.700100,-0.288239,-0.013532
1301,2829931461,-0.001049,-0.005818,0.425826,-0.904803,0.639577,-0.158633,0.715653
1302,2829964795,0.008365,-0.001566,0.421719,-0.906704,-0.554611,0.195200,0.978207
1303,2829998129,0.011635,0.012502,0.418406,-0.908117,-0.797699,1.136496,0.206052
1304,2830031463,0.016919,0.023025,0.416130,-0.908873,-1.144789,0.320578,0.545231
1305,2830064797,0.019264,0.037359,0.411544,-0.910437,-1.146214,0.731437,0.060637
1306,2830098131,0.024113,0.050466,0.405481,-0.912408,-2.388715,0.000486,-0.338727
1307,2830131465,0.030283,0.062176,0.399116,-0.914306,-3.923229,-1.128138,-0.982266
1308,2830164799,0.034331,0.076613,0.393999,-0.915285,-3.133965,0.167591,-0.554434
1309,2830198133,0.038427,0.087773,0.390632,-0.915564,-2.902355,0.060541,-0.588903
1310,2830231467,0.041838,0.097304,0.388375,-0.915411,-1.658828,0.512377,-0.650179
1311,2830264801,0.047149,0.098815,0.386905,-0.915614,-0.011119,1.160040,0.275533
1312,2830298135,0.053793,0.093686,0.387289,-0.915624,0.220032,0.620654,-0.188910
1313,2830331469,0.059702,0.088729,0.389467,-0.914828,0.966947,0.678323,0.787127
1314,2830364803,0.062019,0.089564,0.392857,-0.913141,1.529293,-0.038536,1.915440
1315,2830398137,0.060137,0.095168,0.395396,-0.911603,3.183583,1.296686,1.792442
1316,2830431471,0.062702,0.090875,0.394336,-0.912327,3.509710,0.410359,1.461459
1317,2830464805,0.062773,0.093294,0.390626,-0.913673,2.350708,0.301926,-0.456573
1318,2830498139,0.059895,0.100806,0.387723,-0.914305,1.762264,1.031854,-0.939133
1319,2830531473,0.059115,0.101804,0.385447,-0.915207,1.408699,0.493687,-0.627425
1320,2830564807,0.058490,0.100908,0.384314,-0.915822,0.661390,-0.319208,-0.612604
1321,2830598141,0.055584,0.104300,0.384308,-0.915626,0.788566,-0.121402,-0.060177
1322,2830631475,0.049980,0.111966,0.386070,-0.914301,-0.852218,-0.613839,-0.384043
1323,2830664809,0.036812,0.125156,0.390929,-0.911146,-1.813724,0.183716,0.984994
1324,2830698143,0.020051,0.133206,0.394178,-0.909126,-1.684889,0.491598,2.503690
1325,2830731477,0.000319,0.140197,0.396206,-0.907412,-2.151817,0.670969,1.006283
1326,2830764811,-0.019358,0.151601,0.397217,-0.904927,-1.226304,1.163182,-0.596684
1327,2830798145,-0.031956,0.159145,0.397913,-0.902967,0.007996,0.631083,-1.005311
1328,2830831479,-0.037067,0.158060,0.399669,-0.902186,-0.236066,-0.271376,-1.545445
1329,2830864813,-0.039373,0.149062,0.404932,-0.901272,-0.179203,-0.913832,-0.689687
1330,2830898147,-0.043865,0.137999,0.411803,-0.899712,0.032445,-1.761682,-0.239982
1331,2830931481,-0.055012,0.133583,0.417941,-0.896931,1.553539,-1.758147,1.450321
1332,2830964815,-0.064949,0.128825,0.419699,-0.896142,2.264329,-0.562666,0.733340
1333,2830998149,-0.073033,0.127987,0.420756,-0.895143,2.157361,-0.430398,0.257390
1334,2831031483,-0.079598,0.126242,0.422016,-0.894237,1.213494,-0.703711,-0.200139
1335,2831064817,-0.086485,0.122130,0.425320,-0.892603,-0.450764,0.288704,-0.727704
1336,2831098151,-0.089338,0.107784,0.431978,-0.890970,-2.779794,-0.573388,0.767758
1337,2831131485,-0.087542,0.092760,0.438019,-0.889889,-1.957708,-1.061677,1.081100
1338,2831164819,-0.086984,0.087087,0.442197,-0.888450,0.050254,-1.744976,1.139262
1339,2831198153,-0.089031,0.084006,0.441701,-0.888790,0.686826,-2.100090,0.371612
1340,2831231487,-0.098855,0.087441,0.440032,-0.888248,0.423100,0.395750,-1.279985
1341,2831264821,-0.109110,0.092532,0.439886,-0.886603,0.979909,2.296955,0.877118
1342,2831298155,-0.114673,0.096283,0.438822,-0.886028,-1.044351,1.409881,0.073757
1343,2831331489,-0.119099,0.102321,0.438022,-0.885163,-1.039500,1.255979,-0.339735
1344,2831364823,-0.121291,0.104808,0.438045,-0.884563,-0.313051,-0.050323,-0.708788
1345,2831398157,-0.123110,0.105035,0.438565,-0.884027,-0.303763,-0.527149,0.395191
1346,2831431491,-0.124988,0.106198,0.437948,-0.883930,-0.481874,-0.137023,0.461919
1347,2831464825,-0.126065,0.107206,0.437833,-0.883713,-0.022125,0.213322,-0.099885
1348,2831498159,-0.126787,0.106606,0.437857,-0.883670,0.386323,-0.279539,0.633895
1349,2831531493,-0.129202,0.107357,0.437788,-0.883263,0.186386,0.039276,0.352859
1350,2831564827,-0.131105,0.107525,0.438023,-0.882846,0.305346,0.240860,0.350657
1351,2831598161,-0.132147,0.106482,0.438047,-0.882805,-0.172286,-0.151673,0.050895
1352,2831631495,-0.133288,0.106228,0.437817,-0.882778,-0.330890,-0.119546,-0.126076
1353,2831664829,-0.132967,0.104430,0.438170,-0.882866,0.371379,-0.148438,0.441086
1354,2831698163,-0.132663,0.102878,0.438020,-0.883169,0.023919,-0.451074,0.296227
1355,2831731497,-0.133994,0.102840,0.438007,-0.882978,0.147768,0.193978,0.079145
1356,2831764831,-0.134668,0.101628,0.438463,-0.882790,0.390522,0.083137,0.320592
1357,2831798165,-0.134798,0.100806,0.438557,-0.882817,-0.135771,-0.113925,-0.061843
1358,2831831499,-0.134712,0.099786,0.439399,-0.882528,-0.100742,-0.037116,0.254179
1359,2831864833,-0.134920,0.098678,0.440233,-0.882205,0.064900,-0.357661,0.192980
1360,2831898167,-0.135649,0.098070,0.440693,-0.881931,-0.131180,-0.333352,0.239299
1361,2831931501,-0.136168,0.097425,0.441140,-0.881699,0.039716,-0.001243,0.052681
1362,2831964835,-0.136540,0.096781,0.441372,-0.881596,0.212317,-0.310457,0.288069
1363,2831998169,-0.137359,0.097176,0.441327,-0.881448,0.222996,-0.216074,0.038379
1364,2832031503,-0.137915,0.096689,0.441711,-0.881223,0.362362,-0.323714,0.291393
1365,2832064837,-0.138478,0.096333,0.441920,-0.881068,0.205028,-0.342293,0.230995
1366,2832098171,-0.139062,0.096198,0.442174,-0.880864,0.288390,-0.429980,0.125699
1367,2832131505,-0.139194,0.095336,0.442235,-0.880906,0.388280,-0.251390,0.232053
1368,2832164839,-0.139199,0.095010,0.441674,-0.881222,0.224826,-0.627132,0.045830
1369,2832198173,-0.138665,0.094405,0.441291,-0.881563,0.615744,-0.540352,0.133753
1370,2832231507,-0.137820,0.092643,0.440829,-0.882113,0.722357,-0.875862,0.334159
1371,2832264841,-0.137369,0.091515,0.440042,-0.882694,0.563297,-0.250235,0.139678
1372,2832298175,-0.136892,0.091166,0.439364,-0.883142,0.764630,-0.102709,0.191699
1373,2832331509,-0.136422,0.089531,0.439491,-0.883319,0.322810,-0.632811,0.274576
1374,2832364843,-0.135839,0.086854,0.440106,-0.883370,0.316963,-0.790257,0.396224
1375,2832398177,-0.133802,0.083343,0.440931,-0.883607,0.298710,-0.338423,0.179601
1376,2832431511,-0.130549,0.080113,0.440731,-0.884492,-0.074102,-0.327305,0.042768
1377,2832464845,-0.128340,0.080786,0.438909,-0.885659,0.389691,0.002451,0.099316
1378,2832498179,-0.127923,0.084608,0.435717,-0.886938,0.225940,-0.581475,0.299312
1379,2832531513,-0.127948,0.089923,0.432684,-0.887896,0.378482,-0.524400,0.118868
1380,2832564847,-0.125531,0.093589,0.430840,-0.888758,0.846120,-0.327796,0.282980
1381,2832598181,-0.120664,0.094880,0.429520,-0.889934,0.061150,-0.960282,-0.109597
1382,2832631515,-0.115347,0.096786,0.428278,-0.891031,0.822749,-0.812007,0.510368
1383,2832664849,-0.109918,0.098392,0.427381,-0.891972,-0.181627,-0.302973,-0.274714
1384,2832698183,-0.104317,0.100401,0.427402,-0.892411,0.072532,-0.333805,0.728701
1385,2832731517,-0.099014,0.103879,0.427177,-0.892724,0.323991,-0.954947,0.480411
1386,2832764851,-0.094155,0.107216,0.428440,-0.892250,-0.092040,0.235420,0.353349
1387,2832798185,-0.087922,0.109301,0.430845,-0.891474,0.634407,0.004553,0.454291
1388,2832831519,-0.081539,0.110761,0.433853,-0.890441,0.468104,-0.049118,0.036786
1389,2832864853,-0.072826,0.108546,0.437577,-0.889647,-0.654869,0.571794,0.088334
1390,2832898187,-0.063420,0.108273,0.440430,-0.888992,-0.295939,0.119329,0.314380
1391,2832931521,-0.055821,0.110639,0.441560,-0.888650,-0.916259,-0.324173,-0.085077
1392,2832964855,-0.049192,0.112496,0.443515,-0.887835,-0.291040,0.379622,0.374539
1393,2832998189,-0.043294,0.112339,0.444984,-0.887426,-0.109816,-0.745603,0.410257
1394,2833031523,-0.039752,0.113929,0.445849,-0.886955,-0.014520,-0.359458,0.081454
1395,2833064857,-0.034934,0.113252,0.445822,-0.887258,-0.480938,0.098532,-0.082716
1396,2833098191,-0.030319,0.112098,0.446603,-0.887182,-0.531581,0.433498,-0.067093
1397,2833131525,-0.026165,0.110387,0.447612,-0.887020,0.072743,0.041740,0.283470
1398,2833164859,-0.021811,0.108567,0.447972,-0.887181,0.607814,0.617720,0.530582
1399,2833198193,-0.015844,0.105311,0.448781,-0.887291,-0.836456,0.165709,-0.563579
1400,2833231527,-0.013989,0.103325,0.451037,-0.886411,-0.355381,0.588361,0.445642
1401,2833264861,-0.013498,0.100836,0.452799,-0.885807,0.214131,-0.226377,0.585482
1402,2833298195,-0.011181,0.099606,0.453950,-0.885389,0.479209,0.686904,0.024885
1403,2833331529,-0.008968,0.100248,0.454588,-0.885015,0.572323,0.737317,-0.238128
1404,2833364863,-0.007150,0.102330,0.454459,-0.884859,0.643822,0.396664,0.035549
1405,2833398197,-0.003987,0.103955,0.454353,-0.884744,0.903893,0.139939,0.443202
1406,2833431531,0.000830,0.103569,0.454371,-0.884789,0.278665,-0.223153,0.048013
1407,2833464865,0.005445,0.101724,0.455071,-0.884627,0.269232,-0.748399,0.104363
1408,2833498199,0.008400,0.098661,0.456190,-0.884374,0.308347,-0.927794,0.653679
1409,2833531533,0.008835,0.096305,0.456124,-0.884664,-0.400601,-0.960418,0.118291
1410,2833564867,0.007171,0.096734,0.455686,-0.884858,0.199033,0.230869,0.120393
1411,2833598201,0.004687,0.098377,0.453943,-0.885588,0.532964,0.151132,0.098742
1412,2833631535,0.001914,0.098862,0.451785,-0.886648,0.266113,-0.658681,-0.123615
1413,2833664869,-0.000791,0.097587,0.450711,-0.887337,0.414275,-0.668567,0.603495
1414,2833698203,-0.004152,0.096161,0.449801,-0.887945,0.318558,-0.264274,-0.093149
1415,2833731537,-0.006894,0.093491,0.448727,-0.888756,0.216929,-0.180906,-0.057240
1416,2833764871,-0.010377,0.090243,0.447979,-0.889435,0.354152,-0.350715,0.456130
1417,2833798205,-0.014995,0.088330,0.447140,-0.889983,0.673612,-0.345198,0.417815
1418,2833831539,-0.021493,0.088988,0.445457,-0.890628,0.699916,-0.416393,0.323655
1419,2833864873,-0.029048,0.089536,0.443590,-0.891291,-0.296624,-1.002991,0.121756
1420,2833898207,-0.038581,0.091329,0.441973,-0.891550,-0.256047,-0.385251,0.345277
1421,2833931541,-0.049751,0.094509,0.441459,-0.890920,-0.249488,0.225162,0.410047
1422,2833964875,-0.060717,0.097249,0.442555,-0.889400,0.307167,0.578003,0.798531
1423,2833998209,-0.069489,0.097318,0.445248,-0.887404,-0.082273,0.521088,-0.245948
1424,2834031543,-0.073449,0.092211,0.450662,-0.884894,0.115567,0.904687,-0.446638
1425,2834064877,-0.073520,0.081438,0.456829,-0.882780,-0.944534,0.410419,-0.517303
1426,2834098211,-0.074017,0.071816,0.462670,-0.880529,-0.106223,0.414428,0.561065
1427,2834131545,-0.077592,0.066851,0.466450,-0.878616,-0.277104,-0.334386,0.704729
1428,2834164879,-0.084876,0.064766,0.469752,-0.876337,0.342664,0.717084,-0.248933
1429,2834198213,-0.090829,0.059600,0.473084,-0.874312,-0.345547,0.172575,-0.369110
1430,2834231547,-0.096491,0.054168,0.476585,-0.872154,0.479403,-0.453588,0.503664
1431,2834264881,-0.101671,0.048901,0.479365,-0.870352,-0.008297,-0.808607,0.746495
1432,2834298215,-0.106750,0.045160,0.481278,-0.868889,-0.056469,-0.352417,0.207444
1433,2834331549,-0.112073,0.043331,0.481788,-0.868029,0.510052,-0.193368,-0.037594
1434,2834364883,-0.117030,0.040670,0.481510,-0.867657,-0.334704,-0.161446,0.183934
1435,2834398217,-0.121325,0.037672,0.481471,-0.867224,-0.204702,-0.246606,0.166432
1436,2834431551,-0.125630,0.036111,0.480940,-0.866972,0.452853,-0.312611,0.300299
1437,2834464885,-0.128616,0.034760,0.479247,-0.867527,0.794824,0.145725,0.250106
1438,2834498219,-0.131543,0.033204,0.476887,-0.868449,0.145493,0.001812,-0.231920
1439,2834531553,-0.132711,0.030915,0.474789,-0.869505,-0.287074,-0.654699,0.098824
1440,2834564887,-0.133004,0.029325,0.472177,-0.870936,0.598035,-0.615469,0.441209
1441,2834598221,-0.133818,0.028057,0.468936,-0.872603,-0.366106,-0.991623,0.204217
1442,2834631555,-0.136887,0.029595,0.465430,-0.873952,0.520190,0.219756,0.072771
1443,2834664889,-0.140652,0.030530,0.461241,-0.875541,-0.121675,-0.123629,0.366570
1444,2834698223,-0.144741,0.032820,0.457015,-0.877007,-0.008646,0.210936,-0.275314
1445,2834731557,-0.147591,0.034698,0.453054,-0.878514,0.083193,-0.454740,0.066095
1446,2834764891,-0.148387,0.036833,0.448751,-0.880499,0.361696,-0.545515,0.006824
1447,2834798225,-0.147967,0.037910,0.445211,-0.882319,-0.094701,-0.544073,0.280536
1448,2834831559,-0.147925,0.040065,0.442021,-0.883834,0.705912,-0.132469,0.456779
1449,2834864893,-0.147387,0.042075,0.438388,-0.885638,0.345609,-0.786402,0.418102
1450,2834898227,-0.146987,0.043902,0.434894,-0.887336,0.475836,-0.325090,0.331248
1451,2834931561,-0.147153,0.046262,0.430696,-0.889235,0.411825,-0.260106,-0.162394
1452,2834964895,-0.147363,0.050226,0.426284,-0.891109,0.525288,0.214474,0.377160
1453,2834998229,-0.148493,0.055228,0.420742,-0.893256,0.132055,-1.018173,-0.028569
1454,2835031563,-0.147456,0.055757,0.417702,-0.894821,0.072290,0.216923,0.340291
1455,2835064897,-0.146438,0.056490,0.414150,-0.896591,-0.349208,-0.677380,0.538561
1456,2835098231,-0.146657,0.061183,0.409843,-0.898225,0.076460,0.314341,-0.613986
1457,2835131565,-0.144626,0.066071,0.406919,-0.899537,-0.169512,0.133782,0.472736
1458,2835164899,-0.143668,0.073955,0.403264,-0.900722,-0.664507,-0.548715,-0.212328
1459,2835198233,-0.140990,0.080193,0.401775,-0.901276,-0.412384,-0.285488,-0.143881
1460,2835231567,-0.137714,0.084764,0.400837,-0.901782,-0.562501,-0.315139,0.204709
1461,2835264901,-0.134856,0.089855,0.399856,-0.902157,0.377609,0.015172,0.548109
1462,2835298235,-0.131566,0.094629,0.397692,-0.903110,0.018779,0.527822,0.028392
1463,2835331569,-0.128515,0.099517,0.395645,-0.903923,0.364493,0.592117,0.324906
1464,2835364903,-0.125635,0.104522,0.392438,-0.905160,-0.312131,0.009878,0.290416
1465,2835398237,-0.124854,0.111074,0.388858,-0.906032,-0.513319,0.004469,0.008757
1466,2835431571,-0.124951,0.117676,0.385190,-0.906752,-0.049980,0.315233,0.494809
