sep=,
DeviceTag:,D_leg_new
FirmwareVersion:,2.2.1
AppVersion:,2023.6.0
SyncStatus:,Un-synced
OutputRate:,30Hz
FilterProfile:,General
Measurement Mode:,Sensor fusion Mode - Complete(Quaternion)
StartTime: ,2026-09-07_15:01:48_849 AEST
© Movella Technologies B. V. 2005-2026

PacketCounter,SampleTimeFine,Quat_W,Quat_X,Quat_Y,Quat_Z,FreeAcc_X,FreeAcc_Y,FreeAcc_Z
1,397408237,0.177867,-0.770433,-0.184617,-0.583707,0.043199,-0.142554,0.255706
2,397441571,0.175179,-0.770507,-0.185381,-0.584179,0.065717,-0.227328,0.197624
3,397474905,0.173142,-0.770561,-0.186889,-0.584235,-0.248502,-0.635944,0.074561
4,397508239,0.169444,-0.771804,-0.187266,-0.583557,-0.235201,-0.369132,0.325934
5,397541573,0.165386,-0.773109,-0.186151,-0.583350,0.336668,-0.886472,0.213452
6,397574907,0.163520,-0.773042,-0.187754,-0.583452,1.113453,-0.611980,0.388371
7,397608241,0.162542,-0.770789,-0.189383,-0.586173,1.732471,-0.127607,0.482236
8,397641575,0.161652,-0.767904,-0.189772,-0.590067,1.417937,0.088134,-0.247001
9,397674909,0.163599,-0.765985,-0.190110,-0.591913,0.237323,0.155621,-0.049131
10,397708243,0.163720,-0.765101,-0.188887,-0.593412,-0.083712,-0.670891,0.798134
11,397741577,0.162121,-0.763177,-0.188143,-0.596557,0.206685,0.068940,0.388734
12,397774911,0.164619,-0.759862,-0.190253,-0.599428,0.329199,0.576173,0.061162
13,397808245,0.170306,-0.755553,-0.194351,-0.601966,0.347030,0.731401,-0.097204
14,397841579,0.178907,-0.749682,-0.200385,-0.604827,0.230997,0.531863,0.171288
15,397874913,0.187916,-0.743386,-0.206624,-0.607759,-0.024348,0.455418,0.291956
16,397908247,0.196031,-0.736793,-0.211965,-0.611374,0.087036,0.232409,0.296643
17,397941581,0.204694,-0.728607,-0.217239,-0.616474,0.276014,0.551616,0.122705
18,397974915,0.214662,-0.719799,-0.222681,-0.621469,0.250284,0.514835,0.170325
19,398008249,0.226531,-0.709252,-0.227934,-0.627448,0.309920,0.577784,0.323431
20,398041583,0.238440,-0.696563,-0.233517,-0.635151,1.294788,-0.192346,0.323235
21,398074917,0.250881,-0.684398,-0.240489,-0.640955,-0.344539,0.241347,0.543397
22,398108251,0.263670,-0.674713,-0.246102,-0.643952,-2.157261,0.359445,0.140635
23,398141585,0.270784,-0.668671,-0.246919,-0.646983,-1.584093,-0.610622,-0.216977
24,398174919,0.273074,-0.666392,-0.244967,-0.649109,-1.185076,-1.066467,-0.289221
25,398208253,0.273252,-0.666367,-0.242064,-0.650149,-0.580713,-0.441371,-0.190501
26,398241587,0.274277,-0.667213,-0.240119,-0.649570,-0.522740,0.546663,-0.173367
27,398274921,0.277791,-0.667610,-0.238812,-0.648149,-0.325932,0.758466,0.462089
28,398308255,0.281360,-0.667708,-0.237204,-0.647099,-0.050720,0.140527,0.482134
29,398341589,0.282961,-0.668841,-0.234833,-0.646095,0.486587,-0.421439,0.117683
30,398374923,0.282969,-0.671299,-0.231397,-0.644780,0.190855,0.307717,0.149563
31,398408257,0.283039,-0.673242,-0.226654,-0.644408,0.155547,0.318998,0.256590
32,398441591,0.282971,-0.674715,-0.222185,-0.644454,0.386481,0.027807,0.279407
33,398474925,0.281850,-0.676283,-0.217614,-0.644861,0.191676,0.107938,0.020435
34,398508259,0.280369,-0.677574,-0.213630,-0.645484,-0.095601,0.530882,-0.054319
35,398541593,0.280053,-0.678108,-0.210941,-0.645945,-0.205923,0.601175,-0.024743
36,398574927,0.280821,-0.677615,-0.209095,-0.646728,-0.388451,0.408753,-0.171509
37,398608261,0.282337,-0.676591,-0.207917,-0.647520,-0.220375,0.144652,0.064371
38,398641595,0.284264,-0.675298,-0.207107,-0.648285,-0.340446,-0.244814,0.198104
39,398674929,0.285144,-0.674673,-0.205631,-0.649019,-0.258094,-0.483835,0.094049
40,398708263,0.285273,-0.673782,-0.203817,-0.650459,-0.022761,-0.218897,0.506603
41,398741597,0.286341,-0.672659,-0.203748,-0.651173,-0.893269,0.065069,0.082246
42,398774931,0.286450,-0.672941,-0.203821,-0.650810,-1.206451,-0.340008,-0.078694
43,398808265,0.285476,-0.674531,-0.203221,-0.649779,-1.328798,-0.221763,-0.004639
44,398841599,0.284612,-0.675876,-0.202227,-0.649070,-1.008296,0.484810,-0.090575
45,398874933,0.286131,-0.675925,-0.202857,-0.648155,-0.842029,0.971269,0.199059
46,398908267,0.288452,-0.676135,-0.204801,-0.646293,0.032947,0.061157,0.380365
47,398941601,0.288812,-0.677440,-0.204306,-0.644920,0.565821,-0.042881,0.362950
48,398974935,0.288029,-0.678887,-0.202145,-0.644430,0.852640,0.061272,0.331196
49,399008269,0.286759,-0.680386,-0.199752,-0.644161,0.933774,-0.267380,0.333937
50,399041603,0.283405,-0.682118,-0.195314,-0.645174,0.645635,-0.256608,0.200212
51,399074937,0.277723,-0.684486,-0.188313,-0.647216,0.202991,-0.036565,-0.001000
52,399108271,0.271422,-0.687220,-0.180007,-0.649351,0.148197,0.141694,0.177164
53,399141605,0.265859,-0.689999,-0.172320,-0.650790,0.332192,-0.071820,-0.022063
54,399174939,0.260260,-0.692887,-0.164996,-0.651882,0.478351,-0.465716,-0.022612
55,399208273,0.254898,-0.694509,-0.157629,-0.654094,0.678077,-0.503902,0.022402
56,399241607,0.249601,-0.696338,-0.150392,-0.655894,-0.226298,-0.668980,0.043251
57,399274941,0.241838,-0.699189,-0.141067,-0.657837,-0.533696,-1.055412,-0.153568
58,399308275,0.230949,-0.702615,-0.129554,-0.660464,-0.620219,-0.797828,-0.066078
59,399341609,0.217996,-0.705809,-0.117372,-0.663729,-0.828989,0.113857,0.253489
60,399374943,0.205806,-0.708444,-0.106551,-0.666633,-0.471706,0.644035,0.367947
61,399408277,0.195968,-0.710684,-0.097566,-0.668585,-0.218141,0.555561,0.368152
62,399441611,0.187133,-0.713273,-0.088944,-0.669562,0.021243,0.302192,0.592484
63,399474945,0.177905,-0.714737,-0.079481,-0.671703,0.360712,0.258735,0.358356
64,399508279,0.168440,-0.715685,-0.069480,-0.674238,0.293698,0.091559,0.408719
65,399541613,0.159358,-0.716073,-0.059337,-0.676997,0.301629,0.055776,0.443882
66,399574947,0.151044,-0.714820,-0.050013,-0.680969,-0.120867,0.039721,0.347694
67,399608281,0.142508,-0.714044,-0.040945,-0.684220,-0.860778,0.035658,0.266228
68,399641615,0.134965,-0.712929,-0.031930,-0.687385,-1.249437,0.230158,0.262753
69,399674949,0.128676,-0.712815,-0.023434,-0.689050,-1.348843,0.257085,0.061337
70,399708283,0.122626,-0.713396,-0.014787,-0.689791,-1.315145,0.338796,-0.118416
71,399741617,0.118014,-0.714370,-0.007817,-0.689702,-0.971559,-0.119991,-0.261787
72,399774951,0.113049,-0.716109,-0.001323,-0.688772,-0.989396,-0.250589,-0.281621
73,399808285,0.107009,-0.717964,0.005848,-0.687782,-0.455343,0.148879,0.236627
74,399841619,0.102227,-0.720128,0.011699,-0.686171,-0.227436,0.338126,0.331822
75,399874953,0.098568,-0.721994,0.016208,-0.684652,0.051440,0.575524,0.493854
76,399908287,0.096342,-0.722948,0.018815,-0.683895,0.286900,0.771567,0.378446
77,399941621,0.096900,-0.723276,0.018452,-0.683479,0.163517,0.803562,0.219756
78,399974955,0.100269,-0.722881,0.015199,-0.683491,0.104357,0.528196,0.545147
79,400008289,0.102504,-0.720894,0.013308,-0.685294,0.679831,2.069707,0.635429
80,400041623,0.112741,-0.716313,0.006568,-0.688581,1.520127,2.681783,0.498965
81,400074957,0.127845,-0.710464,-0.005926,-0.692000,-0.255496,2.028983,1.056859
82,400108291,0.150304,-0.701434,-0.025241,-0.696249,0.191582,0.600846,0.821727
83,400141625,0.174693,-0.691519,-0.047210,-0.699326,-0.098696,0.103067,0.397350
84,400174959,0.194793,-0.682445,-0.067096,-0.701302,-0.670075,-1.148816,-0.125487
85,400208293,0.208710,-0.674327,-0.083218,-0.703420,-0.706603,-2.721201,-0.441242
86,400241627,0.216147,-0.666182,-0.091787,-0.707855,-0.936521,-1.815991,0.020222
87,400274961,0.220634,-0.659351,-0.093475,-0.712629,-2.270172,0.159661,-0.041059
88,400308295,0.225833,-0.655964,-0.095078,-0.713913,-3.113262,-0.777687,-0.291883
89,400341629,0.233429,-0.654020,-0.098668,-0.712765,-2.457201,-0.231507,-0.106900
90,400374963,0.244468,-0.653187,-0.109815,-0.708184,-1.357536,-0.481273,-0.664992
91,400408297,0.257051,-0.653826,-0.126793,-0.700258,-1.217312,0.019221,-1.041020
92,400441631,0.269221,-0.655465,-0.144696,-0.690616,-0.718822,0.076677,-1.036218
93,400474965,0.280159,-0.656616,-0.159539,-0.681847,0.367748,-0.330052,-0.551764
94,400508299,0.290318,-0.654599,-0.173594,-0.676079,1.683023,-0.432173,1.087668
95,400541633,0.308400,-0.640823,-0.196042,-0.675133,3.830368,1.052409,2.267571
96,400574967,0.328461,-0.622804,-0.226724,-0.672924,4.210646,-0.833023,1.615999
97,400608301,0.350262,-0.614831,-0.257799,-0.657907,-1.731321,0.959449,0.207728
98,400641635,0.358729,-0.610736,-0.264816,-0.654362,0.108226,-0.280687,-0.781960
99,400674969,0.360035,-0.611483,-0.268407,-0.651477,1.046800,-2.225895,-0.380485
100,400708303,0.355922,-0.615417,-0.269616,-0.649531,0.030568,-2.273808,0.267785
101,400741637,0.346713,-0.619369,-0.265632,-0.652391,-1.140435,0.536743,0.266981
102,400774971,0.340740,-0.622893,-0.263786,-0.652931,-0.316842,0.890258,-0.208295
103,400808305,0.340432,-0.626728,-0.266647,-0.648243,0.256025,0.311284,0.231187
104,400841639,0.340197,-0.631213,-0.270785,-0.642272,0.745493,-0.161124,0.424700
105,400874973,0.336726,-0.636538,-0.273690,-0.637597,0.288559,-0.098606,0.223556
106,400908307,0.332500,-0.641303,-0.273837,-0.634972,0.664135,-0.006753,-0.021372
107,400941641,0.329141,-0.646354,-0.273752,-0.631628,0.554754,-0.881153,0.063216
108,400974975,0.323914,-0.653080,-0.273013,-0.627719,0.156996,-0.806811,0.094750
109,401008309,0.316266,-0.661574,-0.270891,-0.623631,-0.104898,0.010170,-0.028756
110,401041643,0.306353,-0.672223,-0.267282,-0.618729,0.252050,0.091607,-0.240767
111,401074977,0.294078,-0.685001,-0.262143,-0.612841,0.419758,-0.298510,0.177697
112,401108311,0.282401,-0.695997,-0.256921,-0.608138,-0.141389,-0.649643,0.534130
113,401141645,0.273956,-0.703103,-0.251910,-0.605918,-0.259605,-0.398251,0.399104
114,401174979,0.266254,-0.709588,-0.246877,-0.603859,-0.038480,-0.518071,0.167840
115,401208313,0.258417,-0.716482,-0.241877,-0.601141,-0.237933,-0.630358,0.061495
116,401241647,0.249888,-0.722639,-0.235144,-0.600048,0.628727,-0.176527,0.575278
117,401274981,0.240973,-0.726715,-0.227790,-0.601607,1.339082,0.510395,0.415921
118,401308315,0.233372,-0.729980,-0.222313,-0.602698,0.650619,0.206359,0.236169
119,401341649,0.227951,-0.733463,-0.219639,-0.601524,-0.296545,0.008741,-0.006739
120,401374983,0.225399,-0.736048,-0.219070,-0.599532,-0.335489,-0.299835,0.223783
121,401408317,0.221949,-0.738205,-0.217240,-0.598833,0.096171,-0.315915,0.118237
122,401441651,0.217633,-0.740387,-0.214672,-0.598649,0.311812,-0.482996,0.237385
123,401474985,0.213466,-0.742856,-0.212696,-0.597796,0.045278,-0.339780,0.200158
124,401508319,0.209794,-0.745264,-0.211073,-0.596673,-0.098352,-0.339002,0.170793
125,401541653,0.206390,-0.746881,-0.209534,-0.596380,0.017107,-0.010037,0.200195
126,401574987,0.202987,-0.748205,-0.208115,-0.596386,0.081536,-0.276855,0.224385
127,401608321,0.200598,-0.749311,-0.207540,-0.596005,0.093382,-0.399316,0.139024
128,401641655,0.198664,-0.750273,-0.207051,-0.595613,0.011288,-0.400359,0.210076
129,401674989,0.195632,-0.751357,-0.205607,-0.595750,-0.029093,-0.462864,0.167701
130,401708323,0.193062,-0.752322,-0.204468,-0.595764,-0.095244,-0.386168,0.088725
131,401741657,0.191206,-0.752923,-0.204123,-0.595720,-0.072101,-0.205543,0.302536
132,401774991,0.190100,-0.753235,-0.204345,-0.595605,-0.136192,-0.109289,-0.013724
133,401808325,0.189649,-0.753654,-0.205413,-0.594849,-0.058001,-0.377593,0.148852
134,401841659,0.188146,-0.753901,-0.205679,-0.594923,0.568288,-0.582213,0.280780
135,401874993,0.185842,-0.754364,-0.204544,-0.595451,0.461381,-0.545025,0.001745
136,401908327,0.184262,-0.755322,-0.203500,-0.595086,-0.140842,-0.452867,0.260575
137,401941661,0.182865,-0.756067,-0.202731,-0.594832,-0.223055,-0.228557,0.111938
138,401974995,0.181679,-0.756504,-0.202406,-0.594750,0.018644,-0.380800,0.046031
139,402008329,0.180252,-0.756722,-0.201962,-0.595059,0.115938,-0.113552,0.451783
140,402041663,0.179409,-0.757048,-0.201111,-0.595187,0.018419,-0.518770,0.028569
141,402074997,0.177501,-0.757730,-0.199167,-0.595545,-0.033813,-0.553849,0.147733
142,402108331,0.174600,-0.758510,-0.196158,-0.596407,0.062865,-0.429041,0.250055
143,402141665,0.171123,-0.759353,-0.192131,-0.597652,-0.045056,-0.564861,0.210639
144,402174999,0.167239,-0.760459,-0.187354,-0.598860,-0.156590,-0.416174,0.074603
145,402208333,0.163595,-0.761732,-0.182065,-0.599880,-0.120363,-0.249644,0.204819
146,402241667,0.159196,-0.763094,-0.175819,-0.601193,0.257562,-0.327481,0.089020
147,402275001,0.154296,-0.764495,-0.168713,-0.602725,0.413256,-0.556570,0.367249
148,402308335,0.149016,-0.765916,-0.160863,-0.604393,0.592794,-0.701728,0.344466
149,402341669,0.144661,-0.766919,-0.154262,-0.605899,0.348519,-0.487262,0.242591
150,402375003,0.142136,-0.767179,-0.149437,-0.607375,0.181300,-0.180919,0.205276
151,402408337,0.139721,-0.767313,-0.145161,-0.608802,0.229818,-0.436438,0.128622
152,402441671,0.136998,-0.767570,-0.140146,-0.610269,0.506593,-0.652673,0.098305
153,402475005,0.134993,-0.768277,-0.134598,-0.611075,0.382049,-0.636171,0.142207
154,402508339,0.134079,-0.769115,-0.129733,-0.611275,0.074921,-0.440357,0.364436
155,402541673,0.134118,-0.769199,-0.126781,-0.611779,-0.178951,-0.256747,0.340149
156,402575007,0.136706,-0.768304,-0.126767,-0.612334,-0.422753,0.341994,-0.048561
157,402608341,0.141236,-0.767370,-0.128535,-0.612108,-0.433350,-0.304712,0.109983
158,402641675,0.144797,-0.766710,-0.130582,-0.611669,0.075227,-0.661801,0.136399
159,402675009,0.151002,-0.765284,-0.134035,-0.611208,0.219917,-0.717311,0.163321
160,402708343,0.157038,-0.763734,-0.135767,-0.611244,0.275668,-0.513139,0.175877
161,402741677,0.160553,-0.762957,-0.134830,-0.611508,0.473113,-0.605684,0.287599
162,402775011,0.163185,-0.762598,-0.133600,-0.611530,0.501512,-0.214132,0.226534
163,402808345,0.168782,-0.761378,-0.134838,-0.611258,0.175592,0.181202,0.212440
164,402841679,0.175516,-0.759307,-0.137318,-0.611385,0.203768,0.268505,0.206933
165,402875013,0.182068,-0.756687,-0.140105,-0.612085,0.165274,0.130083,0.220576
166,402908347,0.189307,-0.753358,-0.143132,-0.613295,0.317867,-0.134203,0.172835
167,402941681,0.195430,-0.750435,-0.144919,-0.614537,0.288786,-0.302785,0.240418
168,402975015,0.199731,-0.748004,-0.144732,-0.616159,0.465738,-0.384979,0.199187
169,403008349,0.202873,-0.745310,-0.142651,-0.618877,0.588572,-0.485769,0.182795
170,403041683,0.204493,-0.742869,-0.138330,-0.622250,0.538790,-0.551870,0.194411
171,403075017,0.202898,-0.741170,-0.131045,-0.626361,0.315585,-0.130351,0.147491
172,403108351,0.200322,-0.738619,-0.122725,-0.631865,0.857129,0.267731,0.314958
173,403141685,0.198622,-0.734886,-0.115652,-0.638058,1.227698,0.404796,0.228074
174,403175019,0.199310,-0.730421,-0.111174,-0.643741,1.038450,0.379866,0.232335
175,403208353,0.200888,-0.724957,-0.108003,-0.649938,1.203514,-0.102487,0.152813
176,403241687,0.202782,-0.717955,-0.106046,-0.657402,1.051900,-0.216749,0.277716
177,403275021,0.204881,-0.709961,-0.104558,-0.665619,0.425471,-0.211998,0.375940
178,403308355,0.203784,-0.704145,-0.100304,-0.672750,-0.291846,-0.669006,0.300445
179,403341689,0.199692,-0.699313,-0.092215,-0.680135,-0.176882,-0.390924,0.284162
180,403375023,0.192900,-0.695523,-0.081759,-0.687281,-0.049210,-0.128719,0.212545
181,403408357,0.184839,-0.692559,-0.070577,-0.693698,-0.292137,-0.025524,0.201269
182,403441691,0.177209,-0.689667,-0.060494,-0.699499,-0.511277,-0.361376,0.296292
183,403475025,0.170263,-0.687041,-0.051700,-0.704496,-0.917929,-0.458679,0.268970
184,403508359,0.162965,-0.685104,-0.043285,-0.708663,-1.138887,-0.601501,-0.114038
185,403541693,0.154432,-0.684284,-0.033939,-0.711868,-1.188433,-0.433297,-0.319965
186,403575027,0.144335,-0.684914,-0.023854,-0.713788,-1.576766,-0.520632,-0.103671
187,403608361,0.131446,-0.686872,-0.012262,-0.714689,-1.570376,-0.709059,-0.217772
188,403641695,0.116951,-0.690455,-0.001094,-0.713860,-1.766388,-1.073003,-0.063043
189,403675029,0.101348,-0.695103,0.011819,-0.711634,-1.122311,0.043166,0.412584
190,403708363,0.088455,-0.699157,0.024505,-0.709053,0.151991,1.224562,0.217720
191,403741697,0.079088,-0.702810,0.035935,-0.706055,0.151191,0.983507,0.046359
192,403775031,0.070135,-0.705574,0.047932,-0.703527,0.137562,0.774758,0.108177
193,403808365,0.061830,-0.706971,0.059718,-0.702001,0.512838,1.423672,-0.027554
194,403841699,0.058345,-0.707724,0.066679,-0.700912,0.313964,1.184365,0.463374
195,403875033,0.057800,-0.708318,0.070096,-0.700024,-0.285975,0.461100,0.294587
196,403908367,0.057765,-0.708651,0.072715,-0.699422,-0.239320,0.390890,0.104121
197,403941701,0.058615,-0.709269,0.073699,-0.698621,-0.310825,0.340180,0.065064
198,403975035,0.059447,-0.709584,0.073326,-0.698270,-0.115771,0.424971,0.196664
199,404008369,0.060640,-0.709690,0.071610,-0.698238,-0.043859,0.728148,0.204904
200,404041703,0.064185,-0.709963,0.067488,-0.698054,-0.156965,0.702317,0.426186
201,404075037,0.069284,-0.710054,0.061272,-0.698047,-0.443190,0.602588,0.223971
202,404108371,0.075354,-0.710119,0.053314,-0.698005,-0.577217,0.468071,0.093022
203,404141705,0.082686,-0.710162,0.043513,-0.697811,-0.805910,0.461087,0.059464
204,404175039,0.090637,-0.710274,0.032651,-0.697303,-1.018780,0.263677,0.059467
205,404208373,0.097466,-0.710921,0.022617,-0.696119,-1.130052,-0.161286,-0.128988
206,404241707,0.103408,-0.712578,0.013509,-0.693800,-0.938577,-0.001006,0.018833
207,404275041,0.110845,-0.714478,0.003809,-0.690812,-0.394866,0.858614,0.200764
208,404308375,0.121532,-0.715982,-0.008209,-0.687411,-0.091318,1.126513,0.320631
209,404341709,0.134066,-0.716929,-0.021737,-0.683789,-0.079417,0.998862,0.587880
210,404375043,0.148185,-0.716882,-0.036628,-0.680280,-0.025895,0.545354,0.542585
211,404408377,0.164625,-0.714278,-0.053631,-0.678108,0.135727,-0.011503,0.407780
212,404441711,0.183395,-0.708930,-0.072102,-0.677190,0.351960,-0.290677,0.152014
213,404475045,0.203565,-0.701912,-0.090626,-0.676512,0.851332,-0.599819,0.159306
214,404508379,0.223270,-0.694216,-0.107960,-0.675692,0.631896,-0.392301,-0.276524
215,404541713,0.240846,-0.688576,-0.123715,-0.672720,0.346883,-0.756638,0.317711
216,404575047,0.251403,-0.684225,-0.134754,-0.671175,1.087736,-0.661960,1.183084
217,404608381,0.257101,-0.679885,-0.145996,-0.671075,1.220202,-1.326012,-0.097164
218,404641715,0.262175,-0.676117,-0.156416,-0.670571,0.491555,-0.021465,0.133608
219,404675049,0.268879,-0.670906,-0.166710,-0.670671,0.112780,0.340557,0.086549
220,404708383,0.273974,-0.667277,-0.176951,-0.669604,-0.269124,0.460468,0.145734
221,404741717,0.278658,-0.663354,-0.186961,-0.668849,-0.588502,0.948165,0.077144
222,404775051,0.285392,-0.659015,-0.195582,-0.667832,-0.591168,1.728094,-0.378435
223,404808385,0.296417,-0.653305,-0.206488,-0.665353,2.808231,-1.386607,0.008132
224,404841719,0.303116,-0.650250,-0.220138,-0.660937,1.468583,-2.442695,0.513310
225,404875053,0.308951,-0.646923,-0.232614,-0.657215,0.379048,-1.417750,-0.212525
226,404908387,0.309315,-0.646658,-0.236091,-0.656065,0.846281,-0.697365,-0.366390
227,404941721,0.304390,-0.650884,-0.235265,-0.654484,0.572214,-2.166495,-0.030487
228,404975055,0.292885,-0.656232,-0.228170,-0.656900,-1.185580,0.618123,0.470196
229,405008389,0.282286,-0.660592,-0.221091,-0.659585,-0.595189,0.823673,0.093307
230,405041723,0.276755,-0.664864,-0.219555,-0.658149,-0.888596,-0.236075,0.199665
231,405075057,0.274926,-0.669451,-0.222948,-0.653105,-1.259772,-0.464613,0.165872
232,405108391,0.274153,-0.674485,-0.226829,-0.646885,-0.693765,-0.174261,0.099431
233,405141725,0.271584,-0.680685,-0.229280,-0.640580,-0.474226,-0.602168,-0.103748
234,405175059,0.266254,-0.688320,-0.228890,-0.634772,-0.224165,-0.769398,0.010786
235,405208393,0.257840,-0.696600,-0.224959,-0.630604,0.367993,-0.465284,0.271156
236,405241727,0.248185,-0.705334,-0.219973,-0.626515,0.239052,-0.047177,0.035872
237,405275061,0.238838,-0.715150,-0.215523,-0.620539,0.223918,0.258831,-0.142247
238,405308395,0.230143,-0.724653,-0.211343,-0.614206,0.321509,-0.105894,0.026430
239,405341729,0.221732,-0.733466,-0.207555,-0.608100,0.687534,0.163310,0.140738
240,405375063,0.215025,-0.739721,-0.204166,-0.604066,1.131501,0.012613,0.925467
241,405408397,0.210406,-0.741063,-0.201335,-0.604997,2.264753,0.359837,0.794280
242,405441731,0.207577,-0.742309,-0.200849,-0.604608,0.762903,-0.056981,-0.114001
243,405475065,0.206645,-0.745056,-0.202175,-0.601096,-0.378475,-0.508700,0.047948
244,405508399,0.205242,-0.746853,-0.203032,-0.599055,-0.357575,-0.827875,0.334340
245,405541733,0.204073,-0.747471,-0.202801,-0.598762,-0.146541,-0.333487,-0.048281
246,405575067,0.201736,-0.748920,-0.201693,-0.598116,-0.054806,-0.145119,0.174078
247,405608401,0.199639,-0.750344,-0.201740,-0.597018,0.192748,-0.097630,0.368287
248,405641735,0.198500,-0.751048,-0.202175,-0.596365,0.424164,-0.071117,0.188880
249,405675069,0.196075,-0.752158,-0.200956,-0.596180,0.483109,-0.399555,0.170552
250,405708403,0.194276,-0.753389,-0.199554,-0.595685,-0.002769,-0.454180,0.229487
251,405741737,0.192733,-0.754537,-0.198131,-0.595209,-0.498207,-0.352049,0.179481
252,405775071,0.190050,-0.755587,-0.196194,-0.595381,-0.588097,-0.017351,0.187621
253,405808405,0.187219,-0.756233,-0.194352,-0.596062,-0.299295,-0.221309,0.178411
254,405841739,0.184612,-0.756579,-0.192678,-0.596979,-0.003854,-0.302227,0.177666
255,405875073,0.182266,-0.756943,-0.190832,-0.597830,0.088575,-0.185586,0.291160
256,405908407,0.179208,-0.757294,-0.188392,-0.599084,0.149625,0.098788,0.371507
257,405941741,0.176121,-0.757311,-0.186327,-0.600621,0.103051,-0.094419,0.227220
258,405975075,0.174449,-0.757004,-0.185998,-0.601597,-0.203872,0.032157,-0.010846
259,406008409,0.175629,-0.756440,-0.187962,-0.601353,-0.039291,-0.323390,0.033792
260,406041743,0.176998,-0.755827,-0.189622,-0.601201,0.654923,-0.685063,0.247619
261,406075077,0.178271,-0.755391,-0.190249,-0.601175,0.697040,-0.678141,0.189837
262,406108411,0.178634,-0.755550,-0.189426,-0.601128,0.291168,-0.436222,0.311769
263,406141745,0.177551,-0.755703,-0.187504,-0.601857,0.023250,-0.163231,0.235657
264,406175079,0.176076,-0.755684,-0.185480,-0.602942,-0.211397,-0.055970,0.034645
265,406208413,0.176547,-0.755444,-0.185137,-0.603209,-0.132461,-0.237779,0.114931
266,406241747,0.178552,-0.754871,-0.186237,-0.602998,0.169562,-0.483238,0.232809
267,406275081,0.182395,-0.754161,-0.188150,-0.602141,0.262757,-0.188636,-0.049597
268,406308415,0.187621,-0.753680,-0.191231,-0.600165,0.336632,-0.724621,0.161025
269,406341749,0.191350,-0.753148,-0.193311,-0.598987,0.257129,-0.530999,0.310669
270,406375083,0.194890,-0.752396,-0.193907,-0.598599,0.017264,-0.661086,0.114910
271,406408417,0.195900,-0.752370,-0.191459,-0.599089,0.240821,-0.603428,0.300896
272,406441751,0.194309,-0.752299,-0.186428,-0.601279,0.696979,-0.561792,0.345860
273,406475085,0.192206,-0.752460,-0.180525,-0.603551,0.257712,-0.435137,0.071275
274,406508419,0.190751,-0.752887,-0.174771,-0.605172,-0.270860,-0.126215,0.138815
275,406541753,0.188238,-0.753313,-0.168874,-0.607099,-0.265793,-0.046650,0.159523
276,406575087,0.186655,-0.753285,-0.163981,-0.608961,-0.082216,0.274616,0.097469
277,406608421,0.187048,-0.752588,-0.160969,-0.610504,0.163325,0.064286,0.096822
278,406641755,0.188510,-0.751707,-0.159526,-0.611518,0.111597,-0.241566,0.312871
279,406675089,0.192334,-0.750187,-0.159492,-0.612202,0.028239,-0.084278,0.109499
280,406708423,0.195695,-0.748926,-0.158586,-0.612916,0.306673,-0.218982,0.159933
281,406741757,0.197266,-0.748067,-0.156637,-0.613961,0.653802,-0.202593,0.208317
282,406775091,0.198768,-0.746743,-0.154242,-0.615692,0.817917,-0.105205,0.249342
283,406808425,0.201370,-0.745190,-0.151851,-0.617321,1.044812,-0.092104,0.151819
284,406841759,0.203922,-0.743786,-0.148971,-0.618876,0.956349,-0.059258,0.226100
285,406875093,0.206033,-0.741930,-0.145326,-0.621266,0.843378,-0.120819,0.266762
286,406908427,0.207070,-0.740304,-0.140341,-0.624002,0.444167,-0.017597,0.105200
287,406941761,0.206530,-0.738827,-0.133370,-0.627451,0.585075,-0.020757,0.229702
288,406975095,0.204331,-0.736668,-0.125114,-0.632390,0.893147,-0.021445,0.142068
289,407008429,0.203481,-0.733780,-0.118334,-0.637308,0.683978,-0.009226,0.282051
290,407041763,0.202889,-0.730811,-0.112203,-0.642000,0.539763,-0.334741,0.099164
291,407075097,0.201284,-0.726838,-0.105810,-0.648072,0.753358,-0.773182,0.249918
292,407108431,0.198749,-0.719953,-0.099513,-0.657469,1.134063,-0.458452,0.431962
293,407141765,0.195415,-0.712936,-0.092211,-0.667108,0.321518,0.022671,0.460674
294,407175099,0.190609,-0.707409,-0.082449,-0.675607,-0.159579,-0.613998,-0.073860
295,407208433,0.181875,-0.703536,-0.069305,-0.683488,-0.086079,-1.099766,0.218919
296,407241767,0.168908,-0.699871,-0.053588,-0.691940,-0.415676,-0.988509,0.564726
297,407275101,0.154312,-0.696459,-0.036758,-0.699845,-0.913772,-0.570672,0.404929
298,407308435,0.139454,-0.693633,-0.020149,-0.706415,-1.187505,-0.522020,0.129751
299,407341769,0.124254,-0.691472,-0.004002,-0.711627,-1.618230,-0.386470,-0.215906
300,407375103,0.108277,-0.690113,0.011730,-0.715461,-1.601802,0.076065,-0.063503
301,407408437,0.092682,-0.689700,0.025777,-0.717678,-1.749022,0.594022,0.025798
302,407441771,0.077674,-0.689405,0.038691,-0.719161,-1.410006,1.095245,-0.102412
303,407475105,0.065278,-0.689822,0.049145,-0.719355,-1.152984,1.164184,-0.069319
304,407508439,0.055027,-0.690988,0.058097,-0.718425,-0.999766,1.456744,-0.150508
305,407541773,0.046385,-0.692322,0.066746,-0.716998,-0.646074,1.338739,-0.159838
306,407575107,0.041095,-0.693744,0.073242,-0.715310,-0.413086,1.493964,0.136666
307,407608441,0.039497,-0.695789,0.076042,-0.713118,-0.597429,0.729443,0.117721
308,407641775,0.038426,-0.698145,0.077850,-0.710674,-0.529087,0.357839,0.142649
309,407675109,0.037761,-0.700260,0.078485,-0.708556,-0.262174,0.562723,0.159768
310,407708443,0.039189,-0.702220,0.076710,-0.706730,0.165671,1.019732,0.304884
311,407741777,0.043866,-0.703850,0.071274,-0.705403,0.360107,1.301379,0.386474
312,407775111,0.052335,-0.705159,0.062246,-0.704371,0.147684,1.361920,0.301706
313,407808445,0.064443,-0.706127,0.050182,-0.703359,-0.103079,0.832577,0.207768
314,407841779,0.078895,-0.707011,0.036037,-0.701864,-0.339559,0.378249,0.205539
315,407875113,0.094200,-0.707424,0.021403,-0.700158,-0.151481,0.512910,0.367894
316,407908447,0.110396,-0.706760,0.006296,-0.698760,-0.171116,0.443600,0.193392
317,407941781,0.127563,-0.705747,-0.009444,-0.696822,-0.417724,0.208428,0.215791
318,407975115,0.143685,-0.704020,-0.023278,-0.695104,0.112907,0.580117,0.414763
319,408008449,0.161176,-0.700939,-0.037830,-0.693741,0.199629,0.602780,0.348873
320,408041783,0.180787,-0.697261,-0.054980,-0.691464,-0.129564,-0.772318,0.436316
321,408075117,0.198459,-0.690519,-0.072294,-0.691789,0.386412,-1.349239,0.235722
322,408108451,0.214008,-0.684970,-0.089578,-0.690647,-0.225553,-1.035976,-0.187365
323,408141785,0.228674,-0.679735,-0.106949,-0.688645,0.116748,-1.059527,-0.140061
324,408175119,0.240681,-0.676177,-0.123814,-0.685222,-0.263698,-0.777032,0.025674
325,408208453,0.249921,-0.673697,-0.137956,-0.681646,-0.161980,-0.275132,0.300551
326,408241787,0.256815,-0.670337,-0.148535,-0.680171,-0.044233,0.312954,0.396379
327,408275121,0.263960,-0.666221,-0.158697,-0.679184,-0.052466,0.529264,0.363311
328,408308455,0.273752,-0.661581,-0.170703,-0.676929,-0.062753,0.305552,0.373075
329,408341789,0.284629,-0.656473,-0.183546,-0.674049,0.081818,-0.159743,0.390424
330,408375123,0.293284,-0.652300,-0.196266,-0.670798,1.155511,-1.092360,-0.100181
331,408408457,0.298877,-0.648904,-0.208278,-0.667995,1.076806,-0.915132,0.043704
332,408441791,0.303099,-0.646396,-0.218116,-0.665380,0.044994,0.500812,0.021390
333,408475125,0.306502,-0.644325,-0.226574,-0.662999,0.864713,-0.035540,-0.080710
334,408508459,0.307728,-0.644256,-0.232395,-0.660478,0.808231,-0.183478,-0.039773
335,408541793,0.308356,-0.644851,-0.237415,-0.657814,0.829050,-0.462199,0.099133
336,408575127,0.307238,-0.646401,-0.241094,-0.655474,0.945604,-0.548724,0.110258
337,408608461,0.304277,-0.648222,-0.242734,-0.654450,0.398430,-0.388368,0.174483
338,408641795,0.300364,-0.651736,-0.243829,-0.652358,-0.367486,-0.927860,-0.161289
339,408675129,0.293405,-0.656797,-0.241495,-0.651315,-0.600699,-0.378579,0.198888
340,408708463,0.284529,-0.662114,-0.236784,-0.651600,-0.528109,0.888796,0.178502
341,408741797,0.278241,-0.667694,-0.234261,-0.649530,0.031287,-0.213487,0.162596
342,408775131,0.271784,-0.674434,-0.232526,-0.645914,-0.092741,-0.982140,0.144466
343,408808465,0.263118,-0.682298,-0.228431,-0.642696,-0.400277,-0.313615,-0.019819
344,408841799,0.253315,-0.690845,-0.222345,-0.639631,-0.191473,0.367074,0.038180
345,408875133,0.242434,-0.700000,-0.215602,-0.636194,-0.164352,0.061556,0.110162
346,408908467,0.230054,-0.709676,-0.208931,-0.632284,0.030705,0.224747,0.033920
347,408941801,0.217085,-0.720658,-0.203245,-0.626274,0.205911,0.712916,-0.400497
348,408975135,0.204329,-0.733379,-0.197049,-0.617719,0.157661,0.360424,-0.355170
349,409008469,0.191604,-0.743881,-0.189374,-0.611611,0.900195,-0.505147,1.468510
350,409041803,0.180287,-0.745519,-0.181636,-0.615391,3.315639,0.401884,1.246777
351,409075137,0.172907,-0.746706,-0.178562,-0.616968,0.900644,-0.007519,-0.198580
352,409108471,0.168277,-0.750449,-0.177449,-0.614021,-1.010505,-0.532180,-0.014781
353,409141805,0.163039,-0.753377,-0.175116,-0.612516,-1.073390,-0.631186,0.270390
354,409175139,0.157992,-0.754496,-0.172822,-0.613113,-0.230939,0.001766,-0.178304
355,409208473,0.156276,-0.755381,-0.173288,-0.612331,0.311894,-0.638360,0.315289
356,409241807,0.154947,-0.756538,-0.174540,-0.610884,0.641905,-0.544667,0.450561
357,409275141,0.156722,-0.756958,-0.177208,-0.609140,0.695276,-0.250973,0.092752
358,409308475,0.157481,-0.757769,-0.178725,-0.607490,0.083741,-0.203935,0.299937
359,409341809,0.156449,-0.758553,-0.179144,-0.606655,-0.400012,-0.445314,0.245569
360,409375143,0.155689,-0.758657,-0.179386,-0.606648,-0.314377,-0.408018,0.167676
361,409408477,0.154401,-0.758948,-0.179032,-0.606718,-0.267836,-0.339535,0.131189
362,409441811,0.153943,-0.759196,-0.179333,-0.606435,-0.201580,-0.117267,0.186732
363,409475145,0.154224,-0.758959,-0.180165,-0.606414,0.003587,-0.172144,0.283644
364,409508479,0.154289,-0.758430,-0.181094,-0.606782,0.258738,-0.109121,0.169302
365,409541813,0.155357,-0.757713,-0.182875,-0.606871,0.119167,-0.370916,0.235268
366,409575147,0.156087,-0.757162,-0.184044,-0.607018,-0.057286,-0.397730,0.106709
367,409608481,0.156198,-0.756988,-0.184132,-0.607180,-0.001568,-0.588641,0.174478
368,409641815,0.155649,-0.756954,-0.183157,-0.607657,0.072840,-0.448465,0.183183
369,409675149,0.154527,-0.756973,-0.181165,-0.608518,0.123642,-0.511128,0.254335
370,409708483,0.152399,-0.757230,-0.178252,-0.609593,0.094454,-0.279055,0.143747
371,409741817,0.151418,-0.757589,-0.175703,-0.610132,0.146123,-0.017891,0.046580
372,409775151,0.150423,-0.758017,-0.173177,-0.610568,0.483686,-0.514480,0.326402
373,409808485,0.149087,-0.758082,-0.169967,-0.611716,0.847233,-0.607019,0.301358
374,409841819,0.147572,-0.758259,-0.165598,-0.613061,0.643308,-0.420858,0.173541
375,409875153,0.147095,-0.758817,-0.161231,-0.613649,0.152421,-0.289552,0.138690
376,409908487,0.146089,-0.759615,-0.157244,-0.613937,-0.209373,0.007392,0.208420
377,409941821,0.146465,-0.759892,-0.154444,-0.614215,-0.116360,-0.114394,0.080938
378,409975155,0.147169,-0.759981,-0.152080,-0.614526,0.138203,-0.373709,0.197030
379,410008489,0.149739,-0.759806,-0.151371,-0.614297,0.319001,-0.254307,0.147733
380,410041823,0.155426,-0.758841,-0.152672,-0.613755,0.350756,-0.368759,0.228489
381,410075157,0.160349,-0.757520,-0.153010,-0.614036,0.571511,-0.215111,0.293970
382,410108491,0.162757,-0.756275,-0.151719,-0.615257,0.805081,-0.335722,0.267704
383,410141825,0.165197,-0.754507,-0.149964,-0.617204,0.787076,-0.297259,0.320408
384,410175159,0.168727,-0.751617,-0.148794,-0.620052,0.395023,-0.103943,0.184046
385,410208493,0.173480,-0.747886,-0.148121,-0.623404,0.141789,0.170279,0.190539
386,410241827,0.179016,-0.743668,-0.148424,-0.626803,-0.089489,0.184556,0.225589
387,410275161,0.184984,-0.738908,-0.149235,-0.630497,-0.136980,0.158395,0.116274
388,410308495,0.190249,-0.733741,-0.149695,-0.634840,-0.029630,-0.032292,0.128662
389,410341829,0.195223,-0.728111,-0.149714,-0.639788,0.301983,-0.074797,0.176558
390,410375163,0.199908,-0.722215,-0.149070,-0.645152,0.898765,-0.382622,0.110987
391,410408497,0.203937,-0.716915,-0.148111,-0.650005,0.967859,-0.519427,0.130072
392,410441831,0.206830,-0.711964,-0.146145,-0.654959,1.026453,-0.670070,0.073303
393,410475165,0.208367,-0.706502,-0.142149,-0.661235,0.667292,-0.567815,-0.025063
394,410508499,0.208130,-0.702145,-0.135822,-0.667254,0.221529,-0.432088,0.358114
395,410541833,0.206127,-0.694483,-0.127871,-0.677388,0.810499,-0.828590,0.479187
396,410575167,0.202213,-0.689546,-0.120300,-0.684956,-0.868587,-0.256134,0.019197
397,410608501,0.195389,-0.687529,-0.111037,-0.690506,-0.607754,0.301148,0.192927
398,410641835,0.188925,-0.684259,-0.101270,-0.697024,-0.531743,1.035810,0.119117
399,410675169,0.184697,-0.683251,-0.092933,-0.700300,-1.144580,0.665381,-0.051842
400,410708503,0.181678,-0.683580,-0.085182,-0.701753,-0.976553,-0.126669,-0.069107
401,410741837,0.177263,-0.685064,-0.076688,-0.702414,-0.726259,-0.600198,-0.098573
402,410775171,0.170272,-0.687545,-0.066028,-0.702802,-0.442048,-0.814340,0.051623
403,410808505,0.160395,-0.690506,-0.052629,-0.703353,-0.174400,-0.736101,0.389182
404,410841839,0.147775,-0.693379,-0.036675,-0.704303,-0.063513,-0.341829,0.547928
405,410875173,0.134369,-0.695827,-0.020070,-0.705242,0.089917,-0.007513,0.372883
406,410908507,0.122246,-0.697999,-0.004801,-0.705572,0.042302,0.185665,0.179335
407,410941841,0.111565,-0.699691,0.008539,-0.705630,-0.106545,0.159607,0.338662
408,410975175,0.101350,-0.700650,0.020427,-0.705975,-0.145789,0.191291,0.121647
409,411008509,0.091709,-0.701021,0.030750,-0.706551,-0.154396,0.639312,-0.004936
410,411041843,0.083917,-0.701269,0.038442,-0.706896,-0.249554,0.691409,0.059292
411,411075177,0.077249,-0.701305,0.044655,-0.707255,-0.528206,0.864489,0.124019
412,411108511,0.070991,-0.700899,0.050661,-0.707909,-0.419424,1.274715,0.278054
413,411141845,0.066639,-0.700289,0.054922,-0.708617,-0.440989,1.139734,0.152246
414,411175179,0.064509,-0.699754,0.057280,-0.709156,-0.543359,1.114894,-0.021936
415,411208513,0.065485,-0.699652,0.057108,-0.709181,-0.676742,0.882053,0.282608
416,411241847,0.067719,-0.699827,0.055818,-0.708902,-0.688899,0.641514,0.261540
417,411275181,0.070004,-0.700118,0.054133,-0.708522,-0.458057,0.514903,0.015038
418,411308515,0.072846,-0.700548,0.051356,-0.708017,-0.300454,0.636699,0.070389
419,411341849,0.076723,-0.700746,0.047084,-0.707709,-0.158590,0.844799,0.181990
420,411375183,0.082817,-0.700717,0.040480,-0.707459,-0.193117,0.957175,0.375698
421,411408517,0.091869,-0.700216,0.030967,-0.707318,-0.316177,0.914791,0.499163
422,411441851,0.103838,-0.698905,0.018406,-0.707397,-0.342988,0.746781,0.440795
423,411475185,0.117263,-0.696810,0.004034,-0.707594,-0.622525,0.397469,0.145511
424,411508519,0.131646,-0.694805,-0.011179,-0.706959,-0.750513,0.181871,0.155110
425,411541853,0.146587,-0.692722,-0.026956,-0.705636,-0.973517,0.047296,-0.053383
426,411575187,0.161836,-0.690852,-0.042920,-0.703343,-0.866561,-0.144962,-0.039021
427,411608521,0.176983,-0.689418,-0.058395,-0.699979,-0.891318,-0.044874,-0.185086
428,411641855,0.192841,-0.688261,-0.073963,-0.695441,-0.585141,-0.036449,0.044407
429,411675189,0.211305,-0.684040,-0.091159,-0.692192,-0.019294,0.264563,0.604987
430,411708523,0.231225,-0.680598,-0.110895,-0.686312,-0.941294,0.003294,-0.248306
431,411741857,0.247942,-0.679192,-0.130029,-0.678466,-0.203707,-1.286410,-0.018258
432,411775191,0.262130,-0.676569,-0.149801,-0.671641,0.412789,-1.270937,0.230142
433,411808525,0.275257,-0.672169,-0.168500,-0.666356,0.668927,-0.967814,0.698528
434,411841859,0.286998,-0.667976,-0.185323,-0.661132,0.439244,-0.609595,-0.408143
435,411875193,0.293784,-0.666171,-0.197677,-0.656377,1.622650,-0.682095,0.483324
436,411908527,0.296996,-0.664351,-0.204956,-0.654541,1.929040,0.039605,0.546308
437,411941861,0.298389,-0.662693,-0.210234,-0.653914,0.963326,0.292128,0.285072
438,411975195,0.299300,-0.661335,-0.216530,-0.652818,0.765632,0.592297,0.088345
439,412008529,0.302093,-0.658796,-0.224716,-0.651330,0.593273,0.601949,0.127172
440,412041863,0.306171,-0.656151,-0.234116,-0.648779,0.601019,0.324301,0.037713
441,412075197,0.310381,-0.654333,-0.243736,-0.645063,0.676166,-0.302568,0.025452
442,412108531,0.311675,-0.653632,-0.250260,-0.642646,0.595413,-0.116146,0.021452
443,412141865,0.310127,-0.654553,-0.253973,-0.640998,1.079603,-0.524932,0.013302
444,412175199,0.306294,-0.656503,-0.255259,-0.640336,0.807915,-0.605526,0.152101
445,412208533,0.300486,-0.659512,-0.254611,-0.640253,0.374192,-0.589977,-0.058585
446,412241867,0.293153,-0.663910,-0.251892,-0.640183,0.093123,-0.666830,0.213290
447,412275201,0.284363,-0.669252,-0.247483,-0.640306,-0.675945,0.150941,0.213159
448,412308535,0.275170,-0.674672,-0.243003,-0.640350,-0.360353,0.546524,0.091660
449,412341869,0.267863,-0.679711,-0.241452,-0.638704,-0.149760,-0.192138,0.214973
450,412375203,0.260776,-0.684927,-0.240357,-0.636474,-0.822020,-0.030111,0.096931
451,412408537,0.252750,-0.690847,-0.237756,-0.634286,-0.262849,-0.417634,0.091708
452,412441871,0.244037,-0.697462,-0.234407,-0.631700,-0.379255,-0.376800,0.089586
453,412475205,0.235120,-0.704860,-0.230825,-0.628180,-0.457729,-0.283847,0.011843
454,412508539,0.225108,-0.712640,-0.225994,-0.624818,0.111706,-0.120699,-0.036159
455,412541873,0.213928,-0.721168,-0.220200,-0.621018,0.353260,0.010628,-0.120499
456,412575207,0.202022,-0.730928,-0.213897,-0.615775,1.047294,0.161875,-0.048754
457,412608541,0.191479,-0.737980,-0.208021,-0.612738,1.892424,0.065701,1.145525
458,412641875,0.184264,-0.739847,-0.204444,-0.613901,1.475762,0.410897,0.347503
459,412675209,0.183238,-0.741647,-0.206405,-0.611376,-0.169779,-0.524363,-0.035787
460,412708543,0.183693,-0.743645,-0.209553,-0.607730,-0.646581,-0.445381,0.335104
461,412741877,0.183866,-0.744150,-0.211188,-0.606493,-0.293848,-0.480578,0.114546
462,412775211,0.182574,-0.744851,-0.211754,-0.605824,-0.530052,-0.520362,0.156687
463,412808545,0.180609,-0.746231,-0.211750,-0.604716,-0.661029,-0.426415,0.151274
464,412841879,0.178771,-0.747717,-0.211350,-0.603565,-0.219653,-0.559197,0.227730
465,412875213,0.176420,-0.748856,-0.210545,-0.603127,0.319023,-0.087352,0.272710
466,412908547,0.174781,-0.749362,-0.210135,-0.603117,0.483599,-0.063440,0.251267
467,412941881,0.173657,-0.749860,-0.210110,-0.602832,0.247682,-0.196135,0.191188
468,412975215,0.173210,-0.750306,-0.210599,-0.602235,0.105577,-0.190976,0.192204
469,413008549,0.172697,-0.750656,-0.210733,-0.601899,0.208051,-0.371983,0.299007
470,413041883,0.171649,-0.751094,-0.210253,-0.601820,-0.055634,-0.470018,0.138993
471,413075217,0.170848,-0.751628,-0.209645,-0.601594,-0.367868,-0.301249,0.170503
472,413108551,0.170083,-0.751835,-0.208809,-0.601842,-0.183837,-0.048485,0.197607
473,413141885,0.169135,-0.752015,-0.208117,-0.602124,-0.081924,0.016337,0.148420
474,413175219,0.167877,-0.752319,-0.207088,-0.602452,0.219759,-0.438921,0.260112
475,413208553,0.165537,-0.752350,-0.204884,-0.603812,0.671093,-0.363441,0.312678
476,413241887,0.164196,-0.752373,-0.202832,-0.604841,0.486976,-0.221813,0.148016
477,413275221,0.163093,-0.752840,-0.200632,-0.605292,0.190492,-0.342972,0.216869
478,413308555,0.161644,-0.753244,-0.197822,-0.606102,0.060316,-0.225768,0.184665
479,413341889,0.160689,-0.753605,-0.195075,-0.606798,-0.002182,-0.074195,0.060696
480,413375223,0.160453,-0.753918,-0.193268,-0.607050,0.136266,-0.295850,0.194336
481,413408557,0.161352,-0.754049,-0.192472,-0.606901,0.222172,-0.338198,0.138124
482,413441891,0.163329,-0.754287,-0.191902,-0.606257,0.193793,-0.476361,0.192453
483,413475225,0.164652,-0.754758,-0.190523,-0.605748,0.271872,-0.360343,0.211512
484,413508559,0.166262,-0.755043,-0.189134,-0.605387,0.223801,-0.317410,0.252373
485,413541893,0.168616,-0.755031,-0.188248,-0.605029,-0.033989,-0.220451,0.206592
486,413575227,0.170396,-0.754802,-0.187356,-0.605091,0.128033,-0.262680,0.252887
487,413608561,0.173825,-0.753934,-0.187675,-0.605100,0.111848,-0.125701,0.201766
488,413641895,0.178111,-0.752952,-0.188366,-0.604861,0.086441,-0.152498,0.099038
489,413675229,0.181668,-0.751977,-0.187807,-0.605190,0.382136,-0.261548,0.240354
490,413708563,0.183611,-0.751295,-0.185909,-0.606037,0.381053,-0.332535,0.187572
491,413741897,0.185462,-0.750778,-0.183474,-0.606855,0.493332,-0.464643,0.160847
492,413775231,0.187470,-0.750039,-0.180202,-0.608131,0.555419,-0.564601,0.195641
493,413808565,0.187926,-0.749638,-0.174856,-0.610042,0.575877,-0.451064,0.133232
494,413841899,0.187050,-0.749584,-0.168051,-0.612286,0.671090,-0.325021,0.238965
495,413875233,0.185864,-0.748593,-0.160611,-0.615847,0.904158,-0.188668,0.255772
496,413908567,0.184488,-0.746802,-0.152683,-0.620434,0.802856,-0.030912,0.190351
497,413941901,0.182739,-0.744495,-0.144326,-0.625702,0.732491,0.120895,0.173469
498,413975235,0.182415,-0.741273,-0.137044,-0.631235,0.477268,0.191620,0.155857
499,414008569,0.183523,-0.738280,-0.131261,-0.635635,-0.109811,0.040986,-0.055433
500,414041903,0.184290,-0.735326,-0.125222,-0.640041,-0.077772,-0.110980,0.012761
501,414075237,0.184122,-0.730730,-0.118506,-0.646598,0.550054,-0.261530,0.358165
502,414108571,0.183484,-0.722231,-0.111907,-0.657413,1.222541,0.018374,0.287928
503,414141905,0.183753,-0.713488,-0.106873,-0.667643,0.202006,-0.057279,0.327313
504,414175239,0.183221,-0.703732,-0.101332,-0.678913,-0.251013,-0.285944,0.597241
505,414208573,0.179470,-0.696926,-0.093739,-0.687966,-0.511017,-0.188622,0.288512
506,414241907,0.173875,-0.693369,-0.084047,-0.694221,-0.279070,-0.725596,0.109129
507,414275241,0.166886,-0.688431,-0.072350,-0.702124,0.295090,-0.211823,0.460354
508,414308575,0.158634,-0.682785,-0.060453,-0.710623,-0.427531,-0.394843,0.169832
509,414341909,0.150554,-0.679595,-0.049315,-0.716276,-1.190179,-0.960740,0.033780
510,414375243,0.140110,-0.678039,-0.036725,-0.720613,-1.276433,-0.855869,0.120517
511,414408577,0.127502,-0.677478,-0.023021,-0.724042,-1.165850,-0.350579,0.008778
512,414441911,0.114346,-0.677663,-0.009877,-0.726361,-1.055030,-0.174737,-0.056143
513,414475245,0.099932,-0.678685,0.003739,-0.727589,-1.267345,0.231983,-0.178873
514,414508579,0.085541,-0.680143,0.018454,-0.727837,-1.211442,0.515535,-0.274341
515,414541913,0.071266,-0.681893,0.033694,-0.727191,-1.180304,0.777648,-0.191685
516,414575247,0.058401,-0.683774,0.047512,-0.725799,-0.943353,1.138870,-0.057712
517,414608581,0.047630,-0.685633,0.059324,-0.723961,-0.620391,1.550587,0.291994
518,414641915,0.038609,-0.687586,0.069268,-0.721759,-0.761430,1.386429,0.207833
519,414675249,0.030947,-0.689305,0.078303,-0.719562,-0.375370,1.306315,0.323357
520,414708583,0.024590,-0.690907,0.086210,-0.717363,0.016209,1.314019,0.334917
521,414741917,0.021783,-0.692240,0.090697,-0.715613,0.306990,1.467847,0.260267
522,414775251,0.023200,-0.693676,0.090608,-0.714189,0.256143,1.473190,0.307268
523,414808585,0.027518,-0.694479,0.087079,-0.713694,0.164499,1.566230,0.503822
524,414841919,0.034716,-0.693858,0.080503,-0.714755,0.854008,1.412190,0.755889
525,414875253,0.045716,-0.691782,0.070490,-0.717202,0.866589,1.231422,0.877773
526,414908587,0.061371,-0.689045,0.055935,-0.719946,0.411151,0.785736,0.542739
527,414941921,0.079598,-0.685580,0.038414,-0.722611,-0.092094,0.407954,-0.084345
528,414975255,0.098905,-0.682032,0.019247,-0.724348,-0.535368,-0.141823,-0.091157
529,415008589,0.116931,-0.678665,0.000163,-0.725080,-0.990917,-0.447891,-0.189445
530,415041923,0.132611,-0.675097,-0.017060,-0.725512,-1.256422,-0.570883,-0.214049
531,415075257,0.146937,-0.672217,-0.032417,-0.724902,-1.394966,-0.569235,-0.121247
532,415108591,0.160321,-0.670729,-0.046197,-0.722693,-1.299429,-0.261592,-0.435591
533,415141925,0.174063,-0.670857,-0.059570,-0.718404,-1.205725,-0.494800,-0.799023
534,415175259,0.187117,-0.673093,-0.071687,-0.711894,-1.243875,-0.779511,-0.575882
535,415208593,0.198172,-0.677445,-0.081810,-0.703635,-0.946241,-0.816837,-0.312483
536,415241927,0.207595,-0.682775,-0.091228,-0.694549,-0.640488,-0.563127,0.313481
537,415275261,0.215624,-0.688184,-0.101181,-0.685326,-0.199293,0.231539,0.643915
538,415308595,0.224176,-0.692228,-0.113522,-0.676519,0.480229,0.730779,0.569409
539,415341929,0.234447,-0.692935,-0.129171,-0.669470,0.689608,0.793622,0.547948
540,415375263,0.247774,-0.689350,-0.147472,-0.664573,0.990912,0.595893,1.053244
541,415408597,0.260842,-0.684123,-0.163976,-0.661096,2.744800,-0.133403,1.435140
542,415441931,0.270935,-0.679606,-0.178500,-0.657926,2.587883,-0.310606,-0.062121
543,415475265,0.278098,-0.676719,-0.191443,-0.654264,1.918618,-0.877299,-0.334425
544,415508599,0.279443,-0.675073,-0.199845,-0.652879,1.475220,-0.709780,0.083545
545,415541933,0.276889,-0.673298,-0.203735,-0.654595,1.017276,0.149096,0.353173
546,415575267,0.273458,-0.671308,-0.205785,-0.657434,-0.023868,0.934663,0.025180
547,415608601,0.270300,-0.670867,-0.207155,-0.658758,0.079785,1.274919,-0.056051
548,415641935,0.269173,-0.670605,-0.210944,-0.658284,0.502667,-0.584861,-0.038624
549,415675269,0.266326,-0.671708,-0.215366,-0.656883,0.159504,-0.471037,0.146214
550,415708603,0.263149,-0.672361,-0.218105,-0.656592,0.419828,0.141618,0.109406
551,415741937,0.260740,-0.673182,-0.220519,-0.655906,0.262725,-0.662916,0.054464
552,415775271,0.254553,-0.676092,-0.219723,-0.655609,-0.446903,-0.241536,-0.004025
553,415808605,0.246107,-0.679878,-0.216189,-0.656093,-0.048784,-0.931466,0.129243
554,415841939,0.236666,-0.684883,-0.212394,-0.655601,-0.835438,-1.050855,0.138612
555,415875273,0.226244,-0.690883,-0.207576,-0.654527,-1.428259,-0.160124,0.076266
556,415908607,0.215202,-0.696540,-0.201691,-0.654095,-1.004036,0.068524,0.288332
557,415941941,0.204920,-0.702557,-0.197633,-0.652198,-0.905026,0.048112,0.037937
558,415975275,0.194606,-0.708369,-0.193327,-0.650358,-0.263973,-0.048992,0.287824
559,416008609,0.184279,-0.714637,-0.189044,-0.647764,-0.349976,-0.182253,0.166184
560,416041943,0.175267,-0.721246,-0.184785,-0.644157,-0.508194,-0.352286,-0.045278
561,416075277,0.166844,-0.728492,-0.179274,-0.639783,-0.380414,-0.171575,-0.064740
562,416108611,0.157490,-0.736733,-0.172540,-0.634548,-0.176633,-0.526803,0.172383
563,416141945,0.148090,-0.745086,-0.165510,-0.628906,-0.185819,-0.218989,-0.163823
564,416175279,0.139617,-0.754061,-0.159135,-0.621751,0.047746,-0.290779,-0.133738
565,416208613,0.132504,-0.763180,-0.154604,-0.613267,0.076057,-0.087038,0.263486
566,416241947,0.127087,-0.766383,-0.151929,-0.611083,2.643271,0.660281,1.319298
567,416275281,0.124441,-0.764845,-0.153238,-0.613225,2.598638,0.039689,0.224887
568,416308615,0.126351,-0.765253,-0.158206,-0.611059,0.200784,-0.793275,0.204467
569,416341949,0.128680,-0.766114,-0.161384,-0.608659,-0.658494,-0.959835,0.217912
570,416375283,0.127278,-0.766491,-0.160385,-0.608743,-0.513353,-0.686315,0.190934
571,416408617,0.125597,-0.766587,-0.159228,-0.609275,-0.372861,-0.134498,0.119253
572,416441951,0.125123,-0.766767,-0.159173,-0.609160,-0.241084,-0.325601,0.210932
573,416475285,0.124792,-0.766467,-0.159600,-0.609494,0.210321,0.027770,0.320455
574,416508619,0.126325,-0.765802,-0.161293,-0.609568,0.326317,0.295624,-0.030372
575,416541953,0.128994,-0.765505,-0.164756,-0.608455,-0.080582,0.016702,0.269959
576,416575287,0.132450,-0.764558,-0.168979,-0.607745,0.073664,-0.293617,0.320943
577,416608621,0.135794,-0.763340,-0.172741,-0.607480,0.040115,-0.515390,0.194284
578,416641955,0.138033,-0.762647,-0.175124,-0.607163,0.023336,-0.352044,0.075446
579,416675289,0.140175,-0.762136,-0.176483,-0.606921,-0.116518,-0.308629,0.222897
580,416708623,0.141582,-0.761589,-0.177029,-0.607123,-0.031692,-0.147090,0.218418
581,416741957,0.142265,-0.761007,-0.176964,-0.607711,-0.028528,-0.141525,0.153182
582,416775291,0.142296,-0.760451,-0.176318,-0.608587,0.141373,-0.257934,0.207522
583,416808625,0.142522,-0.759804,-0.175343,-0.609623,0.334681,-0.219828,0.193657
584,416841959,0.142309,-0.759215,-0.173915,-0.610814,0.423879,-0.326558,0.231751
585,416875293,0.142608,-0.758862,-0.172646,-0.611543,0.090222,-0.402196,0.158355
586,416908627,0.142183,-0.758758,-0.170063,-0.612494,0.033414,-0.587961,0.250424
587,416941961,0.140601,-0.758813,-0.165971,-0.613912,0.105752,-0.128189,0.127154
588,416975295,0.140130,-0.759022,-0.162400,-0.614716,0.044846,-0.140929,0.032464
589,417008629,0.140557,-0.759497,-0.160109,-0.614632,0.127958,-0.289138,0.257236
590,417041963,0.140706,-0.759433,-0.157322,-0.615396,0.456912,-0.482593,0.323586
591,417075297,0.141659,-0.759145,-0.154101,-0.616348,0.381091,-0.238700,0.047944
592,417108631,0.143698,-0.759088,-0.151572,-0.616573,0.223030,-0.410987,0.223759
593,417141965,0.144894,-0.758923,-0.148258,-0.617301,0.242589,-0.501752,0.227765
594,417175299,0.143545,-0.758875,-0.142130,-0.619114,0.566348,-0.827024,0.277154
595,417208633,0.140157,-0.759021,-0.133600,-0.621605,0.771718,-0.663808,0.161409
596,417241967,0.139012,-0.758863,-0.126102,-0.623619,0.678013,-0.266916,0.197413
597,417275301,0.139734,-0.757567,-0.120491,-0.626138,0.286922,0.043830,0.375181
598,417308635,0.142230,-0.754535,-0.116833,-0.629918,0.142393,1.127005,0.117902
599,417341969,0.148351,-0.748847,-0.116892,-0.635261,0.411023,0.458730,0.269959
600,417375303,0.156087,-0.742287,-0.120148,-0.640477,-0.149059,0.367785,0.371310
601,417408637,0.165193,-0.735203,-0.124310,-0.645549,0.145480,0.233691,0.158767
602,417441971,0.173976,-0.727387,-0.127757,-0.651397,0.987242,-0.119004,0.270035
603,417475305,0.182457,-0.718991,-0.131495,-0.657624,1.011208,-0.397022,0.167851
604,417508639,0.189663,-0.710280,-0.133907,-0.664530,0.933927,-0.611798,0.009952
605,417541973,0.194560,-0.701362,-0.133344,-0.672649,0.535055,-0.646856,-0.106311
606,417575307,0.197131,-0.693382,-0.129125,-0.680946,0.368816,-0.607828,0.512210
607,417608641,0.197070,-0.687443,-0.122516,-0.688167,-0.268460,-0.859317,0.281847
608,417641975,0.192366,-0.685685,-0.113071,-0.692854,-0.537109,-1.134179,-0.006911
609,417675309,0.183441,-0.685221,-0.100789,-0.697612,-0.411641,0.005728,-0.137759
610,417708643,0.173991,-0.684968,-0.087761,-0.702028,-0.190349,0.224491,0.101979
611,417741977,0.164602,-0.684872,-0.074435,-0.705915,-0.244252,0.173450,0.031888
612,417775311,0.155908,-0.685045,-0.061294,-0.708977,-0.144549,0.243040,0.151379
613,417808645,0.147033,-0.685420,-0.048727,-0.711481,-0.363221,-0.107359,0.268481
614,417841979,0.137426,-0.685538,-0.036208,-0.714031,-0.424390,-0.321959,0.631945
615,417875313,0.126323,-0.685278,-0.023489,-0.716857,-0.708016,-0.394252,0.261215
616,417908647,0.113730,-0.684927,-0.010065,-0.719610,-0.738095,-0.158785,-0.107437
617,417941981,0.100251,-0.684926,0.003760,-0.721673,-0.599083,0.132986,-0.016152
618,417975315,0.086902,-0.684913,0.017040,-0.723223,-0.592119,0.687976,-0.027082
619,418008649,0.074656,-0.684530,0.029047,-0.724569,-0.563023,0.911884,0.064376
620,418041983,0.062962,-0.683984,0.040146,-0.725665,-0.589909,1.116403,0.202651
621,418075317,0.052880,-0.683453,0.049589,-0.726386,-0.764327,1.104298,0.346763
622,418108651,0.044035,-0.683102,0.057687,-0.726708,-0.625360,1.332622,0.432869
623,418141985,0.037118,-0.683023,0.063767,-0.726660,-0.429563,1.460580,-0.106400
624,418175319,0.032942,-0.683432,0.067417,-0.726147,-0.289867,1.267273,0.085056
625,418208653,0.029962,-0.684011,0.070471,-0.725441,-0.356209,0.987750,0.083340
626,418241987,0.029473,-0.684380,0.072533,-0.724910,-0.308369,0.773120,-0.209394
627,418275321,0.031398,-0.685140,0.072927,-0.724070,-0.382647,0.554254,0.188325
628,418308655,0.034791,-0.685826,0.071773,-0.723381,-0.308128,0.576745,0.469162
629,418341989,0.039942,-0.686426,0.067912,-0.722919,-0.347055,0.938812,0.237538
630,418375323,0.047829,-0.687184,0.060049,-0.722416,-0.407290,1.209983,0.284451
631,418408657,0.059150,-0.687840,0.048251,-0.721837,-0.517630,1.144172,-0.164327
632,418441991,0.074128,-0.688634,0.033148,-0.720547,-0.847465,0.619755,-0.211230
633,418475325,0.090291,-0.689673,0.017006,-0.718268,-1.060802,0.272830,0.039917
634,418508659,0.105920,-0.690587,0.001325,-0.715449,-1.036140,0.230604,0.016686
635,418541993,0.121537,-0.691470,-0.013710,-0.711975,-0.993875,0.443711,0.260225
636,418575327,0.139030,-0.692470,-0.028356,-0.707355,-0.609486,0.971152,0.650161
637,418608661,0.158317,-0.692527,-0.043140,-0.702481,-0.386951,0.921733,0.424510
638,418641995,0.178697,-0.692241,-0.058751,-0.696719,-0.083265,0.519378,0.718916
639,418675329,0.198754,-0.691036,-0.074591,-0.690942,0.300083,-0.783325,0.250265
640,418708663,0.217715,-0.687722,-0.092451,-0.686360,0.385742,-1.723988,-0.185449
641,418741997,0.236030,-0.679770,-0.112340,-0.685260,0.888779,-1.655324,0.230314
642,418775331,0.253051,-0.670530,-0.134314,-0.684335,0.191509,-1.455062,-0.183607
643,418808665,0.266757,-0.665452,-0.154961,-0.679706,-0.510030,-1.056588,-0.336297
644,418841999,0.277291,-0.660379,-0.173981,-0.675825,1.789493,-0.266767,1.083107
645,418875333,0.284262,-0.656046,-0.188568,-0.673232,0.961123,0.415895,-0.255445
646,418908667,0.287881,-0.655866,-0.198678,-0.668947,0.659168,-0.186335,0.032643
647,418942001,0.288551,-0.656452,-0.205720,-0.665949,0.263482,0.085540,0.289041
648,418975335,0.287930,-0.657484,-0.210909,-0.663571,0.184578,-0.330787,0.050541
649,419008669,0.285982,-0.658303,-0.214520,-0.662444,0.422771,0.426403,0.155824
650,419042003,0.285222,-0.659389,-0.219688,-0.659993,0.430048,0.220559,0.325246
651,419075337,0.283518,-0.660725,-0.223789,-0.658010,0.402300,0.602915,0.245708
652,419108671,0.280941,-0.662442,-0.226709,-0.656388,0.397852,0.279307,0.067218
653,419142005,0.279503,-0.664555,-0.230784,-0.653439,0.449923,-0.331024,0.060589
654,419175339,0.276342,-0.667088,-0.233223,-0.651333,0.069608,-0.149807,0.087883
655,419208673,0.272767,-0.669386,-0.234784,-0.649920,0.698675,-0.034588,0.062057
656,419242007,0.270146,-0.672318,-0.237326,-0.647058,0.371258,-0.516305,0.132323
657,419275341,0.265733,-0.675946,-0.238207,-0.644778,0.199769,-0.094089,0.075601
658,419308675,0.260485,-0.679872,-0.237319,-0.643116,0.428205,-0.688962,0.101140
659,419342009,0.253429,-0.685167,-0.234924,-0.641193,-0.239447,-0.773215,0.132721
660,419375343,0.244357,-0.691080,-0.229969,-0.640164,-0.441097,-0.524011,0.063707
661,419408677,0.234260,-0.697275,-0.223225,-0.639608,-0.463051,0.189122,0.154015
662,419442011,0.225597,-0.703939,-0.217091,-0.637530,-0.454308,-0.303909,0.114744
663,419475345,0.215724,-0.711014,-0.210321,-0.635363,-0.324247,-0.344353,0.147569
664,419508679,0.205964,-0.717293,-0.203690,-0.633701,-0.193796,0.044106,0.180993
665,419542013,0.196919,-0.723621,-0.198193,-0.631121,-0.101042,-0.243769,0.225183
666,419575347,0.187289,-0.729408,-0.192343,-0.629197,-0.090568,-0.055534,0.231693
667,419608681,0.177979,-0.733799,-0.186361,-0.628594,1.051129,0.647035,0.323459
668,419642015,0.170909,-0.735876,-0.182040,-0.629393,1.352975,-0.105723,0.678755
669,419675349,0.165570,-0.736756,-0.180053,-0.630362,0.516075,-0.132493,0.041615
670,419708683,0.161906,-0.738086,-0.179029,-0.630049,-0.059268,-0.446126,-0.020681
671,419742017,0.158461,-0.739857,-0.177379,-0.629315,-0.034071,-0.577542,0.214329
672,419775351,0.154657,-0.741529,-0.174808,-0.629012,0.096844,-0.291230,0.117307
673,419808685,0.149938,-0.743761,-0.171273,-0.628492,0.285177,-0.172165,0.095711
674,419842019,0.144571,-0.746513,-0.167247,-0.627570,0.054668,-0.612974,0.334681
675,419875353,0.139653,-0.749045,-0.163592,-0.626629,-0.033935,-0.230533,0.132921
676,419908687,0.134836,-0.751877,-0.159276,-0.625403,0.287998,-0.113541,-0.001092
677,419942021,0.128591,-0.756067,-0.153642,-0.623072,0.559946,-0.399354,0.127119
678,419975355,0.123490,-0.759866,-0.149102,-0.620580,-0.236704,-0.502161,0.483340
679,420008689,0.120159,-0.761914,-0.145234,-0.619640,-0.274102,-0.384786,0.335739
680,420042023,0.117628,-0.762939,-0.141474,-0.619735,0.177116,-0.247796,0.229001
681,420075357,0.116401,-0.763749,-0.138683,-0.619599,0.114736,-0.229728,0.155701
682,420108691,0.116803,-0.764542,-0.137124,-0.618892,-0.151941,-0.128517,0.220112
683,420142025,0.118321,-0.765245,-0.136409,-0.617892,-0.392915,-0.170613,0.156539
684,420175359,0.119795,-0.765810,-0.136219,-0.616949,-0.293497,-0.105075,0.143255
685,420208693,0.122829,-0.765818,-0.137686,-0.616016,0.028278,-0.263564,0.301641
686,420242027,0.125756,-0.765546,-0.139801,-0.615288,0.170233,-0.504327,0.268570
687,420275361,0.129556,-0.764713,-0.140654,-0.615340,0.062075,-0.311816,0.093746
688,420308695,0.129918,-0.765057,-0.137379,-0.615576,0.203546,-0.231093,0.055717
689,420342029,0.130691,-0.765833,-0.134884,-0.615000,0.357318,-0.236491,0.258924
690,420375363,0.134181,-0.765736,-0.134328,-0.614489,0.045902,0.053859,0.248831
691,420408697,0.136944,-0.765459,-0.133358,-0.614437,0.227816,-0.084486,0.109057
692,420442031,0.140563,-0.765256,-0.132894,-0.613972,0.075821,-0.195065,0.198386
693,420475365,0.145250,-0.765167,-0.133079,-0.612952,-0.123598,-0.405942,0.079052
694,420508699,0.148961,-0.765279,-0.132092,-0.612134,-0.029243,-0.367243,0.257707
695,420542033,0.150152,-0.765057,-0.128680,-0.612847,0.547688,-0.466468,0.337976
696,420575367,0.149785,-0.764203,-0.123221,-0.615120,0.843789,-0.254737,0.416517
697,420608701,0.149838,-0.762906,-0.118082,-0.617720,0.616615,0.280151,0.172008
698,420642035,0.149725,-0.761390,-0.113313,-0.620505,0.047265,0.445160,0.273819
699,420675369,0.148549,-0.759351,-0.108254,-0.624178,0.148560,0.282258,0.216377
700,420708703,0.148989,-0.756025,-0.105206,-0.628616,0.378089,0.211885,0.170332
701,420742037,0.152066,-0.751597,-0.104975,-0.633211,-0.029803,0.063304,0.108225
702,420775371,0.157952,-0.747087,-0.107071,-0.636746,-0.742561,0.013747,0.078712
703,420808705,0.162939,-0.743685,-0.107964,-0.639316,-0.760189,-0.227646,0.088542
704,420842039,0.166087,-0.740363,-0.107149,-0.642491,-0.236370,-0.183105,0.074970
705,420875373,0.167513,-0.736045,-0.105024,-0.647414,0.228980,-0.155609,0.198308
706,420908707,0.170002,-0.729089,-0.103799,-0.654792,0.247904,0.209893,0.732937
707,420942041,0.174976,-0.720796,-0.104647,-0.662483,0.186203,0.167312,0.312309
708,420975375,0.185425,-0.704826,-0.106772,-0.676340,0.861481,0.706714,0.648045
709,421008709,0.194657,-0.697767,-0.109427,-0.680627,-3.227180,0.593676,-0.642000
710,421042043,0.198486,-0.695927,-0.107513,-0.681710,-0.953582,-0.899306,-0.214077
711,421075377,0.200247,-0.695191,-0.105074,-0.682325,-0.660548,-0.790094,-0.204372
712,421108711,0.201454,-0.695287,-0.102708,-0.682232,0.171414,-0.221849,0.210639
713,421142045,0.199657,-0.695973,-0.098511,-0.682680,1.098225,0.101135,0.289311
714,421175379,0.196549,-0.695174,-0.092641,-0.685213,1.073676,0.282481,0.260692
715,421208713,0.192844,-0.695240,-0.086159,-0.687042,0.727316,-0.052439,0.200163
716,421242047,0.188081,-0.696121,-0.078645,-0.688371,0.869593,-0.033397,0.184399
717,421275381,0.182600,-0.697018,-0.071342,-0.689732,0.956003,-0.169190,0.281433
718,421308715,0.176687,-0.696942,-0.063928,-0.692073,0.859815,-0.202021,0.256203
719,421342049,0.170836,-0.696080,-0.056001,-0.695089,0.587735,-0.280158,0.024611
720,421375383,0.164374,-0.695361,-0.047656,-0.697984,0.241211,-0.805121,0.148510
721,421408717,0.155786,-0.695057,-0.037816,-0.700853,0.006212,-0.643631,0.176060
722,421442051,0.146754,-0.694588,-0.027805,-0.703730,0.018769,0.015387,0.408545
723,421475385,0.138176,-0.693667,-0.018804,-0.706666,-0.348359,0.510060,0.528037
724,421508719,0.129871,-0.692080,-0.010507,-0.709962,-0.466000,0.270412,0.334113
725,421542053,0.121012,-0.690777,-0.002158,-0.712865,-0.631792,0.170784,0.028106
726,421575387,0.113286,-0.690059,0.005458,-0.714810,-0.702236,0.315234,0.211085
727,421608721,0.105939,-0.689819,0.013041,-0.716068,-0.756915,0.374712,-0.066628
728,421642055,0.098989,-0.689689,0.021352,-0.716988,-0.700673,0.727517,-0.268695
729,421675389,0.092939,-0.689974,0.031126,-0.717166,-0.200253,0.986878,0.515102
730,421708723,0.086805,-0.690162,0.041352,-0.717237,-0.271837,0.152770,0.224089
731,421742057,0.080402,-0.690165,0.051280,-0.717340,-0.252048,-0.079744,-0.008512
732,421775391,0.074310,-0.690232,0.059303,-0.717313,-0.546230,0.199805,0.035147
733,421808725,0.068972,-0.690312,0.064020,-0.717364,-0.945381,0.368991,0.049660
734,421842059,0.063565,-0.690452,0.066779,-0.717477,-0.999473,0.378807,-0.196286
735,421875393,0.058387,-0.690854,0.068700,-0.717349,-0.871389,0.778353,0.021371
736,421908727,0.054700,-0.691440,0.069888,-0.716960,-0.636589,1.547782,0.460705
737,421942061,0.053513,-0.692137,0.069287,-0.716436,-0.465771,1.628227,0.269554
738,421975395,0.055571,-0.692939,0.066827,-0.715737,-0.218261,1.946060,0.216883
739,422008729,0.062266,-0.693310,0.060656,-0.715376,-0.105572,2.026089,0.304562
740,422042063,0.074258,-0.693381,0.049171,-0.715045,-0.433848,1.652539,0.482985
741,422075397,0.090082,-0.693451,0.033898,-0.714045,-0.806778,1.012598,0.173810
742,422108731,0.108062,-0.693466,0.016852,-0.712138,-1.011723,0.540961,-0.099432
743,422142065,0.127319,-0.693498,-0.000930,-0.709117,-0.948313,0.150079,0.095283
744,422175399,0.146779,-0.693440,-0.018955,-0.705149,-0.877195,-0.357327,0.047040
745,422208733,0.164413,-0.693401,-0.036581,-0.700588,-0.796582,-1.459445,-0.185128
746,422242067,0.178233,-0.691970,-0.053305,-0.697544,0.381583,-3.039617,0.413740
747,422275401,0.189316,-0.687545,-0.070640,-0.697460,-0.490505,-3.523627,-0.297290
748,422308735,0.195783,-0.688788,-0.082352,-0.693150,-1.056850,0.682982,0.734532
749,422342069,0.198354,-0.689551,-0.089984,-0.690707,0.139925,1.297591,-0.017721
750,422375403,0.202636,-0.692165,-0.098690,-0.685642,0.072587,0.709005,-0.349456
751,422408737,0.207182,-0.695806,-0.105945,-0.679487,0.354232,1.065525,-0.008361
752,422442071,0.212166,-0.699211,-0.113566,-0.673194,0.584421,0.886120,0.444700
753,422475405,0.219182,-0.701585,-0.123786,-0.666642,0.569463,-0.023031,0.323119
754,422508739,0.228275,-0.702153,-0.136987,-0.660382,0.814948,-1.221734,0.608235
755,422542073,0.235991,-0.701664,-0.150048,-0.655332,0.619767,-0.905985,-0.076951
756,422575407,0.241457,-0.702119,-0.161397,-0.650135,0.624025,-0.081978,-0.300113
757,422608741,0.245475,-0.703442,-0.170024,-0.644982,0.830856,-0.153908,0.414558
758,422642075,0.244318,-0.706410,-0.173824,-0.641153,1.078107,-0.251395,0.443202
759,422675409,0.240721,-0.709775,-0.175975,-0.638203,1.568014,0.086647,0.153914
760,422708743,0.238262,-0.712860,-0.178582,-0.634955,1.499392,0.039744,0.163824
761,422742077,0.233344,-0.717069,-0.179030,-0.631909,0.600865,-0.023125,0.276989
762,422775411,0.225465,-0.721367,-0.176136,-0.630689,0.014208,-0.033485,0.478037
763,422808745,0.218014,-0.724077,-0.173862,-0.630835,-0.111041,0.252657,0.288627
764,422842079,0.213491,-0.725713,-0.174754,-0.630254,-1.134056,0.271258,0.090516
765,422875413,0.212013,-0.726345,-0.178505,-0.628973,-1.187776,0.021734,-0.052667
766,422908747,0.210661,-0.727028,-0.182008,-0.627633,-0.279193,-0.224144,-0.207388
767,422942081,0.207948,-0.728713,-0.183677,-0.626096,0.320998,-0.340464,0.141475
768,422975415,0.203204,-0.731015,-0.182555,-0.625297,1.123487,-0.439755,0.364204
769,423008749,0.197108,-0.733065,-0.179952,-0.625603,1.483424,-0.355882,0.340303
770,423042083,0.190975,-0.735561,-0.177224,-0.625354,0.685823,-0.215685,0.234857
771,423075417,0.185307,-0.738673,-0.174404,-0.624183,0.105562,-0.141320,-0.011756
772,423108751,0.179818,-0.741729,-0.171324,-0.623016,-0.157729,-0.083139,0.206718
773,423142085,0.174728,-0.744232,-0.168995,-0.622115,-0.208634,0.033461,0.123876
774,423175419,0.171950,-0.746189,-0.169366,-0.620442,-0.185308,-0.013728,0.078590
775,423208753,0.171851,-0.747503,-0.171707,-0.618241,-0.110934,0.093008,0.130697
776,423242087,0.170720,-0.748883,-0.172075,-0.616780,0.253057,-0.199480,0.057104
777,423275421,0.166027,-0.751248,-0.169238,-0.615969,0.659088,-0.809023,0.407387
778,423308755,0.160800,-0.753875,-0.165232,-0.615233,0.346678,-0.608897,0.268014
779,423342089,0.155889,-0.756524,-0.161179,-0.614320,-0.174499,-0.330644,0.203143
780,423375423,0.152000,-0.758404,-0.157888,-0.613831,-0.268404,0.082062,0.110003
781,423408757,0.148569,-0.759780,-0.154690,-0.613784,-0.083728,-0.192755,0.226113
782,423442091,0.146558,-0.760961,-0.153308,-0.613150,0.034505,-0.339311,0.093511
783,423475425,0.147321,-0.761854,-0.153972,-0.611691,-0.126092,-0.530281,0.246574
784,423508759,0.147864,-0.762481,-0.153864,-0.610806,0.001910,-0.611063,0.221653
785,423542093,0.147180,-0.763408,-0.153068,-0.610012,0.047039,-0.581559,0.180124
786,423575427,0.148521,-0.764206,-0.153315,-0.608624,-0.078341,-0.292501,0.151012
787,423608761,0.148960,-0.764808,-0.152225,-0.608034,0.266377,-0.365336,0.228580
788,423642095,0.147533,-0.765690,-0.149011,-0.608069,0.398698,-0.309367,0.094382
789,423675429,0.146845,-0.766777,-0.145252,-0.607774,-0.028879,-0.384006,0.180900
790,423708763,0.145534,-0.767761,-0.140783,-0.607899,0.082053,-0.535338,0.283586
791,423742097,0.144101,-0.768416,-0.135699,-0.608568,0.123204,-0.315749,0.140594
792,423775431,0.141949,-0.769426,-0.129290,-0.609193,-0.025129,-0.515127,0.125056
793,423808765,0.138492,-0.770641,-0.121105,-0.610134,0.114600,-0.695057,0.217366
794,423842099,0.135170,-0.771757,-0.112368,-0.611140,0.356277,-0.639660,0.167280
795,423875433,0.132446,-0.772621,-0.103784,-0.612161,0.444248,-0.443461,0.245981
796,423908767,0.129907,-0.773171,-0.094910,-0.613450,0.361360,-0.143383,0.180937
797,423942101,0.126781,-0.773633,-0.085072,-0.614963,0.251245,-0.208892,0.191376
798,423975435,0.123021,-0.773862,-0.074628,-0.616793,0.286915,-0.224743,0.311809
799,424008769,0.118728,-0.772953,-0.064185,-0.619941,0.745525,0.111073,0.393234
800,424042103,0.114697,-0.770414,-0.054981,-0.624725,1.155748,0.333948,0.284713
801,424075437,0.112376,-0.766415,-0.047776,-0.630632,1.190028,0.301858,0.128578
802,424108771,0.111669,-0.761230,-0.042060,-0.637407,0.912827,0.075449,0.266454
803,424142105,0.111668,-0.755390,-0.037220,-0.644616,0.421702,-0.161501,0.248353
804,424175439,0.110859,-0.749052,-0.031804,-0.652395,0.181740,-0.300589,0.154657
805,424208773,0.111205,-0.740338,-0.027618,-0.662397,0.117059,-0.067045,0.335081
806,424242107,0.112323,-0.731246,-0.024201,-0.672366,-1.024425,0.098850,0.744969
807,424275441,0.109425,-0.724249,-0.016881,-0.680590,-1.465620,-0.024970,0.662190
808,424308775,0.102864,-0.719585,-0.005958,-0.686716,-1.197902,-0.310087,0.164011
809,424342109,0.097188,-0.716417,0.004208,-0.690856,-0.796313,0.222843,0.043610
810,424375443,0.092587,-0.713726,0.012575,-0.694165,-0.830288,0.278201,-0.307063
811,424408777,0.086789,-0.711441,0.020735,-0.697057,-0.954598,0.387158,-0.506970
812,424442111,0.080664,-0.709540,0.027850,-0.699478,-0.895968,0.711663,-0.338309
813,424475445,0.077158,-0.708284,0.030863,-0.701019,-1.123509,0.745861,0.090320
814,424508779,0.076611,-0.707773,0.030090,-0.701628,-1.288701,0.660840,0.340427
815,424542113,0.077256,-0.707764,0.028500,-0.701634,-1.010870,0.529836,0.129882
816,424575447,0.077981,-0.707872,0.027651,-0.701478,-0.198639,0.459132,0.524321
817,424608781,0.077541,-0.707849,0.027866,-0.701542,0.419210,1.078875,0.359805
818,424642115,0.077897,-0.707161,0.026841,-0.702235,0.550984,1.040580,0.294764
819,424675449,0.079365,-0.706159,0.024362,-0.703169,0.349196,1.483479,0.503409
820,424708783,0.084166,-0.705060,0.018776,-0.703885,-0.220888,1.693557,0.597860
821,424742117,0.092321,-0.703515,0.010511,-0.704579,-0.418602,1.601164,0.506380
822,424775451,0.104618,-0.701618,-0.000002,-0.704831,-0.505765,1.014728,0.094516
823,424808785,0.120437,-0.700037,-0.012797,-0.703761,-1.138473,0.248511,-0.178808
824,424842119,0.136410,-0.697913,-0.025656,-0.702603,-0.915101,0.037540,-0.021578
825,424875453,0.151365,-0.692618,-0.037192,-0.704262,-0.586833,-1.016243,0.560887
826,424908787,0.163754,-0.684459,-0.048639,-0.708756,-1.642212,-1.246204,-1.029011
827,424942121,0.168350,-0.684676,-0.054858,-0.707013,-1.893995,-0.343373,-0.306967
828,424975455,0.173336,-0.685832,-0.063603,-0.703948,-1.213907,-0.197720,-0.328813
829,425008789,0.179020,-0.687120,-0.075882,-0.700043,0.389744,-0.568811,0.106214
830,425042123,0.185412,-0.684800,-0.089755,-0.699010,1.890147,-0.354851,0.656530
831,425075457,0.193195,-0.683428,-0.107177,-0.695784,0.034515,0.530390,0.023602
832,425108791,0.208879,-0.681247,-0.124849,-0.690424,1.613129,1.314361,0.257556
833,425142125,0.222488,-0.679705,-0.141369,-0.684482,1.576841,-0.427587,-0.142283
834,425175459,0.233961,-0.679172,-0.156155,-0.677940,0.607628,-0.279102,0.164596
835,425208793,0.240245,-0.678661,-0.167121,-0.673626,0.872606,-0.660921,0.714525
836,425242127,0.240601,-0.677756,-0.172042,-0.673171,0.484165,0.465368,0.395518
837,425275461,0.239763,-0.676882,-0.174447,-0.673730,0.399315,0.140076,-0.013646
838,425308795,0.239781,-0.676167,-0.177789,-0.673568,0.349973,0.386663,0.209920
839,425342129,0.240181,-0.675556,-0.183036,-0.672633,-0.132650,0.376551,0.329161
840,425375463,0.242142,-0.675182,-0.189737,-0.670445,-0.004212,0.369937,0.027150
841,425408797,0.243854,-0.675408,-0.195627,-0.667899,0.331024,-0.552373,-0.012859
842,425442131,0.243029,-0.676252,-0.199076,-0.666324,0.388454,-0.383398,0.211775
843,425475465,0.240504,-0.677627,-0.200747,-0.665342,0.123274,-0.806729,0.081983
844,425508799,0.235927,-0.679672,-0.199713,-0.665206,-0.266051,0.046976,0.096860
845,425542133,0.230791,-0.682045,-0.197751,-0.665165,-0.251805,-0.375112,0.090585
846,425575467,0.226642,-0.685056,-0.196716,-0.663803,-0.579076,-0.202202,0.135792
847,425608801,0.222458,-0.688492,-0.195205,-0.662107,-0.292319,0.178313,0.092709
848,425642135,0.219551,-0.692769,-0.194372,-0.658854,-0.574286,-0.456720,0.100110
849,425675469,0.214209,-0.698165,-0.191364,-0.655789,-0.415324,-0.735737,0.220397
850,425708803,0.206045,-0.703666,-0.185483,-0.654214,-0.325835,-0.257566,0.106057
851,425742137,0.197635,-0.708632,-0.178762,-0.653318,-0.438147,0.386097,0.198983
852,425775471,0.190111,-0.713448,-0.173102,-0.651832,-0.332467,0.282196,0.157539
853,425808805,0.183372,-0.717527,-0.168786,-0.650416,0.269478,0.277018,0.172835
854,425842139,0.177825,-0.721118,-0.165613,-0.648799,0.532453,0.242474,0.112486
855,425875473,0.172437,-0.724444,-0.162193,-0.647410,0.755274,-0.235412,0.281461
856,425908807,0.166044,-0.727324,-0.157837,-0.646929,0.490706,-0.221967,0.258486
857,425942141,0.158520,-0.730288,-0.152571,-0.646740,0.844044,-0.286603,0.134559
858,425975475,0.150576,-0.733108,-0.146767,-0.646791,1.203489,-0.101217,0.179876
859,426008809,0.142743,-0.735763,-0.140941,-0.646849,1.171376,-0.136787,0.354277
860,426042143,0.137066,-0.737989,-0.136609,-0.646470,0.237899,-0.157855,0.182361
861,426075477,0.133046,-0.740041,-0.133529,-0.645606,-0.112131,0.052515,-0.081156
862,426108811,0.130317,-0.742482,-0.131543,-0.643766,-0.148526,-0.517046,0.231458
863,426142145,0.127543,-0.744370,-0.129482,-0.642557,-0.242300,-0.126559,0.236660
864,426175479,0.124544,-0.746318,-0.127319,-0.641317,-0.218486,-0.077701,0.158961
865,426208813,0.121619,-0.748353,-0.125219,-0.639919,-0.244331,0.010771,0.387604
866,426242147,0.119152,-0.749978,-0.123982,-0.638721,-0.354187,0.280294,0.019753
867,426275481,0.118994,-0.751702,-0.125792,-0.636366,-0.332772,0.076571,-0.017797
868,426308815,0.119576,-0.753081,-0.128618,-0.634056,-0.098820,0.119072,0.162837
869,426342149,0.119365,-0.754058,-0.130059,-0.632639,-0.142481,-0.225312,0.261363
870,426375483,0.116615,-0.755777,-0.129044,-0.631307,0.046777,-0.358346,0.138130
871,426408817,0.112991,-0.758533,-0.126629,-0.629147,0.186025,-0.454546,0.296108
872,426442151,0.110691,-0.760432,-0.124756,-0.627636,-0.267637,-0.232775,0.290045
873,426475485,0.108137,-0.762194,-0.122536,-0.626380,-0.195157,-0.201063,0.100706
874,426508819,0.105804,-0.763903,-0.119856,-0.625214,-0.219098,-0.096601,0.257219
875,426542153,0.103691,-0.765036,-0.117184,-0.624689,-0.139398,-0.098740,0.235769
876,426575487,0.101153,-0.765637,-0.114136,-0.624933,0.235146,-0.153744,0.315194
877,426608821,0.097044,-0.766148,-0.109580,-0.625773,0.661405,-0.435862,0.296134
878,426642155,0.092344,-0.766785,-0.104323,-0.626602,0.663658,-0.441519,0.300494
879,426675489,0.089470,-0.767215,-0.099530,-0.627272,0.053242,-0.290474,0.155435
880,426708823,0.086875,-0.767880,-0.094518,-0.627598,-0.298681,0.085307,0.059332
881,426742157,0.084440,-0.768265,-0.089960,-0.628129,-0.156380,0.129371,0.250721
882,426775491,0.082766,-0.768112,-0.086320,-0.629049,-0.108582,-0.140478,0.236202
883,426808825,0.081790,-0.767996,-0.083433,-0.629708,-0.340660,-0.146193,0.169806
884,426842159,0.081858,-0.767760,-0.081589,-0.630227,-0.330819,0.061829,0.162498
885,426875493,0.082208,-0.767320,-0.080610,-0.630844,-0.168518,0.103187,0.170209
886,426908827,0.085140,-0.766773,-0.081797,-0.630967,0.076893,0.080373,0.017879
887,426942161,0.089068,-0.766399,-0.084363,-0.630541,0.240501,-0.483570,0.310581
888,426975495,0.094587,-0.765427,-0.087488,-0.630491,0.384630,-0.065530,0.128757
889,427008829,0.100262,-0.764768,-0.090213,-0.630030,0.155134,-0.096140,0.227818
890,427042163,0.105133,-0.764390,-0.093046,-0.629282,-0.037871,0.015124,0.266523
891,427075497,0.110515,-0.763391,-0.096557,-0.629044,-0.139356,-0.013680,0.122278
892,427108831,0.115639,-0.761904,-0.099959,-0.629393,0.030373,-0.308422,0.252949
893,427142165,0.120852,-0.760244,-0.103181,-0.629902,0.165892,-0.318743,0.216747
894,427175499,0.126809,-0.758500,-0.106606,-0.630263,0.302175,-0.126266,0.189770
895,427208833,0.132849,-0.756534,-0.109996,-0.630798,0.425269,-0.173375,0.226418
896,427242167,0.137439,-0.754500,-0.111616,-0.631965,0.374001,-0.091567,0.118741
897,427275501,0.140502,-0.753007,-0.111251,-0.633136,0.290865,-0.258933,0.104557
898,427308835,0.143588,-0.751644,-0.110848,-0.634134,0.255362,-0.381580,0.189937
899,427342169,0.146366,-0.750035,-0.110016,-0.635547,0.025617,-0.338424,0.122113
900,427375503,0.147877,-0.748681,-0.107397,-0.637240,-0.092230,-0.163703,0.054173
901,427408837,0.148114,-0.747522,-0.103234,-0.639229,0.194366,-0.119257,0.154473
902,427442171,0.147521,-0.746364,-0.098344,-0.641487,0.306693,-0.201646,0.167804
903,427475505,0.146711,-0.745321,-0.092739,-0.643716,0.214360,-0.056177,0.191586
904,427508839,0.144505,-0.744071,-0.085364,-0.646675,0.441764,-0.132067,0.134166
905,427542173,0.141608,-0.742361,-0.077311,-0.650284,0.716962,-0.328972,0.116646
906,427575507,0.139344,-0.740607,-0.069892,-0.653604,0.375691,-0.541923,0.154912
907,427608841,0.136624,-0.739419,-0.061770,-0.656336,-0.053723,-0.913031,0.135644
908,427642175,0.131976,-0.738544,-0.051946,-0.659117,-0.298107,-0.515669,0.203920
909,427675509,0.125196,-0.736527,-0.040770,-0.663469,0.114215,-0.036669,0.365589
910,427708843,0.117366,-0.732791,-0.029767,-0.669593,0.344410,0.308235,0.377469
911,427742177,0.110810,-0.728425,-0.020400,-0.675796,0.020289,0.671291,0.581042
912,427775511,0.105086,-0.724054,-0.011681,-0.681590,-0.157780,0.643923,0.347529
913,427808845,0.099599,-0.719887,-0.002842,-0.686901,-0.026065,0.503858,0.239058
914,427842179,0.094171,-0.716002,0.005459,-0.691694,0.075965,0.461582,0.164749
915,427875513,0.090092,-0.712367,0.011741,-0.695899,-0.360576,0.430610,0.151911
916,427908847,0.086795,-0.708935,0.016283,-0.699722,-0.805968,0.220518,0.283973
917,427942181,0.083016,-0.705946,0.020499,-0.703083,-1.158004,0.361388,0.002194
918,427975515,0.079319,-0.703825,0.024142,-0.705517,-1.308676,0.383675,0.057197
919,428008849,0.075355,-0.702755,0.027424,-0.706896,-1.343530,0.398075,-0.116796
920,428042183,0.071596,-0.702717,0.029634,-0.707236,-1.312591,0.312658,-0.431160
921,428075517,0.068241,-0.703596,0.031203,-0.706625,-1.204755,0.580844,-0.092243
922,428108851,0.066273,-0.705053,0.032083,-0.705320,-0.925411,0.806134,0.244967
923,428142185,0.065496,-0.706896,0.032483,-0.703527,-0.562021,0.906673,0.362207
924,428175519,0.065515,-0.708586,0.032697,-0.701813,-0.097386,1.303538,0.115310
925,428208853,0.068827,-0.709759,0.029967,-0.700431,0.178319,1.425087,0.096475
926,428242187,0.075996,-0.710663,0.023185,-0.699029,0.055138,1.272421,0.351221
927,428275521,0.085934,-0.710898,0.013546,-0.697891,-0.022547,0.942276,0.411817
928,428308855,0.098147,-0.710207,0.001437,-0.697114,-0.136822,0.511438,0.461104
929,428342189,0.111906,-0.707246,-0.012881,-0.697933,0.064582,0.378392,0.492067
930,428375523,0.127112,-0.703195,-0.028605,-0.698954,-0.261664,0.274214,0.139755
931,428408857,0.142301,-0.698827,-0.043917,-0.699613,-0.198270,-0.184120,0.214770
932,428442191,0.156323,-0.694596,-0.058113,-0.699799,0.031647,-0.073000,0.309207
933,428475525,0.170191,-0.689548,-0.072003,-0.700264,0.204504,-0.548925,0.331828
934,428508859,0.183102,-0.684882,-0.085272,-0.700097,0.593626,-0.195802,0.236333
935,428542193,0.195426,-0.680415,-0.097406,-0.699537,0.522380,0.441766,0.237909
936,428575527,0.207476,-0.675415,-0.110026,-0.699042,0.360579,-0.017987,0.001598
937,428608861,0.219634,-0.671517,-0.123685,-0.696796,0.191079,-0.110375,0.264486
938,428642195,0.230846,-0.667584,-0.137023,-0.694451,0.043737,0.020646,0.090947
939,428675529,0.240825,-0.663614,-0.149464,-0.692298,0.083102,-0.201665,-0.080307
940,428708863,0.249641,-0.659845,-0.161576,-0.690053,0.045807,-0.399791,0.085871
941,428742197,0.257008,-0.656796,-0.173095,-0.687460,-0.034767,-0.337707,0.233965
942,428775531,0.262640,-0.654010,-0.183069,-0.685400,0.010340,0.040672,0.192496
943,428808865,0.267500,-0.651629,-0.191651,-0.683440,0.083762,0.181379,0.066336
944,428842199,0.270484,-0.650584,-0.198841,-0.681203,0.417006,-0.432198,0.058679
945,428875533,0.271292,-0.650662,-0.204523,-0.679122,0.446910,-0.714744,-0.072015
946,428908867,0.269545,-0.651595,-0.207836,-0.677916,0.674660,-0.137571,-0.090991
947,428942201,0.266720,-0.653145,-0.210208,-0.676810,0.827218,-0.001804,0.045245
948,428975535,0.264120,-0.654793,-0.212056,-0.675660,0.864162,-0.164433,0.357086
949,429008869,0.261156,-0.656745,-0.212759,-0.674696,0.444027,0.084241,-0.007639
950,429042203,0.256966,-0.659164,-0.211755,-0.674261,0.571884,0.290564,0.130607
951,429075537,0.253049,-0.661435,-0.211041,-0.673743,0.411604,0.052521,0.249228
952,429108871,0.249219,-0.663383,-0.210187,-0.673522,0.164337,0.292488,0.006910
953,429142205,0.245885,-0.665548,-0.209256,-0.672901,0.118654,-0.376049,0.161761
954,429175539,0.240639,-0.668749,-0.206666,-0.672424,-0.130431,-0.299486,0.229690
955,429208873,0.234559,-0.672465,-0.203566,-0.671812,-0.288023,-0.035820,0.130550
956,429242207,0.228731,-0.676065,-0.200449,-0.671145,-0.376294,-0.012023,0.117006
957,429275541,0.222141,-0.679968,-0.196738,-0.670513,-0.444101,-0.164356,0.175521
958,429308875,0.215497,-0.684084,-0.193306,-0.669493,-0.407669,-0.451171,0.105357
959,429342209,0.209173,-0.688878,-0.190400,-0.667413,-0.535772,-0.428846,0.226816
960,429375543,0.201924,-0.694205,-0.186219,-0.665301,-0.658701,-0.067856,0.089988
961,429408877,0.193645,-0.699922,-0.180652,-0.663305,-0.483322,0.007233,0.136028
962,429442211,0.184918,-0.705642,-0.174591,-0.661355,-0.226593,0.056100,0.256405
963,429475545,0.175807,-0.711094,-0.168486,-0.659581,0.054172,0.070842,0.192641
964,429508879,0.168227,-0.716205,-0.163477,-0.657285,-0.102453,0.322101,0.221810
965,429542213,0.162681,-0.721280,-0.159796,-0.654028,-0.451024,-0.084431,0.069866
966,429575547,0.157418,-0.727389,-0.156387,-0.649359,-0.755488,-0.140135,0.052391
967,429608881,0.151253,-0.733819,-0.152179,-0.644571,-0.233695,0.138593,0.034457
968,429642215,0.145426,-0.739912,-0.148172,-0.639863,0.216415,0.017287,0.009342
969,429675549,0.139818,-0.746935,-0.144853,-0.633683,0.327239,0.053534,-0.281949
970,429708883,0.136650,-0.754749,-0.142890,-0.625508,0.210421,-0.432742,-0.243003
971,429742217,0.131468,-0.762493,-0.138580,-0.618154,0.342991,-1.221527,0.790632
972,429775551,0.126654,-0.767443,-0.134313,-0.613960,0.786932,-0.403163,0.355673
973,429808885,0.125957,-0.769340,-0.133070,-0.611998,1.188363,-0.606432,0.572186
974,429842219,0.124086,-0.769733,-0.132087,-0.612099,0.730806,0.117044,0.483707
975,429875553,0.123648,-0.770442,-0.131623,-0.611394,-0.363590,0.369982,0.137024
976,429908887,0.122741,-0.771532,-0.130511,-0.610442,-0.191248,0.053562,0.128161
977,429942221,0.121916,-0.772112,-0.129867,-0.610011,-0.031429,-0.168726,0.225776
978,429975555,0.122100,-0.772352,-0.129690,-0.609706,0.006266,-0.468126,0.373116
979,430008889,0.121868,-0.772462,-0.129156,-0.609727,-0.021620,-0.375707,0.173914
980,430042223,0.122333,-0.772483,-0.128564,-0.609733,-0.105419,-0.074495,0.264232
981,430075557,0.122307,-0.772478,-0.127477,-0.609973,-0.088096,-0.020420,0.208614
982,430108891,0.122120,-0.772375,-0.126204,-0.610405,-0.157772,0.039287,0.148607
983,430142225,0.121622,-0.772220,-0.124755,-0.610999,-0.118669,-0.431836,0.257365
984,430175559,0.121531,-0.771980,-0.123249,-0.611624,-0.115976,-0.418258,0.217346
985,430208893,0.120475,-0.771752,-0.120342,-0.612699,-0.134493,-0.393061,0.268991
986,430242227,0.117469,-0.771588,-0.115722,-0.614377,0.032919,0.090058,0.160893
987,430275561,0.116199,-0.771324,-0.112657,-0.615518,0.059607,0.329566,0.062496
988,430308895,0.115831,-0.770884,-0.111355,-0.616375,0.190035,-0.231895,0.344620
989,430342229,0.116455,-0.769816,-0.110301,-0.617782,0.527938,-0.331701,0.091465
990,430375563,0.117211,-0.769205,-0.108307,-0.618751,0.444219,-0.546022,0.077053
991,430408897,0.117972,-0.769077,-0.105590,-0.619235,0.417895,-0.370539,0.165973
992,430442231,0.118534,-0.769043,-0.102226,-0.619734,0.365653,-0.311974,0.271253
993,430475565,0.119099,-0.768664,-0.098787,-0.620653,0.281838,-0.005352,0.239738
994,430508899,0.120868,-0.767907,-0.096877,-0.621548,-0.007145,0.370420,0.137813
995,430542233,0.125849,-0.766432,-0.098209,-0.622171,-0.145436,0.611594,0.139420
996,430575567,0.133423,-0.764012,-0.102432,-0.622888,-0.237934,0.193254,0.220705
997,430608901,0.140712,-0.761193,-0.107040,-0.623959,-0.367186,0.006519,0.186036
998,430642235,0.146282,-0.758430,-0.109788,-0.625563,-0.094001,-0.618064,0.177166
999,430675569,0.149560,-0.755687,-0.110303,-0.628013,0.323995,-0.518213,0.176537
1000,430708903,0.151391,-0.752946,-0.109188,-0.631053,0.524571,-0.529493,0.232873
1001,430742237,0.153623,-0.750026,-0.107652,-0.634247,0.478517,0.118657,0.106086
1002,430775571,0.157656,-0.746197,-0.106789,-0.637909,0.691967,0.080778,0.117546
1003,430808905,0.161940,-0.742659,-0.106144,-0.641065,0.281664,0.248787,0.189520
1004,430842239,0.165674,-0.739701,-0.104849,-0.643738,0.215112,0.146686,0.248201
1005,430875573,0.168632,-0.737128,-0.103225,-0.646180,0.028589,0.068503,0.093033
1006,430908907,0.171330,-0.734748,-0.101342,-0.648474,-0.174885,-0.173886,-0.097809
1007,430942241,0.172989,-0.732937,-0.098104,-0.650577,-0.008103,-0.497452,0.149198
1008,430975575,0.173208,-0.731525,-0.093111,-0.652838,0.319280,-0.609310,0.139220
1009,431008909,0.172212,-0.730598,-0.086678,-0.655022,0.380373,-0.617772,0.136118
1010,431042243,0.168573,-0.729692,-0.078111,-0.658050,0.497562,-0.535025,0.357126
1011,431075577,0.162247,-0.727146,-0.067730,-0.663585,0.626058,-0.330906,0.452532
1012,431108911,0.154430,-0.723201,-0.056476,-0.670776,0.493119,0.138878,0.430738
1013,431142245,0.146378,-0.719025,-0.044771,-0.677916,0.248725,0.365549,0.199551
1014,431175579,0.140002,-0.715856,-0.034302,-0.683206,-0.205717,0.208279,0.431826
1015,431208913,0.133263,-0.713603,-0.023986,-0.687338,-0.359996,0.181839,0.307714
1016,431242247,0.125999,-0.711290,-0.013887,-0.691373,-0.496138,0.243813,-0.002810
1017,431275581,0.119349,-0.709096,-0.005269,-0.694916,-0.786312,0.148539,0.284509
1018,431308915,0.111468,-0.707108,0.003515,-0.698254,-1.181757,-0.069980,0.141268
1019,431342249,0.101982,-0.705649,0.013100,-0.701060,-1.243813,0.225977,-0.293581
1020,431375583,0.093778,-0.705123,0.021029,-0.702540,-1.097720,0.545907,-0.077334
1021,431408917,0.087263,-0.705350,0.026278,-0.702975,-1.127330,0.825765,-0.099034
1022,431442251,0.082493,-0.706049,0.028931,-0.702744,-0.996796,0.656457,-0.270911
1023,431475585,0.078886,-0.707587,0.030734,-0.701534,-0.984694,0.674196,0.054065
1024,431508919,0.076214,-0.709511,0.032899,-0.699785,-0.725821,0.732451,0.382736
1025,431542253,0.074257,-0.711476,0.035335,-0.697880,-0.345473,0.762836,0.265745
1026,431575587,0.073047,-0.713151,0.037148,-0.696202,-0.049031,1.094691,0.159697
1027,431608921,0.074069,-0.714059,0.036559,-0.695194,0.176050,1.549668,0.223138
1028,431642255,0.079349,-0.714536,0.031648,-0.694361,0.120188,1.546423,0.412412
1029,431675589,0.088792,-0.713638,0.022727,-0.694491,0.147403,1.016683,0.371755
1030,431708923,0.101586,-0.711455,0.010556,-0.695268,-0.232931,0.514338,0.054429
1031,431742257,0.116156,-0.708701,-0.002883,-0.695873,-0.365000,0.284600,0.267976
1032,431775591,0.131669,-0.705675,-0.017197,-0.695980,-0.589722,0.328487,0.308641
1033,431808925,0.145999,-0.703106,-0.030990,-0.695242,-0.660212,0.259722,-0.050526
1034,431842259,0.159627,-0.700419,-0.044676,-0.694214,-0.468649,0.262954,0.187435
1035,431875593,0.174544,-0.696977,-0.059630,-0.692964,-0.419012,0.668674,0.401876
1036,431908927,0.190784,-0.693743,-0.076321,-0.690286,-0.538652,0.557033,0.229575
1037,431942261,0.207511,-0.690395,-0.094086,-0.686614,-0.262031,0.051220,0.395637
1038,431975595,0.223851,-0.686185,-0.112200,-0.682971,-0.055003,-0.195707,0.364025
1039,432008929,0.238537,-0.682267,-0.130075,-0.678741,0.453828,-0.768181,0.260270
1040,432042263,0.250533,-0.677810,-0.146261,-0.675582,0.827667,-0.595985,0.403086
1041,432075597,0.259326,-0.673830,-0.159790,-0.673177,1.019433,-0.557747,0.240494
1042,432108931,0.265591,-0.669911,-0.171192,-0.671841,0.867800,-0.481363,-0.029242
1043,432142265,0.269989,-0.667171,-0.181893,-0.670000,0.399463,-0.454612,-0.018227
1044,432175599,0.271361,-0.665675,-0.189820,-0.668734,0.301615,-0.075720,0.016965
1045,432208933,0.271294,-0.664586,-0.196029,-0.668053,-0.002337,0.266764,-0.163200
1046,432242267,0.271133,-0.663685,-0.201448,-0.667402,0.583393,-0.023411,-0.059907
1047,432275601,0.270489,-0.664065,-0.206289,-0.665805,0.485113,-0.289967,0.130135
1048,432308935,0.268341,-0.665236,-0.209768,-0.664416,0.122055,0.356273,0.300498
1049,432342269,0.266637,-0.665563,-0.212491,-0.663909,0.903663,0.944868,0.133018
1050,432375603,0.265887,-0.665852,-0.215739,-0.662871,1.293737,-0.593292,0.034256
1051,432408937,0.263863,-0.667106,-0.218849,-0.661399,0.411170,-1.116680,0.063141
1052,432442271,0.258626,-0.669641,-0.218615,-0.660983,-0.001806,-0.433847,0.053613
1053,432475605,0.252036,-0.672532,-0.215629,-0.661574,0.283570,0.140072,0.023194
1054,432508939,0.245282,-0.675808,-0.211756,-0.662025,-0.022490,-0.547848,0.182365
1055,432542273,0.237547,-0.680405,-0.207366,-0.661527,-0.750758,-0.131903,0.123573
1056,432575607,0.229502,-0.685565,-0.202144,-0.660655,-0.423458,-0.145063,0.030912
1057,432608941,0.221520,-0.691270,-0.196875,-0.659024,-0.580144,-0.555690,0.217665
1058,432642275,0.212552,-0.697975,-0.191338,-0.656536,-0.970259,-0.261210,0.040759
1059,432675609,0.202458,-0.705329,-0.184210,-0.653900,-0.685177,-0.074538,0.109835
1060,432708943,0.191072,-0.713319,-0.175436,-0.651067,-0.514115,-0.001829,0.077650
1061,432742277,0.179455,-0.721681,-0.166817,-0.647412,-0.215530,0.360125,0.133354
1062,432775611,0.169290,-0.730327,-0.159617,-0.642248,-0.027577,0.459906,-0.011107
1063,432808945,0.160343,-0.738949,-0.153173,-0.636224,-0.196629,0.172870,0.044755
1064,432842279,0.151951,-0.747123,-0.147458,-0.630057,0.121895,-0.057983,0.105352
1065,432875613,0.144113,-0.754000,-0.142459,-0.624835,0.862298,0.092473,0.255136
1066,432908947,0.135229,-0.758450,-0.137067,-0.622637,2.466761,0.045968,0.901222
1067,432942281,0.127935,-0.759878,-0.134046,-0.623095,1.656855,-0.201991,0.332591
1068,432975615,0.125029,-0.762140,-0.133952,-0.620938,-0.314540,-0.531943,0.042037
1069,433008949,0.123926,-0.764662,-0.134408,-0.617954,-0.803756,-0.224706,0.080451
1070,433042283,0.123521,-0.765834,-0.134918,-0.616470,-0.587500,-0.495250,0.064570
1071,433075617,0.122394,-0.766516,-0.135082,-0.615812,-0.397773,-0.289573,0.294330
1072,433108951,0.121648,-0.767302,-0.135664,-0.614852,-0.337717,-0.245865,0.234948
1073,433142285,0.121849,-0.767865,-0.136405,-0.613945,0.222545,-0.485135,0.296762
1074,433175619,0.120238,-0.768332,-0.135723,-0.613828,0.677221,-0.115994,0.330832
1075,433208953,0.120145,-0.768601,-0.136160,-0.613414,0.307622,0.098770,0.187303
1076,433242287,0.121196,-0.768632,-0.137416,-0.612887,-0.113779,-0.029036,0.261234
1077,433275621,0.121823,-0.768458,-0.138416,-0.612757,-0.186979,-0.181425,0.197098
1078,433308955,0.122354,-0.768333,-0.138885,-0.612702,-0.133512,-0.303887,0.191180
1079,433342289,0.122288,-0.768460,-0.138502,-0.612642,-0.271300,-0.348390,0.140080
1080,433375623,0.122012,-0.768617,-0.137618,-0.612699,-0.236785,-0.308077,0.203521
1081,433408957,0.121672,-0.768534,-0.136396,-0.613144,0.190612,-0.373143,0.222697
1082,433442291,0.120950,-0.768332,-0.134664,-0.613922,0.381951,-0.318250,0.253514
1083,433475625,0.120855,-0.768096,-0.132760,-0.614651,0.402109,-0.237077,0.172469
1084,433508959,0.120872,-0.768019,-0.130519,-0.615224,0.296792,-0.304944,0.223965
1085,433542293,0.120906,-0.768005,-0.128324,-0.615696,0.084893,-0.258353,0.164114
1086,433575627,0.121423,-0.767742,-0.125977,-0.616406,0.078897,-0.332510,0.150708
1087,433608961,0.120392,-0.767678,-0.121778,-0.617531,0.344867,-0.398764,0.202448
1088,433642295,0.118270,-0.768114,-0.116417,-0.618432,0.533167,-0.727749,0.232850
1089,433675629,0.117145,-0.768604,-0.111329,-0.618974,0.351336,-0.413589,0.128426
1090,433708963,0.117231,-0.768766,-0.106608,-0.619587,0.237816,-0.353340,0.221577
1091,433742297,0.117091,-0.768804,-0.101770,-0.620379,0.349882,-0.165201,0.204472
1092,433775631,0.117901,-0.768066,-0.097642,-0.621802,0.755616,-0.237302,0.247440
1093,433808965,0.119497,-0.766255,-0.094198,-0.624258,0.992430,-0.178317,0.394489
1094,433842299,0.120958,-0.763320,-0.090813,-0.628062,1.213398,-0.041596,0.207816
1095,433875633,0.122602,-0.758947,-0.087791,-0.633449,1.261563,-0.234047,0.340405
1096,433908967,0.125548,-0.753832,-0.085945,-0.639207,0.502362,-0.074652,0.118947
1097,433942301,0.129529,-0.748794,-0.083694,-0.644610,0.036124,-0.047270,0.170712
1098,433975635,0.131203,-0.743263,-0.079408,-0.651182,0.387545,-0.337622,0.038308
1099,434008969,0.131818,-0.735282,-0.075490,-0.660517,0.728835,-0.344705,0.396541
1100,434042303,0.134557,-0.723941,-0.073825,-0.672570,0.074263,0.338670,0.164008
1101,434075637,0.140838,-0.708220,-0.072927,-0.687944,-0.428084,0.598437,0.621804
1102,434108971,0.142807,-0.699925,-0.070601,-0.696221,-2.051545,-0.605525,-0.155001
1103,434142305,0.140854,-0.697032,-0.064844,-0.700071,-1.857771,-1.396469,0.019871
1104,434175639,0.136002,-0.696842,-0.056685,-0.701926,-1.302179,-0.327467,-0.102773
1105,434208973,0.129256,-0.697572,-0.046418,-0.703227,-0.501431,0.204606,0.112386
1106,434242307,0.120701,-0.698442,-0.033929,-0.704597,-0.413816,0.161442,0.284381
1107,434275641,0.109771,-0.699544,-0.018395,-0.705866,-0.358265,0.223748,0.065024
1108,434308975,0.098370,-0.700834,-0.001714,-0.706505,-0.396156,0.418942,-0.478743
1109,434342309,0.089992,-0.702498,0.012151,-0.705867,-0.246467,0.397203,0.094630
1110,434375643,0.083711,-0.704384,0.022075,-0.704518,-0.372724,0.257554,0.356339
1111,434408977,0.077772,-0.705843,0.029527,-0.703465,-0.351366,0.371450,0.502735
1112,434442311,0.070097,-0.706760,0.036884,-0.703003,-0.179860,0.638462,0.246064
1113,434475645,0.063029,-0.707313,0.043931,-0.702711,0.116488,1.110201,0.000793
1114,434508979,0.058541,-0.707554,0.050082,-0.702445,0.337532,1.419576,0.163755
1115,434542313,0.056755,-0.707589,0.054735,-0.702209,0.055180,0.850073,0.521954
1116,434575647,0.054696,-0.707560,0.059471,-0.702017,-0.612949,0.373827,0.407955
1117,434608981,0.051947,-0.706614,0.063932,-0.702786,-0.236545,0.379001,0.034277
1118,434642315,0.050302,-0.705535,0.065726,-0.703823,-0.555311,0.495547,-0.148782
1119,434675649,0.049490,-0.705046,0.066416,-0.704306,-0.550175,0.951440,0.218144
1120,434708983,0.050557,-0.704431,0.064959,-0.704982,-0.305319,1.266017,0.396596
1121,434742317,0.055054,-0.703902,0.060198,-0.705595,-0.325059,1.243760,0.081970
1122,434775651,0.063623,-0.703808,0.051771,-0.705637,-0.466085,0.854334,-0.046836
1123,434808985,0.074831,-0.703757,0.040479,-0.705326,-0.244357,0.387809,-0.299860
1124,434842319,0.088443,-0.703527,0.026471,-0.704645,-0.349565,0.130557,0.150919
1125,434875653,0.102260,-0.703236,0.011330,-0.703471,-0.702346,0.570853,0.665903
1126,434908987,0.115933,-0.702312,-0.003399,-0.702355,-0.422125,0.771721,0.305064
1127,434942321,0.130685,-0.700958,-0.018961,-0.700868,-0.295654,0.487005,0.130878
1128,434975655,0.146345,-0.699990,-0.035277,-0.698104,-0.327823,0.723631,0.499911
1129,435008989,0.162424,-0.698346,-0.051367,-0.695190,0.018703,0.680698,0.385523
1130,435042323,0.180191,-0.696007,-0.067689,-0.691751,-0.167723,0.183960,0.350675
1131,435075657,0.199794,-0.689113,-0.085675,-0.691276,-0.090263,-0.133804,0.137503
1132,435108991,0.216441,-0.681673,-0.103686,-0.691173,0.274825,-0.785025,0.126270
1133,435142325,0.230726,-0.673868,-0.121693,-0.691270,-1.099304,-0.903248,-0.737803
1134,435175659,0.243227,-0.670535,-0.138667,-0.687016,-0.467504,-1.259002,-0.434153
1135,435208993,0.252099,-0.668906,-0.155056,-0.681884,0.970123,-2.016947,0.743625
1136,435242327,0.254384,-0.665912,-0.165944,-0.681403,1.243505,0.682694,0.966434
1137,435275661,0.259632,-0.660223,-0.174957,-0.682704,0.458548,1.829994,-0.255468
1138,435308995,0.268643,-0.656348,-0.188075,-0.679457,1.068415,-0.051651,-0.177882
1139,435342329,0.274818,-0.655877,-0.202305,-0.673327,-0.278368,-1.827385,-0.292187
1140,435375663,0.276575,-0.656332,-0.209816,-0.669857,0.630836,-0.380301,0.139042
1141,435408997,0.272947,-0.657636,-0.211380,-0.669574,0.711039,0.064598,0.069719
1142,435442331,0.270346,-0.659356,-0.213233,-0.668350,0.632745,-0.231185,0.348163
1143,435475665,0.265537,-0.662155,-0.212414,-0.667772,0.610075,0.050032,-0.006000
1144,435508999,0.258619,-0.666354,-0.209893,-0.667107,0.298083,0.263927,0.082867
1145,435542333,0.251968,-0.670252,-0.207613,-0.666460,0.045304,0.491919,0.253284
1146,435575667,0.246564,-0.673919,-0.206436,-0.665147,0.261989,0.331597,0.145182
1147,435609001,0.242412,-0.677864,-0.206076,-0.662772,0.120080,-0.504367,-0.072041
1148,435642335,0.235846,-0.683042,-0.203378,-0.660655,-0.180632,-0.446274,0.258734
1149,435675669,0.227945,-0.688632,-0.198313,-0.659163,-0.371957,0.398948,0.227337
1150,435709003,0.219668,-0.695969,-0.192834,-0.655885,-0.304167,-1.026954,-0.006652
1151,435742337,0.207678,-0.704756,-0.184356,-0.652839,-0.699229,-0.483582,-0.001138
1152,435775671,0.195053,-0.713594,-0.174333,-0.649880,-0.420018,0.271583,0.124311
1153,435809005,0.184462,-0.722161,-0.165977,-0.645683,0.021281,0.124022,0.137712
1154,435842339,0.174499,-0.730228,-0.159242,-0.641059,0.005861,0.338725,-0.065925
1155,435875673,0.163825,-0.739264,-0.152644,-0.635096,0.528131,0.483140,-0.142074
1156,435909007,0.151440,-0.749062,-0.144700,-0.628515,1.135018,0.446030,0.025704
1157,435942341,0.138798,-0.755719,-0.135869,-0.625428,1.308620,-0.513115,1.212164
1158,435975675,0.130283,-0.757265,-0.130980,-0.626433,0.341274,-0.306452,0.617107
1159,436009009,0.125246,-0.759650,-0.128719,-0.625039,-0.371454,-0.423671,-0.117768
1160,436042343,0.121490,-0.762318,-0.126887,-0.622903,-0.449086,-0.301520,0.240087
1161,436075677,0.116930,-0.763457,-0.124448,-0.622873,0.039013,-0.394944,0.243621
1162,436109011,0.112827,-0.764262,-0.122385,-0.623051,0.209784,-0.341696,0.186529
1163,436142345,0.111323,-0.765492,-0.121718,-0.621942,-0.022585,-0.459682,0.138728
1164,436175679,0.110430,-0.766521,-0.121669,-0.620843,0.010081,-0.417507,0.191777
1165,436209013,0.109716,-0.767187,-0.121988,-0.620083,-0.062345,-0.227357,0.249590
1166,436242347,0.109259,-0.767693,-0.122055,-0.619524,-0.198866,-0.066597,0.266389
1167,436275681,0.108206,-0.768298,-0.121850,-0.619000,-0.126698,-0.029028,0.239826
1168,436309015,0.108192,-0.768695,-0.123032,-0.618274,0.015228,0.010974,0.243474
1169,436342349,0.110868,-0.768567,-0.126285,-0.617302,-0.109025,0.137205,0.106592
1170,436375683,0.113451,-0.768269,-0.128781,-0.616689,0.106276,0.025706,0.148688
1171,436409017,0.114501,-0.768397,-0.130002,-0.616078,0.352429,-0.401844,0.238464
1172,436442351,0.116467,-0.768607,-0.131481,-0.615133,0.251116,-0.475446,0.270244
1173,436475685,0.118037,-0.768884,-0.131790,-0.614421,0.074822,-0.421240,0.172375
1174,436509019,0.118576,-0.769120,-0.130920,-0.614207,-0.055442,-0.387714,0.180424
1175,436542353,0.119510,-0.769299,-0.129830,-0.614034,-0.116469,-0.318928,0.261174
1176,436575687,0.120085,-0.769479,-0.128402,-0.613997,0.011467,-0.423142,0.178100
1177,436609021,0.120903,-0.769691,-0.126716,-0.613921,0.056292,-0.353174,0.309536
1178,436642355,0.119989,-0.769585,-0.123172,-0.614954,0.438317,-0.497022,0.340246
1179,436675689,0.117380,-0.769431,-0.117962,-0.616669,0.460782,-0.224771,0.174117
1180,436709023,0.115619,-0.769273,-0.112846,-0.618154,0.263024,-0.442914,0.185638
1181,436742357,0.113647,-0.769350,-0.107496,-0.619377,-0.047482,-0.376652,0.167525
1182,436775691,0.111530,-0.769190,-0.101321,-0.620999,0.185460,-0.361490,0.130627
1183,436809025,0.109448,-0.768354,-0.094867,-0.623418,0.657747,-0.081001,0.296781
1184,436842359,0.107817,-0.767408,-0.089020,-0.625726,0.235222,0.000686,0.270721
1185,436875693,0.107797,-0.766288,-0.084907,-0.627671,-0.231549,0.094257,0.101480
1186,436909027,0.109521,-0.764236,-0.082754,-0.630157,-0.130943,0.303519,0.094810
1187,436942361,0.113604,-0.761603,-0.082853,-0.632604,-0.363607,0.322819,0.101114
1188,436975695,0.118993,-0.759100,-0.084268,-0.634431,-0.675816,-0.008735,0.165087
1189,437009029,0.124039,-0.756129,-0.085927,-0.636787,-0.449772,0.120324,0.147429
1190,437042363,0.129408,-0.752024,-0.088367,-0.640235,-0.053188,0.049939,0.198071
1191,437075697,0.135127,-0.747819,-0.091291,-0.643560,-0.145377,0.067223,0.299835
1192,437109031,0.140331,-0.744025,-0.093204,-0.646563,-0.099297,0.032893,0.130757
1193,437142365,0.145227,-0.739502,-0.093915,-0.650555,0.428711,0.303745,0.246373
1194,437175699,0.150363,-0.734380,-0.094635,-0.655072,0.678616,-0.152384,0.235615
1195,437209033,0.156152,-0.730387,-0.096526,-0.657899,0.151764,-0.154273,0.259076
1196,437242367,0.161539,-0.726526,-0.097462,-0.660730,0.332959,-0.244276,0.148201
1197,437275701,0.165182,-0.722417,-0.096685,-0.664438,0.444577,-0.082327,0.239196
1198,437309035,0.167261,-0.718305,-0.095264,-0.668568,0.497153,0.024720,0.265864
1199,437342369,0.167295,-0.714576,-0.092169,-0.672975,0.489232,-0.279889,0.073163
1200,437375703,0.164728,-0.711599,-0.086289,-0.677527,0.499138,-0.430130,0.060242
1201,437409037,0.161388,-0.709386,-0.079536,-0.681466,0.467923,-0.084359,0.327496
1202,437442371,0.158716,-0.707344,-0.073443,-0.684892,0.205927,0.311597,0.213879
1203,437475705,0.155954,-0.704960,-0.067068,-0.688628,-0.016215,0.460686,-0.072274
1204,437509039,0.152898,-0.702926,-0.060329,-0.692007,-0.213286,0.288858,0.002266
1205,437542373,0.149302,-0.701370,-0.053314,-0.694941,-0.374274,-0.084901,0.435009
1206,437575707,0.145202,-0.700376,-0.045948,-0.697335,-0.385357,-0.594747,0.046487
1207,437609041,0.139647,-0.700260,-0.037024,-0.699114,-0.520267,-0.683195,-0.271877
1208,437642375,0.132167,-0.700873,-0.027006,-0.700412,-0.578145,-0.223292,0.103180
1209,437675709,0.123098,-0.701540,-0.017036,-0.701709,-0.899026,0.007721,-0.004484
1210,437709043,0.113098,-0.702386,-0.007300,-0.702714,-0.886201,0.214832,0.402716
1211,437742377,0.102624,-0.703725,0.002408,-0.703016,-0.648905,0.381528,0.258849
1212,437775711,0.093525,-0.705293,0.010588,-0.702638,-0.401696,0.330759,0.123480
1213,437809045,0.086028,-0.707041,0.016796,-0.701717,-0.380397,0.554221,0.331198
1214,437842379,0.077871,-0.708222,0.023190,-0.701296,-0.353387,0.768659,0.151904
1215,437875713,0.070731,-0.708621,0.028752,-0.701443,-0.167312,0.836723,-0.038268
1216,437909047,0.064826,-0.708858,0.033704,-0.701554,-0.199885,1.199680,0.040064
1217,437942381,0.061406,-0.709056,0.036782,-0.701507,-0.238646,1.344205,0.113930
1218,437975715,0.061374,-0.709371,0.037213,-0.701169,-0.348088,1.422358,0.322500
1219,438009049,0.064328,-0.709930,0.035752,-0.700414,-0.517824,1.289074,0.526216
1220,438042383,0.069802,-0.709358,0.032802,-0.700613,-0.115683,1.071584,0.500960
1221,438075717,0.078037,-0.707840,0.027302,-0.701515,-0.059137,0.633364,0.313436
1222,438109051,0.088336,-0.705207,0.018709,-0.703225,-0.538184,0.536517,0.060447
1223,438142385,0.100187,-0.703331,0.007632,-0.703723,-0.902439,0.266598,-0.289865
1224,438175719,0.112834,-0.701807,-0.004713,-0.703356,-0.859841,0.117449,-0.057548
1225,438209053,0.126952,-0.700512,-0.018290,-0.702017,-0.708173,0.153573,0.127735
1226,438242387,0.141589,-0.699379,-0.032135,-0.699846,-0.375088,0.021786,0.001144
1227,438275721,0.156238,-0.698616,-0.045949,-0.696714,-0.520363,0.034438,0.171719
1228,438309055,0.170012,-0.698165,-0.059221,-0.692929,-0.412017,0.269403,0.407553
1229,438342389,0.183994,-0.696600,-0.073458,-0.689561,-0.058166,0.112315,0.400586
1230,438375723,0.198288,-0.693778,-0.088901,-0.686620,-0.001641,-0.221100,0.419676
1231,438409057,0.211863,-0.690224,-0.105136,-0.683848,0.229865,-0.174154,0.115912
1232,438442391,0.225986,-0.685580,-0.122438,-0.681113,0.687893,-0.320528,0.197083
1233,438475725,0.241295,-0.678463,-0.141213,-0.679352,0.827145,-0.358652,0.793406
1234,438509059,0.253132,-0.671511,-0.157892,-0.678279,0.882471,-0.136675,0.441895
1235,438542393,0.261509,-0.666485,-0.171088,-0.676857,0.561916,0.113102,-0.022588
1236,438575727,0.266639,-0.663032,-0.181550,-0.675520,0.358302,-0.026420,0.071689
1237,438609061,0.269901,-0.660798,-0.190634,-0.673910,0.294521,-0.350279,-0.058463
1238,438642395,0.271965,-0.659160,-0.198244,-0.672486,0.277369,-0.026258,-0.126698
1239,438675729,0.273215,-0.658343,-0.204730,-0.670835,0.455780,-0.105770,-0.042499
1240,438709063,0.272604,-0.658681,-0.209733,-0.669204,0.618746,-0.353737,0.154555
1241,438742397,0.270650,-0.659478,-0.213301,-0.668084,0.346192,0.012642,0.163880
1242,438775731,0.267246,-0.660094,-0.214577,-0.668437,0.337460,0.845081,-0.127892
1243,438809065,0.265527,-0.661678,-0.217767,-0.666522,0.001969,-0.279382,-0.102514
1244,438842399,0.262506,-0.663822,-0.220216,-0.664780,-0.040445,-0.436029,0.280301
1245,438875733,0.258519,-0.666711,-0.221848,-0.662906,-0.257504,0.102880,0.171381
1246,438909067,0.255909,-0.670491,-0.224266,-0.659283,-0.206260,-0.565089,-0.119984
1247,438942401,0.251274,-0.675084,-0.223968,-0.656474,-0.331449,-0.532398,0.229378
1248,438975735,0.244475,-0.680749,-0.221145,-0.654145,-0.374870,-0.480370,0.149611
1249,439009069,0.236292,-0.687740,-0.216171,-0.651496,-0.455641,-0.668920,-0.010814
1250,439042403,0.225635,-0.696142,-0.208486,-0.648850,-0.211966,-0.610947,0.112703
1251,439075737,0.212466,-0.705193,-0.197776,-0.646871,-0.006593,-0.114051,0.087381
1252,439109071,0.199265,-0.713873,-0.186867,-0.644792,0.153045,0.206774,0.219476
1253,439142405,0.187956,-0.721375,-0.177888,-0.642374,0.250342,0.349891,0.273418
1254,439175739,0.177866,-0.728082,-0.170713,-0.639620,0.123244,0.310695,0.086030
1255,439209073,0.167809,-0.734912,-0.164307,-0.636195,0.491253,0.112114,-0.011189
1256,439242407,0.156837,-0.741577,-0.157340,-0.633014,1.449435,0.594386,0.281316
1257,439275741,0.146149,-0.746633,-0.150251,-0.631348,1.484802,-0.419307,0.667187
1258,439309075,0.139553,-0.749132,-0.147248,-0.630588,0.148008,-0.335544,0.375178
1259,439342409,0.133610,-0.752314,-0.144504,-0.628718,-0.063494,-0.178351,-0.267002
1260,439375743,0.127675,-0.757187,-0.141116,-0.624859,-0.093978,-0.535477,0.139891
1261,439409077,0.123480,-0.760154,-0.138778,-0.622620,-0.440307,-0.312675,0.510962
1262,439442411,0.122426,-0.760810,-0.138655,-0.622054,0.094943,-0.220490,0.175437
1263,439475745,0.121199,-0.761653,-0.139081,-0.621168,0.309386,-0.601676,0.258434
1264,439509079,0.121906,-0.762725,-0.140301,-0.619437,0.008328,-0.433969,0.268552
1265,439542413,0.123126,-0.763761,-0.141346,-0.617679,-0.290079,-0.260090,0.096401
1266,439575747,0.124005,-0.764453,-0.141989,-0.616498,-0.035962,-0.414364,0.294121
1267,439609081,0.123666,-0.764992,-0.141993,-0.615896,-0.032988,-0.178179,0.160338
1268,439642415,0.124028,-0.765295,-0.141461,-0.615570,0.199694,-0.200625,0.296648
1269,439675749,0.123306,-0.766013,-0.139955,-0.615166,0.424343,-0.235067,0.194803
1270,439709083,0.123792,-0.766471,-0.139308,-0.614644,0.331389,-0.213923,0.258025
1271,439742417,0.125469,-0.766752,-0.138856,-0.614056,-0.053318,-0.153249,0.235658
1272,439775751,0.125862,-0.767072,-0.137426,-0.613898,-0.210451,-0.052938,0.193565
1273,439809085,0.126554,-0.767133,-0.136295,-0.613931,-0.162247,-0.240493,0.118292
1274,439842419,0.127667,-0.767129,-0.135223,-0.613943,-0.060676,-0.428248,0.185032
1275,439875753,0.128532,-0.767522,-0.133342,-0.613682,-0.037667,-0.441155,0.109085
1276,439909087,0.128603,-0.768003,-0.130138,-0.613753,0.256004,-0.369188,0.290315
1277,439942421,0.128036,-0.768170,-0.126167,-0.614492,0.395584,-0.314287,0.281223
1278,439975755,0.127576,-0.768164,-0.122170,-0.615402,0.242811,-0.019352,0.254967
1279,440009089,0.126590,-0.767755,-0.117980,-0.616931,0.248928,-0.068465,0.342127
1280,440042423,0.126412,-0.766714,-0.114808,-0.618859,0.207469,0.316068,0.140376
1281,440075757,0.128071,-0.765144,-0.113291,-0.620737,0.358816,-0.001917,0.198424
1282,440109091,0.129302,-0.763215,-0.112198,-0.623051,0.416986,0.019518,0.303267
1283,440142425,0.131532,-0.760467,-0.111668,-0.626032,0.545233,-0.184712,0.205225
1284,440175759,0.134044,-0.757667,-0.111735,-0.628876,0.159409,-0.089769,0.162058
1285,440209093,0.137948,-0.754744,-0.112865,-0.631340,-0.190496,0.038391,0.157598
1286,440242427,0.141863,-0.751395,-0.113817,-0.634289,-0.027987,-0.137277,0.179333
1287,440275761,0.145796,-0.747435,-0.114871,-0.637876,0.098887,-0.002433,0.071100
1288,440309095,0.151085,-0.743200,-0.117034,-0.641191,-0.132154,0.169800,0.160899
1289,440342429,0.157066,-0.738580,-0.119567,-0.644617,-0.133806,0.288709,0.192935
1290,440375763,0.163534,-0.732826,-0.122468,-0.649015,0.226544,0.250830,0.193214
1291,440409097,0.171812,-0.724483,-0.126927,-0.655357,0.483295,0.013987,0.540915
1292,440442431,0.182509,-0.713684,-0.133317,-0.663000,0.038214,0.193343,0.183220
1293,440475765,0.192758,-0.702760,-0.137286,-0.670911,0.641083,0.497192,0.061564
1294,440509099,0.198107,-0.692762,-0.137169,-0.679718,1.046109,-0.976766,0.468295
1295,440542433,0.201340,-0.685717,-0.135077,-0.686299,-0.186083,-0.056049,0.020653
1296,440575767,0.202803,-0.681495,-0.131485,-0.690756,-0.329926,-0.603197,-0.070144
1297,440609101,0.200922,-0.679466,-0.126606,-0.694207,-0.184321,-0.994138,0.021561
1298,440642435,0.195960,-0.678512,-0.121348,-0.697490,0.090724,-1.118728,0.190825
1299,440675769,0.188466,-0.676908,-0.114754,-0.702214,0.357122,-0.478598,0.133405
1300,440709103,0.181078,-0.675405,-0.107486,-0.706741,-0.070663,-0.113229,-0.166660
1301,440742437,0.172828,-0.675122,-0.097832,-0.710469,-0.114875,0.033757,0.023848
1302,440775771,0.164329,-0.675106,-0.086567,-0.713954,-0.000198,0.044828,0.275246
1303,440809105,0.156635,-0.674237,-0.075715,-0.717728,-0.554585,0.366047,0.058001
1304,440842439,0.149433,-0.674416,-0.065236,-0.720121,-1.029705,0.230760,0.057521
1305,440875773,0.142021,-0.675104,-0.054247,-0.721885,-0.954575,0.160619,-0.140744
1306,440909107,0.134935,-0.676562,-0.043722,-0.722593,-0.890279,0.019416,-0.062951
1307,440942441,0.127095,-0.678784,-0.032846,-0.722507,-0.718595,-0.029881,0.320974
1308,440975775,0.117471,-0.681224,-0.020557,-0.722294,-0.468153,0.039699,0.306982
1309,441009109,0.105871,-0.683163,-0.006727,-0.722517,0.115867,0.177404,0.192812
1310,441042443,0.093428,-0.684563,0.007020,-0.722905,0.458379,0.205655,0.289636
1311,441075777,0.083166,-0.685344,0.017708,-0.723235,0.188591,0.354205,0.289880
1312,441109111,0.074560,-0.686125,0.025701,-0.723194,-0.359987,0.277088,0.066709
1313,441142445,0.066741,-0.687199,0.032540,-0.722662,-0.579935,0.348218,0.280525
1314,441175779,0.059714,-0.688105,0.038358,-0.722130,-0.616534,0.567033,0.142821
1315,441209113,0.052353,-0.688882,0.043976,-0.721640,-0.679001,0.776904,-0.128098
1316,441242447,0.045071,-0.689816,0.049277,-0.720896,-0.777277,1.118575,0.085120
1317,441275781,0.039109,-0.690970,0.053600,-0.719830,-0.755941,1.111044,0.126857
1318,441309115,0.035686,-0.692587,0.056699,-0.718214,-0.575044,1.371774,0.420960
1319,441342449,0.035847,-0.693822,0.057937,-0.716914,0.127575,1.110323,0.601707
1320,441375783,0.038081,-0.693671,0.057608,-0.716972,0.294200,1.166367,0.353020
1321,441409117,0.041682,-0.692500,0.056634,-0.717980,1.051593,1.339054,0.308841
1322,441442451,0.049932,-0.690714,0.051021,-0.719593,0.445477,1.057712,0.173690
1323,441475785,0.062164,-0.689310,0.041169,-0.720617,-0.235409,0.608301,0.018685
1324,441509119,0.076605,-0.688073,0.028386,-0.721025,-0.581506,0.814676,-0.133563
1325,441542453,0.093766,-0.687116,0.012356,-0.720363,-1.032103,0.709877,-0.114645
1326,441575787,0.112093,-0.685793,-0.004704,-0.719094,-0.989248,0.115772,0.243924
1327,441609121,0.128573,-0.684316,-0.020302,-0.717471,-1.826868,0.015884,0.013389
1328,441642455,0.143172,-0.684217,-0.032435,-0.714348,-1.863235,0.130163,-0.131943
1329,441675789,0.158060,-0.685228,-0.043482,-0.709637,-1.378091,0.049787,-0.041706
1330,441709123,0.172748,-0.688223,-0.054864,-0.702491,-0.482485,0.024590,0.188703
1331,441742457,0.187046,-0.690781,-0.068432,-0.695089,0.430704,-0.549861,0.198056
1332,441775791,0.200349,-0.692122,-0.084487,-0.688248,0.303108,-0.541831,0.348094
1333,441809125,0.213356,-0.691798,-0.101853,-0.682288,0.566873,-0.816251,0.244022
1334,441842459,0.224935,-0.689355,-0.118900,-0.678272,1.105853,-0.938760,0.361848
1335,441875793,0.236319,-0.685487,-0.135639,-0.675173,0.768761,-0.504498,0.339084
1336,441909127,0.246129,-0.683457,-0.150996,-0.670450,1.284711,-0.195254,0.677819
1337,441942461,0.253148,-0.681077,-0.162994,-0.667442,0.810838,0.551296,0.155230
1338,441975795,0.257045,-0.680971,-0.171657,-0.663880,0.793734,-0.138776,-0.081838
1339,442009129,0.258804,-0.681826,-0.178537,-0.660495,0.485687,0.046934,0.101571
1340,442042463,0.259742,-0.682589,-0.184517,-0.657690,0.333746,0.314436,-0.064843
1341,442075797,0.261316,-0.683706,-0.191181,-0.653992,0.650539,0.079829,-0.103601
1342,442109131,0.262734,-0.686045,-0.197587,-0.649052,0.690634,-0.398490,0.139194
1343,442142465,0.262307,-0.689079,-0.201236,-0.644876,0.580853,-0.822873,0.079076
1344,442175799,0.257894,-0.693980,-0.201172,-0.641411,0.464852,-0.770979,0.094519
1345,442209133,0.251101,-0.698575,-0.198363,-0.639992,0.595315,-1.117736,0.779931
1346,442242467,0.241630,-0.701420,-0.194197,-0.641801,0.129152,0.943698,0.352389
1347,442275801,0.233355,-0.703407,-0.190676,-0.643741,-0.741957,0.872357,0.041712
1348,442309135,0.228265,-0.705101,-0.190607,-0.643734,-1.010747,0.312315,-0.206912
1349,442342469,0.224550,-0.707650,-0.192633,-0.641637,-0.597149,0.006613,-0.071753
1350,442375803,0.219680,-0.711368,-0.193242,-0.639023,0.268349,-0.275720,0.016890
1351,442409137,0.213621,-0.715545,-0.191595,-0.636906,0.628491,-0.870511,0.019830
1352,442442471,0.207208,-0.720112,-0.188748,-0.634723,0.202273,-0.569239,0.254280
1353,442475805,0.198294,-0.725801,-0.183485,-0.632631,0.211310,-0.015156,-0.077854
1354,442509139,0.187524,-0.732854,-0.176471,-0.629773,0.601013,-0.035806,0.065403
1355,442542473,0.176761,-0.738799,-0.169903,-0.627742,0.253053,-0.321780,0.383526
1356,442575807,0.170331,-0.742760,-0.165834,-0.625931,0.162065,-0.178891,0.179962
1357,442609141,0.166202,-0.746230,-0.162590,-0.623761,0.355733,-0.394784,0.149178
1358,442642475,0.161989,-0.749666,-0.159535,-0.621535,0.215824,-0.441505,0.254220
1359,442675809,0.159057,-0.752800,-0.157500,-0.619017,-0.140211,-0.112848,0.197978
1360,442709143,0.157427,-0.755224,-0.155870,-0.616890,0.122548,-0.146296,0.327805
1361,442742477,0.155814,-0.756778,-0.155108,-0.615587,0.088807,-0.062855,0.277948
1362,442775811,0.155737,-0.757527,-0.155484,-0.614589,-0.282644,0.133489,0.218562
1363,442809145,0.155706,-0.757984,-0.156259,-0.613837,-0.293819,-0.107367,0.194866
1364,442842479,0.155511,-0.758309,-0.156906,-0.613319,-0.344324,-0.152377,0.189172
1365,442875813,0.154896,-0.758621,-0.156655,-0.613152,-0.202268,-0.417421,0.154308
1366,442909147,0.153318,-0.759307,-0.155124,-0.613089,-0.058070,-0.592702,0.244961
1367,442942481,0.151113,-0.759937,-0.152420,-0.613535,0.102004,-0.556749,0.376098
1368,442975815,0.147732,-0.760018,-0.148488,-0.615220,0.341358,-0.344618,0.394139
1369,443009149,0.143740,-0.759487,-0.144630,-0.617735,0.026306,-0.039920,0.375322
1370,443042483,0.140911,-0.758169,-0.142040,-0.620600,-0.442959,0.296070,0.070649
1371,443075817,0.138829,-0.756836,-0.140906,-0.622950,-0.683511,-0.135589,0.021271
1372,443109151,0.138629,-0.755318,-0.141632,-0.624671,-0.427528,-0.155902,0.037105
1373,443142485,0.140717,-0.753921,-0.143055,-0.625566,0.292124,-0.464802,0.045275
1374,443175819,0.142247,-0.753102,-0.143465,-0.626112,0.604389,-0.381798,0.333837
1375,443209153,0.144417,-0.752411,-0.143629,-0.626409,0.659108,-0.267518,0.230990
1376,443242487,0.146716,-0.752029,-0.143256,-0.626419,0.447822,-0.184240,0.155045
1377,443275821,0.149138,-0.751652,-0.143099,-0.626335,0.158246,-0.061558,0.248787
1378,443309155,0.152172,-0.750878,-0.143752,-0.626384,-0.009290,-0.090971,0.129601
1379,443342489,0.157617,-0.749346,-0.145846,-0.626388,-0.022224,-0.053596,0.132587
1380,443375823,0.162089,-0.747604,-0.147604,-0.626917,0.123014,-0.293434,0.224476
1381,443409157,0.166195,-0.745792,-0.148562,-0.627773,0.115320,-0.242752,0.255536
1382,443442491,0.169608,-0.744244,-0.148317,-0.628755,0.175619,-0.298317,0.158677
1383,443475825,0.171844,-0.742749,-0.147111,-0.630196,0.379512,-0.279892,0.206124
1384,443509159,0.174181,-0.740914,-0.145672,-0.632047,0.232529,-0.116564,0.249213
1385,443542493,0.176961,-0.738774,-0.144407,-0.634067,0.316043,-0.025613,0.180375
1386,443575827,0.179702,-0.736283,-0.143388,-0.636420,0.450745,0.011157,0.143373
1387,443609161,0.183403,-0.733441,-0.143068,-0.638713,0.133264,0.315391,0.319232
1388,443642495,0.187599,-0.730278,-0.142996,-0.641131,0.319301,0.202467,0.186660
1389,443675829,0.191426,-0.727022,-0.142832,-0.643732,0.336619,-0.229520,0.063735
1390,443709163,0.194628,-0.723611,-0.141935,-0.646806,0.170247,-0.216784,0.223194
1391,443742497,0.195914,-0.720600,-0.138766,-0.650456,0.486475,-0.290574,0.229763
1392,443775831,0.194602,-0.718053,-0.133142,-0.654827,0.789750,-0.776915,0.114702
1393,443809165,0.191340,-0.715613,-0.125991,-0.659855,0.472737,-0.645099,0.117243
1394,443842499,0.188033,-0.713302,-0.118005,-0.664767,0.386399,-0.079208,0.310989
1395,443875833,0.184613,-0.710040,-0.109924,-0.670578,0.642968,0.141116,0.087584
1396,443909167,0.180768,-0.705472,-0.102229,-0.677626,0.581325,-0.169667,0.233519
1397,443942501,0.176678,-0.701424,-0.094815,-0.683956,0.474240,-0.057012,0.430098
1398,443975835,0.172293,-0.698814,-0.086596,-0.688818,-0.078662,0.000911,0.252655
1399,444009169,0.166250,-0.696107,-0.076778,-0.694188,-0.282443,-0.276698,0.062725
1400,444042503,0.159176,-0.693435,-0.065962,-0.699612,-0.349006,-0.391130,0.012225
1401,444075837,0.149754,-0.691575,-0.053478,-0.704580,-0.527374,-0.480903,0.202252
1402,444109171,0.138345,-0.690585,-0.040028,-0.708764,-0.952055,-0.148281,-0.106689
1403,444142505,0.126989,-0.690289,-0.026865,-0.711793,-0.917928,0.141914,0.024228
1404,444175839,0.116281,-0.690850,-0.014778,-0.713430,-0.948204,0.465648,0.117504
1405,444209173,0.106479,-0.691838,-0.003584,-0.714147,-0.858710,0.593363,0.066596
1406,444242507,0.096864,-0.692762,0.007594,-0.714589,-0.530599,0.734683,0.234559
1407,444275841,0.088330,-0.693518,0.017729,-0.714781,-0.420104,0.981345,0.253429
1408,444309175,0.082027,-0.694277,0.025399,-0.714564,-0.365346,1.007236,0.354952
1409,444342509,0.077271,-0.695134,0.031284,-0.714027,-0.423330,0.945292,0.063754
1410,444375843,0.073979,-0.696147,0.035424,-0.713196,-0.586158,0.551360,0.003043
1411,444409177,0.071205,-0.697400,0.038826,-0.712075,-0.643670,0.222334,-0.134909
1412,444442511,0.068701,-0.699027,0.041653,-0.710565,-0.733268,-0.057209,-0.101206
1413,444475845,0.065220,-0.700765,0.045387,-0.708950,-0.678798,0.352625,0.232159
1414,444509179,0.062051,-0.702732,0.049073,-0.707040,-0.431828,0.373764,0.308890
1415,444542513,0.059519,-0.705142,0.052266,-0.704625,-0.325127,0.329500,0.196221
1416,444575847,0.057879,-0.707589,0.054695,-0.702120,-0.067470,0.563828,0.392447
1417,444609181,0.057378,-0.709375,0.056137,-0.700242,0.268653,1.005450,0.469519
1418,444642515,0.059285,-0.709693,0.054636,-0.699880,0.374349,1.130587,0.323616
1419,444675849,0.063662,-0.709215,0.049517,-0.700361,0.078770,1.080731,0.051638
1420,444709183,0.071598,-0.708498,0.040024,-0.700927,-0.187792,0.848821,0.035151
1421,444742517,0.082661,-0.708021,0.027666,-0.700787,-0.254621,1.293615,0.687507
1422,444775851,0.095215,-0.705976,0.014987,-0.701643,0.425925,1.434478,1.256229
1423,444809185,0.111036,-0.702531,0.001224,-0.702933,-0.106388,0.582332,0.521352
1424,444842519,0.127449,-0.700604,-0.011104,-0.701985,-0.771770,-0.294626,0.192893
1425,444875853,0.139937,-0.698268,-0.020852,-0.701713,-0.495676,-1.285223,-0.364700
1426,444909187,0.149959,-0.695680,-0.031720,-0.701805,-0.713616,-0.696763,-0.285165
1427,444942521,0.157729,-0.694521,-0.042702,-0.700667,-0.702402,-0.322685,-0.534627
1428,444975855,0.165066,-0.695161,-0.053223,-0.697615,-0.608919,-0.131809,-0.586431
1429,445009189,0.172105,-0.696503,-0.063996,-0.693659,0.046437,-0.904733,-0.171563
1430,445042523,0.180601,-0.694184,-0.078260,-0.692361,-0.434342,0.391558,0.197006
1431,445075857,0.193314,-0.690692,-0.095622,-0.690236,0.417067,-0.069464,0.342462
1432,445109191,0.201834,-0.688740,-0.111984,-0.687281,0.275568,-0.827871,0.175135
1433,445142525,0.211239,-0.687369,-0.128910,-0.682846,-0.173532,0.292711,0.306921
1434,445175859,0.219830,-0.686872,-0.143898,-0.677622,-0.264025,0.125581,-0.201354
1435,445209193,0.223566,-0.688718,-0.154704,-0.672122,0.676196,-0.532619,0.257250
1436,445242527,0.223495,-0.690666,-0.160593,-0.668757,0.540688,0.231321,0.735229
1437,445275861,0.223029,-0.692312,-0.165179,-0.666089,0.755332,0.585067,0.589647
1438,445309195,0.221897,-0.694321,-0.169794,-0.663209,0.433696,0.480070,0.173619
1439,445342529,0.222457,-0.695215,-0.176010,-0.660458,0.908610,0.609061,-0.039245
1440,445375863,0.224366,-0.696213,-0.183622,-0.656678,0.569723,-0.176306,0.040554
1441,445409197,0.224392,-0.697690,-0.189471,-0.653431,0.585569,-0.557411,0.065895
1442,445442531,0.221770,-0.699123,-0.192624,-0.651871,0.395106,-0.751298,0.073866
1443,445475865,0.216851,-0.701529,-0.193018,-0.650824,0.337029,-0.401233,0.160923
1444,445509199,0.209014,-0.704412,-0.189713,-0.651246,0.687354,0.256765,0.017488
1445,445542533,0.201092,-0.707583,-0.186072,-0.651353,0.326535,-0.393032,0.321170
1446,445575867,0.192314,-0.710421,-0.181970,-0.652073,0.191192,-0.057013,0.249255
1447,445609201,0.184183,-0.713128,-0.177087,-0.652810,-0.124012,-0.463164,0.076030
1448,445642535,0.174681,-0.715819,-0.170303,-0.654279,-0.419834,0.039085,0.025927
1449,445675869,0.165517,-0.718752,-0.163304,-0.655230,-0.205763,-0.495557,0.312096
1450,445709203,0.156346,-0.721835,-0.156086,-0.655852,-0.000531,-0.379497,0.050570
1451,445742537,0.146669,-0.724564,-0.148010,-0.656950,0.407535,-0.728363,0.195315
1452,445775871,0.136901,-0.727000,-0.140207,-0.658078,0.201914,-0.530187,0.283410
1453,445809205,0.127960,-0.729452,-0.133089,-0.658641,0.353381,-0.402906,0.196850
1454,445842539,0.121036,-0.731467,-0.127206,-0.658878,0.210667,-0.190636,0.311025
1455,445875873,0.116144,-0.733627,-0.122787,-0.658195,0.022090,-0.648395,0.158394
1456,445909207,0.111950,-0.735377,-0.119114,-0.657643,0.033946,-0.296434,0.145019
1457,445942541,0.108422,-0.737544,-0.115658,-0.656424,-0.138599,-0.130009,0.095786
1458,445975875,0.104523,-0.740368,-0.111470,-0.654599,-0.231982,-0.480678,0.288620
1459,446009209,0.099230,-0.743312,-0.106284,-0.652947,-0.107345,-0.060226,0.052221
1460,446042543,0.093617,-0.746404,-0.100730,-0.651126,0.142067,-0.306265,0.294891
1461,446075877,0.089946,-0.748783,-0.096820,-0.649503,-0.261666,-0.286390,0.385232
1462,446109211,0.088358,-0.750301,-0.094219,-0.648352,0.133651,0.108265,-0.029881
1463,446142545,0.089289,-0.751361,-0.093609,-0.647083,0.331195,0.276246,0.253791
1464,446175879,0.091695,-0.752295,-0.095016,-0.645455,-0.008210,-0.037399,0.222386
1465,446209213,0.093715,-0.753766,-0.096449,-0.643232,-0.160258,-0.158923,0.230949
1466,446242547,0.095762,-0.755610,-0.097755,-0.640564,0.025400,-0.275244,0.041691
1467,446275881,0.097842,-0.757240,-0.098878,-0.638148,0.065169,-0.434281,0.229311
1468,446309215,0.100392,-0.758024,-0.099823,-0.636672,-0.039459,-0.373234,0.442324
1469,446342549,0.102554,-0.758406,-0.100795,-0.635719,-0.068581,-0.062624,0.197351
1470,446375883,0.105085,-0.758622,-0.102516,-0.634772,-0.065734,0.002834,0.198870
