sep=,
DeviceTag:,R_Wrist
FirmwareVersion:,2.2.1
AppVersion:,2023.6.0
SyncStatus:,Synced
OutputRate:,30Hz
FilterProfile:,General
Measurement Mode:,Sensor fusion Mode - Complete(Quaternion)
StartTime: ,2026-08-21_19:18:00_652 AEST
© Movella Technologies B. V. 2005-2026

PacketCounter,SampleTimeFine,Quat_W,Quat_X,Quat_Y,Quat_Z,FreeAcc_X,FreeAcc_Y,FreeAcc_Z
1,324609395,0.354642,0.464224,0.108001,-0.804402,-0.414056,0.229738,0.045239
2,324642729,0.354372,0.465108,0.104265,-0.804503,-0.073337,0.424398,-0.153091
3,324676063,0.353273,0.465942,0.097275,-0.805379,0.083235,0.144308,0.168432
4,324709397,0.349732,0.467737,0.086843,-0.807074,-0.120341,0.325713,0.302397
5,324742731,0.342300,0.470238,0.071863,-0.810274,-0.203943,0.281368,-0.034039
6,324776065,0.332915,0.472480,0.057921,-0.813988,0.730364,-0.637079,-0.338705
7,324809399,0.328024,0.472620,0.052711,-0.816243,-0.309233,-0.427008,0.105418
8,324842733,0.325546,0.471337,0.049513,-0.818175,-0.493043,0.049191,-0.167992
9,324876067,0.326216,0.469885,0.050174,-0.818703,0.795137,-0.131897,-0.290984
10,324909401,0.328283,0.467239,0.052798,-0.819226,-0.828188,0.591287,0.259604
11,324942735,0.329913,0.465485,0.053276,-0.819539,-0.032699,-0.075837,0.004190
12,324976069,0.331487,0.464220,0.053954,-0.819577,-0.408249,0.336163,0.096792
13,325009403,0.332470,0.463442,0.053314,-0.819660,-0.000449,-0.361234,0.039259
14,325042737,0.334137,0.462903,0.053174,-0.819296,-0.363676,0.230349,-0.005915
15,325076071,0.335064,0.462916,0.052034,-0.818983,-0.270325,0.205717,0.029304
16,325109405,0.335790,0.463232,0.050126,-0.818626,-0.202828,0.052634,0.022207
17,325142739,0.337685,0.463219,0.049269,-0.817906,0.020776,0.178476,-0.205809
18,325176073,0.339705,0.462703,0.048951,-0.817380,-0.354861,0.144518,-0.114902
19,325209407,0.340983,0.461543,0.048410,-0.817537,-0.083120,0.068914,-0.059220
20,325242741,0.341435,0.460123,0.048725,-0.818129,-0.201348,0.059228,-0.255331
21,325276075,0.340138,0.458803,0.048744,-0.819409,-0.521248,-0.155341,-0.249001
22,325309409,0.338898,0.457706,0.051194,-0.820386,-0.277496,-0.372067,-0.195459
23,325342743,0.337274,0.456829,0.055396,-0.821271,-0.774312,-0.183838,-0.005195
24,325376077,0.333390,0.455956,0.059554,-0.823049,-1.233791,-0.074186,-0.010291
25,325409411,0.326265,0.455686,0.062556,-0.825826,-1.081222,-0.085493,-0.035379
26,325442745,0.316535,0.456153,0.065044,-0.829156,-0.188285,-0.111851,0.047357
27,325476079,0.304483,0.458059,0.067777,-0.832394,-1.599024,0.270251,0.268584
28,325509413,0.291636,0.461736,0.069789,-0.834793,-0.777177,0.363933,-0.155014
29,325542747,0.282677,0.466049,0.073960,-0.835118,-0.510455,0.044915,0.020319
30,325576081,0.276894,0.470184,0.079627,-0.834217,-1.029285,-0.034252,0.001214
31,325609415,0.273187,0.473638,0.086249,-0.832825,-0.717757,0.625120,-0.079289
32,325642749,0.269000,0.477515,0.092442,-0.831308,0.352771,0.014414,-0.345678
33,325676083,0.266275,0.481138,0.102461,-0.828919,0.342172,-0.111740,-0.067514
34,325709417,0.262154,0.484241,0.113000,-0.827054,-0.425158,0.235706,0.362631
35,325742751,0.255441,0.487416,0.119264,-0.826409,0.429097,0.440634,0.111182
36,325776085,0.247859,0.489717,0.123506,-0.826735,0.654839,-0.202872,-0.251625
37,325809419,0.241362,0.490596,0.127387,-0.827546,-0.539132,0.557546,0.204560
38,325842753,0.235272,0.490775,0.129791,-0.828820,-0.030756,0.291396,-0.012907
39,325876087,0.230895,0.491220,0.132617,-0.829340,-0.386372,0.829851,-0.203010
40,325909421,0.228552,0.491364,0.135132,-0.829497,-0.435223,0.828273,-0.043922
41,325942755,0.227177,0.490227,0.136315,-0.830354,-0.506274,-0.067978,0.001472
42,325976089,0.226204,0.487453,0.136029,-0.832297,-1.005350,-0.198799,0.131369
43,326009423,0.223589,0.483547,0.132909,-0.835779,-0.557427,0.081068,-0.663948
44,326042757,0.221018,0.479086,0.130006,-0.839480,-1.893157,0.528906,0.321023
45,326076091,0.217865,0.474741,0.127552,-0.843141,-2.067038,1.974547,-0.096840
46,326109425,0.215284,0.471759,0.125193,-0.845827,-0.865957,0.596769,0.180085
47,326142759,0.214068,0.469736,0.122738,-0.847619,-0.014316,-0.324429,-0.139446
48,326176093,0.214711,0.466819,0.121562,-0.849237,-0.741395,0.209687,0.569115
49,326209427,0.215843,0.462686,0.118907,-0.851584,-0.082609,-0.429578,0.075546
50,326242761,0.219048,0.458255,0.117452,-0.853362,0.342155,0.790112,-0.527067
51,326276095,0.222939,0.453719,0.116432,-0.854916,-1.513402,-0.357788,0.852300
52,326309429,0.226761,0.446918,0.116662,-0.857458,-1.885797,1.177732,-0.483303
53,326342763,0.232006,0.439070,0.117557,-0.859983,-1.794883,-1.298638,0.578422
54,326376097,0.238943,0.432435,0.119160,-0.861224,-1.231456,-0.220325,-0.096050
55,326409431,0.242820,0.426352,0.117559,-0.863390,-1.567361,-0.441458,0.083539
56,326442765,0.245862,0.420575,0.113731,-0.865872,0.025063,-1.559037,0.003947
57,326476099,0.250580,0.417586,0.111446,-0.866263,-0.634673,-0.139445,0.856305
58,326509433,0.254888,0.415551,0.107806,-0.866446,0.479332,-0.988023,0.743662
59,326542767,0.259314,0.416097,0.104454,-0.865280,0.604252,-0.201332,0.017163
60,326576101,0.263275,0.416653,0.100159,-0.864323,1.249227,-0.163717,-0.304996
61,326609435,0.268720,0.416480,0.096496,-0.863147,0.962960,-0.026050,0.241572
62,326642769,0.272451,0.416205,0.090612,-0.862748,0.291341,0.766377,-0.198000
63,326676103,0.274478,0.415649,0.084122,-0.863030,1.173460,-0.539623,-0.144221
64,326709437,0.275936,0.413799,0.079794,-0.863865,0.244397,0.170172,-0.337528
65,326742771,0.279605,0.411637,0.078848,-0.863805,0.739066,-1.331699,0.086780
66,326776105,0.284783,0.409927,0.079697,-0.862849,-0.200653,-0.042381,0.018410
67,326809439,0.288566,0.408866,0.079846,-0.862081,-0.759482,0.928826,-0.094994
68,326842773,0.291173,0.408867,0.078780,-0.861302,-0.180862,1.180288,-0.232083
69,326876107,0.294540,0.408347,0.077241,-0.860542,0.017339,0.284661,0.057241
70,326909441,0.297616,0.407118,0.074686,-0.860292,-0.392552,-0.940030,0.156370
71,326942775,0.301089,0.405863,0.072246,-0.859884,-0.379415,-0.833246,-0.187707
72,326976109,0.304696,0.404083,0.072571,-0.859425,-0.585624,1.222409,0.024109
73,327009443,0.307749,0.402330,0.070810,-0.859306,0.695634,-0.479849,0.304085
74,327042777,0.314025,0.400585,0.073857,-0.857593,-0.144608,0.703714,-0.217936
75,327076111,0.323002,0.398530,0.080644,-0.854599,0.824928,1.300308,-0.489839
76,327109445,0.335399,0.397144,0.092617,-0.849239,-0.176822,1.432072,0.587729
77,327142779,0.349039,0.397445,0.110279,-0.841456,-0.149812,1.767506,-0.834062
78,327176113,0.359751,0.399556,0.131352,-0.832875,-1.080793,0.817333,0.082973
79,327209447,0.359752,0.403602,0.146276,-0.828425,-1.363319,0.043346,0.042460
80,327242781,0.350477,0.409735,0.156612,-0.827500,-0.065738,0.691909,-0.194736
81,327276115,0.340043,0.416380,0.166007,-0.826705,-0.119415,-0.394260,0.594194
82,327309449,0.328902,0.425740,0.172777,-0.825056,-1.387345,0.032163,0.258136
83,327342783,0.319412,0.436411,0.180875,-0.821466,-0.126087,-0.393990,-0.202361
84,327376117,0.315431,0.446610,0.191957,-0.814982,0.575503,-0.840122,-0.206134
85,327409451,0.315135,0.454426,0.204679,-0.807647,0.458051,0.388409,-0.351329
86,327442785,0.315588,0.460014,0.217123,-0.801031,0.307965,0.211721,0.026749
87,327476119,0.315084,0.464601,0.225979,-0.796117,0.283123,-0.367631,0.370635
88,327509453,0.311778,0.467106,0.231267,-0.794432,-0.692191,0.061843,-0.202651
89,327542787,0.306273,0.468519,0.233521,-0.795082,-0.654885,0.003884,-0.020794
90,327576121,0.299519,0.469793,0.234166,-0.796712,-0.039266,0.626097,-0.013291
91,327609455,0.292615,0.471774,0.232879,-0.798482,-0.358714,0.228465,0.247612
92,327642789,0.288153,0.474311,0.230738,-0.799223,-0.340278,-0.642237,-0.155557
93,327676123,0.288830,0.476196,0.231661,-0.797589,-0.479687,0.327097,0.252872
94,327709457,0.290995,0.477604,0.233437,-0.795440,-0.510980,0.843958,-0.031543
95,327742791,0.292051,0.478137,0.234463,-0.794430,-0.105537,0.316032,-0.146969
96,327776125,0.292103,0.476562,0.234689,-0.795290,-0.856473,-0.242481,0.542544
97,327809459,0.291040,0.473490,0.234282,-0.797631,-1.084820,-0.075702,0.054049
98,327842793,0.290200,0.469624,0.233640,-0.800406,-1.250522,0.366092,0.575941
99,327876127,0.291673,0.464917,0.232706,-0.802887,-0.241069,0.802367,0.041092
100,327909461,0.294295,0.460694,0.232027,-0.804559,0.240148,0.044709,-0.335829
101,327942795,0.297051,0.456130,0.231224,-0.806376,-0.777055,0.170049,0.207244
102,327976129,0.300807,0.451570,0.230689,-0.807702,-0.484957,0.343179,0.260244
103,328009463,0.305627,0.447269,0.230663,-0.808293,-0.549856,0.436505,0.163424
104,328042797,0.309560,0.441968,0.228846,-0.810226,-0.674959,0.016017,0.588591
105,328076131,0.313404,0.436539,0.225330,-0.812674,0.148362,-0.126578,0.037739
106,328109465,0.317722,0.431961,0.221641,-0.814456,-0.310316,0.302103,0.291650
107,328142799,0.320533,0.428857,0.217067,-0.816225,1.207581,-0.436157,-0.772573
108,328176133,0.324444,0.428303,0.213972,-0.815788,1.537882,-1.093873,-0.318238
109,328209467,0.328976,0.427817,0.212300,-0.814664,0.110273,0.062697,0.448639
110,328242801,0.334605,0.427059,0.210756,-0.813169,1.241010,-0.312900,-0.530415
111,328276135,0.339318,0.426349,0.210217,-0.811726,0.580157,0.223051,0.130907
112,328309469,0.340361,0.424413,0.207453,-0.813014,-0.262282,0.107350,0.137588
113,328342803,0.338200,0.423377,0.202989,-0.815579,0.182508,-0.174284,-0.441699
114,328376137,0.335780,0.421923,0.200343,-0.817983,1.126100,-0.324672,0.307261
115,328409471,0.333484,0.421384,0.197353,-0.819925,-0.084344,0.303925,0.201850
116,328442805,0.334017,0.420491,0.194987,-0.820732,-0.144471,-0.449589,-0.315845
117,328476139,0.336502,0.418072,0.194926,-0.820967,-1.464038,1.494621,0.172018
118,328509473,0.336953,0.416489,0.193688,-0.821879,0.120111,0.156616,-0.581891
119,328542807,0.336252,0.413758,0.192330,-0.823862,-1.116103,0.071206,-0.033168
120,328576141,0.334701,0.409696,0.190364,-0.826974,-0.706801,0.026382,-0.217581
121,328609475,0.332842,0.405393,0.189775,-0.829975,-0.432872,0.037401,-0.109573
122,328642809,0.330348,0.402052,0.189879,-0.832569,-1.537070,0.632062,0.172218
123,328676143,0.327357,0.399016,0.190893,-0.834976,-0.597092,0.619103,0.284806
124,328709477,0.325237,0.398734,0.192234,-0.835631,0.091637,0.255695,-0.569214
125,328742811,0.323376,0.399008,0.194101,-0.835791,-0.957565,-0.008903,0.907744
126,328776145,0.321663,0.398722,0.195195,-0.836333,0.731811,-0.439323,-0.499059
127,328809479,0.320566,0.399900,0.197453,-0.835662,-0.558378,0.395509,0.381657
128,328842813,0.318283,0.401710,0.198885,-0.835326,0.017655,0.159942,-0.123498
129,328876147,0.315786,0.404842,0.200925,-0.834273,0.277271,0.460086,-0.948879
130,328909481,0.313601,0.409170,0.202258,-0.832663,-0.478895,-0.230843,0.472571
131,328942815,0.310629,0.415229,0.203403,-0.830495,0.401321,-0.590036,0.270554
132,328976149,0.308384,0.422757,0.206306,-0.826810,0.675932,0.638549,-0.722054
133,329009483,0.307345,0.430937,0.210328,-0.821946,-0.092193,0.932266,0.077136
134,329042817,0.307343,0.438090,0.213184,-0.817417,1.295139,0.031063,-0.247937
135,329076151,0.308449,0.444457,0.216772,-0.812606,0.596458,0.064331,-0.016055
136,329109485,0.308947,0.448688,0.217946,-0.809772,-0.477645,-0.278544,0.515414
137,329142819,0.308327,0.452382,0.216902,-0.808232,0.480406,-0.076085,-0.226372
138,329176153,0.306918,0.454673,0.215082,-0.807969,-0.123643,0.072098,-0.178590
139,329209487,0.305346,0.457599,0.213784,-0.807257,0.505584,0.476149,-0.726739
140,329242821,0.304503,0.460671,0.213837,-0.805813,-0.433125,1.097703,-0.249619
141,329276155,0.304958,0.462558,0.213905,-0.804541,-0.293184,-0.342525,0.212662
142,329309489,0.307071,0.464058,0.215257,-0.802510,-0.039887,-0.101094,-0.455640
143,329342823,0.310150,0.464754,0.216278,-0.800647,-0.782023,0.329968,0.001476
144,329376157,0.312764,0.465179,0.216667,-0.799277,-0.499268,0.754661,-0.434932
145,329409491,0.315256,0.464395,0.217158,-0.798620,-0.765732,0.458855,0.030259
146,329442825,0.316953,0.463038,0.216358,-0.798953,0.489265,-0.094304,-0.386548
147,329476159,0.318434,0.461374,0.215830,-0.799470,-0.732310,0.439138,0.566940
148,329509493,0.320001,0.459337,0.215263,-0.800169,-0.422421,0.755071,-0.316230
149,329542827,0.322083,0.457440,0.213545,-0.800881,0.085842,-0.812987,0.161205
150,329576161,0.324983,0.454752,0.210147,-0.802138,-0.426698,-0.338646,0.185507
151,329609495,0.328216,0.451392,0.206866,-0.803572,-0.639059,0.725338,-0.339200
152,329642829,0.331563,0.448335,0.203458,-0.804778,-0.021134,-0.055732,0.607339
153,329676163,0.334884,0.445734,0.198168,-0.806166,0.331104,-0.288136,-0.112166
154,329709497,0.338053,0.444270,0.192322,-0.807067,0.205787,-0.481514,0.254362
155,329742831,0.340504,0.443861,0.187043,-0.807502,-0.951749,0.757717,0.421981
156,329776165,0.343359,0.447182,0.181481,-0.805728,0.980784,-0.805761,0.190086
157,329809499,0.348351,0.451896,0.177585,-0.801814,0.160635,-0.041493,0.133105
158,329842833,0.353703,0.456177,0.173484,-0.797935,-0.044922,0.005283,-0.010142
159,329876167,0.358167,0.458758,0.170292,-0.795147,0.776214,0.238167,-0.319404
160,329909501,0.359523,0.460818,0.166399,-0.794168,0.135484,0.052535,0.026624
161,329942835,0.357608,0.461353,0.163318,-0.795360,-0.183337,0.818415,-0.155940
162,329976169,0.353889,0.462860,0.160562,-0.796708,1.686341,-0.551872,-0.462456
163,330009503,0.352195,0.463846,0.161392,-0.796717,0.250007,-0.343888,0.210653
164,330042837,0.352457,0.463964,0.163218,-0.796161,0.473511,0.091971,-0.460593
165,330076171,0.355163,0.463942,0.165040,-0.794594,0.193074,-0.326664,0.377628
166,330109505,0.356970,0.463014,0.163892,-0.794563,-0.058142,-0.191757,-0.517650
167,330142839,0.358123,0.461646,0.165112,-0.794587,-1.101315,0.489111,-0.237484
168,330176173,0.359571,0.459996,0.169238,-0.794023,-2.464844,1.113280,0.700562
169,330209507,0.358164,0.459476,0.170356,-0.794720,-0.501577,-0.414392,-0.183585
170,330242841,0.356147,0.457932,0.173236,-0.795894,-0.060013,-0.315651,0.198454
171,330276175,0.352811,0.456115,0.175643,-0.797893,-0.513855,-0.091000,0.255405
172,330309509,0.348586,0.453978,0.177493,-0.800555,-0.379232,0.629274,0.073303
173,330342843,0.343647,0.452564,0.179169,-0.803114,0.619962,0.078916,-0.012175
174,330376177,0.337521,0.450642,0.180250,-0.806543,0.320269,-0.962412,0.165134
175,330409511,0.331076,0.449003,0.181176,-0.809914,0.425572,-0.240396,0.184489
176,330442845,0.325548,0.448673,0.182574,-0.812021,0.159652,-0.087692,-0.417261
177,330476179,0.320113,0.449089,0.184737,-0.813462,0.435119,0.536041,-0.644360
178,330509513,0.315075,0.451475,0.187171,-0.813551,0.296013,-0.001532,-0.057972
179,330542847,0.310510,0.457114,0.190023,-0.811494,0.547983,-0.550321,-0.109217
180,330576181,0.307002,0.464192,0.194518,-0.807737,0.425457,-0.328805,-0.288757
181,330609515,0.306525,0.472058,0.202297,-0.801424,0.923194,-0.588006,-0.254025
182,330642849,0.308096,0.478516,0.212305,-0.794372,0.588392,0.702279,-0.246527
183,330676183,0.307925,0.482276,0.219558,-0.790182,0.840615,0.327464,-0.097795
184,330709517,0.305784,0.484020,0.222452,-0.789136,-0.160920,0.354406,0.100544
185,330742851,0.302102,0.485028,0.222486,-0.789926,-0.239213,-0.190820,-0.157010
186,330776185,0.298092,0.485289,0.223397,-0.791031,0.200040,0.083733,0.045812
187,330809519,0.295830,0.486789,0.226218,-0.790157,0.682452,-0.299179,-0.072261
188,330842853,0.295902,0.488447,0.228787,-0.788365,0.300188,0.320370,0.061720
189,330876187,0.297670,0.489650,0.229881,-0.786632,0.380252,0.016518,0.014277
190,330909521,0.299579,0.490271,0.229674,-0.785580,-0.349742,0.238051,0.121489
191,330942855,0.301687,0.491284,0.230037,-0.784034,-0.382304,-0.060881,0.115059
192,330976189,0.304009,0.491704,0.231166,-0.782540,0.021600,0.129217,0.005283
193,331009523,0.305730,0.492105,0.231504,-0.781517,-0.294197,0.057800,0.301571
194,331042857,0.307362,0.491548,0.231285,-0.781292,0.435208,-0.150891,-0.351116
195,331076191,0.308402,0.490040,0.230882,-0.781948,-1.486327,1.105171,0.366738
196,331109525,0.309382,0.488041,0.230328,-0.782974,-0.177076,-0.392995,0.101909
197,331142859,0.311596,0.486156,0.229659,-0.783465,-0.383009,-0.207831,-0.316195
198,331176193,0.314745,0.482094,0.229211,-0.784847,-1.041007,0.258337,-0.047065
199,331209527,0.317755,0.478718,0.227340,-0.786243,-0.052443,0.274047,-0.776267
200,331242861,0.321060,0.476060,0.225806,-0.786956,-0.456022,-0.332015,0.121576
201,331276195,0.325118,0.473523,0.223326,-0.787528,0.132015,0.245776,-0.403306
202,331309529,0.330590,0.472032,0.221844,-0.786563,-1.374478,0.562225,0.301175
203,331342863,0.336761,0.471387,0.220763,-0.784634,-0.460207,0.318975,0.474483
204,331376197,0.342923,0.472851,0.219729,-0.781368,0.666976,-1.328136,0.527263
205,331409531,0.349434,0.475149,0.220418,-0.776882,0.386298,-0.149875,0.054976
206,331442865,0.355207,0.477681,0.222198,-0.772190,0.292093,-0.360423,-0.318617
207,331476199,0.361425,0.479800,0.224253,-0.767382,1.079181,0.464595,-1.011458
208,331509533,0.367765,0.481377,0.225709,-0.762942,0.663542,0.017316,0.539701
209,331542867,0.373423,0.482047,0.225301,-0.759886,0.850492,0.486663,-0.918423
210,331576201,0.377517,0.481446,0.224751,-0.758405,0.626491,-0.684957,0.112576
211,331609535,0.380047,0.480131,0.224816,-0.757956,-0.461717,0.095775,0.000785
212,331642869,0.381557,0.479511,0.226015,-0.757232,-0.097801,-0.259980,0.321060
213,331676203,0.382015,0.479757,0.227231,-0.756481,0.118421,-0.436947,-0.291153
214,331709537,0.383615,0.478888,0.229580,-0.755513,-0.241566,-0.243514,-0.065337
215,331742871,0.385806,0.477056,0.232701,-0.754601,-0.720402,0.587700,-0.234476
216,331776205,0.386846,0.474556,0.235416,-0.754802,-1.070979,0.577447,-0.492938
217,331809539,0.385405,0.470741,0.237110,-0.757394,-0.580762,-0.440166,0.585231
218,331842873,0.381191,0.466045,0.237560,-0.762274,-0.813197,-0.358799,-0.410166
219,331876207,0.376976,0.461418,0.239339,-0.766617,-0.365976,-0.323058,0.247844
220,331909541,0.372486,0.457392,0.241421,-0.770560,-0.714545,-0.293216,0.666444
221,331942875,0.368180,0.454109,0.243219,-0.773998,0.242790,-0.182499,-0.392636
222,331976209,0.364900,0.450158,0.244553,-0.777432,-0.458527,0.321890,0.332248
223,332009543,0.360891,0.447303,0.244915,-0.780830,1.526676,-0.149837,-0.600166
224,332042877,0.356808,0.444820,0.244382,-0.784284,0.270051,-0.450876,0.020261
225,332076211,0.352659,0.442557,0.244773,-0.787313,-0.187853,1.215771,-0.257286
226,332109545,0.348627,0.441789,0.245101,-0.789435,0.429780,-0.517557,0.060515
227,332142879,0.345538,0.441597,0.245344,-0.790824,-0.281156,0.464962,0.157391
228,332176213,0.342827,0.443068,0.245540,-0.791120,0.056149,0.229713,-0.048625
229,332209547,0.339598,0.444955,0.246164,-0.791260,0.012103,0.577051,0.041162
230,332242881,0.334883,0.448327,0.246355,-0.791307,1.197169,-0.943875,-0.456632
231,332276215,0.331225,0.452349,0.247715,-0.790132,0.360078,-0.893369,-0.230244
232,332309549,0.329063,0.455927,0.251577,-0.787755,0.226241,0.573433,-0.295672
233,332342883,0.329568,0.460060,0.256125,-0.783664,0.938114,0.090432,-0.004646
234,332376217,0.330017,0.462863,0.258489,-0.781045,0.572823,0.025702,-0.110204
235,332409551,0.331402,0.465415,0.259663,-0.778548,-0.082456,0.191792,0.162753
236,332442885,0.333137,0.467036,0.260371,-0.776598,0.493733,0.905380,-0.371975
237,332476219,0.335770,0.469044,0.260946,-0.774057,-0.005863,-0.009294,-0.084483
238,332509553,0.338838,0.469393,0.260913,-0.772518,0.552088,-0.182258,-0.287166
239,332542887,0.342421,0.468625,0.262806,-0.770761,-0.082837,0.360080,-0.176242
240,332576221,0.344014,0.467437,0.265876,-0.769719,0.650309,-0.214635,-0.240602
241,332609555,0.343392,0.465633,0.268372,-0.770224,-0.485935,0.049041,0.042882
242,332642889,0.341919,0.463477,0.269709,-0.771711,0.056534,-0.034671,-0.054182
243,332676223,0.340736,0.460596,0.269969,-0.773866,-0.805512,0.921190,0.202483
244,332709557,0.340094,0.457564,0.267980,-0.776633,-0.353936,0.133310,0.520078
245,332742891,0.340647,0.455116,0.265144,-0.778799,0.079826,-0.363521,-0.243338
246,332776225,0.341887,0.452368,0.262029,-0.780908,-0.276825,-0.738561,0.627978
247,332809559,0.343232,0.448809,0.260503,-0.782880,-0.494622,1.141373,-0.710507
248,332842893,0.344642,0.445740,0.258826,-0.784568,0.031206,-0.069833,-0.148320
249,332876227,0.346578,0.442818,0.255805,-0.786359,0.342942,-0.674440,0.083476
250,332909561,0.348711,0.439184,0.252638,-0.788475,-0.659982,0.261185,-0.105781
251,332942895,0.351888,0.435577,0.249174,-0.790165,-0.295284,0.228443,-0.096842
252,332976229,0.356198,0.432447,0.243503,-0.791719,0.122586,-1.112921,0.056514
253,333009563,0.361066,0.428689,0.237062,-0.793511,-0.272395,0.033518,0.224260
254,333042897,0.365307,0.425720,0.228090,-0.795794,-0.511024,-0.479530,0.883951
255,333076231,0.368737,0.425284,0.217807,-0.797325,0.311071,0.154785,-0.137561
256,333109565,0.370965,0.426402,0.207891,-0.798341,0.635646,0.624908,-0.813934
257,333142899,0.372887,0.429169,0.199812,-0.798025,0.772823,-0.183281,-0.186348
258,333176233,0.377183,0.430108,0.195969,-0.796453,0.615140,0.320553,-0.022152
259,333209567,0.381945,0.431342,0.191695,-0.794554,1.174548,-0.142285,-0.317865
260,333242901,0.384778,0.431041,0.185533,-0.794813,-0.855509,-0.083175,0.107524
261,333276235,0.384578,0.430171,0.178709,-0.796942,0.436517,-0.272221,-0.364960
262,333309569,0.382560,0.428867,0.174394,-0.799568,-0.342534,0.415259,-0.146771
263,333342903,0.378899,0.429711,0.169355,-0.801937,0.536471,-0.086962,-0.341075
264,333376237,0.374165,0.430044,0.165353,-0.804811,-0.333217,0.150286,0.421144
265,333409571,0.370985,0.429895,0.161058,-0.807230,1.109665,-0.195956,-0.434438
266,333442905,0.369668,0.429038,0.158956,-0.808706,-0.575540,0.878841,0.062216
267,333476239,0.368003,0.429140,0.155279,-0.810125,-0.129182,-0.023055,-0.338923
268,333509573,0.366221,0.427190,0.152890,-0.812414,-1.044487,-0.213885,-0.037875
269,333542907,0.363572,0.424537,0.152391,-0.815084,0.146339,0.078502,-0.198823
270,333576241,0.359828,0.422566,0.152999,-0.817652,-1.104998,0.701243,0.252258
271,333609575,0.355144,0.420747,0.153446,-0.820548,-0.720710,0.499035,-0.188492
272,333642909,0.350680,0.420333,0.153659,-0.822638,-0.419980,-0.248617,0.583030
273,333676243,0.345806,0.421398,0.154429,-0.824011,-0.091095,-0.010966,0.203487
274,333709577,0.341288,0.423118,0.157425,-0.824446,-0.882027,1.162527,0.282615
275,333742911,0.336070,0.426638,0.161173,-0.824052,1.048639,0.765107,-0.294747
276,333776245,0.329253,0.430550,0.165901,-0.823830,0.344971,-0.318940,0.102596
277,333809579,0.321563,0.434177,0.172452,-0.823619,0.596516,-0.171994,0.300511
278,333842913,0.310232,0.439863,0.175494,-0.824305,0.674221,0.330914,0.485277
279,333876247,0.296433,0.447621,0.175862,-0.825128,0.563755,0.058913,1.169390
280,333909581,0.281627,0.456297,0.177372,-0.825238,0.649711,-0.144930,0.751337
281,333942915,0.268621,0.465524,0.180415,-0.823760,0.453083,-0.885775,0.071370
282,333976249,0.258460,0.473417,0.180325,-0.822532,-0.852511,0.470605,-1.062760
283,334009583,0.251125,0.480377,0.178397,-0.821188,0.280677,1.490647,-2.243611
284,334042917,0.245690,0.487516,0.177206,-0.818880,1.029750,0.373161,-0.950619
285,334076251,0.240157,0.493292,0.172157,-0.818138,0.679554,0.805779,-0.669922
286,334109585,0.234349,0.498062,0.164080,-0.818592,-0.044138,0.603451,0.400021
287,334142919,0.230378,0.501959,0.156556,-0.818813,0.093354,-0.228067,0.443733
288,334176253,0.228528,0.506226,0.152602,-0.817450,-0.792794,0.179801,0.442460
289,334209587,0.227895,0.511062,0.151947,-0.814734,-0.470558,-0.146392,-0.160482
290,334242921,0.228134,0.515282,0.154069,-0.811605,-0.555325,0.235009,-0.190979
291,334276255,0.228941,0.518297,0.155011,-0.809276,0.165379,0.551907,0.092558
292,334309589,0.228005,0.518526,0.152719,-0.809829,0.317620,0.052964,-0.027137
293,334342923,0.226215,0.517211,0.148101,-0.812026,-0.055784,0.780900,-0.688669
294,334376257,0.223414,0.515647,0.144667,-0.814412,-0.562393,0.804439,0.012043
295,334409591,0.220070,0.513344,0.140448,-0.817510,0.500962,-0.212283,-0.323926
296,334442925,0.216889,0.510346,0.135187,-0.821116,-0.193426,0.282822,0.105903
297,334476259,0.213910,0.506670,0.129559,-0.825072,-1.021126,0.705490,0.349211
298,334509593,0.212524,0.502679,0.123127,-0.828847,0.570852,-0.354234,-0.223689
299,334542927,0.212664,0.498588,0.116343,-0.832255,-0.804513,0.704427,-0.000396
300,334576261,0.212454,0.493492,0.108824,-0.836353,0.328213,2.204077,-0.269106
301,334609595,0.210203,0.485785,0.094476,-0.843150,0.576896,-0.603720,-0.526559
302,334642929,0.208816,0.477448,0.079748,-0.849753,-1.136768,0.081480,0.335304
303,334676263,0.205618,0.469313,0.065706,-0.856242,-0.891714,-0.032788,0.876919
304,334709597,0.203870,0.464714,0.053742,-0.859995,0.234692,-0.279653,0.826971
305,334742931,0.202807,0.463719,0.041137,-0.861477,-0.717430,2.296567,0.919330
306,334776265,0.203158,0.465523,0.026305,-0.861002,0.575816,-0.007524,0.661595
307,334809599,0.206197,0.467399,0.015004,-0.859533,0.677678,-0.232467,-0.633927
308,334842933,0.216572,0.469449,0.013920,-0.855875,0.444728,-0.099575,-1.149177
309,334876267,0.227863,0.470468,0.015332,-0.852352,-0.070028,-0.248316,0.185663
310,334909601,0.236908,0.470537,0.012855,-0.849885,1.088819,-0.609246,-0.347099
311,334942935,0.239426,0.469331,0.007788,-0.849908,-0.105928,-0.918014,0.480416
312,334976269,0.237785,0.468997,0.004229,-0.850578,0.040018,-1.216591,0.015355
313,335009603,0.234802,0.467835,0.006044,-0.852034,1.127998,-0.499995,0.123655
314,335042937,0.232285,0.465903,0.014500,-0.853679,0.838109,0.258133,-0.094173
315,335076271,0.228539,0.466745,0.021385,-0.854086,1.043303,-0.533210,0.059045
316,335109605,0.222082,0.467108,0.027054,-0.855429,0.088203,0.358173,0.103011
317,335142939,0.213596,0.467425,0.030724,-0.857290,-0.004432,-0.187325,-0.303937
318,335176273,0.203719,0.465630,0.032547,-0.860597,-0.942692,0.647238,-0.172174
319,335209607,0.190652,0.463273,0.030171,-0.864940,-0.764633,0.785244,-0.621725
320,335242941,0.173386,0.461466,0.022137,-0.869768,-0.330391,0.853532,-0.725059
321,335276275,0.155217,0.459593,0.013928,-0.874350,-0.195283,0.595616,-0.547798
322,335309609,0.137990,0.458151,0.006406,-0.878075,-1.181338,0.626089,0.125777
323,335342943,0.124086,0.457024,0.003829,-0.880749,-0.705307,0.472445,-0.335423
324,335376277,0.113739,0.457299,0.007062,-0.881982,-0.507561,1.211895,0.173105
325,335409611,0.104198,0.459382,0.010866,-0.882039,-0.577393,0.943612,1.163660
326,335442945,0.092980,0.461884,0.009225,-0.882005,0.561468,-0.417647,0.572184
327,335476279,0.082089,0.464045,0.006475,-0.881976,0.743058,-0.523407,-1.000865
328,335509613,0.072816,0.468103,0.011508,-0.880594,-0.014139,0.558731,-0.908228
329,335542947,0.062842,0.473643,0.016111,-0.878325,0.438854,0.221400,-0.492699
330,335576281,0.051143,0.481284,0.015727,-0.874930,0.194188,-1.162300,0.480210
331,335609615,0.040728,0.490806,0.012507,-0.870227,-0.295662,-0.340671,1.220674
332,335642949,0.031346,0.499306,0.008592,-0.865817,0.454147,0.400219,-0.233374
333,335676283,0.022771,0.507371,0.004993,-0.861413,1.925504,1.596388,-1.554108
334,335709617,0.012820,0.513267,-0.001534,-0.858132,0.741485,1.721718,-0.204341
335,335742951,-0.000179,0.515626,-0.012875,-0.856717,-0.719739,-0.192399,0.881408
336,335776285,-0.015930,0.514844,-0.027167,-0.856706,-0.047592,0.312907,-0.098881
337,335809619,-0.030309,0.514610,-0.039048,-0.855999,-0.105280,1.135739,0.184229
338,335842953,-0.040954,0.515484,-0.049494,-0.854488,0.014700,0.792951,-0.206160
339,335876287,-0.048664,0.517189,-0.056985,-0.852585,-0.180094,0.820595,-0.223077
340,335909621,-0.054669,0.519440,-0.062645,-0.850453,0.650380,1.481010,0.306527
341,335942955,-0.061662,0.520789,-0.068594,-0.848688,0.947623,-0.134327,-0.266286
342,335976289,-0.068931,0.520042,-0.074464,-0.848093,0.268817,-0.377925,-0.508477
343,336009623,-0.075113,0.517783,-0.079141,-0.848526,0.327826,-0.049782,-0.809095
344,336042957,-0.079502,0.514577,-0.083792,-0.849629,0.639931,0.928625,-0.839778
345,336076291,-0.083981,0.509574,-0.086867,-0.851902,0.601948,1.496426,-0.676379
346,336109625,-0.088568,0.503948,-0.091305,-0.854316,0.059504,0.130953,-0.287625
347,336142959,-0.094085,0.497088,-0.097615,-0.857044,0.283721,0.716050,-0.315315
348,336176293,-0.101081,0.489745,-0.104965,-0.859602,0.083334,1.083133,0.081704
349,336209627,-0.109978,0.480552,-0.114678,-0.862452,0.265968,1.684109,0.231045
350,336242961,-0.118876,0.471328,-0.124557,-0.864988,0.665266,0.485871,-0.146871
351,336276295,-0.126600,0.462423,-0.132446,-0.867523,0.405116,2.066988,0.129417
352,336309629,-0.134143,0.453702,-0.140975,-0.869648,0.172968,-0.193104,0.565558
353,336342963,-0.141075,0.444755,-0.149747,-0.871704,-0.640617,0.637572,0.239491
354,336376297,-0.147708,0.436231,-0.158868,-0.873296,0.397289,0.682131,-0.028856
355,336409631,-0.154517,0.429653,-0.168094,-0.873652,0.817077,0.749791,-0.121900
356,336442965,-0.162226,0.424750,-0.178445,-0.872599,-1.307230,0.246009,1.485919
357,336476299,-0.169128,0.422491,-0.187995,-0.870377,-0.154636,-1.539190,-0.270298
358,336509633,-0.171015,0.423744,-0.191154,-0.868709,0.371942,-1.225001,-1.011781
359,336542967,-0.171240,0.424136,-0.191396,-0.868420,0.528072,0.419071,-1.295302
360,336576301,-0.174186,0.418752,-0.203069,-0.867796,0.581985,1.469278,0.564308
361,336609635,-0.183386,0.407459,-0.223730,-0.866194,0.295410,1.694542,0.972306
362,336642969,-0.196730,0.394890,-0.244756,-0.863397,0.028933,0.342290,0.683983
363,336676303,-0.211987,0.383874,-0.261039,-0.859978,0.433780,0.159862,0.206219
364,336709637,-0.225677,0.376481,-0.273494,-0.855882,-0.668962,-0.393974,-0.368139
365,336742971,-0.237339,0.372477,-0.280976,-0.852047,-0.086882,0.379752,-0.016206
366,336776305,-0.246006,0.369834,-0.287607,-0.848520,-0.355643,-0.326304,-0.655636
367,336809639,-0.253257,0.368840,-0.289198,-0.846276,0.107569,1.389524,-0.152836
368,336842973,-0.261095,0.368109,-0.290094,-0.843903,0.552291,0.278619,0.207192
369,336876307,-0.270162,0.365975,-0.291277,-0.841566,0.632056,0.387977,0.087601
370,336909641,-0.280399,0.362975,-0.293033,-0.838903,0.627389,0.150356,-1.228502
371,336942975,-0.290196,0.360017,-0.294839,-0.836208,-0.360498,0.793119,0.049638
372,336976309,-0.299462,0.357064,-0.298070,-0.833056,-0.014717,1.406660,-0.124919
373,337009643,-0.308967,0.355968,-0.299877,-0.829398,0.903966,1.037436,0.182699
374,337042977,-0.319031,0.355679,-0.299931,-0.825684,0.927797,1.538889,0.356507
375,337076311,-0.329998,0.355097,-0.302290,-0.820749,-0.033050,0.304102,-0.006154
376,337109645,-0.342682,0.354184,-0.303309,-0.815553,0.209518,0.693211,0.222584
377,337142979,-0.354904,0.353839,-0.303474,-0.810398,1.237512,0.494566,-0.090135
378,337176313,-0.366843,0.353846,-0.303778,-0.804947,0.431911,-0.397423,-0.137256
379,337209647,-0.379643,0.354507,-0.303710,-0.798722,0.062613,0.479719,0.346148
380,337242981,-0.393594,0.356205,-0.305322,-0.790557,0.811645,-0.292997,0.406756
381,337276315,-0.409228,0.358969,-0.310470,-0.779284,-1.786680,-1.129891,0.133386
382,337309649,-0.421715,0.367001,-0.313357,-0.767642,-1.253659,0.017170,0.627294
383,337342983,-0.430430,0.379195,-0.313060,-0.756924,-0.229658,-0.077520,-0.127359
384,337376317,-0.436478,0.391616,-0.311410,-0.747762,1.263636,1.078713,0.296596
385,337409651,-0.446217,0.395768,-0.315361,-0.738110,1.492904,0.926861,0.469692
386,337442985,-0.459604,0.391459,-0.324582,-0.728128,1.439972,-0.223171,-0.967850
387,337476319,-0.472058,0.388110,-0.330372,-0.719296,0.972242,-0.955872,-0.734005
388,337509653,-0.479458,0.387694,-0.334175,-0.712840,0.544310,-0.719492,-1.071764
389,337542987,-0.482844,0.390641,-0.334892,-0.708596,-0.246502,0.087602,-0.270481
390,337576321,-0.483980,0.396077,-0.333582,-0.705415,1.580633,0.815651,0.273763
391,337609655,-0.486028,0.398633,-0.335046,-0.701864,0.116053,0.984206,0.679324
392,337642989,-0.489561,0.397621,-0.337472,-0.698814,-0.436652,0.514273,0.162425
393,337676323,-0.492963,0.395291,-0.339833,-0.696597,0.378689,-0.077854,-0.775058
394,337709657,-0.494082,0.394590,-0.341218,-0.695523,0.857024,-0.613296,-0.966106
395,337742991,-0.494325,0.394636,-0.341883,-0.694998,0.356308,0.127483,-1.356323
396,337776325,-0.493302,0.395512,-0.342741,-0.694804,1.903170,0.956671,0.201421
397,337809659,-0.492839,0.394551,-0.343129,-0.695487,1.398817,1.077078,-0.087948
398,337842993,-0.491855,0.392631,-0.344146,-0.696767,1.117460,1.759120,0.529570
399,337876327,-0.493724,0.385570,-0.347729,-0.697609,0.698436,2.023783,0.989836
400,337909661,-0.496498,0.377651,-0.350817,-0.698426,1.023234,0.964287,-0.160276
401,337942995,-0.499847,0.369552,-0.352928,-0.699305,0.322678,1.137645,-0.868122
402,337976329,-0.502399,0.363631,-0.353341,-0.700370,0.142207,1.168926,0.078051
403,338009663,-0.504200,0.358962,-0.352544,-0.701884,0.089028,1.165271,0.680038
404,338042997,-0.504177,0.355387,-0.349740,-0.705116,-0.096753,-0.051024,-0.546335
405,338076331,-0.503128,0.353383,-0.347127,-0.708156,0.494092,0.409234,0.862843
406,338109665,-0.503418,0.350857,-0.346322,-0.709599,1.253712,-0.268229,0.760655
407,338142999,-0.505979,0.346574,-0.349570,-0.708289,1.103837,0.608002,0.785279
408,338176333,-0.507939,0.342223,-0.353699,-0.706950,-0.173430,0.642363,-0.240124
409,338209667,-0.508324,0.338443,-0.356849,-0.706910,-0.483755,-0.173420,-0.520614
410,338243001,-0.507393,0.336039,-0.358343,-0.707969,0.161808,-0.003154,-0.590365
411,338276335,-0.507876,0.333850,-0.358643,-0.708507,0.605239,0.668113,-0.213653
412,338309669,-0.510687,0.331497,-0.357101,-0.708370,0.482278,0.411591,0.161294
413,338343003,-0.515598,0.329186,-0.356248,-0.706316,-1.047899,0.071089,0.789044
414,338376337,-0.523420,0.324540,-0.357311,-0.702165,0.108412,1.025754,0.447042
415,338409671,-0.530647,0.321148,-0.359373,-0.697230,-1.014469,-0.519516,-0.474688
416,338443005,-0.535762,0.322467,-0.358012,-0.693400,-0.260163,-0.188411,-0.205100
417,338476339,-0.537591,0.328574,-0.352127,-0.692129,0.174216,-0.487295,-0.261898
418,338509673,-0.536433,0.339103,-0.341407,-0.693318,0.052165,-0.451529,-0.805654
419,338543007,-0.535953,0.348167,-0.333258,-0.693162,0.652413,0.257864,0.017770
420,338576341,-0.538273,0.353887,-0.327064,-0.691416,0.098097,0.387533,0.458073
421,338609675,-0.542806,0.355059,-0.323581,-0.688905,-0.047526,0.824962,-0.036294
422,338643009,-0.547135,0.357386,-0.320340,-0.685785,0.290165,-0.250810,-0.566855
423,338676343,-0.550766,0.361219,-0.316364,-0.682709,-0.117339,0.975920,-0.022758
424,338709677,-0.552362,0.367686,-0.309735,-0.681005,0.855920,1.427039,0.013631
425,338743011,-0.552523,0.377729,-0.300922,-0.679327,0.830403,0.360252,-0.205555
426,338776345,-0.553448,0.386018,-0.294038,-0.676925,0.735171,1.091567,0.518653
427,338809679,-0.556459,0.391190,-0.291014,-0.672782,-0.211230,0.585291,0.784934
428,338843013,-0.560813,0.394400,-0.290437,-0.667521,0.004016,0.094563,0.362373
429,338876347,-0.566451,0.396725,-0.292273,-0.660545,0.158422,-0.041926,0.266109
430,338909681,-0.571986,0.399086,-0.296052,-0.652623,0.396231,-0.191996,0.347087
431,338943015,-0.578813,0.399479,-0.303577,-0.642833,-0.753817,0.249314,0.336533
432,338976349,-0.584309,0.401208,-0.312664,-0.632343,-0.602934,0.390263,0.420371
433,339009683,-0.587659,0.404804,-0.321250,-0.622567,1.092255,0.472158,0.802376
434,339043017,-0.590286,0.407820,-0.330022,-0.613458,1.239340,-0.598945,-0.073937
435,339076351,-0.592883,0.408857,-0.338617,-0.605528,0.395047,-1.228225,-0.692672
436,339109685,-0.598433,0.404852,-0.348328,-0.597194,-0.379945,-0.576190,-0.778721
437,339143019,-0.606208,0.397136,-0.358680,-0.588340,-0.752159,-0.823052,-0.725496
438,339176353,-0.613666,0.388173,-0.368967,-0.580171,-0.605347,-0.575619,-0.965887
439,339209687,-0.619389,0.380648,-0.378262,-0.573047,1.528813,0.085680,0.123619
440,339243021,-0.622623,0.375300,-0.385913,-0.567946,1.498225,0.780238,0.604991
441,339276355,-0.624203,0.371338,-0.391715,-0.564835,1.000311,0.715148,0.517523
442,339309689,-0.626170,0.365105,-0.397411,-0.562738,0.278122,0.559300,0.165415
443,339343023,-0.629696,0.354947,-0.404417,-0.560306,1.039814,0.335423,-0.100643
444,339376357,-0.634696,0.343626,-0.410902,-0.556995,0.810616,-0.383205,-0.066255
445,339409691,-0.638763,0.335134,-0.415331,-0.554226,1.051527,-0.300109,-0.200618
446,339443025,-0.642899,0.327700,-0.418135,-0.551777,0.451559,0.571300,-0.497161
447,339476359,-0.646731,0.322050,-0.419870,-0.549302,1.100191,1.010831,0.595985
448,339509693,-0.651838,0.315432,-0.420719,-0.546450,0.083890,0.800819,0.175556
449,339543027,-0.657704,0.308400,-0.421450,-0.542858,1.543710,-0.257996,-0.060216
450,339576361,-0.664245,0.300819,-0.421674,-0.538961,-0.070140,0.019494,-0.820469
451,339609695,-0.669487,0.294084,-0.421785,-0.536097,1.567256,0.726475,0.177320
452,339643029,-0.674911,0.286553,-0.420419,-0.534444,0.452088,-0.030198,-0.340514
453,339676363,-0.679232,0.278928,-0.419139,-0.534010,0.604147,0.028694,-0.357487
454,339709697,-0.683413,0.271039,-0.418714,-0.533070,1.156673,0.214794,0.091774
455,339743031,-0.686276,0.263717,-0.418990,-0.532847,0.771162,0.098051,0.113184
456,339776365,-0.688234,0.256837,-0.419494,-0.533286,-0.376757,0.679007,0.584982
457,339809699,-0.689840,0.250236,-0.422583,-0.531909,0.068352,0.350360,0.348924
458,339843033,-0.691746,0.245821,-0.425701,-0.528998,0.170970,0.881734,0.859315
459,339876367,-0.692040,0.242743,-0.429316,-0.527110,-0.754844,0.035973,-0.636006
460,339909701,-0.691004,0.242923,-0.430926,-0.527073,-0.001400,0.100927,-0.572032
461,339943035,-0.689756,0.244291,-0.430648,-0.528300,0.259219,-0.469177,-0.316008
462,339976369,-0.689927,0.244648,-0.429668,-0.528710,0.461701,-0.248078,0.052505
463,340009703,-0.692893,0.243159,-0.428166,-0.526733,0.690933,0.425711,0.359809
464,340043037,-0.697723,0.240781,-0.426415,-0.522855,-0.576510,1.118683,0.521541
465,340076371,-0.703123,0.237890,-0.426058,-0.517205,0.045374,1.088724,0.042385
466,340109705,-0.708023,0.236591,-0.426017,-0.511114,-0.100866,0.157530,-0.115088
467,340143039,-0.710851,0.237575,-0.426910,-0.505962,0.233658,0.525674,0.221084
468,340176373,-0.713433,0.238706,-0.427063,-0.501648,0.740430,0.080710,-0.454074
469,340209707,-0.715296,0.239107,-0.427336,-0.498563,0.236687,-0.263266,-0.787083
470,340243041,-0.718011,0.235565,-0.428020,-0.495751,0.804639,0.709115,-0.743616
471,340276375,-0.722255,0.230173,-0.429490,-0.490822,0.996003,0.296689,-0.243577
472,340309709,-0.728152,0.223572,-0.430961,-0.483822,0.345335,1.041070,0.154510
473,340343043,-0.734215,0.218389,-0.432405,-0.475669,0.539318,0.431715,0.131975
474,340376377,-0.739151,0.216343,-0.433086,-0.468282,1.124814,0.255148,0.853808
475,340409711,-0.743488,0.216249,-0.433662,-0.460869,-0.206952,0.177390,0.114533
476,340443045,-0.747483,0.217114,-0.433649,-0.453960,1.211676,-0.675401,0.069351
477,340476379,-0.751211,0.216868,-0.434892,-0.446676,-0.481157,0.518678,0.119222
478,340509713,-0.756504,0.212091,-0.438000,-0.436893,1.061673,-0.301820,0.087265
479,340543047,-0.762552,0.206493,-0.442175,-0.424685,0.488559,-1.193659,0.385611
480,340576381,-0.769252,0.198191,-0.448580,-0.409571,-1.651647,0.836324,-0.053187
481,340609715,-0.774762,0.191817,-0.455990,-0.393730,-1.515218,0.718502,-0.038633
482,340643049,-0.777526,0.190923,-0.462014,-0.381503,-0.145677,0.096495,-0.371825
483,340676383,-0.777872,0.193654,-0.466940,-0.373339,0.425913,-0.549910,-0.260787
484,340709717,-0.777203,0.197261,-0.470903,-0.367824,0.101801,-1.546564,-0.327101
485,340743051,-0.777595,0.197028,-0.474321,-0.362692,0.527989,-0.285009,-0.241828
486,340776385,-0.778799,0.193800,-0.477338,-0.357860,0.897637,-1.543393,0.095760
487,340809719,-0.780513,0.188761,-0.480473,-0.352584,-0.251529,-0.579941,-0.693015
488,340843053,-0.781709,0.185675,-0.482910,-0.348216,1.009237,-0.288815,0.078745
489,340876387,-0.782986,0.182787,-0.484991,-0.343955,-0.069342,0.511753,-0.682103
490,340909721,-0.783099,0.181352,-0.486820,-0.341869,0.548091,-0.295537,-0.213469
491,340943055,-0.783766,0.177543,-0.488765,-0.339556,-0.188485,-0.022852,-0.672915
492,340976389,-0.785251,0.171221,-0.490319,-0.337123,0.284816,-0.148966,-0.820344
493,341009723,-0.786744,0.165514,-0.491177,-0.335238,0.678825,-0.389674,-0.120012
494,341043057,-0.788196,0.159234,-0.491385,-0.334562,0.484942,0.075177,-0.045833
495,341076391,-0.790940,0.150886,-0.489887,-0.334153,2.031874,-0.709601,0.438420
496,341109725,-0.795174,0.136353,-0.488175,-0.332854,0.290598,-0.108298,0.132775
497,341143059,-0.799301,0.122259,-0.484662,-0.333580,1.045959,-0.460450,-0.066986
498,341176393,-0.802837,0.108924,-0.480953,-0.335071,0.774029,-0.972007,-0.278696
499,341209727,-0.806100,0.096516,-0.476545,-0.337332,0.568805,0.157695,-0.146954
500,341243061,-0.808601,0.085309,-0.471766,-0.341065,-0.368424,0.403729,-0.536799
501,341276395,-0.810148,0.076738,-0.467395,-0.345420,0.353515,0.327192,-0.486040
502,341309729,-0.810718,0.069701,-0.464510,-0.349441,0.211938,0.363876,0.438188
503,341343063,-0.811524,0.064086,-0.461598,-0.352491,2.607514,-0.966375,0.535990
504,341376397,-0.810657,0.057754,-0.462640,-0.354208,0.219372,0.076171,0.319271
505,341409731,-0.808577,0.055304,-0.464577,-0.356810,1.591398,0.561195,0.787987
506,341443065,-0.805891,0.052171,-0.468412,-0.358342,0.347919,-0.284276,-0.396710
507,341476399,-0.802409,0.053820,-0.470995,-0.362502,0.530203,0.185931,-0.845799
508,341509733,-0.798434,0.058738,-0.472589,-0.368393,0.304467,0.220550,-0.232418
509,341543067,-0.794921,0.064531,-0.472753,-0.374756,0.804158,0.077786,0.349802
510,341576401,-0.794327,0.067104,-0.472772,-0.375538,0.279067,-0.072874,-0.098083
511,341609735,-0.795516,0.067522,-0.473326,-0.372235,0.016485,0.903327,0.262390
512,341643069,-0.799184,0.065976,-0.474080,-0.363595,-0.308897,0.188628,-0.043503
513,341676403,-0.803239,0.065454,-0.475473,-0.352772,0.296289,0.012433,-0.214727
514,341709737,-0.807817,0.065528,-0.476002,-0.341410,0.174646,-0.453676,-0.182845
515,341743071,-0.811197,0.066800,-0.476173,-0.332801,0.816026,0.222326,0.295513
516,341776405,-0.814095,0.067548,-0.475819,-0.326011,0.570215,0.368529,0.726068
517,341809739,-0.817150,0.068435,-0.474247,-0.320426,0.795727,-0.214859,0.283356
518,341843073,-0.820516,0.068767,-0.472369,-0.314472,0.040542,-0.965270,-0.035312
519,341876407,-0.825084,0.067603,-0.470068,-0.306108,-0.157725,0.211030,-0.452847
520,341909741,-0.829417,0.065268,-0.468285,-0.297519,0.203791,0.211377,-0.409342
521,341943075,-0.833100,0.065450,-0.466626,-0.289694,0.560575,-0.380147,-0.018545
522,341976409,-0.835679,0.066998,-0.466164,-0.282565,0.741619,0.264976,0.070302
523,342009743,-0.837769,0.068654,-0.466278,-0.275708,0.609864,-0.358699,0.395320
524,342043077,-0.839686,0.069359,-0.467122,-0.268168,0.879055,0.583400,0.374686
525,342076411,-0.841495,0.068865,-0.468646,-0.259837,0.978115,-0.310339,-0.109827
526,342109745,-0.843300,0.068634,-0.470242,-0.251013,0.899323,-0.288876,0.016455
527,342143079,-0.845062,0.072572,-0.470673,-0.243044,-0.211007,-0.146887,0.518849
528,342176413,-0.846034,0.078215,-0.471893,-0.235430,-0.507343,-1.192746,-0.299458
529,342209747,-0.846355,0.081069,-0.475956,-0.224894,0.007010,1.304351,0.135010
530,342243081,-0.844947,0.085173,-0.481970,-0.215677,1.201181,-0.048518,0.379536
531,342276415,-0.843459,0.088804,-0.487526,-0.207387,-0.515806,-0.151125,-0.639192
532,342309749,-0.841879,0.092986,-0.492127,-0.201012,-1.372901,0.057932,-0.840880
533,342343083,-0.841300,0.097178,-0.494572,-0.195372,-0.858641,-0.449989,-1.002670
534,342376417,-0.841629,0.097997,-0.496668,-0.188092,1.031874,-0.127706,0.913140
535,342409751,-0.843131,0.095250,-0.497763,-0.179697,1.057702,0.272219,0.579893
536,342443085,-0.844470,0.092919,-0.498779,-0.171629,0.737155,-0.656798,0.498826
537,342476419,-0.844617,0.090511,-0.500531,-0.167029,-0.123173,0.062614,-0.102754
538,342509753,-0.845005,0.087464,-0.501569,-0.163543,0.910581,-1.088845,0.015683
539,342543087,-0.844834,0.085652,-0.503036,-0.160857,-0.103137,-0.813439,-0.251061
540,342576421,-0.844671,0.084380,-0.504267,-0.158512,-0.134168,0.333274,-0.667883
541,342609755,-0.845916,0.081686,-0.503729,-0.154956,-0.298705,0.429963,-0.714214
542,342643089,-0.847493,0.078867,-0.502239,-0.152616,0.142865,-0.173290,-0.183391
543,342676423,-0.850115,0.073918,-0.499232,-0.150360,-0.013628,-0.554322,-0.509876
544,342709757,-0.852798,0.067855,-0.495595,-0.150060,0.029829,-0.688321,0.158968
545,342743091,-0.856877,0.057503,-0.490341,-0.148395,0.771425,-0.869825,-0.154405
546,342776425,-0.859753,0.049145,-0.486084,-0.148770,0.445697,-1.295172,0.213316
547,342809759,-0.861694,0.043694,-0.482534,-0.150785,1.071927,0.103494,0.806219
548,342843093,-0.863497,0.038133,-0.479004,-0.153217,-0.798699,-0.373814,-0.567641
549,342876427,-0.866027,0.034646,-0.474878,-0.152604,-0.384648,2.361581,-0.877670
550,342909761,-0.868299,0.027715,-0.471064,-0.152932,2.249026,-1.217571,1.310090
551,342943095,-0.871282,0.020638,-0.466130,-0.152200,-0.102507,-1.059256,0.107399
552,342976429,-0.872216,0.017091,-0.464799,-0.151361,0.033046,1.187050,-0.194193
553,343009763,-0.872800,0.013755,-0.464676,-0.148684,1.503179,0.403080,0.883722
554,343043097,-0.872816,0.011785,-0.465177,-0.147184,-0.898509,1.413213,-0.278219
555,343076431,-0.872811,0.012598,-0.465298,-0.146768,-0.339244,-0.007206,-0.775426
556,343109765,-0.872330,0.015536,-0.465341,-0.149189,-0.962163,0.641316,-0.160397
557,343143099,-0.873587,0.013497,-0.463308,-0.148359,0.518965,-0.055072,0.479117
558,343176433,-0.875522,0.007434,-0.461282,-0.143617,-0.325700,0.898152,0.127576
559,343209767,-0.876225,0.003518,-0.461238,-0.139563,0.345583,-0.062462,0.551450
560,343243101,-0.877513,-0.006741,-0.461493,-0.130192,-0.063705,0.113073,0.634885
561,343276435,-0.878404,-0.020620,-0.462388,-0.119078,0.765269,-0.154253,0.600946
562,343309769,-0.878055,-0.029901,-0.464718,-0.110288,-0.488314,0.336894,-0.383772
563,343343103,-0.876701,-0.033695,-0.468288,-0.104725,-0.244824,0.800967,-0.563607
564,343376437,-0.874794,-0.034209,-0.472451,-0.101761,-0.169679,-0.742213,-0.436991
565,343409771,-0.873781,-0.038700,-0.474725,-0.098212,0.130998,-0.021725,-0.082632
566,343443105,-0.873568,-0.046165,-0.475412,-0.093440,0.121379,0.115845,-0.877281
567,343476439,-0.873777,-0.051305,-0.475560,-0.087891,0.250445,0.217412,-0.514796
568,343509773,-0.874843,-0.053444,-0.474403,-0.082075,-0.166515,0.879510,-1.333871
569,343543107,-0.875895,-0.054214,-0.473276,-0.076683,1.519475,0.679717,0.030624
570,343576441,-0.877593,-0.057626,-0.470637,-0.070786,5.412436,1.253991,3.108797
571,343609775,-0.879368,-0.062765,-0.467611,-0.064134,0.692046,0.447478,0.527390
572,343643109,-0.879603,-0.069886,-0.466545,-0.061246,-0.822294,1.025960,-0.418433
573,343676443,-0.879516,-0.078091,-0.466044,-0.056191,0.338921,-0.796857,-0.133998
574,343709777,-0.880014,-0.084912,-0.464658,-0.049591,0.297525,-2.257901,-0.127555
575,343743111,-0.880518,-0.088851,-0.463658,-0.042608,0.118705,-0.865899,0.354015
576,343776445,-0.880676,-0.094058,-0.463056,-0.033801,1.026959,-0.548701,0.706415
577,343809779,-0.880459,-0.100693,-0.462776,-0.022168,0.948294,-0.273205,0.509383
578,343843113,-0.879612,-0.105502,-0.463723,-0.010618,0.506869,-1.065691,0.338695
579,343876447,-0.877935,-0.110218,-0.465920,0.000776,0.231772,-0.475723,-0.305136
580,343909781,-0.876078,-0.114483,-0.468229,0.011974,-0.603939,-0.463676,-0.662597
581,343943115,-0.874601,-0.115454,-0.470431,0.020936,-0.657991,-0.778832,0.039240
582,343976449,-0.873528,-0.117163,-0.471593,0.028668,-0.366900,0.042582,-0.301012
583,344009783,-0.872661,-0.120193,-0.471904,0.036379,-0.119192,0.258223,0.166506
584,344043117,-0.872178,-0.122305,-0.471586,0.044214,-0.419849,-0.602430,-0.516393
585,344076451,-0.871573,-0.124332,-0.471392,0.051885,-0.694146,-0.795802,-0.200546
586,344109785,-0.871289,-0.126521,-0.470523,0.058793,0.277924,-0.792282,-0.070816
587,344143119,-0.870671,-0.126844,-0.471040,0.062957,-0.067208,-0.126805,0.160409
588,344176453,-0.870341,-0.126558,-0.471337,0.065808,-0.159110,-0.186373,-0.453538
589,344209787,-0.870050,-0.126992,-0.471500,0.067640,-0.005289,0.267818,-0.805129
590,344243121,-0.870259,-0.127397,-0.470712,0.069638,0.705930,-0.562706,-0.084368
591,344276455,-0.870672,-0.126837,-0.469881,0.071097,0.551550,-0.758099,0.202628
592,344309789,-0.871398,-0.127309,-0.468037,0.073487,0.652505,-0.390551,-0.292753
593,344343123,-0.872469,-0.127746,-0.465549,0.075783,0.138845,-1.481065,0.266054
594,344376457,-0.874088,-0.128725,-0.461686,0.079035,0.691409,-1.036250,0.266963
595,344409791,-0.875801,-0.129660,-0.457840,0.080896,-0.248185,-2.201778,0.423804
596,344443125,-0.878065,-0.132823,-0.452189,0.082985,0.416938,-0.037526,-0.530091
597,344476459,-0.880422,-0.137693,-0.445833,0.084442,0.737016,-0.250443,-0.048116
598,344509793,-0.883046,-0.141142,-0.439213,0.086028,-0.653631,-0.328776,0.019826
599,344543127,-0.885432,-0.143355,-0.433531,0.086665,-0.838716,0.014176,0.051944
600,344576461,-0.887830,-0.147356,-0.427053,0.087576,0.735509,-0.294805,0.712101
601,344609795,-0.889879,-0.154660,-0.420084,0.087898,0.875289,1.161644,0.171936
602,344643129,-0.891644,-0.162468,-0.413282,0.088167,0.864487,0.999190,0.377980
603,344676463,-0.892143,-0.168683,-0.409759,0.087888,-0.500971,-0.502244,0.505527
604,344709797,-0.891666,-0.173645,-0.408672,0.088135,0.738854,0.008187,1.374422
605,344743131,-0.890523,-0.178492,-0.409008,0.088447,0.244901,0.528110,0.070024
606,344776465,-0.889110,-0.182747,-0.410210,0.088404,-0.579081,0.065397,-0.490231
607,344809799,-0.888038,-0.185969,-0.410984,0.088870,-0.706606,0.536020,-0.260983
608,344843133,-0.887280,-0.188044,-0.411292,0.090623,-0.238516,0.691451,-0.799693
609,344876467,-0.887150,-0.189854,-0.410030,0.093785,0.138537,0.431997,-0.444255
610,344909801,-0.887266,-0.190305,-0.408710,0.097465,0.769963,0.974259,0.324092
611,344943135,-0.887212,-0.189362,-0.408778,0.099493,0.160958,-0.032851,0.109019
612,344976469,-0.887002,-0.187025,-0.409844,0.101381,0.139883,0.007496,0.058748
613,345009803,-0.886750,-0.183744,-0.411699,0.102068,-0.084249,0.161709,-0.300077
614,345043137,-0.886414,-0.179864,-0.413952,0.102780,-0.015015,-0.930665,0.147285
615,345076471,-0.886108,-0.177685,-0.415243,0.103992,0.573365,0.245619,-0.521062
616,345109805,-0.886240,-0.174932,-0.415545,0.106305,1.117817,-0.511001,0.204525
617,345143139,-0.886560,-0.172044,-0.415236,0.109505,0.275542,-0.428996,0.489140
618,345176473,-0.886638,-0.170815,-0.414135,0.114836,1.039729,0.477174,0.497459
619,345209807,-0.886498,-0.168244,-0.413458,0.121934,0.595823,-1.359889,1.011304
620,345243141,-0.885975,-0.164957,-0.414115,0.127859,0.251773,0.933630,0.212668
621,345276475,-0.885084,-0.160268,-0.415568,0.135068,0.061347,0.396256,-0.068407
622,345309809,-0.883696,-0.154579,-0.418592,0.141308,0.478854,0.585388,0.150282
623,345343143,-0.882121,-0.147903,-0.421930,0.148201,0.551948,0.703506,-0.172509
624,345376477,-0.879840,-0.139260,-0.426921,0.155649,0.178464,-0.382554,0.215650
625,345409811,-0.876843,-0.132748,-0.431808,0.164520,0.203797,0.465007,0.008549
626,345443145,-0.873399,-0.129812,-0.435137,0.176012,-0.377933,-0.505706,-0.229503
627,345476479,-0.869527,-0.126484,-0.439483,0.186494,-0.417558,-0.129797,-0.251277
628,345509813,-0.865034,-0.124995,-0.443785,0.197857,-0.389055,-0.604384,0.717301
629,345543147,-0.859451,-0.128635,-0.447638,0.210755,0.842813,0.346466,0.924180
630,345576481,-0.853503,-0.133518,-0.451940,0.222391,1.181779,-0.016461,0.419854
631,345609815,-0.848042,-0.134126,-0.458358,0.229659,-0.503967,-0.710681,-0.670646
632,345643149,-0.843582,-0.132361,-0.465197,0.233327,-1.265776,0.015501,-1.251125
633,345676483,-0.839793,-0.132635,-0.470767,0.235657,-1.059376,0.217947,-0.371280
634,345709817,-0.836982,-0.134803,-0.473302,0.239322,-0.282142,0.089007,-0.298810
635,345743151,-0.834033,-0.136999,-0.474964,0.245012,-0.143600,0.259225,0.154895
636,345776485,-0.831330,-0.137698,-0.476399,0.250947,0.095205,0.649278,-0.255947
637,345809819,-0.828954,-0.135991,-0.479138,0.254496,0.113563,-0.280620,0.445040
638,345843153,-0.827294,-0.134243,-0.481470,0.256418,0.162402,-0.222383,0.305408
639,345876487,-0.826374,-0.136412,-0.481347,0.258462,-0.631891,-0.938720,-0.121177
640,345909821,-0.825724,-0.139751,-0.480400,0.260509,-0.174964,-0.178074,-0.236128
641,345943155,-0.825588,-0.143784,-0.478560,0.262131,-0.251894,-0.194605,-0.498852
642,345976489,-0.825700,-0.148379,-0.476229,0.263458,0.759337,-0.236166,-0.231073
643,346009823,-0.826320,-0.151397,-0.473725,0.264308,-0.260453,-1.022928,-0.441899
644,346043157,-0.827142,-0.152858,-0.471669,0.264575,0.322217,-0.758712,0.085187
645,346076491,-0.828932,-0.155481,-0.467439,0.264950,0.707349,-1.502817,0.531384
646,346109825,-0.831355,-0.159827,-0.461058,0.265953,0.503309,-0.574916,0.147869
647,346143159,-0.834095,-0.164972,-0.453498,0.267227,-0.486525,-0.260362,-0.830608
648,346176493,-0.836933,-0.168438,-0.447090,0.266987,0.061939,0.546234,-0.763015
649,346209827,-0.840383,-0.169420,-0.441969,0.264040,-0.134144,-0.303488,-0.349429
650,346243161,-0.844724,-0.170178,-0.436436,0.258855,0.234311,-0.274122,0.277586
651,346276495,-0.849157,-0.172771,-0.430606,0.252313,0.327848,0.162234,0.055904
652,346309829,-0.852811,-0.177425,-0.424356,0.247296,-0.020446,-0.985081,0.113593
653,346343163,-0.854795,-0.186025,-0.418966,0.243285,0.295234,-1.047137,1.052253
654,346376497,-0.854940,-0.201158,-0.412092,0.242476,0.399158,-1.135721,1.018785
655,346409831,-0.854130,-0.216285,-0.406510,0.241730,0.138753,-0.414187,0.351681
656,346443165,-0.853480,-0.228198,-0.402564,0.239665,0.227949,0.312778,-0.549809
657,346476499,-0.853240,-0.236731,-0.400028,0.236471,0.105930,0.752846,-0.751651
658,346509833,-0.853852,-0.240446,-0.398795,0.232563,-0.685069,0.418524,-0.915727
659,346543167,-0.855401,-0.238967,-0.398412,0.229025,-0.514927,-0.086688,-0.225562
660,346576501,-0.857900,-0.233372,-0.397915,0.226296,0.068953,0.172389,-0.126701
661,346609835,-0.859769,-0.228116,-0.397168,0.225873,0.634308,0.375807,0.914798
662,346643169,-0.860145,-0.225561,-0.396690,0.227837,1.312436,0.785859,0.977914
663,346676503,-0.859875,-0.223722,-0.397125,0.229905,0.274394,-0.266355,0.395926
664,346709837,-0.859030,-0.222610,-0.399322,0.230336,-1.321830,-0.347264,-0.538825
665,346743171,-0.858692,-0.220587,-0.401704,0.229399,0.057007,0.153735,-0.459524
666,346776505,-0.858444,-0.220527,-0.402710,0.228620,0.547120,-0.543661,-0.339368
667,346809839,-0.858237,-0.220401,-0.402639,0.229641,-0.171480,-0.075458,-0.526514
668,346843173,-0.857913,-0.219445,-0.401748,0.233301,0.046629,0.473966,-0.679893
669,346876507,-0.857444,-0.218395,-0.399563,0.239673,0.384888,-0.544479,0.128164
670,346909841,-0.856323,-0.219503,-0.395855,0.248655,-0.178603,-1.492138,0.450412
671,346943175,-0.854696,-0.221877,-0.391580,0.258709,0.930548,-0.182082,0.571670
672,346976509,-0.852610,-0.223701,-0.388703,0.268188,0.384362,-0.908704,0.097700
673,347009843,-0.849841,-0.224720,-0.388334,0.276530,0.249965,-0.277031,-0.016809
674,347043177,-0.847234,-0.224371,-0.389785,0.282702,0.338053,-0.023535,0.085037
675,347076511,-0.844740,-0.223990,-0.391875,0.287536,-0.451144,-0.580916,0.048910
676,347109845,-0.841469,-0.226089,-0.393274,0.293513,-0.384596,0.361144,-0.603774
677,347143179,-0.838237,-0.228363,-0.395034,0.298594,0.444257,-0.285585,-0.134834
678,347176513,-0.833817,-0.229890,-0.398691,0.304870,-0.080369,-1.559312,0.654580
679,347209847,-0.827839,-0.234822,-0.402578,0.312207,0.304633,-1.198636,0.762767
680,347243181,-0.821185,-0.240208,-0.407700,0.318962,0.784016,-0.046514,0.298429
681,347276515,-0.814378,-0.244211,-0.414167,0.324984,-0.115386,0.477742,-0.548103
682,347309849,-0.808180,-0.246264,-0.420686,0.330489,-1.553421,-0.145604,-0.746915
683,347343183,-0.802306,-0.249903,-0.424708,0.336863,-0.820983,0.736187,-1.091920
684,347376517,-0.797286,-0.253037,-0.426843,0.343675,0.214021,0.919535,-0.969343
685,347409851,-0.793597,-0.251956,-0.429562,0.349571,0.225372,0.092753,-0.442262
686,347443185,-0.790326,-0.251079,-0.432446,0.354027,-0.128068,-0.839708,0.498716
687,347476519,-0.787728,-0.250604,-0.434445,0.357687,-0.857825,-1.411004,1.045888
688,347509853,-0.785803,-0.249319,-0.436790,0.359956,-0.108371,-0.470960,0.673939
689,347543187,-0.784096,-0.247229,-0.439691,0.361587,-0.742438,-0.133546,-0.391368
690,347576521,-0.782145,-0.246613,-0.440637,0.365062,-0.426410,-0.777375,-0.306771
691,347609855,-0.780176,-0.249199,-0.438784,0.369722,-0.638769,0.106968,-0.434137
692,347643189,-0.779141,-0.251069,-0.436907,0.372848,-0.303215,0.600185,-1.054187
693,347676523,-0.778598,-0.252272,-0.434448,0.376031,-0.439279,-0.341243,-0.526806
694,347709857,-0.778411,-0.254495,-0.430668,0.379256,0.147398,-0.978394,0.613295
695,347743191,-0.779086,-0.256903,-0.425940,0.381578,-0.872915,-0.480793,-0.111810
696,347776525,-0.780352,-0.259403,-0.420564,0.383259,-0.172225,-1.811917,0.771199
697,347809859,-0.782411,-0.261147,-0.414950,0.383995,0.614014,-0.085559,-0.043187
698,347843193,-0.785114,-0.263724,-0.407822,0.384352,-0.337946,-0.721251,-0.555195
699,347876527,-0.787744,-0.266197,-0.400245,0.385232,-0.402312,-0.297008,-0.387736
700,347909861,-0.790738,-0.267616,-0.392897,0.385678,0.326961,0.354419,-0.892645
701,347943195,-0.793380,-0.267802,-0.387502,0.385581,-0.251914,0.616402,-0.295997
702,347976529,-0.795126,-0.270382,-0.382675,0.385004,0.194177,-0.787161,1.193892
703,348009863,-0.796931,-0.273525,-0.377875,0.383792,0.319432,-0.303183,0.879751
704,348043197,-0.798153,-0.277951,-0.374589,0.381286,0.327540,-0.372338,1.093009
705,348076531,-0.799610,-0.281275,-0.373677,0.376662,0.298462,0.491516,0.199193
706,348109865,-0.802141,-0.281535,-0.374803,0.369906,0.067649,0.262851,0.202724
707,348143199,-0.804159,-0.281440,-0.375968,0.364374,-0.444896,0.735970,-0.855024
708,348176533,-0.805738,-0.280853,-0.375373,0.361945,-0.779324,0.059643,-0.237936
709,348209867,-0.805705,-0.281604,-0.372307,0.364591,0.013074,0.453024,-0.708021
710,348243201,-0.804869,-0.282650,-0.368788,0.369176,-0.088867,-0.723406,-0.707670
711,348276535,-0.803797,-0.283523,-0.366534,0.373065,1.371488,1.093450,-0.115982
712,348309869,-0.802974,-0.282206,-0.367592,0.374794,-0.228246,-0.138666,-0.282787
713,348343203,-0.802413,-0.280089,-0.369153,0.376046,-0.760719,-1.311029,-0.640095
714,348376537,-0.802157,-0.278456,-0.370062,0.376910,0.235081,-0.150148,-0.540443
715,348409871,-0.801649,-0.277815,-0.369723,0.378791,0.508245,-0.762443,-0.549623
716,348443205,-0.801212,-0.276401,-0.368463,0.381966,0.475774,-0.066423,-0.645265
717,348476539,-0.800299,-0.273340,-0.368206,0.386305,-0.557503,-0.257195,-0.896487
718,348509873,-0.798978,-0.270259,-0.367577,0.391769,-0.232407,-1.195729,0.111756
719,348543207,-0.796874,-0.268746,-0.365764,0.398728,0.405951,-2.204873,0.340301
720,348576541,-0.794720,-0.265775,-0.366161,0.404612,-0.893230,-0.964327,0.259201
721,348609875,-0.792070,-0.262658,-0.368441,0.409740,0.832820,-0.359255,1.200979
722,348643209,-0.789450,-0.259549,-0.370575,0.414823,0.680907,-1.136077,0.277879
723,348676543,-0.785211,-0.256958,-0.374844,0.420606,0.120849,0.213646,0.353378
724,348709877,-0.780328,-0.253963,-0.379124,0.427617,0.346847,0.743876,-0.233726
725,348743211,-0.774730,-0.251846,-0.383576,0.435014,0.064719,-0.014492,0.334085
726,348776545,-0.768296,-0.251030,-0.388724,0.442267,-0.314937,0.563018,0.021177
727,348809879,-0.761104,-0.251840,-0.392178,0.451105,-0.058893,0.425970,-0.247019
728,348843213,-0.752605,-0.255965,-0.395270,0.460250,0.603221,0.783547,-0.212842
729,348876547,-0.744190,-0.260138,-0.400404,0.467104,0.572420,-0.144838,0.491536
730,348909881,-0.737273,-0.261632,-0.407855,0.470778,-0.810156,-0.436053,0.107780
731,348943215,-0.731766,-0.261677,-0.416065,0.472159,-1.360507,0.081956,-0.571815
732,348976549,-0.728653,-0.261618,-0.422125,0.471628,-0.017241,1.414545,-1.279473
733,349009883,-0.726393,-0.261403,-0.426709,0.471107,-0.484929,-0.259840,-0.181384
734,349043217,-0.723648,-0.259774,-0.430066,0.473175,-0.347336,0.765913,-1.117785
735,349076551,-0.720807,-0.258213,-0.433900,0.474863,0.760089,-0.427409,-0.199894
736,349109885,-0.718786,-0.255241,-0.438672,0.475149,-0.785813,-1.336843,0.225249
737,349143219,-0.717432,-0.254247,-0.441982,0.474661,0.263262,-1.077688,1.084065
738,349176553,-0.717251,-0.254090,-0.442228,0.474787,-0.430472,-1.440169,0.730800
739,349209887,-0.718001,-0.254296,-0.441811,0.473933,-0.005159,-0.052069,0.169053
740,349243221,-0.718809,-0.255210,-0.439006,0.474821,-0.589887,-0.074468,-0.148172
741,349276555,-0.719180,-0.257110,-0.435586,0.476382,0.233322,-0.061931,0.048582
742,349309889,-0.720066,-0.258583,-0.431358,0.478090,-0.172232,-0.125188,-0.051817
743,349343223,-0.722091,-0.260003,-0.426430,0.478686,-0.382099,-1.183565,0.602863
744,349376557,-0.724652,-0.261489,-0.420937,0.478869,-1.283316,-1.353630,1.126615
745,349409891,-0.727980,-0.262486,-0.415117,0.478357,-0.785595,-0.435864,-0.231374
746,349443225,-0.731696,-0.262209,-0.410751,0.476605,-0.706102,-0.413512,-0.092481
747,349476559,-0.735711,-0.262807,-0.405218,0.474827,0.911781,-0.842279,0.389907
748,349509893,-0.739538,-0.264193,-0.400641,0.471988,-0.028673,-0.852589,1.291409
749,349543227,-0.743014,-0.266561,-0.395474,0.469549,0.123588,0.023991,0.079342
750,349576561,-0.746462,-0.269925,-0.391048,0.465851,0.344276,-0.424462,-0.262515
751,349609895,-0.749454,-0.274764,-0.386438,0.462050,0.930098,-0.921821,0.145522
752,349643229,-0.752235,-0.278867,-0.384595,0.456578,0.258916,0.019041,0.241722
753,349676563,-0.754461,-0.282765,-0.383560,0.451348,0.847159,-0.839349,0.304677
754,349709897,-0.756888,-0.283562,-0.384993,0.445527,-0.022124,0.431482,-0.653306
755,349743231,-0.759050,-0.283052,-0.386569,0.440782,-1.568338,0.774050,-2.220578
756,349776565,-0.760763,-0.283631,-0.382907,0.440654,-0.036432,-0.470683,-1.151775
757,349809899,-0.760306,-0.287389,-0.376738,0.444310,0.162445,0.016825,-0.747428
758,349843233,-0.758991,-0.289980,-0.371302,0.449421,0.281858,0.092876,-0.521570
759,349876567,-0.757698,-0.290590,-0.369102,0.453008,1.263368,0.193607,0.899070
760,349909901,-0.757592,-0.288655,-0.369698,0.453935,0.535371,0.258205,-0.067068
761,349943235,-0.758243,-0.286597,-0.370980,0.453105,-0.799593,-0.623312,-0.325333
762,349976569,-0.758710,-0.284727,-0.372699,0.452090,-0.364806,-0.075444,0.015730
763,350009903,-0.759581,-0.280453,-0.375555,0.450935,-0.058206,-0.362567,-0.492273
764,350043237,-0.760292,-0.275284,-0.379016,0.450025,0.758668,-0.587637,-0.568812
765,350076571,-0.760610,-0.271106,-0.381189,0.450188,0.279500,-0.554954,-0.334993
766,350109905,-0.760438,-0.266349,-0.384937,0.450130,-0.524174,-1.413892,0.449880
767,350143239,-0.759744,-0.260573,-0.389535,0.450726,-0.757118,-1.350114,0.862224
768,350176573,-0.758436,-0.256036,-0.393359,0.452204,0.411555,-0.926512,1.358750
769,350209907,-0.756221,-0.253945,-0.394359,0.456205,0.583726,0.450699,-0.319165
770,350243241,-0.752638,-0.255042,-0.393426,0.462284,-0.042484,1.335615,-0.423239
771,350276575,-0.747758,-0.259201,-0.389531,0.471104,0.379317,2.238678,-1.765689
772,350309909,-0.743263,-0.261929,-0.389296,0.476866,-1.501340,0.018028,-0.086494
773,350343243,-0.738819,-0.263973,-0.391387,0.480917,1.708526,-0.644814,1.449012
774,350376577,-0.734442,-0.266363,-0.396266,0.482306,-0.759793,-1.158294,2.472878
775,350409911,-0.729205,-0.270343,-0.402869,0.482568,0.919967,0.720346,0.378842
776,350443245,-0.724927,-0.273506,-0.410135,0.481108,-0.775486,0.046620,-0.949304
777,350476579,-0.720946,-0.275067,-0.418511,0.478982,-0.259765,0.801633,-1.006957
778,350509913,-0.717448,-0.274873,-0.426325,0.477453,-0.744972,0.102142,-0.155844
779,350543247,-0.714565,-0.277516,-0.428072,0.478682,-0.480174,-0.798976,0.257961
780,350576581,-0.712036,-0.282284,-0.426614,0.480958,-0.221169,-1.131003,0.545109
781,350609915,-0.710551,-0.285116,-0.424820,0.483068,-0.141999,-0.472472,-0.156337
782,350643249,-0.709645,-0.287395,-0.425204,0.482711,-0.413826,-0.688989,0.244980
783,350676583,-0.708633,-0.289040,-0.425830,0.482663,-1.369663,-0.124971,-0.588130
784,350709917,-0.707808,-0.288192,-0.428411,0.482098,-0.499466,-0.495008,0.376717
785,350743251,-0.707486,-0.288975,-0.428580,0.481951,-0.486997,0.420454,-0.262630
786,350776585,-0.707673,-0.291227,-0.425587,0.482973,-0.132209,0.610222,-1.303717
787,350809919,-0.707965,-0.293490,-0.422879,0.483553,-0.423771,-0.032351,-0.405926
788,350843253,-0.708938,-0.295144,-0.419906,0.483710,-0.436616,-0.386124,-0.336573
789,350876587,-0.710272,-0.295933,-0.417299,0.483529,-0.233360,-0.749854,0.044801
790,350909921,-0.712714,-0.296970,-0.412997,0.482993,0.010046,-1.235134,0.292083
791,350943255,-0.715804,-0.298176,-0.407673,0.482202,-1.698423,-0.812112,0.162627
792,350976589,-0.718948,-0.298115,-0.402929,0.481549,-2.484317,-1.087272,0.441326
793,351009923,-0.722239,-0.298787,-0.395561,0.482316,0.651886,-1.324680,0.100607
794,351043257,-0.725813,-0.300924,-0.386463,0.482998,-0.846948,0.040330,0.329501
795,351076591,-0.729037,-0.304501,-0.376606,0.483687,-0.151687,-1.067676,0.922984
796,351109925,-0.731026,-0.308695,-0.365799,0.486313,1.615330,0.849251,-0.130442
797,351143259,-0.730744,-0.314190,-0.357208,0.489592,-0.193515,-0.249165,1.348817
798,351176593,-0.728273,-0.321302,-0.349646,0.494098,0.364639,0.999933,0.372830
799,351209927,-0.726239,-0.326485,-0.345774,0.496412,0.753370,-0.041858,-0.517136
800,351243261,-0.727073,-0.327975,-0.345774,0.494205,-0.647624,0.146457,0.020718
801,351276595,-0.727848,-0.330046,-0.345827,0.491641,-1.125867,0.931884,-0.112461
802,351309929,-0.728273,-0.330778,-0.343920,0.491857,-0.313336,-0.117913,-0.247951
803,351343263,-0.727489,-0.332671,-0.340953,0.493803,0.911174,0.724850,-0.271845
804,351376597,-0.726498,-0.332175,-0.341077,0.495508,0.640760,0.567154,-0.659661
805,351409931,-0.726290,-0.330103,-0.343284,0.495673,0.050841,-0.834385,-0.172791
806,351443265,-0.726664,-0.328684,-0.346333,0.493944,-0.993661,-0.925961,0.720531
807,351476599,-0.726583,-0.328760,-0.346841,0.493655,0.761779,0.128803,0.395008
808,351509933,-0.726341,-0.328081,-0.347696,0.493862,-0.496661,-0.511102,-0.357472
809,351543267,-0.723829,-0.331691,-0.342593,0.498681,1.120937,-0.631103,-0.022936
810,351576601,-0.718699,-0.338123,-0.334805,0.507001,-0.799251,-0.788949,-0.037045
811,351609935,-0.713693,-0.342289,-0.328283,0.515472,-0.290074,-0.516544,-0.128952
812,351643269,-0.710510,-0.343188,-0.324804,0.521441,1.235282,-0.547668,-0.030678
813,351676603,-0.707802,-0.341186,-0.324325,0.526709,-0.709216,-0.020020,-0.150497
814,351709937,-0.704359,-0.340728,-0.322947,0.532437,0.216861,-0.399882,-0.139912
815,351743271,-0.700718,-0.339608,-0.320678,0.539284,-0.703745,-0.287935,-0.025645
816,351776605,-0.696278,-0.340408,-0.318011,0.546067,-1.032416,-0.337032,0.129309
817,351809939,-0.691165,-0.340373,-0.316363,0.553491,-1.344630,0.140799,-0.017415
818,351843273,-0.685150,-0.341660,-0.314154,0.561378,-0.179035,-0.136375,0.202344
819,351876607,-0.677588,-0.343946,-0.311617,0.570501,-0.483159,0.628459,-0.144315
820,351909941,-0.668319,-0.349635,-0.308824,0.579425,1.216679,1.652621,-0.059894
821,351943275,-0.659122,-0.353917,-0.310387,0.586483,1.392543,0.450922,-0.236987
822,351976609,-0.651719,-0.357121,-0.314801,0.590447,-0.810736,0.479159,-0.253287
823,352009943,-0.644274,-0.361790,-0.316305,0.594955,-1.364006,1.454291,-0.070422
824,352043277,-0.636657,-0.368031,-0.314017,0.600512,0.374961,1.176247,-0.516772
825,352076611,-0.630088,-0.372730,-0.311500,0.605830,-0.045758,0.652533,-0.648137
826,352109945,-0.623773,-0.378463,-0.307643,0.610762,-1.416864,-0.344145,0.355878
827,352143279,-0.618521,-0.384266,-0.304330,0.614129,-1.309126,-0.175307,-0.259339
828,352176613,-0.615522,-0.388652,-0.302289,0.615389,-0.372308,-1.067444,-0.161153
829,352209947,-0.613421,-0.392749,-0.299458,0.616269,-1.514772,-0.611438,-0.076930
830,352243281,-0.610485,-0.397616,-0.293823,0.618771,-1.502007,-0.489721,0.760040
831,352276615,-0.607228,-0.402488,-0.286644,0.622185,0.359362,0.143564,-0.425456
832,352309949,-0.605719,-0.405293,-0.280902,0.624449,0.028044,-0.001927,-0.547030
833,352343283,-0.605195,-0.407302,-0.276341,0.625684,-1.063956,0.073481,-0.198043
834,352376617,-0.605112,-0.409526,-0.270049,0.627058,-0.515319,-0.441672,0.434255
835,352409951,-0.606066,-0.410661,-0.264067,0.627941,-2.554525,0.462584,0.985448
836,352443285,-0.606405,-0.413029,-0.255184,0.629732,-1.053669,-0.557344,1.476274
837,352476619,-0.606360,-0.416933,-0.241362,0.632645,0.336622,-0.751320,-0.229198
838,352509953,-0.606575,-0.420223,-0.228885,0.634895,0.887995,-0.437915,0.214993
839,352543287,-0.606858,-0.422976,-0.219693,0.636043,1.258173,0.847006,-1.018341
840,352576621,-0.607983,-0.423822,-0.215861,0.635717,0.211820,0.774558,-0.674998
841,352609955,-0.608548,-0.424529,-0.212855,0.635718,-2.006375,-1.162447,0.400511
842,352643289,-0.607580,-0.426948,-0.206932,0.636978,-0.667171,-1.353993,0.785885
843,352676623,-0.605362,-0.431035,-0.201582,0.638053,-1.639977,-0.110905,1.104815
844,352709957,-0.603140,-0.435941,-0.196505,0.638407,0.415934,-0.278348,-0.316980
845,352743291,-0.601751,-0.439574,-0.194837,0.637738,-1.563517,0.124129,-0.130398
846,352776625,-0.600932,-0.443242,-0.193976,0.636232,0.389396,0.532179,0.000564
847,352809959,-0.602278,-0.442720,-0.194021,0.635309,-0.502338,0.106726,-0.923719
848,352843293,-0.602323,-0.441163,-0.194424,0.636224,0.172989,1.043734,0.861029
849,352876627,-0.599903,-0.438179,-0.193231,0.640920,1.156417,-0.169625,0.470547
850,352909961,-0.596238,-0.435791,-0.192543,0.646154,-0.789440,0.035581,-0.358395
851,352943295,-0.591502,-0.432582,-0.193299,0.652406,-0.193175,-0.247671,-0.322586
852,352976629,-0.588310,-0.431289,-0.195159,0.655587,0.197144,-0.505860,0.080159
853,353009963,-0.585834,-0.428926,-0.198098,0.658468,-1.649810,-0.191485,0.638028
854,353043297,-0.583682,-0.428147,-0.199730,0.660389,0.021938,0.182413,0.040605
855,353076631,-0.581718,-0.426739,-0.202017,0.662335,-0.432736,0.692569,0.123307
856,353109965,-0.578662,-0.424792,-0.202990,0.665957,-0.097350,-0.465843,-0.653757
857,353143299,-0.574125,-0.421296,-0.203555,0.671905,-0.717911,-0.708838,-0.371915
858,353176633,-0.568680,-0.417757,-0.202756,0.678949,-0.224362,-0.865718,0.101624
859,353209967,-0.562760,-0.414210,-0.203010,0.685944,-0.558913,-0.477450,0.669058
860,353243301,-0.556700,-0.409890,-0.203244,0.693375,-0.941217,-0.447031,-0.045825
861,353276635,-0.549109,-0.409070,-0.201727,0.700320,-0.041362,-0.153409,0.615092
862,353309969,-0.540643,-0.408783,-0.198931,0.707834,-0.104578,-0.363348,0.193711
863,353343303,-0.530871,-0.409005,-0.195945,0.715889,0.846803,0.589104,-0.024075
864,353376637,-0.521606,-0.408558,-0.195425,0.723061,1.132276,0.716474,-0.265075
865,353409971,-0.512110,-0.408362,-0.196655,0.729597,-0.248113,0.844489,-0.606188
866,353443305,-0.500421,-0.410923,-0.195248,0.736614,-0.532109,-0.031113,0.681726
867,353476639,-0.488637,-0.414720,-0.195374,0.742342,0.319680,-0.069787,0.454667
868,353509973,-0.478135,-0.419387,-0.199949,0.745334,0.257367,-0.493373,0.116714
869,353543307,-0.469197,-0.422206,-0.208705,0.747020,-1.289552,0.346554,-0.135933
870,353576641,-0.461923,-0.425492,-0.216601,0.747441,-0.399383,0.889316,0.157573
871,353609975,-0.456673,-0.427864,-0.222910,0.747459,-0.318146,1.369838,-0.776816
872,353643309,-0.452717,-0.430308,-0.228754,0.746696,0.036100,1.669963,-1.211154
873,353676643,-0.449714,-0.432591,-0.234220,0.745495,0.584824,0.503989,-1.232491
874,353709977,-0.447589,-0.434999,-0.240864,0.743253,0.057684,-0.190933,-0.118945
875,353743311,-0.446391,-0.435876,-0.248562,0.740922,-1.032232,-0.066155,-0.131141
876,353776645,-0.445806,-0.435884,-0.255460,0.738920,-1.730505,-0.550460,0.745493
877,353809979,-0.446344,-0.435923,-0.259760,0.737071,-1.267464,-0.006460,0.197725
878,353843313,-0.446636,-0.435823,-0.259684,0.736980,0.081181,-1.010858,-0.060094
879,353876647,-0.447475,-0.436304,-0.257657,0.736898,-0.484963,-0.049958,-0.493636
880,353909981,-0.446777,-0.436014,-0.254249,0.738674,-0.651248,0.273345,-0.060996
881,353943315,-0.446608,-0.435552,-0.251562,0.739968,-0.644435,0.388342,-0.202086
882,353976649,-0.446687,-0.434708,-0.247279,0.741858,-1.161447,0.264096,0.446267
883,354009983,-0.447794,-0.433844,-0.242379,0.743312,-0.746621,0.076472,0.157894
884,354043317,-0.449308,-0.432546,-0.238545,0.744395,-1.512130,0.214864,-0.018041
885,354076651,-0.451720,-0.430161,-0.234784,0.745512,-1.007916,-0.358775,-0.725855
886,354109985,-0.455378,-0.427834,-0.229309,0.746329,-0.757451,-1.134580,0.159694
887,354143319,-0.459597,-0.425833,-0.222774,0.746866,-0.812243,-0.213538,0.553120
888,354176653,-0.464424,-0.424165,-0.215326,0.747014,1.563087,-1.311744,-0.679212
889,354209987,-0.469220,-0.420823,-0.210692,0.747228,-1.301503,0.512918,-1.117354
890,354243321,-0.475228,-0.418250,-0.206735,0.745980,-0.070228,-0.026452,-0.607075
891,354276655,-0.481606,-0.416291,-0.203333,0.743918,1.359101,-0.901577,0.344938
892,354309989,-0.487252,-0.415651,-0.202447,0.740834,0.085736,0.060692,0.281527
893,354343323,-0.492908,-0.414533,-0.205192,0.736954,-0.041043,0.140939,0.530068
894,354376657,-0.498703,-0.414712,-0.206798,0.732492,-0.605113,0.334992,0.031819
895,354409991,-0.503000,-0.417396,-0.202794,0.729141,-0.571104,0.503923,-0.508556
896,354443325,-0.502083,-0.425511,-0.186884,0.729334,-1.190332,0.223363,0.426804
897,354476659,-0.498413,-0.433554,-0.170561,0.731112,1.286962,-0.327025,-0.544008
898,354509993,-0.496248,-0.437390,-0.162626,0.732107,1.602511,-0.681696,-0.820133
899,354543327,-0.495121,-0.439164,-0.161555,0.732046,1.866756,-0.413909,-1.083672
900,354576661,-0.496910,-0.438585,-0.165189,0.730368,-0.034281,-0.598703,-1.148153
901,354609995,-0.500048,-0.437027,-0.171264,0.727756,-1.702758,0.580111,0.255222
902,354643329,-0.501264,-0.435885,-0.176023,0.726467,-1.824262,0.573811,0.483830
903,354676663,-0.502065,-0.434003,-0.178088,0.726538,-0.987572,-0.828039,0.192698
904,354709997,-0.502057,-0.431479,-0.180695,0.727402,-0.448019,-0.337022,-0.065614
905,354743331,-0.503935,-0.423593,-0.191625,0.727942,1.484664,-1.072259,-1.207974
906,354776665,-0.505300,-0.416284,-0.204109,0.727819,-0.143533,-1.614684,0.031743
907,354809999,-0.505893,-0.407389,-0.216745,0.728786,-0.838898,-1.085545,0.629552
908,354843333,-0.504616,-0.402256,-0.222708,0.730722,-0.001728,-0.359858,0.029100
909,354876667,-0.502170,-0.396481,-0.227462,0.734091,-0.945685,-0.349816,-0.149372
910,354910001,-0.497922,-0.393145,-0.230771,0.737737,0.107495,0.150614,0.132274
911,354943335,-0.492029,-0.390760,-0.233241,0.742168,-0.101684,0.167329,-0.082978
912,354976669,-0.485596,-0.389032,-0.237253,0.746031,-0.172085,0.257228,0.087743
913,355010003,-0.479247,-0.388559,-0.239947,0.749513,0.374063,-0.375701,-0.314635
914,355043337,-0.474105,-0.390398,-0.241822,0.751224,0.259095,0.140154,-0.147141
915,355076671,-0.466910,-0.395275,-0.242077,0.753095,1.397328,0.231084,-0.463898
916,355110005,-0.459102,-0.401956,-0.244226,0.753665,0.469131,-0.514076,0.352497
917,355143339,-0.452252,-0.410263,-0.247145,0.752378,0.054225,-0.327847,0.214007
918,355176673,-0.446037,-0.418567,-0.249521,0.750729,-0.844390,0.631878,0.486102
919,355210007,-0.440318,-0.426584,-0.250746,0.749181,-0.308955,1.010660,-0.404716
920,355243341,-0.433554,-0.434154,-0.247798,0.749759,-0.388580,0.484846,-0.456821
921,355276675,-0.424366,-0.441298,-0.239999,0.753373,-0.104424,0.771586,-0.977771
922,355310009,-0.415857,-0.447893,-0.232222,0.756656,1.017152,-0.255271,-0.604580
923,355343343,-0.410387,-0.452246,-0.228983,0.758039,1.277405,0.326059,-0.905394
924,355376677,-0.409456,-0.454000,-0.233176,0.756213,-0.645510,0.912139,-0.172149
925,355410011,-0.410498,-0.455921,-0.238970,0.752676,-0.613885,0.299541,0.053406
926,355443345,-0.412829,-0.456345,-0.242834,0.749902,-0.634266,-0.001092,-0.269498
927,355476679,-0.414530,-0.457448,-0.245558,0.747401,-0.473610,-0.231071,0.340569
928,355510013,-0.415223,-0.459352,-0.245746,0.745785,-0.058547,0.188463,-0.260682
929,355543347,-0.414838,-0.459267,-0.245108,0.746261,-0.607218,0.488863,-0.650513
930,355576681,-0.415680,-0.458493,-0.244814,0.746365,-0.837520,-0.540111,0.351661
931,355610015,-0.416416,-0.456556,-0.242960,0.747747,-0.464316,0.092206,-0.170582
932,355643349,-0.417354,-0.454091,-0.240965,0.749369,-0.977975,-0.464141,0.286088
933,355676683,-0.418500,-0.451180,-0.238593,0.751244,-0.806188,0.060529,0.035508
934,355710017,-0.419517,-0.447309,-0.236253,0.753727,-1.822989,0.220022,-0.015064
935,355743351,-0.422483,-0.443392,-0.234624,0.754893,0.228814,-0.674235,0.907353
936,355776685,-0.427002,-0.439132,-0.230804,0.756018,-0.891410,-0.853657,0.333791
937,355810019,-0.431122,-0.435069,-0.226974,0.757187,-1.736195,0.379655,0.565545
938,355843353,-0.434069,-0.431433,-0.220096,0.759610,-0.329574,-0.523218,0.935102
939,355876687,-0.437730,-0.429464,-0.211075,0.761184,1.297522,-0.233943,0.192183
940,355910021,-0.440486,-0.428365,-0.202924,0.762429,-1.874211,0.462682,0.190500
941,355943355,-0.441399,-0.429481,-0.194717,0.763412,-0.655957,-0.246718,1.182266
942,355976689,-0.442232,-0.432624,-0.185218,0.763520,0.086721,-0.865135,0.449769
943,356010023,-0.445716,-0.435197,-0.181340,0.760958,1.036463,0.089579,-0.406929
944,356043357,-0.452107,-0.435416,-0.183470,0.756539,1.450086,0.646988,-1.667369
945,356076691,-0.458773,-0.433428,-0.188509,0.752418,0.608113,0.121704,-0.484537
946,356110025,-0.462940,-0.430852,-0.190690,0.750793,1.064661,-0.223595,-0.128670
947,356143359,-0.463899,-0.427496,-0.191949,0.751799,-0.173761,0.205543,-0.294230
948,356176693,-0.462416,-0.425087,-0.191922,0.754081,-0.218372,-0.150027,0.207415
949,356210027,-0.461647,-0.422595,-0.192900,0.755702,0.572235,-0.453584,0.186248
950,356243361,-0.463900,-0.420150,-0.194528,0.755268,-0.712326,-0.057827,-0.124191
951,356276695,-0.468752,-0.416576,-0.199452,0.752965,-0.966866,0.601714,-0.450810
952,356310029,-0.473347,-0.413691,-0.206420,0.749796,0.432048,-0.153752,-0.401285
953,356343363,-0.476615,-0.410502,-0.213121,0.747601,-0.435543,-0.623899,-0.774571
954,356376697,-0.478729,-0.406713,-0.219133,0.746582,-0.603016,-1.514119,0.070919
955,356410031,-0.479597,-0.404017,-0.223871,0.746083,-0.104376,-0.684566,-0.467109
956,356443365,-0.477928,-0.400840,-0.227323,0.747821,-1.090605,-0.547246,-0.047297
957,356476699,-0.475430,-0.399366,-0.229481,0.749541,-0.751148,-0.292893,0.157684
958,356510033,-0.472801,-0.397169,-0.231051,0.751886,-0.941388,-0.066676,0.473055
959,356543367,-0.470979,-0.395757,-0.234549,0.752690,-0.171612,-0.115616,-0.312367
960,356576701,-0.468233,-0.394370,-0.238115,0.754011,0.533775,-0.764214,-0.361907
961,356610035,-0.464940,-0.394023,-0.240746,0.755393,-0.712384,-0.498586,0.313095
962,356643369,-0.461185,-0.394943,-0.242431,0.756675,-0.223542,-0.034708,0.041960
963,356676703,-0.457450,-0.396218,-0.242866,0.758135,-0.868756,0.312750,0.450439
964,356710037,-0.453493,-0.399476,-0.242725,0.758847,0.537512,1.135253,-0.543424
965,356743371,-0.448295,-0.404813,-0.243736,0.758782,0.842085,-0.088466,-0.048436
966,356776705,-0.442199,-0.411189,-0.247488,0.757716,1.223258,-1.356140,0.139815
967,356810039,-0.437233,-0.417261,-0.255695,0.754547,0.023269,-0.678564,0.369486
968,356843373,-0.434432,-0.422219,-0.266317,0.749718,0.001945,0.794242,-0.073481
969,356876707,-0.431831,-0.426656,-0.274149,0.745875,0.325696,1.219764,-0.137477
970,356910041,-0.428756,-0.431430,-0.276397,0.744071,0.499424,0.756050,-0.469355
971,356943375,-0.424338,-0.436328,-0.272828,0.745064,0.571445,0.901743,-1.097613
972,356976709,-0.418595,-0.442845,-0.266761,0.746663,-0.042639,0.089457,0.167017
973,357010043,-0.414245,-0.447967,-0.262620,0.747501,-0.010762,0.319347,0.462696
974,357043377,-0.412889,-0.451707,-0.262379,0.746084,-0.553828,0.450914,0.019733
975,357076711,-0.414493,-0.452510,-0.267447,0.742902,-0.177293,0.007493,0.538310
976,357110045,-0.419107,-0.452026,-0.273608,0.738350,-0.377074,-0.460696,-0.048662
977,357143379,-0.425178,-0.450436,-0.278759,0.733911,-0.446610,0.044255,-0.344044
978,357176713,-0.430063,-0.449165,-0.282446,0.730426,-0.203035,-0.141755,-0.422841
979,357210047,-0.433267,-0.449126,-0.280731,0.729216,-1.231580,0.402584,-0.131937
980,357243381,-0.435202,-0.449295,-0.274738,0.730242,-1.078615,0.097025,-0.630143
981,357276715,-0.435676,-0.451636,-0.260720,0.733646,-0.909179,-0.886757,0.415010
982,357310049,-0.437691,-0.452408,-0.245831,0.737104,-2.044046,-0.881684,0.834703
983,357343383,-0.441569,-0.450586,-0.233029,0.740059,-1.040088,-0.403053,0.226233
984,357376717,-0.446024,-0.448679,-0.221703,0.742023,0.217080,-0.259361,-0.238089
985,357410051,-0.451049,-0.445498,-0.213798,0.743222,0.575000,0.572016,-0.695405
986,357443385,-0.455066,-0.441716,-0.208482,0.744539,-0.148674,0.224845,-0.212943
987,357476719,-0.458113,-0.439011,-0.199639,0.746690,0.025961,-0.384473,-0.543632
988,357510053,-0.461269,-0.436681,-0.190047,0.748614,-1.093525,-0.126305,-0.592272
989,357543387,-0.463327,-0.437093,-0.180290,0.749516,-0.371651,0.294694,0.315373
990,357576721,-0.464423,-0.439030,-0.172977,0.749429,-0.739221,-0.345995,1.819997
991,357610055,-0.467157,-0.442900,-0.168124,0.746551,1.596555,-0.112697,-0.504295
992,357643389,-0.472614,-0.443720,-0.169538,0.742298,-0.526944,1.322568,-0.723163
993,357676723,-0.478500,-0.443061,-0.171281,0.738510,0.410701,0.096433,-0.545487
994,357710057,-0.481564,-0.442382,-0.170400,0.737129,0.112851,0.129988,0.155531
995,357743391,-0.480410,-0.441436,-0.165477,0.739566,0.602678,-0.491249,0.331800
996,357776725,-0.475827,-0.441023,-0.158976,0.744187,0.440360,-0.349112,0.141308
997,357810059,-0.470365,-0.440564,-0.154593,0.748840,0.721209,-0.360193,0.602943
998,357843393,-0.467520,-0.439111,-0.154677,0.751453,0.281258,-0.161318,0.425175
999,357876727,-0.467299,-0.438130,-0.157726,0.751529,-0.186014,0.053075,0.744731
1000,357910061,-0.468278,-0.437059,-0.160523,0.750952,0.744103,-0.478509,0.014389
1001,357943395,-0.470074,-0.435962,-0.163462,0.749832,0.893445,-0.244673,-0.542992
1002,357976729,-0.471435,-0.435133,-0.166677,0.748751,0.052863,0.025971,-0.363418
1003,358010063,-0.472169,-0.434107,-0.170093,0.748115,-0.340573,0.189052,-0.362052
1004,358043397,-0.471777,-0.432797,-0.173456,0.748350,-0.828351,-0.739025,0.109781
1005,358076731,-0.471114,-0.431396,-0.176484,0.748868,-0.223660,-0.752113,0.242039
1006,358110065,-0.469721,-0.429159,-0.180274,0.750125,-0.825311,-1.022825,0.375709
1007,358143399,-0.467820,-0.426312,-0.186088,0.751514,-0.987764,0.518483,-0.134697
1008,358176733,-0.464911,-0.424131,-0.190823,0.753364,-0.517550,-0.619388,-0.259879
1009,358210067,-0.461403,-0.422139,-0.194765,0.755627,0.059707,-0.665657,0.073141
1010,358243401,-0.456655,-0.420737,-0.200356,0.757829,-0.633630,1.207396,0.070285
1011,358276735,-0.449323,-0.420973,-0.201038,0.761889,0.991360,0.481193,-2.099060
1012,358310069,-0.441954,-0.422245,-0.206707,0.763976,0.541031,0.067115,-0.122858
1013,358343403,-0.433381,-0.424984,-0.211258,0.766120,-0.700605,-0.795795,1.719577
1014,358376737,-0.424436,-0.430894,-0.216719,0.766302,0.248177,-0.748138,1.356278
1015,358410071,-0.418406,-0.436539,-0.224289,0.764242,0.202029,-0.839554,0.069766
1016,358443405,-0.416886,-0.441821,-0.234807,0.758859,0.486524,0.415380,-0.214147
1017,358476739,-0.417090,-0.446326,-0.243337,0.753403,1.050939,0.774185,-0.851199
1018,358510073,-0.416893,-0.449492,-0.248149,0.750053,0.004823,1.249938,-0.845771
1019,358543407,-0.416471,-0.452131,-0.249082,0.748390,0.392485,1.185741,-0.982409
1020,358576741,-0.416181,-0.452988,-0.251066,0.747370,-0.073516,0.707154,-1.038640
1021,358610075,-0.416626,-0.453373,-0.253220,0.746161,0.122797,-0.528544,0.266404
1022,358643409,-0.417823,-0.452799,-0.254867,0.745279,-0.803923,-0.520186,0.278265
1023,358676743,-0.420379,-0.452076,-0.257244,0.743462,-1.227824,0.124815,0.014054
1024,358710077,-0.422623,-0.452320,-0.257152,0.742072,-0.799782,-0.712304,-0.041204
1025,358743411,-0.425337,-0.452165,-0.256058,0.740993,-0.674606,0.448629,-0.238511
1026,358776745,-0.429480,-0.451369,-0.255575,0.739253,-0.835630,-0.377261,0.015277
1027,358810079,-0.434552,-0.449446,-0.255913,0.737341,-1.294995,0.870417,-0.268202
1028,358843413,-0.438093,-0.448417,-0.253480,0.736712,-0.925658,0.079085,-0.384966
1029,358876747,-0.443333,-0.447196,-0.250698,0.735270,-0.547605,-0.654145,-0.169985
1030,358910081,-0.449687,-0.444411,-0.249491,0.733509,-1.282362,-0.780086,0.553868
1031,358943415,-0.456819,-0.440051,-0.249134,0.731850,-0.612582,-0.093289,0.303777
1032,358976749,-0.463979,-0.435356,-0.248279,0.730443,0.582772,-1.099428,0.726828
1033,359010083,-0.470529,-0.430568,-0.243105,0.730831,-0.700101,-0.011594,0.059154
1034,359043417,-0.476773,-0.426816,-0.237282,0.730900,0.356552,-0.709718,0.434368
1035,359076751,-0.481625,-0.423831,-0.231870,0.731192,0.954558,0.138725,-0.308953
1036,359110085,-0.486876,-0.422120,-0.229087,0.729579,-0.185631,0.008680,-0.326813
1037,359143419,-0.493648,-0.420020,-0.228967,0.726271,0.617136,-0.743995,-0.174984
1038,359176753,-0.501205,-0.417450,-0.233592,0.721086,-0.534431,1.307643,-0.846809
1039,359210087,-0.507299,-0.413847,-0.238162,0.717396,0.012045,-0.316491,-0.432708
1040,359243421,-0.512279,-0.410064,-0.242014,0.714736,-0.069352,0.221031,-0.575124
1041,359276755,-0.516443,-0.405879,-0.243856,0.713501,0.291467,-0.704412,-0.107334
1042,359310089,-0.519609,-0.402133,-0.245532,0.712749,-0.190220,-0.502635,0.206552
1043,359343423,-0.521616,-0.398602,-0.248440,0.712258,0.142129,0.179124,-0.014732
1044,359376757,-0.522682,-0.395448,-0.252081,0.711955,0.874928,-0.440842,-0.379572
1045,359410091,-0.524881,-0.392273,-0.256223,0.710614,-0.632805,0.474760,-0.126329
1046,359443425,-0.526608,-0.389818,-0.258612,0.709822,-0.275968,-0.647875,0.392140
1047,359476759,-0.527649,-0.387293,-0.263548,0.708614,0.620251,-0.120183,-0.639090
1048,359510093,-0.528255,-0.384482,-0.268185,0.707953,0.105974,-1.735411,0.585223
1049,359543427,-0.528326,-0.381053,-0.273242,0.707820,0.366428,-0.270124,-0.489854
1050,359576761,-0.528091,-0.378000,-0.279523,0.707180,0.357119,0.708815,-1.075468
1051,359610095,-0.526874,-0.374383,-0.288918,0.706236,-0.513637,2.876488,-0.595347
1052,359643429,-0.529870,-0.363435,-0.314621,0.698690,-6.967285,9.784398,-0.231493
1053,359676763,-0.527087,-0.366707,-0.338015,0.688078,-3.733735,3.499324,2.548789
1054,359710097,-0.521947,-0.376263,-0.353898,0.678789,3.250531,-2.128535,3.228064
1055,359743431,-0.510446,-0.383896,-0.351372,0.684548,-2.750625,-2.471318,1.650987
1056,359776765,-0.502529,-0.386893,-0.359866,0.684306,-1.804572,-1.286904,0.277623
1057,359810099,-0.498187,-0.385308,-0.376181,0.679585,1.349088,0.652556,-1.433351
1058,359843433,-0.496962,-0.386593,-0.393067,0.670130,3.210009,2.092022,0.096598
1059,359876767,-0.494441,-0.391997,-0.401828,0.663627,3.094106,-0.194264,-0.009964
1060,359910101,-0.491796,-0.399872,-0.407635,0.657323,0.750620,-0.366646,-0.691204
1061,359943435,-0.490048,-0.405161,-0.415333,0.650535,2.280741,-1.169556,-0.162709
1062,359976769,-0.488547,-0.409630,-0.419954,0.645883,1.393074,0.051900,-0.018736
1063,360010103,-0.486008,-0.415877,-0.418992,0.644430,0.690588,1.067029,0.110678
1064,360043437,-0.482698,-0.423173,-0.414596,0.645010,-0.192805,1.359368,-0.657625
1065,360076771,-0.479755,-0.430094,-0.410709,0.645115,-0.102883,0.467633,-1.103233
1066,360110105,-0.478854,-0.435550,-0.409159,0.643106,-0.645441,-0.551294,0.006000
1067,360143439,-0.480244,-0.439286,-0.407573,0.640529,-0.784812,-0.365662,0.004926
1068,360176773,-0.483111,-0.442792,-0.406990,0.636317,-0.711282,-0.856885,0.414531
1069,360210107,-0.485773,-0.446038,-0.407775,0.631502,-1.535397,0.131919,0.642851
1070,360243441,-0.486751,-0.449574,-0.408037,0.628063,-2.370280,-0.797628,0.325940
1071,360276775,-0.486812,-0.450499,-0.409066,0.626682,-3.218596,-0.509189,-0.103379
1072,360310109,-0.485128,-0.448447,-0.411454,0.627896,-2.756389,-1.124458,-0.337547
1073,360343443,-0.481062,-0.443442,-0.414894,0.632299,-2.720568,-0.660751,0.204925
1074,360376777,-0.475117,-0.436536,-0.413893,0.642179,0.646630,-3.950130,-0.584252
1075,360410111,-0.473966,-0.424989,-0.413672,0.650858,-1.615452,-2.843362,-0.182505
1076,360443445,-0.476628,-0.412630,-0.413773,0.656776,-0.307105,-2.335399,0.271998
1077,360476779,-0.481619,-0.402593,-0.409693,0.661901,1.448463,-1.048764,-0.044560
1078,360510113,-0.487538,-0.396437,-0.397417,0.668734,0.889151,-0.607035,-0.292185
1079,360543447,-0.494020,-0.392969,-0.380016,0.676098,1.226753,0.419293,0.458576
1080,360576781,-0.495063,-0.390936,-0.356620,0.689133,-1.971741,1.634369,0.198647
1081,360610115,-0.497648,-0.391262,-0.335581,0.697601,0.171883,1.271632,-0.081823
1082,360643449,-0.499497,-0.390851,-0.315967,0.705623,-2.223708,0.922368,0.852933
1083,360676783,-0.501223,-0.389803,-0.300597,0.711668,0.701311,0.560383,0.550713
1084,360710117,-0.504113,-0.390390,-0.285944,0.715333,0.646933,1.822739,-0.285538
1085,360743451,-0.505921,-0.390889,-0.273232,0.718745,-0.793428,1.687434,-0.426501
1086,360776785,-0.504623,-0.393151,-0.256536,0.724554,0.464203,1.532218,-0.671034
1087,360810119,-0.505194,-0.395612,-0.241326,0.728033,1.690764,0.526097,-0.341642
1088,360843453,-0.506515,-0.397582,-0.229346,0.729912,-0.475430,0.753458,0.123891
1089,360876787,-0.507621,-0.399553,-0.219060,0.731226,0.877912,0.468256,-0.584061
1090,360910121,-0.509835,-0.399799,-0.213865,0.731090,-0.142575,-0.251179,0.376738
1091,360943455,-0.511983,-0.399479,-0.210052,0.730869,0.106470,0.047713,0.149922
1092,360976789,-0.512576,-0.399693,-0.204298,0.731966,0.591784,-0.856812,0.195306
1093,361010123,-0.512904,-0.400122,-0.200634,0.732516,-0.250082,-0.421760,-0.322349
1094,361043457,-0.512310,-0.400249,-0.198357,0.733481,-1.434357,-0.534126,0.131096
1095,361076791,-0.511597,-0.399477,-0.198707,0.734304,-1.376167,0.088338,0.019468
1096,361110125,-0.510397,-0.398400,-0.198318,0.735828,-0.597771,-0.565968,-0.186801
1097,361143459,-0.508500,-0.398343,-0.197200,0.737471,-1.018354,-0.109644,-0.188104
1098,361176793,-0.505823,-0.397720,-0.195643,0.740058,-0.014863,0.006007,-0.290003
1099,361210127,-0.502707,-0.397192,-0.195939,0.742383,-0.860822,0.360581,-0.414348
1100,361243461,-0.498227,-0.396814,-0.196039,0.745572,-0.826015,-0.315225,-0.120871
1101,361276795,-0.493760,-0.396594,-0.196769,0.748463,-0.431497,-0.350833,0.045842
1102,361310129,-0.488394,-0.396277,-0.200454,0.751169,3.499555,0.129420,0.529442
1103,361343463,-0.484185,-0.395840,-0.204317,0.753081,1.964057,-1.447376,0.931795
1104,361376797,-0.476654,-0.394519,-0.211664,0.756542,-7.542998,3.162254,1.950333
1105,361410131,-0.468697,-0.395877,-0.217330,0.759192,6.737188,-1.865513,1.583857
1106,361443465,-0.463592,-0.402495,-0.218940,0.758384,6.169096,-0.025097,-0.585438
1107,361476799,-0.459851,-0.412565,-0.217830,0.755565,2.501602,-1.441795,-1.241185
1108,361510133,-0.457992,-0.424337,-0.218990,0.749817,-1.251114,-1.075884,0.116481
1109,361543467,-0.461071,-0.432168,-0.223114,0.742203,-2.614313,-0.457347,-1.147326
1110,361576801,-0.467581,-0.431127,-0.233200,0.735606,-3.786327,1.657980,-0.470838
1111,361610135,-0.472805,-0.429219,-0.238582,0.731646,-1.753761,0.051115,0.480708
1112,361643469,-0.467806,-0.432606,-0.229420,0.735783,-2.251400,-0.353210,0.240097
1113,361676803,-0.459167,-0.434490,-0.218793,0.743312,-0.962972,-1.887450,-0.038048
1114,361710137,-0.451014,-0.434429,-0.209595,0.750951,-0.385118,-1.728090,0.306052
1115,361743471,-0.443774,-0.434797,-0.202570,0.756956,-1.267086,0.967385,-0.317540
1116,361776805,-0.438393,-0.435164,-0.193475,0.762241,-0.033680,-0.896123,-0.028155
1117,361810139,-0.436109,-0.434321,-0.186136,0.765852,0.162569,0.412673,-0.181125
1118,361843473,-0.434484,-0.433455,-0.178857,0.768993,0.119802,0.067697,-0.136739
1119,361876807,-0.432444,-0.432875,-0.170119,0.772445,-0.475293,0.116987,0.887261
1120,361910141,-0.430811,-0.431999,-0.159705,0.776063,-0.958520,0.622840,0.328205
1121,361943475,-0.429870,-0.430658,-0.147938,0.779654,-0.876094,0.766765,-0.536567
1122,361976809,-0.430262,-0.428344,-0.140442,0.782095,-1.072039,1.588342,-0.286149
1123,362010143,-0.430969,-0.425349,-0.135219,0.784258,-1.385399,1.018203,-0.705400
1124,362043477,-0.432134,-0.421588,-0.130691,0.786412,-1.413880,0.037149,0.163576
1125,362076811,-0.433901,-0.416751,-0.127574,0.788527,-1.095078,0.407066,-0.030499
1126,362110145,-0.437388,-0.412079,-0.125961,0.789314,-0.062791,0.944799,0.210952
1127,362143479,-0.441119,-0.409263,-0.123800,0.789045,-1.578326,0.241211,-0.011336
1128,362176813,-0.444138,-0.408116,-0.119336,0.788633,-0.409894,-0.975253,0.676120
1129,362210147,-0.447950,-0.409517,-0.114637,0.786445,0.016154,0.078909,-0.013621
1130,362243481,-0.450451,-0.412721,-0.109649,0.784049,-1.507544,-0.390292,0.689754
1131,362276815,-0.449895,-0.416679,-0.103303,0.783136,-0.101676,-0.271406,-0.258385
1132,362310149,-0.449811,-0.419685,-0.100313,0.781967,0.261228,1.202276,-1.868586
1133,362343483,-0.450570,-0.419877,-0.100677,0.781380,0.814586,0.964354,-1.417934
1134,362376817,-0.450295,-0.418458,-0.097798,0.782665,-1.109375,0.776756,-0.435609
1135,362410151,-0.446745,-0.417235,-0.093073,0.785921,-0.940568,-0.531620,1.435781
1136,362443485,-0.440730,-0.417676,-0.087498,0.789714,-0.398858,0.155673,0.855406
1137,362476819,-0.434593,-0.417655,-0.086194,0.793262,0.275709,2.753660,-2.096297
1138,362510153,-0.429451,-0.420491,-0.084933,0.794699,2.798470,-0.648474,0.069777
1139,362543487,-0.427017,-0.422428,-0.087343,0.794722,0.558400,0.771077,-0.691749
1140,362576821,-0.426598,-0.423747,-0.090449,0.793897,0.280776,-0.815694,-0.082585
1141,362610155,-0.426317,-0.424632,-0.090955,0.793517,0.555902,-1.571750,0.975996
1142,362643489,-0.425176,-0.423359,-0.089665,0.794955,-1.205575,-0.375792,0.100800
1143,362676823,-0.420250,-0.420494,-0.086950,0.799384,-0.984501,2.275022,-0.867834
1144,362710157,-0.413291,-0.416032,-0.084677,0.805567,-0.725173,-0.901251,0.121103
1145,362743491,-0.404981,-0.412010,-0.084132,0.811887,-1.607903,-0.241663,1.317879
1146,362776825,-0.396424,-0.409219,-0.083598,0.817557,-1.427925,-0.617241,1.303066
1147,362810159,-0.389097,-0.406372,-0.086092,0.822225,0.629602,-0.231316,-0.876013
1148,362843493,-0.383066,-0.402188,-0.092763,0.826378,0.221100,-0.294902,-0.553292
1149,362876827,-0.376253,-0.397853,-0.098593,0.830919,-0.386478,-0.577780,0.031174
1150,362910161,-0.368769,-0.394112,-0.103232,0.835481,0.248913,-1.235674,0.759603
1151,362943495,-0.362432,-0.390103,-0.108000,0.839523,0.106738,-0.456498,0.342841
1152,362976829,-0.356835,-0.387469,-0.114523,0.842272,-0.253641,-0.212474,0.165584
1153,363010163,-0.350148,-0.388345,-0.118304,0.844150,0.262945,-0.793231,0.574336
1154,363043497,-0.342302,-0.393314,-0.118451,0.845046,0.714129,-0.349488,0.424775
1155,363076831,-0.334250,-0.401067,-0.116408,0.844910,0.229805,-0.784241,0.477051
1156,363110165,-0.328645,-0.408512,-0.115901,0.843610,1.170843,-1.578985,-1.088261
1157,363143499,-0.324684,-0.414252,-0.114748,0.842502,0.508532,-0.288682,-1.291737
1158,363176833,-0.319772,-0.418705,-0.112562,0.842474,-0.678783,0.939260,-0.435730
1159,363210167,-0.312947,-0.421094,-0.108944,0.844320,-0.698830,0.396718,0.388544
1160,363243501,-0.305621,-0.423110,-0.107595,0.846166,-0.582087,0.784267,0.728347
1161,363276835,-0.297697,-0.425509,-0.104187,0.848213,-0.136340,0.245163,0.448038
1162,363310169,-0.290335,-0.428578,-0.098859,0.849855,0.129737,0.880001,0.187238
1163,363343503,-0.285754,-0.430591,-0.096075,0.850709,0.538744,0.461955,-0.525280
1164,363376837,-0.283129,-0.432446,-0.095854,0.850671,0.504680,0.580930,-0.907436
1165,363410171,-0.280722,-0.433234,-0.094931,0.851171,0.353498,0.258004,-0.570380
1166,363443505,-0.278399,-0.433035,-0.092862,0.852263,-0.001716,-0.178606,0.039568
1167,363476839,-0.276985,-0.431542,-0.090172,0.853768,-0.500299,0.108132,0.005722
1168,363510173,-0.276938,-0.429865,-0.087765,0.854879,-0.683193,0.154474,0.267056
1169,363543507,-0.277484,-0.428423,-0.084765,0.855729,-1.029357,0.437184,0.284856
1170,363576841,-0.278349,-0.427666,-0.081494,0.856144,-0.361783,0.009113,-0.140193
1171,363610175,-0.280246,-0.426326,-0.079080,0.856420,-1.752073,0.563445,0.111416
1172,363643509,-0.283758,-0.423671,-0.078063,0.856674,-0.234875,0.825015,-0.458805
1173,363676843,-0.287156,-0.420408,-0.075829,0.857350,-0.509978,0.177121,0.067328
1174,363710177,-0.289981,-0.416590,-0.072569,0.858544,-0.588824,0.271402,-0.018006
1175,363743511,-0.293034,-0.412244,-0.069760,0.859837,-0.499655,0.401380,-0.093005
1176,363776845,-0.297118,-0.407691,-0.068569,0.860702,-0.147471,-0.004256,0.327409
1177,363810179,-0.301385,-0.403631,-0.065713,0.861354,0.284336,0.038443,0.263545
1178,363843513,-0.306030,-0.400978,-0.062319,0.861208,0.450117,0.478768,0.114403
1179,363876847,-0.310317,-0.400810,-0.059215,0.859970,0.309966,0.111629,0.420864
1180,363910181,-0.314565,-0.403196,-0.057829,0.857402,0.777372,-0.913002,0.483568
1181,363943515,-0.319526,-0.406156,-0.062029,0.853870,0.893777,-0.216569,-0.337296
1182,363976849,-0.325967,-0.408075,-0.071893,0.849737,1.264024,-0.043673,-0.287540
1183,364010183,-0.330553,-0.408662,-0.080570,0.846900,0.424901,0.406544,0.201021
1184,364043517,-0.331653,-0.409257,-0.082417,0.846004,-0.113676,-0.016511,0.479115
1185,364076851,-0.330293,-0.410695,-0.079634,0.846106,0.052430,0.083699,0.151671
1186,364110185,-0.328861,-0.412623,-0.077943,0.845883,0.121981,0.065868,-0.213022
1187,364143519,-0.328894,-0.414483,-0.079492,0.844817,0.418719,-0.121586,-0.443779
1188,364176853,-0.330175,-0.415958,-0.082603,0.843291,-0.128343,0.131674,-0.140412
1189,364210187,-0.331168,-0.416906,-0.084917,0.842203,-0.674378,0.454648,-0.265188
1190,364243521,-0.331047,-0.417395,-0.086426,0.841856,-1.014544,0.528398,-0.005803
1191,364276855,-0.329442,-0.417537,-0.085663,0.842492,-1.328318,-0.019920,0.235055
1192,364310189,-0.325880,-0.418292,-0.084641,0.843605,-1.013364,0.249183,0.416038
1193,364343523,-0.319318,-0.420008,-0.081378,0.845581,-0.576183,0.030255,-0.145426
1194,364376857,-0.311260,-0.421867,-0.078908,0.847891,-0.112747,0.586612,-0.659807
1195,364410191,-0.302318,-0.423850,-0.076755,0.850332,-0.172673,0.468490,0.078362
1196,364443525,-0.293020,-0.426068,-0.075837,0.852558,-0.082127,0.228199,0.236963
1197,364476859,-0.283933,-0.428012,-0.075946,0.854647,-0.097356,0.102632,0.042842
1198,364510193,-0.275355,-0.429662,-0.078609,0.856383,0.067502,0.280654,-0.148377
1199,364543527,-0.266713,-0.430727,-0.082120,0.858251,-0.235953,0.397903,-0.339260
1200,364576861,-0.257067,-0.431338,-0.084402,0.860663,-0.087826,0.348669,-0.112163
1201,364610195,-0.245850,-0.432118,-0.085416,0.863445,-0.148054,0.354462,-0.221883
1202,364643529,-0.232379,-0.433669,-0.085640,0.866371,0.325798,0.144306,0.277766
1203,364676863,-0.216007,-0.437248,-0.082860,0.869074,-0.077122,-0.785202,1.341348
1204,364710197,-0.197798,-0.444543,-0.076572,0.870284,0.180817,-0.956122,0.587958
1205,364743531,-0.180937,-0.454174,-0.070513,0.869492,0.201580,1.012739,-0.729759
1206,364776865,-0.170284,-0.463448,-0.073603,0.866489,0.736778,1.067264,-1.344847
1207,364810199,-0.163063,-0.471636,-0.078991,0.862978,0.341956,1.089906,-0.438886
1208,364843533,-0.156179,-0.478372,-0.081115,0.860343,0.010332,0.418236,0.189221
1209,364876867,-0.148365,-0.483323,-0.080027,0.859059,0.438752,-0.330449,-0.080959
1210,364910201,-0.140754,-0.486885,-0.076499,0.858650,0.068202,-0.031681,-0.358600
1211,364943535,-0.133851,-0.489660,-0.073083,0.858473,0.277608,0.535315,-0.511989
1212,364976869,-0.127911,-0.492561,-0.070396,0.857943,0.073208,1.222485,-0.065268
1213,365010203,-0.122470,-0.495171,-0.067665,0.857455,-0.520238,0.724916,0.498037
1214,365043537,-0.117350,-0.497060,-0.064715,0.857306,-0.225954,0.586855,0.075807
1215,365076871,-0.114211,-0.497809,-0.061212,0.857552,0.840621,0.574072,-1.416426
1216,365110205,-0.109572,-0.497019,-0.055364,0.859012,0.073370,1.346502,-0.619261
1217,365143539,-0.104579,-0.495064,-0.048312,0.861186,-0.297748,0.373337,-0.579694
1218,365176873,-0.100186,-0.492052,-0.040721,0.863823,-0.774304,0.228446,0.057385
1219,365210207,-0.097084,-0.487899,-0.033012,0.866856,-0.622399,0.672810,0.162736
1220,365243541,-0.093403,-0.483230,-0.024081,0.870164,-0.745791,0.673825,-0.004854
1221,365276875,-0.090082,-0.478402,-0.015615,0.873369,-0.189058,0.868366,-0.382693
1222,365310209,-0.085292,-0.473144,-0.005887,0.876827,-0.485470,0.976969,0.742557
1223,365343543,-0.082289,-0.467951,0.002509,0.879912,-0.843389,0.584522,0.484450
1224,365376877,-0.079914,-0.462876,0.011880,0.882734,-0.582532,0.040542,0.182110
1225,365410211,-0.077969,-0.457671,0.023101,0.885396,-0.715828,0.001326,0.420951
1226,365443545,-0.076163,-0.453127,0.034992,0.887497,0.067742,-0.430476,-0.191119
1227,365476879,-0.075001,-0.450605,0.045252,0.888416,0.204850,0.321356,-0.055435
1228,365510213,-0.074010,-0.450551,0.052481,0.888129,0.266176,0.503603,-0.008424
1229,365543547,-0.073184,-0.452612,0.057720,0.886823,0.508331,0.767986,-0.355638
1230,365576881,-0.072143,-0.454885,0.062830,0.885397,0.317079,0.159332,-0.365965
1231,365610215,-0.071036,-0.456272,0.065789,0.884557,0.189967,0.251055,-0.689832
1232,365643549,-0.068548,-0.456281,0.069257,0.884485,-0.767386,1.278934,-0.346966
1233,365676883,-0.061775,-0.455205,0.073663,0.885182,0.051173,0.702120,0.133579
1234,365710217,-0.045382,-0.452361,0.084874,0.886627,-3.514875,6.020706,-0.839134
1235,365743551,-0.040472,-0.449734,0.078109,0.888820,4.450673,-8.223244,3.474538
1236,365776885,-0.039296,-0.452278,0.083048,0.887132,-2.340681,-4.391368,3.531937
1237,365810219,-0.033380,-0.451040,0.086032,0.887720,-1.062153,1.941121,-0.043641
1238,365843553,-0.030740,-0.450573,0.087173,0.887942,2.563416,-1.732366,-1.404594
1239,365876887,-0.027520,-0.451112,0.083042,0.888170,0.997857,1.922647,-0.595887
1240,365910221,-0.019492,-0.452728,0.084086,0.887461,1.378010,2.871191,-1.184299
1241,365943555,-0.010934,-0.454611,0.086221,0.886440,-0.543595,1.049215,0.502109
1242,365976889,-0.001887,-0.457609,0.090687,0.884515,0.246065,1.143121,-0.105097
1243,366010223,0.007556,-0.460208,0.095802,0.882595,-2.068369,1.000362,1.597712
1244,366043557,0.021954,-0.455554,0.098482,0.884472,-2.942248,-0.199489,1.029829
1245,366076891,0.030339,-0.454174,0.098921,0.884885,0.706972,-0.124667,-0.278259
1246,366110225,0.038764,-0.454121,0.098694,0.884608,0.163260,1.173007,-0.044530
1247,366143559,0.046713,-0.453968,0.096833,0.884508,0.729711,1.870985,-0.608368
1248,366176893,0.054128,-0.455632,0.093494,0.883589,0.772203,0.586563,0.021765
1249,366210227,0.063748,-0.456866,0.090921,0.882578,-0.844551,0.138456,0.572853
1250,366243561,0.075031,-0.457910,0.090732,0.881168,-0.806716,0.294529,0.001131
1251,366276895,0.089639,-0.457922,0.092277,0.879635,-0.770900,0.994072,0.316562
1252,366310229,0.105138,-0.459038,0.094841,0.877061,-0.040722,0.601241,0.032601
1253,366343563,0.123068,-0.459540,0.102530,0.873594,-2.799157,1.334471,2.383451
1254,366376897,0.142854,-0.458502,0.119888,0.868905,-0.136421,-0.954275,-1.017433
1255,366410231,0.157023,-0.466495,0.122213,0.861853,4.479273,3.002931,-0.427170
1256,366443565,0.164697,-0.479681,0.123366,0.852973,-0.293631,1.245235,3.042314
1257,366476899,0.171797,-0.490130,0.127352,0.845009,1.489141,0.278439,0.497561
1258,366510233,0.175714,-0.499256,0.128811,0.838616,1.110478,-0.785524,-0.715718
1259,366543567,0.180368,-0.505607,0.129468,0.833707,0.070682,-1.205784,-0.052726
1260,366576901,0.188817,-0.508309,0.132850,0.829651,-0.436144,-1.515408,-0.238460
1261,366610235,0.201447,-0.506771,0.139358,0.826549,0.338014,0.262055,-0.650906
1262,366643569,0.215090,-0.504582,0.147086,0.823104,0.881294,0.255280,-0.530224
1263,366676903,0.227015,-0.502403,0.154610,0.819849,0.075207,0.559794,-0.593018
1264,366710237,0.234424,-0.501826,0.159403,0.817195,0.211322,1.299084,-0.274597
1265,366743571,0.237482,-0.502557,0.162385,0.815273,0.116933,0.869480,0.025146
1266,366776905,0.240080,-0.501625,0.166362,0.814284,-0.854010,0.813109,0.045234
1267,366810239,0.243444,-0.499530,0.170098,0.813801,0.389099,0.459554,-0.302251
1268,366843573,0.248338,-0.496083,0.175371,0.813311,0.090103,0.963658,-0.071468
1269,366876907,0.256212,-0.490683,0.180907,0.812932,0.922080,0.764388,-0.259136
1270,366910241,0.263694,-0.484692,0.186923,0.812773,0.147007,0.821045,0.000371
1271,366943575,0.270493,-0.477658,0.194056,0.813031,-0.558773,1.488942,-0.079715
1272,366976909,0.274666,-0.470250,0.199942,0.814523,-0.199857,1.885868,0.186482
1273,367010243,0.277622,-0.463153,0.203751,0.816640,0.146633,0.407121,-0.202376
1274,367043577,0.279350,-0.456905,0.206424,0.818896,1.045152,0.483040,-0.613569
1275,367076911,0.280588,-0.450340,0.207846,0.821745,-1.101956,1.404878,0.496207
1276,367110245,0.281951,-0.442912,0.210199,0.824712,1.278339,1.275337,-0.000935
1277,367143579,0.281395,-0.435849,0.213590,0.827788,-2.719724,-1.609219,0.687050
1278,367176913,0.283178,-0.426982,0.218613,0.830485,0.650737,0.734046,0.120656
1279,367210247,0.285774,-0.419412,0.224865,0.831783,-0.427826,0.634725,0.035113
1280,367243581,0.288817,-0.415437,0.230794,0.831102,0.820216,0.516957,0.238373
1281,367276915,0.290915,-0.413891,0.236829,0.829443,-1.001632,0.489584,0.865088
1282,367310249,0.290428,-0.414760,0.241784,0.827748,0.557515,-0.225325,-0.808394
1283,367343583,0.286825,-0.416728,0.242848,0.827705,1.284090,0.340222,-1.194651
1284,367376917,0.284408,-0.417448,0.242011,0.828420,0.834452,0.181462,-0.693118
1285,367410251,0.285108,-0.416066,0.242510,0.828729,-0.101063,0.413778,-0.574482
1286,367443585,0.290256,-0.412806,0.242741,0.828505,0.213699,0.841418,-0.196409
1287,367476919,0.297440,-0.410252,0.242910,0.827175,-0.903329,-0.694878,-0.148280
1288,367510253,0.303966,-0.408732,0.241016,0.826108,-0.634976,1.451357,0.564066
1289,367543587,0.309847,-0.407914,0.239325,0.824818,-0.551564,0.424825,0.453317
1290,367576921,0.314442,-0.408382,0.237561,0.823356,1.229450,1.628001,0.502192
1291,367610255,0.319072,-0.410744,0.235061,0.821115,0.960078,0.283926,0.416281
1292,367643589,0.324474,-0.412287,0.233467,0.818676,0.285376,-0.438532,-0.610335
1293,367676923,0.331845,-0.412322,0.233232,0.815765,-0.117676,0.810141,-0.253159
1294,367710257,0.339541,-0.412547,0.232777,0.812608,0.155173,-0.674654,-0.457303
1295,367743591,0.346118,-0.413105,0.231118,0.810020,-0.224553,-0.222207,0.003676
1296,367776925,0.352134,-0.413524,0.229931,0.807547,-0.455149,0.122717,-0.085286
1297,367810259,0.359466,-0.413230,0.229628,0.804548,-0.935786,0.506266,0.240018
1298,367843593,0.365722,-0.415400,0.227840,0.801111,0.073484,0.667033,0.554350
1299,367876927,0.372225,-0.417503,0.226747,0.797325,-0.405477,-0.702066,-0.420000
1300,367910261,0.380207,-0.418883,0.226737,0.792825,0.921328,0.536001,-0.407100
1301,367943595,0.387450,-0.421044,0.227517,0.787935,1.405402,0.146665,-0.085405
1302,367976929,0.395693,-0.421865,0.230536,0.782503,-0.342545,0.009544,-0.357468
1303,368010263,0.403339,-0.425005,0.234351,0.775737,-0.978568,-0.274813,-0.348015
1304,368043597,0.410703,-0.431093,0.237274,0.767583,-1.354280,0.252142,0.654034
1305,368076931,0.415165,-0.439130,0.237842,0.760418,0.860913,0.436525,-0.238435
1306,368110265,0.419420,-0.446269,0.238313,0.753750,0.517916,-0.354979,-0.956162
1307,368143599,0.423421,-0.451821,0.238532,0.748115,-0.412136,-0.649662,-0.324543
1308,368176933,0.428129,-0.455542,0.238396,0.743206,1.132944,0.088146,0.002028
1309,368210267,0.434495,-0.456215,0.240041,0.738555,0.113636,0.088100,0.313108
1310,368243601,0.440838,-0.455455,0.241625,0.734738,0.293620,-0.405363,-0.538761
1311,368276935,0.444784,-0.455539,0.242560,0.731995,0.492427,0.796510,0.086527
1312,368310269,0.447566,-0.456725,0.242740,0.729497,0.481789,0.066513,-0.595236
1313,368343603,0.448250,-0.458161,0.242607,0.728219,-0.040201,0.557201,-0.033380
1314,368376937,0.449942,-0.457650,0.243363,0.727244,-0.545847,0.105443,-0.845510
1315,368410271,0.453270,-0.454717,0.245470,0.726308,-0.068021,1.433715,0.337105
1316,368443605,0.456683,-0.450586,0.248117,0.725845,0.836238,0.179536,0.140831
1317,368476939,0.459295,-0.445140,0.250805,0.726633,-0.147765,0.484200,-0.071544
1318,368510273,0.461460,-0.439810,0.253149,0.727693,0.704769,1.575472,0.707397
1319,368543607,0.462733,-0.434396,0.254913,0.729519,-0.552359,0.539381,0.269278
1320,368576941,0.465489,-0.427341,0.257355,0.731073,1.638332,1.480338,0.299332
1321,368610275,0.467584,-0.418234,0.260482,0.733890,0.115643,0.944694,0.268562
1322,368643609,0.468069,-0.408478,0.264336,0.737688,1.198536,-0.071508,-0.879172
1323,368676943,0.468923,-0.398590,0.267530,0.741394,0.020823,0.568356,-0.398124
1324,368710277,0.469572,-0.388954,0.270770,0.744917,0.258153,1.214670,0.527265
1325,368743611,0.469635,-0.378625,0.275161,0.748581,-0.975734,0.394771,0.258922
1326,368776945,0.471052,-0.367544,0.281168,0.750977,0.139425,1.490381,1.533010
1327,368810279,0.473425,-0.357324,0.290204,0.750980,0.941296,0.949273,0.842956
1328,368843613,0.474107,-0.350526,0.298397,0.750543,-0.872390,-0.071257,0.422023
1329,368876947,0.473363,-0.347341,0.303178,0.750576,-0.279885,-0.789361,-1.495562
1330,368910281,0.468469,-0.349046,0.303891,0.752565,0.958857,-0.413629,-0.434987
1331,368943615,0.464606,-0.349201,0.303210,0.755158,-0.877415,-1.223184,-0.723234
1332,368976949,0.462973,-0.348528,0.303941,0.756177,0.575761,-0.378229,0.380272
1333,369010283,0.463526,-0.346284,0.305466,0.756255,-1.109117,-0.969840,-0.713981
1334,369043617,0.465300,-0.344495,0.307772,0.755047,-0.458419,1.183616,1.403413
1335,369076951,0.466593,-0.344947,0.309309,0.753413,0.046508,-0.600564,0.738486
1336,369110285,0.468279,-0.346588,0.309983,0.751334,-0.348969,-0.118794,0.731421
1337,369143619,0.470159,-0.347288,0.311406,0.749245,0.959149,0.415109,0.072015
1338,369176953,0.473144,-0.346501,0.312930,0.747092,-0.820522,-0.370830,-0.251243
1339,369210287,0.475549,-0.346719,0.314064,0.744986,-0.219441,-0.534521,-0.150288
1340,369243621,0.478919,-0.346075,0.315688,0.742435,-0.952449,-0.834181,-0.145070
1341,369276955,0.484104,-0.343762,0.318723,0.738842,0.800973,1.039756,0.653895
1342,369310289,0.489909,-0.341797,0.320629,0.735093,-0.119532,0.366724,0.105402
1343,369343623,0.494396,-0.341729,0.320125,0.732335,-0.334099,0.991855,0.476006
1344,369376957,0.498660,-0.341831,0.320557,0.729200,0.393564,0.883170,-0.149525
1345,369410291,0.503933,-0.343271,0.320937,0.724718,0.498847,0.328584,0.635661
1346,369443625,0.509767,-0.344739,0.320954,0.719918,0.127371,0.345192,0.125369
1347,369476959,0.514584,-0.347934,0.321146,0.714850,0.677536,0.509986,0.426953
1348,369510293,0.520079,-0.349987,0.321811,0.709553,-0.322521,0.131822,-0.459888
1349,369543627,0.524225,-0.357107,0.316737,0.705224,-1.135038,0.038377,-0.416077
1350,369576961,0.528622,-0.362524,0.315084,0.699898,0.275022,0.900791,0.621580
1351,369610295,0.536258,-0.362823,0.319812,0.691743,-0.961996,0.252846,0.488725
1352,369643629,0.545490,-0.359902,0.330347,0.681015,1.752967,0.635757,-0.122874
1353,369676963,0.551357,-0.363055,0.338463,0.670552,0.098788,0.592442,1.243619
1354,369710297,0.552719,-0.371019,0.342316,0.663074,-0.166971,-0.546897,-0.343544
1355,369743631,0.551314,-0.379755,0.344574,0.658109,-0.254615,-1.471507,-1.762033
1356,369776965,0.549043,-0.387499,0.345625,0.654935,0.028020,-1.257920,-1.664672
1357,369810299,0.549664,-0.390570,0.347356,0.651666,0.587818,-0.249702,-1.132988
1358,369843633,0.551701,-0.392057,0.349072,0.648126,0.086990,0.515602,-0.366724
1359,369876967,0.552949,-0.394943,0.349724,0.644951,-0.058039,0.875543,0.478625
1360,369910301,0.553883,-0.397752,0.350245,0.642134,2.010278,1.977574,1.326624
1361,369943635,0.554827,-0.398886,0.351302,0.640034,0.344300,0.876392,0.265738
1362,369976969,0.555655,-0.400362,0.351093,0.638508,0.709577,-0.161454,-0.951369
1363,370010303,0.556626,-0.400686,0.350902,0.637563,-1.643587,0.040197,-1.022181
1364,370043637,0.556440,-0.401599,0.349135,0.638120,1.102993,0.054240,-0.586777
1365,370076971,0.555934,-0.402181,0.347407,0.639138,1.473209,1.496492,1.231333
1366,370110305,0.556345,-0.400547,0.346530,0.640281,-0.138481,0.796660,0.434908
1367,370143639,0.556017,-0.398332,0.345673,0.642408,1.003876,0.575498,0.145241
1368,370176973,0.555942,-0.396354,0.344213,0.644476,1.533172,0.749316,0.385137
1369,370210307,0.557124,-0.392435,0.342221,0.646910,-0.091743,0.559218,-0.206120
1370,370243641,0.558539,-0.387163,0.339876,0.650095,-0.135304,0.588883,-0.419635
1371,370276975,0.562072,-0.380586,0.336839,0.652510,1.163177,0.397817,-0.757464
1372,370310309,0.565705,-0.372533,0.335157,0.654879,-1.038758,1.133384,0.584794
1373,370343643,0.569026,-0.362681,0.335098,0.657558,0.160968,-0.081827,0.148965
1374,370376977,0.569635,-0.355407,0.336663,0.660197,-1.600938,0.106006,-0.042061
1375,370410311,0.568391,-0.351596,0.338294,0.662472,0.300158,0.964804,1.111779
1376,370443645,0.563511,-0.351907,0.339307,0.665949,-1.259039,-0.362289,0.767074
1377,370476979,0.557664,-0.352568,0.339446,0.670436,0.590567,-0.313205,-0.252378
1378,370510313,0.555035,-0.351494,0.338204,0.673800,0.732811,-0.250708,-0.824752
1379,370543647,0.555123,-0.349143,0.336235,0.675932,-0.213223,0.180303,0.105039
1380,370576981,0.559158,-0.342927,0.335452,0.676177,-1.176816,0.567132,-0.422323
1381,370610315,0.563590,-0.338269,0.334291,0.675419,0.379338,0.759221,0.466319
1382,370643649,0.566366,-0.337312,0.331509,0.674946,0.040741,-0.709697,-0.359786
1383,370676983,0.567940,-0.338188,0.328584,0.674616,0.225803,0.469693,0.686283
1384,370710317,0.569621,-0.337407,0.328578,0.673592,-0.338078,-0.117622,-0.222575
1385,370743651,0.569603,-0.338461,0.329220,0.672764,-0.291863,-0.135313,-0.414405
1386,370776985,0.569393,-0.340040,0.329467,0.672024,0.547694,0.773577,0.030132
1387,370810319,0.569997,-0.340922,0.328995,0.671297,0.734224,0.944266,0.263987
1388,370843653,0.570692,-0.341983,0.327897,0.670704,-0.171473,0.016638,-0.514927
1389,370876987,0.572756,-0.342218,0.327177,0.669174,-0.207664,0.913754,-0.345136
1390,370910321,0.576047,-0.341554,0.325689,0.667412,-1.517550,1.095805,-0.338169
1391,370943655,0.579472,-0.341922,0.324055,0.665049,-0.058475,1.628892,0.295107
1392,370976989,0.583396,-0.343009,0.322070,0.662016,0.064774,1.349869,0.497680
1393,371010323,0.587701,-0.343673,0.321465,0.658147,0.555241,0.886173,0.731117
1394,371043657,0.592753,-0.343304,0.322150,0.653457,-0.304152,0.810324,0.144837
1395,371076991,0.598978,-0.340518,0.323844,0.648381,0.289838,-0.078238,-0.449613
1396,371110325,0.604996,-0.339406,0.325489,0.642527,0.649985,-0.323736,0.070582
1397,371143659,0.610317,-0.339433,0.329251,0.635526,-0.859775,-0.908702,0.318474
1398,371176993,0.616306,-0.338981,0.335736,0.626531,0.327670,-0.724899,0.694989
1399,371210327,0.620819,-0.340524,0.343067,0.617198,-0.217999,0.707948,0.778508
1400,371243661,0.621336,-0.347123,0.346529,0.611036,0.404798,-0.679213,-0.387280
1401,371276995,0.619743,-0.353939,0.348444,0.607646,0.316292,-1.594872,-1.220802
1402,371310329,0.618397,-0.357412,0.351580,0.605173,-0.237901,-1.441767,-0.659085
1403,371343663,0.620429,-0.354681,0.357189,0.601403,0.971887,-1.455803,-0.647463
1404,371376997,0.623030,-0.351774,0.362431,0.597272,0.126062,-0.691180,-0.939913
1405,371410331,0.624043,-0.351238,0.366746,0.593885,-0.123809,0.348128,-0.450503
1406,371443665,0.622525,-0.354014,0.368542,0.592718,0.883458,0.947317,0.209244
1407,371476999,0.619982,-0.357189,0.369823,0.592680,1.037572,0.945623,0.609452
1408,371510333,0.618008,-0.358599,0.370575,0.593421,0.447707,0.430185,-0.143037
1409,371543667,0.616733,-0.357522,0.371500,0.594817,-0.348756,0.231753,-0.404722
1410,371577001,0.618199,-0.353090,0.372721,0.595179,0.929380,0.452217,-0.131681
1411,371610335,0.620327,-0.349335,0.373553,0.594658,0.705794,0.497175,0.985690
1412,371643669,0.623313,-0.345461,0.373391,0.593900,0.111967,1.017251,0.729012
1413,371677003,0.625080,-0.341678,0.372782,0.594613,0.918858,0.605692,1.683976
1414,371710337,0.627707,-0.334987,0.373280,0.595340,-0.456419,0.107490,0.031940
1415,371743671,0.631061,-0.326231,0.374144,0.596114,-0.892226,0.348048,-0.978069
1416,371777005,0.633880,-0.317618,0.373379,0.598250,-0.062993,-0.254598,-0.506879
1417,371810339,0.634501,-0.309774,0.371992,0.602554,0.935731,0.310924,0.518851
1418,371843673,0.636728,-0.299288,0.371460,0.605824,1.485936,0.190379,-0.114767
1419,371877007,0.638150,-0.290406,0.371452,0.608648,0.336516,0.909505,0.539548
1420,371910341,0.639486,-0.281748,0.374964,0.609162,-0.438099,1.266393,0.730214
1421,371943675,0.639866,-0.276981,0.379077,0.608403,-0.687601,0.497557,0.943462
1422,371977009,0.638274,-0.275638,0.382394,0.608610,0.071247,-0.780957,-0.720374
1423,372010343,0.635543,-0.276290,0.384343,0.609942,-0.033771,-1.350246,-1.448208
1424,372043677,0.633374,-0.275964,0.385856,0.611390,1.166739,-0.309623,-0.951958
1425,372077011,0.633134,-0.274553,0.386701,0.611739,0.123034,-0.333346,-0.555043
1426,372110345,0.634313,-0.271922,0.388233,0.610722,-0.583865,0.061401,-0.627301
1427,372143679,0.636550,-0.270668,0.388451,0.608810,0.099252,0.691388,-0.281804
1428,372177013,0.637870,-0.272908,0.387567,0.606989,0.487921,0.909641,0.887728
1429,372210347,0.639075,-0.275383,0.387159,0.604860,0.809884,0.447505,0.553377
1430,372243681,0.641058,-0.276627,0.386815,0.602410,-0.072125,0.435122,0.200794
1431,372277015,0.643871,-0.277327,0.386669,0.599172,0.714594,-0.220593,-0.580693
1432,372310349,0.647036,-0.279173,0.386079,0.595274,0.095322,-0.336154,-0.235288
1433,372343683,0.650312,-0.280762,0.385577,0.591268,0.117633,0.154696,-0.892832
1434,372377017,0.653606,-0.282631,0.384679,0.587318,-0.137436,0.148018,-0.141986
1435,372410351,0.657231,-0.283596,0.384403,0.582971,0.069089,0.477132,0.462601
1436,372443685,0.661212,-0.284948,0.383073,0.578670,0.075799,-0.245450,0.079544
1437,372477019,0.665195,-0.287094,0.382080,0.573679,-0.361692,0.553351,0.700116
1438,372510353,0.670046,-0.290743,0.380552,0.567175,-0.757860,-0.258166,-0.371489
1439,372543687,0.674755,-0.297636,0.377979,0.559688,-1.592773,1.628831,0.972520
1440,372577021,0.681117,-0.301859,0.376529,0.550625,-0.156617,0.967632,0.917082
1441,372610355,0.689736,-0.302137,0.377285,0.539105,-0.069730,-0.412714,-0.442267
1442,372643689,0.699448,-0.301802,0.378343,0.525875,0.670485,-0.714641,-0.324558
1443,372677023,0.708323,-0.301082,0.380804,0.512461,0.655717,-1.476137,-0.385671
1444,372710357,0.715969,-0.298204,0.386996,0.498695,-0.769240,-0.972479,-0.479358
1445,372743691,0.719987,-0.297268,0.394228,0.487683,-0.391160,0.999168,0.950392
1446,372777025,0.720272,-0.302219,0.398065,0.481058,1.479242,0.195897,0.854007
1447,372810359,0.717900,-0.312365,0.399407,0.476993,-0.367038,-0.573283,-0.455611
1448,372843693,0.715101,-0.322120,0.399466,0.474655,0.872242,-0.945825,-0.469585
1449,372877027,0.714621,-0.325421,0.401644,0.471276,0.379991,-0.920001,-0.582741
1450,372910361,0.716799,-0.321885,0.405752,0.466856,-0.449715,-0.340640,-1.048379
1451,372943695,0.717700,-0.322807,0.407859,0.462984,-0.785073,-0.395825,-0.990406
1452,372977029,0.717350,-0.324526,0.409602,0.460781,0.591352,0.510617,-0.354307
1453,373010363,0.714472,-0.328602,0.411465,0.460704,1.267241,0.115293,0.440091
1454,373043697,0.709339,-0.336132,0.411585,0.463091,1.410236,1.252765,0.806326
1455,373077031,0.705415,-0.339490,0.412083,0.466181,1.528305,1.976646,1.343663
1456,373110365,0.702712,-0.340336,0.412047,0.469665,1.447148,0.312787,0.438854
1457,373143699,0.701968,-0.338388,0.411946,0.472266,0.976252,-0.229835,-0.599633
1458,373177033,0.703201,-0.332433,0.412619,0.474071,0.057265,0.581319,-0.670126
1459,373210367,0.704161,-0.327473,0.411440,0.477113,-0.926189,0.021189,-1.036511
1460,373243701,0.704623,-0.321919,0.410061,0.481379,-0.293637,0.739943,-0.153608
1461,373277035,0.704704,-0.317180,0.407158,0.486840,0.431185,0.350544,-0.674371
1462,373310369,0.705160,-0.312526,0.404308,0.491542,-0.085438,0.287488,-0.723647
1463,373343703,0.705239,-0.308369,0.400858,0.496850,0.547440,0.783051,1.096773
1464,373377037,0.706207,-0.301824,0.398039,0.501737,0.953139,-0.231360,0.092614
1465,373410371,0.707612,-0.295057,0.395434,0.505825,0.703099,-0.106707,0.274529
1466,373443705,0.709286,-0.286436,0.394477,0.509172,-0.591405,0.397554,0.028519
1467,373477039,0.710400,-0.277774,0.395020,0.511990,-0.633368,1.219735,0.693341
1468,373510373,0.710025,-0.271449,0.395772,0.515311,-0.439646,0.312537,-0.158170
1469,373543707,0.708058,-0.268072,0.396293,0.519369,-0.613945,0.961517,0.709196
1470,373577041,0.704922,-0.268574,0.394941,0.524381,0.447582,-0.825676,-0.100016
1471,373610375,0.700766,-0.269891,0.392153,0.531322,0.487695,-0.951275,-0.311600
1472,373643709,0.699660,-0.266845,0.389749,0.536066,0.171293,-0.377939,-0.422076
1473,373677043,0.699903,-0.262080,0.388320,0.539127,-0.705290,1.224698,0.636240
1474,373710377,0.701906,-0.256448,0.387504,0.539818,-0.538993,0.944757,0.657351
1475,373743711,0.704605,-0.251395,0.387346,0.538792,-1.299101,0.851899,-0.164852
1476,373777045,0.706071,-0.251600,0.387028,0.537002,0.546342,-0.527271,0.332645
1477,373810379,0.706881,-0.252504,0.387217,0.535373,-0.561328,-0.405413,-0.412540
