sep=,
DeviceTag:,R_Wrist_n
FirmwareVersion:,2.2.1
AppVersion:,2023.6.0
SyncStatus:,Synced
OutputRate:,30Hz
FilterProfile:,General
Measurement Mode:,Sensor fusion Mode - Complete(Quaternion)
StartTime: ,2026-08-21_20:42:19_990 AEST
© Movella Technologies B. V. 2005-2026

PacketCounter,SampleTimeFine,Quat_W,Quat_X,Quat_Y,Quat_Z,FreeAcc_X,FreeAcc_Y,FreeAcc_Z
1,278877492,-0.864771,0.033055,0.500620,-0.021424,0.159393,0.134539,0.194423
2,278910826,-0.864689,0.029350,0.500526,-0.030467,0.227538,-0.481690,0.269839
3,278944160,-0.863868,0.024982,0.501435,-0.040886,0.589167,0.151690,-0.141679
4,278977494,-0.862927,0.020687,0.502344,-0.050802,0.608079,0.076727,0.026801
5,279010828,-0.862480,0.014786,0.502065,-0.061980,1.120192,-0.499629,-0.138274
6,279044162,-0.862659,0.009016,0.500303,-0.073734,0.727726,-0.016999,-0.123427
7,279077496,-0.863760,0.004155,0.496751,-0.084502,0.576010,-0.186995,-0.059593
8,279110830,-0.865391,0.000543,0.492341,-0.093269,-0.030068,-0.519629,0.445095
9,279144164,-0.866279,-0.002258,0.489383,-0.100306,-0.158826,-0.894894,0.341065
10,279177498,-0.866649,-0.005803,0.487421,-0.106335,-0.457362,-1.017644,0.531339
11,279210832,-0.867319,-0.008227,0.485087,-0.111278,0.297682,-0.522770,-0.267264
12,279244166,-0.868268,-0.009799,0.482811,-0.113623,-0.097473,-0.013806,0.100303
13,279277500,-0.868448,-0.014925,0.481609,-0.116745,-0.231588,0.413951,-0.071037
14,279310834,-0.868365,-0.020673,0.480505,-0.120962,-0.246839,-0.186919,0.194553
15,279344168,-0.868459,-0.025639,0.479171,-0.124574,-0.135604,0.018778,-0.139010
16,279377502,-0.868582,-0.030614,0.477985,-0.127121,-0.546398,-0.187082,0.067582
17,279410836,-0.868290,-0.036956,0.477250,-0.130154,-0.446497,-0.270759,0.594983
18,279444170,-0.867284,-0.044471,0.477466,-0.133674,0.052028,-0.163711,-0.092730
19,279477504,-0.866509,-0.052078,0.476990,-0.137592,-0.131359,-0.344308,0.132369
20,279510838,-0.865625,-0.060051,0.476542,-0.141407,-0.247167,-0.358199,0.081912
21,279544172,-0.864306,-0.069045,0.476612,-0.145089,-0.393130,-0.474187,0.321875
22,279577506,-0.862871,-0.077854,0.476821,-0.148443,-0.387814,-0.146714,0.190608
23,279610840,-0.861516,-0.085732,0.476914,-0.151642,-0.216027,-0.072110,-0.091105
24,279644174,-0.860479,-0.092478,0.476405,-0.155125,-0.006957,-0.544580,0.014607
25,279677508,-0.859863,-0.097874,0.475511,-0.157946,0.048952,-0.372302,0.173070
26,279710842,-0.859615,-0.102262,0.474456,-0.159680,0.078859,-0.281733,0.014614
27,279744176,-0.859230,-0.106102,0.473836,-0.161079,-0.074284,-0.102130,-0.021527
28,279777510,-0.858327,-0.110020,0.474173,-0.162270,-0.048242,-0.591695,0.081532
29,279810844,-0.856882,-0.114534,0.475463,-0.163008,-0.366409,-0.537355,0.311749
30,279844178,-0.855456,-0.118371,0.476798,-0.163854,-0.125509,-0.747923,0.137215
31,279877512,-0.853356,-0.122231,0.479586,-0.163835,0.263388,-0.018755,-0.285954
32,279910846,-0.850687,-0.126309,0.483000,-0.164589,-0.733650,-0.870895,0.315704
33,279944180,-0.847122,-0.130853,0.487364,-0.166553,0.127843,-0.552648,0.147897
34,279977514,-0.843495,-0.135158,0.491838,-0.168362,0.804226,0.163433,-0.427798
35,280010848,-0.841550,-0.137117,0.494594,-0.168438,-0.206199,0.180557,0.211727
36,280044182,-0.839393,-0.138831,0.497378,-0.169596,0.826012,0.281209,-0.839519
37,280077516,-0.837885,-0.140973,0.498494,-0.171991,-1.149387,-0.782422,0.413123
38,280110850,-0.837193,-0.142927,0.498180,-0.174637,-0.049714,0.700569,0.100330
39,280144184,-0.837485,-0.142838,0.497039,-0.176551,0.420586,-0.467876,0.168077
40,280177518,-0.838852,-0.141462,0.494864,-0.177275,-0.227144,0.257042,-0.235725
41,280210852,-0.839955,-0.140112,0.493102,-0.178033,-0.724300,0.307551,0.324152
42,280244186,-0.840197,-0.140610,0.491795,-0.180104,-0.484934,1.092499,-0.225779
43,280277520,-0.840148,-0.141493,0.490477,-0.183206,-0.320075,-0.199070,0.305858
44,280310854,-0.841315,-0.141551,0.487587,-0.185508,-0.289289,0.334602,0.355310
45,280344188,-0.842895,-0.140818,0.484221,-0.187698,-0.310800,-0.201627,0.354798
46,280377522,-0.844862,-0.139256,0.480449,-0.189703,0.268057,0.095548,-0.143064
47,280410856,-0.848041,-0.135328,0.475146,-0.191705,-0.675658,0.201772,0.949273
48,280444190,-0.850443,-0.131419,0.471203,-0.193508,-0.357515,-0.219573,0.334806
49,280477524,-0.852026,-0.128138,0.468182,-0.196059,0.003051,-0.408909,0.208599
50,280510858,-0.852787,-0.126021,0.465772,-0.199829,0.962427,-0.046173,-0.568484
51,280544192,-0.853837,-0.123173,0.462947,-0.203647,0.015063,-0.322914,0.316782
52,280577526,-0.854908,-0.119236,0.460325,-0.207406,0.817732,-0.210196,0.326845
53,280610860,-0.856066,-0.113621,0.458127,-0.210625,0.756955,0.793313,-0.448909
54,280644194,-0.856037,-0.108279,0.457904,-0.214013,0.566062,-0.649035,1.437801
55,280677528,-0.854888,-0.104290,0.459298,-0.217571,1.467874,0.203480,-0.198235
56,280710862,-0.853272,-0.102664,0.460975,-0.221113,1.021608,-0.387956,0.303696
57,280744196,-0.851587,-0.102342,0.462405,-0.224741,0.524011,-0.383070,0.017326
58,280777530,-0.848360,-0.105326,0.464691,-0.230773,0.769843,0.601336,-0.613654
59,280810864,-0.845577,-0.107965,0.465389,-0.238237,-0.143424,0.702097,0.024590
60,280844198,-0.844079,-0.107715,0.464974,-0.244397,0.492135,0.761495,-0.193070
61,280877532,-0.843961,-0.105832,0.463760,-0.247907,0.781730,-0.150139,0.053989
62,280910866,-0.845047,-0.103224,0.461833,-0.248903,-0.287482,-0.259582,0.192653
63,280944200,-0.846762,-0.100303,0.459391,-0.248787,-0.463513,-0.155840,0.563269
64,280977534,-0.847247,-0.097925,0.459054,-0.248707,0.243722,0.183105,-0.084483
65,281010868,-0.847752,-0.095464,0.458500,-0.248962,-0.505971,-0.536438,0.188613
66,281044202,-0.848615,-0.094028,0.456792,-0.249708,-0.084034,0.474869,0.153853
67,281077536,-0.849211,-0.093453,0.455636,-0.250009,0.622902,-0.027077,-0.001740
68,281110870,-0.849970,-0.093676,0.454299,-0.249777,0.589318,-0.706877,0.142147
69,281144204,-0.851115,-0.093808,0.452453,-0.249180,-0.759282,0.831513,0.332375
70,281177538,-0.851305,-0.095124,0.452049,-0.248765,-0.330605,0.312851,0.000937
71,281210872,-0.850902,-0.098063,0.452056,-0.248989,0.000949,-0.338275,0.104564
72,281244206,-0.849941,-0.102233,0.452854,-0.249146,-0.276988,0.730396,-0.181518
73,281277540,-0.850018,-0.104249,0.453063,-0.247663,0.457788,-0.728427,-0.116949
74,281310874,-0.849430,-0.108270,0.454370,-0.245551,0.408509,0.624912,0.059964
75,281344208,-0.849287,-0.111304,0.455719,-0.242169,0.057209,0.029836,0.496072
76,281377542,-0.848485,-0.114102,0.458564,-0.238276,1.279781,-1.020465,-0.059206
77,281410876,-0.846433,-0.119881,0.462316,-0.235467,-0.523375,0.410486,0.655759
78,281444210,-0.842685,-0.126858,0.468554,-0.232911,0.054843,0.664968,0.129717
79,281477544,-0.838106,-0.133711,0.475460,-0.231603,0.510423,-0.292801,0.739222
80,281510878,-0.833599,-0.140353,0.482076,-0.230256,1.695824,0.770253,-0.875839
81,281544212,-0.830605,-0.145352,0.486237,-0.229222,1.609753,0.406260,-0.709448
82,281577546,-0.831179,-0.146285,0.485573,-0.227955,0.231338,0.190399,-0.615741
83,281610880,-0.833324,-0.144215,0.483212,-0.226450,-2.427686,0.449066,1.406344
84,281644214,-0.833752,-0.143150,0.483577,-0.224770,0.040640,0.498503,-0.237221
85,281677548,-0.833866,-0.142921,0.483495,-0.224667,-0.447306,-0.481284,0.412280
86,281710882,-0.834140,-0.143466,0.483025,-0.224312,-0.307709,0.224521,-0.433703
87,281744216,-0.834617,-0.144159,0.481966,-0.224372,-0.840700,-0.293252,0.589633
88,281777550,-0.835997,-0.143456,0.479681,-0.224582,0.046471,-0.070234,-0.436097
89,281810884,-0.837832,-0.141595,0.477248,-0.224106,-0.973148,0.062241,0.169770
90,281844218,-0.840183,-0.138463,0.474330,-0.223455,-0.563851,0.030875,0.213701
91,281877552,-0.842541,-0.134521,0.472010,-0.221892,-0.377438,-0.313749,0.771073
92,281910886,-0.844029,-0.132542,0.469983,-0.221731,0.464169,-0.222433,-0.711547
93,281944220,-0.845687,-0.130360,0.467254,-0.222474,-1.184326,0.208578,0.684209
94,281977554,-0.848017,-0.125910,0.463991,-0.222998,0.122668,0.280477,0.251374
95,282010888,-0.849696,-0.121981,0.461349,-0.224266,0.690937,-0.070929,-0.638517
96,282044222,-0.851647,-0.117255,0.458165,-0.225908,0.302643,0.062124,-0.552796
97,282077556,-0.853412,-0.112250,0.455190,-0.227796,-0.075448,0.264554,0.760941
98,282110890,-0.854476,-0.107520,0.453286,-0.229876,-0.442900,-0.125849,0.415326
99,282144224,-0.854948,-0.103052,0.451599,-0.233463,-0.391356,1.097129,0.286690
100,282177558,-0.855020,-0.096804,0.451542,-0.235967,1.061747,-0.862471,0.571793
101,282210892,-0.853793,-0.092717,0.453406,-0.238465,1.301442,-0.039270,0.459509
102,282244226,-0.852303,-0.090013,0.456089,-0.239714,0.989470,-0.779566,0.501317
103,282277560,-0.850474,-0.088845,0.458683,-0.241686,0.109888,-0.603283,0.160317
104,282310894,-0.848816,-0.089225,0.459830,-0.245168,0.288309,0.773056,0.002655
105,282344228,-0.847172,-0.088975,0.460537,-0.249578,0.540742,0.969803,-0.156816
106,282377562,-0.846385,-0.086681,0.460497,-0.253109,1.069953,-0.465782,0.442545
107,282410896,-0.847713,-0.082186,0.458375,-0.254013,0.799859,-0.245480,0.203853
108,282444230,-0.849724,-0.076313,0.456105,-0.253208,1.026634,-1.698479,0.701880
109,282477564,-0.851110,-0.072559,0.454465,-0.252607,0.219252,-0.702872,0.400287
110,282510898,-0.851949,-0.070912,0.453013,-0.252853,-0.701406,0.679891,0.063358
111,282544232,-0.851953,-0.069542,0.452765,-0.253665,0.989233,-0.459481,0.334388
112,282577566,-0.852240,-0.067644,0.452055,-0.254478,0.149672,-0.291364,-0.475186
113,282610900,-0.853006,-0.066341,0.450846,-0.254402,-0.449199,0.423836,-0.135369
114,282644234,-0.854302,-0.063875,0.449370,-0.253292,1.321078,-0.267822,0.433115
115,282677568,-0.855776,-0.060277,0.448566,-0.250609,-0.012661,-0.413200,-0.347342
116,282710902,-0.857075,-0.057925,0.448055,-0.247619,-1.080616,0.225274,1.245228
117,282744236,-0.857682,-0.053087,0.449389,-0.244159,1.019944,0.165870,-0.533658
118,282777570,-0.858882,-0.048218,0.449724,-0.240306,-0.379346,-0.086897,0.050399
119,282810904,-0.860718,-0.041885,0.449712,-0.234884,0.151987,0.668359,-0.149462
120,282844238,-0.862709,-0.034906,0.450093,-0.227889,0.110030,-0.325227,-0.092826
121,282877572,-0.864778,-0.028284,0.450543,-0.219933,0.260409,-0.504047,0.294518
122,282910906,-0.866755,-0.021597,0.451257,-0.211277,0.739289,-0.447649,-0.339915
123,282944240,-0.868416,-0.015831,0.452582,-0.201929,0.217229,-0.347807,0.041088
124,282977574,-0.869308,-0.010202,0.455270,-0.192172,-0.114091,-0.804170,-0.463194
125,283010908,-0.869083,-0.006256,0.459783,-0.182366,-0.779335,-0.363875,1.116077
126,283044242,-0.867766,-0.001628,0.465917,-0.172923,-0.276355,1.087189,-0.423331
127,283077576,-0.866313,0.002659,0.471837,-0.163909,0.207907,2.073609,-0.324841
128,283110910,-0.865689,0.006839,0.475653,-0.155857,0.563752,1.492926,-0.146574
129,283144244,-0.865906,0.012131,0.477535,-0.148396,0.838413,-0.524704,0.321718
130,283177578,-0.866345,0.016392,0.478720,-0.141444,0.828706,0.880075,0.108976
131,283210912,-0.866969,0.019510,0.479391,-0.134793,0.666065,0.287430,0.327351
132,283244246,-0.867140,0.021949,0.480618,-0.128819,-0.367064,0.649421,0.127021
133,283277580,-0.867259,0.024947,0.481657,-0.123482,-0.000754,0.023073,0.233687
134,283310914,-0.867835,0.029285,0.481755,-0.117977,0.098962,0.673753,-0.437502
135,283344248,-0.869550,0.034114,0.479763,-0.112018,0.324638,0.247248,-0.124770
136,283377582,-0.872134,0.038246,0.476158,-0.105803,-0.291150,0.579892,0.333943
137,283410916,-0.875920,0.040582,0.470001,-0.101089,0.113620,0.550737,-0.284664
138,283444250,-0.879649,0.044523,0.463834,-0.095373,-1.078021,1.223361,0.241148
139,283477584,-0.882062,0.051219,0.459830,-0.088885,-0.692922,0.589853,-0.178301
140,283510918,-0.884191,0.057470,0.456256,-0.082073,-0.736161,0.489392,0.507012
141,283544252,-0.885519,0.064400,0.453925,-0.075247,-0.211627,0.636763,-0.530533
142,283577586,-0.887151,0.070970,0.450784,-0.068720,-0.443051,1.262348,-0.178959
143,283610920,-0.888335,0.078588,0.448093,-0.062437,-0.219433,0.909573,0.061325
144,283644254,-0.889481,0.085319,0.445370,-0.056484,0.088133,1.269732,0.277318
145,283677588,-0.890817,0.088785,0.442616,-0.051524,1.413451,2.626867,-0.103571
146,283710922,-0.890791,0.090607,0.442706,-0.047908,-0.138837,0.628788,0.340989
147,283744256,-0.889989,0.092075,0.444332,-0.044854,-1.519358,-0.830583,1.012336
148,283777590,-0.887948,0.092980,0.448490,-0.041967,-0.122963,-0.623282,0.443283
149,283810924,-0.885737,0.094172,0.452914,-0.038357,0.405148,0.121386,-0.279839
150,283844258,-0.883980,0.096744,0.456201,-0.033211,0.553572,-0.058484,0.168015
151,283877592,-0.882963,0.101024,0.457703,-0.026078,0.711707,-0.382388,0.362009
152,283910926,-0.883107,0.104889,0.456885,-0.019436,1.004535,-0.302836,0.009691
153,283944260,-0.882998,0.107671,0.456671,-0.013218,0.947577,-0.310484,0.277781
154,283977594,-0.883775,0.107955,0.455209,-0.008547,1.068731,-0.160596,0.153125
155,284010928,-0.884371,0.109278,0.453803,-0.003311,0.381832,0.139671,0.059703
156,284044262,-0.885003,0.111966,0.451918,0.002484,0.351531,-0.010077,0.038577
157,284077596,-0.885525,0.115967,0.449802,0.008792,0.210542,-0.358532,-0.418267
158,284110930,-0.886447,0.118980,0.447021,0.015147,-0.002317,-0.333535,0.183041
159,284144264,-0.887332,0.122207,0.444067,0.022656,0.153590,0.526215,0.008740
160,284177598,-0.887094,0.127044,0.442768,0.029692,-0.966694,-0.324572,0.328526
161,284210932,-0.886803,0.131530,0.441428,0.037729,0.129507,0.930371,-0.168733
162,284244266,-0.886234,0.135867,0.440435,0.046355,-0.133257,-0.029467,0.000576
163,284277600,-0.885754,0.140056,0.439042,0.055393,-0.458592,0.791576,-0.215305
164,284310934,-0.885338,0.144761,0.436986,0.065308,-0.031559,-0.655204,0.461176
165,284344268,-0.885009,0.147858,0.434786,0.076557,0.867100,0.387593,0.299110
166,284377602,-0.883622,0.154054,0.432764,0.090539,0.001539,-0.030014,0.290660
167,284410936,-0.881577,0.161044,0.430894,0.105923,0.112779,-0.643432,0.542643
168,284444270,-0.878771,0.165442,0.431416,0.119468,-0.354973,0.061529,-0.121198
169,284477604,-0.875588,0.167997,0.434106,0.129135,0.496843,1.439454,0.359783
170,284510938,-0.871685,0.173132,0.437000,0.138644,2.600690,0.652466,-0.930997
171,284544272,-0.869012,0.178128,0.436837,0.149208,1.612264,1.543443,-0.184616
172,284577606,-0.867137,0.182473,0.435026,0.159783,1.006063,0.119047,-0.383129
173,284610940,-0.865687,0.183159,0.434514,0.168041,-1.086282,-0.186292,0.543395
174,284644274,-0.864714,0.181560,0.434349,0.175065,0.303320,0.556907,0.185241
175,284677608,-0.862991,0.181999,0.434679,0.182149,0.537819,1.549474,0.599317
176,284710942,-0.861384,0.184778,0.434020,0.188421,-0.010886,0.593559,0.472467
177,284744276,-0.860017,0.189008,0.432308,0.194315,0.394690,0.647088,-0.100400
178,284777610,-0.859409,0.193354,0.428881,0.200230,0.607035,0.267715,0.200908
179,284810944,-0.859628,0.197176,0.423750,0.206393,0.460234,0.428551,-0.073311
180,284844278,-0.860626,0.198324,0.419048,0.210694,0.005730,0.825868,-0.110277
181,284877612,-0.861505,0.199021,0.415245,0.213946,-0.026804,1.551034,0.118077
182,284910946,-0.862780,0.200165,0.410955,0.216014,-0.410850,0.816170,0.101142
183,284944280,-0.863700,0.202520,0.406901,0.217810,0.219225,-0.007231,-0.110958
184,284977614,-0.864451,0.204989,0.403273,0.219264,0.178749,0.951327,0.359431
185,285010948,-0.865139,0.208653,0.398789,0.221284,0.676888,1.438643,0.477906
186,285044282,-0.864647,0.213720,0.396407,0.222648,1.008892,0.359245,0.172223
187,285077616,-0.863106,0.217183,0.397966,0.222495,0.509265,0.027011,0.487261
188,285110950,-0.860932,0.218066,0.402631,0.221660,0.341449,-0.139863,0.221120
189,285144284,-0.858888,0.216984,0.409273,0.218466,-0.234262,-0.736364,-0.324814
190,285177618,-0.858588,0.213905,0.413081,0.215492,0.458687,-1.269419,-0.554848
191,285210952,-0.859387,0.211603,0.412299,0.216078,0.654133,-0.059632,0.262469
192,285244286,-0.860692,0.211303,0.408681,0.218038,0.243951,0.919682,0.363468
193,285277620,-0.861795,0.211924,0.404794,0.220321,0.081077,0.012952,0.989411
194,285310954,-0.862394,0.211141,0.403037,0.221944,0.102837,-0.914281,0.463441
195,285344288,-0.862892,0.208026,0.403251,0.222562,0.101776,-0.132345,-0.211327
196,285377622,-0.864149,0.202995,0.403226,0.222372,-0.620558,-0.598049,0.292181
197,285410956,-0.865196,0.199447,0.402498,0.222831,0.506868,-0.397109,0.125966
198,285444290,-0.866348,0.197504,0.399719,0.225077,0.180145,0.216467,-0.458755
199,285477624,-0.867584,0.195134,0.396911,0.227343,-0.290618,-0.028282,0.150025
200,285510958,-0.868562,0.193109,0.393953,0.230461,-0.570016,0.071302,0.096921
201,285544292,-0.869607,0.189355,0.391699,0.233458,-0.439771,0.667880,0.631512
202,285577626,-0.870234,0.184482,0.391232,0.235792,-0.464274,-0.302800,0.752254
203,285610960,-0.870272,0.178844,0.391979,0.238738,-0.127983,-0.510931,0.279550
204,285644294,-0.870303,0.171261,0.393087,0.242337,0.579396,-1.541194,-0.105591
205,285677628,-0.869597,0.164516,0.393830,0.248264,1.415227,0.168818,-0.714280
206,285710962,-0.867845,0.162736,0.391258,0.259386,0.131884,0.018922,0.832672
207,285744296,-0.865459,0.162543,0.387645,0.272569,-0.560617,-1.166512,0.640861
208,285777630,-0.860357,0.166459,0.386266,0.287885,0.041967,-0.610276,-0.183427
209,285810964,-0.854729,0.169342,0.387380,0.301166,-1.597738,0.598947,0.698085
210,285844298,-0.848579,0.169731,0.394402,0.309120,-0.926618,0.381925,0.977855
211,285877632,-0.843415,0.164407,0.406788,0.310076,0.107919,0.810567,0.265482
212,285910966,-0.838482,0.157990,0.420681,0.308247,2.435997,0.695345,-0.861995
213,285944300,-0.833574,0.156478,0.430720,0.308466,1.192924,-2.436242,-0.518759
214,285977634,-0.829827,0.157397,0.434181,0.313210,1.318057,-0.673428,-0.670263
215,286010968,-0.827154,0.161164,0.433493,0.319263,0.733637,-0.045037,-0.477191
216,286044302,-0.826301,0.159767,0.434203,0.321200,-1.149803,-0.116311,1.075832
217,286077636,-0.826068,0.152612,0.437994,0.320131,-1.322768,-0.248687,0.647386
218,286110970,-0.824910,0.143652,0.443671,0.319445,-0.126913,0.545730,0.442901
219,286144304,-0.822782,0.139805,0.447239,0.321657,1.368987,0.010183,-0.956930
220,286177638,-0.822357,0.139484,0.445012,0.325945,0.558904,0.533765,-0.540768
221,286210972,-0.822830,0.140395,0.440763,0.330106,0.559225,0.432563,0.340054
222,286244306,-0.824123,0.142481,0.434798,0.333875,0.508414,0.429512,-0.451015
223,286277640,-0.826858,0.143059,0.430056,0.333005,-0.399196,0.927291,0.403242
224,286310974,-0.829561,0.143596,0.426651,0.330424,-0.756984,0.283197,0.811926
225,286344308,-0.832205,0.144994,0.423103,0.327716,-0.150096,0.254839,0.526808
226,286377642,-0.834621,0.148010,0.418662,0.325922,0.592934,-0.402714,-0.525949
227,286410976,-0.838060,0.151267,0.412691,0.323205,-0.045995,0.729665,0.280065
228,286444310,-0.841240,0.157738,0.404865,0.321746,0.311222,1.033319,0.328927
229,286477644,-0.844706,0.163260,0.397819,0.318685,-0.728824,-1.185221,0.405545
230,286510978,-0.847731,0.167860,0.392487,0.314850,0.569724,0.225466,0.666803
231,286544312,-0.849268,0.172732,0.390955,0.309941,0.278924,-0.285883,0.852067
232,286577646,-0.849190,0.177779,0.393726,0.303731,-0.077930,-1.418347,1.395530
233,286610980,-0.847727,0.181173,0.398659,0.299346,1.503413,-0.064405,0.369559
234,286644314,-0.844673,0.190397,0.403449,0.295814,0.442287,-0.450166,-0.047807
235,286677648,-0.839911,0.205726,0.407794,0.293144,-0.913379,1.003336,1.394562
236,286710982,-0.832984,0.220792,0.418286,0.287102,-1.238982,0.366764,2.029360
237,286744316,-0.825413,0.238192,0.429293,0.278688,1.520823,0.530538,-0.577194
238,286777650,-0.820787,0.249045,0.436816,0.271070,1.539682,-0.348524,-1.590786
239,286810984,-0.820172,0.248356,0.442547,0.264180,0.706974,-1.998160,-1.313593
240,286844318,-0.823042,0.240372,0.445299,0.257941,0.920362,-1.893506,-1.843882
241,286877652,-0.827252,0.229045,0.445218,0.254902,0.877903,-1.536491,-1.267669
242,286910986,-0.833495,0.211837,0.443090,0.253150,-0.494165,0.010233,0.214759
243,286944320,-0.839736,0.196526,0.440131,0.250015,-1.237287,1.160106,1.402525
244,286977654,-0.844788,0.181502,0.439433,0.245543,-1.191559,1.471320,1.251817
245,287010988,-0.849039,0.164314,0.442162,0.237966,-1.464953,1.150826,1.188602
246,287044322,-0.850069,0.154202,0.446395,0.233105,0.052139,1.057078,-0.124961
247,287077656,-0.849755,0.147751,0.451176,0.229190,0.127650,-0.684653,-0.642523
248,287110990,-0.849795,0.138195,0.456514,0.224383,1.339579,0.298225,-0.808861
249,287144324,-0.850026,0.125808,0.461138,0.221317,1.682940,-1.025148,-0.800866
250,287177658,-0.850736,0.111963,0.462334,0.223520,1.873202,-0.852896,-0.253581
251,287210992,-0.852430,0.094663,0.459589,0.230610,2.344355,-0.712844,-0.428104
252,287244326,-0.851782,0.079631,0.458975,0.239731,-0.051628,1.633185,0.729933
253,287277660,-0.848746,0.068536,0.464414,0.243423,-2.015456,1.636618,1.460588
254,287310994,-0.844912,0.058050,0.475616,0.237792,-1.124407,0.984480,0.560925
255,287344328,-0.841281,0.050326,0.487276,0.228641,1.406172,-0.064327,-0.498079
256,287377662,-0.838246,0.045203,0.497604,0.218384,2.596733,-0.522619,-0.957428
257,287410996,-0.838137,0.043127,0.499501,0.214865,0.765043,0.109728,-1.218881
258,287444330,-0.838134,0.046832,0.498843,0.215629,-1.520872,-1.243100,1.356199
259,287477664,-0.838163,0.050126,0.498744,0.215004,-1.497689,-0.372719,0.682691
260,287510998,-0.838672,0.045916,0.500322,0.210240,-0.820395,0.491062,-0.456944
261,287544332,-0.838927,0.040570,0.502297,0.205558,0.431594,0.162990,0.315097
262,287577666,-0.838856,0.038618,0.503950,0.202152,0.834880,1.055332,-0.429515
263,287611000,-0.839633,0.037495,0.504121,0.198681,-0.039307,-0.830692,0.179981
264,287644334,-0.842680,0.032970,0.501562,0.192979,-0.557140,-1.394495,0.455947
265,287677668,-0.846636,0.027240,0.497650,0.186579,-1.034980,-0.727092,0.564870
266,287711002,-0.850891,0.018239,0.493794,0.178384,-1.275773,-0.029307,0.268822
267,287744336,-0.853953,0.009380,0.491926,0.169368,-0.118001,0.077177,0.272980
268,287777670,-0.856703,0.003401,0.490621,0.159192,-0.164673,-0.754599,0.178757
269,287811004,-0.860025,-0.000302,0.488151,0.148548,0.510201,0.230785,-0.762270
270,287844338,-0.863714,-0.003863,0.484919,0.137255,-0.297554,-0.817666,0.097276
271,287877672,-0.867593,-0.008109,0.481103,0.125530,-0.056223,-0.859075,0.570809
272,287911006,-0.871037,-0.011490,0.478017,0.112533,1.034177,-0.031950,-0.170527
273,287944340,-0.875352,-0.011206,0.473071,0.099192,0.261580,-1.065364,0.397688
274,287977674,-0.879877,-0.010521,0.467128,0.086598,0.494670,-1.329882,-0.191102
275,288011008,-0.884561,-0.008011,0.460201,0.075531,-1.810907,-1.839790,1.371794
276,288044342,-0.886293,-0.011142,0.458921,0.061263,-0.839566,0.567006,0.718960
277,288077676,-0.886387,-0.019680,0.460601,0.042182,-0.275644,-0.118828,-0.058041
278,288111010,-0.886604,-0.031560,0.460836,0.023873,0.904476,0.320265,-0.719477
279,288144344,-0.888201,-0.042562,0.457398,0.008701,-0.891142,-0.493378,0.392810
280,288177678,-0.890385,-0.049711,0.452483,-0.001931,-0.671613,-2.083575,0.516851
281,288211012,-0.892107,-0.057840,0.447959,-0.011596,-0.107249,-0.272820,0.450376
282,288244346,-0.892633,-0.067094,0.445233,-0.021752,-0.372874,0.104635,0.305834
283,288277680,-0.893076,-0.075219,0.442433,-0.031816,-0.273313,-0.924159,-0.377504
284,288311014,-0.893741,-0.084681,0.438395,-0.043218,-0.567866,-0.857904,-0.210156
285,288344348,-0.893997,-0.096506,0.433859,-0.056776,-0.369398,-1.064685,-0.109319
286,288377682,-0.893264,-0.108517,0.430473,-0.070699,-0.168234,-0.857826,-0.106288
287,288411016,-0.893215,-0.118147,0.425739,-0.083407,-0.864450,-1.324744,0.643267
288,288444350,-0.893685,-0.123750,0.421384,-0.091920,-0.124271,-0.463843,0.332282
289,288477684,-0.893939,-0.127447,0.418295,-0.098293,0.514813,-0.171766,0.433747
290,288511018,-0.893618,-0.129688,0.417475,-0.101705,-0.271383,-0.216157,0.644109
291,288544352,-0.892194,-0.131766,0.420027,-0.101030,-1.126147,1.359952,0.772428
292,288577686,-0.890613,-0.127745,0.425708,-0.096252,1.447254,0.434633,-0.760848
293,288611020,-0.888883,-0.123132,0.431984,-0.090089,1.317181,-0.240162,-0.327142
294,288644354,-0.885700,-0.121070,0.440064,-0.084990,0.388204,-0.138495,0.045247
295,288677688,-0.881312,-0.117779,0.450921,-0.078031,-0.420963,-0.263801,0.086104
296,288711022,-0.875432,-0.116184,0.463770,-0.070991,0.223208,-1.416808,-0.117934
297,288744356,-0.868569,-0.123297,0.475180,-0.067764,1.169033,0.151887,-0.216638
298,288777690,-0.862904,-0.130941,0.483599,-0.066224,1.937537,1.981932,0.110335
299,288811024,-0.860442,-0.131402,0.488158,-0.063856,2.198353,0.066645,-0.580655
300,288844358,-0.859598,-0.128916,0.490535,-0.062046,0.812479,0.036877,-0.180006
301,288877692,-0.859873,-0.124511,0.491444,-0.060007,0.103725,-0.145091,0.020077
302,288911026,-0.861007,-0.118034,0.491443,-0.056748,-0.610820,1.359795,0.175825
303,288944360,-0.862136,-0.111323,0.491325,-0.054125,-0.613440,-0.169955,-0.075395
304,288977694,-0.863268,-0.107229,0.490383,-0.052884,-0.699234,-0.747437,0.272676
305,289011028,-0.864646,-0.103412,0.488834,-0.052313,-0.812677,-0.192660,0.894248
306,289044362,-0.865502,-0.100853,0.487922,-0.051662,0.118144,1.520828,-0.312603
307,289077696,-0.867416,-0.096667,0.485436,-0.050973,-0.155276,0.437062,-0.632267
308,289111030,-0.869691,-0.093055,0.482117,-0.050430,-0.980963,0.322728,-0.099470
309,289144364,-0.871610,-0.091081,0.478853,-0.051967,-1.370240,0.137172,0.126236
310,289177698,-0.872769,-0.090276,0.476508,-0.055384,-1.962648,0.865219,0.650735
311,289211032,-0.873621,-0.090129,0.474423,-0.059887,-0.451569,0.806824,-0.007170
312,289244366,-0.874335,-0.090619,0.472485,-0.063923,-0.554374,0.444919,-0.259540
313,289277700,-0.876241,-0.090353,0.468506,-0.067399,-1.902649,-1.018860,0.335655
314,289311034,-0.878113,-0.090998,0.464187,-0.071900,-0.361634,-0.357694,-0.085483
315,289344368,-0.879927,-0.091129,0.460006,-0.076296,-1.096287,0.001436,0.618515
316,289377702,-0.880766,-0.090171,0.458040,-0.079508,0.664522,-0.805905,0.612882
317,289411036,-0.879694,-0.093019,0.458489,-0.085295,0.285668,-0.997328,0.241488
318,289444370,-0.877147,-0.099094,0.460836,-0.091788,1.075093,-0.513050,-0.170098
319,289477704,-0.875093,-0.103986,0.462365,-0.098075,1.061692,-0.468570,-0.256850
320,289511038,-0.874790,-0.108544,0.460714,-0.103465,1.540522,0.510942,-0.360072
321,289544372,-0.876711,-0.107045,0.456935,-0.105505,1.142605,-0.563502,-0.791080
322,289577706,-0.878705,-0.103855,0.453201,-0.108173,1.021456,-1.892853,0.511489
323,289611040,-0.880337,-0.102632,0.449278,-0.112362,0.453828,-0.109642,0.262313
324,289644374,-0.880983,-0.101217,0.447421,-0.115936,-0.257280,-0.369826,0.409575
325,289677708,-0.880411,-0.102637,0.446921,-0.120855,0.275166,-0.977039,0.326549
326,289711042,-0.879588,-0.105365,0.446337,-0.126519,-0.068307,0.293794,-0.500979
327,289744376,-0.879676,-0.106267,0.444130,-0.132772,-0.188138,-0.639433,-0.009808
328,289777710,-0.880672,-0.104432,0.441320,-0.136927,0.268781,0.317429,-0.424884
329,289811044,-0.883209,-0.096741,0.437155,-0.139574,-1.033175,-0.801006,0.075623
330,289844378,-0.884453,-0.093068,0.434190,-0.143392,-1.152224,-0.568879,0.407861
331,289877712,-0.885257,-0.091176,0.431877,-0.146600,-0.856787,-0.317396,0.177948
332,289911046,-0.885393,-0.091937,0.430490,-0.149356,-0.502577,0.084262,-0.062728
333,289944380,-0.884763,-0.094131,0.429373,-0.154838,0.162148,-0.733003,-0.323087
334,289977714,-0.883430,-0.098316,0.428769,-0.161381,-0.421176,-0.149605,0.303523
335,290011048,-0.881854,-0.102746,0.428090,-0.168872,0.391237,-0.657747,1.308563
336,290044382,-0.879989,-0.107292,0.428061,-0.175706,0.850134,-0.289085,-0.150624
337,290077716,-0.877438,-0.115603,0.428308,-0.182461,0.041833,-0.357598,0.305801
338,290111050,-0.872785,-0.125168,0.432012,-0.189596,0.289941,-1.291765,0.941383
339,290144384,-0.866490,-0.130187,0.439862,-0.196900,-0.540095,-0.438330,1.475214
340,290177718,-0.856762,-0.141154,0.451295,-0.205836,-0.107778,0.676335,1.117438
341,290211052,-0.846311,-0.156198,0.461198,-0.216003,1.239334,-0.523678,1.205158
342,290244386,-0.837948,-0.167676,0.469315,-0.222427,3.419915,1.625485,-2.428799
343,290277720,-0.834199,-0.166954,0.475618,-0.223668,3.781579,-0.013156,-1.633290
344,290311054,-0.833846,-0.163278,0.477811,-0.223023,1.831998,0.077266,-0.874088
345,290344388,-0.834144,-0.157695,0.478834,-0.223731,-1.027044,0.270203,0.877563
346,290377722,-0.832295,-0.157128,0.480464,-0.227489,-0.416612,-0.269305,0.428145
347,290411056,-0.829787,-0.165735,0.478869,-0.233817,2.288192,-0.511381,-1.715757
348,290444390,-0.827621,-0.179708,0.473270,-0.242417,-1.530390,0.407843,0.921511
349,290477724,-0.825312,-0.189577,0.468806,-0.251284,-0.994649,0.670861,0.805916
350,290511058,-0.824469,-0.193487,0.463703,-0.260374,-0.505244,-0.627274,0.299169
351,290544392,-0.824876,-0.192174,0.459225,-0.267884,-0.166054,0.196262,0.028584
352,290577726,-0.825710,-0.186779,0.455624,-0.275183,-0.836398,0.029768,-0.787598
353,290611060,-0.825115,-0.183635,0.453526,-0.282453,-0.469625,-0.112044,-0.871570
354,290644394,-0.824447,-0.179253,0.451327,-0.290622,0.591494,-1.705278,1.081858
355,290677728,-0.822641,-0.175489,0.450800,-0.298740,0.561516,-0.456136,0.462910
356,290711062,-0.820874,-0.172607,0.449107,-0.307696,0.153182,0.397440,0.198844
357,290744396,-0.819441,-0.170006,0.446216,-0.317030,0.657843,0.839717,-0.570319
358,290777730,-0.817571,-0.166549,0.443422,-0.327440,0.838050,1.080718,-0.907111
359,290811064,-0.815209,-0.163098,0.440808,-0.338413,0.645454,0.478146,0.677127
360,290844398,-0.810453,-0.161096,0.441242,-0.350030,0.879603,0.040309,0.731836
361,290877732,-0.803578,-0.164448,0.442685,-0.362286,-0.104032,-1.068710,1.302001
362,290911066,-0.796269,-0.171667,0.443465,-0.373933,1.568823,-1.204200,-0.043376
363,290944400,-0.790415,-0.178356,0.443198,-0.383419,1.352118,-0.155871,-1.451765
364,290977734,-0.786455,-0.182075,0.442276,-0.390808,0.345057,0.790377,-0.953353
365,291011068,-0.783661,-0.182921,0.441383,-0.396985,-0.014060,1.382621,-0.220534
366,291044402,-0.781004,-0.183304,0.439594,-0.403970,0.069968,-0.305376,0.697059
367,291077736,-0.777685,-0.185995,0.437060,-0.411816,-1.115466,-0.804775,0.083936
368,291111070,-0.775104,-0.188759,0.433766,-0.418847,-1.111750,-0.671776,0.282084
369,291144404,-0.772888,-0.188885,0.431288,-0.425394,0.555895,-0.568106,-0.209166
370,291177738,-0.773101,-0.187371,0.427458,-0.429522,-1.836739,0.090153,-0.204474
371,291211072,-0.773736,-0.186106,0.422916,-0.433407,-0.042446,-1.364693,1.015851
372,291244406,-0.773654,-0.184485,0.418371,-0.438625,-0.578450,-0.989298,0.053267
373,291277740,-0.773487,-0.184445,0.414236,-0.442842,-0.906376,-1.058054,1.207024
374,291311074,-0.773391,-0.185975,0.412074,-0.444382,-0.938650,-0.239269,0.354735
375,291344408,-0.772772,-0.190213,0.410367,-0.445245,-0.495261,0.616693,0.223245
376,291377742,-0.769884,-0.198339,0.407550,-0.449271,1.846855,0.035163,-0.111499
377,291411076,-0.766667,-0.207260,0.403134,-0.454698,0.902781,-0.718634,0.529149
378,291444410,-0.763945,-0.215897,0.399904,-0.458100,0.649135,0.840449,-0.795865
379,291477744,-0.762039,-0.221597,0.399591,-0.458824,1.584108,1.278085,-1.070927
380,291511078,-0.759916,-0.227171,0.400045,-0.459225,-0.562552,-0.186989,1.066061
381,291544412,-0.755042,-0.235995,0.401767,-0.461306,-1.019784,-0.131032,0.954759
382,291577746,-0.747354,-0.250772,0.403275,-0.464701,1.091527,-0.350746,1.069519
383,291611080,-0.741204,-0.265868,0.402083,-0.467184,1.468010,1.550736,-1.574300
384,291644414,-0.740244,-0.272096,0.400345,-0.466613,2.073424,1.353860,-0.895989
385,291677748,-0.741604,-0.273751,0.397749,-0.465704,1.650772,0.705273,-0.593874
386,291711082,-0.742568,-0.274374,0.395288,-0.465898,-0.870368,0.033773,0.004768
387,291744416,-0.740407,-0.277343,0.394808,-0.467981,0.872009,-0.369321,0.302712
388,291777750,-0.736664,-0.283450,0.392976,-0.471756,1.007802,-0.412631,0.159624
389,291811084,-0.733379,-0.290618,0.389003,-0.475788,0.704969,0.412375,0.541103
390,291844418,-0.733151,-0.293109,0.385780,-0.477234,-0.131414,0.642327,-0.457100
391,291877752,-0.734800,-0.291948,0.383618,-0.477152,-0.827141,0.601766,-0.444293
392,291911086,-0.736002,-0.290052,0.381643,-0.478039,-0.253300,-0.414022,0.510773
393,291944420,-0.735753,-0.290533,0.378815,-0.480374,0.042421,-0.701514,0.728718
394,291977754,-0.734959,-0.292541,0.375842,-0.482701,-0.351577,-0.443257,0.090315
395,292011088,-0.733434,-0.295180,0.372028,-0.486354,0.367743,-0.410196,-1.011643
396,292044422,-0.732223,-0.296860,0.367108,-0.490874,-0.735396,-0.015851,0.065801
397,292077756,-0.732234,-0.296484,0.363419,-0.493821,0.286203,0.105350,0.900454
398,292111090,-0.732101,-0.295858,0.360217,-0.496730,-0.424381,0.090206,0.048266
399,292144424,-0.731235,-0.294897,0.355971,-0.501615,0.796099,-0.225744,0.187492
400,292177758,-0.729994,-0.292692,0.353002,-0.506785,0.048462,-0.339734,-0.526283
401,292211092,-0.728886,-0.289400,0.352141,-0.510854,0.551161,0.162434,-0.387597
402,292244426,-0.725826,-0.287306,0.352517,-0.516106,1.135491,0.222757,0.205906
403,292277760,-0.722456,-0.286073,0.354812,-0.519932,0.075023,0.208366,-0.608900
404,292311094,-0.717281,-0.290748,0.355701,-0.523882,-0.227315,-0.777881,0.948593
405,292344428,-0.710634,-0.298587,0.355505,-0.528643,2.286675,0.835270,-0.366063
406,292377762,-0.704751,-0.304416,0.354145,-0.534079,0.337332,1.385474,-1.211110
407,292411096,-0.700174,-0.307613,0.352122,-0.539576,0.382504,1.739929,-0.605496
408,292444430,-0.698442,-0.305754,0.351179,-0.543478,-0.974047,0.765111,0.712317
409,292477764,-0.697855,-0.302373,0.352045,-0.545560,0.609818,-0.371675,0.675499
410,292511098,-0.694717,-0.305396,0.351160,-0.548443,0.774141,-0.668187,0.554675
411,292544432,-0.690371,-0.310705,0.349476,-0.552013,0.794891,-1.324628,0.895772
412,292577766,-0.686172,-0.316608,0.346841,-0.555545,-0.168479,0.754467,-0.472588
413,292611100,-0.682971,-0.320471,0.343383,-0.559409,-0.182141,0.456870,-0.523427
414,292644434,-0.682163,-0.321523,0.340701,-0.561427,-1.177157,-0.065325,-0.402929
415,292677768,-0.682180,-0.321067,0.338171,-0.563195,0.402736,-1.432992,1.058324
416,292711102,-0.682827,-0.318847,0.336438,-0.564707,0.961437,-0.776357,-0.177954
417,292744436,-0.684016,-0.318258,0.333903,-0.565105,-0.339431,-0.915852,0.848680
418,292777770,-0.684003,-0.320048,0.331531,-0.565507,0.175389,0.012145,0.332243
419,292811104,-0.684743,-0.321093,0.329266,-0.565342,-0.082206,-0.699832,1.391656
420,292844438,-0.683941,-0.323194,0.325821,-0.567109,0.110874,0.943603,0.087384
421,292877772,-0.681784,-0.326511,0.321591,-0.570212,2.534830,0.827225,-0.187682
422,292911106,-0.679951,-0.331162,0.316641,-0.572484,0.908581,0.511823,0.550726
423,292944440,-0.678516,-0.337270,0.313651,-0.572268,0.067358,0.214312,0.534129
424,292977774,-0.676213,-0.344416,0.311360,-0.571987,0.670305,0.552137,-0.315095
425,293011108,-0.673055,-0.352489,0.310845,-0.571074,1.486574,1.573622,-0.824221
426,293044442,-0.667674,-0.363137,0.309668,-0.571358,0.952884,-1.161054,1.357070
427,293077776,-0.659897,-0.377529,0.307091,-0.572455,0.456852,0.258310,0.560349
428,293111110,-0.653155,-0.389848,0.305383,-0.572844,0.645010,3.103308,-1.087531
429,293144444,-0.651076,-0.394623,0.305719,-0.571761,-0.100610,2.352818,-1.502405
430,293177778,-0.650835,-0.394383,0.306493,-0.571786,0.159201,-0.120395,-0.072779
431,293211112,-0.649978,-0.394925,0.306490,-0.572388,-0.191962,-0.546826,0.061693
432,293244446,-0.647030,-0.397432,0.306335,-0.574073,0.968040,-0.580239,0.137956
433,293277780,-0.643821,-0.400934,0.304763,-0.576079,-0.062920,-0.355488,-0.425283
434,293311114,-0.641741,-0.401991,0.302922,-0.578629,1.488796,-0.578411,-0.066574
435,293344448,-0.641292,-0.400711,0.300642,-0.581198,-0.820702,-0.267607,0.540108
436,293377782,-0.642267,-0.397674,0.298720,-0.583195,-0.702525,-1.304397,0.336241
437,293411116,-0.642484,-0.395201,0.296026,-0.586004,0.159260,-0.491423,-0.189094
438,293444450,-0.642352,-0.392662,0.292391,-0.589669,-1.190825,-0.970995,0.274843
439,293477784,-0.642774,-0.389332,0.289278,-0.592944,-0.021427,-0.616549,-0.813620
440,293511118,-0.641757,-0.387466,0.285747,-0.596966,-0.903127,-0.593489,0.069407
441,293544452,-0.640797,-0.384189,0.282383,-0.601697,0.884857,0.113263,0.977029
442,293577786,-0.639013,-0.381271,0.278885,-0.607058,-1.330530,-0.116404,-0.692316
443,293611120,-0.637910,-0.376472,0.276240,-0.612399,-0.659482,0.337608,-0.598117
444,293644454,-0.636527,-0.370981,0.275281,-0.617599,0.783879,-0.252229,0.193718
445,293677788,-0.634759,-0.364267,0.275684,-0.623210,0.411903,0.292389,-0.513363
446,293711122,-0.631894,-0.360115,0.278239,-0.627385,-0.293576,1.086038,-0.706894
447,293744456,-0.626845,-0.358874,0.281422,-0.631726,1.547914,1.183710,-0.428840
448,293777790,-0.620103,-0.361934,0.282077,-0.636325,1.269791,0.296895,1.407081
449,293811124,-0.613544,-0.367069,0.281880,-0.639821,1.178143,1.077764,-0.502293
450,293844458,-0.608100,-0.371133,0.279917,-0.643524,-0.329459,1.179046,-1.024158
451,293877792,-0.603559,-0.371849,0.278907,-0.647810,-0.442818,1.406208,-0.614272
452,293911126,-0.601077,-0.368163,0.279167,-0.652096,-0.601500,0.825835,-0.639503
453,293944460,-0.598741,-0.364884,0.279900,-0.655764,0.293111,0.003921,0.371089
454,293977794,-0.596398,-0.362801,0.279780,-0.659097,0.370005,-0.488762,-0.091352
455,294011128,-0.593440,-0.362853,0.278740,-0.662172,0.135445,-0.622892,0.797844
456,294044462,-0.590064,-0.364272,0.277213,-0.665045,-0.107387,0.424128,-0.632628
457,294077796,-0.588134,-0.364007,0.275239,-0.667715,0.385976,-0.373391,0.807232
458,294111130,-0.587621,-0.362668,0.274400,-0.669238,-1.740958,-0.049405,-0.641926
459,294144464,-0.586698,-0.360465,0.273941,-0.671422,1.288893,0.307790,0.131132
460,294177798,-0.586535,-0.357703,0.273931,-0.673044,0.700624,-0.796528,0.156177
461,294211132,-0.587227,-0.354720,0.273807,-0.674070,-0.455801,-0.661589,0.243421
462,294244466,-0.586968,-0.352582,0.274357,-0.675192,0.469371,0.522790,-1.112828
463,294277800,-0.586808,-0.351609,0.272862,-0.676444,-0.012834,-0.076143,0.345939
464,294311134,-0.588214,-0.351023,0.271409,-0.676111,-1.681918,0.085150,0.283829
465,294344468,-0.589058,-0.350589,0.271133,-0.675712,-0.234296,1.145447,-0.786662
466,294377802,-0.589231,-0.352353,0.269687,-0.675222,-0.122646,0.505109,0.203612
467,294411136,-0.589072,-0.355265,0.268971,-0.674119,-0.608139,0.667706,0.546566
468,294444470,-0.588033,-0.358796,0.270304,-0.672622,-0.022151,0.733997,-0.452827
469,294477804,-0.585911,-0.363470,0.272423,-0.671108,0.690685,1.355520,-0.194898
470,294511138,-0.582048,-0.371334,0.273638,-0.669668,-0.514322,-0.084517,0.427208
471,294544472,-0.576689,-0.381418,0.273242,-0.668798,-0.363882,0.054670,0.762740
472,294577806,-0.572761,-0.388094,0.274508,-0.667814,0.027321,2.856130,-0.872806
473,294611140,-0.572741,-0.388116,0.277726,-0.666486,-0.337467,1.817786,-0.941087
474,294644474,-0.574786,-0.384276,0.280976,-0.665588,0.667916,-0.410026,0.540962
475,294677808,-0.575731,-0.382427,0.283538,-0.664749,-0.743118,-1.389773,0.817595
476,294711142,-0.575307,-0.382513,0.285917,-0.664047,0.192212,-0.438258,0.074868
477,294744476,-0.573553,-0.383622,0.286553,-0.664651,-0.034753,-0.354691,0.679245
478,294777810,-0.572592,-0.383360,0.287016,-0.665430,0.662789,0.239926,0.182459
479,294811144,-0.573503,-0.381649,0.287501,-0.665420,-0.207346,0.331782,-0.141626
480,294844478,-0.575859,-0.377255,0.287642,-0.665829,-0.465212,-0.413365,0.783316
481,294877812,-0.576987,-0.372779,0.287918,-0.667253,-1.419156,0.285255,-0.312898
482,294911146,-0.577770,-0.369504,0.287065,-0.668764,-1.176118,-0.249536,0.084820
483,294944480,-0.577625,-0.365617,0.286222,-0.671381,1.811997,-0.452826,0.245396
484,294977814,-0.576851,-0.362193,0.284925,-0.674447,1.581620,-0.714994,0.692285
485,295011148,-0.575309,-0.360235,0.283063,-0.677589,-0.775872,-0.335631,-0.310786
486,295044482,-0.573807,-0.357861,0.281963,-0.680572,-0.168972,0.395455,-0.214954
487,295077816,-0.572075,-0.354959,0.280869,-0.683995,-1.808034,-0.108325,-0.047897
488,295111150,-0.569504,-0.350398,0.280750,-0.688525,0.262048,0.694153,0.660752
489,295144484,-0.566469,-0.346937,0.281244,-0.692568,-0.296643,1.011063,0.339542
490,295177818,-0.563360,-0.342492,0.282999,-0.696590,2.297239,1.740114,0.940405
491,295211152,-0.560177,-0.342645,0.283989,-0.698676,-1.952372,-0.069732,0.918558
492,295244486,-0.554917,-0.348221,0.283426,-0.700343,0.061521,0.918024,-0.380756
493,295277820,-0.548279,-0.355326,0.280994,-0.702978,1.628709,1.311718,0.104092
494,295311154,-0.543732,-0.360195,0.278494,-0.705023,-0.322290,1.902965,-0.839437
495,295344488,-0.541005,-0.360916,0.277703,-0.707061,-0.996142,0.857125,-0.999632
496,295377822,-0.538952,-0.358893,0.277355,-0.709790,-0.449152,-0.093582,1.135386
497,295411156,-0.535934,-0.358673,0.276770,-0.712410,0.045579,0.800643,0.321671
498,295444490,-0.533871,-0.359504,0.275167,-0.714158,-0.088568,-1.145552,0.873706
499,295477824,-0.531173,-0.362286,0.273631,-0.715354,1.106570,0.478255,0.366583
500,295511158,-0.529382,-0.363733,0.272422,-0.716409,-1.004562,0.026259,-0.837600
501,295544492,-0.528986,-0.362278,0.271317,-0.717856,0.359853,-0.359609,-0.516409
502,295577826,-0.529376,-0.360082,0.270493,-0.718983,0.054633,0.154408,0.240017
503,295611160,-0.529912,-0.357612,0.269517,-0.720187,0.052875,-0.314328,-0.656536
504,295644494,-0.530813,-0.354691,0.267548,-0.721701,-0.135353,-1.023799,1.095371
505,295677828,-0.532038,-0.352717,0.266190,-0.722268,0.055925,-0.131567,1.201506
506,295711162,-0.532954,-0.353117,0.265046,-0.721817,0.173670,0.701779,-0.044003
507,295744496,-0.533823,-0.353830,0.263864,-0.721259,-0.138116,0.235022,-1.081378
508,295777830,-0.534195,-0.355661,0.261406,-0.720978,0.237825,1.486001,0.563027
509,295811164,-0.534226,-0.359297,0.258472,-0.720209,0.014360,0.657406,-0.211163
510,295844498,-0.533413,-0.363975,0.256096,-0.719311,0.609311,1.550176,-0.561605
511,295877832,-0.534568,-0.366882,0.256158,-0.716951,-0.792924,0.818332,-0.448874
512,295911166,-0.534815,-0.372423,0.257663,-0.713362,-1.168588,0.943859,-0.799113
513,295944500,-0.531564,-0.381822,0.256472,-0.711249,-1.132551,-0.814011,1.024143
514,295977834,-0.524894,-0.395557,0.254940,-0.709245,-0.272068,1.243982,0.367093
515,296011168,-0.516857,-0.408102,0.250808,-0.709513,-0.274628,4.003558,-1.753116
516,296044502,-0.514589,-0.412177,0.247452,-0.709984,-2.093464,2.617301,-1.464490
517,296077836,-0.514463,-0.409698,0.246554,-0.711820,-0.118117,-0.254279,-0.032936
518,296111170,-0.514026,-0.406874,0.246189,-0.713879,-0.479702,-0.308445,-0.106712
519,296144504,-0.514064,-0.403753,0.246643,-0.715465,0.883868,-1.329353,0.859698
520,296177838,-0.513945,-0.402629,0.249179,-0.715305,0.462942,-1.417532,1.029356
521,296211172,-0.514021,-0.402040,0.252252,-0.714505,0.732577,-0.216173,-0.154422
522,296244506,-0.513707,-0.400270,0.253972,-0.715114,0.021276,-0.089082,-0.231445
523,296277840,-0.513751,-0.396027,0.255803,-0.716791,-0.055815,-0.283412,-0.038389
524,296311174,-0.513640,-0.390349,0.257367,-0.719421,0.305573,-0.610574,0.004502
525,296344508,-0.513053,-0.385880,0.257662,-0.722139,-0.459366,-0.772500,0.373062
526,296377842,-0.511897,-0.380580,0.257848,-0.725697,-0.169196,-0.832958,0.138832
527,296411176,-0.509930,-0.374075,0.258203,-0.730324,0.817888,-0.819926,0.782587
528,296444510,-0.507507,-0.368422,0.258270,-0.734847,-0.155416,0.610368,0.238729
529,296477844,-0.504348,-0.362507,0.256982,-0.740394,1.394076,1.854077,0.662512
530,296511178,-0.501464,-0.355522,0.255475,-0.746239,-1.329916,-0.106259,-0.331332
531,296544512,-0.499185,-0.348981,0.256689,-0.750426,-2.346891,0.124507,-1.451756
532,296577846,-0.493673,-0.345594,0.257164,-0.755460,-0.517499,-0.222982,0.433178
533,296611180,-0.486942,-0.348571,0.258867,-0.757876,-0.082247,0.830714,0.793382
534,296644514,-0.479910,-0.355888,0.258779,-0.758990,-0.285444,0.455237,0.631229
535,296677848,-0.473213,-0.362241,0.259830,-0.759829,-1.311361,1.914912,-1.966057
536,296711182,-0.470731,-0.361924,0.261625,-0.760905,0.030697,2.109844,-0.453257
537,296744516,-0.468544,-0.361394,0.260064,-0.763040,0.581669,-0.256228,1.304452
538,296777850,-0.464604,-0.364443,0.259853,-0.764070,-0.736713,-0.053982,0.543398
539,296811184,-0.459805,-0.370622,0.258403,-0.764491,-0.497977,0.094561,-0.166529
540,296844518,-0.454972,-0.375206,0.256934,-0.765642,-0.284726,-0.163354,-0.987148
541,296877852,-0.451892,-0.375849,0.255268,-0.767705,-0.669729,-0.288438,-0.218843
542,296911186,-0.450638,-0.375158,0.252773,-0.769603,0.532053,1.085537,0.391424
543,296944520,-0.450438,-0.373446,0.249929,-0.771479,1.318032,-1.114741,1.080344
544,296977854,-0.449937,-0.373071,0.247784,-0.772644,1.379354,-0.114777,0.892784
545,297011188,-0.451104,-0.372312,0.246253,-0.772819,-0.468629,-0.689981,0.403337
546,297044522,-0.452116,-0.373151,0.244767,-0.772295,-1.143768,0.230776,-0.984864
547,297077856,-0.453079,-0.373016,0.241810,-0.772728,0.306770,-0.713744,0.878090
548,297111190,-0.454095,-0.372769,0.240540,-0.772646,0.404262,0.767191,0.655097
549,297144524,-0.455755,-0.375287,0.239578,-0.770747,-1.235485,0.433136,-0.600746
550,297177858,-0.457276,-0.378813,0.237126,-0.768877,1.302161,1.313101,0.300352
551,297211192,-0.458657,-0.382139,0.235223,-0.766991,0.051915,-0.281421,0.796665
552,297244526,-0.461297,-0.387565,0.236807,-0.762183,-0.878604,2.339607,0.006348
553,297277860,-0.462245,-0.394268,0.236879,-0.758138,-0.949275,1.233501,-0.160777
554,297311194,-0.460115,-0.403261,0.235422,-0.755151,1.211502,0.114033,0.961172
555,297344528,-0.456898,-0.412656,0.234339,-0.752361,-1.124781,1.111298,-0.112688
556,297377862,-0.456151,-0.417285,0.233762,-0.750437,-1.256274,2.352046,-1.321629
557,297411196,-0.457045,-0.418552,0.231474,-0.749897,0.033816,1.553587,-0.115888
558,297444530,-0.459224,-0.418595,0.228657,-0.749406,2.205866,0.841509,2.367353
559,297477864,-0.461216,-0.419648,0.227855,-0.747836,0.254963,-0.154149,1.072859
560,297511198,-0.461649,-0.423485,0.226924,-0.745686,-0.792497,-0.276091,0.069263
561,297544532,-0.460970,-0.427365,0.225316,-0.744379,-0.386964,-0.232862,-0.077804
562,297577866,-0.460446,-0.428664,0.224252,-0.744278,0.162850,0.151838,0.532275
563,297611200,-0.460400,-0.426950,0.224071,-0.745345,-0.094940,-0.342821,-0.387681
564,297644534,-0.462429,-0.423055,0.224128,-0.746292,0.389898,-0.267117,0.012068
565,297677868,-0.464850,-0.419866,0.224158,-0.746580,-0.633841,-1.377226,0.049585
566,297711202,-0.466276,-0.417306,0.223781,-0.747239,0.707136,-0.817179,0.490565
567,297744536,-0.466563,-0.414946,0.223591,-0.748430,-0.219782,-0.613167,-0.246913
568,297777870,-0.466677,-0.411418,0.222686,-0.750573,-0.507042,-0.727504,-0.089910
569,297811204,-0.465658,-0.408230,0.221623,-0.753257,-0.140381,1.375955,-0.002300
570,297844538,-0.464370,-0.401401,0.221206,-0.757830,-0.890548,-0.114568,-0.656486
571,297877872,-0.463798,-0.393609,0.222742,-0.761808,-0.892214,0.269397,-0.691488
572,297911206,-0.462313,-0.386376,0.224818,-0.765793,-0.169491,0.725112,-0.446832
573,297944540,-0.460757,-0.380457,0.228238,-0.768677,-0.639557,0.529086,-0.657784
574,297977874,-0.457580,-0.377669,0.230930,-0.771142,0.088033,-0.014530,1.561522
575,298011208,-0.452725,-0.380119,0.233880,-0.771914,-1.051162,0.749357,0.403461
576,298044542,-0.446246,-0.386044,0.235025,-0.772399,-0.189264,1.243951,0.066752
577,298077876,-0.440668,-0.390789,0.235623,-0.773033,-0.882670,0.817168,-0.732158
578,298111210,-0.436161,-0.393240,0.236912,-0.773951,-1.234123,0.688007,-1.056337
579,298144544,-0.433457,-0.394022,0.238292,-0.774649,-1.528875,0.060557,-0.062928
580,298177878,-0.430910,-0.393893,0.240076,-0.775584,0.043680,1.801152,-0.009204
581,298211212,-0.427866,-0.395358,0.239500,-0.776701,-0.011102,0.332118,-0.016435
582,298244546,-0.424298,-0.398382,0.235555,-0.778318,1.753855,0.238213,1.727167
583,298277880,-0.423348,-0.400705,0.232780,-0.778477,-0.517123,-0.423119,-1.214526
584,298311214,-0.422914,-0.403049,0.231212,-0.777970,-1.040211,0.415317,-0.353262
585,298344548,-0.422969,-0.401757,0.231593,-0.778495,-1.003213,0.775063,-0.548373
586,298377882,-0.424723,-0.397897,0.232214,-0.779337,-0.816006,-0.899595,0.480781
587,298411216,-0.426152,-0.393940,0.232813,-0.780388,0.912727,1.099686,1.190039
588,298444550,-0.427589,-0.390567,0.232281,-0.781455,0.440166,-0.395643,0.808598
589,298477884,-0.430034,-0.388666,0.232706,-0.780935,-0.789189,0.110055,-0.198138
590,298511218,-0.433336,-0.387164,0.232125,-0.780028,-0.752701,-0.895201,0.264368
591,298544552,-0.436230,-0.387890,0.230566,-0.778515,-0.240494,-0.851543,0.307069
592,298577886,-0.438787,-0.389094,0.228545,-0.777072,0.142978,0.609781,0.126290
593,298611220,-0.441627,-0.391702,0.227049,-0.774588,0.935999,1.826308,0.267776
594,298644554,-0.444914,-0.394929,0.225023,-0.771653,-0.798002,-0.065853,-0.117937
595,298677888,-0.447890,-0.396666,0.225423,-0.768919,-0.166922,0.848433,0.184442
596,298711222,-0.449693,-0.401979,0.226032,-0.764918,-0.115323,1.459463,0.982551
597,298744556,-0.450578,-0.409257,0.225264,-0.760754,-0.116424,-0.310572,0.519114
598,298777890,-0.450927,-0.416936,0.225332,-0.756344,-0.785198,0.255588,0.152387
599,298811224,-0.450883,-0.424231,0.224984,-0.752407,-2.280940,1.193356,-0.414324
600,298844558,-0.451930,-0.427913,0.226041,-0.749371,-0.621215,2.777514,-1.593112
601,298877892,-0.455355,-0.427773,0.226846,-0.747131,-2.039715,-0.577552,-0.530656
602,298911226,-0.459286,-0.426785,0.228129,-0.744896,0.186481,-0.688906,1.019660
603,298944560,-0.461428,-0.427828,0.230256,-0.742314,-0.747607,-0.355851,-0.322434
604,298977894,-0.461708,-0.428963,0.230477,-0.741416,-0.012741,-1.047994,0.745730
605,299011228,-0.463704,-0.429103,0.231214,-0.739859,-1.152133,-0.746339,-0.196807
606,299044562,-0.466140,-0.427723,0.231122,-0.739156,-0.562666,-0.733928,0.401999
607,299077896,-0.468814,-0.424502,0.231099,-0.739329,-0.264765,-0.578886,-0.051211
608,299111230,-0.471106,-0.420120,0.230551,-0.740544,1.795565,-0.483820,1.891154
609,299144564,-0.472700,-0.416629,0.229900,-0.741703,-0.410926,0.086048,0.155364
610,299177898,-0.474198,-0.413728,0.228942,-0.742666,0.032702,0.841612,-0.009370
611,299211232,-0.475349,-0.409112,0.227575,-0.744903,-0.012721,-0.287592,-0.237542
612,299244566,-0.475724,-0.405197,0.226579,-0.747104,-0.424938,-0.970319,0.363107
613,299277900,-0.474606,-0.403106,0.225010,-0.749418,0.285943,0.759887,0.755612
614,299311234,-0.471862,-0.401671,0.223096,-0.752487,0.547406,1.653634,0.651257
615,299344568,-0.468747,-0.399762,0.221897,-0.755797,-0.421024,0.920156,0.663478
616,299377902,-0.467470,-0.396792,0.224168,-0.757481,-1.872061,1.491048,-0.502278
617,299411236,-0.463936,-0.395808,0.226680,-0.759419,0.296006,1.715328,0.402599
618,299444570,-0.458727,-0.398854,0.227967,-0.760604,-0.778750,-0.161683,1.045079
619,299477904,-0.453315,-0.404251,0.229268,-0.760608,-0.892437,0.208664,0.330932
620,299511238,-0.445052,-0.411627,0.228599,-0.761732,0.510697,1.195061,-0.546283
621,299544572,-0.438906,-0.416787,0.227380,-0.762856,-1.734071,0.388477,-0.901436
622,299577906,-0.436536,-0.416466,0.227828,-0.764256,-0.897546,0.836457,-0.555343
623,299611240,-0.434120,-0.415731,0.228004,-0.765979,-0.126262,0.346508,-0.413272
624,299644574,-0.432781,-0.413734,0.226734,-0.768191,1.052422,-0.865516,0.872057
625,299677908,-0.432542,-0.413599,0.226527,-0.768460,-0.472554,-1.344862,0.219519
626,299711242,-0.431106,-0.414929,0.224814,-0.769053,0.432640,0.073429,0.997188
627,299744576,-0.428929,-0.416678,0.222569,-0.769977,-0.356196,0.463755,-0.400420
628,299777910,-0.429435,-0.416079,0.220432,-0.770633,-1.081609,-1.109905,-1.151319
629,299811244,-0.430006,-0.415023,0.218256,-0.771503,0.702968,-0.558773,0.400316
630,299844578,-0.431212,-0.411955,0.216850,-0.772869,0.165483,0.287238,-0.406072
631,299877912,-0.433207,-0.409514,0.214627,-0.773671,-0.527480,-0.115347,0.232613
632,299911246,-0.434886,-0.407702,0.211954,-0.774423,-0.071203,-0.246981,-0.059854
633,299944580,-0.437030,-0.405811,0.209407,-0.774902,0.114483,0.009183,0.070070
634,299977914,-0.440098,-0.403459,0.207552,-0.774892,-0.691077,0.296452,-0.434196
635,300011248,-0.443376,-0.402760,0.206360,-0.773705,-0.243137,1.322025,-0.181793
636,300044582,-0.446920,-0.404056,0.203998,-0.771614,-0.808929,1.208064,-0.024499
637,300077916,-0.449668,-0.406927,0.200177,-0.769506,-0.296284,1.597456,-0.227568
638,300111250,-0.452955,-0.410124,0.197556,-0.766553,0.624450,1.860807,1.137116
639,300144584,-0.454495,-0.415969,0.197669,-0.762451,-0.074160,2.304376,0.452134
640,300177918,-0.452552,-0.424922,0.197345,-0.758745,0.063869,-0.528037,1.107784
641,300211252,-0.448634,-0.434582,0.198003,-0.755422,-1.983586,-0.216736,0.221952
642,300244586,-0.445078,-0.442613,0.201206,-0.752009,-1.152260,3.239406,-1.168479
643,300277920,-0.446451,-0.443459,0.206424,-0.749277,-0.832907,1.639295,-0.914765
644,300311254,-0.450848,-0.439497,0.213941,-0.746866,-0.182876,0.269576,-0.280195
645,300344588,-0.455761,-0.434249,0.221853,-0.744643,0.083890,-0.931710,0.215590
646,300377922,-0.457917,-0.432363,0.227768,-0.742629,-1.368600,-1.457420,-0.431935
647,300411256,-0.457067,-0.433119,0.230372,-0.741908,0.413808,-0.432447,0.925250
648,300444590,-0.456735,-0.433031,0.232909,-0.741372,0.729066,-0.463894,-0.538233
649,300477924,-0.458150,-0.429874,0.234786,-0.741745,0.309518,-0.383918,0.586860
650,300511258,-0.462743,-0.424246,0.237214,-0.741360,-1.394799,-1.490927,-0.434881
651,300544592,-0.466061,-0.417638,0.239676,-0.742242,1.195143,-0.869166,0.087965
652,300577926,-0.469887,-0.409825,0.241439,-0.743612,-0.337512,-2.762600,0.199556
653,300611260,-0.474355,-0.401695,0.244294,-0.744278,-0.652012,-0.715746,0.201460
654,300644594,-0.478009,-0.394305,0.246012,-0.745326,-0.808035,-0.374269,-1.097586
655,300677928,-0.480529,-0.386454,0.244490,-0.748313,-0.340511,-1.300167,0.565569
656,300711262,-0.483416,-0.378025,0.244579,-0.750725,0.069627,-0.293213,0.334345
657,300744596,-0.484904,-0.372103,0.244217,-0.752840,-0.925197,-0.346800,-0.189698
658,300777930,-0.485842,-0.367213,0.243731,-0.754791,-0.702704,0.460770,-0.314643
659,300811264,-0.485549,-0.361439,0.242648,-0.758108,-0.595090,-0.276974,-0.239406
660,300844598,-0.484852,-0.359437,0.243728,-0.759159,-1.089019,0.745125,0.693407
661,300877932,-0.481596,-0.360984,0.243255,-0.760647,0.210823,0.086664,1.441165
662,300911266,-0.476697,-0.366647,0.243146,-0.761059,0.855137,1.268650,0.407004
663,300944600,-0.470773,-0.373387,0.241027,-0.762143,0.037395,1.729214,-0.428441
664,300977934,-0.465627,-0.378020,0.238608,-0.763780,-1.935830,1.343598,-2.228592
665,301011268,-0.462189,-0.379788,0.236063,-0.765780,-1.760704,0.105761,0.146890
666,301044602,-0.458589,-0.379833,0.233502,-0.768701,-0.378376,-0.988811,0.042306
667,301077936,-0.455190,-0.380386,0.231705,-0.770988,-0.796570,-0.329562,0.493370
668,301111270,-0.451393,-0.382641,0.229855,-0.772657,-0.897393,0.504460,-1.108456
669,301144604,-0.447539,-0.385238,0.226323,-0.774648,0.656782,0.455784,-0.002818
670,301177938,-0.443720,-0.387896,0.222024,-0.776760,0.618984,-0.077860,-0.379110
671,301211272,-0.440171,-0.389983,0.218076,-0.778850,0.191761,-0.307297,-0.442758
672,301244606,-0.437384,-0.391023,0.214339,-0.780933,-0.587444,0.376401,-0.573641
673,301277940,-0.434818,-0.389254,0.210085,-0.784398,0.961089,-0.530093,0.266226
674,301311274,-0.432994,-0.386409,0.207506,-0.787494,0.386617,-0.182939,0.716606
675,301344608,-0.431234,-0.383666,0.205224,-0.790394,0.223734,-0.065835,0.941516
676,301377942,-0.429080,-0.381554,0.201891,-0.793441,0.430046,-0.391816,0.206940
677,301411276,-0.427748,-0.381257,0.197538,-0.795396,0.894398,0.391672,0.714810
678,301444610,-0.426191,-0.382503,0.193892,-0.796530,0.115462,1.301213,-0.680699
679,301477944,-0.426783,-0.382761,0.192331,-0.796468,-1.442631,-0.177103,-0.453844
680,301511278,-0.428283,-0.383380,0.192456,-0.795334,-0.570841,0.447985,0.213299
681,301544612,-0.428735,-0.386027,0.194398,-0.793335,-0.142567,-0.091379,0.153157
682,301577946,-0.427365,-0.390942,0.194737,-0.791582,-0.370286,-0.251926,0.372025
683,301611280,-0.427659,-0.391705,0.191730,-0.791780,-4.923317,3.827499,11.888306
684,301644614,-0.417093,-0.414260,0.205617,-0.782397,-10.351509,3.858186,-16.079239
685,301677948,-0.415646,-0.418969,0.196204,-0.783077,3.485523,-8.288864,2.314985
686,301711282,-0.426561,-0.414619,0.203732,-0.777581,-1.813031,0.550025,0.479894
687,301744616,-0.424721,-0.415994,0.204911,-0.777543,-0.284849,1.305936,-0.717875
688,301777950,-0.419996,-0.418371,0.199004,-0.780364,1.332927,0.795220,-0.973168
689,301811284,-0.420285,-0.420974,0.196179,-0.779523,1.110668,-0.200660,2.600724
690,301844618,-0.424965,-0.421001,0.200462,-0.775873,-1.348465,1.275577,-0.757248
691,301877952,-0.426175,-0.420690,0.201173,-0.775194,-1.405317,0.290724,-0.347553
692,301911286,-0.426830,-0.416114,0.202369,-0.776990,-2.028578,-0.925176,0.132371
693,301944620,-0.421403,-0.405246,0.206247,-0.784639,9.997159,6.993114,2.270762
694,301977954,-0.412354,-0.402330,0.206050,-0.790974,1.619065,5.710002,0.236011
695,302011288,-0.415405,-0.393075,0.206873,-0.793811,-3.696851,-5.728969,-0.587813
696,302044622,-0.418099,-0.389101,0.212473,-0.792875,-2.783969,-2.978528,0.656626
697,302077956,-0.413627,-0.386454,0.216043,-0.795546,-1.558768,-1.856443,-0.435867
698,302111290,-0.408220,-0.383102,0.217441,-0.799569,-1.471407,-1.229815,-0.547284
699,302144624,-0.404106,-0.380512,0.217759,-0.802802,-0.464010,-1.474871,0.244250
700,302177958,-0.401630,-0.377204,0.218353,-0.805440,-0.592208,-0.795075,-0.163014
701,302211292,-0.397636,-0.373125,0.218864,-0.809175,-1.438183,-1.183014,-0.374350
702,302244626,-0.391947,-0.369503,0.218910,-0.813588,-1.778463,-1.339003,0.437695
703,302277960,-0.385194,-0.368608,0.218498,-0.817321,-1.258873,0.239434,0.327629
704,302311294,-0.376003,-0.372578,0.213104,-0.821216,0.707070,-2.081281,1.357283
705,302344628,-0.368050,-0.378502,0.208213,-0.823361,0.894620,-1.169729,0.060114
706,302377962,-0.362795,-0.384735,0.205644,-0.823450,-0.704430,0.094868,-0.911941
707,302411296,-0.357794,-0.387844,0.199975,-0.825573,-0.502000,-0.283586,-0.309991
708,302444630,-0.353712,-0.389531,0.196138,-0.827457,-0.723698,-0.637408,-0.142277
709,302477964,-0.349326,-0.390795,0.194711,-0.829059,0.026587,0.703977,-0.527156
710,302511298,-0.344481,-0.393895,0.189780,-0.830762,1.825972,1.808254,0.743787
711,302544632,-0.341657,-0.394264,0.183546,-0.833150,0.961001,3.051313,3.025596
712,302577966,-0.338645,-0.383520,0.189346,-0.838082,2.282384,2.539913,0.019062
713,302611300,-0.330964,-0.396606,0.192528,-0.834326,-6.097141,5.554806,-5.249220
714,302644634,-0.322137,-0.400229,0.179278,-0.838991,0.912066,-1.046483,-0.089995
715,302677968,-0.319065,-0.397024,0.170571,-0.843491,2.524420,-2.240867,1.789229
716,302711302,-0.317121,-0.395469,0.170335,-0.845001,-0.193327,-1.414642,-0.122239
717,302744636,-0.315010,-0.394730,0.168167,-0.846568,-0.292389,-0.254272,-0.133972
718,302777970,-0.312018,-0.395818,0.162514,-0.848271,0.214670,0.074060,0.226895
719,302811304,-0.315981,-0.393786,0.151977,-0.849702,-2.511909,-7.600513,-2.059391
720,302844638,-0.324468,-0.394923,0.151460,-0.846060,2.173560,2.466217,1.191680
721,302877972,-0.321311,-0.396556,0.146548,-0.847365,-0.305365,1.654239,-0.925861
722,302911306,-0.317662,-0.398784,0.139113,-0.848947,0.275996,1.270847,0.484512
723,302944640,-0.316643,-0.401425,0.133941,-0.848915,1.219070,0.249291,0.681767
724,302977974,-0.318041,-0.403798,0.133726,-0.847299,0.264269,1.095147,-0.334630
725,303011308,-0.322240,-0.406819,0.133825,-0.844246,-0.612477,0.415952,-0.251527
726,303044642,-0.325155,-0.410924,0.133877,-0.841127,-0.217302,-1.723724,0.242145
727,303077976,-0.325957,-0.416791,0.131937,-0.838231,0.340699,-1.746589,1.226527
728,303111310,-0.326139,-0.424468,0.130346,-0.834549,-0.068774,0.135907,0.717981
729,303144644,-0.325543,-0.433368,0.133225,-0.829739,-1.985223,1.863346,-1.183872
730,303177978,-0.327192,-0.438769,0.135857,-0.825816,-0.375632,2.165685,-0.421053
731,303211312,-0.323438,-0.459645,0.133428,-0.816280,-9.436953,7.803409,-3.103280
732,303244646,-0.326083,-0.450858,0.128269,-0.820942,8.005302,-4.925728,2.500299
733,303277980,-0.324537,-0.448597,0.128548,-0.822748,0.423588,1.542502,1.505955
734,303311314,-0.321817,-0.448722,0.126750,-0.824026,-0.112913,-0.574454,0.402479
735,303344648,-0.319916,-0.454129,0.122430,-0.822455,-0.446131,-0.515113,-0.308832
736,303377982,-0.319829,-0.457228,0.119144,-0.821254,-0.056910,-2.054975,-0.630750
737,303411316,-0.321651,-0.456767,0.120783,-0.820559,-1.531255,-1.048477,-1.851830
738,303444650,-0.323001,-0.453098,0.121859,-0.821903,0.717820,-0.592854,0.202317
739,303477984,-0.322425,-0.449680,0.121113,-0.824114,1.872464,-2.017236,1.008010
740,303511318,-0.321167,-0.447673,0.120083,-0.825847,2.063341,-0.381078,1.634701
741,303544652,-0.327537,-0.447455,0.123415,-0.822966,-3.105551,-4.456911,0.659509
742,303577986,-0.313541,-0.446120,0.119370,-0.829712,-3.474697,4.414673,-7.380382
743,303611320,-0.306121,-0.438755,0.116890,-0.836733,3.337512,0.590674,-1.050257
744,303644654,-0.303290,-0.430138,0.119223,-0.841893,0.192269,-1.646665,0.572937
745,303677988,-0.300000,-0.425547,0.124177,-0.844685,-0.475464,0.557841,1.075132
746,303711322,-0.293527,-0.426481,0.129483,-0.845690,-1.694943,1.800328,-0.429557
747,303744656,-0.285108,-0.431052,0.130244,-0.846136,-0.720094,0.712894,0.235653
748,303777990,-0.277201,-0.438533,0.127914,-0.845274,0.807043,0.931825,1.006947
749,303811324,-0.268973,-0.446221,0.125735,-0.844235,-0.452222,2.257770,-0.411763
750,303844658,-0.261298,-0.451097,0.124901,-0.844178,-2.166625,1.337794,-1.206103
751,303877992,-0.255645,-0.452108,0.126077,-0.845192,-2.299462,0.669156,-0.702662
752,303911326,-0.251161,-0.451983,0.125727,-0.846654,0.293053,0.585985,0.485106
753,303944660,-0.246053,-0.453029,0.123976,-0.847853,0.686717,0.193882,0.336106
754,303977994,-0.241177,-0.452639,0.121578,-0.849807,0.924189,0.351478,0.422970
755,304011328,-0.236944,-0.453030,0.118733,-0.851191,-0.265585,-0.368250,-0.076823
756,304044662,-0.233915,-0.452512,0.116617,-0.852595,0.356670,-0.361586,-0.309875
757,304077996,-0.232119,-0.452012,0.114345,-0.853659,0.001233,-0.241492,-0.146339
758,304111330,-0.231599,-0.449863,0.112502,-0.855178,0.593404,-0.833193,0.442014
759,304144664,-0.231615,-0.448275,0.111093,-0.856192,-0.074837,-0.578145,0.111302
760,304177998,-0.231989,-0.446534,0.109114,-0.857254,-0.433299,-0.369563,-0.047645
761,304211332,-0.232961,-0.445257,0.106934,-0.857928,0.070700,0.959979,0.229099
762,304244666,-0.233898,-0.444795,0.103755,-0.858304,-0.093155,-0.024756,0.553832
763,304278000,-0.233300,-0.446704,0.095764,-0.858404,-0.242104,-0.115127,0.777823
764,304311334,-0.228031,-0.451730,0.079408,-0.858858,-0.224441,-0.146011,0.149954
765,304344668,-0.224367,-0.457655,0.064696,-0.857920,-0.287750,0.415882,-0.608154
766,304378002,-0.221263,-0.462890,0.050752,-0.856855,0.479475,-0.065957,0.922171
767,304411336,-0.220376,-0.467764,0.041177,-0.854949,-1.013634,-0.912767,-0.486339
768,304444670,-0.220467,-0.472695,0.037311,-0.852387,-1.506881,0.740236,-0.456196
769,304478004,-0.220421,-0.475950,0.036649,-0.850614,1.862732,0.350105,1.312191
770,304511338,-0.215299,-0.484621,0.028490,-0.847336,0.021073,-0.704711,0.496498
771,304544672,-0.207789,-0.494394,0.016281,-0.843881,-2.827326,1.424586,-1.825060
772,304578006,-0.207022,-0.496928,0.011980,-0.842652,-2.533493,1.582429,-1.601645
773,304611340,-0.210899,-0.494958,0.013413,-0.842828,-0.052825,1.343185,0.366226
774,304644674,-0.212541,-0.493747,0.013027,-0.843133,0.386663,-0.231556,0.323025
775,304678008,-0.212099,-0.495615,0.011489,-0.842170,0.550941,0.719521,0.407624
776,304711342,-0.207853,-0.501142,0.004893,-0.840019,-0.663254,0.560611,-0.545588
777,304744676,-0.203192,-0.504376,-0.002259,-0.839234,0.305048,0.685536,-0.114255
778,304778010,-0.200271,-0.504512,-0.005926,-0.839837,0.056628,-0.606236,0.171880
779,304811344,-0.196725,-0.501953,-0.007463,-0.842193,0.696004,-0.230255,0.432202
780,304844678,-0.191726,-0.500148,-0.009429,-0.844397,0.567547,-0.139441,0.189899
781,304878012,-0.186808,-0.498654,-0.012043,-0.846347,1.158236,-0.680932,0.896809
782,304911346,-0.181798,-0.497720,-0.017242,-0.847897,0.823308,0.099904,0.059087
783,304944680,-0.176447,-0.495855,-0.024102,-0.849950,1.148579,-0.878314,0.443507
784,304978014,-0.169293,-0.494011,-0.031391,-0.852238,1.289323,0.526267,0.782312
785,305011348,-0.160182,-0.492482,-0.040735,-0.854486,-0.098810,1.159176,-0.234477
786,305044682,-0.150597,-0.488694,-0.049358,-0.857942,0.039722,-0.603036,0.392883
787,305078016,-0.141087,-0.485084,-0.056174,-0.861182,-0.317630,1.178554,0.468738
788,305111350,-0.131001,-0.480919,-0.060823,-0.864787,0.161620,1.604244,-0.834085
789,305144684,-0.121330,-0.476936,-0.064375,-0.868141,-0.456659,0.165948,0.358468
790,305178018,-0.111389,-0.476954,-0.069729,-0.869049,-0.643436,0.575685,-0.314507
791,305211352,-0.097350,-0.479213,-0.080194,-0.868590,0.563900,1.953721,0.825922
792,305244686,-0.082714,-0.480806,-0.092166,-0.868038,-1.377663,1.944763,0.675977
793,305278020,-0.069613,-0.481085,-0.101621,-0.867978,-2.741410,0.452554,-2.210232
794,305311354,-0.062226,-0.477513,-0.105844,-0.870005,-0.802375,-0.304687,-0.856568
795,305344688,-0.056779,-0.474036,-0.105891,-0.872270,0.966256,2.330191,1.064216
796,305378022,-0.048861,-0.472532,-0.110908,-0.872942,-0.277123,0.806416,-0.082663
797,305411356,-0.042334,-0.469857,-0.113918,-0.874338,-0.460273,0.230105,0.249823
798,305444690,-0.034774,-0.468722,-0.117369,-0.874824,0.511628,1.417246,0.607513
799,305478024,-0.026147,-0.465705,-0.121668,-0.876147,0.916554,0.592382,1.257288
800,305511358,-0.019677,-0.462759,-0.125389,-0.877351,0.435227,1.120219,0.503467
801,305544692,-0.014596,-0.459961,-0.130334,-0.878201,1.091522,0.592979,0.595129
802,305578026,-0.009631,-0.456095,-0.135145,-0.879558,0.787088,0.186039,-0.123860
803,305611360,-0.003980,-0.452918,-0.138612,-0.880702,-0.203631,1.574481,0.773286
804,305644694,0.001659,-0.449199,-0.143795,-0.881783,0.612033,0.758033,1.270943
805,305678028,0.007232,-0.446161,-0.150029,-0.882258,-0.170736,0.510891,0.238029
806,305711362,0.012593,-0.444702,-0.157147,-0.881696,-0.720343,0.142376,-0.161202
807,305744696,0.017140,-0.443414,-0.162661,-0.881268,-1.343040,-0.115023,-0.529681
808,305778030,0.019765,-0.443524,-0.164439,-0.880827,-0.953767,0.574288,-0.084835
809,305811364,0.022649,-0.443790,-0.166010,-0.880328,-0.906525,0.471062,-0.020949
810,305844698,0.026864,-0.447376,-0.166604,-0.878281,-1.134048,1.086701,1.331230
811,305878032,0.033456,-0.454903,-0.172777,-0.872979,0.268925,0.447460,1.759480
812,305911366,0.042624,-0.464776,-0.185197,-0.864794,-0.911446,1.041112,0.426126
813,305944700,0.049819,-0.473198,-0.197622,-0.857057,-3.469557,-1.142668,-2.193572
814,305978034,0.052059,-0.478390,-0.200523,-0.853361,-2.675404,-1.740479,-1.353632
815,306011368,0.055857,-0.480317,-0.198893,-0.852419,-0.643045,-0.352760,-0.669814
816,306044702,0.061606,-0.481287,-0.198543,-0.851557,1.156252,1.434036,0.234602
817,306078036,0.067989,-0.483574,-0.202302,-0.848887,0.726226,0.731265,0.533654
818,306111370,0.074704,-0.486038,-0.208410,-0.845430,0.371176,0.048268,0.687016
819,306144704,0.080148,-0.486840,-0.213797,-0.843122,-0.390560,-0.438394,-0.947489
820,306178038,0.084020,-0.485194,-0.217585,-0.842724,0.878353,-0.231655,0.537139
821,306211372,0.088195,-0.481813,-0.221082,-0.843327,1.002017,-1.562292,1.209423
822,306244706,0.093108,-0.478995,-0.227013,-0.842829,1.062195,-1.798883,-0.850827
823,306278040,0.099934,-0.474004,-0.233016,-0.843230,1.078085,1.448803,0.666570
824,306311374,0.107824,-0.468436,-0.241011,-0.843123,0.277121,0.241861,0.072248
825,306344708,0.115217,-0.463321,-0.251186,-0.842000,0.875829,-0.987551,0.042800
826,306378042,0.123718,-0.456311,-0.259369,-0.842142,0.884812,1.447071,0.186382
827,306411376,0.133457,-0.448093,-0.266247,-0.842921,0.692909,0.070880,-0.674624
828,306444710,0.143224,-0.440128,-0.269685,-0.844420,-0.763822,2.325703,0.410939
829,306478044,0.152668,-0.432089,-0.271857,-0.846219,-0.591041,1.542809,0.936745
830,306511378,0.161960,-0.424179,-0.275346,-0.847365,-0.407143,-1.190350,-0.148293
831,306544712,0.171290,-0.416403,-0.273417,-0.850007,-1.040286,0.584283,-0.326708
832,306578046,0.181254,-0.410856,-0.270460,-0.851585,-1.617781,0.575482,0.388814
833,306611380,0.190839,-0.407195,-0.266492,-0.852500,-1.479683,2.155711,0.502370
834,306644714,0.201552,-0.406548,-0.270886,-0.848951,-1.685749,0.909463,0.684418
835,306678048,0.210903,-0.405243,-0.277828,-0.845050,-1.810941,-0.111489,-0.205183
836,306711382,0.218719,-0.403512,-0.280415,-0.843035,-2.847290,-1.256398,-2.245672
837,306744716,0.225112,-0.401078,-0.278243,-0.843233,-0.534423,0.628931,0.790753
838,306778050,0.231890,-0.399681,-0.276729,-0.842558,-0.150553,-0.456247,0.563190
839,306811384,0.238555,-0.399265,-0.274337,-0.841676,-0.752516,0.545369,0.585305
840,306844718,0.243815,-0.399341,-0.271420,-0.841079,-0.802850,0.362989,0.117566
841,306878052,0.249554,-0.398460,-0.270560,-0.840090,0.161145,0.508457,0.032005
842,306911386,0.255224,-0.397227,-0.270104,-0.839116,0.002591,0.475516,0.188487
843,306944720,0.260736,-0.396216,-0.268589,-0.838385,-0.223275,0.154868,-0.259588
844,306978054,0.265009,-0.395120,-0.269171,-0.837376,-0.360926,0.134123,-0.287812
845,307011388,0.269328,-0.392100,-0.269750,-0.837231,0.488225,0.499577,0.121157
846,307044722,0.273137,-0.388549,-0.271630,-0.837045,0.212842,0.025476,-0.013787
847,307078056,0.277098,-0.385284,-0.274665,-0.836261,-1.233115,1.426590,-0.317045
848,307111390,0.280668,-0.381949,-0.277932,-0.835521,-0.743492,0.557916,0.471825
849,307144724,0.282681,-0.379933,-0.282406,-0.834260,-1.051950,0.177878,-0.138006
850,307178058,0.283692,-0.378291,-0.286007,-0.833436,-0.339295,-1.356682,-0.422636
851,307211392,0.284199,-0.379423,-0.289549,-0.831523,-2.480572,0.323585,-0.741144
852,307244726,0.285919,-0.382179,-0.293325,-0.828342,-0.876309,0.953497,0.900669
853,307278060,0.290286,-0.387778,-0.303058,-0.820682,-0.373015,-0.067982,0.822228
854,307311394,0.297259,-0.392359,-0.315913,-0.811105,-1.015345,0.778550,-0.147096
855,307344728,0.302242,-0.395181,-0.328047,-0.803037,-0.625049,-3.323554,-0.905005
856,307378062,0.303547,-0.398056,-0.329515,-0.800520,-1.931581,-1.086892,-0.157872
857,307411396,0.302875,-0.401061,-0.326043,-0.800696,-0.343637,-0.171283,-0.412363
858,307444730,0.303266,-0.404094,-0.323956,-0.799869,-0.114459,0.626752,0.147915
859,307478064,0.307857,-0.407079,-0.326420,-0.795589,1.049194,0.678044,1.090454
860,307511398,0.312860,-0.408393,-0.329808,-0.791556,1.088692,0.229544,0.407340
861,307544732,0.317639,-0.408451,-0.333840,-0.787924,-0.052594,-0.347976,-0.862790
862,307578066,0.320896,-0.406204,-0.334324,-0.787561,0.117892,0.200291,-0.051837
863,307611400,0.322258,-0.403278,-0.331527,-0.789688,1.614685,0.169163,0.244287
864,307644734,0.325421,-0.399486,-0.329660,-0.791099,0.544935,0.969985,0.917126
865,307678068,0.330986,-0.395149,-0.329212,-0.791155,-0.430509,-0.951985,-1.353834
866,307711402,0.337371,-0.390042,-0.327523,-0.791693,0.576436,1.136324,0.129457
867,307744736,0.344586,-0.384188,-0.326764,-0.791762,0.847000,0.576653,0.115524
868,307778070,0.352233,-0.377915,-0.327191,-0.791239,1.033444,0.788176,0.046882
869,307811404,0.361600,-0.370458,-0.329227,-0.789694,0.290099,0.146644,0.318914
870,307844738,0.372326,-0.361396,-0.330231,-0.788489,0.198806,0.950060,0.153972
871,307878072,0.382625,-0.351604,-0.331812,-0.787321,0.794985,0.500437,0.555022
872,307911406,0.391821,-0.342114,-0.334105,-0.786008,0.542216,1.150078,0.850080
873,307944740,0.402032,-0.333300,-0.336316,-0.783692,-1.997137,2.130978,1.816482
874,307978074,0.413476,-0.325489,-0.341852,-0.778609,-1.215471,-1.227430,-0.330087
875,308011408,0.425631,-0.318321,-0.344631,-0.773783,-1.783573,-0.647657,0.254199
876,308044742,0.437161,-0.313776,-0.345038,-0.769015,-2.571946,-0.388839,-0.183717
877,308078076,0.446572,-0.309999,-0.348052,-0.763764,-1.018702,-0.175364,-0.240434
878,308111410,0.456161,-0.305993,-0.353212,-0.757316,-2.250793,-0.340544,-0.116280
879,308144744,0.465712,-0.301363,-0.356466,-0.751815,-1.828163,-0.025452,-0.417006
880,308178078,0.474914,-0.296589,-0.357946,-0.747240,-0.697833,-1.400144,-1.087082
881,308211412,0.482620,-0.293767,-0.355382,-0.744636,-1.164446,-0.441197,-0.473711
882,308244746,0.487613,-0.293636,-0.351755,-0.743156,-2.269706,0.766632,0.372828
883,308278080,0.492711,-0.292869,-0.353092,-0.739452,-0.959833,1.222465,0.531414
884,308311414,0.498631,-0.291597,-0.356489,-0.734340,-0.203663,0.660633,-0.256474
885,308344748,0.505462,-0.291049,-0.357176,-0.729537,-0.343118,-0.292727,-0.636711
886,308378082,0.512037,-0.290792,-0.353633,-0.726775,-0.423648,-0.414892,-0.511617
887,308411416,0.517879,-0.289491,-0.348708,-0.725534,0.935056,0.352297,0.197673
888,308444750,0.522317,-0.291258,-0.337847,-0.726783,-0.458206,-0.093256,-0.370447
889,308478084,0.527935,-0.290560,-0.332615,-0.725415,-0.705289,1.139028,0.762677
890,308511418,0.533489,-0.287997,-0.331408,-0.722922,-0.585814,0.038105,0.413361
891,308544752,0.538230,-0.284061,-0.333792,-0.719862,-0.474914,-0.697040,-0.647692
892,308578086,0.541068,-0.280769,-0.336398,-0.717810,-1.041139,0.164052,-0.098819
893,308611420,0.544159,-0.277015,-0.340522,-0.714982,-0.404244,0.125204,-0.033918
894,308644754,0.546847,-0.273616,-0.344782,-0.712193,1.320796,-0.767287,0.575761
895,308678088,0.548071,-0.272406,-0.349416,-0.709453,-0.099799,-0.803173,-0.220347
896,308711422,0.548805,-0.271437,-0.355531,-0.706211,-0.128321,-0.211588,0.400562
897,308744756,0.549987,-0.271692,-0.362466,-0.701653,-0.738658,-0.437205,0.373445
898,308778090,0.552770,-0.270794,-0.372008,-0.694786,-0.775813,0.120695,0.913058
899,308811424,0.555107,-0.269194,-0.380948,-0.688673,0.447457,-1.140098,-0.300838
900,308844758,0.556759,-0.267129,-0.385560,-0.685570,-0.273143,-2.119794,-0.954350
901,308878092,0.558016,-0.265524,-0.386576,-0.684599,-0.584851,-0.575034,-0.235883
902,308911426,0.559104,-0.263878,-0.386814,-0.684213,0.752145,0.499501,0.249579
903,308944760,0.560393,-0.262662,-0.389778,-0.681940,-1.610922,0.040998,0.302367
904,308978094,0.563099,-0.258834,-0.397401,-0.676755,0.111583,0.054866,-0.093914
905,309011428,0.566094,-0.255414,-0.404995,-0.671030,-1.012128,0.416922,0.028058
906,309044762,0.569338,-0.251397,-0.412178,-0.665405,0.252669,0.012990,-0.693782
907,309078096,0.572924,-0.246901,-0.417469,-0.660695,-0.092796,-0.239832,-0.494672
908,309111430,0.576522,-0.242901,-0.417793,-0.658841,0.540567,0.895868,0.495898
909,309144764,0.580590,-0.239134,-0.417916,-0.656565,0.657850,0.898667,-0.548717
910,309178098,0.587872,-0.232958,-0.418367,-0.652002,-0.274906,1.204698,-0.374417
911,309211432,0.597679,-0.224765,-0.418001,-0.646171,-0.407649,0.670776,0.052631
912,309244766,0.607577,-0.215545,-0.417482,-0.640391,0.444099,1.839930,0.631382
913,309278100,0.617106,-0.207883,-0.417088,-0.634037,0.109540,2.611654,1.407861
914,309311434,0.627418,-0.197388,-0.421898,-0.624009,-0.494357,0.981279,0.801038
915,309344768,0.637043,-0.186772,-0.422714,-0.616933,0.197330,1.358326,-1.013112
916,309378102,0.645667,-0.178896,-0.422126,-0.610672,-1.420075,0.513827,0.630259
917,309411436,0.653258,-0.172989,-0.421134,-0.604959,-2.247902,-0.262700,0.221891
918,309444770,0.661142,-0.166837,-0.423389,-0.596489,-0.865898,-1.813253,0.041689
919,309478104,0.668195,-0.160942,-0.426167,-0.588214,-0.700667,-1.147931,0.702543
920,309511438,0.672843,-0.155538,-0.429439,-0.581957,-2.348106,-2.085829,-0.075488
921,309544772,0.677205,-0.151842,-0.433855,-0.574550,-2.761476,-1.818421,-0.070022
922,309578106,0.682597,-0.147839,-0.437443,-0.566435,-1.099329,-1.507594,-1.522577
923,309611440,0.688511,-0.145647,-0.439706,-0.558031,-1.534420,-1.750447,-0.036054
924,309644774,0.694888,-0.143581,-0.440740,-0.549786,-1.940732,-1.758509,-0.109533
925,309678108,0.700867,-0.141125,-0.440595,-0.542905,-1.578379,-0.107666,0.355261
926,309711442,0.707061,-0.139062,-0.437971,-0.537503,-0.630129,0.233095,0.500406
927,309744776,0.711286,-0.138032,-0.435849,-0.533905,0.076872,-0.434083,-0.070735
928,309778110,0.714781,-0.135465,-0.433867,-0.531504,-0.559389,-0.508126,-0.300811
929,309811444,0.716948,-0.138124,-0.428396,-0.532339,-1.165825,-0.059769,1.604382
930,309844778,0.718285,-0.141851,-0.424121,-0.532980,1.052866,-0.298258,-0.122837
931,309878112,0.721668,-0.140686,-0.424470,-0.528421,1.384044,-0.485044,0.363918
932,309911446,0.725499,-0.141858,-0.421414,-0.525298,-0.763385,-0.386213,-0.752668
933,309944780,0.728301,-0.146865,-0.416858,-0.523677,-2.021355,-0.415063,0.872725
934,309978114,0.728988,-0.151495,-0.414669,-0.523141,0.365391,-0.026699,-0.466250
935,310011448,0.729572,-0.154351,-0.413502,-0.522416,-1.517434,-0.532231,0.023731
936,310044782,0.729858,-0.155309,-0.414091,-0.521264,-1.061826,-0.114093,0.520899
937,310078116,0.729446,-0.155642,-0.416004,-0.520217,-0.603961,-0.511961,-0.093797
938,310111450,0.728039,-0.156789,-0.418800,-0.519600,-0.159279,-0.557249,-0.084595
939,310144784,0.726361,-0.156917,-0.424017,-0.517675,0.741140,0.250138,1.332962
940,310178118,0.725427,-0.154301,-0.435465,-0.510213,-1.538944,-0.970944,1.182423
941,310211452,0.725611,-0.146699,-0.450408,-0.499100,0.058988,-0.515709,-0.366634
942,310244786,0.725121,-0.139628,-0.461687,-0.491478,1.807119,-1.652229,-0.666219
943,310278120,0.723930,-0.138851,-0.467578,-0.487870,0.326185,-2.084421,-0.570028
944,310311454,0.723194,-0.141927,-0.466411,-0.489191,1.070731,-0.791989,-0.675859
945,310344788,0.723127,-0.147665,-0.464715,-0.489207,0.057117,-0.321965,0.939444
946,310378122,0.724934,-0.150284,-0.464887,-0.485557,-0.701192,0.223932,0.384959
947,310411456,0.726459,-0.154793,-0.464698,-0.482031,0.374396,-0.649172,-0.907889
948,310444790,0.728173,-0.160843,-0.461847,-0.480199,1.086087,0.236348,-0.297191
949,310478124,0.730735,-0.164871,-0.457076,-0.479506,-1.080345,0.976407,1.273348
950,310511458,0.734561,-0.169511,-0.450211,-0.478536,1.360501,1.389420,1.248297
951,310544792,0.738286,-0.175101,-0.441803,-0.478627,-0.244256,1.215248,0.789699
952,310578126,0.741446,-0.177434,-0.435453,-0.478703,-0.212969,0.259462,-0.501754
953,310611460,0.744744,-0.175984,-0.431018,-0.478132,0.553278,1.119570,0.066841
954,310644794,0.748428,-0.174936,-0.425181,-0.477991,1.144775,1.169580,2.470118
955,310678128,0.751848,-0.175593,-0.419208,-0.477657,-0.357553,0.463858,0.231163
956,310711462,0.756061,-0.175231,-0.413541,-0.476079,0.401259,0.789038,-0.561008
957,310744796,0.759734,-0.175264,-0.409502,-0.473703,1.055259,-0.007465,-0.594895
958,310778130,0.764049,-0.176054,-0.404033,-0.471161,0.484236,-0.261166,-0.540728
959,310811464,0.767207,-0.179806,-0.397367,-0.470280,0.676443,-0.568509,-0.194590
960,310844798,0.770609,-0.186146,-0.391400,-0.467245,-1.850856,-2.594086,1.915509
961,310878132,0.772535,-0.191056,-0.390737,-0.462615,1.122720,0.176474,-0.609171
962,310911466,0.774047,-0.192702,-0.395260,-0.455508,-0.250417,0.075372,0.231769
963,310944800,0.774099,-0.195138,-0.402781,-0.447729,-1.595590,-1.868201,0.027695
964,310978134,0.773940,-0.195509,-0.408273,-0.442839,0.926467,-1.161878,-0.952153
965,311011468,0.774409,-0.198586,-0.409581,-0.439429,1.469285,-1.327442,-0.890005
966,311044802,0.775634,-0.203202,-0.409279,-0.435422,0.557596,-1.406188,-0.295708
967,311078136,0.778156,-0.205052,-0.408748,-0.430526,0.280465,-0.249743,0.544763
968,311111470,0.779661,-0.208825,-0.406913,-0.427719,-0.618201,-0.324829,-0.068652
969,311144804,0.780535,-0.208411,-0.407101,-0.426146,-1.292911,-0.372636,0.424132
970,311178138,0.781634,-0.205451,-0.408031,-0.424676,-0.686628,0.388569,0.456014
971,311211472,0.782543,-0.202487,-0.408915,-0.423574,-0.593917,-0.446712,0.709210
972,311244806,0.783020,-0.199366,-0.409190,-0.423908,0.471290,-0.237420,-0.324972
973,311278140,0.784232,-0.196765,-0.405857,-0.426079,-0.313980,-1.535942,0.059444
974,311311474,0.786300,-0.189041,-0.400706,-0.430617,0.482824,0.122433,-0.891473
975,311344808,0.787505,-0.183823,-0.396060,-0.434950,-0.970781,1.088079,1.027999
976,311378142,0.788595,-0.179099,-0.394637,-0.436238,-1.095112,1.213431,0.861506
977,311411476,0.786710,-0.177757,-0.396210,-0.438758,0.408188,0.248471,-0.262038
978,311444810,0.784020,-0.176926,-0.400328,-0.440167,-0.271313,-1.355275,-0.231415
979,311478144,0.781136,-0.175045,-0.404141,-0.442557,0.759817,-0.803548,-0.154496
980,311511478,0.778139,-0.172851,-0.409754,-0.443536,0.019128,-0.864690,0.654143
981,311544812,0.774934,-0.171494,-0.416467,-0.443421,-0.107126,-1.453425,0.368329
982,311578146,0.772610,-0.168860,-0.425375,-0.440019,-0.120830,-0.480062,0.731504
983,311611480,0.770408,-0.163042,-0.437671,-0.433974,0.340416,-0.532985,-0.443197
984,311644814,0.768941,-0.158671,-0.446895,-0.428765,1.011135,-1.015613,-0.475017
985,311678148,0.767201,-0.160735,-0.449731,-0.428146,1.029699,-1.691818,-1.082510
986,311711482,0.766798,-0.164128,-0.448397,-0.428979,0.094687,-1.523787,0.072745
987,311744816,0.766377,-0.168184,-0.445339,-0.431341,0.038621,0.022053,0.115933
988,311778150,0.766760,-0.171607,-0.442001,-0.432743,-0.463839,0.454866,1.126833
989,311811484,0.766036,-0.174796,-0.441105,-0.433662,0.679655,0.526415,0.639482
990,311844818,0.765761,-0.178196,-0.439577,-0.434315,0.495254,0.062937,-1.272314
991,311878152,0.766485,-0.181195,-0.436679,-0.434720,0.548372,1.187801,0.613981
992,311911486,0.768049,-0.185524,-0.431222,-0.435580,0.730660,0.490576,-1.353921
993,311944820,0.769942,-0.189377,-0.425400,-0.436304,-0.414296,0.403206,0.313250
994,311978154,0.772289,-0.193234,-0.419342,-0.436330,0.592369,0.867081,-0.147248
995,312011488,0.775295,-0.197371,-0.411196,-0.436901,-1.171189,0.680624,0.627760
996,312044822,0.778848,-0.199840,-0.403984,-0.436184,0.366026,0.105437,0.043815
997,312078156,0.782287,-0.201409,-0.397481,-0.435282,0.660076,1.277645,-0.046764
998,312111490,0.785880,-0.203430,-0.390803,-0.433915,-1.490110,-0.417496,0.427299
999,312144824,0.789346,-0.205134,-0.384600,-0.432361,1.106990,1.190691,0.989662
1000,312178158,0.792189,-0.207961,-0.378915,-0.430828,1.494753,-0.751511,-0.732454
1001,312211492,0.795467,-0.209615,-0.374575,-0.427771,0.128359,-0.412608,0.706541
1002,312244826,0.797954,-0.212571,-0.370319,-0.425380,0.787980,-0.491944,0.990726
1003,312278160,0.799499,-0.215025,-0.369873,-0.421616,-0.211293,-0.983878,0.023723
1004,312311494,0.801243,-0.214540,-0.372176,-0.416494,-0.701348,-0.389104,1.158365
1005,312344828,0.802449,-0.214029,-0.375624,-0.411308,1.009410,-0.763319,-0.497422
1006,312378162,0.803105,-0.213792,-0.377236,-0.408668,0.475377,-0.725152,-0.692578
1007,312411496,0.803494,-0.214902,-0.377475,-0.407096,1.063905,-2.150661,-1.349791
1008,312444830,0.805309,-0.213257,-0.376431,-0.405339,-1.104157,-0.156328,1.487346
1009,312478164,0.806789,-0.211710,-0.377447,-0.402250,0.003813,0.688933,0.141316
1010,312511498,0.809485,-0.208797,-0.378377,-0.397453,-1.221064,0.196787,1.084886
1011,312544832,0.811285,-0.207143,-0.378614,-0.394411,1.032147,0.028611,0.138496
1012,312578166,0.812693,-0.205039,-0.378269,-0.392942,-0.465889,-0.203075,0.259818
1013,312611500,0.814176,-0.202561,-0.376887,-0.392483,-0.539910,0.026740,0.858267
1014,312644834,0.815306,-0.202354,-0.373508,-0.393475,0.277981,0.698992,-0.912117
1015,312678168,0.816105,-0.199063,-0.372531,-0.394421,0.194972,0.716437,0.650983
1016,312711502,0.816618,-0.195825,-0.370215,-0.397152,0.121349,0.720220,0.005257
1017,312744836,0.816791,-0.193675,-0.367409,-0.400443,1.322847,1.541376,0.555981
1018,312778170,0.815605,-0.193826,-0.365932,-0.404121,1.408940,-0.598174,-1.638684
1019,312811504,0.814766,-0.192132,-0.363599,-0.408702,-0.155170,0.468983,0.630960
1020,312844838,0.813045,-0.191558,-0.362784,-0.413100,-0.150561,-1.584939,0.253189
1021,312878172,0.810632,-0.190971,-0.363585,-0.417388,1.276169,-0.508550,-0.256693
1022,312911506,0.806860,-0.191944,-0.366395,-0.421769,0.772046,-0.238201,-0.057752
1023,312944840,0.801948,-0.195227,-0.370028,-0.426434,1.483005,0.954433,-0.174474
1024,312978174,0.797357,-0.198465,-0.376378,-0.427988,-0.291639,-0.988885,0.799623
1025,313011508,0.793083,-0.201276,-0.384724,-0.427195,0.628851,-0.805992,-0.027873
1026,313044842,0.788026,-0.206795,-0.390382,-0.428783,1.733884,-2.400718,-0.835590
1027,313078176,0.783073,-0.213263,-0.391505,-0.433636,1.121409,-2.581805,-0.208602
1028,313111510,0.778986,-0.219104,-0.390317,-0.439121,0.208247,-0.175298,-0.356283
1029,313144844,0.775678,-0.223387,-0.389576,-0.443457,0.205642,0.852825,0.938886
1030,313178178,0.772868,-0.226417,-0.390831,-0.445715,1.079810,-0.257549,1.134209
1031,313211512,0.770859,-0.227875,-0.394074,-0.445595,-0.592449,-1.420928,-0.585457
1032,313244846,0.768019,-0.229691,-0.395105,-0.448645,0.331008,0.758571,-0.420971
1033,313278180,0.765436,-0.231646,-0.393467,-0.453467,-0.131118,1.109214,0.301892
1034,313311514,0.763353,-0.233712,-0.390342,-0.458590,1.371495,1.615896,-0.521713
1035,313344848,0.762985,-0.234351,-0.384998,-0.463369,1.282835,1.631152,0.063004
1036,313378182,0.763104,-0.235202,-0.379860,-0.466968,-1.434142,-0.534788,-0.367268
1037,313411516,0.764757,-0.233761,-0.374809,-0.469064,-1.797866,1.578083,0.566688
1038,313444850,0.765393,-0.234588,-0.368968,-0.472234,0.585515,0.913290,-0.982209
1039,313478184,0.765789,-0.235188,-0.364155,-0.475022,1.294392,1.098498,-0.016141
1040,313511518,0.767267,-0.235696,-0.358125,-0.476965,0.229345,0.501085,0.192332
1041,313544852,0.768241,-0.236576,-0.353808,-0.478183,1.867430,0.460001,-0.695648
1042,313578186,0.769453,-0.236998,-0.350808,-0.478235,-0.548351,-0.768555,-0.145230
1043,313611520,0.769631,-0.238341,-0.349112,-0.478521,0.505840,-0.198162,-0.723048
1044,313644854,0.769303,-0.237940,-0.351562,-0.477455,-0.960331,0.045598,2.077228
1045,313678188,0.767239,-0.237402,-0.359526,-0.475106,0.450867,0.099753,0.741488
1046,313711522,0.765621,-0.235984,-0.369653,-0.470630,-0.641079,-2.067420,-0.706202
1047,313744856,0.763577,-0.234608,-0.379278,-0.466967,3.152498,-3.126233,-1.275227
1048,313778190,0.762922,-0.234207,-0.380497,-0.467248,-0.768971,-1.104293,-0.900307
1049,313811524,0.762420,-0.235399,-0.379249,-0.468480,0.671272,-0.051755,-0.106227
1050,313844858,0.762754,-0.235703,-0.379012,-0.467976,0.697510,0.167284,0.188070
1051,313878192,0.762324,-0.236451,-0.378907,-0.468383,-0.538333,-0.564246,-0.516337
1052,313911526,0.760758,-0.236654,-0.380120,-0.469842,-0.287496,0.773354,-0.504343
1053,313944860,0.758846,-0.235772,-0.381062,-0.472606,0.080452,1.097266,-0.137372
1054,313978194,0.757159,-0.234142,-0.382610,-0.474866,0.098298,0.848564,-0.328211
1055,314011528,0.756368,-0.231866,-0.383266,-0.476711,-0.684704,0.132070,-0.309330
1056,314044862,0.755664,-0.229343,-0.382240,-0.479861,0.124934,0.727862,-0.132975
1057,314078196,0.754492,-0.227004,-0.380759,-0.483979,-0.266567,0.446331,0.149309
1058,314111530,0.752910,-0.224395,-0.380062,-0.488188,0.614321,-0.327393,-0.292620
1059,314144864,0.749887,-0.222406,-0.379213,-0.494371,0.248349,-0.569996,0.491259
1060,314178198,0.745606,-0.222403,-0.378022,-0.501706,-1.216496,-0.696310,-0.884563
1061,314211532,0.740530,-0.221434,-0.378740,-0.509058,-0.047767,-0.781462,0.010809
1062,314244866,0.735300,-0.221563,-0.381186,-0.514725,-0.239113,-1.570093,0.252546
1063,314278200,0.730234,-0.222439,-0.385644,-0.518226,-0.042300,-1.128074,-0.172838
1064,314311534,0.727546,-0.221569,-0.394415,-0.515773,0.230652,-0.666476,-0.209700
1065,314344868,0.724317,-0.222148,-0.401661,-0.514475,2.416564,-0.107833,-0.648569
1066,314378202,0.720278,-0.226239,-0.406252,-0.514758,1.026774,-2.464819,-0.592450
1067,314411536,0.717354,-0.230608,-0.406003,-0.517094,-1.804610,-1.985976,0.029117
1068,314444870,0.714299,-0.234931,-0.403704,-0.521161,1.441523,-0.120228,0.223514
1069,314478204,0.711886,-0.239162,-0.402352,-0.523578,-0.590044,0.651223,1.552868
1070,314511538,0.709996,-0.242939,-0.402867,-0.524010,0.624494,0.810287,0.662478
1071,314544872,0.708650,-0.245850,-0.404033,-0.523575,0.499456,-0.298007,-0.144373
1072,314578206,0.708480,-0.247195,-0.403945,-0.523240,-0.502239,-0.684648,-0.415047
1073,314611540,0.709614,-0.248718,-0.399049,-0.524737,0.496134,0.336325,0.152828
1074,314644874,0.709837,-0.252070,-0.390770,-0.529047,0.535322,0.595052,0.396362
1075,314678208,0.710438,-0.255706,-0.382812,-0.532305,0.619379,0.055248,-0.227992
1076,314711542,0.710601,-0.261361,-0.373915,-0.535654,0.657062,-0.442011,0.179361
1077,314744876,0.709927,-0.269629,-0.363137,-0.539849,-0.032901,-0.084127,-0.046750
1078,314778210,0.709335,-0.277180,-0.353287,-0.543327,0.094333,-0.280880,0.244257
1079,314811544,0.708798,-0.284028,-0.345710,-0.545361,1.491031,-0.923124,-0.736538
1080,314844878,0.708717,-0.290668,-0.337508,-0.547103,0.526284,-1.166523,-0.568406
1081,314878212,0.710119,-0.295576,-0.330402,-0.546993,0.679764,-0.757363,-0.091993
1082,314911546,0.710427,-0.301970,-0.321703,-0.548284,0.462117,-0.123892,0.858760
1083,314944880,0.710769,-0.307392,-0.318680,-0.546591,0.317336,-0.439781,1.075086
1084,314978214,0.710709,-0.311527,-0.322164,-0.542269,0.039722,-0.351525,0.750548
1085,315011548,0.711646,-0.312837,-0.328971,-0.536165,-1.304253,0.558366,1.127920
1086,315044882,0.711651,-0.316886,-0.338055,-0.528069,0.717004,0.340582,-0.415038
1087,315078216,0.709932,-0.326313,-0.343615,-0.521005,0.998954,0.238770,0.508977
1088,315111550,0.705352,-0.339252,-0.347559,-0.516323,1.706284,0.356275,-0.367442
1089,315144884,0.703785,-0.346368,-0.353796,-0.509456,-0.321653,-0.334455,-0.040024
1090,315178218,0.705965,-0.344628,-0.361180,-0.502388,-0.069928,-0.682794,-0.683704
1091,315211552,0.711723,-0.335832,-0.371935,-0.492272,1.669859,-0.939180,-2.212705
1092,315244886,0.718469,-0.324873,-0.378571,-0.484711,0.685743,-0.612829,-1.181642
1093,315278220,0.725799,-0.312184,-0.381925,-0.479469,-1.322207,-0.867118,0.671129
1094,315311554,0.730962,-0.303831,-0.382145,-0.476810,0.459622,0.754712,1.017645
1095,315344888,0.733257,-0.302514,-0.376974,-0.478237,1.322744,0.715616,1.106399
1096,315378222,0.732391,-0.306009,-0.371587,-0.481544,0.115661,0.341418,0.827637
1097,315411556,0.727097,-0.316418,-0.367285,-0.486120,-0.209066,0.758904,1.207041
1098,315444890,0.721363,-0.324539,-0.365443,-0.490676,-0.218045,0.110153,0.723344
1099,315478224,0.713927,-0.333408,-0.363189,-0.497235,0.254050,-1.540404,-0.408264
1100,315511558,0.706770,-0.339446,-0.359242,-0.506160,0.545260,-0.889282,-0.288600
1101,315544892,0.699805,-0.341867,-0.356467,-0.516074,1.427244,-1.222793,-0.660644
1102,315578226,0.691853,-0.344313,-0.355109,-0.526010,-0.018154,-1.157035,-0.252118
1103,315611560,0.683224,-0.346598,-0.356471,-0.534794,-0.133802,-0.736238,0.752123
1104,315644894,0.675402,-0.347830,-0.362148,-0.540088,-1.492559,-0.291270,-0.025203
1105,315678228,0.670130,-0.346893,-0.372514,-0.540209,1.728972,0.912639,0.193382
1106,315711562,0.665291,-0.348107,-0.380912,-0.539553,1.199074,-1.964774,-0.545547
1107,315744896,0.661139,-0.349662,-0.384599,-0.541033,-0.046789,-1.699626,-0.127372
1108,315778230,0.657685,-0.349900,-0.383019,-0.546185,1.077739,-1.577450,-0.635246
1109,315811564,0.654867,-0.350072,-0.382766,-0.549627,-0.849225,0.544635,0.719361
1110,315844898,0.652389,-0.350589,-0.383620,-0.551646,1.567814,0.064464,0.376631
1111,315878232,0.649766,-0.352784,-0.384464,-0.552754,-0.698850,-0.654523,-0.443187
1112,315911566,0.648740,-0.353893,-0.383199,-0.554126,-0.315601,0.143280,-0.503292
1113,315944900,0.648285,-0.354406,-0.377938,-0.557931,0.725836,0.159186,-0.526938
1114,315978234,0.647412,-0.355392,-0.370916,-0.563006,0.654180,0.990785,0.995311
1115,316011568,0.646592,-0.357132,-0.361083,-0.569206,0.469799,0.925514,-1.079303
1116,316044902,0.645437,-0.359518,-0.352270,-0.574513,0.780058,1.635026,-0.151540
1117,316078236,0.644663,-0.361604,-0.342347,-0.580045,-0.506808,0.750681,0.250374
1118,316111570,0.643598,-0.364344,-0.332193,-0.585392,-0.183610,0.395386,-0.457000
1119,316144904,0.643317,-0.365725,-0.320774,-0.591179,0.956997,0.582340,-0.094946
1120,316178238,0.643510,-0.367349,-0.309583,-0.595910,-0.186710,-0.349936,1.134661
1121,316211572,0.643129,-0.370561,-0.299430,-0.599510,0.644426,-0.809479,-1.107265
1122,316244906,0.642949,-0.373051,-0.290624,-0.602484,0.592709,-0.268381,0.425523
1123,316278240,0.641893,-0.377568,-0.284378,-0.603776,0.790943,-1.534813,-0.054005
1124,316311574,0.639817,-0.383854,-0.282275,-0.603002,-0.436992,-0.809158,0.260976
1125,316344908,0.638524,-0.387966,-0.287005,-0.599499,0.008705,0.118797,-0.090767
1126,316378242,0.637970,-0.390836,-0.294234,-0.594701,-0.697350,-1.747137,0.241122
1127,316411576,0.637098,-0.394752,-0.297110,-0.591610,0.492545,-2.216851,-0.876960
1128,316444910,0.635922,-0.398517,-0.295355,-0.591231,-0.341290,-1.686324,-0.029469
1129,316478244,0.634821,-0.399867,-0.291687,-0.593320,2.044937,0.649105,-0.003946
1130,316511578,0.633941,-0.402681,-0.290670,-0.592856,-0.707798,-0.400590,1.345813
1131,316544912,0.632428,-0.407129,-0.289318,-0.592095,-1.097704,-0.306874,0.756273
1132,316578246,0.631157,-0.410485,-0.288566,-0.591501,-0.904184,-1.091013,-0.029759
1133,316611580,0.630390,-0.411515,-0.286471,-0.592620,0.738278,-1.085914,-0.940451
1134,316644914,0.630704,-0.411343,-0.283030,-0.594058,-0.127842,0.019652,-0.322854
1135,316678248,0.630905,-0.408730,-0.277775,-0.598114,0.964707,0.444456,0.083412
1136,316711582,0.630693,-0.407411,-0.273189,-0.601341,0.442758,1.039822,0.673173
1137,316744916,0.629411,-0.407080,-0.268694,-0.604923,0.084533,0.570651,0.374156
1138,316778250,0.627232,-0.406483,-0.265434,-0.609013,0.646088,0.867686,0.362173
1139,316811584,0.623597,-0.407316,-0.262396,-0.613490,0.351108,0.755285,0.783324
1140,316844918,0.618368,-0.409430,-0.259380,-0.618636,0.249836,-0.485129,-0.270427
1141,316878252,0.612628,-0.410886,-0.257066,-0.624322,-0.802372,-0.162313,0.326994
1142,316911586,0.605236,-0.412287,-0.255082,-0.631381,1.017738,-0.672505,-0.362966
1143,316944920,0.596792,-0.415543,-0.253315,-0.637962,0.509216,-0.768130,0.199648
1144,316978254,0.586248,-0.420029,-0.252086,-0.645246,1.241001,-1.511992,0.108941
1145,317011588,0.575193,-0.425827,-0.254306,-0.650503,-0.952025,-0.525489,0.970610
1146,317044922,0.566173,-0.431480,-0.260955,-0.652056,1.028617,1.265848,-0.061196
1147,317078256,0.559447,-0.440004,-0.269939,-0.648498,0.906373,-2.231128,-0.666646
1148,317111590,0.553799,-0.446159,-0.272349,-0.648132,-0.041124,-3.967338,0.028454
1149,317144924,0.547325,-0.451330,-0.266900,-0.652305,-0.888767,-1.823316,-0.301114
1150,317178258,0.545194,-0.449085,-0.261894,-0.657646,-0.878289,0.212982,-0.417493
1151,317211592,0.546554,-0.442672,-0.261501,-0.661013,0.045624,0.298643,0.295615
1152,317244926,0.547619,-0.437880,-0.261447,-0.663341,1.307299,0.795496,0.940822
1153,317278260,0.545873,-0.438766,-0.258771,-0.665241,1.831271,-0.587801,-0.767899
1154,317311594,0.543327,-0.440559,-0.254974,-0.667602,1.163750,1.025483,-0.016548
1155,317344928,0.540203,-0.442332,-0.250755,-0.670557,0.397638,-0.142587,0.292809
1156,317378262,0.535988,-0.444995,-0.243788,-0.674733,-0.855248,0.641219,0.341700
1157,317411596,0.532074,-0.445405,-0.234114,-0.680957,0.672329,0.102088,-0.263380
1158,317444930,0.529011,-0.444071,-0.222517,-0.688067,1.381596,-0.072640,-0.139581
1159,317478264,0.527381,-0.441154,-0.210562,-0.694923,0.934524,0.822842,0.417710
1160,317511598,0.525265,-0.439755,-0.197320,-0.701269,-0.848491,-0.288944,0.428339
1161,317544932,0.524356,-0.435913,-0.184048,-0.707925,0.880059,-0.162522,-0.057721
1162,317578266,0.523176,-0.433246,-0.170473,-0.713809,1.507753,0.048939,-0.182037
1163,317611600,0.522303,-0.432572,-0.154641,-0.718449,1.410650,0.267651,0.270133
1164,317644934,0.521177,-0.432218,-0.138047,-0.722846,-0.096664,-1.539160,-0.665872
1165,317678268,0.520318,-0.429282,-0.124909,-0.727588,0.223604,-0.705301,0.274556
1166,317711602,0.514318,-0.432045,-0.115299,-0.731793,0.840363,0.370248,0.949769
1167,317744936,0.505579,-0.439122,-0.110244,-0.734444,1.453087,0.093361,0.348584
1168,317778270,0.499530,-0.448418,-0.108926,-0.733163,0.370904,-0.949816,-1.012765
1169,317811604,0.497451,-0.454599,-0.108919,-0.730766,1.714806,-0.109229,-0.627691
1170,317844938,0.494429,-0.461206,-0.107639,-0.728865,-0.425590,-0.817588,0.505111
1171,317878272,0.490391,-0.467218,-0.105482,-0.728079,-0.633144,-0.826390,-0.248169
1172,317911606,0.485550,-0.470689,-0.103814,-0.729326,-0.146440,-0.001765,0.420125
1173,317944940,0.480406,-0.471265,-0.104009,-0.732326,0.370081,-0.657598,0.161266
1174,317978274,0.477839,-0.470133,-0.105874,-0.734463,1.362977,-0.375961,-0.217734
1175,318011608,0.474155,-0.469022,-0.106418,-0.737476,1.507674,-0.247205,-0.392792
1176,318044942,0.469279,-0.467889,-0.105327,-0.741461,0.275187,-0.181247,-0.264281
1177,318078276,0.464188,-0.464959,-0.103447,-0.746754,-0.333250,0.736780,0.597431
1178,318111610,0.458491,-0.462023,-0.100265,-0.752508,-0.086990,1.160917,0.413287
1179,318144944,0.451979,-0.458579,-0.096706,-0.758992,1.434314,0.611224,0.217751
1180,318178278,0.444252,-0.455850,-0.092591,-0.765682,0.931146,-0.440410,-0.255068
1181,318211612,0.436833,-0.452545,-0.088757,-0.772336,1.086653,-0.016365,1.037015
1182,318244946,0.427652,-0.451766,-0.084651,-0.778368,-0.685654,-0.612261,0.261721
1183,318278280,0.418700,-0.450830,-0.082367,-0.784002,0.698214,-0.076421,0.213605
1184,318311614,0.409509,-0.449908,-0.079584,-0.789654,-0.041729,-0.131865,0.190081
1185,318344948,0.398411,-0.451707,-0.076770,-0.794567,-0.312100,-1.407732,-0.326867
1186,318378282,0.387127,-0.452976,-0.075045,-0.799572,0.643175,-0.301219,0.083131
1187,318411616,0.371837,-0.458506,-0.073834,-0.803778,0.264013,-0.833054,0.101417
1188,318444950,0.356755,-0.467572,-0.075787,-0.805207,-1.411472,1.609125,1.340775
1189,318478284,0.344631,-0.478739,-0.081799,-0.803336,2.165720,-0.318103,-0.186644
1190,318511618,0.336049,-0.493311,-0.087486,-0.797535,-0.543679,-2.350206,-0.334172
1191,318544952,0.328842,-0.505393,-0.090967,-0.792569,-2.640824,-1.189700,-0.301587
1192,318578286,0.320263,-0.511765,-0.092224,-0.791848,-1.687316,-0.688443,-0.473117
1193,318611620,0.310918,-0.514229,-0.091834,-0.794019,-0.958401,-0.763505,-0.652499
1194,318644954,0.303466,-0.513333,-0.091636,-0.797496,0.377370,0.510304,0.840632
1195,318678288,0.296250,-0.512292,-0.090791,-0.800968,1.614560,-1.381413,0.091439
1196,318711622,0.290430,-0.512244,-0.088625,-0.803370,1.560685,-0.090321,0.456641
1197,318744956,0.286997,-0.512244,-0.085641,-0.804926,0.866373,0.016930,-0.335396
1198,318778290,0.284633,-0.510331,-0.081972,-0.807359,0.896388,-0.749622,-0.074281
1199,318811624,0.283103,-0.507899,-0.077821,-0.809837,0.021278,0.811495,1.215816
1200,318844958,0.279708,-0.506788,-0.072279,-0.812223,-0.021744,-0.541470,-0.128492
1201,318878292,0.274801,-0.503626,-0.065227,-0.816450,1.681842,-1.610890,-0.960909
1202,318911626,0.270374,-0.502801,-0.057154,-0.819038,0.125116,0.284015,-1.035964
1203,318944960,0.266938,-0.498457,-0.049918,-0.823282,0.872581,-0.034306,0.495421
1204,318978294,0.263191,-0.494367,-0.040539,-0.827460,1.405442,-1.177721,-0.738568
1205,319011628,0.259316,-0.490301,-0.031942,-0.831469,1.317140,-1.476229,-1.353643
1206,319044962,0.257340,-0.488089,-0.023541,-0.833662,1.642288,0.923147,1.096503
1207,319078296,0.254296,-0.487066,-0.012850,-0.835426,-0.683183,0.280817,-0.142653
1208,319111630,0.250518,-0.486943,-0.002009,-0.836734,0.412538,-0.636235,-0.479423
1209,319144964,0.244874,-0.489311,0.006509,-0.837000,-0.914615,-0.178860,-0.036001
1210,319178298,0.240422,-0.490613,0.009344,-0.837502,2.524093,-0.146258,2.598051
1211,319211632,0.237218,-0.497326,0.012666,-0.834407,-1.006380,0.223366,-0.582639
1212,319244966,0.235299,-0.502388,0.015717,-0.831862,-1.329264,-0.208997,0.089427
1213,319278300,0.231359,-0.504278,0.019166,-0.831751,-0.414624,-1.328508,0.240233
1214,319311634,0.226881,-0.505547,0.022622,-0.832127,-0.503293,-0.256983,0.079534
1215,319344968,0.221728,-0.506997,0.025324,-0.832557,-0.575335,1.101088,1.173128
1216,319378302,0.215499,-0.506323,0.027542,-0.834530,-0.830624,0.893748,-0.109721
1217,319411636,0.211310,-0.506570,0.027305,-0.835458,-0.402410,0.984443,1.500136
1218,319444970,0.207160,-0.506930,0.027543,-0.836271,-0.256315,-1.324669,-0.459947
1219,319478304,0.202637,-0.506981,0.028713,-0.837309,-0.589727,0.231576,-0.190623
1220,319511638,0.197727,-0.504163,0.029743,-0.840143,-0.135407,-1.489193,-0.802874
1221,319544972,0.191852,-0.500244,0.033154,-0.843712,-0.283964,-0.775687,-0.858736
1222,319578306,0.186577,-0.497753,0.035128,-0.846285,0.451247,0.518195,-0.066235
1223,319611640,0.179509,-0.494473,0.036523,-0.849671,1.149915,-0.519995,0.229427
1224,319644974,0.171037,-0.493251,0.038581,-0.852034,0.142369,-0.422190,0.301942
1225,319678308,0.161823,-0.491736,0.041119,-0.854587,-0.243346,0.527942,0.319517
1226,319711642,0.152583,-0.491258,0.041198,-0.856555,0.255237,-0.059299,0.437190
1227,319744976,0.141834,-0.491301,0.041563,-0.858359,0.416221,-0.764469,-0.380210
1228,319778310,0.131453,-0.491514,0.041066,-0.859912,0.164344,0.002804,0.317829
1229,319811644,0.117857,-0.493996,0.041284,-0.860450,-1.435066,0.616770,0.201888
1230,319844978,0.101992,-0.499049,0.038826,-0.859675,-0.617713,1.030927,0.679364
1231,319878312,0.090832,-0.507040,0.031934,-0.856529,1.489129,-0.081656,-0.020469
1232,319911646,0.085471,-0.518706,0.023392,-0.850349,0.215474,-2.590288,0.102007
1233,319944980,0.081046,-0.530469,0.019466,-0.843597,-2.832361,-0.266896,-0.674136
1234,319978314,0.074496,-0.535345,0.018538,-0.841138,-1.920542,0.954269,-0.243957
1235,320011648,0.066355,-0.534816,0.019021,-0.842145,-0.624250,-0.186001,-0.912567
1236,320044982,0.060209,-0.533276,0.020211,-0.843554,0.502707,-0.926823,-0.963736
1237,320078316,0.056910,-0.532181,0.022209,-0.844424,2.118067,-0.747265,0.611997
1238,320111650,0.054280,-0.531641,0.026020,-0.844828,0.863377,-0.028608,0.187171
1239,320144984,0.050852,-0.530135,0.031063,-0.845817,0.365822,0.527644,0.748792
1240,320178318,0.044874,-0.527653,0.039067,-0.847374,-0.022967,0.878139,-0.214414
1241,320211652,0.037004,-0.523488,0.049462,-0.849792,0.837508,0.739926,0.813470
1242,320244986,0.028706,-0.518276,0.060485,-0.852589,0.255111,-1.837006,-0.132591
1243,320278320,0.021541,-0.513612,0.071351,-0.854780,0.727129,-1.293334,0.450175
1244,320311654,0.014536,-0.508724,0.082394,-0.856855,0.666053,-0.652416,-0.435693
1245,320344988,0.008755,-0.503677,0.091556,-0.858983,-0.100656,-1.707221,-0.164551
1246,320378322,0.005061,-0.498879,0.102333,-0.860594,-0.487681,1.691388,-0.275631
1247,320411656,0.001520,-0.493091,0.110595,-0.862919,0.054805,-1.206374,-0.040457
1248,320444990,-0.002148,-0.486461,0.120986,-0.865283,-0.249215,-1.349443,-1.161116
1249,320478324,-0.005409,-0.477729,0.129024,-0.868964,-0.535049,-2.011178,0.096954
1250,320511658,-0.008379,-0.470371,0.135888,-0.871903,0.521345,0.972337,1.688146
1251,320544992,-0.011885,-0.470320,0.141528,-0.870993,1.147707,0.642746,1.916752
1252,320578326,-0.015748,-0.475451,0.146782,-0.867268,-0.135342,-0.484341,-0.229783
1253,320611660,-0.016244,-0.480784,0.147354,-0.864216,-1.328260,-0.854683,-0.470119
1254,320644994,-0.017915,-0.484943,0.148796,-0.861609,-1.601646,-0.732224,-0.177343
1255,320678328,-0.021418,-0.486176,0.152771,-0.860137,-1.233247,1.336622,0.734535
1256,320711662,-0.025296,-0.485190,0.156366,-0.859942,0.300783,2.828146,1.210819
1257,320744996,-0.028670,-0.485409,0.158384,-0.859344,-0.689729,0.961030,1.076818
1258,320778330,-0.032872,-0.483561,0.159396,-0.860048,-0.752650,-0.586758,0.815233
1259,320811664,-0.036449,-0.482030,0.161682,-0.860336,-0.413032,0.976504,0.474877
1260,320844998,-0.040909,-0.479882,0.164229,-0.860854,-0.069959,-0.164501,-0.343974
1261,320878332,-0.047079,-0.476919,0.167068,-0.861639,-0.035664,-0.863480,-0.346146
1262,320911666,-0.053788,-0.472328,0.168841,-0.863427,0.148643,0.081837,-0.178069
1263,320945000,-0.062013,-0.465235,0.168742,-0.866739,-0.107523,0.861956,0.078547
1264,320978334,-0.070323,-0.458791,0.167509,-0.869774,1.314996,0.405509,0.375833
1265,321011668,-0.077924,-0.454222,0.166998,-0.871621,0.878786,-0.706941,0.166605
1266,321045002,-0.086996,-0.450860,0.167867,-0.872341,1.045490,0.317293,0.719459
1267,321078336,-0.096302,-0.448367,0.168719,-0.872484,0.531900,-0.698216,0.171128
1268,321111670,-0.106312,-0.446580,0.171150,-0.871764,0.103221,-0.173806,-0.093194
1269,321145004,-0.116199,-0.444851,0.172614,-0.871097,0.064771,-0.389985,0.987749
1270,321178338,-0.127755,-0.445320,0.175796,-0.868600,-1.161774,1.116153,0.229074
1271,321211672,-0.140135,-0.448285,0.178882,-0.864526,0.021785,1.051288,1.012591
1272,321245006,-0.153766,-0.453968,0.184008,-0.858144,-0.112158,1.863457,0.138881
1273,321278340,-0.163477,-0.463342,0.185324,-0.851026,-0.307012,-0.835978,0.191560
1274,321311674,-0.169315,-0.473330,0.186725,-0.844053,-1.979631,-1.141908,-0.005651
1275,321345008,-0.174927,-0.480612,0.192111,-0.837560,-2.290142,0.699747,-1.300823
1276,321378342,-0.180644,-0.483618,0.196059,-0.833692,-0.888557,0.406606,-0.441463
1277,321411676,-0.185157,-0.485321,0.197097,-0.831465,-0.026762,1.361558,0.259437
1278,321445010,-0.189444,-0.487419,0.197139,-0.829259,0.040489,0.033321,0.149478
1279,321478344,-0.192230,-0.489551,0.198391,-0.827061,0.179386,-0.019138,0.180497
1280,321511678,-0.194913,-0.490522,0.201007,-0.825224,0.441309,-0.086560,-0.186667
1281,321545012,-0.196375,-0.489931,0.202871,-0.824772,1.014569,-0.124542,-0.149791
1282,321578346,-0.197855,-0.485916,0.205481,-0.826146,0.344390,-0.312889,-0.196358
1283,321611680,-0.202701,-0.478164,0.210013,-0.828352,-0.333972,0.513732,-0.262319
1284,321645014,-0.209884,-0.468256,0.214450,-0.831082,1.016537,-0.348055,-0.071035
1285,321678348,-0.217554,-0.458739,0.218018,-0.833485,1.589171,-2.530593,0.953386
1286,321711682,-0.223868,-0.453714,0.225816,-0.832487,1.010470,0.838092,0.906809
1287,321745016,-0.229716,-0.449386,0.231849,-0.831582,-0.794745,-1.191764,-0.088319
1288,321778350,-0.234546,-0.443702,0.237899,-0.831578,-1.104784,0.164077,-0.192515
1289,321811684,-0.237858,-0.437402,0.242772,-0.832566,-0.527007,1.021423,0.752095
1290,321845018,-0.240744,-0.429090,0.245256,-0.835329,-1.185865,-0.453743,-0.893632
1291,321878352,-0.243364,-0.421469,0.247417,-0.837809,0.163451,-0.286933,0.488814
1292,321911686,-0.245694,-0.416025,0.249871,-0.839120,-0.296119,-0.980175,0.208138
1293,321945020,-0.247367,-0.414663,0.253755,-0.838137,0.510101,-0.589666,0.682382
1294,321978354,-0.246946,-0.418176,0.258834,-0.834956,0.492981,-1.045170,0.385349
1295,322011688,-0.245295,-0.424672,0.264089,-0.830507,-0.965462,-0.909158,-0.875490
1296,322045022,-0.243988,-0.429062,0.270521,-0.826556,0.346892,0.415561,0.474773
1297,322078356,-0.243436,-0.432784,0.278413,-0.822146,-0.420661,-0.894571,-0.294487
1298,322111690,-0.244743,-0.435240,0.287657,-0.817265,-0.486640,0.303834,0.287831
1299,322145024,-0.244984,-0.437841,0.294428,-0.813383,-0.430167,-0.160632,0.059687
1300,322178358,-0.242690,-0.442629,0.298896,-0.809841,-0.900487,-1.274304,-0.707905
1301,322211692,-0.238708,-0.447386,0.302268,-0.807155,-0.122595,0.260443,-0.321401
1302,322245026,-0.236279,-0.449970,0.304783,-0.805486,-0.071723,1.788698,0.026391
1303,322278360,-0.236708,-0.449515,0.304470,-0.805732,-0.982837,2.047547,-0.551267
1304,322311694,-0.239925,-0.444729,0.298362,-0.809712,-0.310309,3.142519,0.150697
1305,322345028,-0.245440,-0.437896,0.293237,-0.813646,1.098524,-2.706098,0.190273
1306,322378362,-0.252333,-0.432750,0.297547,-0.812725,-0.035253,-2.582715,-0.169889
1307,322411696,-0.260372,-0.428272,0.303498,-0.810358,-0.255789,-2.596840,-0.054007
1308,322445030,-0.269749,-0.423890,0.314027,-0.805568,0.635868,-0.340349,0.246486
1309,322478364,-0.281207,-0.420055,0.324192,-0.799610,0.410749,-0.006865,0.670142
1310,322511698,-0.293296,-0.415262,0.333865,-0.793770,-0.717999,0.449185,-1.223562
1311,322545032,-0.305480,-0.411887,0.341159,-0.787809,-1.300100,1.131460,-0.155374
1312,322578366,-0.319576,-0.407979,0.346930,-0.781706,-0.780578,1.496759,0.291580
1313,322611700,-0.328820,-0.411469,0.345734,-0.776556,0.217128,1.106870,0.562011
1314,322645034,-0.330495,-0.421456,0.336333,-0.774615,-0.430026,-1.024250,-1.234533
1315,322678368,-0.327775,-0.433404,0.326630,-0.773330,-1.081647,0.183291,-0.453715
1316,322711702,-0.327683,-0.439709,0.318648,-0.773139,-2.601043,0.557718,-0.156620
1317,322745036,-0.333073,-0.438974,0.320117,-0.770643,-1.360587,1.060719,-0.799266
1318,322778370,-0.340449,-0.433082,0.320287,-0.770683,0.152226,0.630855,-0.742517
1319,322811704,-0.345487,-0.425730,0.312502,-0.775716,-0.196445,-0.689889,0.044243
1320,322845038,-0.348853,-0.420610,0.309249,-0.778302,1.005346,-1.990787,0.918377
1321,322878372,-0.351966,-0.417154,0.308262,-0.779152,-0.839220,-1.950172,0.213362
1322,322911706,-0.353665,-0.413101,0.308475,-0.780457,1.182665,-0.230923,0.417288
1323,322945040,-0.355966,-0.408226,0.307915,-0.782195,-0.299664,1.140567,-1.067748
1324,322978374,-0.361567,-0.399139,0.306174,-0.784994,-0.392885,-1.721122,-0.711391
1325,323011708,-0.368405,-0.389081,0.308701,-0.785874,-0.796502,-1.108453,-0.250281
1326,323045042,-0.375765,-0.378778,0.316884,-0.784164,-0.297207,-0.681552,0.634727
1327,323078376,-0.381679,-0.367746,0.328370,-0.781830,1.632085,0.162072,0.277920
1328,323111710,-0.386429,-0.358825,0.335136,-0.780770,-0.402126,-0.145180,0.484978
1329,323145044,-0.389885,-0.350140,0.340099,-0.780849,-0.734923,0.526429,-0.471683
1330,323178378,-0.392047,-0.341204,0.343161,-0.782381,-0.302998,-0.481518,0.908575
1331,323211712,-0.395098,-0.330333,0.346548,-0.784017,0.136948,0.647690,0.727587
1332,323245046,-0.397096,-0.320644,0.351509,-0.784821,-0.483234,-0.159199,0.870113
1333,323278380,-0.399312,-0.312772,0.358649,-0.783642,-1.242871,0.085179,0.253201
1334,323311714,-0.400857,-0.310592,0.369491,-0.778667,-0.997690,-0.389226,0.613906
1335,323345048,-0.400974,-0.311849,0.376416,-0.774778,-0.119346,-1.541399,1.283596
1336,323378382,-0.399483,-0.315653,0.381910,-0.771312,-1.973189,0.805670,-0.886245
1337,323411716,-0.399169,-0.316855,0.384424,-0.769731,-1.559792,0.624774,-0.066567
1338,323445050,-0.402751,-0.315604,0.384876,-0.768152,-1.291210,0.185139,-0.659209
1339,323478384,-0.409494,-0.313658,0.382985,-0.766327,-1.636663,0.072615,-0.245585
1340,323511718,-0.416891,-0.313617,0.379797,-0.763938,-1.736675,-0.673745,0.029340
1341,323545052,-0.423918,-0.313954,0.375860,-0.761877,-0.770502,-0.612826,-0.638764
1342,323578386,-0.430018,-0.316674,0.371459,-0.759488,-0.752764,-0.535312,0.011216
1343,323611720,-0.436122,-0.320406,0.366679,-0.756759,0.112856,1.236223,1.390958
1344,323645054,-0.443526,-0.321030,0.362266,-0.754314,-0.701883,0.053050,-1.171962
1345,323678388,-0.452605,-0.319980,0.358791,-0.751020,-0.483026,-0.090255,-0.062236
1346,323711722,-0.462058,-0.317576,0.356774,-0.747236,0.799141,-0.183601,0.563902
1347,323745056,-0.470313,-0.316843,0.352814,-0.744271,-0.030665,-0.227304,-0.898360
1348,323778390,-0.478746,-0.317181,0.347020,-0.741469,0.814032,0.137428,1.256189
1349,323811724,-0.488855,-0.316584,0.342829,-0.737065,1.046670,-0.523689,1.092575
1350,323845058,-0.498862,-0.318901,0.338865,-0.731170,-0.727508,-0.438322,-0.086568
1351,323878392,-0.507996,-0.321003,0.335765,-0.725369,-0.152496,0.322245,-0.886748
1352,323911726,-0.516800,-0.321968,0.330559,-0.721101,-1.103854,-0.808634,-0.434948
1353,323945060,-0.525500,-0.323422,0.326849,-0.715834,0.605408,0.107626,0.949058
1354,323978394,-0.535430,-0.323883,0.324682,-0.709222,-0.154606,0.682029,0.220297
1355,324011728,-0.545446,-0.325073,0.323316,-0.701629,0.198539,0.089079,1.246382
1356,324045062,-0.557827,-0.323934,0.326576,-0.690830,2.027324,2.165086,-0.138375
1357,324078396,-0.570182,-0.326437,0.332664,-0.676511,1.714075,2.667214,0.656278
1358,324111730,-0.581336,-0.328220,0.338186,-0.663287,-0.086740,-1.511956,-0.346547
1359,324145064,-0.582100,-0.338849,0.340877,-0.655854,0.138755,0.153534,0.586193
1360,324178398,-0.580168,-0.350349,0.342479,-0.650669,-0.567319,3.477530,-0.433125
1361,324211732,-0.581563,-0.355624,0.343673,-0.645914,1.911198,3.791004,-1.132165
1362,324245066,-0.586255,-0.353406,0.343816,-0.642807,-0.100526,1.972473,-1.198750
1363,324278400,-0.593935,-0.344863,0.346173,-0.639121,-0.212405,-1.261707,1.198847
1364,324311734,-0.598416,-0.341035,0.350130,-0.634825,0.242118,-0.130939,0.133709
1365,324345068,-0.602049,-0.338719,0.354620,-0.630121,-0.828491,-1.407776,0.644429
1366,324378402,-0.604254,-0.337048,0.358834,-0.626510,0.809106,0.301784,-0.722930
1367,324411736,-0.608163,-0.333051,0.362463,-0.622765,-1.404640,-0.239318,-0.735745
1368,324445070,-0.612833,-0.326640,0.365314,-0.619911,-0.816755,-0.807828,0.329235
1369,324478404,-0.617707,-0.319333,0.368085,-0.617235,-0.471670,0.085379,-0.392247
1370,324511738,-0.623461,-0.310361,0.370788,-0.614402,-1.012443,-1.518468,0.636686
1371,324545072,-0.628575,-0.302631,0.372789,-0.611830,-0.188668,-0.545146,1.008868
1372,324578406,-0.634048,-0.294325,0.376158,-0.608162,-0.940024,0.212343,-0.458361
1373,324611740,-0.638982,-0.285090,0.380908,-0.604430,1.046855,-0.686504,-0.297666
1374,324645074,-0.642368,-0.276531,0.384775,-0.602365,0.490690,0.268581,0.766745
1375,324678408,-0.645178,-0.266871,0.390796,-0.599837,1.245750,1.223817,-0.439321
1376,324711742,-0.647828,-0.260756,0.396841,-0.595687,-0.431446,0.546616,0.854830
1377,324745076,-0.649035,-0.258679,0.404247,-0.590274,-0.066462,0.156767,0.042299
1378,324778410,-0.646407,-0.263064,0.410379,-0.586980,0.070418,0.306093,-0.680337
1379,324811744,-0.643314,-0.269746,0.414658,-0.584332,0.799687,2.104917,-0.326603
1380,324845078,-0.642643,-0.272655,0.417560,-0.581647,0.722189,1.190547,0.077249
1381,324878412,-0.643788,-0.272557,0.421190,-0.577797,0.053453,0.097226,0.051283
1382,324911746,-0.644320,-0.273434,0.422948,-0.575502,-0.258145,0.483345,0.344373
1383,324945080,-0.644517,-0.274042,0.424614,-0.573761,0.655977,0.419559,0.660355
1384,324978414,-0.644733,-0.274502,0.426441,-0.571942,-1.231542,-0.182702,-0.183542
1385,325011748,-0.644652,-0.276218,0.427673,-0.570284,-0.415623,0.226408,0.379086
1386,325045082,-0.646147,-0.275892,0.429219,-0.567582,-0.109955,0.189200,-0.075127
1387,325078416,-0.649332,-0.272803,0.430395,-0.564541,0.345738,0.117006,-0.637968
1388,325111750,-0.653719,-0.270228,0.429943,-0.561051,-1.112650,-0.840440,0.015162
1389,325145084,-0.657393,-0.268620,0.429357,-0.557970,0.198028,-0.090561,0.158340
1390,325178418,-0.661731,-0.266154,0.429332,-0.554030,-0.542264,-0.425026,0.700201
1391,325211752,-0.666575,-0.264389,0.429082,-0.549242,-1.665117,2.251242,-0.186177
1392,325245086,-0.671731,-0.262049,0.430156,-0.543208,0.251286,0.863869,-0.755223
1393,325278420,-0.678111,-0.259351,0.430757,-0.536052,0.192982,0.487893,-0.812841
1394,325311754,-0.684966,-0.256781,0.432173,-0.527364,0.487914,1.607143,-0.950980
1395,325345088,-0.692879,-0.253844,0.434772,-0.516195,0.854070,0.052787,0.033094
1396,325378422,-0.696340,-0.255801,0.440138,-0.505921,0.438886,-1.120262,0.216386
1397,325411756,-0.693020,-0.264615,0.444715,-0.501927,-1.401519,-0.479362,0.010727
1398,325445090,-0.687136,-0.274167,0.449430,-0.500689,-0.240907,3.521795,-0.218918
1399,325478424,-0.687909,-0.274520,0.454099,-0.495192,-0.626823,2.110353,0.417481
1400,325511758,-0.692677,-0.270267,0.458225,-0.487016,1.529292,0.778680,-0.823201
1401,325545092,-0.696369,-0.267795,0.459878,-0.481528,1.188683,-1.054764,0.457047
1402,325578426,-0.698548,-0.266797,0.460221,-0.478589,-1.316727,0.190743,-0.058469
1403,325611760,-0.699465,-0.266803,0.460615,-0.476864,-2.228217,-0.415146,0.123793
1404,325645094,-0.699061,-0.267459,0.461407,-0.476323,0.930530,-0.493775,0.224569
1405,325678428,-0.700539,-0.264735,0.460919,-0.476146,1.008003,-0.949945,-0.176744
1406,325711762,-0.704640,-0.259731,0.458738,-0.474956,-0.912942,-0.618311,0.837536
1407,325745096,-0.708954,-0.253445,0.457881,-0.472753,-0.231334,0.022871,-0.368794
1408,325778430,-0.713337,-0.248334,0.455429,-0.471239,-1.878837,0.792393,-0.377196
1409,325811764,-0.718181,-0.242591,0.452738,-0.469462,-3.219887,-0.280846,0.799642
1410,325845098,-0.721702,-0.237193,0.451168,-0.468331,-1.055587,-0.139377,-0.054416
1411,325878432,-0.723052,-0.233467,0.449650,-0.469579,0.929005,-0.027479,0.314994
1412,325911766,-0.724840,-0.227450,0.448451,-0.470921,0.606946,0.503275,-1.125816
1413,325945100,-0.726969,-0.221640,0.445460,-0.473242,0.148706,0.896559,-0.100227
1414,325978434,-0.729664,-0.213144,0.443220,-0.475096,0.675206,0.062904,-0.350790
1415,326011768,-0.731824,-0.206556,0.442519,-0.475338,-1.077958,1.118944,0.985787
1416,326045102,-0.732710,-0.200153,0.446631,-0.472861,0.408107,-0.655814,1.304903
1417,326078436,-0.731085,-0.198537,0.451738,-0.471203,0.128083,0.340223,-0.225041
1418,326111770,-0.726858,-0.201254,0.457216,-0.471304,0.316282,1.796129,-0.924363
1419,326145104,-0.723374,-0.201744,0.462420,-0.471379,0.562024,0.663179,-0.177458
1420,326178438,-0.722628,-0.198565,0.465984,-0.470362,0.379986,0.645340,-0.105556
1421,326211772,-0.724093,-0.194225,0.467612,-0.468300,0.406664,0.741521,0.231965
1422,326245106,-0.726438,-0.191752,0.467727,-0.465565,-1.300627,1.291382,-0.384457
1423,326278440,-0.727502,-0.191157,0.468068,-0.463803,-1.548242,0.599915,-0.692744
1424,326311774,-0.727256,-0.191815,0.468040,-0.463945,0.936372,-1.021425,1.474805
1425,326345108,-0.726813,-0.193497,0.468518,-0.463458,0.509265,1.311432,-0.767565
1426,326378442,-0.727701,-0.194169,0.467442,-0.462871,1.334080,-0.737538,0.722171
1427,326411776,-0.730688,-0.193160,0.465014,-0.461028,0.557969,-0.466994,0.763363
1428,326445110,-0.734871,-0.191391,0.462320,-0.457816,-0.872740,0.100137,0.217842
1429,326478444,-0.738052,-0.189607,0.461611,-0.454141,-0.557649,0.001635,0.045354
1430,326511778,-0.742403,-0.187361,0.459486,-0.450118,-1.853271,-0.657868,0.723417
1431,326545112,-0.746365,-0.184922,0.459201,-0.444835,1.457738,-0.487469,0.434595
1432,326578446,-0.751293,-0.183112,0.459008,-0.437426,-0.182255,0.465068,-0.597539
1433,326611780,-0.756769,-0.181962,0.458372,-0.429052,0.929362,0.108111,-0.281748
1434,326645114,-0.762557,-0.181080,0.457095,-0.420455,0.471724,0.663461,0.186872
1435,326678448,-0.768403,-0.180184,0.457748,-0.409340,0.681561,1.499176,0.149765
1436,326711782,-0.773335,-0.179801,0.460589,-0.396841,0.606161,0.584005,-0.058052
1437,326745116,-0.772697,-0.186590,0.465274,-0.389416,-1.564244,-1.633539,0.235573
1438,326778450,-0.765730,-0.202142,0.471279,-0.388191,-0.531893,0.868773,0.668274
1439,326811784,-0.759802,-0.216220,0.476219,-0.386219,2.982019,2.862145,0.029986
1440,326845118,-0.761696,-0.216722,0.479296,-0.378321,2.702429,2.639919,-0.876924
1441,326878452,-0.766615,-0.211022,0.479186,-0.371689,-0.522905,0.816152,-0.348989
1442,326911786,-0.768287,-0.209406,0.477954,-0.370735,-0.897022,-0.623507,0.873398
1443,326945120,-0.766759,-0.211939,0.478513,-0.371737,-0.846972,0.272600,0.436437
1444,326978454,-0.766065,-0.212862,0.478359,-0.372836,-0.177431,-0.244070,-0.049397
1445,327011788,-0.767765,-0.211134,0.477342,-0.371626,-0.844989,0.226754,0.188915
1446,327045122,-0.772093,-0.205577,0.475113,-0.368617,-0.264849,-0.645342,0.239275
1447,327078456,-0.777296,-0.199165,0.471514,-0.365815,-1.245743,0.691889,0.068811
1448,327111790,-0.781148,-0.192702,0.470029,-0.362970,0.676005,-0.805800,0.041510
1449,327145124,-0.785493,-0.186249,0.466552,-0.361445,-1.029893,-0.060614,0.637067
1450,327178458,-0.788571,-0.180065,0.465169,-0.359654,1.245945,-0.748994,0.287760
1451,327211792,-0.792037,-0.173783,0.462938,-0.358003,-0.693729,0.564324,-0.111576
1452,327245126,-0.795639,-0.167135,0.459852,-0.357157,0.135872,0.091657,0.408622
1453,327278460,-0.798515,-0.160882,0.457900,-0.356117,-0.818818,0.937997,-0.154120
1454,327311794,-0.800631,-0.155683,0.456674,-0.355249,0.408946,0.483687,0.576994
1455,327345128,-0.803308,-0.147833,0.455835,-0.353635,-0.557234,1.152725,-0.509048
1456,327378462,-0.805036,-0.139643,0.457191,-0.351275,0.546357,0.710542,-0.060217
1457,327411796,-0.805067,-0.133209,0.460864,-0.348895,1.188169,0.177460,0.497515
1458,327445130,-0.802889,-0.131140,0.465698,-0.348277,0.200762,-0.003176,0.498173
1459,327478464,-0.798895,-0.132849,0.470391,-0.350501,0.858246,0.208842,-0.013386
1460,327511798,-0.795066,-0.135499,0.473960,-0.353373,1.206026,1.337539,-0.749454
1461,327545132,-0.793956,-0.133435,0.475814,-0.354162,0.792677,0.976218,-0.523909
1462,327578466,-0.795447,-0.128602,0.475310,-0.353280,0.035865,0.386163,-0.079143
1463,327611800,-0.797136,-0.125889,0.473413,-0.352997,-0.597678,-0.900299,0.784496
1464,327645134,-0.796809,-0.127517,0.472386,-0.354525,-0.638895,-0.818421,1.249306
1465,327678468,-0.795189,-0.131072,0.472378,-0.356867,0.230934,-0.131705,0.070642
1466,327711802,-0.793353,-0.136386,0.471475,-0.360141,-0.617874,0.624173,-0.493620
1467,327745136,-0.792946,-0.141253,0.468643,-0.362847,-0.103787,0.267745,0.583623
