SampleTimeFine,D_Leg_Acc_X,D_Leg_Acc_Y,D_Leg_Acc_Z,R_Wrist_Acc_X,R_Wrist_Acc_Y,R_Wrist_Acc_Z,Activity
2066107451,0.362807,-0.312559,0.084935,0.424241,1.203685,3.145319,0
2066140785,0.265557,-0.209929,0.056034,0.981061,1.445613,1.541257,0
2066174119,0.045635,-0.129986,0.118167,0.813045,1.674739,0.482344,0
2066207453,0.053715,-0.006618,0.102052,0.052575,1.540358,-1.23825,0
2066240787,0.042757,0.214786,0.133625,-0.132357,0.913512,-2.039943,0
2066274121,0.011235,0.294565,0.121741,-0.152169,0.994331,-1.620797,0
2066307455,-0.060536,0.247771,0.103927,0.504597,0.45145,-2.208592,0
2066340789,-0.008154,0.174579,0.136864,-0.559468,0.16919,-1.378001,0
2066374123,0.127604,0.124913,0.130194,0.510145,0.12555,-1.565156,0
2066407457,0.216893,0.061295,0.082148,1.04768,0.096792,-1.877527,0
2066440791,0.116023,0.0708,0.060653,0.561563,0.905571,-2.320696,0
2066474125,-0.11079,0.285926,0.161913,-0.204425,1.016252,-2.826511,0
2066507459,-0.329115,0.479198,0.132985,-0.845358,0.383745,-3.640326,0
2066540793,-0.406813,0.452877,0.074259,-0.597012,0.54524,-3.9783,0
2066574127,-0.34639,0.440874,0.043271,-0.457427,1.376612,-2.823507,0
2066607461,-0.298168,0.275703,0.041772,-1.251755,1.760697,-1.833162,0
2066640795,-0.258616,0.159349,0.015284,0.091108,2.312188,-1.56249,0
2066674129,-0.164374,0.023618,0.046507,0.985586,3.231566,-0.268371,0
2066707463,-0.055012,0.120065,0.016208,-0.404681,2.085361,-0.796841,0
2066740797,0.008297,0.120353,0.087182,0.283504,1.933036,-0.569054,0
2066774131,0.193632,-0.057233,0.053109,0.285154,-0.415212,0.478305,0
2066807465,0.06881,-0.165003,0.294347,-0.074265,-2.071611,0.44691,0
2066840799,0.188005,-0.417247,0.123827,0.511413,-2.83994,1.948963,0
2066874133,-0.355265,-0.412089,0.117544,0.440802,-4.04182,2.875136,0
2066907467,-0.308654,-0.314363,0.118449,0.321027,-3.964314,2.490051,0
2066940801,-0.429451,-0.09842,0.238334,0.495326,-2.772669,2.102395,0
2066974135,-0.686318,-0.225855,0.150827,0.380249,-1.2245,1.560287,0
2067007469,-0.782859,-0.380318,-0.062803,0.100476,-1.166856,-0.153476,0
2067040803,-0.819025,-0.444894,0.094338,0.288877,-0.208794,-1.112102,0
2067074137,-0.561894,-0.395438,-0.014506,0.267786,0.460851,-2.054189,0
2067107471,-0.464045,0.036189,0.132293,-0.313891,1.272249,-2.726349,0
2067140805,-0.388879,0.028155,0.097911,-0.546854,2.633258,-1.843745,0
2067174139,-0.222811,0.601031,-0.117636,-0.660366,3.916848,-1.291923,0
2067207473,-0.265568,0.862653,0.057176,-0.950973,4.06287,-0.891889,0
2067240807,-0.313972,0.738309,0.107367,-0.829106,3.305304,-0.260958,0
2067274141,-0.077114,0.710915,0.379216,-0.616884,1.763187,-0.457881,0
2067307475,0.204851,0.732007,0.750131,-0.415901,0.139401,-0.02457,0
2067340809,0.783682,0.117161,0.791159,-0.685978,-1.733973,0.810797,0
2067374143,1.326949,-0.223303,0.148093,-0.558019,-3.246562,1.643146,0
2067407477,1.270622,-0.056477,-0.243859,-0.063957,-4.529301,2.421909,0
2067440811,0.631116,-0.385029,-0.684107,0.015707,-4.454746,2.256114,0
2067474145,0.317896,-1.029361,-0.94528,0.279511,-3.167037,1.678246,0
2067507479,0.230154,-0.587225,-0.556432,0.168522,-2.150633,1.056978,0
2067540813,-0.024674,0.309187,0.167649,-0.374144,-1.505616,0.296759,0
2067574147,-0.018879,1.017546,0.713922,-0.241155,-0.177046,-0.813628,0
2067607481,0.258266,0.501603,0.639132,-0.278707,1.468021,-1.081182,0
2067640815,1.354148,1.074026,0.381084,-0.71034,2.120585,-1.415348,0
2067674149,0.784938,-0.353713,-0.311431,-0.698155,2.567307,-1.686825,0
2067707483,-0.256319,-0.816631,-0.20896,-0.53457,3.257538,-1.074493,0
2067740817,-0.466484,-0.115559,0.489932,-0.030587,3.230059,-1.417446,0
2067774151,0.284781,0.147162,-0.014431,-0.476426,2.901241,-0.469272,0
2067807485,0.139641,0.565041,-0.019546,-0.164308,2.583103,-0.437801,0
2067840819,-0.096012,0.305788,-0.029202,0.927895,1.466032,-0.714638,0
2067874153,-0.383096,0.233083,-0.168148,0.153122,-0.600715,-0.454108,0
2067907487,-0.984725,0.040286,-0.230533,-0.226234,-1.728825,0.288221,0
2067940821,-1.003134,-0.601561,-0.043778,-0.133753,-2.998046,1.570057,0
2067974155,-0.21202,-0.470217,0.227325,0.387513,-3.798135,1.561224,0
2068007489,0.09861,-0.429103,0.322686,0.644373,-3.709397,1.083248,0
2068040823,0.066466,-0.369933,0.198426,0.442468,-2.47678,1.28789,0
2068074157,-0.091654,-0.22218,0.08337,0.295465,-1.162015,0.47054,0
2068107491,-0.582785,-0.383496,0.494052,-0.283317,-0.722757,-0.12569,0
2068140825,-0.654458,-0.677288,0.4978,-0.200484,0.174222,-0.262743,0
2068174159,-0.414624,-0.316551,0.091588,-0.088609,0.669298,-0.799794,0
2068207493,-0.172015,-0.406567,0.115443,-0.004233,1.484423,-0.579679,0
2068240827,0.130833,-0.169845,0.177795,0.067642,2.193492,-0.353457,0
2068274161,0.228539,0.096023,0.123741,0.104944,2.310357,-0.312926,0
2068307495,0.267243,0.038195,0.191977,0.157161,2.870094,-0.257318,0
2068340829,0.457551,0.352419,0.199888,-0.01482,2.876078,-0.021248,0
2068374163,0.295333,0.290073,-0.213999,1.703722,2.349886,-1.329781,0
2068407497,0.055603,0.275255,0.018389,2.176171,1.11998,-1.277494,0
2068440831,0.1,0.346183,-0.002533,3.044979,-1.23825,-0.105586,0
2068474165,0.425982,-0.055765,0.133815,4.03339,-3.28695,0.600556,0
2068507499,0.191002,-0.268881,0.45845,4.223802,-3.88629,2.260679,0
2068540833,0.057069,-0.249947,0.114623,3.538125,-3.203976,3.467628,0
2068574167,-0.290796,0.062465,-0.203801,2.094254,-2.108821,1.178011,0
2068607501,-0.602692,0.06887,-0.013526,0.069959,-0.702793,-0.008239,0
2068640835,-0.862126,0.043726,0.166413,-2.056633,0.053987,-0.246302,0
2068674169,-1.120285,0.078308,0.028619,-3.555036,0.755465,-1.113323,0
2068707503,-0.817702,0.226547,-0.048132,-4.306623,0.895435,-1.615313,0
2068740837,-0.307622,0.207052,-0.059703,-4.926766,1.330643,-1.187982,0
2068774171,-0.309261,0.144052,-0.028323,-5.29925,2.338845,-1.698704,0
2068807505,-0.323114,0.168006,0.104915,-5.3709,2.238938,-1.567227,0
2068840839,-0.187045,0.137555,0.08425,-4.386694,2.353112,-0.907162,0
2068874173,0.252526,0.035937,-0.046147,-3.111369,2.823545,0.554152,0
2068907507,0.653341,-0.222918,0.047788,-1.996046,-0.434524,-0.23245,0
2068940841,0.901714,-0.246132,0.153834,0.334524,-1.922061,-1.243909,0
2068974175,1.022994,-0.353655,0.189307,0.971754,-3.194029,1.381886,0
2069007509,1.0569,-0.121197,0.250271,0.320531,-4.155634,1.767134,0
2069040843,0.779616,-0.04602,0.158988,0.414389,-3.915936,0.913319,0
2069074177,0.480684,-0.022435,0.039305,0.139324,-2.592542,0.109515,0
2069107511,-0.155862,0.130231,0.283535,-0.484713,-1.984927,-0.080481,0
2069140845,-0.43145,-0.031696,0.373668,0.24584,-0.533186,1.646125,0
2069174179,-0.220781,-0.149058,0.098189,0.360183,0.970958,0.714408,0
2069207513,-0.358025,-0.021122,-0.058178,0.490037,2.276631,-0.419144,0
2069240847,-0.365456,0.025515,-0.142802,1.232232,3.31792,-0.17275,0
2069274181,-0.191781,0.014551,-0.134864,0.936718,3.497649,0.225679,0
2069307515,0.067528,0.170983,-0.0283,0.611413,2.413181,-0.923953,0
2069340849,0.310388,0.240967,-0.203095,-0.304733,0.36716,-1.305629,0
2069374183,0.739207,0.398158,-0.002844,-0.754707,-1.204371,-0.386855,0
2069407517,0.433598,-0.015978,0.416306,-1.149163,-2.735006,0.92283,0
2069440851,0.089883,-0.083171,0.438513,-1.083334,-3.333322,0.942344,0
2069474185,-0.845102,-0.121197,0.105308,-0.477666,-2.67597,0.106675,0
2069507519,-1.06127,-0.190944,0.187542,-0.008776,-1.519016,0.129206,0
2069540853,-0.102734,-0.251511,0.351889,0.908102,0.104927,1.370481,0
2069574187,0.382573,-0.111945,0.07871,1.602288,1.09186,0.622942,0
2069607521,0.687064,-0.147295,0.004915,2.620156,2.073714,-1.327778,0
2069640855,1.065322,-0.067242,0.089377,2.651791,2.493084,-1.454194,0
2069674189,0.944868,-0.19456,0.10209,3.2172,2.269728,-0.906113,0
2069707523,0.139365,-0.312735,-0.163344,2.804658,2.0537,-1.185911,0
2069740857,-1.07235,-0.351292,-0.161462,1.601982,1.60325,-2.22639,0
2069774191,-0.564368,-0.247003,0.216803,-0.931172,-1.790678,-0.387429,0
2069807525,-0.462037,-0.494891,0.310566,-1.121357,-3.843041,0.287284,0
2069840859,-0.802778,0.114455,0.297646,-0.140131,-3.871226,1.258206,0
2069874193,-1.114666,0.431499,0.270535,0.37903,-3.394139,1.161673,0
2069907527,-0.588853,0.344992,-0.029562,0.546282,-1.822681,2.002943,0
2069940861,-0.061081,0.489598,-0.047955,0.416801,1.083473,0.203331,0
2069974195,-0.268063,0.147656,0.351787,0.532842,2.311193,0.034264,0
2070007529,-0.571199,-0.185446,-0.029206,0.417861,3.988768,-0.674891,0
2070040863,-0.225467,0.047544,-0.21891,-1.238236,3.20357,-2.762404,0
2070074197,0.589886,0.242842,-0.388085,-1.185008,2.082463,-2.156053,0
2070107531,0.313688,0.093893,-0.528194,-0.668789,1.512844,-1.964069,0
2070140865,0.337585,0.267718,-0.232844,-0.471921,-0.299872,-1.145519,0
2070174199,0.576327,0.363131,-0.69169,-0.213202,-2.448481,0.332671,0
2070207533,0.251424,-0.029592,-0.734327,0.771325,-3.106878,1.729871,0
2070240867,0.022362,0.075327,-0.149483,1.486245,-3.619826,3.011086,0
2070274201,0.055467,-0.300131,-0.158168,1.310958,-3.442277,2.505579,0
2070307535,-0.093823,0.243687,-0.689325,0.647341,-1.964217,1.965834,0
2070340869,0.599481,0.522311,-0.880587,0.794014,-0.675799,0.468513,0
2070374203,0.255143,-0.075789,-0.162737,-0.373463,1.077922,-0.55076,0
2070407537,-1.555592,0.34454,-0.096116,-0.764352,2.093845,-1.883974,0
2070440871,-1.350251,0.751102,-0.497716,-1.035472,2.901958,-2.373843,0
2070474205,-0.74133,0.579183,0.241048,-1.218388,3.396281,-2.832922,0
2070507539,-0.669756,0.45026,0.750671,-1.041486,2.989068,-2.253757,0
2070540873,-0.353529,-0.057313,0.958004,-0.673197,2.547912,-1.806646,0
2070574207,0.424347,-0.345809,0.720718,-0.882971,1.447063,-0.839206,0
2070607541,2.7e-05,-0.923666,1.347299,-0.547838,-0.958475,1.722161,0
2070640875,-0.065481,-0.802114,1.584803,-0.254837,-3.065326,3.254626,0
2070674209,-0.234232,-1.570155,1.470321,1.275058,-5.375206,5.929624,0
2070707543,-0.129923,-0.583101,1.303987,1.362215,-5.311541,7.637083,0
2070740877,0.95195,-0.441617,0.048442,0.346068,-2.847578,4.720629,0
2070774211,0.006632,-0.247392,1.66731,-0.34932,1.655753,0.852731,0
2070807545,-0.349449,-0.066737,1.590104,-1.170698,3.452433,-3.701223,0
2070840879,-0.246337,0.436465,0.448904,-2.123708,3.638339,-6.374059,0
2070874213,1.357936,0.599252,-0.951134,-0.703681,2.009468,0.452971,0
2070907547,0.20076,0.681947,-0.15947,-1.228019,0.715227,-1.915756,0
2070940881,-0.747102,0.861208,-0.221888,1.842804,-1.316228,4.467697,0
2070974215,-0.366389,0.800004,-0.821836,3.01467,-0.535926,1.455286,0
2071007549,-0.050514,0.439502,-0.310856,1.064573,0.11128,-0.632635,0
2071040883,0.045666,0.919316,-0.429866,-0.717617,1.37777,-0.323944,0
2071074217,0.360708,0.548233,0.212098,-1.644903,1.636601,-1.317728,0
2071107551,-0.279254,0.473193,0.392192,-0.410072,2.019804,-0.37608,0
2071140885,0.220632,0.702446,-0.055778,-1.235741,1.260209,-0.403572,0
2071174219,0.198465,0.136052,0.025646,-1.114181,0.02645,0.528088,0
2071207553,-0.010942,-0.032601,0.332764,-0.493357,-1.970373,2.541423,0
2071240887,-0.193248,-0.109588,0.332881,0.064807,-3.172222,2.917171,0
2071274221,-0.114628,-0.203108,0.144693,0.423171,-3.465546,2.029603,0
2071307555,0.023536,-0.454026,0.083711,0.707196,-2.648707,2.749933,0
2071340889,0.673875,-0.236848,-0.002184,0.425992,-1.128105,2.162207,0
2071374223,-0.205443,-0.186439,0.42886,-0.372232,0.08367,0.33928,0
2071407557,-0.273006,0.183501,0.170574,-0.583052,1.000195,-1.15532,0
2071440891,-0.035513,0.333459,-0.236876,-0.298327,1.46914,-1.620427,0
2071474225,0.301689,0.136649,-0.279192,-0.841506,1.312577,-1.826355,0
2071507559,0.249921,0.232615,-0.282089,-0.629408,1.326645,-2.030715,0
2071540893,0.651018,0.07885,0.117658,-0.348564,1.319883,-1.920066,0
2071574227,-0.435705,-0.135386,-0.057953,-0.710334,1.04905,-1.107351,0
2071607561,-0.461343,0.25052,-0.534247,-1.008125,0.643137,-0.476669,0
2071640895,-0.589372,-0.058068,0.183976,-1.209551,0.106984,-0.007922,0
2071674229,-0.224569,-0.061811,0.910281,0.100922,-0.673207,0.153069,0
2071707563,0.117774,0.035713,0.47958,0.892254,-1.071415,0.96505,0
2071740897,0.074639,-0.107882,-0.029523,1.239505,-1.660534,2.038295,0
2071774231,0.00367,-0.158105,0.190683,0.977948,-1.921486,2.568953,0
2071807565,0.384309,-0.05151,0.22492,0.773214,-1.422701,1.803502,0
2071840899,-0.356455,-0.069621,0.40113,0.477365,-1.022381,1.073175,0
2071874233,-0.45719,0.086943,0.479795,0.139317,-0.759047,1.052962,0
2071907567,-0.492038,0.061628,0.111071,-0.228194,-0.415013,0.352294,0
2071940901,-0.18114,0.004289,-0.082405,-0.072042,0.467559,-0.898676,0
2071974235,-0.561923,0.187954,-0.372018,0.032976,0.953134,-1.423001,0
2072007569,-0.200488,0.281305,-0.23702,0.228368,1.549437,-1.647387,0
2072040903,-0.149923,0.196357,0.229001,0.994226,2.290289,-2.067828,0
2072074237,-0.066324,0.363345,0.14837,1.155879,2.079971,-2.080571,0
2072107571,0.005684,0.409271,0.084401,0.226103,0.64258,-0.917341,0
2072140905,-0.973713,-0.017446,0.831203,0.225489,-0.788955,-0.12291,0
2072174239,-2.516481,-0.867195,1.720798,0.195205,-1.067329,2.865476,0
2072207573,-0.232922,-0.47952,3.071651,-0.185266,-1.457127,5.092094,0
2072240907,0.637543,0.007435,2.603699,-0.470163,-1.986559,4.090231,0
2072274241,1.011536,0.476607,1.825144,-0.033489,-1.254264,2.549056,0
2072307575,0.461257,0.508977,0.76212,0.096503,-0.143231,1.051802,0
2072340909,-0.680234,0.270563,0.402274,0.330895,0.952926,-0.04201,0
2072374243,-0.276481,0.17696,-0.074448,0.258225,1.898566,-1.072948,0
2072407577,0.441527,0.420415,-0.559666,0.527787,1.933198,-1.821775,0
2072440911,0.345634,0.209755,-0.728746,-0.932803,-0.15182,-0.355577,0
2072474245,0.477896,-0.097048,-0.344472,-0.513175,-0.694903,0.335546,0
2072507579,1.026171,0.05417,-0.879778,-0.366602,-1.183948,2.326825,0
2072540913,0.711076,-0.222307,-0.9908,-0.556135,-1.771105,1.758078,0
2072574247,0.656397,0.02764,0.019866,0.178491,-1.248854,0.074751,0
2072607581,0.173788,-0.205035,-0.245615,0.274497,-0.582816,-0.566682,0
2072640915,-0.38001,0.139239,-0.008818,-0.01732,0.911067,-0.384303,0
2072674249,0.058257,0.459114,-0.109729,0.635555,1.922624,-1.173108,0
2072707583,0.794637,-0.021597,-0.198425,0.795831,2.163942,-2.225143,0
2072740917,0.227911,-0.078467,-0.096031,0.547592,1.967198,-1.824558,0
2072774251,0.031722,0.032407,0.155546,-0.058389,0.707444,-1.9194,0
2072807585,0.123995,-0.060382,0.332697,0.342072,-0.34541,-0.574707,0
2072840919,0.357926,-0.089618,0.634201,-0.224581,-1.693402,1.998706,0
2072874253,0.788575,-0.375177,0.657277,-0.531653,-3.055889,2.359547,0
2072907587,0.059394,-0.380927,0.626514,0.008934,-2.807305,2.088478,0
2072940921,-0.072833,-0.239484,0.353054,0.840689,-1.762215,1.548332,0
2072974255,0.373002,0.229427,0.151194,0.906297,-0.66174,0.894009,0
2073007589,0.477742,0.242753,0.176081,0.941356,0.951513,1.099727,0
2073040923,0.052521,-0.074765,0.051681,0.585958,1.062491,0.07196,0
2073074257,-0.412778,-0.163942,0.019523,0.149324,0.880861,-1.167495,0
2073107591,-0.463304,-0.08426,0.353718,0.143572,1.508374,-1.780148,0
2073140925,-0.102697,0.082939,0.081305,-1.043568,1.185841,-1.498597,0
2073174259,0.135984,0.526814,-0.310002,-1.988968,2.052637,-0.756577,0
2073207593,-0.070191,-0.015451,-0.366751,-0.877676,3.093464,-1.644169,0
2073240927,-0.239637,0.027574,-0.092028,-1.558993,1.070518,-1.705625,0
2073274261,-0.057552,0.055878,-0.226456,-1.213114,0.240051,-0.88216,0
2073307595,0.316205,0.202753,-0.449725,-0.444911,-0.654978,0.700114,0
2073340929,0.366311,0.139153,-0.41366,0.163411,-2.009587,1.580329,0
2073374263,0.048807,-0.245955,0.07819,0.083279,-3.1903,2.856085,0
2073407597,-0.011482,-0.707707,0.306828,0.815122,-3.053869,2.565578,0
2073440931,-0.124962,-0.273309,0.191972,0.741842,-2.460504,2.280558,0
2073474265,-0.221142,-0.219296,0.108563,0.599512,-1.263048,1.313289,0
2073507599,-0.157964,-0.169934,0.19767,0.477644,-0.242465,0.196889,0
2073540933,0.119229,0.005345,-0.298352,0.055866,0.251,-0.650453,0
2073574267,0.378059,0.053969,-0.060995,-0.498182,0.637782,-1.250346,0
2073607601,0.368159,-0.006306,0.082264,-0.466176,0.843042,-1.959591,0
2073640935,0.154757,-0.035618,-0.611113,-0.386925,1.210364,-2.686889,0
2073674269,-0.090871,0.367933,-0.354879,-0.372478,1.715357,-2.700452,0
2073707603,0.248772,0.030643,-0.209837,-0.30371,2.830371,-2.4292,0
2073740937,0.223363,0.004743,-0.318793,-0.26796,2.42544,-2.379972,0
2073774271,-0.349531,0.022147,-0.397575,-0.366246,1.661583,-1.932248,0
2073807605,-0.880394,-0.114824,-0.145495,-0.664555,0.585689,-0.594173,0
2073840939,-0.934254,-0.502747,0.079493,-0.856748,-1.792782,0.472323,0
2073874273,0.025024,-0.324488,-0.459894,-0.561491,-2.683714,2.07742,0
2073907607,0.967038,-0.029048,-0.417907,-0.163872,-2.560354,2.784448,0
2073940941,1.348915,-0.135284,0.357923,-0.127199,-2.31053,2.047571,0
2073974275,1.454546,0.187111,0.164122,-0.34168,-1.447656,0.466987,0
2074007609,1.113719,0.125264,0.5894,-0.474971,-0.358453,-0.180439,0
2074040943,1.102209,0.043633,0.654114,-0.636479,0.009097,-1.161706,0
2074074277,-0.188261,-0.121609,-0.128809,-1.045584,0.610252,-1.335606,0
2074107611,-1.21243,0.126303,-0.534206,-1.4658,2.054412,-0.82522,0
2074140945,-1.108232,0.095557,-0.780369,-1.520692,2.726615,-1.24101,0
2074174279,-0.753149,0.395954,-0.922534,-1.783579,2.592873,-1.91545,0
2074207613,-0.575106,0.264675,-0.066083,-1.578773,2.897227,-2.387825,0
2074240947,-0.101969,0.506493,0.635571,-2.130243,2.777009,-1.91346,0
2074274281,0.59767,0.619602,0.125266,-1.388899,2.570092,-2.04821,0
2074307615,1.046585,0.357556,0.275301,-1.127449,2.298366,-1.46352,0
2074340949,1.235796,0.306512,0.03107,-1.01333,1.802843,-0.625067,0
2074374283,0.279724,-0.271495,-0.800075,-0.334592,1.867056,-0.838377,0
2074407617,0.429609,-0.198444,0.480498,0.133974,1.718705,-0.722748,0
2074440951,0.72515,0.095647,0.418755,0.584735,1.387047,-1.008111,0
2074474285,0.301575,-0.14548,-0.150789,0.691198,1.190108,-0.789824,0
2074507619,0.289331,-0.253417,0.655046,-0.082035,0.616333,0.291083,0
2074540953,0.606637,-0.286106,0.09574,0.952981,0.290377,0.924011,0
2074574287,0.903903,-0.462322,0.330766,3.129257,0.300033,2.010029,0
2074607621,0.701227,-0.599845,0.477178,2.803868,-1.117896,0.411331,0
2074640955,-0.043104,-0.65594,-0.004326,2.288469,-1.528612,-0.407047,0
2074674289,-0.293475,-0.527645,-0.130106,2.298898,-1.811261,-0.019867,0
2074707623,-0.144983,-0.465756,-0.233351,2.597799,-1.963152,0.397551,0
2074740957,0.035177,-0.490176,-0.374237,1.110737,-1.917798,-1.282999,0
2074774291,-0.182107,-0.228826,-0.372269,1.520632,-1.692059,-1.195949,0
2074807625,-0.394477,-0.10061,0.312212,1.631196,-1.437997,1.921242,0
2074840959,-0.046518,0.58633,0.441074,1.129863,-0.948811,0.895813,0
2074874293,-0.206007,1.381184,0.427647,2.065476,-1.330199,1.265312,0
2074907627,-0.456123,1.32329,0.349504,1.69595,-1.676315,0.658447,0
2074940961,0.328301,0.879851,0.08439,1.039784,-2.011759,0.527226,0
2074974295,-0.172269,0.821056,-0.052199,0.321925,-1.998694,-0.038808,0
2075007629,-0.645756,1.002229,0.195951,-0.28931,-1.868292,-0.105084,0
2075040963,-0.386534,0.919961,0.155908,-0.810752,-1.944585,0.254522,0
2075074297,-0.266837,0.60971,0.097499,-1.030589,-1.462002,-0.068127,0
2075107631,-0.374014,0.398527,0.113061,-1.299518,-1.58866,1.917614,0
2024639955,-0.089669,-0.008939,0.104001,0.051971,0.003096,0.111771,0
2024673289,-0.09327,-0.037465,0.118668,0.054524,-0.016504,0.180023,0
2024706623,-0.091076,-0.035307,0.117342,0.071749,-0.080291,0.204429,0
2024739957,-0.050317,-0.020607,0.099154,0.266668,-0.148474,0.449014,0
2024773291,-0.051841,-0.028202,0.113178,0.494035,-0.140131,1.085177,0
2024806625,-0.093927,0.043099,0.15891,0.418271,-0.33423,1.48449,0
2024839959,-0.088032,-0.001013,0.132203,-0.079459,-0.851509,1.760233,0
2024873293,-0.133181,0.037448,0.157277,-0.478033,-0.721525,1.090146,0
2024906627,-0.119651,0.006679,0.131842,0.248426,-1.547924,1.561294,0
2024939961,-0.10532,0.038854,0.088279,0.981686,-1.757738,2.034086,0
2024973295,-0.117533,0.000543,0.157652,1.13677,-2.042484,1.690491,0
2025006629,-0.097747,0.015234,0.209249,1.360069,-1.914115,1.565018,0
2025039963,-0.096829,-0.017171,0.136159,0.815835,-1.100126,0.804474,0
2025073297,-0.148465,-0.036823,0.063774,0.732153,-0.877759,0.957151,0
2025106631,-0.175864,-0.08377,0.071619,0.558358,-0.299587,0.402182,0
2025139965,-0.212615,-0.024138,0.150816,0.669242,-0.376876,0.987305,0
2025173299,-0.171257,-0.029766,0.126273,0.657066,0.260876,1.035791,0
2025206633,-0.08087,0.020359,0.064949,0.540066,0.506204,0.663479,0
2025239967,-0.144864,0.202427,0.043265,0.383298,0.432306,0.165843,0
2025273301,-0.180565,0.183417,0.04876,0.093165,0.70323,-0.630517,0
2025306635,-0.118877,0.358269,0.004723,-0.093531,0.751663,-0.868331,0
2025339969,-0.25775,0.451693,0.050915,-0.52152,0.820064,-1.186674,0
2025373303,-0.206794,0.363629,-0.036745,-0.476581,0.533712,-2.113114,0
2025406637,-0.118533,0.249643,0.092215,-0.903531,-0.139674,-2.295665,0
2025439971,-0.338288,0.286294,0.177493,-0.737666,-0.009955,-3.06163,0
2025473305,-0.348412,0.133331,-0.028888,-0.800964,0.627131,-3.431304,0
2025506639,-0.227574,-0.105263,0.009072,-1.378421,1.720039,-2.115335,0
2025539973,-0.387401,-0.140091,0.179867,-1.68037,2.292186,-1.868323,0
2025573307,-0.088643,0.050578,0.277514,-1.471651,2.973521,-1.975457,0
2025606641,0.45483,0.272808,0.217741,-2.695652,2.912175,-1.281673,0
2025639975,0.207092,0.881694,0.006445,-1.644694,2.788343,-2.281168,0
2025673309,-0.09937,1.169208,-0.270211,-1.10747,3.210449,-1.636422,0
2025706643,0.06953,0.58266,-0.330012,-1.136599,1.003528,-0.010489,0
2025739977,-0.00952,-0.151363,0.073739,-0.425223,-1.855,0.258018,0
2025773311,0.150298,-0.597909,-0.151161,0.966073,-4.163274,2.25045,0
2025806645,0.291437,-0.836123,-0.34805,0.861036,-5.175171,4.100921,0
2025839979,0.426739,-0.653915,-0.050554,0.563673,-5.627794,1.898335,0
2025873313,0.542736,-0.171135,0.272734,-0.11884,-3.865919,0.295136,0
2025906647,0.447986,0.245275,-0.185671,-0.581046,-1.173223,-0.375849,0
2025939981,-0.207505,-0.338288,-0.191555,-0.881081,0.444572,-1.344089,0
2025973315,-1.167014,-0.472341,0.667072,-0.329776,2.50455,-2.29961,0
2026006649,-0.818153,-0.05211,0.062142,-0.391618,4.012322,-2.688776,0
2026039983,-0.312487,0.071275,-0.128137,-0.197186,5.469167,-2.388876,0
2026073317,-0.035261,0.67995,-0.405212,-0.164246,5.163556,-1.481973,0
2026106651,-0.044634,0.540259,-0.560141,0.297171,4.017503,-1.486164,0
2026139985,-0.175349,0.443134,-0.039801,0.812885,2.881507,-1.682656,0
2026173319,-0.065065,-0.005117,0.190182,0.007813,-0.889098,0.341421,0
2026206653,0.255723,-0.03603,0.093175,-0.433438,-2.86415,1.572528,0
2026239987,0.206306,-0.118694,0.123691,-1.021318,-5.164107,3.909629,0
2026273321,0.168621,-0.291216,0.20257,-0.903723,-5.443315,3.521492,0
2026306655,-0.105851,-0.27921,0.266967,-0.532533,-4.238011,1.547862,0
2026339989,-0.492425,-0.392883,0.333343,-0.492844,-2.62524,0.046399,0
2026373323,-0.499875,0.033917,0.345714,0.199439,-0.509721,-0.912545,0
2026406657,-0.198767,-0.075638,0.161958,1.443831,1.88119,-3.176803,0
2026439991,-0.07753,-0.147102,0.19642,1.116383,3.807353,0.08626,0
2026473325,-0.077791,-0.051456,0.227765,3.363429,5.784968,-0.115878,0
2026506659,-0.113501,0.027112,0.245256,2.362638,4.976186,-0.957636,0
2026539993,0.25223,-0.054378,0.27993,1.011521,3.214869,-0.622821,0
2026573327,0.343427,-0.233127,0.223162,-0.838114,1.352075,-0.254213,0
2026606661,0.322916,-0.235858,0.195055,-2.345883,-0.676066,0.820786,0
2026639995,0.117092,-0.201613,0.10678,-3.196701,-1.642429,1.421413,0
2026673329,-0.369002,0.128916,0.068498,-1.5811,-0.54789,0.327446,0
2026706663,-0.552549,0.188797,0.072483,-0.743425,0.336977,-1.154796,0
2026739997,-0.254919,-0.058219,-0.012132,-0.634771,-0.309606,-1.773918,0
2026773331,-0.122842,-0.297856,0.17951,-0.149584,-0.040051,-2.486642,0
2026806665,0.076735,-0.399501,0.341459,0.047676,-0.487916,-4.662356,0
2026839999,0.483666,-0.553478,0.686931,0.730365,0.135996,-3.687169,0
2026873333,0.746858,-0.115042,0.989244,2.703378,0.453365,1.123815,0
2026906667,0.157684,0.280537,0.359166,5.815743,-3.693342,6.401251,0
2026940001,-0.039311,0.190233,-0.648956,3.56584,-0.733491,-0.016641,0
2026973335,0.920569,0.544934,-1.139675,6.03303,-3.764747,3.060129,0
2027006669,0.724145,0.865049,-0.909658,5.483637,-5.137955,2.477418,0
2027040003,-0.297466,0.251312,-0.137964,5.075508,-4.480546,1.326128,0
2027073337,-0.470793,0.589227,-0.21524,5.460207,-2.341242,0.470881,0
2027106671,-0.936291,-0.174343,0.402893,4.954441,-1.377823,-0.035688,0
2027140005,-0.423487,-0.176444,0.072749,3.134402,-0.567232,0.357718,0
2027173339,-0.942394,-0.051587,0.461548,2.937338,-1.86962,-2.369027,0
2027206673,-0.89273,-0.357359,0.656299,1.298637,-2.960011,-2.154595,0
2027240007,-0.685941,0.430103,-0.194246,1.636123,-3.840134,-2.019536,0
2027273341,-0.901106,0.059541,0.16022,1.948447,-2.849545,0.155115,0
2027306675,-0.458257,-0.018852,-0.157751,1.02912,0.356489,1.980882,0
2027340009,-0.760123,-0.227552,-0.294833,-5.133565,1.671483,1.781846,0
2027373343,-0.698553,0.163087,-0.199629,-5.590129,4.301179,5.879473,0
2027406677,-0.774209,0.198051,0.108207,-4.081264,8.709643,-0.042197,0
2027440011,-0.919061,-0.171826,0.786458,-4.504159,5.253324,-3.421001,0
2027473345,-0.184906,-0.107599,1.148906,-1.805285,0.356982,-1.320645,0
2027506679,-0.008177,-0.706591,1.342001,-0.564729,-2.118577,2.811216,0
2027540013,0.441995,-0.160757,0.592793,-2.753821,-4.733778,0.883921,0
2027573347,0.360084,-0.202276,0.064293,-2.330525,-1.555116,0.887692,0
2027606681,-0.313275,-0.328297,0.142216,-1.577357,2.879548,-0.575186,0
2027640015,-0.104798,0.497574,-0.235975,-3.209684,4.418527,-1.265676,0
2027673349,0.109116,0.380614,-0.672588,-3.247225,5.637051,-0.778297,0
2027706683,-0.233629,0.173314,-0.317804,-3.471965,5.048454,-0.897601,0
2027740017,0.103889,-0.110398,-0.103163,-2.354648,2.838122,-0.71357,0
2027773351,0.256356,-0.126387,0.565187,-1.663622,-1.500169,0.709532,0
2027806685,0.156665,-0.316594,1.030828,-1.538869,-4.287665,2.114638,0
2027840019,0.161338,-0.157033,0.203332,-1.394023,-4.688788,1.529167,0
2027873353,0.440116,-0.277858,0.409406,-0.528062,-3.312343,1.427955,0
2027906687,0.519667,-0.13379,0.43739,-0.169021,-1.614351,-0.097314,0
2027940021,0.234287,0.065845,-0.065541,1.285946,1.181937,0.120229,0
2027973355,-0.001773,-0.013744,-0.349677,1.821762,2.639022,-1.887098,0
2028006689,0.103533,-0.035763,-0.273219,1.46604,3.382544,-0.561978,0
2028040023,0.153108,-0.157154,-0.234031,2.917268,5.415731,-0.359131,0
2028073357,0.013641,-0.15593,-0.283092,1.397446,2.995217,1.228952,0
2028106691,-0.204507,-0.011523,-0.230355,0.829804,1.00108,0.695238,0
2028140025,-0.117751,0.108552,-0.178082,-0.808074,-3.423438,1.504087,0
2028173359,0.019863,0.015562,-0.198353,-0.454229,-6.042578,1.550157,0
2028206693,-0.475184,-0.168506,-0.256546,-1.591149,-6.35433,1.677089,0
2028240027,-0.9623,-0.371506,0.075733,-1.270288,-4.369125,-0.019806,0
2028273361,-0.278115,-0.027574,-0.458447,-0.107355,-1.594225,-2.090874,0
2028306695,-0.352524,0.19458,-0.074957,0.350944,0.415925,-3.144022,0
2028340029,0.366711,0.748541,0.001404,3.281987,3.489741,-2.613312,0
2028373363,-0.091795,0.279063,0.290431,3.479399,5.632526,0.147948,0
2028406697,-0.177169,0.870232,-0.075483,4.995027,5.905536,-1.02669,0
2028440031,0.061404,0.431648,0.604031,4.83287,4.259503,-0.907768,0
2028473365,-0.068382,0.181654,0.759905,2.026327,1.219515,1.362373,0
2028506699,-0.676404,-0.126937,0.65442,1.050281,-2.405356,3.049971,0
2028540033,-0.195459,-0.198358,0.71725,-0.668194,-5.363336,3.258769,0
2028573367,0.321928,-0.060238,0.545857,-1.136604,-7.040278,2.867248,0
2028606701,0.157617,-0.226247,0.621547,-0.72733,-6.193664,2.597885,0
2028640035,-0.177968,-0.307781,0.903028,0.366482,-3.739265,1.686545,0
2028673369,-0.170672,0.237441,0.507673,0.717176,-1.7042,-0.871957,0
2028706703,-0.481447,0.255977,0.339006,0.375254,-0.462768,-1.421891,0
2028740037,-0.762404,0.281459,0.328155,0.844286,0.94084,-3.260461,0
2028773371,-0.545663,0.287035,-0.004513,1.516034,3.598066,-1.31872,0
2028806705,-0.351814,0.377583,-0.350851,1.652185,5.129944,-0.201444,0
2028840039,0.321531,0.657862,-0.709589,1.393484,4.711942,-1.951986,0
2028873373,0.256848,0.416967,-0.393696,1.306159,3.561457,-2.017019,0
2028906707,-0.336317,0.258081,0.196436,1.332393,2.025241,-1.117368,0
2028940041,-0.295049,-0.048497,0.364572,0.77898,-0.83965,0.803654,0
2028973375,-0.492375,-0.338129,0.667608,0.632221,-3.365075,1.823056,0
2029006709,0.24654,-0.225332,0.439906,0.967899,-4.485769,2.067589,0
2029040043,0.331841,-0.150151,0.370454,0.807706,-3.836608,1.715617,0
2029073377,0.108656,-0.01501,0.525011,1.316218,-1.739975,1.341589,0
2029106711,-0.171157,0.335013,0.196424,0.920003,-0.266588,1.026529,0
2029140045,-0.375628,0.377543,-0.070621,-0.934915,0.357629,-0.277753,0
2029173379,-0.45751,0.251778,0.087042,-1.337211,1.162352,-1.116536,0
2029206713,-0.341487,0.284933,-0.136021,-2.06257,2.199004,-1.25589,0
2029240047,0.188261,0.554502,-0.026924,-1.917114,2.761238,-1.605481,0
2029273381,-0.340746,0.356274,0.136288,-1.787389,2.023688,-0.956467,0
2029306715,-0.277954,0.160381,0.110485,-0.5733,0.569498,0.102859,0
2029340049,0.102253,0.241121,-0.015773,0.812303,-0.658537,2.182767,0
2029373383,0.048585,-0.138204,0.238354,2.465889,-1.987678,3.450777,0
2029406717,-0.179313,-0.492214,0.444564,2.608494,-2.659381,4.261174,0
2029440051,0.484076,-0.195694,0.521912,1.749651,-1.659807,3.333455,0
2029473385,0.08859,-0.208724,0.57345,0.041895,-0.61199,1.995503,0
2029506719,0.036076,-0.3739,0.67275,-1.472641,0.918989,-0.534614,0
2029540053,-0.194285,-0.181012,1.441482,-3.215723,2.792865,-2.736302,0
2029573387,-1.216427,-0.133418,1.072677,-4.511135,2.899415,-3.650754,0
2029606721,-0.172394,0.513564,0.079906,-4.697425,2.014783,-3.396224,0
2029640055,0.663141,0.170612,-0.176378,-3.163359,1.578587,-2.30513,0
2029673389,0.337681,-0.127326,0.29713,0.237344,-0.062964,0.38147,0
2029706723,0.152645,-0.310551,0.129393,1.548951,-1.958192,2.261244,0
2029740057,0.509508,-0.467412,0.645134,2.002081,-3.97966,4.528084,0
2029773391,0.736008,-0.327439,1.087271,1.861867,-3.42604,3.827359,0
2029806725,0.6202,-0.013635,0.529381,0.962104,-2.811256,2.62851,0
2029840059,0.151025,-0.068146,0.380538,-0.152734,-1.76837,0.931965,0
2029873393,0.057682,0.292239,0.342245,-0.579017,-0.530459,-1.012589,0
2029906727,-0.119461,0.298342,0.049241,-0.543316,1.3943,-3.042479,0
2029940061,-0.629799,0.569215,-0.20484,-0.822267,2.972407,-2.7153,0
2029973395,-0.543104,0.249332,-0.117812,-1.6838,4.422328,-1.097191,0
2030006729,-0.729479,0.059289,-0.099741,-1.263893,4.498928,-2.618831,0
2030040063,-0.325528,0.269924,0.010571,-1.451612,3.339675,-1.070188,0
2030073397,0.134023,0.102753,0.411397,-0.878616,0.533606,0.937198,0
2030106731,0.107465,-0.276651,0.098282,0.037152,-1.723385,2.572853,0
2030140065,0.018058,-0.256322,0.642236,1.168201,-4.843208,4.969217,0
2030173399,0.686676,-0.369114,0.436702,0.795803,-4.731001,4.319272,0
2030206733,0.772626,-0.086123,-0.145328,0.133879,-2.635785,1.69115,0
2030240067,0.231385,0.144683,-0.061804,-0.205371,-0.395008,-0.696527,0
2030273401,0.1271,0.057972,0.072617,-0.589769,-0.432841,-1.009194,0
2030306735,0.009947,-0.146481,0.152475,-1.074657,1.335539,-1.103755,0
2030340069,-0.182791,-0.274462,0.140869,-0.448075,4.109479,-3.041889,0
2030373403,-0.270007,0.036229,0.2209,-1.028121,3.749412,-1.254393,0
2030406737,-0.165824,-0.039865,-0.005591,-0.036968,3.805617,-1.379945,0
2030440071,-0.223461,0.149878,-0.157372,-0.071737,0.577038,-1.137097,0
2030473405,-0.265472,0.129289,-0.150837,1.3623,-0.789966,-0.406434,0
2030506739,0.180895,0.201566,-0.103883,0.94726,-4.966865,3.449773,0
2030540073,0.476114,0.097727,0.401513,0.422731,-4.947046,3.455709,0
2030573407,-0.262456,-0.239638,0.060158,0.567737,-3.130477,1.300166,0
2030606741,-0.438805,0.205625,-0.223722,-1.074197,-2.103437,1.476839,0
2030640075,-0.257301,0.291413,0.452213,-0.652096,1.782683,-0.29446,0
2030673409,-0.374981,-0.436982,0.452237,-0.699607,2.259209,-2.240896,0
2030706743,-0.066559,0.171023,0.232771,-0.316137,3.088839,-3.986074,0
2030740077,-0.666383,0.464361,0.060728,-0.216555,3.998946,-4.12662,0
2030773411,-0.285399,0.478929,-0.576363,-0.624157,3.426443,-3.87702,0
2030806745,-0.268157,0.313791,-0.029424,0.947911,3.816636,-1.387775,0
2030840079,0.322246,0.425201,-0.190125,0.793542,1.002764,1.124674,0
2030873413,0.531403,0.300363,-0.15793,0.551691,-1.600408,2.184443,0
2030906747,0.479463,-0.032115,0.003108,1.162663,-4.842419,2.676287,0
2030940081,0.631585,0.066115,-0.075153,1.423803,-7.264714,4.73923,0
2030973415,0.408661,-0.055483,0.130692,2.766117,-5.112606,2.569332,0
2031006749,0.381744,0.003946,0.156301,2.704323,-2.99272,1.863644,0
2031040083,0.101431,0.022901,0.120051,2.399204,-0.442961,1.0726,0
2031073417,-0.592191,-0.107988,0.427172,1.328432,0.911549,-0.008554,0
2031106751,-0.302861,0.126473,0.076862,1.655145,2.562046,-1.57317,0
2031140085,0.247629,0.230562,-0.203781,1.969595,3.784523,-1.424962,0
2031173419,0.528107,-0.049919,0.212276,1.198559,3.51023,-1.60812,0
2031206753,0.491882,-0.033577,0.056339,0.684702,1.893068,-1.856532,0
2031240087,0.818704,-0.434226,-0.186128,0.933721,-0.882245,-0.055777,0
2031273421,0.796228,-0.449728,-0.034345,0.667345,-2.653158,2.522201,0
2031306755,0.428652,-0.075764,-0.280111,1.932777,-1.09088,1.724107,0
2031340089,0.287162,0.360001,-0.293853,0.118226,-1.931173,1.437382,0
2031373423,-0.200739,0.540389,-0.123773,-1.126881,-1.55695,-0.018711,0
2031406757,-0.663513,0.387649,0.007118,-1.866959,-0.037731,-1.502859,0
2031440091,-0.815336,0.10522,-0.013885,-2.881953,0.795882,-1.800714,0
2031473425,-0.394836,-0.010741,-0.099116,-4.226987,1.025114,-1.048576,0
2031506759,0.154327,-0.117517,-0.146351,-4.372907,1.695316,-1.462647,0
2031540093,0.398803,0.008855,-0.119823,-3.565185,2.589246,-3.122641,0
2031573427,0.079335,0.007231,0.143117,-2.906584,1.80786,-3.0905,0
2031606761,0.202341,-0.116062,-0.008978,-2.286946,0.137278,-1.881891,0
2031640095,0.601883,-0.107689,-0.141379,-1.718511,-0.694874,-0.049054,0
2031673429,0.651866,-0.046162,0.283938,-0.221958,-1.694233,0.975076,0
2031706763,0.859391,-0.407935,0.36262,-0.051605,-2.332262,2.116149,0
2031740097,0.867571,-0.18693,0.289771,-0.551903,-2.696351,1.586829,0
2031773431,0.192581,0.184391,-0.154397,-1.391261,-1.814119,0.934602,0
2031806765,-0.341197,0.330868,-0.563619,-2.017461,0.428328,0.047954,0
2031840099,-0.434963,0.335737,-0.31911,-2.516397,2.165894,-0.249724,0
2031873433,-0.088593,-0.001471,0.136713,-2.990046,2.605356,-0.306525,0
2031906767,-0.094865,0.120175,0.134247,-2.592493,4.254781,-0.499888,0
2031940101,0.250525,-0.16097,0.350233,-2.214767,4.477844,-1.133821,0
2031973435,0.933051,0.285458,-0.063974,-2.197632,3.54262,-0.313799,0
2032006769,0.098586,0.28183,0.612274,-1.664304,3.586316,-0.362409,0
2032040103,-0.028479,-0.002903,0.310458,-0.64471,3.020642,-1.352413,0
2032073437,0.120769,0.026433,0.030221,0.853458,2.889625,-1.648592,0
2032106771,0.506257,-0.009884,0.348465,1.754531,2.084735,-1.624075,0
2032140105,0.802146,-0.026561,-0.106761,2.452509,0.789588,-1.185773,0
2032173439,0.153947,-0.107878,0.454429,2.907873,0.24714,-0.9313,0
2032206773,-0.442279,-0.268679,0.42297,3.553499,-0.769435,-0.231952,0
2032240107,-0.556046,-0.367636,0.051031,3.189031,-2.204202,-0.18022,0
2032273441,-0.637355,-0.249792,0.24334,3.955578,-2.10651,-0.15353,0
2032306775,-0.421672,-0.080095,0.046305,4.414732,-3.741569,2.64526,0
2032340109,-0.367818,0.076763,0.078999,3.051891,-3.444959,1.915157,0
2032373443,-0.656841,0.314633,0.33032,3.006377,-3.695269,2.294799,0
2032406777,-0.712225,0.473021,-0.044364,2.983731,-3.863319,2.306818,0
2032440111,-0.680289,0.51372,-0.263227,2.151423,-3.497077,1.777332,0
2032473445,-0.497793,0.562693,-0.120204,1.702772,-3.229895,0.646156,0
2032506779,-0.609354,0.402083,0.282385,1.005571,-2.56724,1.229259,0
1868503499,-2.716081,-0.265802,0.864559,-0.711115,-2.501205,0.246509,1
1868536833,-1.257231,-0.718589,-0.356302,-0.431445,-3.06797,1.008821,1
1868570167,-0.923367,-1.274205,-0.35444,0.485834,-3.745593,1.588392,1
1868603501,-0.84143,-0.772798,-0.147447,1.924909,-3.807876,1.687333,1
1868636835,-1.63725,-0.575581,0.091543,3.375857,-3.53268,1.72495,1
1868670169,-2.497443,-0.86596,-0.488038,4.556011,-3.086108,1.414079,1
1868703503,-2.532929,-0.657513,-0.206335,5.410283,-2.517288,0.772506,1
1868736837,-2.373174,-0.635549,0.250891,5.98444,-1.777323,-0.668037,1
1868770171,-1.151087,-0.853667,-0.119436,6.100066,-1.506367,-1.957692,1
1868803505,0.336732,-0.195904,-0.212567,6.071174,-1.84554,-2.417218,1
1868836839,0.543761,0.300793,-0.090766,6.500244,-1.689859,-2.366383,1
1868870173,0.291224,1.345686,0.317893,7.180003,-1.04232,-2.096574,1
1868903507,0.058384,1.803303,0.214856,7.517172,0.172157,-1.830597,1
1868936841,-1.353603,0.156166,-0.235582,7.855076,2.240518,-1.297791,1
1868970175,-2.614467,-1.358035,0.650516,8.047146,4.012351,-0.335918,1
1869003509,-2.879836,-0.845555,2.853515,7.315969,4.736086,0.473812,1
1869036843,-1.015031,1.442239,2.494347,4.60094,3.418309,-0.153077,1
1869070177,0.479766,2.764173,0.199313,2.699963,3.19599,0.08595,1
1869103511,-0.21725,1.101432,-0.520034,1.435697,3.595673,0.770153,1
1869136845,-3.027409,-1.910682,-0.557543,0.252302,5.117435,2.389956,1
1869170179,-4.712816,-4.802063,0.149621,-1.34405,6.820102,2.633042,1
1869203513,-3.624844,-6.362803,0.590653,-3.937902,6.523015,0.853858,1
1869236847,-0.896751,-4.166074,-0.324618,-6.364564,3.575774,-1.045624,1
1869270181,0.598896,-2.267453,0.45665,-7.149269,0.187944,-2.566941,1
1869303515,1.300231,-2.129052,0.768018,-5.990456,-1.397905,-3.313678,1
1869336849,1.176899,-2.064638,-0.152821,-4.012389,-1.661036,-3.241884,1
1869370183,0.949486,-1.993073,-0.522564,-2.354247,-1.46494,-2.562291,1
1869403517,1.437866,-1.951482,-0.593716,-1.225592,-1.141941,-1.695543,1
1869436851,1.5299,-1.774554,0.310973,-0.3644,-0.373471,-1.076349,1
1869470185,0.413052,-1.284848,-0.035772,0.347813,0.530549,0.176528,1
1869503519,0.162907,0.359945,-0.501634,1.955335,1.492949,3.044709,1
1869536853,0.667853,0.711762,-0.978282,1.252026,2.117505,3.876876,1
1869570187,0.683208,1.438688,-2.12914,-0.720671,1.771069,3.001804,1
1869603521,2.03369,0.712244,-2.608685,0.409943,0.937619,2.858963,1
1869636855,0.589781,-4.965294,1.451234,1.559831,1.107793,1.926903,1
1869670189,3.889403,1.33266,1.131334,2.419311,1.212286,0.291408,1
1869703523,-0.837406,3.346378,1.577309,3.280354,1.615421,-0.635672,1
1869736857,-0.361921,1.436385,1.324073,4.14698,2.781777,-0.460429,1
1869770191,0.9499,2.594748,-0.486729,3.643359,3.899394,0.910915,1
1869803525,-0.178565,1.889737,0.186575,1.156314,3.435422,1.44815,1
1869836859,0.495483,1.166113,-0.570693,-0.635653,1.267044,1.378582,1
1869870193,0.064671,0.963761,-0.045503,-1.624673,-0.516651,0.61167,1
1869903527,0.59874,-0.365906,0.286748,-2.580753,-1.612084,0.185656,1
1869936861,1.524117,-1.459308,0.158335,-3.923284,-1.909879,0.312943,1
1869970195,0.998492,-0.985886,-0.041476,-4.673254,-1.135427,0.24315,1
1870003529,0.271036,-2.08357,0.399071,-4.643114,-0.518249,-0.192429,1
1870036863,-0.084976,-3.052607,0.408762,-3.843579,0.154304,-1.257493,1
1870070197,0.58706,-2.30442,0.220904,-2.388025,0.147368,-1.69101,1
1870103531,0.094522,-1.160129,-0.000921,-1.227917,-0.163149,-1.852603,1
1870136865,0.28678,-0.576064,0.120184,-1.520254,-0.081496,-2.048616,1
1870170199,0.382275,-0.12031,0.169675,-2.304822,-0.043143,-2.08119,1
1870203533,0.403988,0.659438,0.291389,-2.766858,-0.174957,-1.415544,1
1870236867,0.059377,0.957404,0.344098,-2.879389,-0.233145,-0.780535,1
1870270201,0.053208,0.547894,0.102953,-2.215622,0.192296,0.105905,1
1870303535,0.360279,0.069732,-0.14885,-1.063363,0.605366,0.988443,1
1870336869,0.44016,-0.211861,0.174619,0.283807,1.398275,1.928559,1
1870370203,0.381569,-0.14639,0.266252,2.597726,1.950079,2.711032,1
1870403537,0.186699,-0.112907,0.223897,3.811126,0.888891,2.474236,1
1870436871,-0.024623,-0.063449,0.103802,2.982636,-0.358937,1.607236,1
1870470205,-0.267846,-0.731008,0.31719,0.835268,0.486043,0.533504,1
1870503539,-0.304235,-1.104052,0.098496,0.056817,1.566214,-0.018367,1
1870536873,-0.899958,-1.430427,-0.282071,0.523878,1.687784,-0.36698,1
1870570207,-1.038549,-1.400912,-0.04394,1.370972,1.531046,-0.138725,1
1870603541,-0.644893,1.305696,-0.815805,1.549706,1.678585,-0.255891,1
1870636875,1.051683,2.295419,0.275359,0.794439,1.558646,-0.690756,1
1870670209,3.448614,0.927354,1.027049,0.07018,1.711023,-0.719163,1
1870703543,3.249549,-0.47034,0.706517,0.168261,2.059451,0.386008,1
1870736877,0.372466,-0.176788,0.444662,0.50027,1.89374,0.999116,1
1870770211,-2.616867,1.53135,0.227191,0.373034,1.349954,0.557646,1
1870803545,-2.621277,0.783625,-0.304952,-0.000698,0.653285,0.012139,1
1870836879,-0.739825,-0.717602,-0.211642,-0.357544,0.100144,0.001063,1
1870870213,0.642676,-1.970796,-0.039878,-0.475298,-0.328233,0.534047,1
1870903547,0.611878,-1.593085,-0.093984,-0.625234,-0.715121,0.895083,1
1870936881,0.312345,-0.810155,0.186916,-0.714674,-1.163976,0.840963,1
1870970215,-0.182129,-0.001229,0.283219,-0.665629,-1.531779,0.668835,1
1871003549,-0.437304,0.296293,0.239449,-0.39165,-1.42296,-0.049413,1
1871036883,-0.340446,0.169138,0.06269,-0.126214,-1.206555,-0.59201,1
1871070217,-0.051107,-0.139713,-0.111784,-0.106087,-0.947278,-0.797614,1
1871103551,0.043339,-0.502293,0.23473,-0.134624,-0.606124,-0.619345,1
1871136885,0.226918,-0.545826,0.199508,-0.120294,-0.40929,-0.240338,1
1871170219,0.282731,-0.439447,0.076166,-0.178132,-0.452164,0.027408,1
1871203553,0.113325,-0.358607,0.101679,-0.306623,-0.41388,0.286696,1
1871236887,0.406431,-0.115586,0.056104,-0.477772,-0.240999,0.463511,1
1871270221,0.111017,-0.456539,0.236088,-0.432815,0.117254,0.416516,1
1871303555,-0.013223,-0.703499,0.024811,-0.343489,0.378515,0.304006,1
1871336889,-0.204759,-0.827367,-0.080084,-0.343966,0.720867,0.13956,1
1871370223,-0.386591,-0.876722,-0.055166,-0.307827,1.101141,-0.15064,1
1871403557,-0.383657,-1.022863,0.084259,-0.224572,1.390967,-0.16554,1
1871436891,-0.313128,-1.021705,-0.054857,-0.207255,1.531393,-0.115583,1
1871470225,-0.102887,-0.527183,0.211498,-0.282589,1.556225,-0.090156,1
1871503559,0.601599,-0.50744,0.596746,-0.420114,1.42974,0.0854,1
1871536893,0.782317,0.06262,0.52309,-0.400631,1.336272,0.283231,1
1871570227,0.295404,0.560168,0.480047,-0.279745,1.232474,0.53418,1
1871603561,0.216822,0.49202,0.29837,0.029248,1.153039,0.496025,1
1871636895,-0.896217,0.321184,0.653883,0.914988,-0.681559,0.851495,1
1871670229,-1.484191,0.130952,0.762322,3.118126,-0.293254,1.339301,1
1871703563,-0.805478,0.450463,0.187565,2.530451,-2.297734,0.489628,1
1871736897,0.031042,0.08835,0.054543,0.843075,-1.36759,-0.468915,1
1871770231,0.65997,0.19454,0.595475,-0.01334,-0.077077,-0.243443,1
1871803565,0.00097,-0.116563,0.409912,-0.623075,0.182341,0.084621,1
1871836899,0.005813,-0.29616,-0.016758,-1.01796,0.599877,0.265825,1
1871870233,0.327201,0.395816,-0.234661,-1.340352,0.685739,0.050857,1
1871903567,0.315195,1.012834,-0.65989,-1.419436,0.71496,-0.101877,1
1871936901,0.430409,0.069833,-0.712064,-1.228953,0.970204,-0.225205,1
1871970235,-0.007095,-0.60875,-0.536522,-0.731278,1.326137,-0.065782,1
1872003569,-0.011595,-0.57324,-0.33329,-0.781646,0.320842,-0.085406,1
1872036903,-0.063292,-0.733049,0.387728,-0.256178,0.035471,0.034687,1
1872070237,-0.343189,-0.834297,0.532923,0.251474,-0.238718,0.308482,1
1872103571,0.118943,-0.945381,0.122266,0.550328,-1.861321,0.124629,1
1872136905,0.08411,-0.905682,-0.015164,1.434768,-1.322192,0.602139,1
1872170239,0.420581,-0.763049,-0.618827,0.905613,-0.398472,0.236401,1
1872203573,0.546794,-0.214014,-0.990296,0.209178,0.330703,-0.260019,1
1872236907,0.348705,0.183932,-0.849993,0.131751,0.763592,-0.277706,1
1872270241,0.324242,1.44037,-0.205702,-0.102442,0.72472,-0.715796,1
1872303575,-0.129713,1.130675,1.582382,-0.36068,0.658587,-1.107928,1
1872336909,-0.343226,-1.156765,1.598359,-0.214555,1.17502,-0.829265,1
1872370243,-0.457063,-0.367356,-0.09851,0.358252,1.340085,-0.215699,1
1872403577,-0.378059,0.207936,-0.880864,1.528264,1.38826,1.20084,1
1872436911,-0.008131,0.159057,-0.573196,0.953195,0.586175,1.778838,1
1872470245,0.782791,-0.625114,-0.830509,2.321415,0.652157,2.936985,1
1872503579,0.978662,-0.675187,-1.032544,1.591164,-0.258047,3.371397,1
1872536913,0.477409,-0.020983,0.400826,2.144467,-0.94416,4.528978,1
1872570247,-0.085017,-0.157337,2.822181,2.22066,-0.605444,4.990576,1
1872603581,-1.261696,0.182509,2.435258,2.606964,-0.537628,5.335416,1
1872636915,-0.699524,0.598903,0.230509,1.395267,-0.616202,5.039635,1
1872670249,0.03048,0.116375,-0.986724,-0.422076,-0.641667,4.852358,1
1872703583,0.8738,-0.495259,-0.995925,-3.065606,-1.195764,4.943045,1
1872736917,0.97769,-0.453817,-0.07129,-5.802956,-3.263607,2.548098,1
1872770251,0.279867,-0.083936,0.581961,-6.197525,-0.126981,-0.102002,1
1872803585,-0.443931,0.322872,0.614366,-5.288102,2.668126,-0.585086,1
1872836919,-0.605979,0.170391,0.353806,-4.634788,2.456056,-1.133342,1
1872870253,-0.002275,-0.157249,0.12845,-3.625852,3.125071,-2.544764,1
1872903587,0.35108,-0.301055,0.082001,-2.347218,2.290284,-3.655141,1
1872936921,0.343485,-0.142713,-0.015036,2.190949,2.217952,-4.441391,1
1872970255,0.184406,0.152662,0.06142,-0.29864,1.429551,-3.719221,1
1873003589,-0.072007,0.323917,0.14232,0.683238,1.891942,-3.204865,1
1873036923,-0.082459,0.325678,0.211846,1.320922,1.975779,-4.105674,1
1873070257,0.054159,0.188121,0.161935,1.93045,1.048822,-3.326656,1
1873103591,0.201462,0.03563,0.107586,0.897207,0.172291,-3.380311,1
1873136925,0.190214,-0.05151,0.045134,0.397843,-1.248642,-3.265343,1
1873170259,0.122099,-0.209666,0.018775,1.285868,-1.822546,-1.819159,1
1873203593,0.156868,-0.308061,0.112812,1.268617,-1.623989,-1.181172,1
1873236927,0.166781,-0.29684,0.174648,1.409922,-0.765705,-0.764162,1
1873270261,0.140126,-0.347584,0.136178,0.991856,-0.556858,-0.739219,1
1873303595,0.123933,-0.363483,0.18089,1.249439,-0.733233,-0.107248,1
1873336929,0.146618,-0.263086,0.207722,1.670899,0.218013,0.71077,1
1873370263,0.199965,-0.13089,0.19109,-0.744508,0.429429,-1.163655,1
1873403597,0.16495,-0.071728,0.078714,-0.316474,-0.009682,-1.020926,1
1873436931,0.203092,-0.037929,0.087286,0.59929,0.265953,-0.489281,1
1873470265,0.228767,-0.007113,0.119061,-1.214807,0.037302,-2.628603,1
1873503599,0.21538,0.015735,0.090217,2.028498,0.087242,0.358005,1
1873536933,0.146095,-0.002993,0.125224,2.30034,0.564662,0.875944,1
1873570267,0.16222,0.057819,0.126144,2.090096,0.22558,0.782889,1
1873603601,0.160177,0.117832,0.138237,0.711471,0.41683,-0.274572,1
1873636935,0.117666,0.096909,0.114366,-0.457898,0.57395,-1.027612,1
1873670269,0.169533,0.121046,0.144366,0.072125,0.6219,-0.462981,1
1873703603,0.212906,0.075119,0.094941,0.872889,0.212948,0.397724,1
1873736937,0.231962,0.008504,0.03064,0.975894,0.044777,0.349964,1
1873770271,0.195724,-0.032084,0.08212,0.908167,0.349088,0.202612,1
1873803605,0.150592,-0.049693,0.139279,0.413342,0.131152,-0.398896,1
1873836939,0.085053,-0.097249,0.124864,0.185503,-0.286918,-0.765709,1
1873870273,0.058846,-0.101275,0.189878,0.470986,-0.477926,-0.925054,1
1873903607,0.041644,-0.184669,0.08066,0.691062,0.502856,-0.406375,1
1873936941,0.108417,-0.255165,0.102648,1.399324,1.677413,-0.696264,1
1873970275,0.086018,-0.181387,0.267218,2.787853,1.032005,-0.657569,1
1874003609,0.081079,-0.175579,0.107984,2.63724,-0.882229,-1.565627,1
1874036943,0.078258,-0.124074,0.104405,1.158806,-1.333732,-1.791459,1
1874070277,0.004458,-0.06746,0.121496,1.205667,-0.991845,-1.962964,1
1874103611,-0.010613,0.018825,0.163616,1.442878,0.531326,-3.159406,1
1874136945,0.056259,0.066316,0.137352,0.973814,0.943649,-4.034406,1
1874170279,0.058888,0.01891,0.089377,1.210297,1.116929,-3.69772,1
1874203613,0.109276,-0.056592,0.089495,-0.328224,-0.229899,-3.390074,1
1874236947,0.156172,0.016627,0.163911,-1.416283,-0.282204,-2.598706,1
1874270281,0.1291,0.03161,0.160769,-0.927047,0.909741,-3.646715,1
1874303615,0.075015,0.079306,0.13024,-1.818127,1.149062,-4.311697,1
1874336949,0.055213,0.158103,0.146485,-4.406438,0.364408,-0.073612,1
1874370283,0.100255,0.10582,0.146401,-4.362223,0.042453,1.973702,1
1874403617,0.137758,-0.113934,0.082531,-3.301809,-0.293518,4.323259,1
1874436951,0.225458,-0.257619,0.153336,-2.144807,-0.058849,3.365256,1
1874470285,0.217753,-0.2966,0.11125,-1.741082,-0.242293,0.931267,1
1874503619,0.115317,-0.258626,0.13081,-0.890778,0.425136,4.883964,1
1874536953,0.041615,-0.119862,0.167166,0.105439,0.466448,6.846174,1
1874570287,0.098359,0.08598,0.223351,0.890024,-0.917205,3.456038,1
1874603621,-0.015433,0.072435,0.244021,0.328774,-0.428623,3.165923,1
1874636955,0.05245,0.039791,0.115911,-0.021861,-0.414411,1.626963,1
1874670289,0.159123,0.0489,0.139054,0.148909,-0.481572,1.378589,1
1874703623,0.595875,0.772634,-0.000896,0.513635,-1.034489,0.754855,1
1874736957,0.069318,-0.081309,0.302363,3.902631,-0.93682,1.105352,1
1874770291,-0.179534,0.073602,-0.170031,3.279915,1.037578,2.185332,1
1874803625,0.496105,0.208679,-0.100942,-0.146046,1.100252,0.394096,1
1874836959,0.467088,0.389766,0.023122,-0.279916,0.997187,1.154207,1
1874870293,0.069102,0.12608,0.072573,-0.353103,0.037902,0.502545,1
1874903627,-0.21624,0.149802,0.095174,0.246864,-0.276008,0.032017,1
1874936961,-0.012704,0.155985,0.093055,0.24317,0.053938,-0.385099,1
1874970295,0.097321,0.118364,0.200163,-0.249974,0.543838,-0.55725,1
1875003629,0.085894,-0.050247,0.226991,-0.360543,0.547149,-0.300226,1
1875036963,0.145029,-0.220996,0.179603,-0.28995,0.306519,-0.151441,1
1875070297,0.247744,-0.15046,0.137667,-0.100044,0.058131,0.372827,1
1875103631,0.27076,-0.142212,0.072625,0.106709,0.087653,0.326511,1
1875136965,0.119572,-0.130491,0.058121,-0.097909,0.23033,0.177032,1
1875170299,0.11866,-0.051741,0.053177,0.126641,0.43993,0.217238,1
1875203633,0.179783,0.10953,0.131906,-0.112777,0.920347,0.940339,1
1875236967,0.14419,0.103112,0.138938,-0.184655,0.830279,0.711478,1
1875270301,0.06533,0.057082,0.116496,-0.10097,0.150881,0.435939,1
1875303635,0.123956,0.078855,0.203605,0.518065,-1.18341,-0.69538,1
1875336969,0.062437,0.255432,-0.047075,0.252838,-0.47658,-0.23891,1
1875370303,0.12699,0.047966,-0.016148,0.183341,1.770409,1.260632,1
1875403637,0.123536,0.031798,0.141501,-0.405741,0.681136,-0.019338,1
1875436971,0.154111,0.151399,0.137612,-0.237522,-0.419855,-0.310474,1
1875470305,0.054121,0.118905,0.071972,0.162919,0.256345,0.697761,1
1875503639,-0.033011,0.04956,0.156473,-0.147954,-0.639614,-0.272476,1
1875536973,0.10206,-0.209393,0.334875,-0.134258,-0.239919,-0.016408,1
1875570307,0.071328,-0.213832,0.211646,0.306323,-0.03099,0.194092,1
1875603641,-0.031896,-0.341696,0.251954,-0.134626,-0.603115,-0.424694,1
1875636975,0.024269,-0.290489,0.238938,0.164001,-0.200585,0.231156,1
1875670309,0.072044,-0.180344,0.129341,0.271273,-0.013437,0.327048,1
1875703643,0.113619,-0.080296,0.124041,0.068863,0.005201,0.441637,1
1875736977,0.086517,-0.017722,0.036844,0.236013,-0.138987,0.078483,1
1875770311,0.102761,0.091169,0.092976,-0.409292,-0.47323,-1.277958,1
1875803645,0.009428,0.280744,0.143794,0.091354,0.692243,-0.793451,1
1875836979,-0.069622,0.352145,0.163438,0.391578,1.205604,-0.494087,1
1875870313,-0.022634,0.332107,0.074841,0.174921,0.476329,-0.526856,1
1875903647,0.082252,0.102275,0.084823,-0.097503,-0.047187,-0.383709,1
1875936981,0.161815,-0.184094,0.074464,-0.20695,-0.987862,0.277758,1
1875970315,0.145552,-0.417649,0.128095,-0.214727,-0.814256,0.98342,1
1876003649,0.129743,-0.344647,0.141366,-0.175467,-0.233385,0.662193,1
1876036983,0.125964,-0.315942,0.215808,-0.233991,-0.531313,0.269696,1
1876070317,0.014499,-0.140737,0.26666,0.078114,0.03354,0.172291,1
1876103651,0.003818,0.009996,0.164705,0.548771,1.028808,0.875375,1
1876136985,0.109574,0.107321,0.076221,-0.063761,0.287418,-0.219547,1
1876170319,0.133805,0.185091,0.096855,0.296068,1.506646,1.0408,1
1876203653,0.084538,0.147865,0.109771,0.459103,1.856899,1.220431,1
1876236987,0.134924,0.150201,0.063849,0.166759,1.27419,0.432578,1
1876270321,0.150892,0.087564,0.119122,0.00103,1.344521,0.95892,1
1876303655,0.095303,-0.068637,0.119251,-0.291162,-0.347211,-0.160239,1
1876336989,0.073775,-0.075762,0.150348,-0.219399,-0.9568,-0.5198,1
1876370323,0.072251,-0.113606,0.101715,0.115185,-1.530377,-0.325746,1
1876403657,0.110084,-0.14923,0.219867,-0.049262,-0.932456,-0.442642,1
1876436991,0.080466,-0.111239,0.134218,0.006198,0.056831,0.199411,1
1876470325,0.09561,-0.121295,0.131508,-0.153639,0.227199,-0.365675,1
1876503659,0.090757,-0.01595,0.117043,-0.099104,0.554487,-0.778839,1
1876536993,0.096576,0.007616,0.095496,0.174033,1.311271,0.18214,1
1876570327,0.099889,0.020347,0.099726,0.059439,1.312361,0.92074,1
1876603661,0.06075,0.002961,0.198316,-0.780786,1.286348,-0.199189,1
1876636995,-0.011614,-0.071117,0.195085,-1.18704,0.546682,-1.463634,1
1876670329,0.029391,-0.187145,0.010517,0.226538,-2.291332,-0.788617,1
1876703663,0.12772,-0.164657,0.192884,0.28009,0.018775,1.233447,1
1876736997,0.008884,-0.164237,0.190208,-0.165398,0.752049,0.464472,1
1876770331,0.091252,-0.032043,0.193841,0.177186,0.613519,0.34934,1
1876803665,0.06545,0.052611,0.166512,0.457587,0.634116,0.490943,1
1876836999,0.084212,0.113609,0.095968,0.820278,-0.301389,0.30093,1
1876870333,0.120674,0.130189,0.07278,0.473376,-0.754266,0.12845,1
1876903667,0.158995,0.162432,0.09514,0.059659,-0.407841,0.037039,1
1876937001,0.15743,0.110559,-0.019762,0.086823,-0.798227,-0.297336,1
1876970335,0.189237,0.119794,0.082364,-0.523993,0.150998,0.395737,1
1877003669,0.119132,0.101746,0.160515,-0.568657,-0.919782,-0.367665,1
1877037003,0.09173,0.0635,0.127697,-0.375417,-0.83849,0.075392,1
1877070337,0.102197,0.087911,0.096941,-0.325511,-0.493493,0.138988,1
1877103671,0.101748,0.058153,0.131935,-0.471992,-0.213298,0.010394,1
1877137005,0.073956,0.045658,0.168859,-0.37721,0.003555,0.043333,1
1877170339,0.029252,0.04596,0.174364,-0.04311,0.0554,0.26061,1
1877203673,0.033564,0.054189,0.109761,0.11433,0.106723,0.262402,1
1877237007,0.041605,0.045948,0.157261,0.014965,-0.004148,0.172328,1
1877270341,0.056024,-0.006311,0.093349,-0.349305,-0.096628,0.145239,1
1877303675,0.106798,0.021983,0.101145,-0.204248,-0.25681,-0.063985,1
1877337009,0.080622,0.057423,0.147928,-0.238879,-0.227182,-0.135378,1
1877370343,0.037327,0.113681,0.14088,-0.193959,-0.025668,0.099359,1
1877403677,0.02799,0.163332,0.119951,-0.265464,-0.231158,-0.003725,1
1877437011,0.080002,0.035438,0.12291,-0.173151,-0.343079,-0.010467,1
1877470345,0.141861,-0.024747,0.150996,-0.296989,-0.234405,0.255345,1
1877503679,0.092368,-0.014606,0.157145,-0.264956,-0.269835,0.038842,1
1877537013,0.106513,-0.005311,0.133982,0.019133,-0.246902,-0.348472,1
1877570347,0.115219,0.000241,0.078958,0.164419,0.079007,-0.069714,1
1877603681,0.10779,0.025174,0.080696,0.227847,0.238473,0.083863,1
1877637015,0.118094,0.03343,0.114392,0.136866,0.143993,0.041853,1
1877670349,0.11843,0.040496,0.112731,0.014883,-0.080568,0.124893,1
1877703683,0.097711,0.030205,0.091612,-0.121791,-0.24483,0.392489,1
1877737017,0.082365,0.006096,0.141212,-0.148911,-0.217602,0.124852,1
1877770351,0.088786,-0.020306,0.143569,-0.070432,-0.214801,0.133489,1
1877803685,0.089703,-0.015215,0.160082,0.130445,-0.08456,0.081592,1
1877837019,0.053361,0.002782,0.119136,0.193282,0.113849,0.230618,1
1877870353,0.078773,-0.018808,0.101902,0.13177,0.348738,0.403797,1
1877903687,0.055718,-0.062805,0.112872,0.092048,0.233364,0.388922,1
1877937021,0.094719,-0.083896,0.162115,0.000798,0.004494,0.085448,1
1877970355,0.027762,-0.085591,0.149128,-0.035028,-0.090544,-0.132395,1
1878003689,0.008112,-0.143226,0.134027,0.016532,-0.053431,-0.17604,1
1878037023,0.03029,-0.156811,0.214006,0.109539,-0.045045,-0.153688,1
1878070357,-0.018657,-0.126674,0.164454,-0.011649,-0.023444,-0.222397,1
1878103691,-0.010103,-0.146856,0.233859,0.056839,0.020591,-0.196664,1
1878137025,-0.055747,-0.207236,0.157819,0.012695,-0.00131,0.01436,1
1878170359,0.007625,-0.192784,0.154848,-0.025561,0.049241,0.067187,1
1878203693,0.024717,-0.193186,0.124457,0.15239,-0.219052,-0.212274,1
1878237027,0.076634,-0.10382,0.139024,0.030355,0.050172,0.015596,1
1878270361,0.118658,-0.009008,0.095688,0.177834,0.060599,-0.104344,1
1878303695,0.141871,0.084157,0.031913,0.168012,0.184032,0.0945,1
1878337029,0.090994,0.151218,0.014085,0.217734,-0.035736,0.140184,1
1878370363,0.105855,0.177848,0.074613,0.034478,0.004099,0.230949,1
1878403697,0.182034,0.181213,0.07644,-0.235339,-0.02126,0.120716,1
1878437031,0.162944,0.21033,0.107102,-0.278626,-0.325986,-0.201396,1
1878470365,0.150494,0.235014,0.10746,-0.327821,-0.615588,-0.493488,1
1878503699,0.089246,0.254103,0.118426,-0.247186,-0.81851,-0.947736,1
1878537033,0.081602,0.225871,0.07279,-0.513071,-0.894755,-1.19074,1
1878570367,0.117777,0.148112,0.117505,-0.657366,0.30419,1.230849,1
1878603701,0.090362,0.046662,0.135453,-0.280862,0.308559,1.757906,1
1878637035,0.097645,-5.6e-05,0.212093,0.13496,0.077176,1.412337,1
1878670369,0.073155,-0.019428,0.15411,0.136071,-0.126449,0.311387,1
1878703703,0.071827,-0.008187,0.10106,-0.13931,-0.091955,-0.349222,1
1878737037,0.10609,0.011044,0.07362,-0.193314,-0.075346,-0.396259,1
1878770371,0.080447,0.035587,0.14201,-0.122771,-0.090837,0.020415,1
1878803705,0.081103,0.097595,0.152373,-0.156847,-0.130876,0.350398,1
1878837039,0.073966,0.080807,0.087404,-0.168976,-0.292659,0.089653,1
1878870373,0.10016,0.102564,0.074087,-0.221791,-0.229946,0.042866,1
1878903707,0.081509,0.123381,0.113802,-0.05412,-0.134792,0.050485,1
1878937041,0.063895,0.147579,0.120612,0.089029,-0.076676,0.004001,1
1878970375,0.056809,0.124912,0.068625,0.083492,-0.0362,0.068241,1
1879003709,0.061392,0.103768,0.101943,0.048366,-0.10045,0.096931,1
1879037043,0.090786,0.080962,0.106095,-0.053965,-0.189714,0.088928,1
1879070377,0.06478,0.079925,0.102643,-0.100277,-0.151796,0.119594,1
1879103711,0.020481,0.049906,0.155723,-0.063785,-0.117058,0.211932,1
1879137045,0.054166,-0.02276,0.097945,0.008586,-0.082157,0.094393,1
1879170379,0.07774,-0.081603,0.106965,0.065788,-0.011361,0.018041,1
1879203713,0.019932,-0.113307,0.139281,0.087682,0.147186,0.241872,1
1879237047,-0.021683,-0.130696,0.169069,0.122224,0.085638,0.231131,1
1879270381,-0.031609,-0.147746,0.15759,0.022499,-0.045022,0.059291,1
1879303715,-0.022172,-0.14533,0.224781,-0.07005,-0.115699,0.009565,1
1879337049,0.029648,-0.078853,0.172533,-0.1062,-0.097431,0.040639,1
1879370383,0.028561,-0.054372,0.140022,-0.054784,-0.079031,0.082249,1
1879403717,-0.014619,0.022306,0.111976,0.060886,-0.106203,0.096247,1
1879437051,0.019857,0.027177,0.092032,0.130141,-0.060022,0.117034,1
1879470385,0.040649,-0.048357,0.146897,0.192223,0.021253,0.112499,1
1879503719,0.0312,-0.029765,0.115162,0.223988,0.048991,0.146869,1
1879537053,0.016768,-0.032438,0.110031,0.250299,0.07137,0.161348,1
1879570387,0.011871,-0.063501,0.124413,0.17352,0.050931,0.057008,1
1879603721,0.041239,-0.041433,0.142159,0.060441,0.00949,-0.004468,1
1879637055,0.041635,-0.010943,0.131034,-0.068325,-0.073517,0.189509,1
1879670389,-0.013523,0.014039,0.145342,-0.096421,-0.276803,0.093477,1
1879703723,0.011266,0.055844,0.169016,-0.132467,-0.207025,0.029963,1
1879737057,0.024922,0.060703,0.13798,-0.073227,-0.080239,0.079593,1
1879770391,0.015366,0.010292,0.113187,-0.00648,-0.070384,0.130893,1
1879803725,-0.036422,-0.090753,0.137027,-0.00936,-0.022259,0.095687,1
1879837059,-0.017029,-0.122172,0.188282,-0.007213,-0.00199,0.098063,1
1879870393,-0.00046,-0.129016,0.163757,0.026403,-0.007864,0.108507,1
1879903727,0.031181,-0.119082,0.182279,-0.011356,-0.000314,0.036828,1
1879937061,0.082076,-0.069241,0.155633,0.052933,0.02858,0.130363,1
1879970395,0.082876,0.031096,0.068326,0.073017,-0.00067,0.150511,1
1880003729,0.087788,0.129321,0.079131,0.104523,-0.075763,0.05175,1
1880037063,0.092635,0.141501,0.076739,-0.009274,-0.031284,0.011517,1
1880070397,0.1556,0.154309,0.093026,-0.091625,-0.099994,0.006989,1
1880103731,0.131463,0.124297,0.058856,-0.053603,-0.130271,0.070178,1
1880137065,0.114427,0.093939,0.074815,-0.04281,-0.094301,0.020129,1
1880170399,0.12797,0.118321,0.1133,-0.108702,-0.091528,-0.025879,1
1880203733,0.108708,0.099393,0.09401,-0.166084,-0.152496,0.02371,1
1880237067,0.031451,0.053338,0.135184,-0.165616,-0.163819,0.085702,1
1880270401,0.02511,0.038863,0.133012,-0.134457,-0.093411,0.287162,1
1880303735,0.012439,0.015547,0.127035,-0.023672,-0.128794,0.124928,1
1880337069,-0.025434,-0.040055,0.142768,0.010006,-0.045908,0.001058,1
1880370403,-0.012886,-0.083272,0.140787,-0.007853,0.055145,0.092031,1
1880403737,0.031405,-0.12406,0.151447,0.055734,0.032719,0.133801,1
1880437071,0.019084,-0.164983,0.166603,-0.061769,-0.052935,-0.060539,1
1880470405,0.04363,-0.166146,0.148306,-0.059944,0.006278,-0.089349,1
1880503739,0.015518,-0.125085,0.146461,0.009071,0.035645,-0.063342,1
1880537073,0.00366,-0.096988,0.150713,0.122944,0.022471,-0.00506,1
1880570407,-0.0172,-0.096529,0.159056,0.106876,0.023424,0.317235,1
1880603741,0.024694,-0.045157,0.156777,0.230896,0.072274,0.462902,1
1880637075,0.001058,0.014049,0.139485,0.289395,-0.081798,0.350233,1
1880670409,0.03221,0.057754,0.107438,0.214901,-0.135714,0.281507,1
1880703743,0.010094,0.113631,0.100175,-0.09202,-0.356148,0.256602,1
1880737077,-0.016887,0.055924,0.146136,-0.264874,-0.450293,0.179521,1
1880770411,-0.003121,-0.003951,0.152434,0.023075,-0.410695,0.244816,1
1880803745,0.032717,0.006105,0.085293,0.349753,-0.228042,0.381991,1
1880837079,0.022729,-0.007883,0.076643,0.533894,0.12373,0.378644,1
1880870413,-0.002191,0.065701,0.11018,0.562129,0.201042,0.191683,1
1880903747,-0.049949,0.090767,0.143244,0.337974,-0.12295,0.130644,1
1880937081,-0.048343,0.073753,0.136853,-0.06952,-0.26806,0.336561,1
1880970415,-0.008281,0.090443,0.133874,0.021832,-0.513799,0.25562,1
1881003749,0.036716,0.108936,0.096814,-0.184624,-0.777611,-0.047839,1
1881037083,0.020908,0.107299,0.112964,-0.460385,-0.631348,-0.335888,1
1881070417,-0.004617,0.096165,0.119123,-0.647884,-0.308342,-0.426938,1
1881103751,0.002489,0.146824,0.094947,-0.582294,-0.850886,-0.996845,1
1881137085,0.006396,0.139856,0.110813,-0.555626,-1.282413,-1.215062,1
1881170419,-0.007716,0.08225,0.109486,-0.71597,-0.599472,-0.719062,1
1881203753,-0.071136,0.108764,0.028596,-0.550039,-0.842346,-1.251195,1
1881237087,0.019523,0.044709,0.215671,-0.952307,-1.198569,-1.78242,1
1881270421,-0.013768,0.002254,0.114031,-0.844689,0.532608,-0.3586,1
1881303755,0.002729,-0.146619,0.216704,0.06019,-0.231905,0.25753,1
1881337089,-0.024289,-0.139875,0.260945,0.933504,2.761041,2.908072,1
1881370423,0.035222,-0.112034,-0.026214,-1.142088,2.933065,1.232718,1
1881403757,0.086712,-0.175097,0.064363,-2.676329,0.641225,0.031471,1
1881437091,0.063109,-0.227558,0.111982,-3.200584,-3.162079,-1.167642,1
1881470425,0.321471,-0.152807,0.345621,-1.869483,0.673913,1.225784,1
1881503759,0.029475,-0.301782,0.132934,-0.875433,1.032652,0.339209,1
1881537093,0.001098,-0.046254,-0.028865,0.579897,-0.340561,0.058204,1
1881570427,0.186514,0.094807,0.012074,-0.525812,0.36313,0.232134,1
1881603761,0.084252,0.050489,0.114567,-0.666764,1.032227,0.250928,1
1881637095,-0.113252,0.025926,0.199006,0.550553,0.607496,0.65057,1
1881670429,-0.217317,0.314822,0.209084,1.501417,-0.50612,-0.029234,1
1881703763,0.11639,0.154493,0.138663,3.291265,0.195745,0.940797,1
1881737097,-0.017113,0.054138,0.122995,0.972774,0.02296,0.271205,1
1881770431,-0.003676,0.106517,0.100273,-0.017156,0.822481,0.303596,1
1881803765,0.017267,0.092206,0.169367,1.487872,0.307161,0.691027,1
1881837099,0.099213,0.240271,0.076011,1.679577,-0.40861,0.456717,1
1881870433,0.090138,0.201186,0.049008,1.732411,-0.526387,0.158137,1
1881903767,0.024282,0.093234,0.100864,0.72431,-0.238867,0.361991,1
1881937101,0.013966,0.169368,0.130321,-0.850577,-1.610959,0.165635,1
1881970435,-0.024172,-0.031008,0.219119,1.189251,-0.594809,1.361449,1
1882003769,0.033116,-0.009713,0.086832,-0.289031,0.887219,0.922719,1
1882037103,0.046142,-0.020819,0.125804,0.56147,0.904286,0.303606,1
1882070437,-0.041546,-0.055924,0.116338,0.587286,0.462099,0.034252,1
1882103771,0.093741,-0.114018,0.052308,1.161612,-0.184902,-0.196463,1
1882137105,0.088356,-0.035255,0.182899,1.26184,0.500717,-0.108512,1
1882170439,-0.008954,-0.018506,0.116937,0.95001,-0.120856,-0.350871,1
1882203773,-0.011728,-0.01972,0.096817,0.04644,0.01962,-0.026307,1
1882237107,-0.023436,0.082439,0.13021,0.262994,0.411004,0.311819,1
1882270441,-0.140051,0.071122,0.138991,0.168445,0.120688,0.840527,1
1882303775,-0.139417,-0.020564,0.067097,0.117636,-0.280415,0.992133,1
1882337109,-0.090927,0.010461,0.133298,0.452203,-0.860893,0.356544,1
1882370443,-0.084432,0.05427,0.19817,0.450527,-0.064947,0.283215,1
1882403777,-0.04496,0.125289,0.121555,0.43008,0.42611,0.158319,1
1882437111,-0.034794,0.160981,0.116704,0.265743,-0.218973,0.134878,1
1882470445,0.018698,0.106496,0.015185,0.291518,0.21819,0.225098,1
1882503779,-0.008187,0.14064,0.064893,0.2234,-0.05003,0.106079,1
1882537113,-0.085059,0.087296,0.177236,1.074197,-0.290913,-0.309631,1
1882570447,-0.106043,0.057408,0.223604,0.180373,0.407365,-0.253363,1
1882603781,-0.045755,0.06272,0.117697,0.247791,-0.885295,-0.065424,1
1882637115,-0.000646,-0.085608,0.056912,0.259993,0.242631,0.235781,1
1882670449,0.09088,-0.12033,0.138507,0.793927,0.232629,0.104654,1
1882703783,0.059025,-0.218072,-0.000793,-0.701716,0.155631,-0.058953,1
1882737117,0.028667,-0.264441,0.03312,-0.249376,0.954828,0.437201,1
1882770451,-0.044289,-0.207597,0.240457,0.846468,-0.160163,-0.474148,1
1882803785,-0.10055,-0.102049,0.206215,0.227029,0.359336,-0.093473,1
1882837119,-0.218888,-0.038811,-0.035027,-2.310102,1.390248,1.207264,1
1882870453,-0.195165,0.073828,0.131048,-0.181904,-0.708669,1.42846,1
1882903787,-0.082597,-0.030843,0.359907,-0.023735,0.372925,1.117268,1
1882937121,0.02549,0.047497,0.246644,-0.704144,1.138769,0.175875,1
1882970455,-0.045143,0.153959,-0.102413,-0.21141,0.915651,-0.557663,1
1883003789,-0.069446,0.078381,0.049598,0.739334,0.487153,-1.03686,1
1883037123,0.066957,0.171063,0.103503,0.642561,-0.37811,-1.068866,1
1883070457,-0.041649,0.155056,0.079174,1.090414,-0.484816,-0.232821,1
1883103791,-0.044214,-0.07163,0.142262,-0.056757,0.516451,0.901507,1
1883137125,0.064766,0.066321,0.259034,1.466508,-0.923437,-0.038673,1
1883170459,0.00115,0.102819,0.115281,0.169398,-0.567861,-0.383851,1
1883203793,-0.017449,-0.046709,0.086562,0.337454,1.065966,-1.349894,1
1883237127,-0.076884,-0.082261,-0.097988,-0.081985,-0.321119,-1.220856,1
1883270461,-6.6e-05,-0.142097,0.235175,1.355364,0.115638,-2.768744,1
1883303795,-0.243386,0.065485,0.242894,1.387371,0.966854,0.148192,1
1883337129,-0.116048,-0.078203,0.139085,1.288988,0.935733,1.661597,1
1883370463,-0.060071,-0.102298,0.304969,-0.151473,-0.373226,1.13534,1
1883403797,0.081024,0.109133,0.217961,-0.456978,-2.510579,0.683736,1
1883437131,0.110338,0.163608,-0.039817,-0.175885,-1.032282,1.387297,1
1883470465,-0.09566,0.139479,0.271413,-0.281897,-0.243866,0.739151,1
1883503799,-0.052429,0.092656,0.215624,0.510117,-0.134411,0.115088,1
1883537133,0.030971,0.020285,0.042342,0.439053,0.554369,0.183259,1
1883570467,-0.040662,0.011903,0.228997,0.721548,0.457458,0.054134,1
1883603801,-0.019258,-0.111448,0.154869,0.654045,0.002055,0.030407,1
1883637135,-0.020013,-0.206736,0.09938,0.170354,0.286198,0.385251,1
1883670469,0.017014,-0.198331,0.200337,0.008317,-0.143014,0.276047,1
1883703803,-0.118928,-0.25678,0.206416,0.482186,-0.422901,0.380121,1
1883737137,-0.059741,-0.246163,0.346353,0.145718,-0.279534,0.387703,1
1883770471,0.185737,0.231358,-0.057234,-0.060168,-0.109788,0.346536,1
1883803805,0.172295,0.253774,-0.114367,0.810782,-0.275179,0.393873,1
1883837139,0.058087,0.072136,0.105377,0.585796,-0.040078,0.299963,1
1883870473,0.218835,-0.048778,0.165915,0.3345,0.138123,0.128815,1
1883903807,0.302262,-0.456243,0.573819,-0.051724,0.258013,0.180927,1
1883937141,0.511961,-0.776195,0.476548,-0.24606,-0.062578,0.102051,1
1883970475,0.488507,-0.265642,-0.108858,-0.032078,-0.383957,-0.366143,1
1884003809,-0.268582,-0.462963,0.240345,0.063633,0.117263,-0.21314,1
1884037143,-0.403773,-0.253381,0.249442,0.361426,0.435779,0.094986,1
1884070477,-0.110521,-0.095977,0.350978,0.181385,0.175967,0.196425,1
1884103811,-0.026915,-0.470754,0.439073,0.214019,-0.288302,0.423877,1
1884137145,0.065253,-0.202276,0.570526,0.241316,-0.086506,0.59551,1
1884170479,-0.264413,0.361946,0.184023,0.112256,-0.166235,0.341919,1
1884203813,-0.24769,0.547704,-0.122369,0.298732,-0.106564,0.303151,1
1884237147,-0.087888,0.250731,-0.110328,0.319628,0.046559,0.099086,1
1884270481,0.111254,0.309444,-0.307461,0.29569,0.072456,0.064407,1
1884303815,-0.000411,0.475068,-0.251341,0.367719,-0.075528,0.107934,1
1884337149,-0.133718,0.195121,-0.032847,0.312613,-0.042858,0.219032,1
1884370483,0.031856,0.18086,0.103624,0.327855,-0.050452,0.255892,1
1884403817,-0.0962,0.306335,-0.006748,0.386504,-0.05632,0.27173,1
1884437151,-0.09568,-0.086317,0.032126,0.485075,0.020322,0.189659,1
1884470485,0.029025,-0.300461,0.177033,0.575492,0.054911,0.086206,1
1884503819,-0.041522,-0.120992,0.007477,0.523232,0.064348,0.1358,1
1884537153,-0.271151,0.00613,-0.059463,0.388757,-0.017445,0.093211,1
1884570487,-0.333184,0.13122,0.274599,0.088105,0.007848,0.073337,1
1884603821,0.242983,-0.146545,0.239667,0.082553,-0.015973,0.268275,1
1884637155,0.101989,0.011631,0.059106,0.25128,0.015741,0.277865,1
1884670489,-0.437395,0.610947,-0.536538,0.405226,0.150245,0.252746,1
1884703823,0.035094,0.612455,-0.631396,0.52526,0.174921,0.18786,1
1884737157,0.162502,0.386674,-0.528004,0.145263,0.259441,0.026316,1
1884770491,-0.091852,0.268059,-0.405751,0.203554,0.17666,0.089979,1
1884803825,-0.102368,0.363709,0.224227,0.21969,-0.014091,0.277125,1
1884837159,-0.961825,0.805041,1.081998,-0.108263,-0.188722,0.656207,1
1884870493,-1.742533,-0.645434,2.442898,-0.813587,-0.259379,0.716073,1
1884903827,0.159595,-0.52915,0.435836,-0.488461,-0.628315,0.132904,1
1884937161,0.444291,0.285723,-0.63836,0.133745,-0.080747,0.053707,1
1884970495,0.560735,0.175673,-0.469781,0.599374,0.457465,0.409148,1
1885003829,-0.123764,0.483581,-0.033491,-0.25879,0.018252,0.250104,1
1885037163,-0.612596,0.489893,0.208182,-0.706814,-0.171947,-0.082086,1
1885070497,-0.444454,0.679359,0.302407,-0.680375,0.048869,-0.006187,1
1885103831,0.061332,0.451791,0.152632,-0.414344,0.047907,0.092793,1
1885137165,0.208247,0.336813,-0.058603,0.038528,-0.049459,0.287863,1
1885170499,0.234453,0.342943,-0.459845,0.264379,-0.088041,0.202155,1
1885203833,0.638456,0.27186,-1.184518,0.670273,0.142246,0.017574,1
1885237167,0.318401,-0.133121,-0.343954,0.781473,0.328435,-0.020178,1
1885270501,-0.614164,0.202478,1.050184,-0.402095,0.321086,0.385706,1
1885303835,-0.485791,0.025626,0.33112,-0.322544,-0.179241,0.116399,1
1885337169,-0.230573,-0.020699,-0.051147,0.343906,-0.042332,-0.014468,1
1885370503,-0.10588,0.461917,0.689244,0.360545,0.283715,0.411601,1
1885403837,-0.050451,-0.604834,1.155892,-0.121428,-0.381266,0.460113,1
1885437171,0.113725,-1.035014,0.694237,-0.472071,-0.343246,0.288207,1
1885470505,0.180678,-0.432769,0.091432,0.217319,0.03911,0.031598,1
1885503839,0.168969,-0.303844,-0.268838,0.603248,0.349109,-0.166487,1
1885537173,-0.156481,-0.075156,-0.371359,0.662427,0.43046,0.037271,1
1885570507,-0.307717,0.014594,0.087324,0.40761,0.11721,0.224072,1
1885603841,-0.47227,0.186286,0.420863,0.264249,0.046236,0.448825,1
1885637175,-0.406592,-0.047607,0.369598,0.27459,-0.103744,0.423398,1
1885670509,0.078095,-0.200696,0.252691,0.482752,-0.178566,0.314783,1
1885703843,-0.050553,-0.071849,0.105408,0.708523,-0.026497,0.197315,1
1885737177,-0.333527,-0.21396,0.036315,0.609769,-0.066295,0.091418,1
1885770511,-0.185557,-0.141273,0.290139,0.502144,-0.077179,0.336405,1
1885803845,-0.089401,0.125808,0.530007,0.261216,-0.056282,0.703345,1
1885837179,-0.023046,0.141793,0.387486,0.099791,-0.245278,0.570012,1
1885870513,-0.036976,0.126137,0.182248,0.110887,-0.040489,0.376633,1
1885903847,-0.006277,0.20664,0.125914,0.099959,0.091619,0.279501,1
1885937181,0.027316,0.26696,-0.075012,-0.076561,-0.040404,0.037895,1
1885970515,0.050603,0.146262,-0.06216,0.104176,0.029189,0.018554,1
1886003849,0.137398,0.255538,0.062269,0.100818,0.1269,0.254855,1
1886037183,0.118609,0.113802,0.088034,-0.057812,-0.093113,0.116897,1
1886070517,-0.014682,0.229249,0.141922,0.038214,0.128496,0.173407,1
1886103851,-0.008343,-0.053713,0.0292,0.011628,0.111818,0.129171,1
1886137185,0.299699,-0.161718,0.279309,0.072688,0.030153,0.246359,1
1886170519,0.015053,-0.001621,-0.06527,0.205483,-0.034411,-0.056799,1
1886203853,0.053433,0.079562,0.031174,-0.011023,0.151596,-0.083937,1
1886237187,-0.032034,-0.255333,0.197145,-0.103379,0.104058,0.050705,1
1886270521,0.190986,-0.215961,-0.062958,0.177546,-0.022381,0.06673,1
1886303855,0.279039,-0.139121,-0.398278,0.570044,0.102576,0.055088,1
1886337189,0.194193,-0.148301,-0.107018,0.408738,-0.00234,0.050263,1
1886370523,-0.034246,-0.130033,0.428843,0.086904,-0.007409,0.23821,1
1886403857,-0.243675,-0.045925,0.272282,0.059332,-0.063534,0.142756,1
1886437191,-0.201858,-0.013837,0.162932,0.241825,-0.071219,0.100609,1
1886470525,-0.124483,-0.014563,0.247306,0.256246,-0.071448,0.210052,1
1886503859,-0.071476,-0.002232,0.23527,0.160516,-0.090096,0.234575,1
1886537193,-0.108684,-0.014408,0.139776,0.229851,-0.085524,0.238945,1
1886570527,-0.102657,0.013,0.111551,0.24142,-0.037341,0.192712,1
1886603861,-0.081462,0.167081,0.224178,0.091316,0.030613,0.235062,1
1886637195,-0.111144,0.136163,0.003517,0.096237,-0.001165,0.212318,1
1886670529,-0.035623,0.085868,-0.097467,0.190615,0.063097,0.163413,1
1886703863,-0.045343,0.101127,0.17797,0.227902,0.11192,0.21595,1
1886737197,-0.115057,-0.030443,0.216797,0.068766,-0.073695,0.219752,1
1886770531,-0.160438,-0.019458,0.126746,0.156405,-0.09197,0.128517,1
1886803865,-0.201926,0.01593,0.303912,0.169898,0.071485,0.252719,1
1886837199,-0.133024,-0.047015,0.168377,0.145129,-0.040064,0.216141,1
1886870533,-0.046561,-0.069203,-0.066774,0.287725,-0.034091,0.118235,1
1886903867,-0.042072,0.076549,0.248677,0.214872,0.063797,0.277847,1
1886937201,-0.085104,0.071446,0.314987,0.101005,-0.058116,0.275601,1
1886970535,-0.182485,0.096625,0.027372,0.098186,-0.064591,0.294984,1
1887003869,-0.17194,0.143852,0.267351,0.119941,0.005927,0.229351,1
1887037203,-0.105451,0.10674,0.237178,0.016351,0.023503,0.243379,1
1887070537,-0.11155,0.074596,0.136942,0.029352,-0.065651,0.126195,1
1887103871,-0.147651,0.087062,0.214611,0.039402,0.017068,0.274025,1
1887137205,-0.071896,0.121435,0.151991,0.039516,0.029267,0.273398,1
1887170539,-0.001112,0.120057,0.072739,0.108475,-0.024811,0.196031,1
1887203873,0.008314,0.062583,0.121644,0.071427,0.011175,0.204272,1
1887237207,-0.059965,0.054,0.104918,0.075617,-0.016852,0.241191,1
1887270541,-0.11572,0.11004,0.132504,0.058245,-0.034741,0.142971,1
1887303875,-0.04378,0.059345,0.097123,0.113041,0.025038,0.209251,1
1887337209,-0.012744,0.056058,0.0519,0.083414,-0.044692,0.122113,1
1887370543,-0.066698,0.054597,0.185683,0.10654,0.075331,0.238925,1
1887403877,-0.137266,0.044585,0.168579,0.087719,-0.036612,0.17945,1
1887437211,-0.134886,0.010907,0.094095,0.115826,-0.080008,0.141812,1
1887470545,-0.030101,-0.027826,0.099356,0.18378,0.04457,0.159874,1
1887503879,-0.036586,-0.026949,0.149114,0.171344,0.00602,0.210721,1
1887537213,-0.083809,-0.006031,0.109312,0.141778,-0.043741,0.227608,1
1887570547,-0.108397,0.051932,0.174565,0.106381,0.009186,0.187281,1
1887603881,-0.119022,0.052338,0.199131,0.068012,-0.001457,0.215164,1
1887637215,-0.092609,0.042747,0.161105,0.050325,-0.059935,0.227638,1
1887670549,-0.033558,0.050815,0.145368,0.082276,-0.013984,0.210427,1
1887703883,-0.026221,0.084702,0.05082,0.165244,-0.006833,0.228001,1
1887737217,-0.037297,0.071215,0.079142,0.088491,0.040828,0.209776,1
1887770551,-0.043092,0.044706,0.113117,0.055285,0.019679,0.156855,1
1887803885,-0.046566,0.006759,0.102185,0.116629,-0.042068,0.160477,1
1887837219,-0.055558,0.012318,0.086643,0.148665,-0.000488,0.204561,1
1887870553,-0.042948,-0.031306,0.152472,0.202366,0.054327,0.247256,1
1887903887,-0.100851,-0.063332,0.156642,0.121321,-0.018053,0.191645,1
1887937221,-0.13854,-0.044001,0.119534,0.174402,-0.017829,0.195807,1
1887970555,-0.089873,-0.024321,0.130861,0.179598,0.016535,0.241504,1
1888003889,-0.083691,-0.006822,0.113894,0.126871,-0.04694,0.221948,1
1888037223,-0.108692,0.014124,0.095298,0.174001,0.010564,0.232669,1
1888070557,-0.088552,0.026102,0.159003,0.180812,-0.03929,0.206985,1
1888103891,-0.132674,0.02667,0.153139,0.112286,-0.068081,0.188927,1
1888137225,-0.160642,0.032642,0.158514,0.1055,-0.009199,0.244545,1
1888170559,-0.153565,0.043821,0.171486,0.080224,-0.023228,0.209521,1
1888203893,-0.123369,0.04508,0.129489,0.097973,-0.049824,0.192098,1
1888237227,-0.121727,0.025164,0.11321,0.087615,-0.012347,0.210222,1
1888270561,-0.101622,0.028025,0.164541,0.076932,-0.028542,0.218051,1
1888303895,-0.09599,0.03262,0.126303,0.079876,-0.011621,0.230251,1
1888337229,-0.126488,0.014682,0.156427,0.078739,-0.017681,0.19317,1
1888370563,-0.13053,0.022538,0.186887,0.049477,-0.055696,0.183242,1
1888403897,-0.115534,0.017238,0.102548,0.057333,-0.080484,0.155147,1
1888437231,-0.105159,0.0177,0.062457,0.121258,-0.009195,0.142418,1
1888470565,-0.076266,0.042785,0.177766,0.081705,-0.023908,0.200137,1
1888503899,-0.055061,0.058739,0.144977,-0.00521,-0.138108,0.196531,1
1888537233,-0.080061,0.092656,0.11377,0.042238,-0.061157,0.230314,1
1888570567,-0.064637,0.107487,0.14913,0.052815,-0.008962,0.217064,1
1888603901,-0.06054,0.087623,0.076805,0.00722,-0.072569,0.160133,1
1888637235,-0.039938,0.081774,0.073652,0.011396,-0.07903,0.200553,1
1888670569,-0.035369,0.135966,0.056886,0.02235,-0.03834,0.127553,1
1888703903,-0.043276,0.129961,0.081541,0.057862,-0.040972,0.192903,1
1888737237,-0.068907,0.108447,0.187829,-0.021513,-0.056334,0.259396,1
1888770571,-0.122435,0.119141,0.129666,-0.032144,-0.098381,0.194028,1
1888803905,-0.104292,0.085642,0.088677,0.087355,-0.040764,0.186315,1
1888837239,-0.034073,0.015111,-0.035324,0.119336,-0.059397,0.088767,1
1888870573,-0.015012,0.027622,-0.074084,0.183653,-0.068672,0.0776,1
1888903907,-0.127194,0.063563,0.032418,0.128554,-0.052515,0.104652,1
1888937241,-0.200773,0.107295,0.133331,0.075891,0.01875,0.165828,1
1888970575,-0.205542,0.178236,0.21234,0.081407,0.137087,0.315138,1
1889003909,-0.101132,-0.035323,0.327919,0.057403,0.021723,0.353774,1
1889037243,-0.091569,-0.112434,0.359007,0.01327,-0.198877,0.367925,1
1889070577,-0.233296,-0.143765,0.246117,0.038288,-0.195757,0.229943,1
1889103911,-0.278206,-0.107985,0.189622,0.090434,-0.036922,0.102079,1
1889137245,-0.224702,0.027393,0.070961,0.077197,0.080372,0.048827,1
1889170579,-0.078795,0.052675,-0.006274,0.106943,-0.00636,0.12314,1
1889203913,0.009294,0.114058,0.04979,0.075987,-0.030303,0.272514,1
1889237247,-0.063485,0.168337,0.166914,-0.055704,0.010558,0.307258,1
1889270581,-0.159293,0.108822,0.217096,-0.077495,-0.032387,0.270395,1
1889303915,-0.184682,0.10941,0.27902,0.207185,-0.195771,-0.02284,1
1889337249,-0.121761,0.069232,0.129908,0.224934,0.016222,-0.026276,1
1889370583,-0.033752,-0.018478,-0.01102,-0.061963,0.116948,0.307646,1
1889403917,0.01139,-0.021949,0.064899,-0.096722,-0.167107,0.351111,1
1889437251,-0.041242,0.022132,0.171681,0.019902,-0.050371,0.236034,1
1889470585,-0.134148,0.079517,0.168937,0.03383,0.135291,0.220649,1
1889503919,-0.157718,0.073335,0.147099,-0.012246,-0.007813,0.211607,1
1889537253,-0.094301,0.031065,0.158096,-0.002487,-0.110347,0.227592,1
1889570587,-0.04106,-0.019315,0.154861,0.04631,-0.042789,0.219526,1
1889603921,-0.131198,-0.131564,0.155256,0.043875,-0.138825,0.156806,1
1889637255,-0.123125,-0.058441,0.145535,0.02403,-0.071924,0.149202,1
1889670589,-0.002697,0.083546,0.117877,0.10536,0.023137,0.146146,1
1889703923,-0.177228,0.009058,0.170162,0.024911,-0.019357,0.160497,1
1889737257,-0.135713,-0.016562,0.134362,-0.044791,-0.114957,0.16486,1
1889770591,0.146475,0.173226,0.045391,-0.042196,0.003222,0.151567,1
1889803925,-0.019913,0.146578,0.139794,-0.003521,0.081777,0.238915,1
1889837259,-0.05762,0.171504,0.09687,-0.047778,0.057208,0.195708,1
1889870593,0.005558,0.150021,0.088495,-0.070621,-0.02145,0.246846,1
1889903927,0.041518,0.206922,0.238992,0.592686,-0.363786,-0.49082,1
1889937261,-0.016008,-0.00337,-0.029525,0.226026,0.341656,0.29283,1
1889970595,-0.062159,-0.067984,0.134816,-0.46147,0.183547,0.573982,1
1890003929,-0.096193,-0.005032,0.286544,-0.155214,-0.408487,0.257714,1
1890037263,-0.108144,-0.017278,0.258542,-0.040458,0.203827,0.227007,1
1890070597,-0.115764,0.043458,0.098495,-0.024153,0.187482,0.080623,1
1890103931,-0.051438,0.055612,0.061468,-0.135016,-0.086331,0.095853,1
1890137265,0.052439,0.112923,0.115324,-0.075407,-0.053287,0.18853,1
1890170599,-0.015628,0.126576,0.135721,-0.067203,0.050989,0.225032,1
1890203933,-0.06623,0.146156,0.158747,-0.113398,0.038971,0.25218,1
1890237267,-0.042641,0.135621,0.108676,-0.085289,-0.031859,0.187748,1
1890270601,-0.068716,0.096517,0.115939,-0.070364,-0.080775,0.16143,1
1890303935,-0.05326,0.046319,0.115292,-0.023467,0.041913,0.239091,1
1890337269,-0.035034,-0.037641,0.128591,0.066272,0.052657,0.227134,1
1890370603,-0.111993,-0.055016,0.154078,-0.018687,0.056215,0.195275,1
1890403937,-0.123199,-0.093639,0.154027,0.059559,0.050014,0.21228,1
1890437271,-0.065481,-0.06287,0.166448,0.094118,0.051841,0.20767,1
1890470605,-0.128058,-0.080067,0.14147,0.094221,0.02653,0.224113,1
1890503939,-0.084921,-0.051958,0.11586,0.159368,0.005258,0.215014,1
1890537273,-0.094204,-0.080445,0.120547,0.198075,-0.011697,0.213586,1
1890570607,-0.108581,-0.138819,0.186312,0.176187,-0.08696,0.197581,1
1890603941,-0.094335,-0.161159,0.189578,0.251002,-0.129664,0.249109,1
1890637275,-0.058167,-0.122493,0.160738,0.178377,-0.154109,0.174136,1
1890670609,-0.166606,-0.032144,0.143538,0.158256,-0.103285,0.166405,1
1890703943,-0.206818,0.040307,0.135292,0.160392,-0.082117,0.231453,1
1890737277,-0.062709,0.050892,0.072939,0.250751,-0.211879,0.173077,1
1890770611,-0.018223,0.123182,0.119575,-0.03036,-0.019744,0.300326,1
1890803945,-0.098868,0.217153,0.096043,0.020403,-0.085164,0.305508,1
1890837279,-0.160891,0.203634,0.078318,0.027964,-0.22267,0.177511,1
1890870613,-0.160575,0.145254,0.140108,-0.130722,-0.146561,0.183178,1
1890903947,-0.122558,0.091807,0.200633,-0.213837,-0.049643,0.172035,1
1890937281,-0.036822,0.052686,0.147483,-0.163835,-0.098859,0.147928,1
1890970615,-0.05708,0.101383,0.091345,-0.030274,-0.10573,0.137143,1
1891003949,-0.067211,0.149207,0.087735,-0.139769,-0.094295,0.13962,1
1891037283,-0.05684,0.22829,0.094949,-0.312728,0.061372,0.211203,1
1891070617,0.036441,0.280192,0.081268,-0.233891,0.053522,0.276352,1
1891103951,0.027332,0.228234,0.069831,-0.251115,-0.037904,0.166941,1
1891137285,-0.106007,0.120587,0.102349,-0.286388,0.032441,0.127078,1
1891170619,-0.141477,0.049321,0.159409,-0.242865,0.059276,0.118089,1
1891203953,-0.136189,-0.001724,0.185491,-0.112591,0.069345,0.167389,1
1891237287,-0.089189,-0.094486,0.162731,-0.094586,0.024884,0.150408,1
1891270621,-0.053549,-0.033528,0.10089,-0.030719,0.062226,0.1848,1
1891303955,-0.091403,-0.018123,0.10392,0.02119,0.064189,0.207313,1
1891337289,-0.127465,-0.04592,0.152708,0.045635,-0.010181,0.199702,1
1891370623,-0.130566,-0.006555,0.166496,0.036233,0.009804,0.186361,1
1891403957,-0.120184,-0.014314,0.171508,0.066898,-0.013203,0.199813,1
1891437291,-0.09136,-0.067984,0.10363,0.083098,-0.054009,0.158534,1
1891470625,-0.034128,-0.091459,0.07783,0.09786,-0.018414,0.152554,1
1891503959,-0.069715,-0.078306,0.143585,0.140959,0.00179,0.231508,1
1891537293,-0.0964,-0.074502,0.136694,0.126339,-0.022207,0.259639,1
1891570627,-0.137624,-0.103732,0.14569,0.170887,-0.090494,0.247216,1
1891603961,-0.112096,-0.122893,0.174253,0.104861,-0.064682,0.221278,1
1891637295,-0.099065,-0.085654,0.151269,0.087043,-0.046094,0.212426,1
1891670629,-0.124132,-0.039512,0.13794,0.051499,-0.061389,0.240774,1
1891703963,-0.089861,0.00737,0.126824,0.140305,-0.102889,0.15862,1
1891737297,-0.085537,0.005848,0.117553,0.03829,-0.027978,0.26175,1
1891770631,-0.082082,0.027109,0.170612,0.024299,-0.078611,0.280603,1
1891803965,-0.077896,0.058077,0.139084,-0.038309,-0.055985,0.216954,1
1891837299,-0.079888,0.027618,0.099807,-0.058968,0.003817,0.184603,1
1891870633,-0.060106,-0.011167,0.104564,0.063545,0.086446,0.251018,1
1891903967,-0.058244,-0.070334,0.096488,0.116214,-0.055814,0.22489,1
1891937301,-0.074872,-0.11777,0.122973,0.163939,-0.096818,0.271719,1
1891970635,-0.114979,-0.100769,0.154848,0.223656,-0.045722,0.296277,1
1892003969,-0.149298,-0.170495,0.170555,0.257093,-0.110265,0.209313,1
1892037303,-0.130771,-0.183183,0.158119,0.262628,-0.125355,0.223116,1
1892070637,-0.121602,-0.176803,0.165656,0.172535,-0.044235,0.227632,1
1892103971,-0.11979,-0.105648,0.17161,0.138595,-0.005906,0.25504,1
1892137305,-0.084937,-0.028676,0.132478,0.090568,-0.007241,0.23744,1
1892170639,-0.056725,-0.009222,0.094342,0.061696,-0.052407,0.221075,1
1892203973,-0.052995,0.048305,0.139106,0.025602,0.027078,0.278359,1
1892237307,-0.064481,0.021529,0.127215,-0.020018,-0.041376,0.204655,1
1892270641,-0.092292,0.026451,0.085082,-0.046719,-0.006146,0.156362,1
1892303975,-0.061601,0.023892,0.123465,-0.005933,0.001949,0.184456,1
1892337309,-0.04683,0.079399,0.080871,0.003856,0.008353,0.232422,1
1892370643,-0.077652,0.125543,0.040365,-0.108345,-0.015077,0.121288,1
1892403977,-0.169116,0.088731,0.148059,-0.190125,-0.014363,0.076154,1
1892437311,-0.28505,0.053573,0.260014,-0.357863,-0.004028,0.11105,1
1892470645,-0.240004,0.033636,0.25496,-0.3603,-0.016728,0.216204,1
1892503979,-0.086128,0.037488,0.140613,-0.246712,-0.11448,0.201804,1
1892537313,-0.00036,0.112615,0.109762,-0.15352,-0.122794,0.199964,1
1892570647,-0.048502,0.131946,0.087422,-0.159415,-0.120335,0.216792,1
1892603981,-0.048636,0.150116,0.12999,-0.251438,-0.135455,0.194085,1
1892637315,-0.065906,0.205728,0.140361,-0.295552,-0.128757,0.189787,1
1892670649,-0.076701,0.274477,0.129474,-0.356055,-0.160399,0.170959,1
1892703983,-0.060696,0.275897,0.081287,-0.298476,-0.147849,0.132705,1
1892737317,-0.091335,0.294792,0.073183,-0.270593,-0.125988,0.132936,1
1892770651,-0.098297,0.267049,0.08318,-0.296803,-0.14717,0.110209,1
1892803985,-0.077897,0.187132,0.090381,-0.283527,-0.157916,0.136633,1
1892837319,-0.126222,0.135687,0.077856,-0.194326,-0.1802,0.107744,1
1892870653,-0.138495,0.125471,0.129209,-0.24159,0.001664,0.170031,1
1892903987,-0.129111,0.048153,0.151908,-0.193782,-0.084182,0.164782,1
1892937321,-0.100633,0.125481,0.228133,-0.429575,-0.053204,0.20154,1
1892970655,-0.196497,0.155366,0.133695,-0.218947,-0.035117,0.306484,1
1893003989,-0.120362,0.195778,0.068132,-0.267615,0.007983,0.158019,1
1893037323,-0.087969,0.034961,0.102433,-0.051708,0.042598,0.147365,1
1893070657,-0.071411,-0.075422,0.106786,-0.053128,0.034578,0.20413,1
1893103991,-0.083897,-0.191683,0.152367,-0.054236,-0.051576,0.246943,1
1893137325,-0.141895,-0.279525,0.336947,0.010124,-0.023158,0.2764,1
1893170659,-0.255383,-0.193828,0.244261,0.041423,-0.020074,0.229655,1
1893203993,-0.310616,0.024371,0.090686,0.08584,0.072014,0.187011,1
1893237327,-0.251395,0.014176,0.100945,0.12962,0.048062,0.260058,1
1893270661,-0.204536,0.032373,0.175591,0.012063,-0.048348,0.272404,1
1893303995,-0.098993,-0.034396,0.1574,0.013052,-0.117359,0.262011,1
1893337329,-0.051681,-0.037525,0.150539,0.041237,-0.096673,0.224476,1
1893370663,-0.178654,0.00158,0.106745,0.074038,-0.098317,0.147771,1
1893403997,-0.295931,-0.104651,0.10157,0.130349,-0.062508,0.11408,1
1893437331,-0.166627,-0.180007,0.094038,0.166212,-0.031195,0.216485,1
1893470665,0.027107,-0.070776,0.030573,0.107784,-0.052542,0.185915,1
1893503999,-0.01714,-0.042217,0.001466,0.106372,-0.080546,0.125167,1
1893537333,-0.145964,-0.053202,0.049277,0.056198,0.005932,0.183474,1
1893570667,-0.205169,0.0842,0.003594,0.094458,0.044706,0.220267,1
1893604001,-0.161803,0.043712,-0.004275,0.169893,0.018616,0.174455,1
1893637335,-0.11492,-0.174963,0.245052,0.099918,-0.013502,0.254247,1
1893670669,-0.177039,-0.233068,0.33004,-0.002068,-0.114908,0.356628,1
1893704003,-0.195938,-0.09947,0.254263,0.034215,-0.120799,0.266633,1
1893737337,-0.228991,-0.062265,0.15093,0.04406,-0.002543,0.179752,1
1893770671,-0.201419,-0.155951,0.167732,0.004641,-0.002538,0.145187,1
1893804005,-0.11162,-0.154274,0.189945,-0.01383,-0.003477,0.271576,1
1893837339,-0.055424,-0.094923,0.166474,-0.090163,-0.034386,0.248585,1
1893870673,-0.061386,0.028837,0.117777,-0.11835,-0.01477,0.206616,1
1893904007,-0.038151,0.032204,0.134652,-0.043168,-0.014088,0.244752,1
1893937341,0.010908,0.090653,0.122988,0.002939,-0.143476,0.152223,1
1893970675,-0.015893,0.078834,0.052523,-0.198182,0.060434,0.187401,1
1894004009,-0.020322,0.123542,0.152014,0.057164,-0.094192,0.256731,1
1894037343,0.005068,0.074718,0.094142,-0.210924,-0.088923,0.257483,1
1894070677,0.020403,0.056807,0.172869,-0.261265,-0.140096,0.192055,1
1894104011,-0.009197,0.017118,0.197157,-0.228296,-0.00124,0.171199,1
1894137345,0.002165,0.026864,0.107285,-0.164545,0.017959,0.16438,1
1894170679,0.059519,0.073972,0.075216,-0.148975,-0.093021,0.170267,1
1894204013,0.16026,0.057148,0.087365,-0.133306,-0.073664,0.229896,1
1894237347,0.125977,0.087732,0.103942,-0.194681,-0.067085,0.168267,1
1894270681,-0.036708,0.10843,0.09853,-0.235291,-0.118374,0.10113,1
1894304015,-0.070755,0.123216,0.140395,-0.190863,-0.106626,0.101189,1
1894337349,-0.063184,0.129948,0.17417,-0.192883,-0.043061,0.149013,1
1894370683,-0.084787,0.050542,0.115661,-0.161285,-0.099356,0.149547,1
1894404017,-0.098062,-0.025623,0.090675,-0.121225,-0.060453,0.178531,1
1894437351,-0.05266,0.030267,0.129997,-0.108503,-0.01724,0.13764,1
1894470685,-0.142346,0.042226,0.139165,-0.214601,-0.003233,0.170886,1
1894504019,-0.142743,-0.011219,0.128946,-0.072374,0.003847,0.241478,1
1894537353,-0.134896,-0.009557,0.168931,-0.028609,-0.01053,0.270117,1
1894570687,-0.143996,-0.048574,0.17292,-0.061163,-0.150001,0.208142,1
1894604021,-0.169991,-0.020719,0.162158,0.035553,-0.109016,0.243364,1
1894637355,-0.19748,0.016271,0.122748,-0.013051,-0.082673,0.19563,1
1894670689,-0.164993,0.011019,0.113434,0.07994,-0.087855,0.218028,1
1894704023,-0.130971,-0.01153,0.140016,0.002161,-0.028758,0.270116,1
1894737357,-0.172144,-0.045437,0.163977,-0.030734,-0.044844,0.262421,1
1894770691,-0.180737,-0.040033,0.158479,-0.056488,-0.043307,0.184097,1
1894804025,-0.161373,-0.039543,0.155612,-0.025323,-0.013949,0.190907,1
1894837359,-0.162231,-0.069226,0.131709,-0.015371,-0.026918,0.211444,1
1894870693,-0.147504,-0.088023,0.135358,-0.03874,-0.03045,0.228263,1
1894904027,-0.108225,-0.087175,0.114173,-0.001868,-0.043684,0.192064,1
1894937361,-0.12868,-0.046521,0.127716,-0.046401,-0.032908,0.193151,1
1894970695,-0.151127,-0.05726,0.127361,-0.031652,-0.062771,0.218014,1
1895004029,-0.143452,-0.015184,0.116546,-0.074387,-0.137558,0.144436,1
1895037363,-0.142392,0.062103,0.129538,-0.07832,-0.059663,0.235006,1
1895070697,-0.124591,0.094065,0.130233,-0.110857,-0.087479,0.244535,1
1895104031,-0.154265,0.063424,0.122042,-0.196727,-0.120213,0.183372,1
1895137365,-0.165066,0.091054,0.142131,-0.212205,-0.123058,0.151978,1
1895170699,-0.160505,0.102568,0.116364,-0.152365,-0.096001,0.16889,1
1895204033,-0.164344,0.09143,0.125419,-0.168294,-0.03921,0.198348,1
1895237367,-0.174923,0.081383,0.087702,-0.244797,-0.129955,0.228508,1
1895270701,-0.15235,0.081958,0.088816,-0.204128,-0.084812,0.241587,1
1895304035,-0.131248,0.033749,0.177054,-0.212038,-0.067365,0.224713,1
1895337369,-0.150033,0.038798,0.158666,-0.252788,-0.093937,0.175374,1
1895370703,-0.150955,0.034637,0.131382,-0.222947,-0.066095,0.170264,1
1895404037,-0.118191,0.066402,0.091203,-0.165452,-0.024746,0.17114,1
1895437371,-0.117266,0.050778,0.107507,-0.10968,-0.011365,0.192051,1
1895470705,-0.118157,0.027721,0.149645,-0.162389,-0.094377,0.194217,1
1895504039,-0.098213,-0.002506,0.154169,-0.13354,-0.04317,0.190445,1
1895537373,-0.088176,-0.065219,0.086324,-0.031222,-0.015736,0.152098,1
1895570707,-0.075479,-0.125147,0.11171,0.040484,-0.000346,0.193751,1
1895604041,-0.028145,-0.155685,0.230152,0.0161,-0.028593,0.217015,1
1895637375,0.023038,-0.314551,0.31428,0.017092,0.177298,0.324363,1
1895670709,0.118436,-0.346025,-0.028987,0.014715,-0.011181,-0.026608,1
1895704043,0.05701,-0.193028,-0.084472,-0.035857,-0.009266,-0.235094,1
1895737377,-0.069165,-0.055618,-0.009509,0.025247,0.070279,-0.114129,1
1895770711,-0.157445,0.04686,0.09909,-0.045455,-0.016747,0.132978,1
1895804045,-0.207833,0.237242,0.205817,-0.129182,-0.078722,0.057084,1
1895837379,-0.299022,0.273243,0.305733,-0.062171,-0.290385,0.196101,1
1895870713,-0.275309,0.124643,0.185784,-0.464834,0.238567,0.358514,1
1895904047,-0.154769,0.008638,0.124825,-0.675278,0.012477,0.449566,1
1895937381,-0.128835,-0.06933,0.096512,-0.166056,-0.298521,0.117017,1
1895970715,-0.12425,-0.123312,0.081933,-0.115989,0.038816,-0.006086,1
1896004049,-0.148193,-0.032714,0.094928,-0.062692,0.104201,0.101266,1
1896037383,-0.104808,-0.008205,0.065357,0.043839,-0.116073,0.167845,1
1896070717,-0.090899,0.034026,0.119984,0.225509,-0.345759,0.398492,1
1896104051,-0.108601,0.044634,0.192148,0.126598,-0.367777,0.41075,1
1896137385,-0.086214,0.069608,0.196524,-0.079203,-0.326486,0.428341,1
1896170719,-0.15244,0.137377,0.134865,-0.200105,-0.264088,0.177011,1
1896204053,-0.196238,0.159455,0.104677,-0.269427,-0.203301,0.143607,1
1896237387,-0.176956,0.169198,0.117561,-0.306206,-0.02212,0.213638,1
1896270721,-0.129959,0.111898,0.130443,-0.252337,-0.06986,0.217052,1
1896304055,-0.124258,0.060922,0.126,-0.13522,-0.168509,0.24372,1
1896337389,-0.133916,0.049959,0.127306,-0.145923,-0.181808,0.242688,1
1896370723,-0.174548,0.034978,0.164356,-0.215825,-0.131993,0.274929,1
1896404057,-0.195394,0.081003,0.171701,-0.185596,-0.110154,0.251451,1
1896437391,-0.275109,0.021252,0.143732,-0.13943,-0.061969,0.258627,1
1896470725,-0.196535,0.005075,0.139592,-0.061909,-0.102993,0.184284,1
1896504059,-0.146161,-0.041508,0.141384,-0.071173,-0.128056,0.162754,1
1896537393,-0.188197,-0.007242,0.141742,-0.03822,-0.191664,0.163595,1
1896570727,-0.171488,0.006285,0.079755,-0.084871,-0.167407,0.133524,1
1896604061,-0.104762,0.056794,0.091105,-0.036741,-0.098204,0.109884,1
1896637395,-0.158631,0.025114,0.117411,-0.055008,-0.009923,0.220092,1
1896670729,-0.173831,-0.038044,0.128598,0.012176,-0.084587,0.236218,1
1896704063,-0.174272,-0.069457,0.13063,-0.022904,-0.107663,0.132807,1
1896737397,-0.152786,-0.084246,0.137393,-0.012565,-0.094171,0.15795,1
1896770731,-0.14455,-0.064482,0.127623,-0.078666,-0.070755,0.186816,1
1896804065,-0.151004,0.079176,0.118935,-0.158063,-0.048813,0.166477,1
1896837399,-0.181608,0.159931,0.091993,-0.196418,-0.116012,0.162734,1
1896870733,-0.110551,0.026765,0.098584,-0.10976,-0.070372,0.259378,1
1896904067,-0.110974,0.001152,0.203771,-0.14707,-0.024709,0.291831,1
1896937401,-0.125065,-0.037845,0.157401,-0.146243,-0.061555,0.235404,1
1896970735,-0.099659,-0.181265,0.073071,-0.045317,-0.115445,0.153448,1
1897004069,-0.190408,-0.132015,0.131468,-0.041803,-0.094982,0.115773,1
1897037403,-0.211358,-0.039724,0.15237,-0.129508,-0.056332,0.158036,1
1897070737,-0.184194,-0.017894,0.196808,-0.161645,-0.122533,0.146974,1
1897104071,-0.225257,0.056794,0.136449,-0.172745,-0.182037,0.125978,1
1897137405,-0.16108,0.093566,0.11229,-0.15335,-0.068501,0.13763,1
1897170739,-0.120852,0.095858,0.090473,-0.177575,-0.06752,0.158863,1
1897204073,-0.163552,-0.002906,0.121405,-0.154334,-0.162816,0.169804,1
1897237407,-0.149667,-0.013551,0.127283,-0.189312,-0.187726,0.1543,1
1897270741,-0.169259,-0.02013,0.196268,-0.203351,-0.05407,0.219718,1
1897304075,-0.220391,-0.040996,0.159649,-0.215721,-0.078568,0.129417,1
1897337409,-0.147395,-0.055628,0.128086,-0.146075,-0.041793,0.147161,1
1897370743,-0.103653,-0.036873,0.196469,-0.244892,-0.062463,0.147369,1
1897404077,-0.066505,-0.011354,0.177943,-0.173685,-0.098147,0.178134,1
1897437411,-0.061641,0.027345,0.20018,-0.248784,-0.018659,0.227083,1
1897470745,-0.034472,0.126596,0.124827,-0.195626,0.017469,0.237498,1
1897504079,-0.052786,0.065163,0.098348,-0.157997,-0.064095,0.137026,1
1897537413,-0.00812,-0.019865,0.110785,-0.139668,-0.023013,0.182406,1
1897570747,0.05883,0.002371,0.108649,-0.132075,-0.017021,0.167114,1
1897604081,-0.005478,-0.017016,0.104017,-0.094673,-0.02535,0.184318,1
1897637415,-0.108497,-0.087009,0.118302,-0.063249,-0.080125,0.206513,1
1897670749,-0.117227,-0.131689,0.069722,0.080597,-0.110311,0.180143,1
1897704083,-0.12115,-0.21957,0.088799,0.086926,-0.113359,0.076058,1
1897737417,-0.11106,-0.302041,0.19365,0.00384,-0.111651,0.103244,1
1897770751,-0.097577,-0.215236,0.190371,-0.054692,-0.10476,0.149657,1
1897804085,-0.149923,-0.08412,0.113928,-0.106069,-0.068491,0.235051,1
1897837419,-0.158565,-0.033687,0.085887,-0.104004,-0.157635,0.17273,1
1897870753,-0.061671,0.012519,0.142302,-0.165704,-0.045067,0.27216,1
1897904087,-0.120637,0.128532,0.153299,-0.240309,-0.131094,0.204714,1
1897937421,-0.182436,0.190195,0.13711,-0.21095,-0.228462,0.21161,1
1897970755,-0.202034,0.166932,0.10753,-0.144938,-0.245006,0.193732,1
1898004089,-0.263754,0.168573,0.164608,-0.002496,-0.191722,0.315439,1
1898037423,-0.413727,0.04703,0.335148,0.048845,-0.280164,0.328896,1
1898070757,-0.745821,-0.148258,0.826022,-0.034734,-0.310596,0.418938,1
1898104091,-1.113989,-0.236204,1.340957,-0.250967,-0.189614,0.527519,1
1898137425,-1.496825,-0.531155,1.893995,-0.59614,-0.142276,0.441272,1
1898170759,-1.426669,-0.145022,1.323464,-0.453293,-0.268198,-0.110341,1
1898204093,-1.137002,0.314451,0.114437,0.055065,-0.163439,-0.444472,1
1898237427,-0.526757,0.051984,-0.526201,0.616791,0.076696,-0.057865,1
1898270761,0.63567,-0.546209,-1.714559,1.08172,-0.142516,0.138203,1
1898304095,0.826624,-0.643541,-1.528506,1.075642,-0.690869,0.258229,1
1898337429,1.478821,-0.522494,-1.940323,0.917132,-0.731755,0.384546,1
1898370763,0.7575,0.017956,-2.237951,0.806081,-0.557706,0.148754,1
1898404097,-0.254171,0.875772,-1.842923,0.940938,-0.355091,-0.054893,1
1898437431,-0.420804,1.467908,-1.55438,0.875344,-0.190548,-0.030444,1
1898470765,0.652278,2.043613,-0.798192,0.472393,-0.412753,0.381892,1
1898504099,1.00402,0.614348,5.381457,-0.560518,-0.957071,1.958515,1
1898537433,-3.772124,-4.863118,7.592329,-2.774294,-1.369077,2.904053,1
1898570767,-1.005397,2.959334,-3.216351,-0.284616,-1.461766,-1.35835,1
1898604101,-1.671571,0.825853,-2.919462,1.80311,0.23129,-1.997351,1
1898637435,0.691091,0.208473,0.483049,0.332969,2.069825,0.450366,1
1898670769,2.924165,-2.514128,1.859823,-1.181123,0.506968,0.857416,1
1898704103,0.441467,-0.857017,-0.054058,-1.113885,-1.128858,0.276726,1
1898737437,0.657361,0.31397,-0.579403,-0.201747,-0.491082,-0.612997,1
1898770771,-0.551858,0.975168,0.189365,-0.596171,1.015759,0.158536,1
1898804105,-1.058283,0.497486,0.08713,-1.080262,0.802652,0.223076,1
1898837439,0.029868,0.03786,0.260317,-0.724687,-0.197739,0.008595,1
1898870773,0.329102,-0.29226,0.315402,-0.4249,0.241203,0.245504,1
1898904107,-0.087271,-0.131797,0.058953,-0.166304,0.533262,0.285748,1
1898937441,-0.279368,-0.001646,0.081581,-0.13555,0.405056,0.277837,1
1898970775,-0.151449,-0.158943,0.11955,-0.151202,0.412331,0.260287,1
1899004109,0.282415,-0.570179,0.030742,-0.37711,0.310852,-0.013141,1
1899037443,0.370874,-0.526726,0.079527,-0.469462,0.194387,-0.247736,1
1899070777,0.047321,-0.505329,0.020725,-0.371544,0.135647,-0.194097,1
1899104111,0.059215,-0.424425,0.075053,-0.415558,0.019269,-0.082886,1
1899137445,0.353213,-0.250107,0.074995,-0.371172,0.051576,0.140431,1
1899170779,-0.128064,0.007575,0.111471,-0.402357,0.272154,0.359884,1
1899204113,0.103174,-0.056241,0.073947,-0.538755,0.505337,0.410447,1
1899237447,0.438651,-0.087143,-0.134811,-0.53249,0.109765,-0.04842,1
1899270781,0.551629,0.015404,-0.153894,-0.181643,-0.067973,-0.291497,1
1899304115,-0.801369,0.390201,0.352378,-0.048556,0.304357,0.447537,1
1899337449,-0.934949,-0.066765,0.255311,-0.395044,-0.109414,0.659376,1
1899370783,-0.105199,-0.480263,0.543045,-0.342584,-0.615667,0.194481,1
1899404117,-0.376878,-0.362483,0.33289,-0.418069,-0.118587,0.152057,1
1899437451,-0.272905,-0.139739,0.118864,-0.414143,-0.038674,-0.105044,1
1899470785,-0.224798,-0.015211,0.014003,-0.241724,0.099244,-0.010659,1
1899504119,-0.245167,-0.008655,0.22727,-0.394837,0.184945,0.247858,1
1899537453,-0.398269,-0.004795,-0.028626,-0.435918,-0.002846,0.209802,1
1899570787,-0.22477,0.277571,0.155504,-0.432338,0.0008,0.213685,1
1899604121,-0.109356,-0.063513,0.136939,-0.585315,0.093827,0.397222,1
1899637455,0.062311,-0.011624,0.081956,-0.418913,-0.09451,0.261245,1
1899670789,0.102292,0.053147,-0.034841,-0.173244,-0.190323,-0.008447,1
1899704123,0.190839,0.243977,-0.039501,-0.198712,-0.117186,0.084405,1
1899737457,-0.069817,0.331185,0.154969,-0.331306,-0.147607,0.313025,1
1899770791,-0.27522,0.054886,0.252614,-0.499885,-0.250842,0.218745,1
1899804125,-0.294096,0.036433,0.136151,-0.512579,-0.11671,0.024377,1
1899837459,-0.114883,-0.04056,0.114167,-0.376926,0.059923,-0.044291,1
1899870793,-0.051775,-0.213605,0.136448,-0.267343,0.111301,0.210815,1
1899904127,0.059643,-0.281331,0.079028,-0.103181,0.072125,0.291186,1
1899937461,0.025243,-0.232245,0.08002,0.098865,0.020179,0.287171,1
1899970795,-0.032112,-0.225232,0.114411,0.09879,-0.029285,0.258745,1
1900004129,-0.16554,-0.087048,0.167158,0.110634,-0.165792,0.258811,1
1900037463,-0.289195,-0.002076,0.077473,-0.007944,-0.272281,0.244262,1
1900070797,-0.151769,-0.039521,0.067761,0.053789,-0.250624,0.114754,1
1900104131,-0.176366,-0.081282,0.09753,0.065582,-0.12296,0.179588,1
1900137465,-0.185666,-0.170313,0.096956,0.041936,-0.185727,0.167521,1
1900170799,-0.16296,-0.232821,0.22014,-0.019353,-0.19194,0.154505,1
1900204133,-0.27523,-0.096062,0.132427,-0.101351,0.040594,0.364857,1
1900237467,-0.058691,-0.136243,0.058588,-0.07729,0.036776,0.196137,1
1900270801,-0.111209,-0.203929,0.10977,-0.085842,-0.009843,0.184463,1
1900304135,-0.131133,-0.273029,0.110271,-0.024856,0.014927,0.197029,1
1900337469,-0.199923,-0.207156,0.172477,-0.011422,-0.069729,0.136832,1
1900370803,-0.221964,-0.152414,0.093748,-0.105338,-0.108748,0.16407,1
1900404137,-0.195106,-0.184586,0.088606,0.007283,-0.011665,0.131596,1
1900437471,-0.170232,-0.228917,0.121997,-0.078327,-0.054809,0.152844,1
1900470805,-0.143412,-0.190417,0.078582,-0.157368,-0.06752,0.142167,1
1900504139,-0.076892,-0.200533,0.081293,-0.160868,0.012754,0.109397,1
1900537473,-0.077884,-0.19238,0.098912,-0.120193,-0.033866,0.135443,1
1900570807,-0.03345,-0.161513,0.071415,-0.161685,-0.069862,0.142481,1
1900604141,0.007667,-0.025661,0.060888,-0.186796,-0.06348,0.178487,1
1900637475,-0.028672,0.073499,0.051908,-0.266404,0.00522,0.228801,1
1900670809,-0.104792,0.131098,0.071694,-0.295205,-0.102738,0.162742,1
1900704143,-0.229322,0.058094,0.122984,-0.326894,-0.120986,0.191852,1
1900737477,-0.208614,-0.008077,0.148552,-0.209021,-0.108676,0.260473,1
1900770811,-0.235473,0.038858,0.1694,-0.147526,-0.10418,0.287704,1
1900804145,-0.166159,0.039554,0.127241,-0.208792,-0.187058,0.24075,1
1900837479,-0.220593,0.048119,0.188504,-0.236364,-0.094716,0.285887,1
1900870813,-0.317754,0.038238,0.145046,-0.24776,-0.131784,0.254596,1
1900904147,-0.195601,0.02235,0.098085,-0.303364,-0.238232,0.097368,1
1900937481,-0.188973,0.051405,0.073305,-0.17857,-0.077506,0.144091,1
1900970815,-0.196802,-0.025301,0.112507,-0.254268,-0.098188,0.129477,1
1901004149,-0.21427,-0.062226,0.132298,-0.310784,-0.149478,0.11635,1
1901037483,-0.229353,-0.076383,0.137684,-0.298867,-0.064827,0.198242,1
1901070817,-0.104875,-0.078936,0.127571,-0.291391,-0.111288,0.157332,1
1901104151,-0.117898,-0.013188,0.088722,-0.301484,-0.072108,0.208404,1
1901137485,-0.182572,0.025166,0.114108,-0.268411,-0.059995,0.22011,1
1901170819,-0.19147,0.077109,0.111272,-0.305716,-0.143738,0.197757,1
1901204153,-0.184241,0.038811,0.098707,-0.289864,-0.121891,0.150076,1
1901237487,-0.188715,0.02672,0.103742,-0.223864,-0.097501,0.152575,1
1901270821,-0.223959,0.048789,0.151871,-0.32481,-0.085962,0.241348,1
1901304155,-0.21461,-0.013328,0.100316,-0.217893,-0.115033,0.236787,1
1901337489,-0.211965,-0.034972,0.105393,-0.197208,-0.116403,0.213671,1
1901370823,-0.175082,-0.063779,0.121528,-0.155043,-0.106149,0.190763,1
1901404157,-0.178891,-0.094039,0.113463,-0.190331,-0.165543,0.127675,1
1901437491,-0.210473,-0.013586,0.103011,-0.243957,-0.073678,0.209373,1
1901470825,-0.114391,-0.021645,0.110768,-0.281184,-0.09694,0.150097,1
1901504159,-0.138234,-0.014838,0.10991,-0.270041,-0.089624,0.172072,1
1901537493,-0.089565,-0.034644,0.11151,-0.239548,-0.110038,0.13798,1
1901570827,-0.124353,-0.077112,0.109697,-0.241353,-0.112209,0.169284,1
1901604161,-0.161526,-0.037225,0.112426,-0.204533,-0.080123,0.231103,1
1901637495,-0.184552,-0.013692,0.085663,-0.224511,-0.066422,0.221223,1
1901670829,-0.13026,-0.097451,0.119902,-0.194363,-0.134261,0.146929,1
1901704163,-0.17856,-0.069897,0.128414,-0.060898,-0.153141,0.258146,1
1901737497,-0.193833,-0.064613,0.145614,-0.249935,-0.245778,0.201834,1
1901770831,-0.085499,-0.066942,0.131463,-0.316654,-0.173794,0.14035,1
1901804165,-0.024561,-0.019027,0.129803,-0.263324,-0.058963,0.202638,1
1901837499,0.044538,0.060009,0.091642,-0.309253,-0.164619,0.234695,1
1901870833,0.025974,0.097187,0.072207,-0.244841,-0.097173,0.286035,1
1901904167,-0.009026,0.169569,0.076836,-0.136798,-0.092927,0.411398,1
1901937501,-0.062277,0.186736,0.07725,-0.080736,-0.157589,0.408126,1
1901970835,0.063319,0.1527,-0.083074,0.060417,-0.112939,0.452352,1
1902004169,0.128523,-0.028852,-0.071204,0.347945,0.09556,0.332043,1
1902037503,0.143387,-0.392438,-0.02401,0.535991,0.069873,0.113465,1
1902070837,-0.189258,-0.629709,0.182677,0.563716,-0.010596,0.134163,1
1902104171,-0.425224,-0.688981,0.263941,0.550604,-0.080928,0.16813,1
1902137505,-0.183164,-0.721876,0.206504,0.585978,-0.172881,-0.035975,1
1902170839,-0.233657,-0.582553,0.170554,0.459812,0.041353,-0.115912,1
1902204173,-0.26035,-0.488937,0.031464,0.178826,0.094083,-0.116352,1
1902237507,-0.305353,-0.550646,0.164506,0.009918,0.146872,-0.000252,1
1902270841,-0.195241,-0.501811,0.154022,-0.079067,0.212176,0.105226,1
1902304175,-0.309499,-0.20883,0.098066,-0.047659,0.07966,0.134656,1
1902337509,-0.253807,-0.215855,0.136193,-0.197147,0.016671,0.184394,1
1902370843,-0.219572,-0.163551,0.161788,-0.309277,-0.050116,0.181816,1
1902404177,-0.224961,0.116708,0.092663,-0.241501,-0.127769,0.19528,1
1902437511,-0.16272,0.265437,0.082632,-0.351191,-0.167495,0.204541,1
1902470845,-0.20705,0.300086,0.102433,-0.626334,-0.279391,0.226317,1
1902504179,-0.288214,0.34195,0.090424,-0.705232,-0.263954,0.214529,1
1902537513,-0.270944,0.349661,0.080321,-0.787028,-0.223454,0.215489,1
1902570847,-0.360044,0.410689,0.118144,-0.780712,-0.272295,0.2894,1
1902604181,-0.3597,0.393098,0.107699,-0.707736,-0.362365,0.312616,1
1902637515,-0.365478,0.408726,0.118534,-0.81659,-0.463288,0.265435,1
1902670849,-0.48161,0.412026,0.224083,-0.820992,-0.426043,0.280273,1
1902704183,-0.44887,0.418759,0.120999,-0.87695,-0.394129,0.219893,1
1902737517,-0.321219,0.413727,0.159202,-0.769735,-0.493226,0.084466,1
1902770851,-0.440162,0.320499,0.308381,-0.745774,-0.334677,0.25053,1
1902804185,-0.04928,0.21825,0.090632,-0.709942,-0.299684,0.197582,1
1902837519,0.198861,0.094952,0.062345,-0.493482,-0.078419,0.038597,1
1902870853,0.235637,-0.135346,0.047433,-0.51918,0.07602,-0.046021,1
1902904187,0.07517,-0.035877,0.046274,-0.389004,0.063814,0.068658,1
1902937521,-0.045203,0.037048,0.070793,-0.168736,-0.188137,0.159369,1
1902970855,-0.059108,-0.023647,0.062524,-0.196313,-0.164831,0.192524,1
1903004189,0.035062,-0.044869,0.106095,-0.107659,-0.112401,0.06724,1
1903037523,-0.156795,0.003369,0.089318,-0.078839,-0.07326,0.228942,1
1903070857,-0.145615,0.007628,0.183774,-0.099196,-0.130753,0.345443,1
1903104191,-0.121264,0.031708,0.128736,-0.00247,-0.398096,0.372328,1
1903137525,-0.125089,0.015449,0.159191,0.138725,-0.415784,0.333011,1
1903170859,-0.181554,-0.056281,0.15576,-0.036744,-0.207674,0.24946,1
1903204193,-0.207468,-0.198479,0.284613,0.142266,-0.528052,0.340957,1
1903237527,-0.046037,-0.156185,0.029616,0.438284,-0.799482,0.219959,1
1903270861,-0.024111,-0.172589,0.078055,1.22496,-1.291122,0.075155,1
1903304195,-0.137619,-0.061633,0.262189,2.349784,-2.405305,0.038884,1
1903337529,-0.3083,0.136341,0.128401,3.120771,-2.892384,-0.306252,1
1903370863,-0.106921,0.195065,0.073109,1.539694,-1.362031,-0.195335,1
1903404197,-0.131694,0.102074,0.0098,0.615508,1.440724,0.262139,1
1903437531,-0.093135,0.058071,0.070213,0.218238,3.470585,0.630625,1
1903470865,0.054919,-0.237847,0.056937,-0.112548,3.316644,0.428194,1
1903504199,-0.012367,-0.314296,0.201265,1.357323,2.522174,0.872058,1
1903537533,-0.062443,-0.432946,0.030737,-0.576695,0.22773,0.560969,1
1903570867,0.258078,-0.614541,0.073682,-0.174874,0.031114,-0.519258,1
1903604201,0.201064,-0.428961,-0.179945,-0.301567,1.568601,-0.231771,1
1903637535,0.361112,-0.808529,0.010474,0.172548,0.960825,-0.934585,1
1903670869,-0.486203,-0.537822,0.361913,-1.055698,0.855861,-1.330703,1
1903704203,-0.252347,-0.409549,0.052408,-2.596874,1.723244,-1.306673,1
1903737537,0.22528,-0.699063,0.063006,-1.162515,1.063326,-1.399402,1
1903770871,0.385409,-0.597681,0.08283,-0.756959,1.434763,-2.272738,1
1903804205,0.167148,-0.535484,0.094909,-1.332801,1.840631,-1.779979,1
1903837539,-0.021123,-0.41591,0.192798,-0.898201,2.205936,-1.243724,1
1903870873,-0.011803,-0.363619,0.045412,-1.229631,1.278143,-1.353797,1
1903904207,-0.033385,-0.27802,0.007967,-2.121946,0.13336,0.486545,1
1903937541,0.148009,-0.44659,0.180363,-1.555636,-0.191291,0.490697,1
1903970875,0.536309,-0.540762,0.3332,-1.707908,-1.429788,1.023177,1
1904004209,0.299746,-0.069284,0.355534,-1.661451,-1.796012,1.970227,1
1904037543,-0.40249,0.420226,0.133048,-1.791157,-2.115348,3.096774,1
1904070877,-0.505551,0.582247,-0.010306,-1.439532,-1.433715,1.922448,1
1904104211,-0.097428,0.339037,-0.143322,-1.077747,-1.112629,0.855974,1
1904137545,-0.048979,-0.184362,0.029015,-0.991252,-1.312576,0.891893,1
1904170879,0.074901,-0.751629,0.348434,-0.833453,-1.151094,0.802681,1
1904204213,0.077261,-0.717126,0.042072,-0.766212,-1.274783,0.306395,1
1904237547,-0.161699,-0.67965,-0.031871,-0.36904,-1.13763,-0.18241,1
1904270881,-0.212598,-0.624151,0.070379,0.17186,-0.47857,0.214305,1
1904304215,-0.112341,-0.539656,0.070646,1.015049,-0.144116,0.622053,1
1904337549,-0.423342,-0.565394,0.074996,2.06468,0.427832,1.805784,1
1904370883,-0.407052,-0.573366,0.154395,2.177589,0.597353,2.707415,1
1904404217,-0.73347,-0.130135,-0.22405,1.978024,0.205303,2.583839,1
1904437551,-0.747093,0.611797,-0.264379,2.39657,0.275828,2.998489,1
1904470885,-0.82186,0.678436,0.151761,1.595547,0.145549,2.772967,1
1904504219,-0.329804,0.486067,0.322932,0.956388,-0.284779,2.177388,1
1904537553,0.292984,0.35279,0.654649,0.590575,-0.43893,2.998285,1
1904570887,0.393657,0.254471,0.673794,-0.268812,-0.947576,2.463388,1
1904604221,0.033807,-0.049466,0.319381,-0.731764,-1.619529,0.929186,1
1904637555,-0.019529,-0.32955,0.144148,-0.89876,-2.214159,-1.722042,1
1904670889,-0.18237,-0.285662,-0.073436,-1.132074,-1.939077,-3.351612,1
1904704223,0.137673,0.000676,-0.076573,-0.874743,-1.057605,-3.022168,1
1904737557,0.020978,0.03671,0.030732,-0.659825,-0.953609,-2.832336,1
1904770891,-0.358662,0.136434,0.381714,-0.309303,-0.838122,-2.596352,1
1904804225,-0.533607,0.129309,0.564383,-2.541398,-0.56564,-0.931826,1
1904837559,-0.582565,0.007625,0.440554,-4.180317,0.097864,-0.580135,1
1904870893,-0.525424,-0.099155,0.368931,-3.964643,-0.12702,-2.489295,1
1904904227,-0.533569,-0.140587,0.411633,-3.272767,-0.016309,-3.083157,1
1904937561,-0.465859,-0.092786,0.276688,-2.378011,-0.759407,-2.80127,1
1904970895,-0.357776,-0.143508,0.3072,-1.223388,-1.165503,-2.301796,1
1905004229,-0.240352,0.117762,-0.008618,-0.436848,-0.768483,-2.609854,1
1905037563,-0.098346,0.307604,-0.229125,-0.241759,0.457957,-2.302789,1
1905070897,0.006415,0.308883,-0.249964,0.39756,0.256021,-2.470003,1
1905104231,0.11231,0.441552,-0.440645,-0.603059,0.685492,1.696322,1
1905137565,0.184814,0.257803,-0.749125,-0.82955,0.075813,3.325925,1
1905170899,0.308912,-0.002248,-0.641698,-0.573147,-1.036514,3.600187,1
1905204233,0.486263,-0.09894,-0.414073,0.714783,-2.895116,2.022904,1
1905237567,0.417647,-0.115658,0.032587,1.856492,-0.816704,1.89386,1
1905270901,0.131411,0.098041,0.323848,2.11783,1.24603,2.123012,1
1905304235,0.039266,0.048997,0.05365,2.39004,2.467696,2.220694,1
1905337569,-0.220408,-0.1598,-0.087134,1.964919,2.100043,1.257084,1
1905370903,-0.225073,-0.031202,0.390564,1.617227,0.995435,0.625023,1
1905404237,-0.753796,-0.172764,0.637233,1.104147,-0.249252,0.114151,1
1905437571,-0.822761,-0.400285,0.267037,0.51156,0.014905,-0.237273,1
1905470905,-0.624246,-0.374427,0.163257,-0.099891,0.266497,0.142151,1
1905504239,0.001363,-0.438968,0.152602,-0.908612,0.429053,0.739931,1
1905537573,0.125644,-0.969911,-0.075995,-0.44323,-1.104915,-0.624901,1
1905570907,-0.231954,-1.082647,-0.032727,0.033875,-3.269637,-2.529236,1
1905604241,-0.324836,-0.520733,0.216364,-1.115771,0.977611,-1.898983,1
1905637575,-0.318769,-0.3279,0.578167,-0.908193,2.03159,0.627299,1
1905670909,-0.046112,-0.293369,0.165117,-0.238595,0.009738,0.852094,1
1905704243,0.252912,-0.397427,-0.037585,-0.375835,0.17642,-0.319882,1
1905737577,0.368796,-0.33636,0.046514,-0.211761,-0.98347,-3.363367,1
1905770911,0.136194,-0.185522,0.116699,0.422385,-3.554757,-5.308241,1
1905804245,0.052897,-0.197262,0.175364,-1.199676,-2.501367,-4.140299,1
1905837579,0.153885,-0.085033,0.162368,-2.7508,-1.515406,-2.738053,1
1905870913,0.113718,-0.024439,0.13552,-4.146789,-0.684409,-2.280132,1
1905904247,0.000645,-0.121532,0.191286,-5.487719,0.16748,-2.004186,1
1905937581,0.012317,-0.151442,0.209251,-5.853113,1.623926,0.11832,1
1905970915,0.073095,-0.089622,0.150557,-3.364626,4.629433,3.364912,1
1906004249,0.008272,-0.100537,0.049565,-3.637971,4.473992,2.353719,1
1906037583,0.162021,-0.162396,0.017098,-5.03494,1.494132,1.507387,1
1906070917,0.248142,-0.066601,0.058355,-4.328107,-1.564192,2.231949,1
1906104251,0.244217,-0.020708,0.21051,-1.330617,-1.056191,3.482619,1
1906137585,1.87325,-1.109517,2.139407,17.042583,-6.468548,7.927706,1
1906170919,-9.273338,0.005983,-1.715041,6.972366,-4.078056,10.400188,1
1906204253,1.217214,1.629951,-0.586965,4.406165,6.024447,0.706542,1
1906237587,1.653136,1.424517,0.159172,-1.005615,2.751351,0.473099,1
1906270921,1.08207,-0.767697,1.015494,-0.815288,-0.047976,-1.29988,1
1906304255,-0.721614,-0.666332,0.216783,-2.322902,-1.755521,-0.278234,1
1906337589,0.252839,0.294256,-0.444731,-2.309242,-0.592367,-0.450751,1
1906370923,0.121987,0.403786,0.114122,-2.135647,-0.318291,-0.466783,1
1906404257,0.105402,-0.344009,0.295232,-2.278855,0.099701,-0.768472,1
1906437591,0.165089,-0.607154,0.130889,-2.568873,0.702079,-1.019614,1
1906470925,0.134016,-0.085583,0.009,-2.45942,0.906395,-1.022268,1
1906504259,0.297827,-0.235122,0.028153,-2.190791,0.98579,-0.566639,1
1906537593,0.088353,-0.44571,0.055536,-1.547564,0.999472,-0.237715,1
1906570927,0.139014,-0.234033,0.228927,-1.229728,0.800573,-0.179449,1
1906604261,0.313472,-0.116425,0.065124,-1.066782,0.057272,0.015852,1
1906637595,0.177519,-0.214383,-0.003156,-0.812919,-0.568994,-0.01117,1
1906670929,0.104095,0.01843,0.130705,-0.157581,-1.001617,0.420458,1
1906704263,0.576287,0.55431,-0.06855,1.546554,-2.032019,1.323705,1
1906737597,0.326003,-0.262693,1.105319,4.296011,-1.707423,3.048168,1
1906770931,-1.0275,-0.393978,-0.616738,1.930158,-0.025397,1.137788,1
1906804265,0.609639,0.659286,-0.060206,0.096752,0.123669,0.258125,1
1906837599,0.325809,0.301448,-0.030101,-1.096321,-0.442542,-0.416582,1
1906870933,-0.273702,-0.112082,0.043939,-1.505877,-0.477394,-0.285303,1
1906904267,-0.413522,0.241073,0.167676,-1.654545,-0.019928,-0.186197,1
1906937601,-0.299817,0.22835,0.180629,-1.309567,0.097607,0.174901,1
1906970935,0.507803,0.123231,-0.11596,-1.442499,0.846827,0.058526,1
1907004269,-0.277849,-0.7578,0.337804,-0.54604,2.085531,0.146134,1
1907037603,-0.181257,-0.86533,0.466992,0.798653,0.727953,0.802602,1
1907070937,-0.188424,-0.88878,0.502345,0.918109,-0.612828,0.204876,1
1907104271,-0.44712,-0.747563,0.086997,1.475175,-1.803125,-0.279623,1
1907137605,-0.473175,-0.263541,0.048948,1.180645,-0.253889,-0.579083,1
1907170939,-0.305137,-0.217978,0.251587,0.732369,0.125003,-0.4583,1
1907204273,-0.285639,-0.19567,0.261199,0.179423,0.208055,0.179545,1
1907237607,-0.280752,-0.181007,0.347964,-0.582076,0.600762,-0.0025,1
1907270941,-0.109452,-0.204235,0.113114,-0.91684,1.049792,0.600501,1
1907304275,0.028253,-0.174748,-0.164847,-1.007803,1.270012,0.62537,1
1907337609,-0.002036,-0.263264,-0.193122,-0.857611,0.568956,-0.010378,1
1907370943,0.154925,-0.309022,-0.044334,-0.584056,-1.112679,-0.050394,1
1907404277,-0.18992,-0.210881,-0.031343,0.782438,-1.863377,0.148405,1
1907437611,-0.40964,-0.124864,-0.030581,0.9551,-1.404465,0.091937,1
1907470945,-0.566588,-0.047473,0.169495,0.415439,-1.289746,0.192776,1
1907504279,-0.44289,-0.262381,0.234793,0.062845,-0.845025,0.051995,1
1907537613,-0.158146,-0.357053,0.002357,-0.313554,-0.191524,0.09815,1
1907570947,-0.084014,-0.607416,0.265124,-0.393153,0.295996,0.068714,1
1907604281,-0.016593,-0.665246,0.093958,-0.013281,0.213374,-0.165015,1
1907637615,0.131109,-0.439947,-0.256798,0.064358,0.103479,-0.272962,1
1907670949,0.00697,-0.269908,0.027357,0.380225,0.206977,-0.118402,1
1907704283,-0.236214,-0.160454,0.419447,0.424522,0.333028,0.349221,1
1907737617,-0.260966,-0.028641,0.338325,0.17276,0.214435,0.477564,1
1907770951,-0.198823,-0.05401,0.117327,-0.017198,0.052535,-0.053074,1
1907804285,-0.002092,-0.08304,-0.053107,-0.305594,-0.135504,-0.313236,1
1907837619,0.104894,-0.24129,0.064864,-0.563478,-0.272207,-0.553467,1
1907870953,0.238177,-0.556728,0.234326,-0.477999,-0.09208,0.070256,1
1907904287,0.26035,-0.623577,0.197167,-0.483098,-0.080974,0.635321,1
1907937621,0.018415,-0.551114,0.278367,-0.02063,-0.304571,0.324985,1
1907970955,-0.319289,-0.851757,0.240285,0.529327,0.164826,0.543207,1
1908004289,0.059687,-0.749999,0.116757,0.558388,0.234424,0.695983,1
1908037623,0.225458,-0.998745,0.267704,0.231882,0.411695,0.409451,1
1908070957,0.24435,-1.001799,0.226376,-0.195438,0.330185,0.302639,1
1908104291,0.200827,-0.703665,-0.063281,-0.404261,0.189873,0.219015,1
1908137625,0.104192,-0.368814,-0.258559,-0.434677,0.207497,0.0969,1
1908170959,-0.026271,-0.251949,-0.2011,-0.116992,0.735135,0.224485,1
1908204293,0.258036,-0.287979,0.051986,0.171234,1.202808,0.530519,1
1908237627,0.454829,-0.154588,-0.00344,0.391043,0.765106,0.475916,1
1908270961,0.322135,0.158268,-0.080103,0.225005,0.267672,0.500074,1
1908304295,0.054393,0.44886,0.083573,0.021646,0.17577,0.429147,1
1908337629,-0.190978,0.53155,0.235507,-0.092564,0.072278,0.195776,1
1908370963,-0.322499,0.748583,0.293616,0.028694,-0.292458,0.129823,1
1908404297,-0.418719,0.499721,0.15227,-0.019259,-0.596985,-0.046515,1
1908437631,-0.500737,0.696818,-0.008832,-0.635996,-0.522197,0.020088,1
1908470965,-0.304225,0.364591,0.235649,-0.733716,-0.315291,0.358807,1
1908504299,0.227974,-0.032721,0.208817,-0.860592,-0.622594,0.136955,1
1908537633,0.533131,-0.035796,0.089232,-0.808843,-0.829908,0.025701,1
1908570967,0.663806,-0.236182,0.002343,-0.93625,-1.194453,0.095798,1
1908604301,0.236877,-0.002498,0.089792,-0.980716,-0.868315,-0.228277,1
1908637635,-0.179315,0.09974,0.189259,-0.847253,-0.87076,-0.155026,1
1908670969,-0.155649,0.129086,0.178698,-0.366224,-0.681541,0.03309,1
1908704303,-0.167544,0.2565,0.060009,-4.3e-05,-0.7907,-0.002817,1
1908737637,-0.229067,0.25202,0.102976,0.388885,-0.453306,0.607996,1
1908770971,0.004009,0.198378,0.147219,0.3736,-0.405201,0.403709,1
1908804305,0.011561,0.312347,0.204438,-0.031462,-0.420376,0.213913,1
1908837639,0.033288,0.233365,0.132321,-0.600251,-0.179476,0.268464,1
1908870973,0.073178,0.220657,0.219298,-0.772661,-0.112198,0.200442,1
1908904307,0.088706,0.073685,0.226887,-0.437781,-0.925212,-0.299835,1
1908937641,0.14111,0.028527,0.085739,-0.410366,-0.785244,-0.203084,1
1908970975,0.082606,-0.005604,0.067764,-0.560774,-0.421237,-0.202949,1
1909004309,0.011764,0.022219,0.168039,-0.433084,-0.015022,0.02819,1
1909037643,0.046781,-0.001319,0.142317,-0.065919,-0.396608,0.168156,1
1909070977,0.036215,0.05899,0.109509,-0.146033,-0.511094,0.214792,1
1909104311,0.072612,0.071757,0.133708,-0.133364,-0.642631,0.188183,1
1909137645,0.002941,0.178448,0.111558,-0.092649,-0.828698,0.193027,1
1909170979,0.076763,0.098401,0.135489,-0.128863,-0.864993,0.113219,1
1909204313,0.119626,0.06767,0.185631,-0.42247,-0.415148,0.172575,1
1909237647,0.079074,0.109579,0.107736,-0.450819,0.040331,0.233552,1
1909270981,0.03231,0.07274,0.090923,-0.537654,-0.247073,0.182471,1
1909304315,0.022422,0.013451,0.126457,-0.390171,0.324363,0.365169,1
1909337649,0.013051,-0.005255,0.172174,-0.193526,0.342982,0.185246,1
1909370983,0.068042,0.056838,0.080317,-0.002864,0.235484,-0.005427,1
1909404317,0.019303,-0.010504,0.085073,-0.017116,0.914019,0.353624,1
