sep=,
DeviceTag:,D_Leg
FirmwareVersion:,2.2.1
AppVersion:,2023.6.0
SyncStatus:,Synced
OutputRate:,30Hz
FilterProfile:,General
Measurement Mode:,Sensor fusion Mode - Complete(Quaternion)
StartTime: ,2026-08-21_21:25:56_764 AEST
© Movella Technologies B. V. 2005-2026

PacketCounter,SampleTimeFine,Quat_W,Quat_X,Quat_Y,Quat_Z,FreeAcc_X,FreeAcc_Y,FreeAcc_Z
1,1654565887,0.586540,-0.302638,-0.612742,-0.434669,-0.715136,-0.110844,-0.103052
2,1654599221,0.584908,-0.308601,-0.607382,-0.440165,-0.510184,-0.119464,0.086791
3,1654632555,0.583347,-0.313625,-0.602820,-0.444930,-0.367795,-0.021694,0.466829
4,1654665889,0.581926,-0.317315,-0.599261,-0.448965,-0.361494,0.278753,0.531497
5,1654699223,0.580947,-0.321096,-0.594790,-0.453467,-0.475877,0.432491,0.449908
6,1654732557,0.581181,-0.324891,-0.588389,-0.458783,-0.359901,0.302439,0.169843
7,1654765891,0.581754,-0.327905,-0.581693,-0.464417,-0.422722,-0.054821,0.252388
8,1654799225,0.582348,-0.330197,-0.575547,-0.469676,-0.339485,-0.022378,0.150795
9,1654832559,0.583629,-0.331108,-0.570685,-0.473363,-0.469649,-0.187912,-0.114262
10,1654865893,0.584940,-0.331991,-0.567205,-0.475305,-0.724779,-0.235816,-0.124517
11,1654899227,0.586781,-0.332973,-0.564379,-0.475714,-0.687972,-0.052479,0.019361
12,1654932561,0.589023,-0.333769,-0.562084,-0.475102,-0.665991,0.199013,0.037604
13,1654965895,0.590882,-0.334244,-0.560086,-0.474818,-0.553531,0.363696,-0.236607
14,1654999229,0.592278,-0.335175,-0.558085,-0.474779,-0.304105,0.501234,0.144529
15,1655032563,0.593701,-0.336472,-0.555424,-0.475204,-0.271908,0.521016,0.368171
16,1655065897,0.594660,-0.337390,-0.553174,-0.475978,-0.324080,0.286092,0.396916
17,1655099231,0.595730,-0.337284,-0.551230,-0.476970,-0.168192,0.251262,0.202241
18,1655132565,0.597202,-0.336137,-0.549917,-0.477454,-0.298102,0.224217,-0.024888
19,1655165899,0.599282,-0.334042,-0.549274,-0.477059,-0.585386,0.204189,-0.217227
20,1655199233,0.601876,-0.330842,-0.549309,-0.475982,-0.532643,-0.029736,-0.333974
21,1655232567,0.603733,-0.327959,-0.549724,-0.475145,-0.820756,0.243188,0.122139
22,1655265901,0.605741,-0.325637,-0.549801,-0.474094,-0.641589,0.210193,-0.176374
23,1655299235,0.608422,-0.323544,-0.550587,-0.471174,-0.678987,-0.302713,-0.315133
24,1655332569,0.612298,-0.320653,-0.551209,-0.467388,-0.815205,-0.406023,-0.413331
25,1655365903,0.615495,-0.318732,-0.553394,-0.461887,-0.888834,0.316086,-0.873808
26,1655399237,0.616847,-0.319333,-0.557796,-0.454312,-0.630776,0.383049,-1.282639
27,1655432571,0.615926,-0.321365,-0.565233,-0.444839,-0.601109,0.627786,-1.177116
28,1655465905,0.611113,-0.327079,-0.572728,-0.437666,-0.622622,0.423988,1.015332
29,1655499239,0.607385,-0.326869,-0.581056,-0.432000,-0.075912,-0.336761,5.996878
30,1655532573,0.607584,-0.325635,-0.586654,-0.425031,2.184705,1.890245,-0.518632
31,1655565907,0.603534,-0.329841,-0.589960,-0.422975,0.593784,1.267367,-1.952915
32,1655599241,0.598475,-0.335130,-0.592098,-0.423019,-0.231040,0.421624,-0.150093
33,1655632575,0.595226,-0.339982,-0.591423,-0.424673,-0.449049,0.019933,0.867174
34,1655665909,0.594428,-0.343851,-0.587960,-0.427475,-0.821951,0.273578,-0.288822
35,1655699243,0.592875,-0.347928,-0.586162,-0.428800,-0.482887,-0.091800,-0.590714
36,1655732577,0.590357,-0.353361,-0.585409,-0.428860,-0.429609,0.144457,-0.039976
37,1655765911,0.587722,-0.359209,-0.585536,-0.427444,-0.138607,-0.108053,0.238934
38,1655799245,0.584875,-0.367075,-0.585166,-0.425167,0.215762,-0.160471,-0.350389
39,1655832579,0.579655,-0.377768,-0.583918,-0.424667,0.791114,0.235026,-0.417288
40,1655865913,0.570755,-0.391760,-0.581854,-0.426872,1.192565,-0.070191,0.203434
41,1655899247,0.558296,-0.408672,-0.580021,-0.429975,0.580666,-0.590876,0.649127
42,1655932581,0.544502,-0.426058,-0.578785,-0.432446,-0.063883,-1.219797,0.413269
43,1655965915,0.532697,-0.440791,-0.578318,-0.433006,0.239878,-0.816945,0.274693
44,1655999249,0.521678,-0.454696,-0.577397,-0.433274,0.765826,-0.136509,0.255955
45,1656032583,0.506778,-0.471597,-0.574840,-0.436281,0.542087,-0.196098,0.185970
46,1656065917,0.486460,-0.492924,-0.570257,-0.441814,0.323348,-0.392684,0.125451
47,1656099251,0.464682,-0.515227,-0.563433,-0.448514,-0.023736,-0.268345,0.068055
48,1656132585,0.443583,-0.535477,-0.555222,-0.456330,-0.179868,-0.107765,0.102006
49,1656165919,0.421468,-0.555761,-0.545254,-0.464975,-0.514147,-0.279120,0.319072
50,1656199253,0.400748,-0.573778,-0.536106,-0.471995,-0.814462,-0.243968,-0.162004
51,1656232587,0.381384,-0.588979,-0.530064,-0.476121,-1.042506,-0.230195,0.186946
52,1656265921,0.365156,-0.600104,-0.527634,-0.477648,-1.281596,0.151415,0.334973
53,1656299255,0.353323,-0.606967,-0.528366,-0.477067,-1.255393,0.448341,0.445247
54,1656332589,0.343570,-0.612355,-0.528979,-0.476625,-0.782087,1.253863,-0.009733
55,1656365923,0.334779,-0.618294,-0.527256,-0.477123,-0.749141,1.750054,-0.132525
56,1656399257,0.323078,-0.627393,-0.520706,-0.480493,-0.825132,1.315850,-0.090095
57,1656432591,0.309064,-0.637511,-0.512577,-0.485111,-0.959929,1.149098,-0.091840
58,1656465925,0.294354,-0.647360,-0.505061,-0.489085,-0.999402,0.760802,-0.178744
59,1656499259,0.280733,-0.655478,-0.500136,-0.491336,-0.578930,0.340923,-0.193112
60,1656532593,0.268281,-0.662545,-0.498384,-0.490593,-0.128290,0.733945,0.374525
61,1656565927,0.255864,-0.668956,-0.497222,-0.489706,0.203760,1.517968,0.115114
62,1656599261,0.240593,-0.676213,-0.494080,-0.490658,-0.268993,1.498017,0.014665
63,1656632595,0.224628,-0.683210,-0.489846,-0.492775,-0.892697,1.955455,-0.170842
64,1656665929,0.211085,-0.689153,-0.485951,-0.494341,-2.181380,2.259895,-0.444634
65,1656699263,0.202496,-0.692898,-0.483442,-0.495158,-2.797397,2.498919,0.737891
66,1656732597,0.205813,-0.692115,-0.483573,-0.494757,-1.672324,2.945396,1.553168
67,1656765931,0.219885,-0.684202,-0.483315,-0.499934,1.118243,2.640365,1.693989
68,1656799265,0.240683,-0.667300,-0.480803,-0.515383,3.304964,2.040237,0.711893
69,1656832599,0.252524,-0.650671,-0.466683,-0.543208,1.659526,0.150859,-0.300712
70,1656865933,0.251524,-0.642058,-0.439115,-0.575921,-1.436075,-1.106192,0.990466
71,1656899267,0.261321,-0.628143,-0.419999,-0.600631,-2.892947,-1.249000,2.385820
72,1656932601,0.295254,-0.602201,-0.420585,-0.610980,-2.056803,-1.435250,1.455882
73,1656965935,0.333568,-0.575484,-0.426197,-0.613120,-1.880685,-1.112993,0.485711
74,1656999269,0.365644,-0.555768,-0.426409,-0.612871,-0.919756,-0.624749,0.260986
75,1657032603,0.395024,-0.539994,-0.424993,-0.609715,-0.571554,-1.354013,0.325079
76,1657065937,0.425320,-0.522459,-0.425817,-0.604011,-0.289483,-1.186175,0.318409
77,1657099271,0.455814,-0.501712,-0.426958,-0.598528,0.297470,-0.351572,-0.578070
78,1657132605,0.480990,-0.481727,-0.425514,-0.596267,1.257125,0.116648,-0.541198
79,1657165939,0.499468,-0.462724,-0.422636,-0.598170,1.578282,0.038862,-0.867841
80,1657199273,0.512432,-0.444773,-0.420345,-0.602420,1.393761,-0.051406,-1.230454
81,1657232607,0.521872,-0.428949,-0.420136,-0.605927,1.206271,-0.030215,-1.839220
82,1657265941,0.527662,-0.419752,-0.420362,-0.607195,0.096236,-0.446664,-2.465539
83,1657299275,0.529657,-0.417886,-0.422416,-0.605317,-1.263028,-0.114690,-2.651102
84,1657332609,0.528126,-0.419636,-0.429046,-0.600764,-1.966284,0.830881,-1.054622
85,1657365943,0.525967,-0.422311,-0.438383,-0.594005,-1.321271,1.120658,0.393634
86,1657399277,0.523700,-0.427069,-0.447671,-0.585619,-0.370193,0.939822,1.101510
87,1657432611,0.524201,-0.430405,-0.455531,-0.576599,-0.451332,0.791600,1.020022
88,1657465945,0.525854,-0.432336,-0.463289,-0.567393,2.158457,0.345814,0.822642
89,1657499279,0.522395,-0.433084,-0.474734,-0.560517,0.342781,1.375785,3.019967
90,1657532613,0.525598,-0.428044,-0.482112,-0.555070,0.174491,2.461563,1.907227
91,1657565947,0.523588,-0.432529,-0.483652,-0.552145,0.227060,-0.695677,-1.574731
92,1657599281,0.516939,-0.444525,-0.483724,-0.548810,-0.757732,-1.056571,-0.972451
93,1657632615,0.512163,-0.456717,-0.483974,-0.543027,-0.858674,-3.415354,1.166672
94,1657665949,0.507229,-0.467080,-0.487086,-0.536015,1.624494,-1.501639,-1.183284
95,1657699283,0.502125,-0.477432,-0.493588,-0.525652,0.928439,-1.849211,-1.463379
96,1657732617,0.492740,-0.491810,-0.498378,-0.516680,0.403205,-1.920172,0.273823
97,1657765951,0.481513,-0.504830,-0.501480,-0.511682,0.607813,-0.961131,0.641769
98,1657799285,0.469260,-0.518683,-0.502842,-0.507861,0.476768,-0.576026,-0.148749
99,1657832619,0.452551,-0.536418,-0.501584,-0.505842,-0.295636,-0.871959,-0.476477
100,1657865953,0.433597,-0.555328,-0.498311,-0.505273,-0.703862,-0.791479,-0.109587
101,1657899287,0.416599,-0.571521,-0.495824,-0.503962,-0.099742,-0.390146,0.191590
102,1657932621,0.397889,-0.587015,-0.493276,-0.503771,-0.177826,0.132403,-0.370316
103,1657965955,0.375107,-0.603848,-0.489808,-0.504738,-0.307367,0.609771,0.225993
104,1657999289,0.351029,-0.621827,-0.484084,-0.505749,-1.189834,0.829648,0.276422
105,1658032623,0.330289,-0.636723,-0.479963,-0.505113,-1.237126,0.707930,0.105546
106,1658065957,0.314444,-0.647310,-0.477536,-0.504067,-1.262507,0.805764,0.000281
107,1658099291,0.301130,-0.656382,-0.475132,-0.502735,-0.700614,0.824201,0.035643
108,1658132625,0.284206,-0.666955,-0.471167,-0.502403,-0.064859,0.495441,-0.199401
109,1658165959,0.263714,-0.678350,-0.466520,-0.502657,0.082481,0.778452,-0.168377
110,1658199293,0.241116,-0.690333,-0.461130,-0.502665,-0.551903,1.271398,0.676435
111,1658232627,0.220539,-0.700878,-0.455501,-0.502654,-0.582467,2.238429,0.301391
112,1658265961,0.203150,-0.709523,-0.449284,-0.503448,-1.074809,2.606344,-0.242877
113,1658299295,0.189401,-0.715908,-0.442474,-0.505795,-2.154476,3.058220,0.534669
114,1658332629,0.185487,-0.717484,-0.437557,-0.509279,-1.157386,3.844592,0.890705
115,1658365963,0.192681,-0.711523,-0.433698,-0.518193,0.319081,3.143026,0.844149
116,1658399297,0.207720,-0.692827,-0.430735,-0.539741,3.500687,2.150581,1.008138
117,1658432631,0.215110,-0.671413,-0.416369,-0.574089,0.751149,0.222814,2.240822
118,1658465965,0.215480,-0.659079,-0.386686,-0.608002,-3.230879,-1.985990,3.395054
119,1658499299,0.238269,-0.641738,-0.367982,-0.629285,-3.940123,-0.207354,2.091771
120,1658532633,0.280673,-0.613987,-0.368509,-0.639104,-2.101199,-1.172881,1.567357
121,1658565967,0.325877,-0.581805,-0.376916,-0.642846,-0.625998,-2.166628,0.388375
122,1658599301,0.362349,-0.556457,-0.380524,-0.643638,0.030599,-1.494246,-1.036422
123,1658632635,0.390492,-0.538933,-0.381054,-0.641774,-0.367083,-1.023965,-1.250192
124,1658665969,0.419967,-0.520333,-0.386609,-0.635157,-0.710906,-1.428492,-0.184923
125,1658699303,0.449682,-0.500182,-0.393631,-0.626633,0.212268,-1.528912,-0.720241
126,1658732637,0.471274,-0.484609,-0.395248,-0.621968,1.087257,-0.602332,-0.983999
127,1658765971,0.486172,-0.470251,-0.396164,-0.620938,1.626055,0.124920,-1.461215
128,1658799305,0.497362,-0.454926,-0.400176,-0.620920,1.489235,-0.176053,-2.140305
129,1658832639,0.504332,-0.444815,-0.401895,-0.621513,1.487630,0.185021,-2.827300
130,1658865973,0.508131,-0.441261,-0.404818,-0.619050,-0.238206,0.815249,-2.635883
131,1658899307,0.507480,-0.445267,-0.408596,-0.614215,-2.688515,1.184146,-0.800694
132,1658932641,0.507820,-0.449281,-0.415183,-0.606546,-2.903143,1.382591,1.497124
133,1658965975,0.511008,-0.449101,-0.426213,-0.596265,-0.869998,1.375416,1.363905
134,1658999309,0.516196,-0.445073,-0.439040,-0.585410,0.215782,1.829955,0.344449
135,1659032643,0.516853,-0.443789,-0.453130,-0.574976,2.779169,0.719721,1.506342
136,1659065977,0.511040,-0.442433,-0.466164,-0.570782,1.018356,1.763206,4.355598
137,1659099311,0.513739,-0.436586,-0.473569,-0.566751,0.375091,0.029359,-0.557488
138,1659132645,0.507226,-0.446116,-0.475566,-0.563515,0.391621,-1.842637,-1.059090
139,1659165979,0.494606,-0.465495,-0.472705,-0.561462,-1.022782,-5.086523,-0.276157
140,1659199313,0.489326,-0.478842,-0.475840,-0.552138,0.215983,-2.907848,-1.394213
141,1659232647,0.483496,-0.488184,-0.484008,-0.541898,0.836101,-2.298766,-0.387992
142,1659265981,0.472083,-0.501085,-0.491255,-0.533601,0.633862,-1.742295,-0.315599
143,1659299315,0.456947,-0.518808,-0.492571,-0.528603,0.612549,-0.791206,-0.066371
144,1659332649,0.439524,-0.538039,-0.490345,-0.526216,0.579351,-0.536571,0.146958
145,1659365983,0.418210,-0.558579,-0.485456,-0.526717,-0.636367,-0.634504,-0.191916
146,1659399317,0.398835,-0.575765,-0.482942,-0.525549,-1.108951,-0.965561,-0.208543
147,1659432651,0.380330,-0.590245,-0.481915,-0.524144,-1.208675,-0.097652,-0.129129
148,1659465985,0.360825,-0.605267,-0.481038,-0.521603,-0.797990,0.336004,-0.316168
149,1659499319,0.340139,-0.621263,-0.479393,-0.518198,-0.299467,1.220953,-0.007168
150,1659532653,0.319687,-0.635497,-0.478385,-0.514879,-0.499456,1.092947,-0.064386
151,1659565987,0.300323,-0.647058,-0.477553,-0.512909,-1.500966,1.033369,0.018169
152,1659599321,0.283002,-0.657446,-0.478578,-0.508574,-1.492318,0.870319,-0.194051
153,1659632655,0.268185,-0.666047,-0.481421,-0.502694,-0.461789,0.993379,0.076304
154,1659665989,0.252614,-0.674705,-0.482401,-0.498255,0.362992,1.772660,0.428803
155,1659699323,0.234109,-0.684493,-0.478356,-0.497842,-0.175670,2.050496,0.711084
156,1659732657,0.216689,-0.692168,-0.473102,-0.500133,-1.961331,2.465709,0.115530
157,1659765991,0.204159,-0.696999,-0.469575,-0.502016,-3.177345,2.906531,0.599258
158,1659799325,0.204335,-0.696100,-0.469697,-0.503077,-1.509882,4.147728,1.009201
159,1659832659,0.214566,-0.689638,-0.468273,-0.509009,-0.160848,4.069169,0.849666
160,1659865993,0.232226,-0.673963,-0.462379,-0.527314,1.919356,3.624041,1.072124
161,1659899327,0.250581,-0.653214,-0.443968,-0.559841,0.031855,0.361413,2.102978
162,1659932661,0.269412,-0.635344,-0.418487,-0.590452,-0.273379,-2.766047,4.690700
163,1659965995,0.304604,-0.612244,-0.399150,-0.610788,-0.937079,-1.712548,4.145461
164,1659999329,0.350862,-0.584264,-0.386460,-0.621442,-1.715075,-2.372654,2.394373
165,1660032663,0.394577,-0.553059,-0.379784,-0.627860,-0.582875,-2.757485,-0.244191
166,1660065997,0.434259,-0.522321,-0.378149,-0.628977,0.260503,-1.767794,-2.202559
167,1660099331,0.469871,-0.493395,-0.382819,-0.623893,0.615592,-2.064021,-2.496986
168,1660132665,0.501588,-0.465540,-0.390680,-0.615679,1.360692,-2.230486,-2.376408
169,1660165999,0.522019,-0.449160,-0.393873,-0.608790,1.610611,-1.467902,-2.826306
170,1660199333,0.530056,-0.445086,-0.391318,-0.606480,1.474546,-0.767645,-2.391106
171,1660232667,0.534737,-0.437862,-0.394130,-0.605809,1.685951,-0.062445,-2.614509
172,1660266001,0.536762,-0.429587,-0.403678,-0.603651,0.967310,0.764130,-2.406725
173,1660299335,0.535693,-0.423721,-0.415034,-0.601041,-0.958717,2.017749,-1.333255
174,1660332669,0.532199,-0.425814,-0.422243,-0.597634,-2.658859,2.193905,1.283260
175,1660366003,0.529365,-0.431245,-0.426980,-0.592872,-0.838016,0.878769,2.462610
176,1660399337,0.530762,-0.431902,-0.432450,-0.587153,-0.419302,0.873641,0.576544
177,1660432671,0.533087,-0.431279,-0.441754,-0.578515,0.551483,1.138930,-1.819065
178,1660466005,0.524846,-0.436170,-0.457102,-0.570403,2.260538,0.053067,4.743190
179,1660499339,0.521322,-0.433752,-0.470012,-0.564961,-0.480115,1.413421,5.571213
180,1660532673,0.523537,-0.430853,-0.475159,-0.560810,1.768332,-0.289558,-1.277784
181,1660566007,0.512874,-0.444176,-0.475778,-0.559744,0.554661,-1.895216,-3.256802
182,1660599341,0.500322,-0.464162,-0.475879,-0.554780,-1.418081,-5.696129,0.270206
183,1660632675,0.493737,-0.476470,-0.479577,-0.547005,-0.378551,-2.914074,-0.217766
184,1660666009,0.490037,-0.481693,-0.488811,-0.537502,0.899185,-2.022903,-0.918089
185,1660699343,0.480688,-0.492219,-0.495350,-0.530375,0.785568,-1.387313,-0.731358
186,1660732677,0.465392,-0.510709,-0.495935,-0.525970,-0.356250,-1.329737,-0.130375
187,1660766011,0.449016,-0.531094,-0.492920,-0.522841,-0.161441,-0.661455,0.221851
188,1660799345,0.431861,-0.547979,-0.490927,-0.521743,0.218398,-0.388271,0.189324
189,1660832679,0.417775,-0.559373,-0.492578,-0.519561,-0.482672,-1.075880,-0.065356
190,1660866013,0.404117,-0.570320,-0.495043,-0.516107,-0.334521,-0.587070,-0.080056
191,1660899347,0.387433,-0.583332,-0.496331,-0.513113,-0.423612,-0.166208,-0.231550
192,1660932681,0.368243,-0.597413,-0.497392,-0.510005,0.059147,0.628725,-0.085717
193,1660966015,0.347659,-0.611713,-0.497728,-0.507166,-0.428891,0.556083,0.205196
194,1660999349,0.331884,-0.621637,-0.498891,-0.504518,-0.999288,0.819979,0.040367
195,1661032683,0.319639,-0.629239,-0.500483,-0.501413,-0.982445,0.868006,-0.222851
196,1661066017,0.306961,-0.637087,-0.501017,-0.498886,-0.610632,0.743901,-0.190718
197,1661099351,0.291029,-0.646700,-0.499574,-0.497511,-0.416575,0.772299,0.170990
198,1661132685,0.273990,-0.656496,-0.497188,-0.496746,-0.272234,0.812610,0.356570
199,1661166019,0.256435,-0.665515,-0.494337,-0.496963,-0.874747,1.563390,0.419404
200,1661199353,0.241325,-0.671947,-0.492906,-0.497296,-2.097148,2.258839,0.507330
201,1661232687,0.233117,-0.674416,-0.493453,-0.497327,-2.372486,2.545495,1.302378
202,1661266021,0.236021,-0.671570,-0.496540,-0.496734,-1.117176,3.316422,1.132710
203,1661299355,0.244804,-0.663888,-0.496012,-0.503295,0.161390,3.195509,0.883564
204,1661332689,0.256691,-0.649170,-0.489145,-0.522910,2.397535,2.483850,0.242777
205,1661366023,0.267288,-0.631433,-0.472775,-0.553482,0.838676,0.847359,1.220664
206,1661399357,0.274430,-0.621507,-0.443462,-0.584610,-1.647959,-1.802857,2.312745
207,1661432691,0.296310,-0.608756,-0.420194,-0.604204,-1.429444,-1.933667,2.345747
208,1661466025,0.333332,-0.586813,-0.409091,-0.614162,-1.444020,-1.300832,2.123186
209,1661499359,0.373776,-0.559392,-0.407172,-0.617732,-0.439830,-1.780400,0.215710
210,1661532693,0.408068,-0.536241,-0.404482,-0.618328,0.109220,-1.474791,-0.858501
211,1661566027,0.438397,-0.516254,-0.402588,-0.615811,0.382224,-1.597124,-1.322513
212,1661599361,0.468256,-0.493624,-0.406713,-0.609644,0.202126,-1.614333,-0.736837
213,1661632695,0.495494,-0.471075,-0.411700,-0.602566,0.957466,-1.013151,-1.248916
214,1661666029,0.512969,-0.459207,-0.409763,-0.598412,0.985436,-0.316803,-1.332829
215,1661699363,0.523198,-0.452380,-0.407121,-0.596555,0.738823,0.044434,-1.744999
216,1661732697,0.532046,-0.441994,-0.409684,-0.594758,0.647842,0.163248,-1.523618
217,1661766031,0.539830,-0.429693,-0.416979,-0.591680,0.838562,0.533497,-1.807914
218,1661799365,0.543939,-0.422355,-0.424664,-0.587722,-0.015544,1.475187,-2.088826
219,1661832699,0.542436,-0.423275,-0.431470,-0.583477,-1.400411,1.534679,-0.471000
220,1661866033,0.542144,-0.423729,-0.438125,-0.578437,-1.007165,1.184275,1.626479
221,1661899367,0.546723,-0.419730,-0.446189,-0.570828,-0.850137,0.760197,1.999008
222,1661932701,0.555164,-0.411460,-0.455672,-0.561130,-0.471617,0.953959,0.179025
223,1661966035,0.557553,-0.407309,-0.467863,-0.551677,1.164862,0.508191,1.515522
224,1661999369,0.555243,-0.405091,-0.477152,-0.547669,0.463487,1.273798,3.657518
225,1662032703,0.555906,-0.404053,-0.480207,-0.545087,2.465262,0.504743,-0.628823
226,1662066037,0.546138,-0.415871,-0.483679,-0.543000,1.588794,-3.344100,-0.928088
227,1662099371,0.529158,-0.439541,-0.484165,-0.540730,-0.536920,-4.399736,-1.705734
228,1662132705,0.515564,-0.459427,-0.486081,-0.535589,0.464112,-2.844232,-0.364356
229,1662166039,0.506767,-0.468657,-0.493168,-0.529474,1.377865,-1.006427,0.791763
230,1662199373,0.494059,-0.480933,-0.497490,-0.526424,0.919206,-1.359541,-0.491350
231,1662232707,0.475282,-0.499576,-0.497201,-0.526623,-0.178159,-1.510852,-0.380531
232,1662266041,0.455619,-0.520136,-0.495195,-0.525986,-0.366689,-1.043898,0.071721
233,1662299375,0.435276,-0.540858,-0.491913,-0.525394,-0.508304,-0.234475,0.180563
234,1662332709,0.415851,-0.556125,-0.492473,-0.524664,-1.366991,-0.751325,0.166238
235,1662366043,0.399696,-0.566529,-0.496646,-0.522149,-1.390649,-0.344385,-0.021466
236,1662399377,0.387846,-0.573702,-0.502022,-0.518098,-0.772127,0.756403,-0.248903
237,1662432711,0.373984,-0.582964,-0.506847,-0.513230,-0.249026,1.211904,-0.342437
238,1662466045,0.356480,-0.594005,-0.510216,-0.509676,-0.717881,1.401796,-0.141623
239,1662499379,0.340509,-0.602696,-0.514198,-0.506381,-1.541815,0.624989,-0.076415
240,1662532713,0.329804,-0.607582,-0.521027,-0.500613,-1.372012,0.708142,-0.202706
241,1662566047,0.321296,-0.611091,-0.529036,-0.493424,-0.910893,0.770256,-0.276421
242,1662599381,0.309291,-0.616304,-0.534204,-0.489024,-0.110457,0.954137,0.284322
243,1662632715,0.295017,-0.623734,-0.535337,-0.487180,0.373648,1.736754,0.635187
244,1662666049,0.279775,-0.631049,-0.534182,-0.488019,-1.012859,1.767838,0.156059
245,1662699383,0.265220,-0.636769,-0.531409,-0.491729,-2.290392,1.678461,0.736819
246,1662732717,0.260897,-0.636744,-0.532808,-0.492560,-2.496264,2.117036,0.952517
247,1662766051,0.268658,-0.628651,-0.537441,-0.493748,-1.070235,1.745871,1.196422
248,1662799385,0.284726,-0.611215,-0.540082,-0.503654,2.072036,2.166710,0.910892
249,1662832719,0.293797,-0.595062,-0.534682,-0.523172,0.832533,0.490096,2.097927
250,1662866053,0.294858,-0.589301,-0.515805,-0.547482,-1.520750,-1.709861,1.528512
251,1662899387,0.308176,-0.580596,-0.499731,-0.564105,-0.447222,-0.861547,1.051527
252,1662932721,0.332364,-0.565425,-0.491756,-0.572725,-0.716540,-1.034968,0.890660
253,1662966055,0.361411,-0.547015,-0.488337,-0.575928,-0.812642,-1.207090,0.747727
254,1662999389,0.391946,-0.528301,-0.486569,-0.574923,-1.668178,-1.459444,-0.498151
255,1663032723,0.424772,-0.507350,-0.488006,-0.569231,-1.384744,-1.850403,-0.333427
256,1663066057,0.459909,-0.482268,-0.493961,-0.558492,-1.461479,-1.558381,-0.552288
257,1663099391,0.495240,-0.457586,-0.500449,-0.543059,-0.449655,-1.128338,0.179372
258,1663132725,0.530229,-0.436212,-0.500987,-0.526876,-0.198946,-0.585605,-0.139565
259,1663166059,0.562514,-0.415343,-0.499532,-0.511416,-0.402254,-0.667801,0.124198
260,1663199393,0.592094,-0.391284,-0.498905,-0.497419,0.564208,-0.614221,0.301993
261,1663232727,0.618804,-0.364284,-0.497934,-0.486261,1.638484,0.090911,-0.439204
262,1663266061,0.640610,-0.339363,-0.496429,-0.477514,1.399319,0.863447,-1.501009
263,1663299395,0.656692,-0.321052,-0.494855,-0.469903,0.933658,0.430766,-2.046540
264,1663332729,0.667799,-0.309809,-0.495105,-0.461459,0.608312,-0.452985,-2.434297
265,1663366063,0.675098,-0.301876,-0.499442,-0.451310,-0.372659,-0.690777,-2.201074
266,1663399397,0.678094,-0.295442,-0.509181,-0.440054,-1.657716,-0.253429,-1.103518
267,1663432731,0.676370,-0.292562,-0.524289,-0.426686,-0.661002,0.461364,0.348334
268,1663466065,0.672773,-0.291632,-0.540754,-0.412215,0.066102,0.962898,1.143790
269,1663499399,0.670174,-0.288811,-0.552742,-0.402419,1.597775,0.801743,4.902514
270,1663532733,0.669649,-0.281993,-0.558974,-0.399510,-0.176566,1.838476,2.774728
271,1663566067,0.668074,-0.279171,-0.564969,-0.395677,1.095971,0.676941,-1.376573
272,1663599401,0.657497,-0.294236,-0.571495,-0.393097,2.354096,-4.083304,-1.365581
273,1663632735,0.642715,-0.317075,-0.576920,-0.391860,0.017459,-4.136282,-1.258265
274,1663666069,0.633433,-0.327351,-0.588290,-0.381482,0.960026,-2.698856,0.178763
275,1663699403,0.629945,-0.322392,-0.604604,-0.365644,1.621605,-0.277619,0.218489
276,1663732737,0.623562,-0.320068,-0.618863,-0.354605,1.419541,0.298913,-0.514247
277,1663766071,0.611037,-0.327365,-0.629405,-0.351177,0.406196,0.136393,0.084792
278,1663799405,0.597482,-0.338931,-0.637408,-0.349086,0.273087,-0.607828,0.058196
279,1663832739,0.584677,-0.351043,-0.643059,-0.348433,-0.138398,-1.228346,-0.555868
280,1663866073,0.573751,-0.360334,-0.648251,-0.347490,0.185911,-0.804608,-0.028323
281,1663899407,0.563813,-0.367833,-0.652920,-0.347158,0.487078,-0.380935,0.051343
282,1663932741,0.551778,-0.378456,-0.655982,-0.349299,0.348198,0.287040,-0.209126
283,1663966075,0.534512,-0.393931,-0.658346,-0.354551,-0.131594,0.120836,-0.121694
284,1663999409,0.515474,-0.408743,-0.661928,-0.359274,-0.412697,-0.069991,0.227888
285,1664032743,0.497106,-0.419431,-0.667092,-0.363264,-0.785905,-0.562477,0.102384
286,1664066077,0.479568,-0.427707,-0.673438,-0.365476,-0.976266,-0.255466,-0.008870
287,1664099411,0.462523,-0.435641,-0.680280,-0.365401,-1.005351,0.376579,0.109869
288,1664132745,0.444472,-0.445688,-0.684589,-0.367633,-1.137303,0.918372,0.284964
289,1664166079,0.426902,-0.457093,-0.685112,-0.373433,-1.439134,1.452708,0.461520
290,1664199413,0.410858,-0.468823,-0.682229,-0.382066,-1.862725,0.697372,-0.354878
291,1664232747,0.395536,-0.480057,-0.678688,-0.390498,-2.270692,0.054950,-0.569863
292,1664266081,0.384723,-0.486844,-0.677225,-0.395408,-2.552747,0.071266,0.947063
293,1664299415,0.383505,-0.487227,-0.678017,-0.394762,-2.286212,2.125814,1.118986
294,1664332749,0.391923,-0.481309,-0.675761,-0.397611,-1.521210,1.990265,1.622110
295,1664366083,0.410513,-0.467804,-0.666816,-0.409884,0.435508,2.697824,1.917615
296,1664399417,0.432062,-0.452506,-0.651087,-0.429716,1.215945,1.318494,1.426152
297,1664432751,0.444797,-0.449921,-0.625775,-0.456226,2.010673,-0.275655,1.599926
298,1664466085,0.457701,-0.450284,-0.599598,-0.477751,0.426036,-1.475904,1.497745
299,1664499419,0.481253,-0.440795,-0.579716,-0.487888,0.208696,-1.652933,1.452243
300,1664532753,0.512276,-0.421463,-0.568593,-0.486471,1.181086,-1.644778,0.482388
301,1664566087,0.541748,-0.401085,-0.558268,-0.483722,1.100591,-1.401679,-0.760189
302,1664599421,0.565384,-0.383385,-0.548699,-0.481971,0.940230,-1.166463,-1.156133
303,1664632755,0.585018,-0.367095,-0.541129,-0.479776,0.728702,-0.689478,-0.251449
304,1664666089,0.602284,-0.352049,-0.534194,-0.477453,0.786114,0.030199,-0.890185
305,1664699423,0.616016,-0.342489,-0.525089,-0.476987,-0.176457,0.188749,-1.132663
306,1664732757,0.627140,-0.333830,-0.517651,-0.476760,-0.646448,0.316641,-0.818707
307,1664766091,0.638730,-0.320676,-0.513738,-0.474630,-0.773507,-0.174574,-0.524264
308,1664799425,0.651556,-0.301126,-0.514789,-0.468828,-0.005550,0.111208,-1.146189
309,1664832759,0.661286,-0.282576,-0.518537,-0.462581,0.533064,0.621009,-1.159533
310,1664866093,0.666725,-0.271994,-0.522223,-0.456935,0.376328,0.599431,-0.884881
311,1664899427,0.669364,-0.269429,-0.525944,-0.450280,-0.228186,0.981407,-0.558608
312,1664932761,0.671496,-0.267705,-0.532053,-0.440859,-0.538052,1.105347,-0.139045
313,1664966095,0.673806,-0.263840,-0.540931,-0.428692,-1.100117,0.943135,-0.261304
314,1664999429,0.676242,-0.256859,-0.553595,-0.412628,-1.422164,1.030523,-1.049505
315,1665032763,0.676187,-0.252010,-0.569104,-0.394197,-0.950957,-0.334380,-1.786176
316,1665066097,0.674463,-0.255262,-0.578276,-0.381506,-0.625983,1.883762,10.278275
317,1665099431,0.688034,-0.236400,-0.578965,-0.368149,6.319194,-0.801545,-0.806206
318,1665132765,0.685322,-0.239319,-0.587459,-0.357718,1.164991,0.394054,-7.516250
319,1665166099,0.670159,-0.261325,-0.598463,-0.352772,1.443689,-5.930029,-1.887949
320,1665199433,0.659612,-0.269275,-0.615032,-0.337858,2.662861,-3.827286,4.812969
321,1665232767,0.657192,-0.263504,-0.628350,-0.322257,1.476297,0.701450,0.694171
322,1665266101,0.652620,-0.257149,-0.642011,-0.309504,1.387807,0.281148,-1.591352
323,1665299435,0.637938,-0.265591,-0.654499,-0.306818,0.915458,-0.215291,-0.685258
324,1665332769,0.618776,-0.281921,-0.664772,-0.309394,0.002464,-1.088840,0.716404
325,1665366103,0.602296,-0.296098,-0.673383,-0.310048,-0.630630,-1.794128,-0.192682
326,1665399437,0.586971,-0.305737,-0.682194,-0.310823,-0.851028,-1.405631,-0.378161
327,1665432771,0.576645,-0.306855,-0.691287,-0.308954,-0.370587,-0.849382,0.568034
328,1665466105,0.567387,-0.309916,-0.697930,-0.308103,-0.112507,0.196560,-0.170303
329,1665499439,0.550702,-0.323546,-0.702188,-0.314622,-0.453228,0.585332,-0.494266
330,1665532773,0.530709,-0.340628,-0.704940,-0.324638,-0.501980,-0.176631,0.014200
331,1665566107,0.514274,-0.352246,-0.708256,-0.331403,-1.027431,-1.419362,0.399768
332,1665599441,0.501323,-0.357910,-0.713217,-0.334524,-1.397765,-1.059004,-0.209585
333,1665632775,0.489458,-0.359900,-0.720756,-0.333801,-1.024198,-0.422165,-0.075057
334,1665666109,0.476535,-0.360889,-0.729768,-0.331847,-1.210695,0.361704,0.154419
335,1665699443,0.462961,-0.362718,-0.737905,-0.331070,-2.075655,1.200459,0.568830
336,1665732777,0.453336,-0.364111,-0.742961,-0.331553,-3.008229,2.210806,0.211156
337,1665766111,0.451528,-0.361990,-0.744818,-0.332176,-4.148823,1.482773,0.264391
338,1665799445,0.465125,-0.351427,-0.740647,-0.334080,-3.523553,-0.503327,2.092667
339,1665832779,0.502293,-0.324870,-0.729174,-0.332378,0.552524,2.240887,1.633617
340,1665866113,0.539761,-0.293638,-0.715309,-0.332833,0.216838,1.529224,2.726464
341,1665899447,0.563902,-0.281566,-0.694061,-0.347885,0.028246,-3.802377,1.778614
342,1665932781,0.587100,-0.270984,-0.676155,-0.353136,0.152812,-3.602027,1.295744
343,1665966115,0.617624,-0.245212,-0.666783,-0.337375,1.848128,-2.674318,2.053269
344,1665999449,0.650785,-0.208717,-0.661477,-0.308827,2.059859,-1.923717,0.013795
345,1666032783,0.677033,-0.175729,-0.656788,-0.281753,1.606626,-0.712467,-1.190905
346,1666066117,0.694996,-0.154675,-0.651393,-0.262209,1.100140,-0.635536,-1.731057
347,1666099451,0.708456,-0.139434,-0.648181,-0.241906,1.792107,-1.411769,-0.127190
348,1666132785,0.723127,-0.120542,-0.643921,-0.218934,1.302842,-0.963525,-0.131627
349,1666166119,0.737585,-0.100725,-0.637124,-0.199764,0.659468,0.175707,-0.620691
350,1666199453,0.750560,-0.083745,-0.628159,-0.187276,0.325557,1.002056,-0.772678
351,1666232787,0.761530,-0.070654,-0.619186,-0.178043,0.358092,0.846793,-0.708541
352,1666266121,0.771343,-0.061220,-0.610571,-0.168805,0.813628,0.818789,-1.472418
353,1666299455,0.778341,-0.054132,-0.604770,-0.159743,0.464179,0.222227,-2.169760
354,1666332789,0.780634,-0.050886,-0.604244,-0.151392,0.223793,-1.247618,-1.925347
355,1666366123,0.779476,-0.049220,-0.608394,-0.140925,-0.761182,-1.933444,-0.632371
356,1666399457,0.777250,-0.044278,-0.615013,-0.125266,-1.237820,-2.083802,0.874055
357,1666432791,0.775817,-0.036464,-0.620845,-0.106487,-1.151230,-1.409336,1.179584
358,1666466125,0.775022,-0.026498,-0.625522,-0.085853,-1.101992,-0.252725,-0.557142
359,1666499459,0.770935,-0.016230,-0.633037,-0.068340,-0.338536,1.239584,1.661528
360,1666532793,0.768441,-0.000878,-0.637219,-0.058809,-0.868154,1.286006,3.926841
361,1666566127,0.772777,0.015169,-0.632421,-0.051371,-0.565244,2.652103,1.305860
362,1666599461,0.770949,0.019432,-0.634771,-0.048325,2.223876,0.746352,-0.288133
363,1666632795,0.759095,0.011937,-0.649436,-0.043304,4.530780,-2.083483,-2.483195
364,1666666129,0.747515,0.005094,-0.663119,-0.038444,4.173480,-0.466698,-0.998171
365,1666699463,0.737340,0.012654,-0.674677,-0.031450,1.551661,1.646125,1.282182
366,1666732797,0.727729,0.026327,-0.684996,-0.022513,1.094205,1.511128,-0.778408
367,1666766131,0.715091,0.026485,-0.698194,-0.021864,1.582562,0.690512,-0.886343
368,1666799465,0.702839,0.016021,-0.710564,-0.029493,0.431848,0.367748,0.515946
369,1666832799,0.692117,0.004077,-0.720733,-0.038878,0.343572,-0.879332,0.459077
370,1666866133,0.681477,-0.003733,-0.730416,-0.045576,0.893017,-1.063930,-0.142548
371,1666899467,0.671691,-0.007709,-0.739121,-0.049819,1.372526,-1.296705,-0.047530
372,1666932801,0.663569,-0.008841,-0.746210,-0.052717,1.033392,-0.714885,0.106921
373,1666966135,0.655541,-0.010234,-0.753027,-0.055871,0.377314,0.551233,-0.167559
374,1666999469,0.645988,-0.016838,-0.760407,-0.064856,-0.202527,0.719150,-0.348021
375,1667032803,0.634768,-0.028213,-0.768283,-0.077612,0.134186,0.126201,0.244263
376,1667066137,0.622802,-0.041442,-0.775746,-0.092884,0.445609,-0.981922,0.137764
377,1667099471,0.612341,-0.049770,-0.782100,-0.104355,0.238950,-1.448887,0.107775
378,1667132805,0.602465,-0.054565,-0.788262,-0.112744,0.048949,-1.157619,-0.473390
379,1667166139,0.591178,-0.056921,-0.795543,-0.119957,-0.372434,-0.578187,0.009441
380,1667199473,0.579661,-0.058079,-0.802841,-0.126793,-0.968717,-0.661851,-0.000288
381,1667232807,0.568185,-0.060018,-0.809596,-0.134641,-1.203011,-1.071422,-0.066956
382,1667266141,0.557569,-0.061701,-0.815418,-0.142874,-1.629933,-1.372545,-0.172652
383,1667299475,0.548532,-0.061489,-0.820446,-0.149027,-1.562997,-2.498385,0.589168
384,1667332809,0.546202,-0.055487,-0.822592,-0.148111,-1.650451,-2.148668,2.625322
385,1667366143,0.553877,-0.043764,-0.819812,-0.138643,-2.805378,-0.540391,2.584731
386,1667399477,0.569278,-0.034793,-0.810839,-0.131383,-1.894873,-0.227360,0.982517
387,1667432811,0.593415,-0.029188,-0.793737,-0.130376,-1.744409,1.503156,-0.285889
388,1667466145,0.623408,-0.023039,-0.770828,-0.129098,-1.585454,1.193614,0.268483
389,1667499479,0.650275,-0.027986,-0.747375,-0.133414,1.674910,-1.174463,2.776928
390,1667532813,0.677253,-0.024100,-0.724386,-0.126575,3.089082,-1.304779,2.280602
391,1667566147,0.704167,-0.008707,-0.702007,-0.106154,2.175669,-0.662241,1.403478
392,1667599481,0.727384,0.010892,-0.681435,-0.080315,1.999368,0.614780,0.084631
393,1667632815,0.746235,0.025378,-0.662676,-0.057962,1.423855,1.248523,-1.091107
394,1667666149,0.761559,0.036140,-0.645880,-0.039630,1.399157,0.750113,-1.466477
395,1667699483,0.774208,0.048436,-0.630681,-0.022527,1.121753,0.786626,-2.283462
396,1667732817,0.783361,0.061606,-0.618463,-0.007994,0.702290,1.203950,-2.411535
397,1667766151,0.788346,0.068243,-0.611440,-0.001895,0.589875,1.493039,-2.107106
398,1667799485,0.790884,0.070323,-0.607920,0.000236,0.164439,1.079527,-1.549940
399,1667832819,0.791558,0.070871,-0.606979,-0.000280,-0.418183,0.513172,-0.835268
400,1667866153,0.791016,0.073189,-0.607408,-0.001414,-1.692464,-1.326734,-0.525831
401,1667899487,0.789169,0.075147,-0.609569,0.000117,-2.751259,-2.040248,1.155930
402,1667932821,0.787624,0.078628,-0.611046,0.009925,-1.006406,-2.117888,2.109756
403,1667966155,0.787256,0.082757,-0.610593,0.023775,0.254000,-0.884517,0.390732
404,1667999489,0.785961,0.094238,-0.609623,0.041869,-0.562204,-0.000248,-2.117838
405,1668032823,0.778575,0.106841,-0.615912,0.055382,-0.351660,1.193323,0.861653
406,1668066157,0.774246,0.118921,-0.618751,0.059654,-0.403745,2.862229,7.776674
407,1668099491,0.774823,0.131480,-0.614678,0.067402,2.015397,4.457364,-2.044724
408,1668132825,0.762969,0.123904,-0.631221,0.063993,2.240969,0.829579,-5.663789
409,1668166159,0.748373,0.104324,-0.652774,0.054314,4.959159,-0.876973,-1.372714
410,1668199493,0.735125,0.094655,-0.669502,0.049072,3.248581,0.098904,2.813181
411,1668232827,0.726722,0.100560,-0.677528,0.052239,0.489279,0.826600,0.183251
412,1668266161,0.717203,0.105681,-0.686759,0.053134,1.007753,1.215708,-1.355427
413,1668299495,0.705338,0.099450,-0.700556,0.042895,0.955695,0.644165,0.061603
414,1668332829,0.693457,0.090061,-0.714190,0.030785,0.951652,0.050165,0.187456
415,1668366163,0.680482,0.081615,-0.727996,0.017741,1.206942,-0.789891,-0.534887
416,1668399497,0.666339,0.076680,-0.741680,0.005789,1.800117,-1.207179,-0.083582
417,1668432831,0.654484,0.080430,-0.751791,0.001076,1.430527,-0.482431,0.315399
418,1668466165,0.644186,0.083459,-0.760303,-0.002782,-0.228895,-0.603139,-0.121314
419,1668499499,0.634122,0.081731,-0.768852,-0.009248,-0.971639,-0.729282,0.247271
420,1668532833,0.625184,0.076191,-0.776562,-0.017353,-0.916573,-0.495698,0.402399
421,1668566167,0.618632,0.067803,-0.782253,-0.028041,-0.695246,-1.193013,0.060132
422,1668599501,0.613029,0.060720,-0.786823,-0.037787,-0.355041,-1.731486,-0.084218
423,1668632835,0.608136,0.056048,-0.790624,-0.044187,-0.694532,-1.081795,-0.345160
424,1668666169,0.602349,0.049456,-0.794896,-0.053665,-1.231370,-1.337081,-0.733647
425,1668699503,0.594650,0.040556,-0.800109,-0.067682,-1.166175,-2.129583,-0.286757
426,1668732837,0.590125,0.036199,-0.802811,-0.077113,-0.841288,-1.949792,0.099947
427,1668766171,0.592564,0.042513,-0.800651,-0.077635,-1.382472,-1.642627,3.539846
428,1668799505,0.607042,0.055395,-0.789752,-0.068801,-1.265959,-2.220330,2.963049
429,1668832839,0.630470,0.066177,-0.771059,-0.060037,-1.757831,0.449183,0.591626
430,1668866173,0.659170,0.076309,-0.746117,-0.054687,-1.577348,1.040082,0.382045
431,1668899507,0.684671,0.072614,-0.722992,-0.056962,2.196794,0.458635,1.848612
432,1668932841,0.705354,0.069581,-0.703506,-0.052182,3.872070,-0.267197,1.289464
433,1668966175,0.723122,0.080141,-0.685304,-0.032246,3.752094,-0.641647,1.134695
434,1668999509,0.736968,0.105350,-0.667674,0.001178,2.291365,1.026428,-0.289538
435,1669032843,0.746195,0.127467,-0.652571,0.033231,1.220010,1.760593,-1.669695
436,1669066177,0.751847,0.140328,-0.641593,0.058324,1.417081,1.363147,-1.463984
437,1669099511,0.756554,0.151772,-0.630882,0.081177,1.045157,0.547426,-0.285282
438,1669132845,0.761070,0.166479,-0.618214,0.104298,-0.089712,1.193536,-0.000516
439,1669166179,0.766296,0.177150,-0.605306,0.122571,-0.221780,0.923629,-0.651719
440,1669199513,0.771733,0.183715,-0.593781,0.134576,0.038534,0.770944,-0.600554
441,1669232847,0.776290,0.189061,-0.584206,0.142628,0.074961,0.483616,-0.412996
442,1669266181,0.778906,0.196950,-0.576145,0.150277,0.018634,0.583361,-1.221522
443,1669299515,0.778943,0.205492,-0.570965,0.158202,-0.117448,-0.046497,-1.816354
444,1669332849,0.775842,0.211791,-0.571028,0.164772,-0.256596,-0.577531,-1.231901
445,1669366183,0.771090,0.216515,-0.573958,0.170654,-0.255837,-1.143769,0.209507
446,1669399517,0.767169,0.222332,-0.574587,0.178551,-0.285573,-1.461321,1.264222
447,1669432851,0.763444,0.229388,-0.572992,0.190327,-0.621680,-1.167707,0.940039
448,1669466185,0.758569,0.233757,-0.573045,0.203862,-1.011284,-0.592795,-0.711350
449,1669499519,0.751403,0.240614,-0.575412,0.215429,-0.825857,0.402925,1.050550
450,1669532853,0.746774,0.248313,-0.574902,0.223981,-0.573537,-0.711669,2.516377
451,1669566187,0.745725,0.255052,-0.570068,0.232109,0.049823,0.573405,3.066121
452,1669599521,0.743445,0.255891,-0.571271,0.235518,-0.361731,4.425683,-3.496976
453,1669632855,0.731791,0.253139,-0.588473,0.232618,2.455218,1.250519,-2.598755
454,1669666189,0.719910,0.246791,-0.607232,0.228260,3.899679,2.089640,1.100383
455,1669699523,0.708589,0.250634,-0.618223,0.229986,1.274098,1.712660,1.108119
456,1669732857,0.698549,0.257252,-0.625930,0.232534,0.151745,1.356938,-0.623561
457,1669766191,0.688941,0.261189,-0.636369,0.228440,0.965584,1.558658,-0.456062
458,1669799525,0.680477,0.261714,-0.648188,0.219816,0.820028,0.639742,0.295539
459,1669832859,0.672669,0.259359,-0.660490,0.209789,0.467407,-0.013972,0.137913
460,1669866193,0.664760,0.255790,-0.673185,0.198737,0.978343,-0.609163,-0.090112
461,1669899527,0.656984,0.255593,-0.683684,0.188760,1.482530,-0.826599,-0.081889
462,1669932861,0.649948,0.260923,-0.689910,0.183086,1.209449,-0.800366,-0.039686
463,1669966195,0.642494,0.269617,-0.693871,0.181825,1.060960,-0.576213,-0.166418
464,1669999529,0.634641,0.277268,-0.698262,0.181087,1.063527,-0.508515,-0.190557
465,1670032863,0.626579,0.282377,-0.704152,0.178440,0.701403,-0.298973,-0.105788
466,1670066197,0.618898,0.286092,-0.710496,0.174133,0.439979,-0.235983,0.234215
467,1670099531,0.611461,0.289491,-0.716954,0.168220,0.401007,0.017588,0.166431
468,1670132865,0.604062,0.292862,-0.723491,0.160970,0.496353,0.071917,0.043335
469,1670166199,0.596226,0.296835,-0.729994,0.153368,0.269277,-0.019268,0.123978
470,1670199533,0.589194,0.299884,-0.736554,0.142894,0.197262,-0.435233,0.062579
471,1670232867,0.583344,0.300483,-0.743435,0.129362,0.339610,-0.783237,0.036325
472,1670266201,0.577903,0.300915,-0.749565,0.116789,0.177487,-1.330317,0.147926
473,1670299535,0.573476,0.301662,-0.754305,0.105637,0.338207,-1.962327,-0.144512
474,1670332869,0.570536,0.303790,-0.756945,0.096151,0.524922,-2.310584,0.260902
475,1670366203,0.569737,0.306440,-0.757234,0.090004,0.147835,-2.766222,1.026289
476,1670399537,0.572851,0.310259,-0.753045,0.092267,0.533489,-2.852982,1.575153
477,1670432871,0.583284,0.315074,-0.741399,0.104140,-0.063843,-1.959926,1.679497
478,1670466205,0.600085,0.320767,-0.722236,0.124063,-1.698155,-0.905082,1.171076
479,1670499539,0.622369,0.320002,-0.699891,0.142892,-0.679782,-0.577544,1.048218
480,1670532873,0.645713,0.307267,-0.681872,0.153956,1.774912,0.783401,1.167213
481,1670566207,0.664199,0.299520,-0.662962,0.172101,2.453617,1.355629,2.154242
482,1670599541,0.676042,0.306759,-0.637449,0.206241,2.241702,1.093923,1.642087
483,1670632875,0.681294,0.322474,-0.609072,0.246757,0.755698,1.666896,-0.326118
484,1670666209,0.683845,0.332721,-0.586128,0.279493,0.006471,2.002512,-1.167639
485,1670699543,0.686559,0.334592,-0.569295,0.304300,0.273565,2.210026,-0.625561
486,1670732877,0.688617,0.335870,-0.552953,0.327490,0.520731,1.722016,-0.118182
487,1670766211,0.689128,0.340994,-0.534294,0.351233,-0.208232,1.487096,-0.686599
488,1670799545,0.691269,0.343826,-0.518060,0.368177,-0.921256,1.135425,-1.584481
489,1670832879,0.696460,0.340507,-0.507795,0.375703,-1.392301,0.782888,-1.502747
490,1670866213,0.701832,0.335246,-0.501350,0.379076,-0.921646,-0.012027,-1.043803
491,1670899547,0.703873,0.333685,-0.496945,0.382455,-0.073747,-0.314375,-1.920022
492,1670932881,0.703771,0.334479,-0.495527,0.383786,0.401730,-0.183373,-1.866172
493,1670966215,0.701575,0.332870,-0.500202,0.383141,0.333161,-0.323261,-0.943103
494,1670999549,0.695459,0.330172,-0.509339,0.384587,0.900403,-1.943675,0.916078
495,1671032883,0.684035,0.333734,-0.517039,0.391661,2.406224,-1.726517,0.935001
496,1671066217,0.669806,0.346480,-0.520033,0.401107,0.911048,-0.044210,-0.740971
497,1671099551,0.651367,0.371844,-0.518989,0.410015,-0.168161,1.507673,0.116134
498,1671132885,0.637093,0.396141,-0.520319,0.407998,-4.347899,1.890312,4.101254
499,1671166219,0.633631,0.410837,-0.516051,0.404259,-4.184604,-0.363410,5.497386
500,1671199553,0.626703,0.420891,-0.517621,0.402707,-0.664364,1.364398,-2.196252
501,1671232887,0.613310,0.420844,-0.542328,0.390680,2.369740,3.435166,-5.743301
502,1671266221,0.606923,0.412195,-0.572171,0.366565,3.877326,3.526072,0.212284
503,1671299555,0.604422,0.412126,-0.584592,0.350838,1.084541,2.074780,2.125834
504,1671332889,0.593788,0.423224,-0.587423,0.351056,-2.400836,0.226120,-0.449819
505,1671366223,0.586010,0.423603,-0.599885,0.342489,-1.107116,0.533715,-0.389145
506,1671399557,0.587985,0.409217,-0.620099,0.319846,0.752219,1.204393,0.322192
507,1671432891,0.591279,0.391333,-0.639452,0.297253,1.838078,0.373361,0.417054
508,1671466225,0.590412,0.380031,-0.653679,0.282319,1.510281,0.548847,-0.001518
509,1671499559,0.588324,0.375374,-0.661966,0.273457,1.437533,0.886798,-0.021880
510,1671532893,0.585720,0.375109,-0.666819,0.267558,0.619928,0.793190,-0.227328
511,1671566227,0.581973,0.376518,-0.671770,0.261299,-0.214641,0.337284,-0.338551
512,1671599561,0.577546,0.376561,-0.679347,0.251276,-0.456767,-0.203644,-0.024465
513,1671632895,0.574105,0.373909,-0.688381,0.238194,0.057088,-1.024535,0.405725
514,1671666229,0.572167,0.368749,-0.697767,0.223117,0.516935,-1.323223,0.008464
515,1671699563,0.569689,0.365291,-0.705503,0.210457,1.490377,-1.308937,0.113340
516,1671732897,0.566298,0.365054,-0.710420,0.203358,1.241486,-1.266523,-0.299823
517,1671766231,0.563551,0.365169,-0.714659,0.195788,0.416910,-1.070249,-0.440093
518,1671799565,0.561494,0.363740,-0.720080,0.184152,0.018178,-0.931930,-0.240959
519,1671832899,0.559736,0.360418,-0.726635,0.169725,0.398498,-1.143833,-0.342513
520,1671866233,0.558367,0.356694,-0.732705,0.155396,1.343923,-1.534275,-0.555779
521,1671899567,0.557796,0.357327,-0.734715,0.146233,1.631339,-1.645730,0.851461
522,1671932901,0.558457,0.363278,-0.731194,0.146694,0.132594,-1.900682,2.738573
523,1671966235,0.562322,0.368951,-0.723584,0.155258,0.374256,-2.331002,2.879818
524,1671999569,0.574848,0.367501,-0.711924,0.166332,-0.509612,-1.047211,1.861857
525,1672032903,0.593403,0.366162,-0.692447,0.185271,-2.648029,-0.429832,0.738729
526,1672066237,0.618341,0.356286,-0.670677,0.202279,-1.691240,0.363544,0.573533
527,1672099571,0.643968,0.337800,-0.652884,0.212012,0.470482,1.603001,1.773620
528,1672132905,0.664931,0.322412,-0.634619,0.226241,2.244536,2.058003,1.747681
529,1672166239,0.678273,0.316842,-0.614113,0.249864,2.777861,1.693920,0.896270
530,1672199573,0.683542,0.321631,-0.592768,0.279210,0.845000,1.297745,-0.824028
531,1672232907,0.682987,0.330893,-0.573734,0.308021,-0.025319,1.224958,-1.283328
532,1672266241,0.681222,0.338824,-0.556381,0.334042,0.375118,1.498287,-0.845107
533,1672299575,0.679091,0.344346,-0.541742,0.356072,0.049448,1.329895,-1.391601
534,1672332909,0.676658,0.350374,-0.528245,0.374618,-0.515941,0.732116,-1.195034
535,1672366243,0.675897,0.353494,-0.518217,0.386866,-0.780969,0.650917,-0.752008
536,1672399577,0.678167,0.351906,-0.510248,0.394851,-0.885582,0.273558,-0.396098
537,1672432911,0.681465,0.350023,-0.501792,0.401626,-0.751899,-0.365628,-0.163370
538,1672466245,0.684542,0.347987,-0.494307,0.407403,-0.027710,-0.776872,-0.157761
539,1672499579,0.686752,0.344819,-0.487847,0.414109,0.523531,-1.184790,-1.068880
540,1672532913,0.684841,0.343233,-0.484938,0.421934,0.915150,-0.970993,-1.555719
541,1672566247,0.678621,0.346462,-0.483699,0.430677,1.040891,-0.352194,-1.162724
542,1672599581,0.669722,0.354884,-0.482786,0.438699,0.588256,-0.278896,-1.169188
543,1672632915,0.656934,0.369877,-0.482828,0.445550,-0.425610,-0.339859,-1.555817
544,1672666249,0.640879,0.387827,-0.486088,0.450102,-0.520386,0.015106,-0.406532
545,1672699583,0.628991,0.402392,-0.489008,0.450923,-1.406612,0.651279,8.485804
546,1672732917,0.627196,0.410134,-0.480134,0.455957,-2.501790,1.259845,6.273533
547,1672766251,0.626149,0.410022,-0.480284,0.457335,-3.528116,1.642211,-7.422993
548,1672799585,0.617412,0.411126,-0.501105,0.445735,1.742848,2.825115,-4.534306
549,1672832919,0.613452,0.399906,-0.530900,0.426505,3.922751,3.746573,2.666764
550,1672866253,0.607741,0.403430,-0.539121,0.421014,0.746410,1.567048,1.773618
551,1672899587,0.597384,0.415556,-0.539159,0.423985,-0.963199,0.956438,-1.526842
552,1672932921,0.589237,0.420569,-0.551297,0.414733,-0.337997,1.602225,-0.456032
553,1672966255,0.584802,0.419761,-0.568755,0.397914,0.316375,1.102174,0.626644
554,1672999589,0.579611,0.420086,-0.583935,0.382894,0.845057,0.427953,-0.032074
555,1673032923,0.573347,0.424305,-0.594945,0.370524,1.345491,0.163883,-0.335825
556,1673066257,0.566903,0.431268,-0.601462,0.361775,1.147953,0.124858,-0.207791
557,1673099591,0.562628,0.435833,-0.607561,0.352672,0.438805,-0.749858,0.171055
558,1673132925,0.560431,0.435504,-0.616541,0.340794,0.265380,-0.899015,-0.201658
559,1673166259,0.557807,0.433185,-0.627384,0.328024,0.505340,-0.715589,-0.229310
560,1673199593,0.555609,0.432187,-0.636412,0.315440,0.615294,-0.196439,0.144711
561,1673232927,0.553350,0.433092,-0.643637,0.303274,1.068405,-0.033565,0.095168
562,1673266261,0.549148,0.434961,-0.651092,0.292121,0.463491,-0.298140,-0.093803
563,1673299595,0.543657,0.437149,-0.660124,0.278538,-0.038923,-0.571433,-0.076344
564,1673332929,0.539598,0.436995,-0.670636,0.261011,-0.128456,-0.852579,0.062766
565,1673366263,0.537918,0.433015,-0.681753,0.241588,0.549691,-1.574447,0.082955
566,1673399597,0.537929,0.428747,-0.689686,0.226166,1.288103,-2.521470,0.942031
567,1673432931,0.541571,0.425694,-0.690575,0.220455,0.755960,-2.574640,2.152618
568,1673466265,0.550318,0.422094,-0.684735,0.223906,0.914785,-2.359883,2.531844
569,1673499599,0.566044,0.418005,-0.669635,0.237621,-1.613002,-1.212307,0.842873
570,1673532933,0.589270,0.412519,-0.646066,0.255337,-3.623208,-0.650442,0.291853
571,1673566267,0.619272,0.391486,-0.629877,0.257886,-1.815660,1.474452,1.891674
572,1673599601,0.646627,0.359851,-0.621912,0.256155,2.344043,2.169092,2.063430
573,1673632935,0.661403,0.341636,-0.610179,0.271148,3.463305,1.217414,0.854974
574,1673666269,0.665219,0.345284,-0.587970,0.304241,3.073368,0.991864,0.175435
575,1673699603,0.661865,0.358611,-0.562959,0.341203,0.543474,1.061656,-1.038911
576,1673732937,0.655269,0.369219,-0.543012,0.373425,-0.527032,1.527240,-1.493443
577,1673766271,0.649325,0.372462,-0.528671,0.400207,-0.252822,1.519279,-0.947099
578,1673799605,0.642892,0.376226,-0.513536,0.425952,0.005804,1.287904,-0.257805
579,1673832939,0.637399,0.379392,-0.499012,0.448085,-0.793821,0.711694,-0.472454
580,1673866273,0.634436,0.379083,-0.489231,0.463088,-1.545885,0.553390,-0.575887
581,1673899607,0.634488,0.378178,-0.480211,0.473089,-1.480721,0.114071,-1.378145
582,1673932941,0.635843,0.379805,-0.470022,0.480147,-1.416273,-0.035245,-1.673222
583,1673966275,0.637154,0.381578,-0.463334,0.483491,-1.153043,-0.505568,-1.743750
584,1673999609,0.636168,0.384100,-0.462400,0.483687,0.259426,-1.047256,-1.651904
585,1674032943,0.632034,0.387555,-0.465821,0.483068,1.840468,-1.555848,-0.845839
586,1674066277,0.623285,0.394934,-0.468702,0.485666,2.204429,-1.196776,0.299253
587,1674099611,0.612508,0.406964,-0.470111,0.488077,1.395241,-0.739424,0.855283
588,1674132945,0.601640,0.421995,-0.468358,0.490511,-0.297958,-0.512695,0.035488
589,1674166279,0.591087,0.440740,-0.468453,0.486751,-3.216684,0.914951,3.970860
590,1674199613,0.586819,0.454222,-0.465322,0.482504,-2.241095,-0.505082,5.598628
591,1674232947,0.584990,0.460680,-0.464133,0.479740,-1.640320,-0.067258,-0.464281
592,1674266281,0.581156,0.462976,-0.479813,0.466584,0.327294,2.937386,-2.915814
593,1674299615,0.573952,0.463502,-0.503011,0.450259,2.255959,5.036660,-1.506589
594,1674332949,0.568541,0.464863,-0.520557,0.435538,0.782459,2.834476,0.101148
595,1674366283,0.559841,0.475750,-0.526564,0.427762,-0.919280,1.440736,-0.673409
596,1674399617,0.549667,0.484596,-0.536848,0.418134,-1.147330,1.142287,-0.367352
597,1674432951,0.546219,0.483422,-0.552987,0.402695,0.334643,0.592339,0.665397
598,1674466285,0.547044,0.475736,-0.568969,0.388203,0.192255,0.105824,0.599309
599,1674499619,0.548638,0.465986,-0.585306,0.373201,0.597175,0.551497,-0.267343
600,1674532953,0.547932,0.460094,-0.598079,0.361101,1.167078,1.197493,0.121697
601,1674566287,0.547599,0.458176,-0.604910,0.352565,0.863625,0.330445,0.051528
602,1674599621,0.546010,0.457675,-0.610999,0.345104,-0.039227,0.141213,-0.300516
603,1674632955,0.545446,0.455690,-0.619206,0.333809,-0.187722,-0.137209,-0.477291
604,1674666289,0.544996,0.452136,-0.630599,0.317658,0.353262,-0.135303,-0.152752
605,1674699623,0.543569,0.450561,-0.640761,0.301599,0.884883,-0.351135,0.016483
606,1674732957,0.540509,0.451911,-0.648789,0.287593,1.390986,-0.374133,-0.145700
607,1674766291,0.535367,0.455455,-0.655492,0.276192,1.495325,-0.873774,-0.115841
608,1674799625,0.530978,0.457751,-0.661989,0.265155,0.869790,-1.266156,0.043785
609,1674832959,0.529121,0.456780,-0.668929,0.252837,0.014850,-1.695356,-0.293333
610,1674866293,0.530962,0.451978,-0.676476,0.237034,0.491003,-1.466787,0.216006
611,1674899627,0.535898,0.446139,-0.680761,0.224383,0.827050,-1.505714,2.064333
612,1674932961,0.543088,0.443511,-0.676609,0.224863,0.525033,-2.681245,2.068611
613,1674966295,0.557224,0.436260,-0.668003,0.230131,1.830830,-1.394507,1.281947
614,1674999629,0.576403,0.426580,-0.653090,0.243458,-1.611959,-1.054421,0.055066
615,1675032963,0.599524,0.417967,-0.629211,0.264533,-2.877362,-0.532958,0.676429
616,1675066297,0.625493,0.396872,-0.612310,0.276293,-0.918153,1.601857,2.398791
617,1675099631,0.647808,0.368523,-0.603081,0.284320,1.351339,2.359697,2.001237
618,1675132965,0.659889,0.349634,-0.593514,0.300087,2.295533,1.476416,0.781515
619,1675166299,0.662046,0.349762,-0.575693,0.328556,1.537449,0.788654,-0.230211
620,1675199633,0.657829,0.360096,-0.554596,0.360589,0.000025,1.254640,-0.977592
621,1675232967,0.652890,0.368530,-0.535994,0.388123,-0.788228,1.462956,-0.910974
622,1675266301,0.647944,0.372815,-0.522215,0.410461,-0.263198,1.123557,-0.543923
623,1675299635,0.642243,0.378126,-0.508049,0.431788,-0.341931,0.976040,-0.385212
624,1675332969,0.637670,0.381283,-0.495976,0.449463,-0.645841,0.657068,-0.980854
625,1675366303,0.634794,0.381038,-0.488068,0.462219,-0.767846,0.211145,-1.095740
626,1675399637,0.633614,0.381043,-0.480286,0.471884,-0.749098,-0.077065,-1.382417
627,1675432971,0.632356,0.383377,-0.472283,0.479694,-0.665082,-0.147898,-0.973176
628,1675466305,0.630199,0.386903,-0.466526,0.485302,-0.500244,-0.606218,-0.845601
629,1675499639,0.626342,0.390825,-0.464243,0.489326,-0.031291,-1.198352,-0.754730
630,1675532973,0.621579,0.393997,-0.466174,0.491017,0.708712,-2.003273,-0.465809
631,1675566307,0.616088,0.398340,-0.466654,0.493968,1.352306,-1.352022,0.703674
632,1675599641,0.607671,0.406430,-0.463010,0.501180,0.701663,-1.133698,0.591336
633,1675632975,0.596491,0.419663,-0.457370,0.508825,-0.011845,-0.399857,-0.710415
634,1675666309,0.586425,0.432613,-0.456682,0.510296,-1.102688,0.494124,0.925443
635,1675699643,0.583587,0.437816,-0.455614,0.510067,-2.445472,-1.015132,7.862331
636,1675732977,0.581842,0.440821,-0.448485,0.515760,-3.025539,3.891739,-2.014194
637,1675766311,0.576091,0.443228,-0.463058,0.507203,-0.771032,2.839773,-5.489964
638,1675799645,0.573613,0.439196,-0.486177,0.491646,1.293746,4.345373,-1.181534
639,1675832979,0.568550,0.440974,-0.499939,0.482041,0.456949,3.378490,2.682827
640,1675866313,0.561491,0.447600,-0.503977,0.479999,-1.489715,1.522144,0.009275
641,1675899647,0.556871,0.449105,-0.516701,0.470350,-1.615844,1.543079,-1.200769
642,1675932981,0.557384,0.442034,-0.541077,0.448525,-0.754291,1.312630,0.186775
643,1675966315,0.558825,0.433137,-0.565310,0.424902,0.703750,1.125632,0.379152
644,1675999649,0.559598,0.426164,-0.585795,0.402601,1.721667,0.408889,-0.143707
645,1676032983,0.557782,0.425884,-0.598691,0.386111,1.695420,0.271790,0.013613
646,1676066317,0.555389,0.428892,-0.606945,0.373124,0.887707,-0.555315,0.010322
647,1676099651,0.553342,0.430235,-0.616527,0.358628,0.317304,-1.179071,0.191888
648,1676132985,0.551572,0.430042,-0.627028,0.343042,0.232311,-1.289669,-0.056396
649,1676166319,0.550275,0.429260,-0.637177,0.327031,0.894221,-0.746846,-0.276902
650,1676199653,0.548107,0.429906,-0.645122,0.313985,1.396596,-0.389799,-0.191119
651,1676232987,0.544200,0.433101,-0.651148,0.303786,0.739377,-0.627319,0.131160
652,1676266321,0.540178,0.436618,-0.657302,0.292465,0.013586,-0.390398,-0.087724
653,1676299655,0.537287,0.437981,-0.665843,0.275968,-0.210330,-0.329190,-0.107299
654,1676332989,0.535862,0.437113,-0.675756,0.255240,-0.244732,-0.976367,0.212114
655,1676366323,0.534801,0.436361,-0.684525,0.234548,0.503001,-1.826282,0.175092
656,1676399657,0.535048,0.435866,-0.690862,0.215551,2.026017,-2.288509,1.050878
657,1676432991,0.536644,0.436593,-0.691433,0.208156,1.863282,-2.800538,1.704445
658,1676466325,0.542114,0.437340,-0.684706,0.214552,0.702487,-2.653971,1.592933
659,1676499659,0.556240,0.433413,-0.671431,0.227903,-1.701158,-1.885833,0.499350
660,1676532993,0.579470,0.424829,-0.651306,0.244017,-2.726993,-1.052525,0.617940
661,1676566327,0.608596,0.402127,-0.635643,0.252730,-0.748635,1.099484,2.225417
662,1676599661,0.633071,0.375273,-0.623433,0.264069,1.470841,2.283626,2.926468
663,1676632995,0.647434,0.361930,-0.603414,0.292810,2.118013,2.062814,1.771812
664,1676666329,0.653361,0.363371,-0.574673,0.332927,1.777437,1.721608,0.654735
665,1676699663,0.653700,0.369951,-0.546657,0.370119,0.248407,1.383682,-0.613210
666,1676732997,0.649560,0.375568,-0.525064,0.401668,-0.725625,1.832864,-1.518084
667,1676766331,0.643071,0.379705,-0.508049,0.429161,-0.688886,1.687514,-1.586648
668,1676799665,0.635139,0.385806,-0.489949,0.455754,0.018555,1.584940,-1.373573
669,1676832999,0.628623,0.388959,-0.476294,0.476128,-0.618487,0.773533,-1.667723
670,1676866333,0.624031,0.389107,-0.469953,0.488196,-1.106565,-0.051130,-1.791622
671,1676899667,0.620146,0.391565,-0.465391,0.495497,-1.182636,-0.245425,-1.569869
672,1676933001,0.616064,0.397499,-0.460262,0.500628,-1.040254,-0.600413,-1.339695
673,1676966335,0.611390,0.403971,-0.456495,0.504611,0.156418,-2.245755,-0.314943
674,1676999669,0.606705,0.408075,-0.457166,0.506352,1.707212,-3.456087,0.333428
675,1677033003,0.600569,0.412295,-0.458581,0.508961,1.755567,-2.070635,0.641914
676,1677066337,0.591313,0.421681,-0.456811,0.513681,0.683925,-0.571816,0.790005
677,1677099671,0.583049,0.431895,-0.449583,0.520966,-0.231751,0.309554,0.022264
678,1677133005,0.578147,0.442264,-0.441413,0.524702,-2.374248,0.022547,6.201702
679,1677166339,0.579248,0.447369,-0.426206,0.531686,-2.973654,1.835024,2.991386
680,1677199673,0.572805,0.454314,-0.432296,0.527848,-2.341788,1.769671,-6.778495
681,1677233007,0.567302,0.453293,-0.460048,0.510939,1.787916,4.452036,-2.757678
682,1677266341,0.561555,0.452840,-0.483365,0.495944,1.136916,3.729594,3.005991
683,1677299675,0.553307,0.460986,-0.487893,0.493268,-1.168419,1.220969,0.808557
684,1677333009,0.545949,0.469051,-0.494159,0.487593,-2.069318,1.138569,-1.312921
685,1677366343,0.545175,0.469505,-0.512295,0.468949,-0.835402,1.345799,-0.533396
686,1677399677,0.546238,0.465964,-0.534239,0.446206,0.791075,1.865759,0.533155
687,1677433011,0.545276,0.463838,-0.552520,0.426918,1.227682,0.956441,-0.000883
688,1677466345,0.542861,0.464804,-0.567159,0.409389,1.164964,0.724076,-0.332457
689,1677499679,0.538968,0.470176,-0.576531,0.395055,1.126368,0.253076,0.235864
690,1677533013,0.534947,0.476922,-0.581786,0.384592,0.684792,-0.445240,0.203131
691,1677566347,0.531850,0.481058,-0.587233,0.375348,0.353318,-1.007213,-0.224183
692,1677599681,0.529559,0.481916,-0.596072,0.363362,0.205101,-0.959581,-0.095015
693,1677633015,0.528974,0.481221,-0.605877,0.348621,0.791748,-0.635207,0.071981
694,1677666349,0.528012,0.480600,-0.615967,0.332897,0.925201,-0.364768,-0.099234
695,1677699683,0.525420,0.482910,-0.624310,0.317769,0.370657,-0.434005,-0.208122
696,1677733017,0.522139,0.486290,-0.632382,0.301655,0.242510,-0.735039,-0.179286
697,1677766351,0.519836,0.487622,-0.641367,0.283995,0.797233,-0.964175,-0.033889
698,1677799685,0.518551,0.488098,-0.648639,0.268592,0.972706,-1.512522,0.073663
699,1677833019,0.518507,0.488346,-0.652654,0.258305,2.025474,-2.187252,1.355773
700,1677866353,0.520167,0.488548,-0.651213,0.258221,1.301878,-2.537097,2.373164
701,1677899687,0.524539,0.489615,-0.642874,0.268063,0.854481,-2.325322,2.018380
702,1677933021,0.536422,0.486754,-0.628823,0.282689,-0.623099,-1.632226,0.161142
703,1677966355,0.554727,0.480915,-0.607983,0.302266,-2.308464,-1.326461,0.015544
704,1677999689,0.579407,0.463375,-0.590206,0.318177,-1.238709,0.721843,2.028776
705,1678033023,0.601657,0.439041,-0.577762,0.333845,1.452691,2.227731,2.465794
706,1678066357,0.612612,0.423611,-0.562369,0.359181,2.520978,2.541892,1.479882
707,1678099691,0.613523,0.420674,-0.539233,0.394791,2.275160,1.864926,0.678904
708,1678133025,0.605976,0.425923,-0.513081,0.433752,-0.141009,1.463849,-0.169225
709,1678166359,0.595232,0.431019,-0.489251,0.469643,-1.114749,1.579226,-1.232748
710,1678199693,0.584961,0.432757,-0.471084,0.498630,-0.793062,1.301918,-1.475228
711,1678233027,0.574813,0.435314,-0.454344,0.523138,-1.013427,1.151106,-1.329266
712,1678266361,0.564954,0.439693,-0.438395,0.543431,-1.411622,0.552598,-1.474449
713,1678299695,0.558153,0.443682,-0.427532,0.555731,-1.957956,0.289852,-1.546534
714,1678333029,0.555015,0.446911,-0.418930,0.562793,-1.773811,-0.296456,-1.982878
715,1678366363,0.553312,0.452150,-0.412093,0.565328,-1.361969,-0.882971,-1.586446
716,1678399697,0.552037,0.460054,-0.404919,0.565381,0.335479,-1.868208,-0.668720
717,1678433031,0.549158,0.468182,-0.398630,0.565981,2.551446,-2.621761,0.961745
718,1678466365,0.544481,0.474163,-0.397021,0.566651,1.908064,-1.571719,1.131452
719,1678499699,0.539779,0.478414,-0.398690,0.566405,0.157357,0.132276,0.179399
720,1678533033,0.538425,0.481166,-0.396320,0.567025,-1.381350,-0.132359,1.955233
721,1678566367,0.539777,0.484808,-0.383674,0.571320,-2.274783,2.442907,8.895117
722,1678599701,0.532579,0.491001,-0.379779,0.575374,-3.196228,2.422815,-5.812408
723,1678633035,0.525980,0.495376,-0.404006,0.561014,-0.152648,3.292743,-5.040385
724,1678666369,0.520955,0.497556,-0.432103,0.542531,-0.084780,3.748158,1.939338
725,1678699703,0.514022,0.506967,-0.437731,0.535879,-0.458373,0.889517,1.614784
726,1678733037,0.506508,0.518059,-0.436167,0.533696,-0.422929,0.478643,-0.802341
727,1678766371,0.502004,0.524401,-0.444423,0.524875,-0.032234,1.450224,-1.121830
728,1678799705,0.501904,0.524433,-0.460975,0.510465,0.154756,0.949990,0.254109
729,1678833039,0.502372,0.523355,-0.476918,0.496267,0.588989,1.042593,0.433614
730,1678866373,0.501068,0.525644,-0.488179,0.484066,0.732887,0.960209,-0.186088
731,1678899707,0.498041,0.531420,-0.494795,0.474063,0.625858,1.304351,0.110969
732,1678933041,0.493130,0.540050,-0.497075,0.467007,0.228035,0.889609,0.107138
733,1678966375,0.487312,0.549336,-0.500154,0.458924,-0.488527,0.174508,-0.111532
734,1678999709,0.483267,0.556995,-0.507893,0.445268,-0.594950,-0.422515,-0.283928
735,1679033043,0.481713,0.562998,-0.519845,0.425155,0.837320,-0.421361,-0.007438
736,1679066377,0.480248,0.568853,-0.531401,0.404216,1.553671,-0.200475,0.155102
737,1679099711,0.476658,0.576275,-0.537450,0.389693,1.668565,-1.202702,-0.256643
738,1679133045,0.473272,0.582973,-0.540772,0.379118,1.683493,-1.817766,-0.209726
739,1679166379,0.473156,0.585243,-0.545742,0.368495,1.628886,-1.553151,-0.173347
740,1679199713,0.476284,0.584008,-0.550104,0.359838,1.483076,-0.976723,0.600103
741,1679233047,0.482503,0.579940,-0.550722,0.357177,0.629866,0.798346,1.077699
742,1679266381,0.487388,0.576245,-0.547644,0.361234,0.432409,-0.145939,2.998256
743,1679299715,0.491807,0.575217,-0.536430,0.373502,-0.393299,-1.395494,1.760388
744,1679333049,0.503270,0.571843,-0.517253,0.390095,-1.356130,-2.513085,0.813264
745,1679366383,0.524825,0.555846,-0.500614,0.406189,-0.202898,-1.126931,0.436707
746,1679399717,0.547363,0.531346,-0.492863,0.418523,1.190226,1.532910,2.117738
747,1679433051,0.556134,0.516618,-0.478074,0.441899,1.859473,3.290174,1.246928
748,1679466385,0.551297,0.515801,-0.453087,0.474070,0.943377,2.798230,0.681171
749,1679499719,0.541057,0.518722,-0.427882,0.505085,-0.725044,1.492586,-0.224399
750,1679533053,0.530116,0.519093,-0.410019,0.530484,-1.751779,0.736623,-0.714468
751,1679566387,0.521170,0.514900,-0.400529,0.550315,-1.036611,0.911312,-1.149201
752,1679599721,0.512404,0.512435,-0.389193,0.568675,-0.604558,0.753438,-1.062897
753,1679633055,0.502633,0.514293,-0.371292,0.587379,-0.886553,-0.134814,-1.064508
754,1679666389,0.495399,0.515742,-0.356847,0.601048,-1.238321,-0.579412,-1.328351
755,1679699723,0.492071,0.514777,-0.350198,0.608475,-0.771602,-0.264735,-1.587925
756,1679733057,0.489273,0.514796,-0.345465,0.613400,-0.466087,-0.324367,-1.147055
757,1679766391,0.484933,0.518628,-0.338578,0.617446,0.317223,-0.737121,-1.314208
758,1679799725,0.480091,0.523874,-0.333073,0.619791,1.352817,-1.235526,-0.474861
759,1679833059,0.476482,0.525957,-0.331623,0.621586,2.122282,-1.975877,1.522084
760,1679866393,0.469363,0.527272,-0.328338,0.627604,1.665593,-1.393346,1.703061
761,1679899727,0.457784,0.531052,-0.321234,0.636581,0.500856,0.059560,0.029849
762,1679933061,0.445075,0.537384,-0.313725,0.643982,-0.762860,0.226516,-1.740940
763,1679966395,0.434841,0.546759,-0.306025,0.646782,-1.175169,-0.739431,3.843804
764,1679999729,0.425993,0.554143,-0.286820,0.655133,-3.020103,1.922954,6.731024
765,1680033063,0.419354,0.558066,-0.281942,0.658196,-4.399243,-1.205036,-6.328783
766,1680066397,0.415390,0.565663,-0.302223,0.645095,-0.512639,2.574805,-3.804020
767,1680099731,0.415462,0.568204,-0.330752,0.628608,-0.754111,4.287261,2.227161
768,1680133065,0.411818,0.573067,-0.340151,0.621537,-0.489609,0.706631,1.416976
769,1680166399,0.404205,0.580548,-0.341202,0.619010,-0.506376,0.373355,-0.962212
770,1680199733,0.399570,0.587604,-0.349402,0.610732,-0.717126,1.652557,-0.744812
771,1680233067,0.398909,0.592665,-0.359866,0.600105,-0.662035,0.970475,0.731426
772,1680266401,0.398238,0.597367,-0.368818,0.590374,-0.220513,0.479522,0.185225
773,1680299735,0.397867,0.603549,-0.378786,0.577894,-0.128292,1.190639,-0.276318
774,1680333069,0.397851,0.610866,-0.388615,0.563512,0.127279,1.557000,-0.028822
775,1680366403,0.395870,0.619746,-0.393060,0.552010,0.488238,1.161838,-0.017341
776,1680399737,0.392866,0.629154,-0.394510,0.542395,0.639640,0.537074,-0.106957
777,1680433071,0.390144,0.637586,-0.395905,0.533423,0.084256,-0.220583,0.051143
778,1680466405,0.390555,0.642832,-0.401477,0.522551,0.469588,-0.822722,-0.006335
779,1680499739,0.393095,0.645528,-0.409970,0.510591,1.246257,-0.537035,0.023472
780,1680533073,0.395247,0.647689,-0.417962,0.499596,1.214119,0.384637,-0.017507
781,1680566407,0.396867,0.650186,-0.424387,0.489550,1.200064,0.492075,0.015086
782,1680599741,0.397426,0.654109,-0.427951,0.480689,0.976056,-0.034826,-0.255566
783,1680633075,0.397871,0.659601,-0.432112,0.468950,0.592331,-0.132610,-0.081544
784,1680666409,0.399179,0.665491,-0.437151,0.454627,0.193157,-0.543019,0.320141
785,1680699743,0.402097,0.670591,-0.440526,0.441104,1.400294,-1.032799,-0.076930
786,1680733077,0.408526,0.673013,-0.445965,0.425775,2.755563,0.945310,0.441658
787,1680766411,0.412675,0.674838,-0.448104,0.416540,2.091246,1.018920,2.448063
788,1680799745,0.408096,0.678056,-0.439064,0.425358,1.198088,-1.345273,1.836881
789,1680833079,0.406659,0.676636,-0.427241,0.440757,0.123419,-2.454547,0.509036
790,1680866413,0.419409,0.664879,-0.417885,0.455427,-1.201281,-2.874094,0.005439
791,1680899747,0.441141,0.643004,-0.414146,0.469503,-0.285446,-1.141780,0.845977
792,1680933081,0.460153,0.618281,-0.413032,0.485183,1.068032,2.269990,2.475368
793,1680966415,0.464360,0.602068,-0.398954,0.512571,1.085637,3.612914,1.114898
794,1680999749,0.453880,0.596356,-0.371547,0.548009,-0.332213,2.273361,0.887942
795,1681033083,0.439930,0.591648,-0.346139,0.580183,-1.296656,0.733490,0.331137
796,1681066417,0.426656,0.584203,-0.330011,0.606443,-1.706830,0.774957,-0.230751
797,1681099751,0.412584,0.576269,-0.318268,0.629606,-0.960176,1.122614,-0.791902
798,1681133085,0.395276,0.572098,-0.301209,0.652490,-0.528246,1.185590,-0.616211
799,1681166419,0.377647,0.570550,-0.281083,0.672947,-1.044157,0.241859,-1.108691
800,1681199753,0.364311,0.568486,-0.268637,0.686982,-1.388609,-0.387145,-1.128238
801,1681233087,0.355711,0.566051,-0.261692,0.696120,-1.197688,-0.684082,-1.549043
802,1681266421,0.347859,0.565689,-0.251823,0.703978,-0.711419,-0.992400,-1.345606
803,1681299755,0.341427,0.567191,-0.241879,0.709384,-0.085570,-0.931070,-0.843328
804,1681333089,0.336609,0.568186,-0.234211,0.713452,1.211393,-0.848952,-1.119368
805,1681366423,0.331294,0.569440,-0.232004,0.715658,3.196363,-0.288917,-0.194844
806,1681399757,0.322127,0.572703,-0.230145,0.717836,2.659614,0.473239,0.460734
807,1681433091,0.309932,0.578768,-0.225106,0.719935,0.789840,0.598505,0.557101
808,1681466425,0.296844,0.584967,-0.214832,0.723570,-0.060099,-0.263946,0.308277
809,1681499759,0.284729,0.593710,-0.198850,0.725883,-1.187768,-1.001235,3.635421
810,1681533093,0.275896,0.597407,-0.179598,0.731259,-1.567528,-0.838129,5.281123
811,1681566427,0.269023,0.597402,-0.167028,0.736783,-3.510162,-1.691695,-3.403447
812,1681599761,0.264215,0.608412,-0.176690,0.727197,-1.377371,1.259672,-4.717878
813,1681633095,0.264222,0.619480,-0.200919,0.711387,-2.490404,3.796717,0.607756
814,1681666429,0.261062,0.631186,-0.211103,0.699211,-2.080119,1.179242,2.025112
815,1681699763,0.252618,0.643251,-0.205771,0.692878,-1.581075,-0.462587,-0.786956
816,1681733097,0.246852,0.655839,-0.204434,0.683488,-1.771646,0.241714,-0.901846
817,1681766431,0.249687,0.666227,-0.212871,0.669697,-1.376320,0.341386,0.170103
818,1681799765,0.255726,0.674413,-0.228070,0.654037,-0.691856,0.575366,0.103562
819,1681833099,0.261627,0.681843,-0.242575,0.638599,-0.176408,1.123417,0.078779
820,1681866433,0.266102,0.688698,-0.251531,0.625801,-0.266114,1.155072,0.234035
821,1681899767,0.268513,0.694919,-0.257365,0.615436,-0.085558,0.968564,-0.014177
822,1681933101,0.270393,0.700928,-0.261778,0.605863,0.016297,0.808445,0.311005
823,1681966435,0.273169,0.705982,-0.266163,0.596770,-0.315769,0.023662,0.018181
824,1681999769,0.278796,0.710614,-0.273318,0.585327,0.075795,0.140541,0.034569
825,1682033103,0.284420,0.714816,-0.281766,0.573377,0.043796,-0.044146,0.030795
826,1682066437,0.290894,0.718938,-0.290409,0.560518,0.393698,0.436034,0.098701
827,1682099771,0.295549,0.723311,-0.296560,0.549120,0.928889,1.004064,0.036859
828,1682133105,0.297313,0.728490,-0.300228,0.539240,1.224933,0.868343,-0.175747
829,1682166439,0.298007,0.734336,-0.302145,0.529774,1.305699,0.317347,-0.078938
830,1682199773,0.299294,0.740385,-0.304335,0.519271,1.124343,-0.277605,-0.050758
831,1682233107,0.303692,0.745009,-0.309537,0.506882,1.399060,-0.472487,-0.151519
832,1682266441,0.311585,0.747897,-0.317310,0.492837,1.881676,-0.020218,-0.245195
833,1682299775,0.319770,0.749578,-0.323634,0.480782,1.996588,0.976820,0.272811
834,1682333109,0.324721,0.749845,-0.325699,0.475624,1.644772,0.471937,0.663103
835,1682366443,0.326300,0.748275,-0.323677,0.478389,1.252430,0.105834,1.579863
836,1682399777,0.329024,0.742362,-0.319425,0.488486,0.825209,-0.732859,1.763888
837,1682433111,0.336705,0.731073,-0.314402,0.503312,0.068828,-1.685571,1.165778
838,1682466445,0.348178,0.714371,-0.307770,0.523196,0.242933,-2.695536,0.790071
839,1682499779,0.362253,0.692539,-0.304230,0.544625,0.201472,0.030763,1.081721
840,1682533113,0.374782,0.669712,-0.302318,0.565365,-0.343441,2.635838,1.808555
841,1682566447,0.374448,0.653562,-0.287475,0.591619,-0.578653,2.953323,0.663786
842,1682599781,0.361178,0.646606,-0.263240,0.618195,-0.423923,1.620160,0.753134
843,1682633115,0.340985,0.643791,-0.238809,0.642061,-0.780884,0.770778,0.110950
844,1682666449,0.318898,0.640731,-0.221107,0.662487,-1.253491,0.823412,-1.146874
845,1682699783,0.296235,0.637365,-0.207504,0.680414,-1.082319,1.505196,-0.949634
846,1682733117,0.272111,0.634513,-0.189711,0.698118,-0.778292,1.033647,-0.486363
847,1682766451,0.247405,0.631803,-0.168516,0.715002,-0.902104,-0.261843,-0.214420
848,1682799785,0.228452,0.627589,-0.154522,0.728062,-1.117835,-1.301366,-0.460798
849,1682833119,0.215058,0.622175,-0.145756,0.738522,-1.038217,-1.152303,-0.699325
850,1682866453,0.205237,0.617134,-0.133796,0.747751,-0.575349,-1.335550,-0.876168
851,1682899787,0.199860,0.612847,-0.122970,0.754561,-0.232190,-1.468782,-0.613386
852,1682933121,0.198182,0.609682,-0.115362,0.758758,0.184336,-0.875331,-0.828865
853,1682966455,0.195961,0.608298,-0.110707,0.761135,1.087364,0.524237,-1.431153
854,1682999789,0.189251,0.608504,-0.107610,0.763110,2.163086,1.618004,-0.058919
855,1683033123,0.176947,0.611433,-0.102765,0.764387,1.589383,1.629486,0.597123
856,1683066457,0.166573,0.616761,-0.097620,0.763112,0.475717,1.007388,-0.832191
857,1683099791,0.159434,0.622771,-0.093233,0.760299,-0.208578,-1.296206,-0.723301
858,1683133125,0.155967,0.627853,-0.084588,0.757845,0.742395,-2.932812,7.373758
859,1683166459,0.149255,0.623195,-0.068731,0.764616,-2.236374,-0.536000,3.625431
860,1683199793,0.145698,0.627519,-0.075363,0.761132,-2.532275,-1.486529,-7.564031
861,1683233127,0.149058,0.641666,-0.096259,0.746184,-3.026488,3.227480,-2.954591
862,1683266461,0.152065,0.654296,-0.112041,0.732276,-3.372068,1.534471,3.719481
863,1683299795,0.144927,0.663285,-0.105808,0.726542,-1.281296,-0.858232,0.970086
864,1683333129,0.137070,0.672105,-0.098099,0.721022,-1.335240,-1.508813,-1.439241
865,1683366463,0.141939,0.682273,-0.107254,0.709128,-1.898418,-0.459824,-0.614718
866,1683399797,0.153258,0.691453,-0.124902,0.694848,-1.059513,0.745156,0.617798
867,1683433131,0.161693,0.699951,-0.139170,0.681590,-0.600815,1.234306,0.172019
868,1683466465,0.167232,0.708529,-0.148432,0.669326,-0.549778,1.439492,-0.153046
869,1683499799,0.169373,0.716781,-0.150632,0.659437,-0.494318,1.138165,0.275255
870,1683533133,0.168131,0.724307,-0.146910,0.652333,-0.134601,0.394541,0.063884
871,1683566467,0.167254,0.731455,-0.145259,0.644910,0.242267,-0.579480,-0.192257
872,1683599801,0.171350,0.738160,-0.149482,0.635157,0.585462,-0.308464,-0.061743
873,1683633135,0.179453,0.744442,-0.157951,0.623429,0.454391,0.409780,0.114711
874,1683666469,0.186683,0.750278,-0.164869,0.612422,0.432842,1.112700,0.016975
875,1683699803,0.190486,0.756876,-0.167173,0.602425,0.281855,1.028614,-0.111547
876,1683733137,0.192695,0.764038,-0.167192,0.592596,0.760275,0.563517,-0.131748
877,1683766471,0.196038,0.771000,-0.167864,0.582202,1.168121,-0.054669,0.234302
878,1683799805,0.202563,0.776066,-0.171375,0.572128,1.447195,-0.609023,0.093302
879,1683833139,0.214093,0.778935,-0.179244,0.561521,1.270452,-0.082222,-0.633644
880,1683866473,0.231096,0.779811,-0.191046,0.549546,1.131276,1.779679,0.065897
881,1683899807,0.243066,0.778476,-0.199047,0.543400,0.683220,1.361437,1.687481
882,1683933141,0.246037,0.774603,-0.197428,0.548167,0.971033,-0.358535,3.015708
883,1683966475,0.251069,0.764580,-0.192467,0.561559,0.820663,-1.975979,1.217257
884,1683999809,0.265711,0.747630,-0.190484,0.578077,0.939485,-2.591578,0.351520
885,1684033143,0.287890,0.723665,-0.198803,0.594908,0.126785,-0.751133,0.745996
886,1684066477,0.307761,0.699261,-0.212182,0.609348,-0.547883,1.802884,1.863359
887,1684099811,0.311162,0.680934,-0.210949,0.628504,-1.011663,3.022763,1.060427
888,1684133145,0.296671,0.671688,-0.191404,0.651303,-1.448272,1.502632,-0.018693
889,1684166479,0.278486,0.666091,-0.171104,0.670449,-0.872316,-0.537528,-0.373767
890,1684199813,0.263463,0.659840,-0.159425,0.685413,-1.392484,-0.863404,-0.242237
891,1684233147,0.250523,0.652510,-0.152424,0.698745,-1.357517,0.073932,-0.293463
892,1684266481,0.237147,0.645343,-0.141277,0.712281,-0.706795,0.072268,-0.311913
893,1684299815,0.221697,0.638710,-0.122876,0.726506,-0.843711,-0.656652,-0.306900
894,1684333149,0.209993,0.632049,-0.108462,0.738013,-0.636798,-1.069930,-0.671556
895,1684366483,0.204572,0.625567,-0.101273,0.746036,-0.184941,-0.773418,-0.906813
896,1684399817,0.200873,0.619621,-0.095364,0.752752,0.347615,-0.041197,-0.934993
897,1684433151,0.194669,0.615668,-0.086231,0.758703,0.372883,0.212794,-0.599058
898,1684466485,0.187053,0.613879,-0.075692,0.763180,0.621199,0.111636,-1.353393
899,1684499819,0.182614,0.615622,-0.072748,0.763137,0.767598,-0.191357,-1.383364
900,1684533153,0.179425,0.618200,-0.074967,0.761593,1.481781,0.064389,0.056957
901,1684566487,0.169502,0.621518,-0.071624,0.761488,0.916110,0.671338,1.329503
902,1684599821,0.153375,0.624657,-0.064038,0.763013,0.433400,0.317864,0.264646
903,1684633155,0.133963,0.630350,-0.052559,0.762863,0.426397,-0.226584,-0.193532
904,1684666489,0.117999,0.640376,-0.039643,0.757913,-1.092031,-1.269473,1.270284
905,1684699823,0.111177,0.643145,-0.030812,0.757010,0.322061,-2.805976,5.659901
906,1684733157,0.102263,0.639295,-0.017414,0.761939,-1.483363,-2.392680,-1.130859
907,1684766491,0.095921,0.649706,-0.018877,0.753880,-1.782260,0.789257,-4.965307
908,1684799825,0.093780,0.663145,-0.031784,0.741919,-3.121000,3.243370,-0.718474
909,1684833159,0.092361,0.674313,-0.036422,0.731747,-2.403095,1.034896,2.498883
910,1684866493,0.081955,0.681919,-0.025281,0.726388,-0.742434,-0.375921,-0.062917
911,1684899827,0.071656,0.691669,-0.015773,0.718484,-1.499171,-0.302958,-0.917609
912,1684933161,0.071996,0.702272,-0.016530,0.708072,-1.515146,-0.087745,-0.163869
913,1684966495,0.076974,0.712407,-0.022776,0.697167,-0.819929,0.018470,0.318010
914,1684999829,0.083381,0.722444,-0.030805,0.685699,-0.625689,0.345356,0.075669
915,1685033163,0.090019,0.731300,-0.036317,0.675121,-0.633196,1.047719,0.155367
916,1685066497,0.094247,0.738015,-0.036748,0.667166,-0.788597,1.472201,0.090028
917,1685099831,0.094730,0.743435,-0.033642,0.661217,-0.747814,1.379842,-0.010028
918,1685133165,0.093098,0.748873,-0.029996,0.655463,-0.564704,1.066114,-0.080964
919,1685166499,0.091635,0.754979,-0.027291,0.648749,-0.548649,0.302633,0.076374
920,1685199833,0.093129,0.760860,-0.026629,0.641654,-0.016736,-0.143761,0.240952
921,1685233167,0.097092,0.766606,-0.027371,0.634152,0.164308,0.010621,0.182359
922,1685266501,0.102054,0.772553,-0.029455,0.626011,-0.056878,0.195691,0.216895
923,1685299835,0.108142,0.777540,-0.031811,0.618656,0.039469,0.486423,0.008778
924,1685333169,0.116231,0.782179,-0.034718,0.611138,0.320354,0.683686,-0.040915
925,1685366503,0.125693,0.787195,-0.037711,0.602589,0.387919,0.763087,0.031344
926,1685399837,0.135743,0.792180,-0.041014,0.593592,0.542033,1.261639,0.003941
927,1685433171,0.145579,0.796039,-0.042838,0.585921,0.779680,1.295623,0.016744
928,1685466505,0.155454,0.798104,-0.043349,0.580513,0.759705,1.484158,0.533293
929,1685499839,0.164325,0.797770,-0.043386,0.578522,0.309222,1.238735,1.008547
930,1685533173,0.169769,0.795010,-0.041124,0.580910,0.019294,0.605655,1.292916
931,1685566507,0.169686,0.790293,-0.034681,0.587750,0.528911,0.490584,0.575083
932,1685599841,0.167560,0.782853,-0.026011,0.598663,0.702144,0.205911,0.005868
933,1685633175,0.166396,0.772231,-0.018057,0.612907,1.588086,-0.579453,0.019870
934,1685666509,0.166343,0.758403,-0.011918,0.630098,1.202390,0.571910,0.513155
935,1685699843,0.164365,0.742076,-0.006292,0.649828,-0.555672,1.666698,0.843062
936,1685733177,0.153927,0.725792,0.004703,0.670462,-1.546669,1.084651,0.964356
937,1685766511,0.133710,0.712531,0.021489,0.688454,-1.689520,0.274265,0.759173
938,1685799845,0.110901,0.702437,0.038044,0.702030,-1.617222,-0.175635,0.086432
939,1685833179,0.090260,0.694787,0.049206,0.711837,-1.348431,-0.136285,-0.329651
940,1685866513,0.066870,0.688028,0.060903,0.720032,-1.468713,-0.271597,-0.359519
941,1685899847,0.039846,0.680415,0.076095,0.727782,-1.606835,-0.543698,-0.010278
942,1685933181,0.013388,0.670553,0.092231,0.735991,-0.860965,-0.699223,0.398417
943,1685966515,-0.009617,0.659401,0.105951,0.744232,0.349130,-1.049916,-0.014216
944,1685999849,-0.027359,0.648981,0.114611,0.751631,0.822383,-1.172646,0.083952
945,1686033183,-0.040759,0.638535,0.119696,0.759140,0.654399,-0.986585,-0.415628
946,1686066517,-0.050855,0.628497,0.123472,0.766270,0.188252,-0.722277,-0.797089
947,1686099851,-0.058802,0.619812,0.127260,0.772133,0.082323,-0.252618,-1.218444
948,1686133185,-0.066180,0.614168,0.130459,0.775505,-0.161183,0.291192,-1.176326
949,1686166519,-0.076270,0.611094,0.134761,0.776271,-0.155233,0.926730,-1.338980
950,1686199853,-0.089210,0.610432,0.140134,0.774459,0.060051,1.319288,-1.076719
951,1686233187,-0.100594,0.612427,0.143126,0.770934,0.632312,1.705786,-0.100409
952,1686266521,-0.109852,0.614796,0.145060,0.767415,1.434535,1.115414,0.989890
953,1686299855,-0.121250,0.617330,0.149121,0.762873,1.306936,0.045303,0.502425
954,1686333189,-0.135616,0.619705,0.160251,0.756243,0.903437,-1.024429,0.759688
955,1686366523,-0.142296,0.620084,0.173890,0.751678,0.765806,-1.394235,4.811080
956,1686399857,-0.148292,0.612825,0.191041,0.752308,-0.557954,-1.981406,5.892650
957,1686433191,-0.154005,0.613276,0.190596,0.750904,-0.326368,-2.359617,-6.567605
958,1686466525,-0.155343,0.629544,0.184150,0.738675,-1.355272,-0.510570,-5.354277
959,1686499859,-0.146546,0.650030,0.167542,0.726584,-4.594993,0.310134,2.206177
960,1686533193,-0.142958,0.660531,0.165657,0.718212,-1.626560,-0.576595,2.212036
961,1686566527,-0.152750,0.663858,0.177975,0.710137,-0.142824,-0.998101,-1.072903
962,1686599861,-0.156056,0.671884,0.185327,0.699916,-0.755599,-1.466324,-0.585732
963,1686633195,-0.147296,0.683651,0.181877,0.691271,-0.576376,-0.995125,0.236180
964,1686666529,-0.135705,0.697461,0.174231,0.681751,-0.872728,-0.284806,-0.232670
965,1686699863,-0.122916,0.711875,0.166678,0.671084,-1.441737,0.317414,-0.042820
966,1686733197,-0.116399,0.720466,0.168875,0.662473,-1.409491,0.791138,0.562682
967,1686766531,-0.115919,0.725083,0.175525,0.655758,-0.800354,0.456125,-0.120630
968,1686799865,-0.113120,0.730661,0.179823,0.648854,0.069789,-0.070158,-0.081671
969,1686833199,-0.105191,0.738147,0.179289,0.641824,0.151699,-0.154444,-0.002357
970,1686866533,-0.093866,0.747339,0.174746,0.634151,0.022432,-0.070630,0.054822
971,1686899867,-0.080027,0.756915,0.169912,0.625951,-0.658932,0.083001,0.205948
972,1686933201,-0.067795,0.765494,0.166398,0.617854,-0.525204,0.399149,0.058158
973,1686966535,-0.057534,0.773490,0.164071,0.609503,-0.102887,0.419737,-0.088841
974,1686999869,-0.045145,0.781524,0.161378,0.600957,0.474599,0.567665,-0.217143
975,1687033203,-0.029230,0.789512,0.156576,0.592714,0.290276,1.048439,0.199616
976,1687066537,-0.013431,0.796049,0.150382,0.586106,0.352156,1.248360,0.081396
977,1687099871,0.000236,0.800903,0.144580,0.581086,0.349972,1.683778,-0.227921
978,1687133205,0.013723,0.804224,0.138321,0.577851,-0.070872,2.052623,0.341423
979,1687166539,0.026093,0.805561,0.131904,0.577063,-0.111191,2.042750,1.545999
980,1687199873,0.029778,0.803549,0.131765,0.579716,0.110942,2.160096,2.297535
981,1687233207,0.022990,0.796659,0.138442,0.587919,1.211670,1.228044,0.841900
982,1687266541,0.013617,0.785317,0.148159,0.600958,1.444970,0.965660,-0.663579
983,1687299875,0.005507,0.769282,0.155981,0.619560,1.870066,0.880799,-0.573362
984,1687333209,0.000373,0.751444,0.156346,0.641013,-0.593515,2.471939,0.804090
985,1687366543,-0.013868,0.732926,0.158421,0.661468,-2.493564,1.075685,2.483536
986,1687399877,-0.046799,0.709645,0.172983,0.681396,-2.399255,-0.303102,2.205221
987,1687433211,-0.088210,0.685051,0.190730,0.697535,-1.115966,-1.495751,1.731983
988,1687466545,-0.121245,0.662549,0.197248,0.712342,-0.845019,-1.632890,0.537551
989,1687499879,-0.147902,0.642083,0.196927,0.726005,-1.165737,-0.889434,-0.567401
990,1687533213,-0.176209,0.620716,0.202352,0.736699,-1.325424,-0.603508,-0.936102
991,1687566547,-0.206773,0.597535,0.217356,0.743615,-0.445788,-1.193043,-1.692159
992,1687599881,-0.231973,0.577527,0.232661,0.747349,0.413579,-1.705559,-2.193424
993,1687633215,-0.246555,0.565439,0.240884,0.749316,0.541374,-1.636504,-2.278543
994,1687666549,-0.253577,0.560468,0.244021,0.749692,0.938976,-0.849012,-1.947334
995,1687699883,-0.254476,0.560302,0.245691,0.748965,1.221039,-0.186512,-1.462806
996,1687733217,-0.251373,0.561169,0.247946,0.748621,0.954629,2.026568,-0.345277
997,1687766551,-0.255914,0.557567,0.253779,0.747819,0.976153,3.895966,1.522142
998,1687799885,-0.273441,0.553114,0.262259,0.741974,-1.079154,2.978248,0.761957
999,1687833219,-0.287694,0.555105,0.267336,0.733234,-1.580744,1.381897,-0.800079
1000,1687866553,-0.299554,0.554086,0.278347,0.725113,-0.522441,0.008535,1.847383
1001,1687899887,-0.312512,0.540592,0.297250,0.722322,-0.519372,-3.268492,11.732439
1002,1687933221,-0.334132,0.519406,0.324235,0.716558,3.910737,-5.426924,-6.249200
1003,1687966555,-0.334066,0.535092,0.331508,0.701562,-0.626991,-1.778675,-6.913053
1004,1687999889,-0.320919,0.567174,0.320476,0.687481,-4.768786,-2.622801,0.684434
1005,1688033223,-0.317442,0.581384,0.327729,0.673666,-1.896548,-1.770014,3.091345
1006,1688066557,-0.324550,0.580772,0.345315,0.661920,-0.228706,-0.971524,-0.963314
1007,1688099891,-0.326915,0.584259,0.359235,0.650175,-0.005110,-1.002203,-1.337955
1008,1688133225,-0.317474,0.597323,0.360043,0.642491,0.247130,-0.744897,0.078979
1009,1688166559,-0.300646,0.616529,0.351633,0.637078,-0.851960,-0.490861,0.353241
1010,1688199893,-0.286378,0.631102,0.346858,0.631979,-1.272727,0.097266,0.104460
1011,1688233227,-0.278310,0.637633,0.350611,0.626936,-1.603360,-0.348386,0.085715
1012,1688266561,-0.272321,0.642699,0.356666,0.620949,-2.003384,-0.498922,-0.592148
1013,1688299895,-0.265343,0.650843,0.362015,0.612332,-1.396641,-0.436758,-0.601765
1014,1688333229,-0.256207,0.661941,0.364176,0.602974,-0.728829,0.016041,0.119671
1015,1688366563,-0.245056,0.672587,0.365307,0.595092,-0.005721,0.294160,0.613872
1016,1688399897,-0.231769,0.682852,0.365142,0.588793,0.305324,0.330231,0.392324
1017,1688433231,-0.217221,0.693152,0.363512,0.583288,-0.313643,0.437035,0.002109
1018,1688466565,-0.202805,0.701880,0.362251,0.578807,-0.884260,0.923165,0.044959
1019,1688499899,-0.187431,0.710470,0.359222,0.575388,-0.828982,1.320300,0.073988
1020,1688533233,-0.169583,0.719778,0.353856,0.572675,-0.319219,1.410924,-0.245749
1021,1688566567,-0.149572,0.728102,0.347852,0.571405,-0.756306,2.103955,0.194570
1022,1688599901,-0.133585,0.732820,0.342321,0.572673,-1.486230,2.917374,1.329036
1023,1688633235,-0.130510,0.730877,0.341085,0.576591,-1.006635,2.619362,2.012449
1024,1688666569,-0.139413,0.721517,0.342755,0.585240,-0.488639,1.833681,1.871861
1025,1688699903,-0.154378,0.704744,0.342527,0.601821,1.254800,0.782885,0.368473
1026,1688733237,-0.171202,0.681982,0.340391,0.624287,2.546174,0.059973,0.078868
1027,1688766571,-0.177594,0.662919,0.323160,0.651595,0.078566,-0.915604,1.199784
1028,1688799905,-0.182270,0.648866,0.301059,0.674628,-2.677801,-1.319861,1.614644
1029,1688833239,-0.201922,0.630464,0.293634,0.689587,-3.058575,-1.194249,2.131021
1030,1688866573,-0.236236,0.606182,0.303196,0.696288,-1.747931,-1.493481,1.215796
1031,1688899907,-0.270117,0.582546,0.315715,0.698578,0.031393,-1.981691,-0.419333
1032,1688933241,-0.295384,0.565432,0.319803,0.700551,0.191326,-1.811718,-1.167948
1033,1688966575,-0.316709,0.551653,0.321328,0.701521,-0.324597,-1.370601,-0.941135
1034,1688999909,-0.340182,0.533721,0.330777,0.700010,-0.261527,-1.036029,-0.745376
1035,1689033243,-0.361670,0.515209,0.342193,0.697616,0.512461,-0.899188,-1.181474
1036,1689066577,-0.376698,0.501953,0.347504,0.696701,0.829790,-0.683976,-1.087340
1037,1689099911,-0.386503,0.493412,0.347053,0.697656,0.214124,-0.197568,-0.521120
1038,1689133245,-0.395424,0.484031,0.348899,0.698307,0.469394,-0.132466,-0.614186
1039,1689166579,-0.403387,0.475073,0.352521,0.698085,0.454216,0.258124,-1.087798
1040,1689199913,-0.410149,0.470113,0.354598,0.696449,-0.116878,0.787905,-1.345055
1041,1689233247,-0.417699,0.469961,0.354871,0.691910,-1.046294,1.291232,-0.713247
1042,1689266581,-0.427267,0.470601,0.358438,0.683746,-1.492848,0.796931,0.512445
1043,1689299915,-0.437022,0.468450,0.365304,0.675373,-0.426356,0.485302,0.831205
1044,1689333249,-0.448190,0.464530,0.374459,0.665679,0.117924,0.483267,-0.337390
1045,1689366583,-0.460521,0.461719,0.389434,0.650450,0.243129,0.359254,-1.609016
1046,1689399917,-0.468118,0.461785,0.409725,0.632262,1.189610,-0.776634,1.457622
1047,1689433251,-0.470328,0.461528,0.421589,0.622942,1.739928,0.636923,3.609555
1048,1689466585,-0.471314,0.456976,0.429163,0.620375,2.978679,0.174509,3.661717
1049,1689499919,-0.470296,0.458220,0.432886,0.617636,1.192095,-1.804147,-2.155971
1050,1689533253,-0.462341,0.477519,0.435316,0.607228,-2.773617,-3.984315,-3.742344
1051,1689566587,-0.449291,0.501932,0.430902,0.600446,-2.114223,-3.225585,0.514750
1052,1689599921,-0.445328,0.509133,0.438880,0.591490,0.622335,-1.038858,1.334403
1053,1689633255,-0.445662,0.510883,0.450787,0.580676,0.731188,-0.682298,-0.749945
1054,1689666589,-0.436962,0.522408,0.455367,0.573415,-0.717730,-1.590527,-0.777435
1055,1689699923,-0.425273,0.536002,0.455955,0.569174,-0.848027,-0.941438,0.121788
1056,1689733257,-0.413985,0.550049,0.455329,0.564577,-0.909416,-0.670244,0.047275
1057,1689766591,-0.404032,0.560950,0.456877,0.559791,-0.685542,-0.396532,-0.021669
1058,1689799925,-0.396809,0.567980,0.461390,0.554139,-1.052507,-0.734717,-0.118610
1059,1689833259,-0.393370,0.571019,0.469054,0.546987,-1.107489,-0.564353,0.053474
1060,1689866593,-0.390233,0.572727,0.477352,0.540228,-0.045462,-0.360355,0.133606
1061,1689899927,-0.383747,0.577338,0.483481,0.534486,0.365060,0.119781,-0.343400
1062,1689933261,-0.371783,0.586963,0.486133,0.530034,0.358152,0.356320,0.024597
1063,1689966595,-0.356994,0.597617,0.487209,0.527300,0.051938,0.043437,0.243906
1064,1689999929,-0.343706,0.606599,0.487832,0.525293,-0.707955,-0.156104,0.171068
1065,1690033263,-0.329847,0.615881,0.488226,0.523007,-0.830769,0.209205,-0.030108
1066,1690066597,-0.312558,0.626302,0.488479,0.521010,-0.701420,0.326368,-0.223845
1067,1690099931,-0.292375,0.637931,0.487982,0.519080,-0.580668,0.789024,0.239256
1068,1690133265,-0.273870,0.648298,0.487080,0.517173,-0.831688,1.416406,-0.244381
1069,1690166599,-0.256911,0.656564,0.486279,0.516200,-1.953055,1.617661,-0.154052
1070,1690199933,-0.246346,0.660163,0.487117,0.515970,-1.672216,2.427486,1.264236
1071,1690233267,-0.244123,0.658100,0.488035,0.518786,-0.428343,3.049738,1.519656
1072,1690266601,-0.245402,0.653191,0.484226,0.527877,-1.323030,2.227227,0.573997
1073,1690299935,-0.254689,0.640737,0.474183,0.547494,0.365672,1.351126,-0.284145
1074,1690333269,-0.274272,0.617167,0.466909,0.570864,2.318968,0.619869,1.384934
1075,1690366603,-0.287742,0.596536,0.449708,0.599267,0.460163,-1.962934,4.271875
1076,1690399937,-0.297369,0.582513,0.425470,0.625488,-1.509159,-2.898036,2.217498
1077,1690433271,-0.315057,0.567675,0.409145,0.641167,-1.644375,-2.671400,1.496068
1078,1690466605,-0.342553,0.546954,0.405991,0.647055,-0.980331,-1.832742,0.129697
1079,1690499939,-0.373018,0.523948,0.413756,0.644323,-0.264807,-1.105816,-1.692097
1080,1690533273,-0.401737,0.502367,0.426462,0.635904,-0.437166,-1.622125,-1.925803
1081,1690566607,-0.424925,0.485574,0.437445,0.626345,-0.691841,-1.714984,-0.877128
1082,1690599941,-0.445662,0.473440,0.445599,0.615379,-0.499008,-0.919069,0.013953
1083,1690633275,-0.469056,0.461612,0.450345,0.603406,-0.887102,-0.469248,0.102527
1084,1690666609,-0.491891,0.450400,0.450502,0.593498,-0.780051,-0.475122,0.315279
1085,1690699943,-0.513737,0.436735,0.450716,0.584980,-0.000680,-0.082964,0.157549
1086,1690733277,-0.534367,0.419083,0.452756,0.577791,0.785276,-0.029760,-0.667437
1087,1690766611,-0.551396,0.402983,0.453918,0.572307,1.288609,0.111968,-1.626353
1088,1690799945,-0.564259,0.391706,0.455695,0.566153,0.947741,0.073736,-2.243272
1089,1690833279,-0.572707,0.385407,0.460342,0.558178,0.284843,-0.543994,-1.776175
1090,1690866613,-0.577776,0.382001,0.467377,0.549380,-0.367400,-0.463069,-0.955244
1091,1690899947,-0.579906,0.381077,0.476120,0.540193,-0.761412,0.267926,-0.257595
1092,1690933281,-0.580497,0.381580,0.486501,0.529854,-0.401029,0.435713,-0.099555
1093,1690966615,-0.582885,0.378709,0.500231,0.516335,-0.361825,0.526510,0.161768
1094,1690999949,-0.585720,0.375281,0.515269,0.500604,-0.971590,0.284553,-0.125894
1095,1691033283,-0.582895,0.377728,0.528898,0.487680,0.115308,0.117562,1.380363
1096,1691066617,-0.576861,0.373487,0.544774,0.480593,1.827578,0.565799,5.469767
1097,1691099951,-0.577043,0.360674,0.557068,0.476047,0.787935,0.651265,2.985629
1098,1691133285,-0.576682,0.353580,0.570041,0.466351,0.657647,-1.070200,-1.499675
1099,1691166619,-0.564300,0.367408,0.581975,0.455952,1.478776,-2.863925,-4.651346
1100,1691199953,-0.547414,0.384219,0.590517,0.451677,0.251644,-2.651784,0.224822
1101,1691233287,-0.536402,0.387397,0.600840,0.448550,0.457797,-1.183254,1.358136
1102,1691266621,-0.532210,0.383770,0.615819,0.436177,0.890043,-0.996359,-1.100645
1103,1691299955,-0.524810,0.386970,0.626679,0.426745,0.112853,-2.118519,-0.614446
1104,1691333289,-0.515832,0.394634,0.630872,0.424490,-0.541494,-1.297949,0.461342
1105,1691366623,-0.509432,0.402573,0.633141,0.421375,-0.552098,0.195052,0.203844
1106,1691399957,-0.502237,0.412154,0.634536,0.418641,-0.205796,-1.102591,0.261967
1107,1691433291,-0.497239,0.418445,0.636008,0.416125,-0.178367,-1.167843,0.347168
1108,1691466625,-0.494769,0.419020,0.640729,0.411220,-0.223627,-1.071838,-0.252061
1109,1691499959,-0.493300,0.416996,0.647336,0.404642,-0.136857,-0.634532,-0.408845
1110,1691533293,-0.488815,0.417753,0.652758,0.400573,0.198296,-0.039389,-0.145877
1111,1691566627,-0.480473,0.423514,0.655521,0.400104,-0.190009,0.239032,0.064588
1112,1691599961,-0.469770,0.431261,0.657443,0.401383,-0.101756,-0.025722,-0.014576
1113,1691633295,-0.459448,0.438194,0.659435,0.402552,-0.672413,-0.509716,-0.261295
1114,1691666629,-0.449366,0.444271,0.662131,0.402847,-0.733023,-0.491196,-0.056618
1115,1691699963,-0.438243,0.449924,0.665607,0.403099,-0.485439,-0.000337,-0.115584
1116,1691733297,-0.423803,0.457444,0.668455,0.405357,-0.927988,-0.207435,0.016562
1117,1691766631,-0.408286,0.466291,0.669456,0.409528,-0.941962,0.520786,0.088060
1118,1691799965,-0.393123,0.475318,0.669023,0.414662,-1.847239,0.559802,-0.094239
1119,1691833299,-0.378426,0.483360,0.667601,0.421279,-2.742253,-0.125958,1.134185
1120,1691866633,-0.372427,0.485197,0.667893,0.424041,-3.032157,0.460747,1.593287
1121,1691899967,-0.376849,0.479929,0.669872,0.423005,-2.480293,0.573747,1.766755
1122,1691933301,-0.389664,0.470720,0.669236,0.422750,-1.622203,0.785537,0.947995
1123,1691966635,-0.409023,0.458284,0.663571,0.427035,0.169373,1.571022,-0.127427
1124,1691999969,-0.434790,0.439082,0.654877,0.435099,1.226409,2.725152,0.038896
1125,1692033303,-0.457817,0.425871,0.635483,0.452999,0.176625,0.224463,0.772374
1126,1692066637,-0.477125,0.419861,0.609684,0.473670,0.281901,-2.556564,2.463141
1127,1692099971,-0.503776,0.408600,0.587269,0.484129,-0.340078,-3.232571,2.655334
1128,1692133305,-0.539357,0.387999,0.574473,0.478060,-0.254056,-2.919520,1.472605
1129,1692166639,-0.574769,0.363851,0.567297,0.464152,0.378863,-1.777644,-0.298872
1130,1692199973,-0.605427,0.342876,0.561498,0.447911,0.871513,-1.091139,-1.187667
1131,1692233307,-0.631568,0.324917,0.557217,0.430198,1.018125,-1.422791,-0.886703
1132,1692266641,-0.655455,0.304006,0.556341,0.410431,0.736552,-1.578110,-0.709587
1133,1692299975,-0.675951,0.283132,0.556539,0.391409,1.195140,-0.634181,-1.052151
1134,1692333309,-0.690083,0.269062,0.555365,0.378115,1.579035,0.416014,-1.298320
1135,1692366643,-0.699553,0.259609,0.553131,0.370518,1.628685,0.932992,-1.408602
1136,1692399977,-0.706879,0.250027,0.551798,0.365155,1.062886,0.855356,-1.321902
1137,1692433311,-0.710978,0.243339,0.551621,0.361967,0.336857,1.105193,-1.463792
1138,1692466645,-0.711927,0.241016,0.553271,0.359128,-0.837584,0.367128,-1.069291
1139,1692499979,-0.711474,0.241337,0.556265,0.355161,-1.764983,-0.388282,-0.437098
1140,1692533313,-0.712667,0.239531,0.559937,0.348153,-2.167400,-0.931373,-0.104256
1141,1692566647,-0.713302,0.234226,0.567835,0.337506,-1.583272,-1.025269,0.141443
1142,1692599981,-0.713202,0.226614,0.578223,0.325049,-0.439317,-0.063045,0.389341
1143,1692633315,-0.709718,0.216583,0.592387,0.313815,1.669136,0.568500,3.006263
1144,1692666649,-0.707099,0.203948,0.603848,0.306257,0.014909,1.139402,4.746627
1145,1692699983,-0.708902,0.189301,0.611217,0.296727,0.657211,1.119794,2.061577
1146,1692733317,-0.703241,0.192513,0.618256,0.293530,2.486697,0.230852,-4.182108
1147,1692766651,-0.688809,0.207996,0.629946,0.292332,1.919720,-1.881708,-3.544222
1148,1692799985,-0.673487,0.224619,0.640809,0.292123,1.490380,-3.824589,1.605618
1149,1692833319,-0.664550,0.226965,0.651186,0.287797,1.547522,-1.327587,0.441486
1150,1692866653,-0.660643,0.218840,0.662999,0.275865,1.638000,-0.367648,-0.898440
1151,1692899987,-0.651434,0.221845,0.672974,0.271170,1.874005,-0.014038,-0.439987
1152,1692933321,-0.636705,0.237271,0.679118,0.277701,1.249990,0.149171,0.195549
1153,1692966655,-0.620524,0.256688,0.682925,0.287548,0.273722,-0.549283,0.132219
1154,1692999989,-0.605175,0.274058,0.686169,0.296373,0.218870,-2.164956,-0.045775
1155,1693033323,-0.593627,0.285505,0.689370,0.301451,0.270722,-1.840714,0.025019
1156,1693066657,-0.584212,0.292812,0.692997,0.304503,0.366875,-1.164053,-0.127762
1157,1693099991,-0.571843,0.302485,0.697506,0.308209,0.348902,-0.764700,-0.262447
1158,1693133325,-0.557618,0.312358,0.703355,0.311118,0.093605,0.071330,0.448240
1159,1693166659,-0.543044,0.321787,0.709023,0.314409,-0.335994,0.926260,0.377769
1160,1693199993,-0.526765,0.333121,0.713146,0.320906,-0.970755,0.133700,0.197875
1161,1693233327,-0.513772,0.341428,0.716838,0.324989,-1.649623,-0.724574,0.037911
1162,1693266661,-0.504889,0.346950,0.719931,0.326224,-1.640641,-0.156299,-0.159695
1163,1693299995,-0.496294,0.352349,0.722269,0.328449,-1.333932,0.339297,-0.377096
1164,1693333329,-0.486093,0.359209,0.723662,0.333174,-0.651093,-0.248668,-0.049073
1165,1693366663,-0.475869,0.366606,0.724062,0.338959,-0.562275,-0.173201,-0.024468
1166,1693399997,-0.465686,0.373833,0.724413,0.344415,-0.770545,0.072782,-0.192237
1167,1693433331,-0.454262,0.381670,0.724619,0.350587,-1.301894,-0.695133,0.138484
1168,1693466665,-0.446543,0.385406,0.725760,0.354039,-2.090891,-0.324876,1.162186
1169,1693499999,-0.444287,0.383862,0.728308,0.353322,-2.184710,-0.860728,1.892665
1170,1693533333,-0.450192,0.377121,0.729315,0.351022,-1.587047,1.038537,2.260721
1171,1693566667,-0.466410,0.362872,0.726385,0.350942,-0.288338,3.382159,0.623534
1172,1693600001,-0.485521,0.347682,0.715463,0.362641,0.860389,3.784149,-0.487091
1173,1693633335,-0.499785,0.344758,0.692094,0.390350,0.074796,0.546149,0.080029
1174,1693666669,-0.510172,0.349572,0.663284,0.421411,-0.105551,-2.215709,2.749415
1175,1693700003,-0.531442,0.340193,0.641785,0.435844,-0.228368,-3.024972,1.995159
1176,1693733337,-0.561205,0.316143,0.633012,0.429428,0.718504,-2.323593,0.907853
1177,1693766671,-0.589735,0.291039,0.627322,0.417117,1.342693,-0.816387,-0.307925
1178,1693800005,-0.612762,0.272775,0.619718,0.407523,1.325917,-0.728081,-0.709605
1179,1693833339,-0.631060,0.259536,0.611589,0.400466,0.988628,-1.164555,-0.582002
1180,1693866673,-0.649389,0.242159,0.606570,0.389533,0.961158,-1.006045,-0.171551
1181,1693900007,-0.668411,0.217161,0.603879,0.376042,1.009074,-0.040062,-0.632221
1182,1693933341,-0.683710,0.197324,0.599020,0.367135,0.682287,0.615813,-0.797593
1183,1693966675,-0.694446,0.187142,0.591811,0.363993,0.223124,0.249284,-0.805397
1184,1694000009,-0.703102,0.178903,0.585393,0.361891,0.074420,-0.239275,-0.869324
1185,1694033343,-0.711474,0.165102,0.582516,0.356694,-0.340041,-0.014727,-1.316026
1186,1694066677,-0.717981,0.148812,0.583629,0.348920,-0.426270,0.269121,-1.648039
1187,1694100011,-0.720951,0.139839,0.586000,0.342474,-0.690579,0.568769,-1.093186
1188,1694133345,-0.721991,0.137093,0.589172,0.335888,-1.400282,0.412172,-0.067639
1189,1694166679,-0.724158,0.132700,0.593196,0.325753,-1.835233,0.220785,0.507841
1190,1694200013,-0.727672,0.127850,0.598172,0.310399,-1.389518,0.233770,-0.428577
1191,1694233347,-0.729363,0.127166,0.605284,0.292402,-1.319473,-0.018337,-1.519759
1192,1694266681,-0.727764,0.120530,0.617352,0.273347,-0.311480,-0.572958,2.989944
1193,1694300015,-0.730559,0.101299,0.625022,0.255695,0.144380,0.131157,6.541298
1194,1694333349,-0.741468,0.078751,0.622624,0.237431,2.246407,3.679821,2.112047
1195,1694366683,-0.740160,0.080915,0.627400,0.228024,2.985941,0.941659,-5.542992
1196,1694400017,-0.726714,0.105401,0.639994,0.226262,2.916269,-3.828592,-3.466167
1197,1694433351,-0.713319,0.121431,0.654618,0.218895,3.325118,-4.078921,3.014723
1198,1694466685,-0.707693,0.114751,0.666266,0.205189,1.167568,-1.102124,0.565113
1199,1694500019,-0.702920,0.102791,0.677040,0.192259,1.306701,-0.651379,-1.513127
1200,1694533353,-0.694778,0.095935,0.688880,0.183120,1.396694,-0.531640,-0.182567
1201,1694566687,-0.684997,0.096136,0.699952,0.177805,0.864217,-0.363904,0.442003
1202,1694600021,-0.673656,0.102866,0.709858,0.178091,0.186716,0.077133,-0.139339
1203,1694633355,-0.660094,0.111549,0.720056,0.182649,0.299933,-1.219630,-0.555825
1204,1694666689,-0.646914,0.113692,0.730988,0.185047,0.814749,-2.201279,-0.277299
1205,1694700023,-0.637873,0.103748,0.741958,0.178499,1.001356,-2.465030,0.039276
1206,1694733357,-0.629959,0.091829,0.752584,0.168365,0.479324,-1.293823,-0.152766
1207,1694766691,-0.620050,0.083869,0.763455,0.160154,-0.006666,0.149414,0.011348
1208,1694800025,-0.607385,0.081821,0.774298,0.157672,-0.400879,0.673183,0.131712
1209,1694833359,-0.592873,0.087574,0.783465,0.164394,-0.715253,0.131739,0.342172
1210,1694866693,-0.580245,0.095061,0.790262,0.172554,-0.958487,-0.972500,0.190056
1211,1694900027,-0.570657,0.101053,0.795228,0.178213,-1.109797,-1.414885,-0.160514
1212,1694933361,-0.561446,0.108116,0.799235,0.185260,-1.171456,-1.167492,-0.105021
1213,1694966695,-0.551428,0.115628,0.803204,0.193466,-1.228904,-1.286701,-0.161884
1214,1695000029,-0.542701,0.119312,0.806994,0.200026,-1.566839,-1.801637,0.359875
1215,1695033363,-0.539017,0.117835,0.809012,0.202696,-1.417660,-2.512801,2.129354
1216,1695066697,-0.543200,0.108921,0.809085,0.196112,-1.281443,-1.822253,2.649606
1217,1695100031,-0.556212,0.094407,0.805330,0.182125,-1.567553,0.196808,0.874463
1218,1695133365,-0.576164,0.078607,0.795226,0.171700,-1.260274,2.152259,-1.091536
1219,1695166699,-0.600707,0.063553,0.778001,0.172729,-1.812443,2.700315,-1.163993
1220,1695200033,-0.623119,0.065571,0.756056,0.189240,-0.154229,-1.922726,1.110367
1221,1695233367,-0.645256,0.071109,0.733176,0.202607,2.040973,-4.609074,2.850945
1222,1695266701,-0.672136,0.055285,0.714542,0.186053,2.915824,-3.273563,2.374003
1223,1695300035,-0.698454,0.026538,0.699310,0.149776,2.132756,-0.730900,1.283919
1224,1695333369,-0.719872,0.004969,0.684278,0.116329,1.325131,0.451896,-0.191934
1225,1695366703,-0.736696,-0.006828,0.670360,0.088651,1.361251,0.330583,-0.425844
1226,1695400037,-0.751144,-0.018525,0.657017,0.061458,2.001521,-0.154335,-0.368144
1227,1695433371,-0.764142,-0.040093,0.642959,0.033058,1.712785,0.181460,-0.566602
1228,1695466705,-0.774276,-0.061500,0.629791,0.009345,0.877133,1.421147,-1.123480
1229,1695500039,-0.781017,-0.072981,0.620218,-0.004994,0.346881,2.052302,-1.466312
1230,1695533373,-0.785848,-0.077372,0.613455,-0.011766,-0.017611,1.458147,-1.650233
1231,1695566707,-0.789834,-0.080683,0.607798,-0.015600,0.014580,0.220254,-0.889024
1232,1695600041,-0.791950,-0.086169,0.604158,-0.019827,-0.242950,-0.253820,-0.914581
1233,1695633375,-0.792144,-0.092517,0.602755,-0.025370,-0.475363,-1.546112,-0.758696
1234,1695666709,-0.790770,-0.097117,0.603455,-0.033210,-0.511314,-1.527828,0.471324
1235,1695700043,-0.789086,-0.102574,0.603988,-0.045041,-0.220765,-1.633242,0.153901
1236,1695733377,-0.785346,-0.111175,0.605941,-0.060962,0.173010,-1.284098,-0.803445
1237,1695766711,-0.777902,-0.123547,0.611111,-0.078473,0.268837,-0.723596,-0.773726
1238,1695800045,-0.767221,-0.141358,0.618430,-0.094567,0.450559,0.201889,2.656486
1239,1695833379,-0.761050,-0.158813,0.619680,-0.107645,-0.611936,1.118603,5.811097
1240,1695866713,-0.760443,-0.170938,0.614615,-0.121506,-0.714140,3.140026,-0.144657
1241,1695900047,-0.751357,-0.173587,0.624083,-0.125939,-0.389640,1.980686,-5.686842
1242,1695933381,-0.737689,-0.164830,0.643081,-0.122889,4.168772,-0.763064,-0.811223
1243,1695966715,-0.726340,-0.157350,0.658535,-0.118371,3.369743,-0.346208,2.725415
1244,1696000049,-0.718781,-0.166266,0.663165,-0.126218,0.383798,0.725177,-0.182678
1245,1696033383,-0.710248,-0.177199,0.667622,-0.135787,0.465829,1.174546,-1.056807
1246,1696066717,-0.701660,-0.178610,0.676626,-0.134007,1.192447,1.022176,-0.188967
1247,1696100051,-0.693404,-0.174460,0.687430,-0.127291,1.261040,0.330506,0.220228
1248,1696133385,-0.684348,-0.169537,0.698876,-0.120444,0.962533,-0.016984,0.200897
1249,1696166719,-0.675662,-0.168098,0.708731,-0.113729,1.202778,-0.196568,0.169196
1250,1696200053,-0.668258,-0.173124,0.714945,-0.111007,1.141095,-0.588897,-0.064240
1251,1696233387,-0.660640,-0.178486,0.721001,-0.108926,0.929830,-0.359286,-0.166163
1252,1696266721,-0.652310,-0.182450,0.728119,-0.105143,0.448321,0.045598,-0.205506
1253,1696300055,-0.644242,-0.182721,0.736320,-0.096992,-0.149534,-0.168579,-0.099358
1254,1696333389,-0.636191,-0.178928,0.745631,-0.085377,-0.060433,-0.617304,-0.033422
1255,1696366723,-0.627101,-0.175370,0.755406,-0.073220,0.711395,-0.640262,-0.050384
1256,1696400057,-0.618358,-0.173862,0.763827,-0.063117,0.486958,-0.710819,0.248878
1257,1696433391,-0.609996,-0.173545,0.771338,-0.053243,-0.161399,-1.145670,0.051722
1258,1696466725,-0.600262,-0.172585,0.779842,-0.041911,-0.304253,-1.407044,-0.278920
1259,1696500059,-0.589077,-0.169573,0.789601,-0.027814,0.050332,-2.143015,-0.224472
1260,1696533393,-0.579426,-0.165668,0.797893,-0.013996,-0.675351,-2.552795,-0.041273
1261,1696566727,-0.574686,-0.161995,0.802175,-0.004279,-0.224903,-2.079640,1.507144
1262,1696600061,-0.576135,-0.158665,0.801812,-0.000829,-0.597080,-0.854184,2.334012
1263,1696633395,-0.583365,-0.158029,0.796681,-0.004528,-1.769716,-1.009918,1.765195
1264,1696666729,-0.599067,-0.153714,0.785798,-0.004690,-1.601906,0.257089,0.331310
1265,1696700063,-0.622532,-0.150579,0.767976,-0.001354,-2.885166,1.569169,0.088365
1266,1696733397,-0.649699,-0.140987,0.746973,0.007332,-0.832899,-0.122828,0.841045
1267,1696766731,-0.673905,-0.127444,0.727522,0.018189,2.496896,-1.095181,2.061465
1268,1696800065,-0.696085,-0.126890,0.706527,0.013919,3.352831,-1.547840,1.284865
1269,1696833399,-0.712268,-0.143021,0.687133,-0.008745,2.429445,-0.373674,0.568323
1270,1696866733,-0.722472,-0.160858,0.671430,-0.036747,1.104804,0.335111,-0.249632
1271,1696900067,-0.728641,-0.173247,0.659482,-0.064511,0.912793,0.558878,-0.785085
1272,1696933401,-0.732800,-0.182916,0.648866,-0.092353,1.537143,0.482158,-0.694486
1273,1696966735,-0.736561,-0.193937,0.636663,-0.120564,1.211373,0.367628,-0.663779
1274,1697000069,-0.739872,-0.205565,0.623523,-0.146840,0.484393,0.444750,-0.340308
1275,1697033403,-0.744023,-0.211149,0.611550,-0.166918,-0.306310,1.002622,0.041412
1276,1697066737,-0.748981,-0.212066,0.600613,-0.182560,-0.728415,0.593700,-0.897687
1277,1697100071,-0.753185,-0.214643,0.589587,-0.197578,-0.074627,0.246079,-0.887824
1278,1697133405,-0.756388,-0.217651,0.579541,-0.211297,0.000656,0.297969,-1.224557
1279,1697166739,-0.757796,-0.218800,0.573163,-0.222181,-0.172163,-0.086972,-1.527147
1280,1697200073,-0.755809,-0.218919,0.572373,-0.230705,-0.143222,-0.633251,-1.700776
1281,1697233407,-0.750309,-0.221237,0.575538,-0.238447,-0.293141,-1.495542,-1.228568
1282,1697266741,-0.742033,-0.228866,0.579527,-0.247317,0.235893,-1.984251,-0.053180
1283,1697300075,-0.731500,-0.239582,0.584749,-0.256099,-0.070809,-1.838847,0.783825
1284,1697333409,-0.721400,-0.251996,0.588197,-0.264789,-0.296895,-0.640074,1.705218
1285,1697366743,-0.715467,-0.264954,0.588596,-0.267341,-2.613942,2.649623,4.786423
1286,1697400077,-0.717252,-0.276059,0.581730,-0.266345,-2.077779,1.117920,6.984041
1287,1697433411,-0.715163,-0.284217,0.576969,-0.273639,0.046069,2.016740,-4.306240
1288,1697466745,-0.703883,-0.277753,0.595615,-0.269544,1.768676,2.448247,-6.878136
1289,1697500079,-0.694761,-0.261631,0.619847,-0.254276,4.591274,1.350875,0.564589
1290,1697533413,-0.689302,-0.254982,0.632378,-0.244857,2.590169,1.130957,2.898562
1291,1697566747,-0.680378,-0.266078,0.634364,-0.252744,-0.920723,1.284395,-0.869193
1292,1697600081,-0.669930,-0.271120,0.643780,-0.251485,-0.412268,2.340996,-1.028966
1293,1697633415,-0.662928,-0.263934,0.660523,-0.233633,0.260394,1.618833,0.243329
1294,1697666749,-0.655842,-0.252951,0.678567,-0.213175,0.677537,0.404609,-0.125425
1295,1697700083,-0.647869,-0.244573,0.694505,-0.195251,1.318407,-0.327451,0.047458
1296,1697733417,-0.641394,-0.238996,0.706167,-0.181198,1.811881,-0.674671,0.297953
1297,1697766751,-0.636901,-0.235578,0.713821,-0.171257,0.881439,-0.535935,0.155615
1298,1697800085,-0.633397,-0.231623,0.720404,-0.161820,-0.173110,-0.671266,-0.017400
1299,1697833419,-0.628545,-0.225820,0.728598,-0.151956,0.483937,-0.740392,-0.266368
1300,1697866753,-0.622900,-0.219742,0.737288,-0.141857,0.619009,-0.559905,0.185247
1301,1697900087,-0.616701,-0.215152,0.745802,-0.131066,0.345601,-0.178605,0.105702
1302,1697933421,-0.609807,-0.214183,0.753097,-0.122944,0.365356,-0.079059,-0.432709
1303,1697966755,-0.601607,-0.214712,0.760976,-0.113548,0.254478,0.307347,0.051783
1304,1698000089,-0.593738,-0.216285,0.768351,-0.101696,-0.191538,0.002642,-0.058118
1305,1698033423,-0.585230,-0.217094,0.776272,-0.088241,-0.218318,-0.717348,0.048683
1306,1698066757,-0.576907,-0.216799,0.783872,-0.075698,-0.067068,-1.544036,0.218887
1307,1698100091,-0.570560,-0.214468,0.790241,-0.063191,-0.806162,-2.265215,-0.143837
1308,1698133425,-0.566976,-0.209776,0.795009,-0.050026,-1.345004,-2.569362,0.467401
1309,1698166759,-0.568991,-0.205604,0.795176,-0.041000,-1.238891,-2.349557,1.583076
1310,1698200093,-0.577581,-0.201353,0.790264,-0.036751,0.137127,-2.948512,1.949743
1311,1698233427,-0.595636,-0.198165,0.777409,-0.039907,-0.411869,-1.426936,0.829686
1312,1698266761,-0.619930,-0.204233,0.755685,-0.054088,-2.590024,-0.088912,-0.418868
1313,1698300095,-0.647324,-0.203811,0.731656,-0.064200,-0.592111,-0.048404,1.140532
1314,1698333429,-0.674118,-0.187061,0.711685,-0.063923,2.493444,-0.311936,1.441467
1315,1698366763,-0.695116,-0.173951,0.693781,-0.072332,3.475238,0.126181,3.005379
1316,1698400097,-0.711004,-0.181919,0.671283,-0.103770,2.847933,0.088484,2.359369
1317,1698433431,-0.721185,-0.201754,0.646259,-0.146789,1.354315,1.214069,0.066193
1318,1698466765,-0.727500,-0.213902,0.625985,-0.182049,0.480319,1.728387,-1.112419
1319,1698500099,-0.732313,-0.216905,0.611017,-0.208177,0.740848,1.144434,-1.063287
1320,1698533433,-0.734576,-0.224065,0.596728,-0.232632,0.953462,0.919269,-0.413650
1321,1698566767,-0.734572,-0.238932,0.579807,-0.259130,0.221716,1.306414,-1.105725
1322,1698600101,-0.734265,-0.250377,0.566324,-0.278303,-0.626102,1.312714,-1.710069
1323,1698633435,-0.735446,-0.253619,0.559488,-0.285970,-0.591646,0.786560,-1.322738
1324,1698666769,-0.738442,-0.254854,0.553578,-0.288642,-0.366779,0.109205,-0.729656
1325,1698700103,-0.740484,-0.258760,0.546317,-0.293724,-1.412563,-0.376473,-1.272158
1326,1698733437,-0.739151,-0.264943,0.541695,-0.300062,-0.489991,-1.317801,-1.098371
1327,1698766771,-0.734926,-0.267350,0.544925,-0.302445,0.597716,-0.627581,-0.764861
1328,1698800105,-0.727827,-0.274339,0.548267,-0.307278,1.679716,-0.720645,-0.449489
1329,1698833439,-0.716766,-0.288363,0.550106,-0.316995,0.746891,-0.820352,-0.210276
1330,1698866773,-0.703250,-0.306290,0.552392,-0.326341,-0.037405,-0.023524,1.426496
1331,1698900107,-0.692888,-0.322262,0.555409,-0.328001,-1.336170,1.428769,5.193905
1332,1698933441,-0.688274,-0.336158,0.550977,-0.331225,-2.085349,1.309073,5.901304
1333,1698966775,-0.683854,-0.339421,0.552267,-0.334884,-1.686027,1.094992,-5.776361
1334,1699000109,-0.672492,-0.337004,0.573063,-0.325257,1.256865,2.078673,-5.096026
1335,1699033443,-0.662769,-0.326313,0.599917,-0.307191,4.301368,2.062398,2.533516
1336,1699066777,-0.656060,-0.327890,0.610901,-0.298133,0.788514,1.172868,1.451450
1337,1699100111,-0.645654,-0.342039,0.612157,-0.302346,-0.345446,0.652566,-1.106264
1338,1699133445,-0.634340,-0.351073,0.619488,-0.301005,0.709674,1.700288,-0.852344
1339,1699166779,-0.627965,-0.350447,0.631658,-0.289593,0.441484,1.225634,0.434830
1340,1699200113,-0.622590,-0.345976,0.645821,-0.274966,0.553240,0.474009,0.171887
1341,1699233447,-0.614905,-0.343647,0.660163,-0.260755,0.503141,0.886571,-0.004756
1342,1699266781,-0.608003,-0.343252,0.671817,-0.247352,1.321193,0.908159,0.099650
1343,1699300115,-0.602465,-0.344305,0.679591,-0.238023,1.210335,0.309732,0.084599
1344,1699333449,-0.596885,-0.344782,0.686627,-0.231100,-0.289432,-0.242734,0.141528
1345,1699366783,-0.591613,-0.341642,0.696206,-0.220411,-0.202060,-0.629722,0.013696
1346,1699400117,-0.587517,-0.337565,0.705521,-0.207663,0.552327,-0.635789,0.157598
1347,1699433451,-0.583484,-0.334476,0.713590,-0.196141,0.878459,-0.854418,-0.089916
1348,1699466785,-0.578819,-0.333032,0.720416,-0.187266,0.848063,-1.081079,-0.126558
1349,1699500119,-0.573747,-0.332899,0.726155,-0.180835,-0.005535,-1.109652,-0.100254
1350,1699533453,-0.569426,-0.331337,0.732252,-0.172588,-0.304426,-1.357886,-0.475532
1351,1699566787,-0.565981,-0.327653,0.739258,-0.160672,0.304861,-1.643600,-0.219326
1352,1699600121,-0.563354,-0.324396,0.744745,-0.150878,0.107137,-1.490010,0.376025
1353,1699633455,-0.561619,-0.323891,0.747543,-0.144454,0.356442,-1.924504,0.389279
1354,1699666789,-0.562525,-0.323184,0.747800,-0.141143,2.090862,-1.581867,3.309285
1355,1699700123,-0.565175,-0.330045,0.739375,-0.158056,-1.060539,-1.706817,2.551469
1356,1699733457,-0.577092,-0.337838,0.721092,-0.181290,-3.580490,-0.768649,0.338869
1357,1699766791,-0.602559,-0.338110,0.696284,-0.194429,-4.149238,0.181716,-1.391808
1358,1699800125,-0.635148,-0.318439,0.678315,-0.187305,-0.156076,0.450135,0.923981
1359,1699833459,-0.664963,-0.292745,0.663726,-0.177769,4.424493,-0.124813,2.334457
1360,1699866793,-0.682643,-0.289989,0.642348,-0.193140,3.748805,0.796184,2.148497
1361,1699900127,-0.690444,-0.306399,0.614536,-0.227512,1.603010,1.378931,0.610487
1362,1699933461,-0.694644,-0.320128,0.589353,-0.260117,0.041891,1.695786,-0.699327
1363,1699966795,-0.699113,-0.320728,0.573549,-0.281824,-0.016050,1.507190,-1.198524
1364,1700000129,-0.702015,-0.318374,0.562287,-0.299425,0.885841,1.387592,-0.853040
1365,1700033463,-0.702134,-0.326540,0.545548,-0.320570,0.443089,1.143047,-1.115509
1366,1700066797,-0.700774,-0.339848,0.526644,-0.340697,-0.553449,1.150053,-1.292089
1367,1700100131,-0.700817,-0.346763,0.514612,-0.351845,-1.296387,0.830372,-1.335552
1368,1700133465,-0.703071,-0.346395,0.509289,-0.355437,-0.905652,0.370993,-1.010653
1369,1700166799,-0.705259,-0.346120,0.506009,-0.356055,-0.457058,-0.313838,-0.507542
1370,1700200133,-0.705022,-0.351867,0.500263,-0.358998,-0.411949,-0.991914,-0.329953
1371,1700233467,-0.702960,-0.357214,0.497410,-0.361717,0.127431,-2.106256,-0.254359
1372,1700266801,-0.698309,-0.360781,0.498205,-0.366064,0.499163,-1.785733,0.280584
1373,1700300135,-0.689110,-0.367337,0.499339,-0.375314,0.665648,-1.144317,-0.083755
1374,1700333469,-0.677233,-0.376376,0.499800,-0.387176,0.969427,-0.589919,-0.112223
1375,1700366803,-0.664240,-0.389380,0.497512,-0.399575,0.181507,-0.085367,2.021054
1376,1700400137,-0.653913,-0.404882,0.488973,-0.411563,-0.632322,-0.113457,8.016806
1377,1700433471,-0.646958,-0.416784,0.471756,-0.430339,-3.163911,3.664382,-1.523252
1378,1700466805,-0.636162,-0.424286,0.477348,-0.432929,-2.715333,0.536845,-7.206833
1379,1700500139,-0.625282,-0.423183,0.499846,-0.424385,2.865946,2.790128,-0.569854
1380,1700533473,-0.614245,-0.425460,0.517971,-0.416417,2.251095,3.293717,3.263735
1381,1700566807,-0.604040,-0.433664,0.523552,-0.415901,0.404231,0.808444,-0.368963
1382,1700600141,-0.591795,-0.446260,0.525061,-0.418273,0.469174,0.727747,-1.254326
1383,1700633475,-0.581853,-0.456291,0.530721,-0.414235,0.381674,1.330195,-0.167547
1384,1700666809,-0.575328,-0.461495,0.539804,-0.405761,0.472399,0.317079,0.344262
1385,1700700143,-0.568908,-0.464586,0.551988,-0.394743,0.974133,0.795409,-0.116276
1386,1700733477,-0.562665,-0.467908,0.564077,-0.382487,1.232572,0.703086,-0.122778
1387,1700766811,-0.555957,-0.475345,0.570575,-0.373379,1.012297,1.019410,0.083611
1388,1700800145,-0.548914,-0.484785,0.573331,-0.367392,0.971368,0.830493,-0.126595
1389,1700833479,-0.541246,-0.493667,0.576829,-0.361419,0.328316,0.446217,-0.086267
1390,1700866813,-0.533584,-0.501126,0.582059,-0.354088,-0.247459,0.195982,0.218256
1391,1700900147,-0.529968,-0.503165,0.590577,-0.342325,0.062501,-0.553766,0.206833
1392,1700933481,-0.528503,-0.501490,0.601118,-0.328419,0.704280,-0.823738,0.335107
1393,1700966815,-0.526584,-0.499769,0.609996,-0.317575,1.348765,-0.405306,0.130980
1394,1701000149,-0.523655,-0.500385,0.616423,-0.308922,1.128039,-0.301714,-0.295092
1395,1701033483,-0.520335,-0.502792,0.622653,-0.297934,0.585930,-0.982906,-0.266910
1396,1701066817,-0.517076,-0.504146,0.631527,-0.282228,0.591068,-1.531843,-0.247366
1397,1701100151,-0.514832,-0.503617,0.640834,-0.265817,0.902423,-1.840779,-0.242449
1398,1701133485,-0.513812,-0.502921,0.647632,-0.252290,1.886682,-1.363052,0.129204
1399,1701166819,-0.514938,-0.501108,0.651124,-0.244491,1.972839,1.126942,1.720170
1400,1701200153,-0.513062,-0.504105,0.647631,-0.251453,-0.154527,0.585453,2.738896
1401,1701233487,-0.513048,-0.508621,0.638637,-0.265027,-1.060254,-1.296352,1.281870
1402,1701266821,-0.522209,-0.506603,0.628747,-0.274478,-1.991392,-1.249469,-0.135033
1403,1701300155,-0.540331,-0.496950,0.619258,-0.278589,-1.700601,-1.575697,-1.043088
1404,1701333489,-0.562175,-0.485077,0.607284,-0.282621,0.505912,-1.348999,0.505803
1405,1701366823,-0.583025,-0.475520,0.591195,-0.290621,2.923261,0.426889,1.498574
1406,1701400157,-0.597913,-0.474542,0.568182,-0.307391,2.589315,1.952883,1.438388
1407,1701433491,-0.601587,-0.481899,0.543333,-0.332663,0.906420,1.782173,0.632599
1408,1701466825,-0.600406,-0.487194,0.523521,-0.357897,0.276279,1.269885,0.331882
1409,1701500159,-0.597501,-0.488298,0.509061,-0.381344,0.386098,0.870155,-0.201640
1410,1701533493,-0.591390,-0.490668,0.494717,-0.405914,0.637978,1.524365,-0.715969
1411,1701566827,-0.583615,-0.494996,0.476592,-0.432715,0.450525,2.108842,0.032086
1412,1701600161,-0.576952,-0.497621,0.458152,-0.457828,-0.238888,0.666242,-0.137650
1413,1701633495,-0.573234,-0.495793,0.444476,-0.477538,-1.006914,-0.301652,0.110236
1414,1701666829,-0.572806,-0.490881,0.432755,-0.493621,-0.824540,-0.675249,-0.323565
1415,1701700163,-0.572348,-0.485752,0.420924,-0.509211,-0.116758,-0.037046,-0.365810
1416,1701733497,-0.571291,-0.482210,0.407831,-0.524198,0.000862,0.436748,-0.466954
1417,1701766831,-0.570141,-0.479818,0.396074,-0.536516,-0.059733,0.201346,-1.215701
1418,1701800165,-0.568056,-0.477735,0.390327,-0.544734,0.324636,-0.333091,-1.505860
1419,1701833499,-0.562060,-0.477861,0.388689,-0.551968,1.240107,-0.852475,-0.807221
1420,1701866833,-0.551465,-0.482790,0.385524,-0.560518,1.544561,-1.119564,-0.188644
1421,1701900167,-0.538296,-0.490654,0.380781,-0.569659,1.181621,-0.404516,-0.631715
1422,1701933501,-0.522332,-0.502240,0.376455,-0.577249,0.400552,-0.231896,-1.130396
1423,1701966835,-0.503159,-0.517536,0.372042,-0.583593,-0.071840,0.453723,-0.074109
1424,1702000169,-0.490221,-0.530671,0.366876,-0.586073,-1.720610,-0.554214,6.566839
1425,1702033503,-0.481964,-0.538116,0.352185,-0.595077,-3.852556,0.274935,3.742487
1426,1702066837,-0.474021,-0.544124,0.354249,-0.594769,-3.146322,-0.688144,-6.630659
1427,1702100171,-0.467100,-0.550895,0.373672,-0.581989,0.088341,3.386464,-2.497711
1428,1702133505,-0.465219,-0.552817,0.399683,-0.564116,0.399042,3.828737,3.266091
1429,1702166839,-0.459156,-0.560324,0.403256,-0.559112,-0.232582,0.225899,0.696662
1430,1702200173,-0.448634,-0.571669,0.400462,-0.558177,-0.655097,0.760362,-1.105949
1431,1702233507,-0.443682,-0.579539,0.407028,-0.549198,-0.651762,1.446730,-0.530195
1432,1702266841,-0.442887,-0.584228,0.417111,-0.537175,-0.178673,0.806620,0.409446
1433,1702300175,-0.442711,-0.587031,0.430485,-0.523539,0.007801,0.767220,0.192575
1434,1702333509,-0.442855,-0.590361,0.442286,-0.509653,0.317185,0.920593,0.172215
1435,1702366843,-0.441531,-0.595508,0.448867,-0.498947,0.585126,1.308771,0.216970
1436,1702400177,-0.439041,-0.600942,0.451809,-0.491925,0.657964,0.926264,-0.090554
1437,1702433511,-0.436296,-0.605645,0.454898,-0.485713,0.391535,0.231663,0.057719
1438,1702466845,-0.434764,-0.608935,0.460679,-0.477454,0.154766,-0.153492,0.112602
1439,1702500179,-0.436349,-0.610371,0.470341,-0.464582,-0.043324,-0.214532,0.062658
1440,1702533513,-0.439482,-0.611780,0.481431,-0.448123,0.680240,0.386489,0.006738
1441,1702566847,-0.440390,-0.614594,0.490155,-0.433692,1.367193,0.594226,0.189809
1442,1702600181,-0.438960,-0.618939,0.494865,-0.423493,1.263512,-0.240916,0.084943
1443,1702633515,-0.438465,-0.622713,0.499634,-0.412738,1.043830,-0.984256,-0.139141
1444,1702666849,-0.440855,-0.623853,0.507240,-0.398963,1.226993,-1.129325,0.027085
1445,1702700183,-0.445837,-0.621903,0.516190,-0.384737,1.779025,-0.866123,0.093178
1446,1702733517,-0.450462,-0.619864,0.522264,-0.374303,1.934371,-0.416330,0.024531
1447,1702766851,-0.453358,-0.619233,0.523369,-0.370286,1.537375,0.083503,1.032083
1448,1702800185,-0.453188,-0.620745,0.519111,-0.373938,1.924905,0.220528,2.000896
1449,1702833519,-0.452507,-0.621185,0.508970,-0.387718,1.127854,-0.647140,1.496671
1450,1702866853,-0.454261,-0.618825,0.493604,-0.408739,-0.947156,-1.966697,-0.317258
1451,1702900187,-0.462932,-0.612759,0.473788,-0.430992,-1.973544,-2.854086,-1.015478
1452,1702933521,-0.484128,-0.596213,0.462577,-0.442925,0.159388,-0.598579,0.260087
1453,1702966855,-0.508262,-0.575828,0.456250,-0.449374,1.068176,2.270729,2.868152
1454,1703000189,-0.520087,-0.563544,0.438692,-0.468493,1.548168,3.701606,1.860833
1455,1703033523,-0.512657,-0.565198,0.409786,-0.499819,-0.011623,2.685414,0.839671
1456,1703066857,-0.499997,-0.568189,0.383109,-0.529529,-0.711643,1.265903,-0.320063
1457,1703100191,-0.487735,-0.567966,0.364523,-0.553771,-0.948850,1.003633,-0.743871
1458,1703133525,-0.474989,-0.566314,0.351406,-0.574628,-0.730707,1.806142,-0.499479
1459,1703166859,-0.459542,-0.566801,0.335596,-0.595772,-0.551789,1.586499,-0.206611
1460,1703200193,-0.443048,-0.569125,0.316509,-0.616146,-0.858168,0.499759,-0.160524
1461,1703233527,-0.432398,-0.568534,0.302044,-0.631332,-1.635662,-0.627238,-0.373286
1462,1703266861,-0.428471,-0.564107,0.293723,-0.641819,-1.408869,-1.232891,-1.341356
1463,1703300195,-0.427831,-0.559377,0.287935,-0.648969,-0.815350,-0.818349,-0.947299
1464,1703333529,-0.427567,-0.556369,0.281577,-0.654496,-0.428724,-0.539917,-0.990618
1465,1703366863,-0.426450,-0.555257,0.276263,-0.658421,0.572406,0.114452,-1.005871
1466,1703400197,-0.422376,-0.554852,0.276130,-0.661438,2.141615,0.224376,-0.690010
