sep=,
DeviceTag:,23_Right
FirmwareVersion:,2.2.1
AppVersion:,2023.6.0
SyncStatus:,Synced
OutputRate:,30Hz
FilterProfile:,General
Measurement Mode:,Sensor fusion Mode - Complete(Quaternion)
StartTime: ,2026-05-27_15:46:26_961 AEST
© Movella Technologies B. V. 2005-2026

PacketCounter,SampleTimeFine,Quat_W,Quat_X,Quat_Y,Quat_Z,FreeAcc_X,FreeAcc_Y,FreeAcc_Z
1,1360387339,-0.327937,0.366947,-0.354320,-0.795171,0.022496,0.338102,-0.316438
2,1360420673,-0.325872,0.367129,-0.354881,-0.795685,0.117322,0.270436,-0.569168
3,1360454007,-0.324591,0.368460,-0.355866,-0.795153,0.187181,0.350261,-0.525776
4,1360487341,-0.324391,0.370474,-0.357012,-0.793784,-0.040396,0.245148,-0.563429
5,1360520675,-0.324756,0.374351,-0.358538,-0.791124,-0.010680,0.108443,-0.427956
6,1360554009,-0.325878,0.378804,-0.359790,-0.787968,0.008078,0.188440,-0.122208
7,1360587343,-0.327795,0.382653,-0.360419,-0.785021,-0.095390,-0.000145,-0.016257
8,1360620677,-0.329662,0.387268,-0.361016,-0.781694,-0.125719,-0.115629,0.218334
9,1360654011,-0.330439,0.392855,-0.362171,-0.778035,-0.149529,-0.078562,0.627350
10,1360687345,-0.331109,0.396062,-0.362898,-0.775783,-0.251967,-0.244303,0.726905
11,1360720679,-0.331295,0.397681,-0.363858,-0.774424,-0.478825,-0.220802,0.547757
12,1360754013,-0.331240,0.398641,-0.365909,-0.772986,-0.554330,-0.065514,0.551881
13,1360787347,-0.332145,0.397445,-0.368552,-0.771957,-0.730240,-0.016528,0.168592
14,1360820681,-0.334211,0.395815,-0.372496,-0.770008,-0.956362,0.013855,-0.159016
15,1360854015,-0.338084,0.393711,-0.377861,-0.766775,-1.101492,0.036899,-0.111441
16,1360887349,-0.344909,0.389509,-0.384180,-0.762730,-1.387952,-0.034431,-0.020362
17,1360920683,-0.354169,0.384117,-0.391575,-0.757442,-1.041522,-0.126984,0.102146
18,1360954017,-0.363940,0.379666,-0.401005,-0.750085,-0.738883,-0.259104,1.052555
19,1360987351,-0.372045,0.374690,-0.412106,-0.742557,-0.240468,-0.217504,1.538460
20,1361020685,-0.376711,0.368852,-0.424759,-0.735968,0.013158,-0.759977,1.137034
21,1361054019,-0.375118,0.367801,-0.440665,-0.727911,-0.178143,-1.136592,0.865478
22,1361087353,-0.369554,0.368177,-0.457249,-0.720299,-0.183292,-1.064286,0.820920
23,1361120687,-0.362450,0.367422,-0.472879,-0.714177,-0.576922,-0.894379,0.211798
24,1361154021,-0.356966,0.364296,-0.486740,-0.709211,-0.542439,-0.594579,0.226191
25,1361187355,-0.355065,0.357648,-0.498126,-0.705634,-0.370968,-0.356317,-0.452443
26,1361220689,-0.354330,0.353127,-0.509116,-0.700417,0.316773,-0.168722,-1.059433
27,1361254023,-0.351698,0.353674,-0.521199,-0.692537,0.884248,1.441011,0.351419
28,1361287357,-0.354354,0.347040,-0.528290,-0.689157,0.946496,0.688204,-0.347360
29,1361320691,-0.357748,0.339136,-0.531985,-0.688496,0.878196,0.358830,-1.194329
30,1361354025,-0.355347,0.340144,-0.536713,-0.685567,1.185075,0.470133,-1.679930
31,1361387359,-0.346155,0.351570,-0.543111,-0.679439,1.556561,0.872213,-1.430190
32,1361420693,-0.335750,0.365318,-0.546498,-0.674674,1.895152,1.380621,-1.105791
33,1361454027,-0.326268,0.377922,-0.546562,-0.672328,1.044783,1.957974,-1.263764
34,1361487361,-0.321731,0.385720,-0.542306,-0.673532,0.741878,1.757894,-1.088575
35,1361520695,-0.319373,0.391673,-0.534040,-0.677810,1.027302,0.694607,-1.718273
36,1361554029,-0.312763,0.404877,-0.524495,-0.680581,0.502477,0.725027,-0.401543
37,1361587363,-0.308047,0.416254,-0.512545,-0.684959,-0.720761,1.357473,0.466120
38,1361620697,-0.308396,0.418799,-0.499931,-0.692532,-0.441031,0.663983,0.235458
39,1361654031,-0.308795,0.420301,-0.490712,-0.698016,-0.237926,-0.541242,0.205066
40,1361687365,-0.305770,0.427222,-0.485687,-0.698659,0.169001,-0.428954,-0.086679
41,1361720699,-0.299731,0.439549,-0.483222,-0.695332,-0.422532,-0.317495,0.272697
42,1361754033,-0.295303,0.449208,-0.479239,-0.693808,-1.255588,-0.183272,0.862514
43,1361787367,-0.296594,0.450165,-0.473126,-0.696827,-1.865503,0.043268,0.876959
44,1361820701,-0.305490,0.442005,-0.466289,-0.702790,-1.765559,-0.234057,0.721980
45,1361854035,-0.319272,0.427795,-0.459625,-0.709812,-0.773521,-0.750674,0.621078
46,1361887369,-0.332029,0.414763,-0.454190,-0.715172,-0.502119,-0.955945,0.212015
47,1361920703,-0.340230,0.407661,-0.451522,-0.717088,-0.349381,-1.014722,0.080792
48,1361954037,-0.343455,0.405616,-0.452525,-0.716078,-0.364051,-0.798223,0.687599
49,1361987371,-0.343449,0.405042,-0.456885,-0.713633,-0.196603,-0.937029,0.969831
50,1362020705,-0.340696,0.404537,-0.463509,-0.710962,-0.109608,-1.043235,0.781178
51,1362054039,-0.336445,0.403616,-0.471751,-0.708084,-0.312189,-0.877160,0.544439
52,1362087373,-0.330662,0.403293,-0.481301,-0.704555,-0.084777,-0.748915,0.115189
53,1362120707,-0.324004,0.403494,-0.490995,-0.700835,-0.297834,-0.370320,0.119225
54,1362154041,-0.319562,0.401045,-0.499657,-0.698153,-0.493716,-0.339609,-0.076052
55,1362187375,-0.317827,0.396199,-0.507020,-0.696401,-0.670185,-0.277618,-0.046299
56,1362220709,-0.318111,0.390188,-0.513291,-0.695070,0.035671,-0.013657,-0.618015
57,1362254043,-0.317597,0.387354,-0.519420,-0.692332,0.460657,0.383908,-0.456284
58,1362287377,-0.316680,0.386434,-0.524266,-0.689608,0.623932,0.739939,-0.301908
59,1362320711,-0.315071,0.386005,-0.527001,-0.688500,1.118252,0.795377,-0.658830
60,1362354045,-0.313036,0.386610,-0.526634,-0.689368,1.275385,0.762018,-0.935615
61,1362387379,-0.310487,0.388584,-0.523538,-0.691766,1.007313,0.917490,-1.203450
62,1362420713,-0.308064,0.391685,-0.518559,-0.694844,0.781048,0.683763,-1.409160
63,1362454047,-0.304937,0.397967,-0.513024,-0.696760,0.681522,0.756899,-1.241860
64,1362487381,-0.299982,0.407906,-0.507725,-0.697044,0.884247,0.699758,-0.648960
65,1362520715,-0.293340,0.420595,-0.501471,-0.696857,1.165234,0.569109,-0.477029
66,1362554049,-0.285629,0.436294,-0.493111,-0.696374,0.579425,1.511461,-0.785586
67,1362587383,-0.279681,0.451015,-0.483778,-0.695956,0.385082,1.602610,-1.135919
68,1362620717,-0.273782,0.468729,-0.476722,-0.691451,0.117667,1.267141,-1.442396
69,1362654051,-0.267759,0.490134,-0.471943,-0.682184,-0.145696,0.210957,-0.507972
70,1362687385,-0.262724,0.512464,-0.468026,-0.670328,-0.481652,-0.074694,0.166583
71,1362720719,-0.259673,0.532780,-0.464105,-0.658297,-0.930888,-0.959353,0.903188
72,1362754053,-0.258423,0.549833,-0.459306,-0.648052,-1.171299,-1.150582,1.207096
73,1362787387,-0.258586,0.564077,-0.454206,-0.639280,-1.390572,-2.026875,0.908405
74,1362820721,-0.254970,0.580998,-0.450505,-0.628099,-1.100424,-2.254949,0.458956
75,1362854055,-0.246503,0.602479,-0.449000,-0.612116,-1.577941,-1.467211,1.125291
76,1362887389,-0.240048,0.618221,-0.447947,-0.599629,-1.373744,-0.851724,1.956352
77,1362920723,-0.241035,0.619481,-0.445898,-0.599460,-1.165789,-1.035791,1.210294
78,1362954057,-0.244211,0.614562,-0.445966,-0.603176,-0.596402,-0.883060,0.308034
79,1362987391,-0.245084,0.610917,-0.450324,-0.603286,-0.413176,-0.704962,0.270758
80,1363020725,-0.245219,0.606734,-0.457509,-0.602045,-0.180927,-0.201126,0.433279
81,1363054059,-0.246957,0.600190,-0.466106,-0.601299,-0.368236,0.143112,-0.277009
82,1363087393,-0.251345,0.592305,-0.474952,-0.600377,-0.081934,0.241841,-0.917742
83,1363120727,-0.258369,0.584421,-0.482601,-0.599021,-0.222579,0.156372,-0.981091
84,1363154061,-0.266422,0.577840,-0.489197,-0.596522,-0.267400,-0.094449,-1.009622
85,1363187395,-0.274035,0.573688,-0.495209,-0.592103,-0.356035,-0.568586,-0.515678
86,1363220729,-0.278199,0.573980,-0.502675,-0.583525,0.057133,-0.628520,-0.546068
87,1363254063,-0.278109,0.579311,-0.512141,-0.569910,0.339796,-0.250610,-0.539163
88,1363287397,-0.278764,0.584680,-0.520216,-0.556639,0.487145,0.249556,-0.659361
89,1363320731,-0.280729,0.589345,-0.525846,-0.545326,1.149202,1.056504,-0.446902
90,1363354065,-0.282489,0.594943,-0.528495,-0.535693,1.538251,1.575731,-0.541108
91,1363387399,-0.286707,0.600133,-0.525862,-0.530227,1.565234,1.316137,-1.052906
92,1363420733,-0.293731,0.604485,-0.517442,-0.529722,1.301919,1.245795,-1.275731
93,1363454067,-0.301462,0.610592,-0.505638,-0.529773,1.196977,0.381962,-1.830090
94,1363487401,-0.308765,0.619972,-0.491710,-0.527780,1.797669,0.622549,-1.637144
95,1363520735,-0.314256,0.632672,-0.475545,-0.524269,1.643405,1.046925,-1.005038
96,1363554069,-0.317373,0.649086,-0.456824,-0.518947,1.173156,1.036817,-0.891489
97,1363587403,-0.318169,0.668396,-0.436220,-0.511624,0.010358,0.966347,0.068803
98,1363620737,-0.319167,0.686141,-0.415742,-0.504514,-0.885203,0.189183,0.907152
99,1363654071,-0.320211,0.701524,-0.399033,-0.496119,-1.889877,-0.669461,1.656376
100,1363687405,-0.321537,0.712990,-0.389302,-0.486555,-2.935600,-1.706167,2.330861
101,1363720739,-0.324456,0.716592,-0.386428,-0.481590,-2.944811,-2.334570,2.600768
102,1363754073,-0.327796,0.714497,-0.389599,-0.479884,-2.427638,-2.254542,1.719815
103,1363787407,-0.331357,0.708909,-0.397162,-0.479525,-1.775095,-1.774387,0.937126
104,1363820741,-0.335167,0.700771,-0.406985,-0.480601,-1.112094,-1.488528,0.017728
105,1363854075,-0.338955,0.691631,-0.418163,-0.481587,-0.423781,-0.993938,-0.520995
106,1363887409,-0.343645,0.681734,-0.429565,-0.482341,-0.063520,-0.398721,-1.009940
107,1363920743,-0.349621,0.671838,-0.440489,-0.482079,0.525791,0.000655,-1.687153
108,1363954077,-0.355127,0.665616,-0.451201,-0.476749,1.325910,0.802248,-1.161735
109,1363987411,-0.360649,0.661999,-0.459899,-0.469270,1.325032,0.977864,-0.633618
110,1364020745,-0.364718,0.660096,-0.466486,-0.462251,1.580630,1.406796,-0.274281
111,1364054079,-0.365697,0.660649,-0.472387,-0.454633,1.577482,1.324657,0.081977
112,1364087413,-0.367703,0.660090,-0.473524,-0.452639,1.509544,0.855098,0.109871
113,1364120747,-0.367834,0.660691,-0.472036,-0.453211,1.412419,0.903075,-0.400532
114,1364154081,-0.365971,0.663957,-0.468279,-0.453843,1.257828,0.924818,-0.346650
115,1364187415,-0.363568,0.669211,-0.461521,-0.454977,0.975974,0.983393,-0.588303
116,1364220749,-0.359752,0.677478,-0.453528,-0.453812,0.863343,1.159152,-0.566492
117,1364254083,-0.355082,0.688168,-0.443674,-0.451139,0.646361,0.892447,-0.497422
118,1364287417,-0.351293,0.699536,-0.429370,-0.450462,0.512938,0.750048,-0.724354
119,1364320751,-0.347394,0.712097,-0.412041,-0.449988,-0.184980,0.512815,-0.521413
120,1364354085,-0.344097,0.724899,-0.394127,-0.448123,-0.154484,-0.190926,-0.198548
121,1364387419,-0.341912,0.736311,-0.376151,-0.446636,-0.900262,-0.663541,0.303069
122,1364420753,-0.340834,0.744614,-0.360688,-0.446451,-1.695187,-1.444740,0.387456
123,1364454087,-0.340861,0.749326,-0.350316,-0.446805,-1.948219,-1.959016,0.722878
124,1364487421,-0.342387,0.749806,-0.346610,-0.447723,-2.086198,-2.220515,0.973056
125,1364520755,-0.343840,0.747514,-0.350722,-0.447238,-1.877900,-2.015136,1.045960
126,1364554089,-0.344642,0.742976,-0.360884,-0.446098,-1.674431,-1.595371,1.070449
127,1364587423,-0.345463,0.735524,-0.373866,-0.447119,-1.366001,-1.086236,0.638185
128,1364620757,-0.347065,0.725636,-0.387760,-0.450192,-0.762287,-0.467777,0.136465
129,1364654091,-0.349166,0.714550,-0.401884,-0.453897,-0.323121,-0.029595,-0.335954
130,1364687425,-0.351695,0.703309,-0.415698,-0.457049,0.274187,0.264940,-1.009976
131,1364720759,-0.354800,0.693388,-0.428456,-0.458026,0.421248,0.545893,-1.369036
132,1364754093,-0.358669,0.685162,-0.439595,-0.456834,1.021201,0.778504,-1.628407
133,1364787427,-0.362001,0.680653,-0.449183,-0.451589,1.365198,1.083139,-1.640123
134,1364820761,-0.365411,0.678590,-0.455872,-0.445200,1.335823,1.459306,-0.787896
135,1364854095,-0.369032,0.677287,-0.459109,-0.440849,1.630012,1.729959,-0.663465
136,1364887429,-0.371048,0.678329,-0.459937,-0.436672,1.691918,1.370257,-0.475452
137,1364920763,-0.372894,0.680575,-0.456663,-0.435039,1.419274,0.904118,-0.608331
138,1364954097,-0.373985,0.684559,-0.450297,-0.434487,1.120895,0.710544,-0.826829
139,1364987431,-0.373926,0.691083,-0.441838,-0.432892,1.107618,0.689118,-0.651578
140,1365020765,-0.373638,0.699372,-0.430027,-0.431720,0.717147,0.533012,-0.264437
141,1365054099,-0.374330,0.707843,-0.413301,-0.433648,0.535072,0.451996,-0.335002
142,1365087433,-0.374313,0.717477,-0.395716,-0.434231,-0.187275,0.008364,-0.049417
143,1365120767,-0.374073,0.726915,-0.379563,-0.433160,-0.102392,-0.628593,0.339573
144,1365154101,-0.373849,0.735016,-0.365389,-0.431869,-1.230958,-1.212228,0.809162
145,1365187435,-0.373497,0.740099,-0.354613,-0.432476,-1.627656,-1.655071,0.956252
146,1365220769,-0.372640,0.742521,-0.349187,-0.433478,-1.966534,-1.961296,1.358614
147,1365254103,-0.372364,0.741055,-0.349674,-0.435824,-1.950112,-1.967314,1.328587
148,1365287437,-0.372502,0.736290,-0.355490,-0.439067,-1.596525,-1.576788,0.968830
149,1365320771,-0.372058,0.729867,-0.365483,-0.441951,-1.114412,-1.089709,0.614222
150,1365354105,-0.371977,0.721529,-0.376717,-0.446257,-0.714014,-0.620594,0.009879
151,1365387439,-0.372671,0.711914,-0.388228,-0.451225,-0.301292,-0.171353,-0.593172
152,1365420773,-0.373937,0.702375,-0.399568,-0.455211,0.064730,0.252292,-0.996502
153,1365454107,-0.376123,0.693525,-0.409935,-0.457754,0.516376,0.520163,-1.299159
154,1365487441,-0.378877,0.686300,-0.418939,-0.458221,0.889583,0.843248,-1.383776
155,1365520775,-0.382436,0.680638,-0.425429,-0.457730,1.333600,1.213172,-1.129498
156,1365554109,-0.386045,0.676906,-0.429118,-0.456790,1.473819,1.465324,-1.119995
157,1365587443,-0.388555,0.675672,-0.430132,-0.455534,1.744988,1.539066,-1.063953
158,1365620777,-0.388841,0.677626,-0.429032,-0.453418,1.567306,1.533136,-0.756469
159,1365654111,-0.388420,0.680994,-0.424324,-0.453164,1.365162,1.185119,-0.892067
160,1365687445,-0.387770,0.686141,-0.415945,-0.453724,0.973727,0.933799,-0.919878
161,1365720779,-0.386356,0.693211,-0.404898,-0.454177,1.159852,0.750337,-0.827931
162,1365754113,-0.382907,0.703680,-0.392198,-0.452139,0.810778,0.592870,-0.138895
163,1365787447,-0.379558,0.714621,-0.375779,-0.451746,0.036427,0.245023,0.230823
164,1365820781,-0.377028,0.724084,-0.356826,-0.454156,-0.169827,-0.251740,0.177554
165,1365854115,-0.374262,0.733250,-0.338131,-0.456039,-0.723140,-0.632162,0.120889
166,1365887449,-0.372097,0.741114,-0.321576,-0.457072,-1.863940,-1.213745,0.432597
167,1365920783,-0.372150,0.744792,-0.308663,-0.459944,-2.365915,-1.664331,0.723658
168,1365954117,-0.374996,0.743766,-0.302859,-0.463140,-2.887244,-2.119654,0.678753
169,1365987451,-0.380031,0.739045,-0.307293,-0.463672,-3.200009,-2.231831,0.787714
170,1366020785,-0.386649,0.731066,-0.321615,-0.461129,-2.552706,-1.991709,0.988984
171,1366054119,-0.393405,0.720468,-0.344091,-0.455841,-1.825476,-1.202119,1.178660
172,1366087453,-0.398803,0.707364,-0.371002,-0.450535,-0.889550,-0.344295,0.972563
173,1366120787,-0.402892,0.691985,-0.396764,-0.448827,0.275231,0.432415,0.284569
174,1366154121,-0.407183,0.675299,-0.416701,-0.452288,1.724599,1.318251,-0.043221
175,1366187455,-0.411410,0.660371,-0.429530,-0.458462,2.381796,2.141395,-1.189044
176,1366220789,-0.414827,0.649957,-0.436229,-0.463907,2.723614,2.422514,-1.822425
177,1366254123,-0.418198,0.644650,-0.436849,-0.467689,3.213561,2.197000,-1.947809
178,1366287457,-0.421895,0.644911,-0.430641,-0.469760,2.795326,1.800964,-2.210023
179,1366320791,-0.425650,0.649752,-0.417292,-0.471745,2.496787,1.159468,-1.883937
180,1366354125,-0.429133,0.657924,-0.397155,-0.474638,2.415350,1.051701,-1.688887
181,1366387459,-0.429877,0.671530,-0.373844,-0.473841,1.816085,0.818606,-1.578503
182,1366420793,-0.429244,0.687250,-0.348484,-0.471198,-0.047783,-0.033628,-0.140533
183,1366454127,-0.429955,0.699485,-0.320598,-0.472342,0.124555,-0.592288,0.011718
184,1366487461,-0.429615,0.710135,-0.295668,-0.473024,-1.391111,-1.060688,0.879900
185,1366520795,-0.427733,0.718695,-0.277826,-0.472617,-2.023278,-1.914070,1.208581
186,1366554129,-0.425473,0.723378,-0.267843,-0.473274,-2.538150,-2.381198,1.335712
187,1366587463,-0.424421,0.723876,-0.265510,-0.474770,-2.375855,-2.376857,1.100893
188,1366620797,-0.424181,0.722121,-0.270325,-0.474941,-1.985792,-1.899724,0.708216
189,1366654131,-0.423645,0.720247,-0.281792,-0.471587,-1.637419,-1.424561,0.434787
190,1366687465,-0.422955,0.718049,-0.297074,-0.466148,-1.137401,-0.898252,0.611062
191,1366720799,-0.423393,0.712987,-0.311061,-0.464392,-0.203689,-0.499361,0.345720
192,1366754133,-0.424666,0.705423,-0.317896,-0.470118,0.817893,-0.033597,0.091306
193,1366787467,-0.425895,0.698013,-0.317791,-0.480033,0.806734,0.571921,-0.773409
194,1366820801,-0.425505,0.693501,-0.314890,-0.488752,1.557073,1.050908,-0.380175
195,1366854135,-0.424001,0.690756,-0.309786,-0.497135,2.023429,1.796716,-0.455633
196,1366887469,-0.421649,0.690076,-0.304339,-0.503405,1.894424,2.118027,-0.577950
197,1366920803,-0.417333,0.692867,-0.300418,-0.505519,1.798203,2.305458,-0.807467
198,1366954137,-0.411211,0.698228,-0.297027,-0.505163,1.092747,2.042141,-0.584686
199,1366987471,-0.404564,0.704224,-0.293100,-0.504501,0.327666,1.620512,-0.060003
200,1367020805,-0.397700,0.712051,-0.289360,-0.501119,-0.618341,0.979757,-0.212502
201,1367054139,-0.391682,0.720132,-0.284887,-0.496856,-1.740050,-0.110710,0.441938
202,1367087473,-0.388819,0.723003,-0.276341,-0.499754,-2.394085,-0.694956,0.896442
203,1367120807,-0.389461,0.720771,-0.267251,-0.507364,-2.747644,-1.003503,0.683813
204,1367154141,-0.393368,0.715582,-0.262316,-0.514224,-2.635083,-1.468421,0.159651
205,1367187475,-0.401419,0.708323,-0.263598,-0.517386,-2.319597,-1.735838,-0.221330
206,1367220809,-0.412355,0.700445,-0.272340,-0.514978,-1.772935,-1.483790,-0.876608
207,1367254143,-0.424688,0.692701,-0.287954,-0.506872,-0.742584,-1.176201,-0.735582
208,1367287477,-0.437408,0.683434,-0.307187,-0.497253,0.110956,-0.561349,-0.739562
209,1367320811,-0.451060,0.671092,-0.326350,-0.489600,0.307912,-0.441364,-1.098295
210,1367354145,-0.466916,0.655401,-0.340377,-0.486429,1.262735,0.339588,-1.508533
211,1367387479,-0.482887,0.642078,-0.349372,-0.482210,2.514345,1.360023,-1.143356
212,1367420813,-0.495839,0.634615,-0.353880,-0.475613,2.380818,1.770790,-0.361945
213,1367454147,-0.505516,0.629433,-0.349382,-0.475637,3.116212,1.359423,0.297304
214,1367487481,-0.510529,0.630903,-0.337921,-0.476616,2.586780,2.043134,-1.006725
215,1367520815,-0.511253,0.637025,-0.320494,-0.479723,1.552539,0.959416,0.157428
216,1367554149,-0.511007,0.641470,-0.291799,-0.492213,1.839967,0.429084,-0.125602
217,1367587483,-0.508060,0.647192,-0.257219,-0.506841,1.065802,0.490303,-1.287193
218,1367620817,-0.501938,0.657940,-0.224731,-0.514490,-0.290450,0.110165,-0.132956
219,1367654151,-0.494819,0.669440,-0.197607,-0.517676,-0.652014,-0.467807,0.719509
220,1367687485,-0.487283,0.681337,-0.180316,-0.515609,-0.951566,-0.752815,0.394402
221,1367720819,-0.478770,0.697555,-0.175699,-0.503347,-0.848877,-0.545662,0.234451
222,1367754153,-0.469345,0.716697,-0.181293,-0.482933,-1.102756,-0.813337,0.407555
223,1367787487,-0.461838,0.731639,-0.190904,-0.463678,-1.716667,-1.456025,0.552283
224,1367820821,-0.459253,0.737747,-0.200415,-0.452416,-1.964511,-1.482417,0.514288
225,1367854155,-0.462155,0.736019,-0.211478,-0.447211,-2.452077,-1.330629,0.049888
226,1367887489,-0.468686,0.729692,-0.225629,-0.443855,-1.618152,-0.976015,-0.156794
227,1367920823,-0.476085,0.722491,-0.242834,-0.438648,-0.928251,-0.693315,0.105968
228,1367954157,-0.483765,0.714770,-0.260156,-0.432927,-1.364918,-0.345361,0.572773
229,1367987491,-0.493304,0.702936,-0.271398,-0.434635,-0.431445,0.195862,0.530108
230,1368020825,-0.504101,0.689523,-0.275175,-0.441304,0.713543,0.669898,-0.460447
231,1368054159,-0.514526,0.678958,-0.273898,-0.446420,1.120510,1.083405,-1.078927
232,1368087493,-0.524115,0.672138,-0.268650,-0.448768,1.523067,1.386458,-0.627684
233,1368120827,-0.530925,0.669106,-0.259074,-0.450918,3.205284,1.691833,-0.278296
234,1368154161,-0.530542,0.673425,-0.242591,-0.454100,2.807880,1.760748,0.712186
235,1368187495,-0.522405,0.680520,-0.207094,-0.470244,1.525458,1.468133,2.545361
236,1368220829,-0.507068,0.682916,-0.155160,-0.502459,1.982467,2.247312,0.325627
237,1368254163,-0.489644,0.681910,-0.105930,-0.532972,-0.471925,0.148803,0.169353
238,1368287497,-0.475984,0.673338,-0.067824,-0.561682,-1.910269,-1.775206,-0.670390
239,1368320831,-0.468012,0.661474,-0.049092,-0.583986,-2.523286,-2.871568,0.210599
240,1368354165,-0.466280,0.654570,-0.056344,-0.592434,-2.343072,-2.972570,-0.657298
241,1368387499,-0.467868,0.658664,-0.088228,-0.582674,-2.135138,-3.540469,-0.386045
242,1368420833,-0.470833,0.657671,-0.124686,-0.574692,-0.900859,-3.903904,2.249160
243,1368454167,-0.478858,0.621940,-0.133283,-0.605106,0.224580,-1.807183,0.558146
244,1368487501,-0.488792,0.574627,-0.124215,-0.644583,0.446883,1.860128,-3.180840
245,1368520835,-0.499616,0.547065,-0.119760,-0.660903,0.691328,2.557149,-3.446866
246,1368554169,-0.510149,0.531220,-0.113062,-0.666934,1.653801,2.610161,-2.426501
247,1368587503,-0.518037,0.526559,-0.108468,-0.665311,2.572053,2.925929,-0.291973
248,1368620837,-0.521371,0.526316,-0.104695,-0.663502,3.380060,2.043824,0.870169
249,1368654171,-0.517452,0.525776,-0.098776,-0.667891,2.195914,1.644495,1.613123
250,1368687505,-0.506530,0.526799,-0.094348,-0.676048,1.252243,0.594702,0.749412
251,1368720839,-0.490909,0.527145,-0.090146,-0.687774,0.570190,0.230443,0.347110
252,1368754173,-0.472714,0.527117,-0.086219,-0.700919,-0.827873,-0.218990,-0.436240
253,1368787507,-0.453014,0.529971,-0.085652,-0.711762,-1.512375,-0.722050,-0.794147
254,1368820841,-0.433992,0.535164,-0.090598,-0.719078,-2.804202,-1.724322,-0.727982
255,1368854175,-0.418834,0.542443,-0.102984,-0.720943,-3.089882,-2.653226,0.272562
256,1368887509,-0.409481,0.550913,-0.124674,-0.716455,-2.466764,-2.911122,1.252482
257,1368920843,-0.404363,0.555240,-0.152516,-0.710612,-1.291019,-2.500603,1.658255
258,1368954177,-0.401070,0.555759,-0.183720,-0.704665,-1.440927,-1.582575,0.820230
259,1368987511,-0.398213,0.555778,-0.216688,-0.696861,-0.046592,-0.392575,-0.047050
260,1369020845,-0.396467,0.553811,-0.245794,-0.689728,0.530722,0.810237,0.122435
261,1369054179,-0.398487,0.545579,-0.263907,-0.688430,1.999018,1.719871,0.711493
262,1369087513,-0.404131,0.529791,-0.269087,-0.695431,1.700655,2.129628,-0.288479
263,1369120847,-0.409116,0.515968,-0.267012,-0.703659,1.693302,2.193702,-1.921414
264,1369154181,-0.410576,0.517257,-0.265049,-0.702605,0.861061,1.474269,-2.009455
265,1369187515,-0.412322,0.523615,-0.258431,-0.699330,0.226296,0.904011,-1.398043
266,1369220849,-0.415614,0.532055,-0.247797,-0.694847,-0.147549,0.599505,-1.317863
267,1369254183,-0.418906,0.544476,-0.237129,-0.686924,0.459285,0.785545,-0.800424
268,1369287517,-0.421727,0.560636,-0.226644,-0.675646,0.656624,0.698765,-0.647555
269,1369320851,-0.423444,0.578273,-0.217092,-0.662720,0.731867,0.724853,2.663345
270,1369354185,-0.423246,0.591834,-0.207396,-0.653922,-0.259477,-0.134295,-0.171608
271,1369387519,-0.420254,0.598769,-0.190574,-0.654657,1.733549,-0.763768,2.288145
272,1369420853,-0.412492,0.597317,-0.163194,-0.668178,0.697417,-0.182484,-0.744915
273,1369454187,-0.402221,0.600824,-0.140042,-0.676497,-0.849323,-0.480868,0.328892
274,1369487521,-0.393970,0.602522,-0.123323,-0.683065,-2.237685,-1.539065,0.409425
275,1369520855,-0.390230,0.599768,-0.112984,-0.689395,-3.207288,-2.039742,1.065359
276,1369554189,-0.393809,0.589540,-0.108350,-0.696885,-3.128290,-1.843139,1.533140
277,1369587523,-0.404940,0.573945,-0.110173,-0.703210,-2.746134,-1.859110,0.988030
278,1369620857,-0.421715,0.557214,-0.117562,-0.705606,-1.450869,-1.802581,0.566953
279,1369654191,-0.443020,0.533926,-0.123928,-0.709458,0.592710,-1.336146,2.397247
280,1369687525,-0.467187,0.492822,-0.121696,-0.723937,0.688448,-0.422458,-0.061390
281,1369720859,-0.491905,0.447568,-0.114799,-0.737946,0.183350,0.553780,-2.123453
282,1369754193,-0.515294,0.411904,-0.107545,-0.743823,-0.035599,0.790765,-3.165381
283,1369787527,-0.534188,0.398590,-0.103367,-0.738320,0.101232,0.765895,-3.809627
284,1369820861,-0.548123,0.410648,-0.103357,-0.721303,1.231997,1.153233,-2.340312
285,1369854195,-0.557818,0.432246,-0.102394,-0.701106,2.974545,1.547320,0.316968
286,1369887529,-0.562632,0.447022,-0.092781,-0.689231,3.384993,1.132026,1.616502
287,1369920863,-0.562566,0.450287,-0.074378,-0.689391,2.625540,1.325856,2.881182
288,1369954197,-0.558252,0.443134,-0.053707,-0.699382,1.272596,1.410938,2.949969
289,1369987531,-0.550554,0.433419,-0.037926,-0.712483,-0.050065,1.368602,1.631114
290,1370020865,-0.541182,0.430508,-0.032038,-0.721657,-0.768804,0.991304,1.253107
291,1370054199,-0.530298,0.430103,-0.031243,-0.729967,-1.028357,0.666353,1.106330
292,1370087533,-0.519411,0.431650,-0.035202,-0.736670,-1.528366,-0.354393,0.961118
293,1370120867,-0.509895,0.434323,-0.043773,-0.741273,-1.506176,-0.868659,1.748960
294,1370154201,-0.502172,0.434621,-0.057719,-0.745404,-1.488422,-1.463387,1.916233
295,1370187535,-0.495890,0.434548,-0.078138,-0.747788,-1.459518,-1.816069,0.774870
296,1370220869,-0.491685,0.435978,-0.103559,-0.746644,-1.033588,-1.895791,0.037459
297,1370254203,-0.490207,0.436295,-0.129870,-0.743309,-0.810782,-1.900169,-0.665324
298,1370287537,-0.491983,0.434369,-0.153177,-0.738813,-0.268284,-1.520676,-0.720374
299,1370320871,-0.497933,0.427018,-0.169408,-0.735562,-0.074899,-0.972609,-1.312110
300,1370354205,-0.507381,0.417000,-0.178389,-0.732724,-0.231850,-0.376156,-1.857475
301,1370387539,-0.519404,0.406750,-0.181184,-0.729368,-0.129957,0.178170,-1.503945
302,1370420873,-0.533065,0.396293,-0.177370,-0.726199,0.664978,0.876499,-1.445525
303,1370454207,-0.546350,0.389358,-0.167740,-0.722355,0.584335,1.020105,-2.079534
304,1370487541,-0.557084,0.392106,-0.156403,-0.715178,0.439823,1.229607,-2.072053
305,1370520875,-0.563885,0.405894,-0.146816,-0.704103,1.297951,1.405394,-0.549547
306,1370554209,-0.566624,0.423694,-0.137624,-0.693190,2.004299,1.221293,0.723445
307,1370587543,-0.566227,0.437655,-0.126540,-0.686924,2.425972,1.019760,2.239261
308,1370620877,-0.563324,0.441017,-0.111860,-0.689703,2.308695,0.503867,2.809580
309,1370654211,-0.557841,0.437629,-0.096143,-0.698629,1.295684,0.139519,1.476466
310,1370687545,-0.549348,0.434187,-0.084519,-0.708934,0.151235,0.043196,1.500226
311,1370720879,-0.538080,0.435286,-0.080691,-0.717298,-0.924735,0.078494,0.816526
312,1370754213,-0.526952,0.442597,-0.087940,-0.720228,-1.751575,-0.219262,1.875863
313,1370787547,-0.515748,0.452549,-0.105859,-0.719743,-1.438661,-0.545357,2.163446
314,1370820881,-0.504677,0.461052,-0.130405,-0.718163,-1.489694,-1.231841,1.960863
315,1370854215,-0.493978,0.464657,-0.157445,-0.717860,-1.527079,-1.480868,1.327518
316,1370887549,-0.485513,0.460918,-0.184348,-0.719638,-1.159671,-1.351447,0.825591
317,1370920883,-0.479987,0.448474,-0.209420,-0.724333,-1.166903,-1.204113,-0.386707
318,1370954217,-0.476388,0.434314,-0.233882,-0.727844,-1.055555,-1.137236,-1.492222
319,1370987551,-0.474088,0.422847,-0.256998,-0.728302,-0.684011,-0.672602,-1.956563
320,1371020885,-0.472938,0.416243,-0.277910,-0.725168,-0.144079,-0.256646,-2.116887
321,1371054219,-0.473413,0.415024,-0.294711,-0.718897,-0.314668,-0.044623,-2.973857
322,1371087553,-0.473712,0.422489,-0.310560,-0.707591,0.597070,0.877324,-1.303723
323,1371120887,-0.475360,0.430073,-0.322269,-0.696595,1.303319,1.369598,-0.411249
324,1371154221,-0.479055,0.433265,-0.326940,-0.689876,1.186100,1.174082,-1.009230
325,1371187555,-0.481747,0.437363,-0.328827,-0.684499,1.131067,1.116331,-0.630494
326,1371220889,-0.481877,0.445491,-0.329986,-0.678581,1.103051,0.612420,-0.702819
327,1371254223,-0.477576,0.461288,-0.331772,-0.670144,1.013182,0.314602,-0.801060
328,1371287557,-0.468284,0.484482,-0.335189,-0.658534,1.035908,0.050400,0.063230
329,1371320891,-0.456208,0.510226,-0.337378,-0.646337,1.015072,0.166269,0.453972
330,1371354225,-0.444025,0.534128,-0.336492,-0.635888,0.308279,0.420343,0.644032
331,1371387559,-0.433646,0.553676,-0.333454,-0.627881,0.165113,0.189256,0.069811
332,1371420893,-0.424088,0.571869,-0.332753,-0.618403,-0.491872,-0.191379,0.059216
333,1371454227,-0.415694,0.589250,-0.336973,-0.605362,-1.066709,-0.771665,0.314688
334,1371487561,-0.410268,0.602831,-0.344944,-0.591033,-1.419765,-1.127093,0.062153
335,1371520895,-0.407938,0.612913,-0.355274,-0.575966,-1.388718,-1.019130,-0.017998
336,1371554229,-0.407719,0.621515,-0.366864,-0.559399,-1.093969,-0.829679,-0.203570
337,1371587563,-0.412044,0.626862,-0.374126,-0.545276,-1.286686,-0.903723,-0.800803
338,1371620897,-0.430272,0.620529,-0.365189,-0.544498,-1.290666,-1.248781,-2.065894
339,1371654231,-0.462031,0.604504,-0.336594,-0.554832,-0.891793,-0.760683,-3.335589
340,1371687565,-0.498645,0.588887,-0.294576,-0.563757,-0.817990,0.787345,-3.848135
341,1371720899,-0.527402,0.593197,-0.261405,-0.549239,0.418997,2.982327,-0.050855
342,1371754233,-0.542302,0.617862,-0.251559,-0.510789,3.306082,2.272403,5.774835
343,1371787567,-0.546775,0.632410,-0.249247,-0.488880,2.350144,1.511724,7.014385
344,1371820901,-0.543734,0.630918,-0.246381,-0.495605,1.137756,-0.416135,3.204803
345,1371854235,-0.534479,0.627825,-0.242774,-0.511136,0.662420,-0.839256,0.697284
346,1371887569,-0.526192,0.627965,-0.243255,-0.519269,-1.635649,-1.576370,-1.287137
347,1371920903,-0.522996,0.627112,-0.244902,-0.522743,-2.453649,-0.706887,-2.475497
348,1371954237,-0.525604,0.626855,-0.252399,-0.516835,-1.875776,-0.480373,-1.259347
349,1371987571,-0.528983,0.631088,-0.269739,-0.499177,-0.839543,-0.086153,-0.274211
350,1372020905,-0.527237,0.640679,-0.297501,-0.472309,0.047306,0.095711,0.809877
351,1372054239,-0.521922,0.648335,-0.326073,-0.448294,0.415761,-0.011042,1.673490
352,1372087573,-0.520074,0.646483,-0.342922,-0.440476,0.577109,0.018896,0.802787
353,1372120907,-0.521063,0.639810,-0.351764,-0.442074,0.401255,0.558735,-0.482146
354,1372154241,-0.520467,0.635238,-0.359883,-0.442836,1.137091,0.669599,-0.570325
355,1372187575,-0.515772,0.635980,-0.369243,-0.439545,1.297186,0.423365,-0.526844
356,1372220909,-0.510009,0.638828,-0.374631,-0.437576,0.824955,0.184386,-0.118311
357,1372254243,-0.504302,0.642190,-0.374292,-0.439554,0.614610,-0.170140,0.148320
358,1372287577,-0.496635,0.647859,-0.371318,-0.442478,-0.415934,-0.370344,0.469285
359,1372320911,-0.486831,0.654718,-0.368418,-0.445691,-1.054881,-0.623516,0.893423
360,1372354245,-0.477317,0.659231,-0.365370,-0.451795,-0.966889,-0.836340,0.709446
361,1372387579,-0.469550,0.660065,-0.362907,-0.460616,-0.699352,-0.751191,0.347160
362,1372420913,-0.463714,0.658629,-0.361759,-0.469404,-0.274257,-0.319838,-0.404351
363,1372454247,-0.459490,0.656464,-0.361355,-0.476841,0.224020,0.182013,-1.285565
364,1372487581,-0.456531,0.655005,-0.361034,-0.481907,0.466082,0.513732,-2.000060
365,1372520915,-0.454914,0.654763,-0.361289,-0.483571,0.531969,0.845255,-2.196465
366,1372554249,-0.455058,0.655981,-0.362754,-0.480680,0.983321,1.311657,-2.011677
367,1372587583,-0.457703,0.657283,-0.363616,-0.475713,1.069322,1.788995,-1.130136
368,1372620917,-0.463371,0.656445,-0.362048,-0.472568,0.917143,2.130888,-0.650669
369,1372654251,-0.471123,0.654263,-0.357511,-0.471381,0.921949,2.070075,-0.172074
370,1372687585,-0.478686,0.654443,-0.349949,-0.469182,1.180648,1.520022,-0.563787
371,1372720919,-0.483452,0.661605,-0.340106,-0.461425,0.586554,0.879009,-0.411560
372,1372754253,-0.485684,0.674363,-0.327327,-0.449705,0.185998,0.225325,-0.030616
373,1372787587,-0.485433,0.690871,-0.312925,-0.434928,0.018769,-0.511442,0.241922
374,1372820921,-0.482641,0.709917,-0.303082,-0.413822,-0.888646,-2.218226,0.707931
375,1372854255,-0.477794,0.727833,-0.301716,-0.388550,-0.552742,-3.361008,0.552620
376,1372887589,-0.477211,0.738064,-0.305417,-0.366446,-0.117290,-2.913641,1.098517
377,1372920923,-0.481956,0.739194,-0.312031,-0.352106,-0.033799,-2.904125,-0.065347
378,1372954257,-0.478829,0.742108,-0.325414,-0.337840,-0.176664,-1.672984,0.513181
379,1372987591,-0.468827,0.748086,-0.340028,-0.324008,-1.296688,-1.597345,2.055246
380,1373020925,-0.455923,0.752553,-0.349842,-0.321621,-1.157654,-1.104670,2.114070
381,1373054259,-0.441679,0.754379,-0.358840,-0.327257,-1.734471,-0.790633,1.211413
382,1373087593,-0.428049,0.752232,-0.371276,-0.336312,-1.324592,-0.430332,0.339463
383,1373120927,-0.417350,0.745902,-0.387296,-0.345662,-0.821939,-0.063429,-0.575727
384,1373154261,-0.411393,0.735940,-0.403512,-0.355469,-0.522658,0.929655,-1.966887
385,1373187595,-0.407921,0.726178,-0.419243,-0.361292,-0.092870,1.618044,-2.736227
386,1373220929,-0.408322,0.717779,-0.430621,-0.364230,0.576653,2.016590,-3.210940
387,1373254263,-0.412778,0.711825,-0.435835,-0.364689,1.192278,2.324209,-3.165669
388,1373287597,-0.418196,0.711122,-0.436898,-0.358565,1.663928,2.456499,-2.688215
389,1373320931,-0.423444,0.715473,-0.433669,-0.347499,2.667126,2.230978,-1.530252
390,1373354265,-0.425706,0.725466,-0.427668,-0.331068,3.024037,1.896199,-0.309608
391,1373387599,-0.424450,0.739657,-0.418910,-0.311922,2.738584,1.310215,0.867352
392,1373420933,-0.422254,0.754036,-0.405299,-0.298154,1.858352,0.530085,1.134057
393,1373454267,-0.419978,0.767444,-0.386914,-0.291507,1.112048,-0.001797,0.760822
394,1373487601,-0.414937,0.782358,-0.366634,-0.285226,0.820735,-0.160998,0.410092
395,1373520935,-0.407051,0.798901,-0.345529,-0.276964,-0.380066,-0.384595,0.897719
396,1373554269,-0.397196,0.814894,-0.326258,-0.267900,-1.579663,-1.006368,0.915425
397,1373587603,-0.387021,0.828072,-0.310163,-0.261423,-2.596061,-1.578361,0.904934
398,1373620937,-0.377055,0.837409,-0.303090,-0.254448,-3.022095,-2.076841,1.050829
399,1373654271,-0.367415,0.842518,-0.307117,-0.246738,-3.566849,-2.697258,1.377470
400,1373687605,-0.358343,0.842112,-0.320648,-0.244240,-2.564009,-2.078902,2.275488
401,1373720939,-0.350343,0.837111,-0.339656,-0.247329,-3.135260,-1.732304,1.507290
402,1373754273,-0.343459,0.826932,-0.362104,-0.259098,-2.305024,-1.024081,0.281011
403,1373787607,-0.339861,0.812101,-0.384303,-0.278080,-1.332175,0.006102,0.067797
404,1373820941,-0.339706,0.794612,-0.404763,-0.298982,-0.428432,0.678495,-0.708328
405,1373854275,-0.341170,0.777235,-0.423486,-0.316545,0.436711,1.128850,-1.207535
406,1373887609,-0.341892,0.762894,-0.440566,-0.327162,1.015749,1.150072,-1.783316
407,1373920943,-0.344608,0.750881,-0.451842,-0.336590,1.518868,0.712499,-1.963949
408,1373954277,-0.350021,0.741390,-0.454699,-0.348004,2.689052,0.663709,-1.430634
409,1373987611,-0.351908,0.738840,-0.452861,-0.353872,3.245865,0.931570,-0.640382
410,1374020945,-0.351913,0.741989,-0.443210,-0.359452,4.142882,2.682293,0.714098
411,1374054279,-0.354384,0.746355,-0.417212,-0.378591,3.724235,3.541294,-0.014441
412,1374087613,-0.356073,0.748938,-0.379560,-0.410208,2.876296,3.534013,-0.782074
413,1374120947,-0.352010,0.754956,-0.348998,-0.429374,-0.257090,1.643586,-0.074481
414,1374154281,-0.350319,0.759929,-0.332280,-0.435209,-2.154113,-1.491562,-0.117373
415,1374187615,-0.348936,0.764908,-0.332428,-0.427413,-3.401362,-3.618434,0.993986
416,1374220949,-0.348779,0.765656,-0.341127,-0.419272,-4.007875,-5.003118,1.485866
417,1374254283,-0.349573,0.758459,-0.351390,-0.423196,-3.534269,-4.456133,2.206570
418,1374287617,-0.352543,0.741784,-0.360458,-0.442236,-2.201850,-2.882723,1.334520
419,1374320951,-0.357945,0.718911,-0.371328,-0.466036,-0.420055,-0.621699,-0.560220
420,1374354285,-0.362501,0.698758,-0.387111,-0.480112,0.452082,0.992871,-2.523121
421,1374387619,-0.367263,0.685521,-0.405834,-0.480114,1.985651,2.719225,-4.913262
422,1374420953,-0.375687,0.679882,-0.421046,-0.468371,3.538040,3.799124,-3.951747
423,1374454287,-0.390916,0.677560,-0.421958,-0.458345,5.576891,3.224732,-1.887745
424,1374487621,-0.400103,0.689629,-0.407756,-0.445080,4.200742,2.788584,-1.488178
425,1374520955,-0.397424,0.715282,-0.390128,-0.422207,-0.951910,1.085541,1.526237
426,1374554289,-0.384629,0.744626,-0.384990,-0.386532,-1.417016,-1.779250,1.212392
427,1374587623,-0.369290,0.765392,-0.398268,-0.345273,-6.052230,-4.045802,4.066856
428,1374620957,-0.367364,0.760722,-0.422526,-0.328405,-6.654423,-4.350957,3.198859
429,1374654291,-0.374776,0.738463,-0.453527,-0.329486,-3.502176,-2.048317,1.306553
430,1374687625,-0.386637,0.709259,-0.480158,-0.341969,0.712863,-0.983198,0.158736
431,1374720959,-0.399938,0.685489,-0.488565,-0.362617,5.052980,2.155046,-1.885315
432,1374754293,-0.411825,0.676461,-0.479142,-0.378491,5.403945,4.376855,-6.841205
433,1374787627,-0.415702,0.686957,-0.465107,-0.372812,4.013834,4.369747,-3.384982
434,1374820961,-0.421397,0.698504,-0.448828,-0.364832,-0.114120,1.139391,0.804403
435,1374854295,-0.434839,0.707870,-0.422470,-0.362472,-0.116373,-0.573196,-0.043305
436,1374887629,-0.454899,0.711432,-0.383271,-0.374255,0.690637,-3.224382,1.516818
437,1374920963,-0.477554,0.707566,-0.329639,-0.403313,1.299137,-1.944343,-0.396249
438,1374954297,-0.492110,0.704139,-0.282748,-0.426733,-0.858928,-0.083979,0.463574
439,1374987631,-0.501903,0.699785,-0.257438,-0.438352,-2.510248,-0.115058,0.268949
440,1375020965,-0.509453,0.699884,-0.257381,-0.429425,-1.372360,-0.025906,-0.687670
441,1375054299,-0.513627,0.705473,-0.276365,-0.402677,-0.061304,-0.014776,-0.908754
442,1375087633,-0.512637,0.713934,-0.307670,-0.364516,-0.260710,0.125949,0.369952
443,1375120967,-0.511124,0.717579,-0.335718,-0.333402,0.818160,-0.139631,1.310393
444,1375154301,-0.511654,0.719297,-0.344881,-0.319236,2.083642,-0.086325,0.885417
445,1375187635,-0.511058,0.726184,-0.324291,-0.326102,-0.274490,-0.362304,0.408472
446,1375220969,-0.511329,0.727782,-0.270593,-0.368357,-3.379657,0.408178,2.471794
447,1375254303,-0.513213,0.721009,-0.230052,-0.404804,-0.981537,2.056183,-1.240067
448,1375287637,-0.520972,0.709625,-0.220561,-0.420006,0.225712,0.615777,1.039920
449,1375320971,-0.532225,0.699621,-0.237016,-0.413668,0.108920,0.941093,-0.045007
450,1375354305,-0.542237,0.692057,-0.259727,-0.399511,0.906179,-0.542407,0.203468
451,1375387639,-0.548447,0.686688,-0.265421,-0.396546,1.245670,0.247531,-0.249207
452,1375420973,-0.546529,0.691100,-0.258532,-0.396080,1.621606,1.184928,-1.088733
453,1375454307,-0.537370,0.704573,-0.241210,-0.395803,0.656958,0.416103,0.560961
454,1375487641,-0.529474,0.713542,-0.208216,-0.408891,-1.738388,-0.095892,1.427733
455,1375520975,-0.525601,0.715055,-0.177811,-0.425270,-1.950400,0.200227,0.100300
456,1375554309,-0.523078,0.715193,-0.168503,-0.431889,-1.109673,0.104229,0.943211
457,1375587643,-0.520494,0.717398,-0.188097,-0.423175,-1.909884,-0.262416,0.345375
458,1375620977,-0.519908,0.715768,-0.225161,-0.408296,-0.605619,-1.438621,0.261186
459,1375654311,-0.521893,0.706450,-0.263538,-0.398919,1.307115,-0.393799,-1.548513
460,1375687645,-0.524748,0.696187,-0.301173,-0.386379,1.159362,-0.782083,-1.890173
461,1375720979,-0.528861,0.685445,-0.327072,-0.378849,1.751902,-0.442006,-2.308950
462,1375754313,-0.532984,0.679833,-0.338709,-0.372911,2.192392,0.596095,-2.925872
463,1375787647,-0.536876,0.680587,-0.335562,-0.368775,2.052995,1.985163,-3.350112
464,1375820981,-0.538375,0.686780,-0.323875,-0.365544,1.613401,1.568301,-1.474745
465,1375854315,-0.539024,0.695530,-0.301303,-0.367341,2.109651,1.398077,0.541257
466,1375887649,-0.537532,0.704718,-0.266056,-0.379047,1.958828,1.550555,0.647977
467,1375920983,-0.528383,0.718021,-0.231116,-0.389710,1.508728,1.143611,1.300449
468,1375954317,-0.514796,0.732420,-0.202576,-0.396914,-1.046324,0.143273,2.237863
469,1375987651,-0.504424,0.738938,-0.185635,-0.406322,-2.923634,-0.531449,1.202960
470,1376020985,-0.500621,0.740286,-0.186325,-0.408252,-3.342081,-0.901064,-0.164324
471,1376054319,-0.501479,0.741144,-0.203691,-0.397197,-3.102782,-1.367569,-0.461879
472,1376087653,-0.503447,0.742175,-0.230903,-0.377402,-2.540598,-1.245920,-0.185488
473,1376120987,-0.505612,0.741252,-0.259854,-0.356946,-2.095794,-1.307925,0.018730
474,1376154321,-0.508016,0.737125,-0.284922,-0.342663,-1.722424,-1.070646,-0.128160
475,1376187655,-0.511326,0.730706,-0.304764,-0.334314,-1.221079,-0.691400,-0.379040
476,1376220989,-0.514990,0.723879,-0.320843,-0.328445,-0.328292,-0.416860,-0.583010
477,1376254323,-0.518115,0.717597,-0.334276,-0.323887,0.934535,-0.392750,-0.587540
478,1376287657,-0.520625,0.712412,-0.345569,-0.319424,2.065962,0.378151,-0.311011
479,1376320991,-0.521740,0.709387,-0.356372,-0.312390,3.751628,1.128399,-0.117464
480,1376354325,-0.520378,0.710401,-0.362593,-0.305115,5.259717,3.181376,0.363029
481,1376387659,-0.515916,0.716529,-0.362362,-0.298568,4.346758,2.917306,-0.230946
482,1376420993,-0.509611,0.727311,-0.351745,-0.296011,3.066803,2.404950,-0.650062
483,1376454327,-0.504372,0.738935,-0.333570,-0.297233,1.082664,1.794361,-0.756503
484,1376487661,-0.501126,0.748781,-0.315337,-0.297983,-0.810643,0.291946,-0.246899
485,1376520995,-0.500004,0.755259,-0.300611,-0.298738,-1.446125,-1.135565,-0.759125
486,1376554329,-0.498474,0.760588,-0.292120,-0.296187,-2.622540,-2.195126,-0.391459
487,1376587663,-0.497326,0.763198,-0.288319,-0.295126,-2.984412,-3.338662,0.120367
488,1376620997,-0.496361,0.762119,-0.288020,-0.299793,-2.758182,-3.979105,-0.177426
489,1376654331,-0.493731,0.758827,-0.292613,-0.307930,-2.244220,-3.850829,0.009820
490,1376687665,-0.489174,0.753966,-0.301651,-0.318248,-1.370012,-3.205060,0.019135
491,1376720999,-0.482556,0.748491,-0.312930,-0.330162,-0.151807,-1.961339,-0.088137
492,1376754333,-0.474821,0.743246,-0.322788,-0.343469,1.343219,0.036180,-0.903623
493,1376787667,-0.465312,0.740671,-0.332636,-0.352528,1.225609,1.423692,-1.192120
494,1376821001,-0.454194,0.741408,-0.342256,-0.356250,1.585260,1.663248,-1.071379
495,1376854335,-0.444674,0.744537,-0.346638,-0.357497,2.032406,2.730859,-1.407334
496,1376887669,-0.437880,0.750235,-0.345352,-0.355207,1.741641,2.540181,-1.437994
497,1376921003,-0.434609,0.757233,-0.334536,-0.354725,1.483945,2.639201,0.210149
498,1376954337,-0.431059,0.766659,-0.314124,-0.357463,2.124171,3.416265,0.051981
499,1376987671,-0.421082,0.781709,-0.290465,-0.356767,1.080471,1.299321,3.433599
500,1377021005,-0.407076,0.794570,-0.252920,-0.372841,1.534743,0.885552,2.890835
501,1377054339,-0.386395,0.806790,-0.212492,-0.393279,-0.268055,-0.089425,1.500728
502,1377087673,-0.363336,0.817644,-0.181473,-0.408099,-1.845993,-2.101645,0.823915
503,1377121007,-0.343092,0.823963,-0.164941,-0.419761,-1.994385,-3.787144,-0.036217
504,1377154341,-0.326217,0.827688,-0.164132,-0.426155,-1.949601,-4.473105,-1.030516
505,1377187675,-0.311435,0.828970,-0.176442,-0.429786,-1.391676,-3.879736,-1.430140
506,1377221009,-0.298300,0.828761,-0.196941,-0.430602,-0.393848,-2.214636,-2.159585
507,1377254343,-0.286847,0.828730,-0.220252,-0.427137,0.199475,-1.061209,-1.612638
508,1377287677,-0.278930,0.825128,-0.239231,-0.429141,0.156544,-0.146516,-0.157127
509,1377321011,-0.277057,0.814582,-0.247371,-0.445572,0.526839,1.355799,-0.303421
510,1377354345,-0.278690,0.802744,-0.245066,-0.466806,0.386576,2.946250,-1.118610
511,1377387679,-0.281573,0.794367,-0.235568,-0.483980,0.020468,4.058957,-0.620573
512,1377421013,-0.286104,0.786576,-0.219582,-0.501257,-0.575209,4.497428,-0.053911
513,1377454347,-0.286598,0.782413,-0.203771,-0.514004,-0.257204,5.084947,-0.624221
514,1377487681,-0.280575,0.790762,-0.194154,-0.508241,-0.701586,3.327134,-0.009085
515,1377521015,-0.274450,0.802272,-0.186298,-0.496347,-0.403094,1.687055,-0.261127
516,1377554349,-0.273063,0.811091,-0.178268,-0.485613,-1.160790,0.213298,-0.577533
517,1377587683,-0.278023,0.816057,-0.172931,-0.476321,-1.663008,-0.741133,-1.304058
518,1377621017,-0.288266,0.820179,-0.173699,-0.462676,-1.429066,-1.043881,-1.611569
519,1377654351,-0.301844,0.826330,-0.183301,-0.438749,-1.668971,-1.560925,-0.940533
520,1377687685,-0.318347,0.831733,-0.202151,-0.407482,-1.801634,-2.775456,0.942075
521,1377721019,-0.336750,0.828095,-0.223723,-0.388378,-1.602851,-3.958741,2.883060
522,1377754353,-0.355081,0.814700,-0.242993,-0.388804,-0.118525,-2.705544,1.343798
523,1377787687,-0.369382,0.800521,-0.262294,-0.392373,1.273610,-1.759716,0.181223
524,1377821021,-0.378740,0.788925,-0.281061,-0.393940,1.433264,-1.333105,-0.137048
525,1377854355,-0.386040,0.777378,-0.294862,-0.399680,1.795210,-0.045140,-0.190403
526,1377887689,-0.392654,0.766318,-0.301209,-0.409736,2.304374,1.621617,-0.307306
527,1377921023,-0.399308,0.758899,-0.299372,-0.418370,2.992264,3.411627,-1.094975
528,1377954357,-0.405643,0.755873,-0.290891,-0.423702,2.376053,3.631747,-1.312721
529,1377987691,-0.409216,0.758623,-0.281651,-0.421589,1.453426,2.697671,-0.698545
530,1378021025,-0.413514,0.763629,-0.270195,-0.415817,0.681429,1.407215,0.570562
531,1378054359,-0.420245,0.764679,-0.254113,-0.417273,0.406896,0.359351,0.947459
532,1378087693,-0.426661,0.763143,-0.239544,-0.422166,-0.140552,-0.452512,1.509168
533,1378121027,-0.432094,0.760400,-0.231297,-0.426169,-0.532842,-1.053977,1.980634
534,1378154361,-0.432981,0.760579,-0.237785,-0.421352,-0.046913,-0.837455,0.667415
535,1378187695,-0.424926,0.769448,-0.267279,-0.394945,-0.169235,-2.262964,1.457625
536,1378221029,-0.412436,0.774768,-0.304484,-0.370071,-0.756787,-3.275851,2.586217
537,1378254363,-0.401823,0.769774,-0.336253,-0.364626,-0.439252,-2.406811,0.892494
538,1378287697,-0.389562,0.762671,-0.365506,-0.364707,-0.377539,-1.841232,-0.788578
539,1378321031,-0.375642,0.755825,-0.390496,-0.367651,-0.708147,-1.540840,-0.749108
540,1378354365,-0.364517,0.746719,-0.407369,-0.378974,-0.903930,-0.807685,-0.777873
541,1378387699,-0.356833,0.736085,-0.417713,-0.395470,-0.498359,0.665226,-1.048771
542,1378421033,-0.354265,0.725176,-0.423511,-0.411443,-0.313968,2.264122,-1.837142
543,1378454367,-0.357621,0.715011,-0.423812,-0.425772,0.637726,3.278006,-1.632259
544,1378487701,-0.363094,0.709111,-0.419254,-0.435411,1.163538,3.522153,-0.941404
545,1378521035,-0.370341,0.706728,-0.408759,-0.443092,1.502575,2.934599,-0.415324
546,1378554369,-0.378507,0.706682,-0.392390,-0.450992,1.451784,2.550145,0.918309
547,1378587703,-0.386426,0.707570,-0.372725,-0.459486,0.814807,1.861033,1.724925
548,1378621037,-0.393158,0.707354,-0.354509,-0.468436,-0.350274,1.079222,1.352834
549,1378654371,-0.397889,0.707375,-0.343177,-0.472827,-0.719425,0.011240,1.555174
550,1378687705,-0.403236,0.703926,-0.336666,-0.478097,-1.424381,-0.800407,1.334956
551,1378721039,-0.410112,0.695816,-0.334093,-0.485861,-1.727083,-1.224398,0.141020
552,1378754373,-0.416283,0.685956,-0.335675,-0.493484,-1.390202,-1.394974,-0.617476
553,1378787707,-0.421751,0.673627,-0.338157,-0.504018,-1.076733,-1.339103,-1.300051
554,1378821041,-0.426629,0.659160,-0.340159,-0.517512,-0.906573,-1.260669,-1.682276
555,1378854375,-0.430397,0.643118,-0.343773,-0.531986,-0.208163,-1.162893,-2.261837
556,1378887709,-0.429343,0.631210,-0.356182,-0.538891,0.324434,-1.130210,-2.186718
557,1378921043,-0.424117,0.620981,-0.375463,-0.541818,1.467319,-1.110932,-1.863023
558,1378954377,-0.414360,0.613156,-0.398752,-0.541640,1.842262,-0.678385,-1.834914
559,1378987711,-0.402231,0.607421,-0.418848,-0.542078,2.301451,-0.257832,-2.176350
560,1379021045,-0.388952,0.607676,-0.429544,-0.543111,1.910984,0.779129,-2.623174
561,1379054379,-0.378513,0.613664,-0.427661,-0.545236,0.965565,1.309400,-2.587648
562,1379087713,-0.372580,0.624497,-0.416773,-0.545454,0.463847,1.126141,-2.647268