sep=,
DeviceTag:,2B_Left
FirmwareVersion:,2.2.1
AppVersion:,2023.6.0
SyncStatus:,Synced
OutputRate:,30Hz
FilterProfile:,General
Measurement Mode:,Sensor fusion Mode - Complete(Quaternion)
StartTime: ,2026-05-01_14:33:02_756 AEST
© Movella Technologies B. V. 2005-2026

PacketCounter,SampleTimeFine,Quat_W,Quat_X,Quat_Y,Quat_Z,FreeAcc_X,FreeAcc_Y,FreeAcc_Z
1,1805135604,0.776703,-0.599750,-0.055929,-0.184139,0.646064,0.082001,0.168527
2,1805168938,0.777110,-0.598687,-0.058586,-0.185056,0.480245,0.018620,0.181215
3,1805202272,0.777300,-0.597673,-0.061326,-0.186642,0.384407,-0.048993,0.182759
4,1805235606,0.777215,-0.596767,-0.064015,-0.188978,0.246095,-0.135915,0.192277
5,1805268940,0.776800,-0.596086,-0.066346,-0.192002,0.134922,-0.179422,0.137290
6,1805302274,0.775967,-0.595803,-0.067913,-0.195668,0.022355,-0.319477,0.186904
7,1805335608,0.774644,-0.595956,-0.068295,-0.200257,-0.054262,-0.329135,-0.012761
8,1805368942,0.772800,-0.596641,-0.067357,-0.205589,-0.122452,-0.285944,-0.165419
9,1805402276,0.770672,-0.597775,-0.065465,-0.210827,-0.356651,-0.163587,-0.285547
10,1805435610,0.768506,-0.599423,-0.063315,-0.214676,-0.355435,-0.041973,-0.285127
11,1805468944,0.766579,-0.601353,-0.060778,-0.216888,-0.356775,0.155833,-0.213768
12,1805502278,0.764961,-0.603439,-0.058214,-0.217511,-0.249277,0.194322,-0.150277
13,1805535612,0.763667,-0.605497,-0.056027,-0.216911,-0.169429,0.279811,0.165255
14,1805568946,0.762670,-0.607306,-0.054511,-0.215747,0.002017,0.248221,0.281841
15,1805602280,0.761806,-0.608812,-0.053317,-0.214849,0.151400,0.207905,0.346881
16,1805635614,0.760947,-0.610071,-0.052445,-0.214537,0.172349,0.157591,0.243111
17,1805668948,0.759958,-0.611275,-0.051969,-0.214731,0.444107,0.078050,0.235741
18,1805702282,0.758782,-0.612349,-0.051398,-0.215965,0.619122,0.130023,0.149863
19,1805735616,0.757351,-0.613473,-0.050251,-0.218057,0.609217,0.031193,-0.048535
20,1805768950,0.755568,-0.614803,-0.048720,-0.220829,0.793710,0.108894,-0.037032
21,1805802284,0.753816,-0.615926,-0.047401,-0.223949,0.653132,0.437212,-0.057834
22,1805835618,0.752380,-0.616523,-0.047009,-0.227195,0.871591,0.475193,0.134117
23,1805868952,0.751079,-0.616948,-0.048175,-0.230085,0.638954,0.425635,0.003391
24,1805902286,0.749580,-0.617355,-0.050033,-0.233460,0.827003,0.524608,-0.041094
25,1805935620,0.747962,-0.617300,-0.051656,-0.238388,0.857424,0.531042,-0.180527
26,1805968954,0.746129,-0.617081,-0.053005,-0.244328,0.415953,0.393529,-0.527751
27,1806002288,0.744285,-0.616920,-0.054461,-0.249975,0.248061,0.762834,-0.645340
28,1806035622,0.743280,-0.616146,-0.057214,-0.254223,0.064525,0.765924,-1.463963
29,1806068956,0.742754,-0.615510,-0.063236,-0.255868,0.330088,0.535953,-2.069637
30,1806102290,0.742363,-0.614982,-0.068632,-0.256879,0.774046,0.330094,-2.028924
31,1806135624,0.742289,-0.613569,-0.070279,-0.260009,0.273982,0.325401,-2.346363
32,1806168958,0.742136,-0.611774,-0.071719,-0.264246,0.484060,0.078937,-2.306341
33,1806202292,0.741662,-0.609646,-0.070650,-0.270706,0.288747,-0.158044,-1.865469
34,1806235626,0.742309,-0.605691,-0.065204,-0.279049,-0.635281,0.636557,-1.430071
35,1806268960,0.744000,-0.601422,-0.061845,-0.284491,-1.137878,-0.169436,-1.492002
36,1806302294,0.745737,-0.598107,-0.059955,-0.287322,-0.858536,-0.260849,-0.380672
37,1806335628,0.748630,-0.593036,-0.055496,-0.291177,-1.153333,-0.094249,-0.353837
38,1806368962,0.751791,-0.587995,-0.053340,-0.293649,-1.131715,-0.286218,-0.642971
39,1806402296,0.755397,-0.582282,-0.048461,-0.296611,-0.721979,-0.793162,-0.266214
40,1806435630,0.758931,-0.576316,-0.039833,-0.300502,-1.473628,-0.377943,-0.447632
41,1806468964,0.761838,-0.572505,-0.035363,-0.300989,-1.185160,-0.024011,-0.383037
42,1806502298,0.764426,-0.570213,-0.034949,-0.298818,-0.885731,-0.308270,-0.548281
43,1806535632,0.766561,-0.568748,-0.034738,-0.296155,-0.623004,-0.011895,0.375504
44,1806568966,0.769615,-0.566095,-0.031764,-0.293639,-1.058922,0.097249,0.687960
45,1806602300,0.773166,-0.563757,-0.031378,-0.288811,-0.659783,0.081724,1.065118
46,1806635634,0.776564,-0.561426,-0.031130,-0.284225,-0.267071,-0.041152,1.627513
47,1806668968,0.779925,-0.558695,-0.029149,-0.280591,-0.621253,-0.232114,1.603148
48,1806702302,0.782965,-0.556685,-0.027251,-0.276277,-0.230194,-0.332164,1.574699
49,1806735636,0.785934,-0.554290,-0.022950,-0.273034,0.528521,-0.634226,1.683427
50,1806768970,0.788155,-0.551367,-0.014484,-0.273132,0.431339,-0.728086,1.561524
51,1806802304,0.789277,-0.549285,-0.007879,-0.274353,0.509412,-0.560225,1.732952
52,1806835638,0.790020,-0.547679,-0.004521,-0.275501,0.462464,-0.632295,1.184392
53,1806868972,0.790467,-0.546460,-0.002479,-0.276662,0.440653,-0.664570,1.172114
54,1806902306,0.790768,-0.545022,-0.000607,-0.278641,0.158230,-0.363724,1.191072
55,1806935640,0.790873,-0.543950,-0.000308,-0.280433,0.256836,-0.401673,0.766356
56,1806968974,0.790671,-0.543370,0.000998,-0.282119,0.006456,-0.378789,0.864177
57,1807002308,0.791039,-0.542385,0.003327,-0.282963,-0.465753,0.257048,0.745118
58,1807035642,0.792125,-0.541633,0.003598,-0.281357,-0.305444,0.060806,1.051045
59,1807068976,0.793377,-0.541631,0.000530,-0.277837,-0.330921,-0.069401,1.448402
60,1807102310,0.794874,-0.541474,-0.003538,-0.273813,-0.082779,-0.182179,1.333548
61,1807135644,0.796476,-0.540571,-0.005022,-0.270901,0.209991,-0.429356,1.422984
62,1807168978,0.797507,-0.539824,-0.004915,-0.269358,0.191940,-0.509836,2.011601
63,1807202312,0.798517,-0.538639,-0.004127,-0.268748,-0.083230,-0.172112,1.970213
64,1807235646,0.799595,-0.537647,-0.005451,-0.267504,0.341232,-0.495069,1.911839
65,1807268980,0.800558,-0.536776,-0.007689,-0.266314,-0.082250,-0.131192,1.889751
66,1807302314,0.801591,-0.536147,-0.011732,-0.264319,-0.170298,-0.103795,1.753046
67,1807335648,0.802437,-0.535972,-0.016511,-0.261838,-0.007506,-0.218134,1.419234
68,1807368982,0.802971,-0.536025,-0.019369,-0.259892,-0.043761,-0.205927,1.241847
69,1807402316,0.803308,-0.536316,-0.020698,-0.258141,-0.130715,0.105543,1.017836
70,1807435650,0.803805,-0.536453,-0.021091,-0.256271,-0.328707,0.014445,0.850717
71,1807468984,0.804324,-0.536919,-0.022102,-0.253568,-0.153022,-0.249278,0.989723
72,1807502318,0.804581,-0.537760,-0.023936,-0.250788,0.055093,-0.176307,1.008223
73,1807535652,0.804958,-0.537998,-0.024305,-0.249023,-0.059957,-0.253213,1.025352
74,1807568986,0.805258,-0.538204,-0.024905,-0.247548,0.031863,-0.515252,1.121914
75,1807602320,0.805236,-0.538533,-0.025530,-0.246839,-0.039598,-0.416815,1.242248
76,1807635654,0.805026,-0.539131,-0.027241,-0.246035,-0.005426,-0.427843,1.219301
77,1807668988,0.804526,-0.539930,-0.028749,-0.245745,0.149574,-0.421750,1.154273
78,1807702322,0.803854,-0.540635,-0.029358,-0.246322,-0.106381,-0.212919,1.205033
79,1807735656,0.803011,-0.541643,-0.031199,-0.246632,-0.019176,-0.476879,1.002744
80,1807768990,0.801927,-0.542891,-0.033526,-0.247107,0.213611,-0.199759,0.986215
81,1807802324,0.801174,-0.543124,-0.033168,-0.249078,-0.310281,-0.325957,0.759585
82,1807835658,0.799918,-0.544326,-0.035728,-0.250136,-0.368986,-0.730520,0.574797
83,1807868992,0.797775,-0.546677,-0.040187,-0.251174,0.138259,-0.614833,1.043067
84,1807902326,0.795827,-0.547695,-0.039938,-0.255142,-0.263605,-0.863602,0.045341
85,1807935660,0.793156,-0.549458,-0.039252,-0.259736,-0.365348,-0.159597,0.157989
86,1807968994,0.790915,-0.550671,-0.038643,-0.264055,-0.421310,-0.322287,-0.462124
87,1808002328,0.788392,-0.552978,-0.040509,-0.266489,-0.404186,-0.380298,-0.812304
88,1808035662,0.785926,-0.555337,-0.042618,-0.268533,-0.084702,0.169861,-0.656643
89,1808068996,0.784182,-0.556884,-0.043479,-0.270282,-0.317749,-0.203027,-1.581672
90,1808102330,0.781628,-0.560402,-0.047040,-0.269812,-0.024876,-0.242539,-1.391274
91,1808135664,0.779177,-0.563703,-0.048638,-0.269743,0.027303,0.388338,-0.906091
92,1808168998,0.777841,-0.565600,-0.047245,-0.269873,-0.315974,0.056498,-1.538974
93,1808202332,0.776178,-0.568867,-0.047691,-0.267706,-0.015803,-0.052002,-1.149179
94,1808235666,0.774044,-0.572740,-0.048128,-0.265542,-0.017247,0.111571,-0.935961
95,1808269000,0.772102,-0.576145,-0.046257,-0.264156,0.051769,-0.090085,-0.940458
96,1808302334,0.769836,-0.580132,-0.043686,-0.262479,0.102066,0.305319,-0.583427
97,1808335668,0.768126,-0.583378,-0.040434,-0.260811,0.022944,0.611710,-0.360901
98,1808369002,0.767031,-0.586280,-0.039303,-0.257677,0.320306,0.499969,-0.533099
99,1808402336,0.765864,-0.589168,-0.040414,-0.254370,0.661545,0.477532,-0.728993
100,1808435670,0.764257,-0.591952,-0.041418,-0.252573,0.761921,0.406660,-0.612157
101,1808469004,0.762841,-0.593688,-0.039587,-0.253069,0.702991,0.635493,-0.416892
102,1808502338,0.762105,-0.594426,-0.038398,-0.253737,0.418590,0.866944,-0.803793
103,1808535672,0.761989,-0.594815,-0.040731,-0.252809,0.469213,0.861370,-0.751848
104,1808569006,0.762182,-0.594952,-0.044846,-0.251203,0.515282,0.613607,-0.829764
105,1808602340,0.762141,-0.595296,-0.048181,-0.249892,0.669529,0.482179,-0.543472
106,1808635674,0.762050,-0.595225,-0.047786,-0.250416,0.630121,0.430106,-0.254050
107,1808669008,0.761947,-0.594829,-0.045298,-0.252126,0.542188,0.456589,0.116536
108,1808702342,0.761961,-0.594002,-0.042639,-0.254485,0.494914,0.471240,0.265059
109,1808735676,0.762125,-0.592724,-0.041924,-0.257080,0.401092,0.454894,0.239544
110,1808769010,0.762383,-0.590948,-0.043520,-0.260119,0.362345,0.452915,0.204686
111,1808802344,0.762688,-0.588734,-0.046226,-0.263753,0.134916,0.339300,0.114659
112,1808835678,0.763037,-0.586381,-0.049048,-0.267450,-0.017728,0.223953,0.090940
113,1808869012,0.763334,-0.584315,-0.051552,-0.270635,-0.094647,0.141287,-0.054748
114,1808902346,0.763454,-0.582697,-0.053743,-0.273346,-0.049663,0.159196,-0.097487
115,1808935680,0.763312,-0.581594,-0.055200,-0.275789,-0.041917,0.125446,-0.243334
116,1808969014,0.762882,-0.580931,-0.055126,-0.278378,-0.004596,0.151462,-0.147800
117,1809002348,0.762263,-0.580565,-0.053529,-0.281137,-0.083585,0.146157,-0.085970
118,1809035682,0.761547,-0.580426,-0.051407,-0.283747,-0.081551,0.211895,0.082096
119,1809069016,0.760896,-0.580298,-0.049520,-0.286083,-0.065085,0.188591,0.172364
120,1809102350,0.760360,-0.580118,-0.048258,-0.288082,-0.066622,0.193863,0.136329
121,1809135684,0.759979,-0.579769,-0.047525,-0.289906,-0.045333,0.148432,0.143559
122,1809169018,0.759749,-0.579276,-0.046996,-0.291576,-0.053071,0.124286,0.146811
123,1809202352,0.759707,-0.578717,-0.046711,-0.292838,-0.087738,0.096634,0.175973
124,1809235686,0.759816,-0.578161,-0.046968,-0.293610,-0.123289,0.018743,0.110228
125,1809269020,0.759936,-0.577705,-0.047726,-0.294075,-0.055605,-0.019452,0.064883
126,1809302354,0.759942,-0.577398,-0.048012,-0.294616,-0.008545,-0.090114,0.136848
127,1809335688,0.759888,-0.577004,-0.047493,-0.295608,-0.107225,-0.055800,0.168275
128,1809369022,0.759818,-0.576670,-0.047766,-0.296397,-0.134159,-0.092315,0.057720
129,1809402356,0.759645,-0.576591,-0.048617,-0.296853,-0.103109,-0.177246,-0.047462
130,1809435690,0.759305,-0.576882,-0.048720,-0.297143,-0.053444,-0.194553,-0.010882
131,1809469024,0.758805,-0.577480,-0.047609,-0.297437,-0.064506,-0.183057,0.116989
132,1809502358,0.758124,-0.578254,-0.046216,-0.297890,0.011354,-0.101755,0.177614
133,1809535692,0.757322,-0.579030,-0.044840,-0.298633,0.028577,-0.065361,0.095501
134,1809569026,0.756489,-0.579786,-0.043259,-0.299509,0.044940,-0.012451,0.125402
135,1809602360,0.755731,-0.580415,-0.041500,-0.300452,0.075460,0.072652,0.166310
136,1809635694,0.755180,-0.580777,-0.040242,-0.301306,0.014999,0.112724,0.194443
137,1809669028,0.754900,-0.580900,-0.039779,-0.301832,-0.002732,0.098428,0.253066
138,1809702362,0.754877,-0.580827,-0.039724,-0.302038,-0.057607,0.098235,0.311028
139,1809735696,0.755063,-0.580629,-0.040072,-0.301906,-0.106130,0.028648,0.311008
140,1809769030,0.755409,-0.580181,-0.040712,-0.301819,-0.153441,0.052039,0.304605
141,1809802364,0.755811,-0.579523,-0.041317,-0.301992,-0.157022,0.006610,0.235874
142,1809835698,0.756279,-0.578807,-0.041517,-0.302166,-0.221236,0.013906,0.069326
143,1809869032,0.756828,-0.578147,-0.041300,-0.302085,-0.212772,-0.013745,-0.008629
144,1809902366,0.757427,-0.577639,-0.040952,-0.301603,-0.202041,-0.077150,0.074334
145,1809935700,0.757986,-0.577329,-0.040519,-0.300849,-0.100464,-0.118811,0.022199
146,1809969034,0.758440,-0.577154,-0.039797,-0.300136,-0.038953,-0.107514,0.019643
147,1810002368,0.758807,-0.577128,-0.038789,-0.299392,-0.027962,-0.115288,0.051203
148,1810035702,0.759149,-0.577254,-0.037722,-0.298414,0.027250,-0.120854,0.035729
149,1810069036,0.759439,-0.577557,-0.036929,-0.297187,0.089622,-0.078993,0.063938
150,1810102370,0.759645,-0.577922,-0.036153,-0.296044,0.142484,-0.084805,0.151235
151,1810135704,0.759750,-0.578270,-0.035348,-0.295193,0.116633,-0.057924,0.229267
152,1810169038,0.759823,-0.578510,-0.034944,-0.294581,0.109423,-0.031923,0.224799
153,1810202372,0.759866,-0.578627,-0.035065,-0.294224,0.114957,-0.006780,0.184258
154,1810235706,0.759887,-0.578679,-0.035280,-0.294043,0.068714,-0.026980,0.117929
155,1810269040,0.759857,-0.578771,-0.035246,-0.293945,0.038895,-0.021992,0.122128
156,1810302374,0.759801,-0.578883,-0.034958,-0.293903,0.016292,-0.014456,0.156238
157,1810335708,0.759740,-0.578990,-0.034666,-0.293884,0.040209,-0.009440,0.184334
158,1810369042,0.759710,-0.579057,-0.034434,-0.293856,0.000150,0.017453,0.186988
159,1810402376,0.759647,-0.579162,-0.034309,-0.293826,0.035030,0.000106,0.203335
160,1810435710,0.759590,-0.579174,-0.034138,-0.293971,-0.003885,0.052028,0.157582
161,1810469044,0.759569,-0.579096,-0.033988,-0.294198,-0.016863,0.080194,0.132582
162,1810502378,0.759603,-0.579010,-0.033753,-0.294304,-0.051162,0.082761,0.094319
163,1810535712,0.759754,-0.578890,-0.033620,-0.294165,-0.034860,0.062273,0.135542
164,1810569046,0.759971,-0.578742,-0.033494,-0.293910,-0.040812,0.025547,0.173621
165,1810602380,0.760162,-0.578627,-0.033317,-0.293663,-0.007819,-0.036361,0.183558
166,1810635714,0.760303,-0.578519,-0.033097,-0.293535,-0.046223,-0.023275,0.114408
167,1810669048,0.760395,-0.578471,-0.032861,-0.293418,-0.081332,-0.009724,0.107644
168,1810702382,0.760466,-0.578505,-0.032649,-0.293192,-0.104270,-0.012386,0.102948
169,1810735716,0.760527,-0.578616,-0.032451,-0.292836,-0.069364,0.024049,0.138269