sep=,
DeviceTag:,2C_Leg
FirmwareVersion:,2.2.1
AppVersion:,2023.6.0
SyncStatus:,Synced
OutputRate:,30Hz
FilterProfile:,General
Measurement Mode:,Sensor fusion Mode - Complete(Quaternion)
StartTime: ,2026-05-01_14:33:02_774 AEST
© Movella Technologies B. V. 2005-2026

PacketCounter,SampleTimeFine,Quat_W,Quat_X,Quat_Y,Quat_Z,FreeAcc_X,FreeAcc_Y,FreeAcc_Z
1,1805168938,0.627309,-0.770150,0.051823,-0.103289,-0.005418,0.023718,0.162017
2,1805202272,0.627566,-0.770027,0.051335,-0.102884,-0.006501,-0.029663,0.175853
3,1805235606,0.627804,-0.769870,0.051091,-0.102730,-0.011868,-0.066215,0.109827
4,1805268940,0.628039,-0.769644,0.051167,-0.102943,-0.002248,0.007951,0.129923
5,1805302274,0.628273,-0.769420,0.051271,-0.103138,0.003750,0.045600,0.142349
6,1805335608,0.628459,-0.769233,0.051457,-0.103308,-0.082830,0.006293,0.135172
7,1805368942,0.628669,-0.769006,0.051722,-0.103590,-0.003313,0.060902,0.146135
8,1805402276,0.629221,-0.768488,0.051953,-0.103962,0.016065,0.027587,0.137686
9,1805435610,0.629726,-0.767988,0.052327,-0.104411,-0.017358,-0.004129,0.126037
10,1805468944,0.629924,-0.767700,0.052935,-0.105028,-0.047357,-0.000483,0.108891
11,1805502278,0.630039,-0.767452,0.053673,-0.105775,-0.092243,0.027957,0.137094
12,1805535612,0.630302,-0.767140,0.054065,-0.106267,-0.079755,0.039317,0.143308
13,1805568946,0.630418,-0.766993,0.054223,-0.106563,-0.080216,-0.003793,0.074374
14,1805602280,0.630416,-0.766921,0.054516,-0.106945,-0.045799,0.100660,0.140650
15,1805635614,0.630764,-0.766581,0.054618,-0.107278,-0.033296,0.179795,0.168973
16,1805668948,0.631354,-0.766086,0.054424,-0.107441,-0.045301,0.020803,0.127889
17,1805702282,0.631541,-0.765899,0.054356,-0.107707,-0.091409,-0.074188,0.080545
18,1805735616,0.631708,-0.765753,0.054233,-0.107832,-0.076649,0.098331,0.170169
19,1805768950,0.632713,-0.765090,0.053245,-0.107127,-0.066168,0.259601,0.134743
20,1805802284,0.634868,-0.763641,0.051179,-0.105719,-0.079706,0.257853,0.230033
21,1805835618,0.638077,-0.761157,0.049202,-0.105251,0.078233,0.160964,0.297124
22,1805868952,0.642186,-0.757736,0.047847,-0.105570,0.160170,0.409640,0.201847
23,1805902286,0.647197,-0.753474,0.046692,-0.105984,0.174049,0.950583,0.135975
24,1805935620,0.654630,-0.747017,0.044902,-0.106818,0.103328,1.237038,0.506629
25,1805968954,0.664790,-0.737970,0.042642,-0.107875,0.165551,1.398080,0.479577
26,1806002288,0.676158,-0.727564,0.040281,-0.108805,0.533135,0.867181,-0.630676
27,1806035622,0.685730,-0.717905,0.039091,-0.113404,1.019617,-0.039906,0.122452
28,1806068956,0.696899,-0.705952,0.040126,-0.119810,1.722304,-1.709486,-0.311908
29,1806102290,0.708942,-0.691949,0.045189,-0.128711,-0.176777,-1.155120,0.116945
30,1806135624,0.721246,-0.677608,0.048201,-0.135384,-0.230760,-0.664436,0.292573
31,1806168958,0.733345,-0.663420,0.048073,-0.140598,0.578691,-0.719018,-0.295728
32,1806202292,0.746555,-0.647552,0.045943,-0.145679,-0.433901,0.269216,0.054509
33,1806235626,0.760127,-0.630544,0.044728,-0.150404,-0.681425,-0.243045,-0.303916
34,1806268960,0.772017,-0.615252,0.045027,-0.153062,-0.913046,-0.165936,0.058166
35,1806302294,0.783536,-0.601073,0.039546,-0.152379,-0.764798,0.196820,0.405405
36,1806335628,0.794792,-0.585887,0.034380,-0.154472,0.246761,-0.178674,-0.345963
37,1806368962,0.805175,-0.571285,0.031885,-0.155920,-0.223515,0.390348,-0.144081
38,1806402296,0.815520,-0.556376,0.028573,-0.156704,-0.338823,0.324620,0.206163
39,1806435630,0.826084,-0.540237,0.024951,-0.158451,-0.209321,0.665439,-0.560553
40,1806468964,0.836253,-0.523830,0.022317,-0.160582,-0.774985,0.896113,-0.594670
41,1806502298,0.846853,-0.506458,0.019211,-0.161157,-0.209903,0.582441,-0.405725
42,1806535632,0.857117,-0.489130,0.014128,-0.160948,0.577500,-0.149647,-0.822506
43,1806568966,0.866697,-0.471331,0.009777,-0.163064,0.156956,-0.351499,-1.418576
44,1806602300,0.876222,-0.452513,0.006420,-0.165610,-0.243243,0.714630,0.322647
45,1806635634,0.885223,-0.433940,0.001654,-0.167557,0.092739,-0.717320,0.060238
46,1806668968,0.893194,-0.416302,-0.001753,-0.169987,-0.376212,-0.339218,-1.327807
47,1806702302,0.900539,-0.399127,-0.005939,-0.172315,-0.546583,0.221273,0.308613
48,1806735636,0.907466,-0.382426,-0.011290,-0.173579,-0.024462,-0.516624,0.958256
49,1806768970,0.913440,-0.367014,-0.015825,-0.175153,0.157129,-0.729118,0.034001
50,1806802304,0.918363,-0.353643,-0.018962,-0.176599,-0.119522,-0.593710,0.019355
51,1806835638,0.922662,-0.341574,-0.022841,-0.177483,0.155358,-0.733550,0.672513
52,1806868972,0.926660,-0.329720,-0.027704,-0.178377,0.401300,-0.947766,1.054071
53,1806902306,0.930226,-0.318550,-0.032401,-0.179322,0.460434,-0.693850,0.450631
54,1806935640,0.933203,-0.308750,-0.035966,-0.180316,0.485724,-0.574784,0.191201
55,1806968974,0.935827,-0.299645,-0.038847,-0.181472,0.158167,-0.644326,0.681967
56,1807002308,0.938161,-0.291050,-0.042145,-0.182671,0.405368,-0.745572,0.442035
57,1807035642,0.940301,-0.282907,-0.043979,-0.184020,0.415465,-0.541833,-0.159458
58,1807068976,0.942094,-0.275893,-0.045163,-0.185210,-0.115228,-0.444870,0.495289
59,1807102310,0.943633,-0.269652,-0.047405,-0.186008,0.062885,-0.498201,0.860429
60,1807135644,0.944946,-0.264498,-0.048014,-0.186584,0.029668,-0.482329,0.138009
61,1807168978,0.945957,-0.261122,-0.047450,-0.186358,-0.455530,-0.575416,0.632948
62,1807202312,0.946805,-0.258768,-0.047902,-0.185215,-0.279540,-0.744322,1.184175
63,1807235646,0.947345,-0.257845,-0.048826,-0.183496,0.133072,-0.714734,0.895222
64,1807268980,0.947552,-0.258297,-0.047755,-0.182067,0.148032,-0.883107,1.154969
65,1807302314,0.947573,-0.259473,-0.045816,-0.180778,-0.084118,-0.936292,0.928029
66,1807335648,0.947116,-0.262449,-0.044422,-0.179219,0.035971,-0.710429,0.752194
67,1807368982,0.946402,-0.266378,-0.043827,-0.177330,0.076490,-0.760100,0.774650
68,1807402316,0.945511,-0.270758,-0.042810,-0.175691,0.401647,-0.392449,0.193348
69,1807435650,0.944235,-0.276392,-0.040166,-0.174397,0.280911,-0.136976,0.284063
70,1807468984,0.942736,-0.282694,-0.037115,-0.173077,-0.100515,-0.463952,0.397033
71,1807502318,0.941101,-0.289311,-0.033667,-0.171743,0.020719,-0.310643,0.117106
72,1807535652,0.939084,-0.297019,-0.030038,-0.170294,-0.054748,-0.302034,0.318437
73,1807568986,0.936804,-0.305292,-0.026697,-0.168767,0.268671,-0.506089,0.489220
74,1807602320,0.934240,-0.313990,-0.022790,-0.167594,0.403481,-0.380183,0.513449
75,1807635654,0.931175,-0.323749,-0.019642,-0.166476,0.095957,-0.411676,0.231934
76,1807668988,0.927765,-0.333863,-0.016320,-0.165897,0.225744,-0.294076,0.112221
77,1807702322,0.923972,-0.344606,-0.013025,-0.165391,0.227574,-0.422326,0.322547
78,1807735656,0.919594,-0.356472,-0.009267,-0.164894,0.130850,-0.381249,0.121679
79,1807768990,0.914592,-0.369511,-0.005023,-0.164194,-0.027919,-0.373283,0.045346
80,1807802324,0.909111,-0.383177,-0.001194,-0.163375,-0.044100,-0.364287,0.122877
81,1807835658,0.903111,-0.397512,0.002026,-0.162396,0.129857,-0.386962,0.072821
82,1807868992,0.896507,-0.412593,0.004965,-0.161302,0.154070,-0.469660,0.052686
83,1807902326,0.889582,-0.427664,0.008065,-0.160259,0.052984,-0.478174,-0.018503
84,1807935660,0.882237,-0.442902,0.010727,-0.159314,-0.196805,-0.584315,-0.003359
85,1807968994,0.874541,-0.458277,0.012331,-0.158142,-0.191076,-0.366918,-0.012011
86,1808002328,0.866589,-0.473521,0.013780,-0.156884,0.146411,-0.432768,-0.156296
87,1808035662,0.858321,-0.488708,0.015467,-0.155597,-0.171375,-0.261337,-0.239019
88,1808068996,0.849983,-0.503396,0.017015,-0.154380,-0.228932,-0.219575,-0.174037
89,1808102330,0.841660,-0.517495,0.018320,-0.153207,-0.083952,-0.114042,-0.293772
90,1808135664,0.833395,-0.530783,0.020824,-0.152608,-0.084897,-0.064128,-0.091400
91,1808168998,0.825096,-0.543693,0.023423,-0.151879,-0.469271,-0.236470,-0.185346
92,1808202332,0.816952,-0.556159,0.025399,-0.150438,-0.153830,0.011430,-0.199915
93,1808235666,0.808733,-0.568239,0.027485,-0.149330,-0.296745,-0.074212,0.004382
94,1808269000,0.800521,-0.580041,0.030012,-0.147709,-0.245875,-0.102398,-0.096166
95,1808302334,0.792139,-0.591320,0.034230,-0.147260,-0.213733,-0.329911,-0.184270
96,1808335668,0.782985,-0.603508,0.038379,-0.145742,-0.457639,-0.276358,0.222730
97,1808369002,0.774163,-0.615059,0.041420,-0.143731,-0.309772,0.113024,-0.014004
98,1808402336,0.766087,-0.625429,0.043893,-0.141508,-0.322557,0.129036,-0.376205
99,1808435670,0.757642,-0.636019,0.047108,-0.138709,-0.766727,-0.342826,-0.115651
100,1808469004,0.749046,-0.647188,0.048176,-0.133260,-0.501247,0.425121,0.055650
101,1808502338,0.741630,-0.657181,0.046362,-0.126292,0.989490,0.266600,-0.127760
102,1808535672,0.734561,-0.666100,0.045757,-0.120987,1.187433,0.642399,-0.212594
103,1808569006,0.726363,-0.675064,0.049040,-0.119503,0.449107,0.041299,-0.073366
104,1808602340,0.718868,-0.683314,0.051201,-0.117007,0.020593,0.615675,0.098418
105,1808635674,0.711666,-0.691318,0.051283,-0.113940,0.159184,-0.219818,-0.016116
106,1808669008,0.704303,-0.699205,0.051352,-0.111505,-0.170009,-0.067746,0.049478
107,1808702342,0.697709,-0.706501,0.049970,-0.107530,0.054977,0.332266,0.250916
108,1808735676,0.692749,-0.712213,0.047329,-0.103020,0.477799,0.577264,0.134260
109,1808769010,0.689285,-0.716380,0.044245,-0.098637,0.528449,0.779582,0.318343
110,1808802344,0.686473,-0.719505,0.042686,-0.096156,0.199047,0.659070,0.228005
111,1808835678,0.684359,-0.721756,0.042124,-0.094598,0.061781,0.693584,0.282867
112,1808869012,0.683194,-0.722805,0.042523,-0.094825,0.227739,0.495057,0.046273
113,1808902346,0.682918,-0.722888,0.043200,-0.095867,0.240523,0.568018,0.249004
114,1808935680,0.682882,-0.722736,0.043884,-0.096957,0.072445,0.191508,0.152878
115,1808969014,0.682663,-0.722775,0.044423,-0.097955,-0.088049,-0.083975,0.096394
116,1809002348,0.682921,-0.722531,0.044185,-0.098063,-0.310509,-0.249384,0.133761
117,1809035682,0.683032,-0.722489,0.043772,-0.097781,-0.019684,0.038427,0.131535
118,1809069016,0.682069,-0.723409,0.043738,-0.097719,0.136390,-0.018515,0.046403
119,1809102350,0.680862,-0.724446,0.044297,-0.098204,0.022688,0.249702,0.175477
120,1809135684,0.680001,-0.725167,0.044896,-0.098568,0.045619,0.255726,0.182487
121,1809169018,0.679699,-0.725374,0.045189,-0.098997,-0.100540,0.137259,0.115123
122,1809202352,0.679116,-0.725808,0.045644,-0.099601,-0.056236,-0.169481,0.076317
123,1809235686,0.678440,-0.726364,0.046114,-0.099946,0.067049,0.182158,0.180642
124,1809269020,0.678016,-0.726640,0.046549,-0.100610,0.066521,0.404738,0.120130
125,1809302354,0.677493,-0.726969,0.046997,-0.101542,0.028726,0.079160,0.186521
126,1809335688,0.676917,-0.727423,0.047268,-0.102010,-0.096872,-0.220713,0.087993
127,1809369022,0.676086,-0.728113,0.047753,-0.102374,-0.100685,-0.165288,0.105177
128,1809402356,0.675391,-0.728728,0.047811,-0.102553,-0.020820,-0.036027,0.144200
129,1809435690,0.674728,-0.729377,0.047563,-0.102422,0.053415,-0.133798,0.124249
130,1809469024,0.674098,-0.730002,0.047584,-0.102102,-0.025203,-0.104464,0.122094
131,1809502358,0.673415,-0.730611,0.047975,-0.102070,0.161892,0.152275,0.147685
132,1809535692,0.672987,-0.730949,0.048256,-0.102344,-0.024618,0.197154,0.109437
133,1809569026,0.672040,-0.731660,0.049060,-0.103103,0.077081,0.000137,0.116832
134,1809602360,0.671201,-0.732303,0.049927,-0.103584,0.053911,0.257758,0.152817
135,1809635694,0.670616,-0.732706,0.050556,-0.104214,-0.016629,0.213944,0.136226
136,1809669028,0.669811,-0.733303,0.051139,-0.104913,-0.066371,-0.081477,0.087357
137,1809702362,0.668752,-0.734168,0.051735,-0.105317,0.075507,-0.029153,0.123769
138,1809735696,0.667651,-0.735080,0.052297,-0.105670,0.081341,0.026987,0.098597
139,1809769030,0.666851,-0.735739,0.052686,-0.105935,-0.125870,0.001798,0.204484
140,1809802364,0.666024,-0.736549,0.052659,-0.105529,0.041503,-0.003483,0.092390
141,1809835698,0.665307,-0.737185,0.052847,-0.105519,0.007686,0.270898,0.211481
142,1809869032,0.665013,-0.737303,0.053228,-0.106343,-0.070079,0.233702,0.280891
143,1809902366,0.664387,-0.737678,0.053997,-0.107266,0.048226,0.030084,0.050642
144,1809935700,0.663782,-0.738075,0.054750,-0.107896,0.227041,-0.089062,-0.023762
145,1809969034,0.662908,-0.738745,0.055303,-0.108402,0.041873,-0.099126,0.072666
146,1810002368,0.662246,-0.739331,0.055544,-0.108337,-0.199600,0.040412,0.253690
147,1810035702,0.661823,-0.739805,0.055436,-0.107734,0.021467,-0.143758,0.074526
148,1810069036,0.661301,-0.740312,0.055366,-0.107498,0.011322,-0.014054,0.099165
149,1810102370,0.660719,-0.740858,0.055434,-0.107271,-0.087779,0.068614,0.229262
150,1810135704,0.660439,-0.741146,0.055475,-0.106990,0.015533,-0.034836,0.160767
151,1810169038,0.660065,-0.741438,0.055734,-0.107139,0.074771,-0.045663,0.056516
152,1810202372,0.659661,-0.741763,0.056081,-0.107202,-0.123103,0.081340,0.188308
153,1810235706,0.659168,-0.742226,0.056223,-0.106955,-0.024397,-0.043677,0.139997
154,1810269040,0.658333,-0.742979,0.056406,-0.106770,-0.002093,-0.030947,0.079113
155,1810302374,0.657794,-0.743453,0.056589,-0.106699,-0.013268,0.040043,0.163952
156,1810335708,0.657448,-0.743781,0.056625,-0.106525,0.006515,-0.109401,0.148608
157,1810369042,0.656905,-0.744287,0.056754,-0.106267,0.020271,-0.033373,0.113067
158,1810402376,0.656717,-0.744451,0.056962,-0.106171,-0.000175,-0.016897,0.117640
159,1810435710,0.656356,-0.744815,0.056990,-0.105833,0.002582,0.005961,0.108216
160,1810469044,0.656192,-0.744969,0.057138,-0.105690,-0.130455,-0.072619,0.201549
161,1810502378,0.656052,-0.745126,0.057212,-0.105409,-0.021614,-0.023849,0.077793
162,1810535712,0.655666,-0.745556,0.057075,-0.104847,0.061552,0.073835,0.108776
163,1810569046,0.655361,-0.745870,0.057031,-0.104540,-0.066985,0.145949,0.215597
164,1810602380,0.655283,-0.745955,0.057115,-0.104375,0.036861,0.018371,0.099169
165,1810635714,0.655123,-0.746139,0.057081,-0.104087,0.058276,0.007260,0.098120
166,1810669048,0.654919,-0.746299,0.057251,-0.104132,-0.094313,0.011090,0.187891
167,1810702382,0.654817,-0.746416,0.057263,-0.103921,-0.014935,-0.089083,0.125833
168,1810735716,0.654492,-0.746779,0.057111,-0.103445,0.008024,0.010877,0.089380
