sep=,
DeviceTag:,23_Right
FirmwareVersion:,2.2.1
AppVersion:,2023.6.0
SyncStatus:,Synced
OutputRate:,30Hz
FilterProfile:,General
Measurement Mode:,Sensor fusion Mode - Complete(Quaternion)
StartTime: ,2026-05-27_15:11:49_210 AEST
© Movella Technologies B. V. 2005-2026

PacketCounter,SampleTimeFine,Quat_W,Quat_X,Quat_Y,Quat_Z,FreeAcc_X,FreeAcc_Y,FreeAcc_Z
1,3577646415,-0.816170,0.531560,0.104569,-0.201024,0.000939,-0.084817,0.079015
2,3577679749,-0.816110,0.531741,0.104453,-0.200850,-0.102109,0.037602,0.115762
3,3577713083,-0.816184,0.531877,0.104173,-0.200333,-0.089510,-0.142446,0.269853
4,3577746417,-0.816120,0.532281,0.103568,-0.199835,0.167633,-0.141729,0.107476
5,3577779751,-0.815996,0.532681,0.103243,-0.199441,0.086145,-0.136462,0.086219
6,3577813085,-0.815913,0.532935,0.103107,-0.199172,-0.011276,-0.164661,0.106626
7,3577846419,-0.815955,0.532990,0.103073,-0.198869,-0.098783,-0.139174,0.117908
8,3577879753,-0.815974,0.533229,0.102812,-0.198288,-0.061254,-0.097170,0.110335
9,3577913087,-0.815977,0.533365,0.103051,-0.197787,-0.198108,-0.123710,0.235106
10,3577946421,-0.816172,0.533323,0.103201,-0.197013,-0.074259,0.079812,0.124542
11,3577979755,-0.816600,0.533451,0.102448,-0.195278,-0.008579,-0.029024,0.104321
12,3578013089,-0.817304,0.533266,0.101629,-0.193257,-0.008431,-0.196931,0.072918
13,3578046423,-0.818291,0.532728,0.100826,-0.190972,0.022054,0.203271,-0.003137
14,3578079757,-0.819157,0.532318,0.100157,-0.188739,-0.027695,0.087094,0.055783
15,3578113091,-0.820016,0.531860,0.099964,-0.186388,-0.249246,0.019307,0.091335
16,3578146425,-0.820730,0.531649,0.100412,-0.183583,-0.595720,-0.261247,0.209864
17,3578179759,-0.821102,0.532152,0.100722,-0.180263,-0.846954,-0.275756,0.386058
18,3578213093,-0.821232,0.532810,0.101946,-0.177013,-0.603105,-0.080773,0.349296
19,3578246427,-0.821457,0.533536,0.103223,-0.172994,-0.221539,0.039612,0.184815
20,3578279761,-0.821786,0.533980,0.105146,-0.168858,-0.152499,-0.096547,0.223413
21,3578313095,-0.822065,0.533961,0.108497,-0.165402,-0.155785,0.112438,0.123353
22,3578346429,-0.822597,0.533415,0.112217,-0.162003,-0.533672,0.034242,0.268582
23,3578379763,-0.823597,0.532752,0.114717,-0.157281,-0.749822,0.018868,0.248733
24,3578413097,-0.824323,0.533083,0.115565,-0.151639,-0.539263,0.117834,-0.111739
25,3578446431,-0.824758,0.534384,0.114686,-0.145225,0.183517,0.324821,-0.400834
26,3578479765,-0.824977,0.535003,0.116915,-0.139825,0.599547,0.014826,-0.513787
27,3578513099,-0.824816,0.535617,0.121023,-0.134840,0.068290,0.380671,-0.357550
28,3578546433,-0.823613,0.538424,0.123226,-0.128888,-0.064509,0.175809,-0.332961
29,3578579767,-0.821469,0.542409,0.125702,-0.123350,0.501798,0.355706,-0.356412
30,3578613101,-0.821723,0.541814,0.129911,-0.119858,-1.223874,1.318495,1.351909
31,3578646435,-0.822714,0.541065,0.129903,-0.116408,-1.224001,-0.292962,0.680981
32,3578679769,-0.822562,0.541824,0.128635,-0.115352,-0.466109,0.456248,0.543757
33,3578713103,-0.823342,0.540974,0.127794,-0.114709,-0.113407,-0.101560,-0.022578
34,3578746437,-0.824313,0.538961,0.129298,-0.115528,0.061909,0.172757,-0.468375
35,3578779771,-0.826289,0.535871,0.129304,-0.115776,-0.110536,0.246072,-0.388476
36,3578813105,-0.828743,0.532465,0.127984,-0.115414,-0.650415,0.432176,0.394077
37,3578846439,-0.831694,0.528456,0.125593,-0.115238,-0.339565,0.232972,0.285450
38,3578879773,-0.834638,0.524341,0.122840,-0.115722,-0.245602,0.329084,0.390515
39,3578913107,-0.837519,0.520355,0.119165,-0.116736,-0.052286,-0.228579,0.037858
40,3578946441,-0.839763,0.516941,0.115755,-0.119185,-0.158745,-0.335870,-0.195490
41,3578979775,-0.841462,0.513074,0.115496,-0.124064,0.034741,0.613774,0.113366
42,3579013109,-0.843416,0.509057,0.113429,-0.129144,0.266062,-0.195924,0.023530
43,3579046443,-0.845083,0.505822,0.110134,-0.133731,-0.401481,0.271996,0.578773
44,3579079777,-0.846689,0.503227,0.105654,-0.136938,-0.570171,-0.055212,0.388241
45,3579113111,-0.847372,0.501910,0.101262,-0.140813,-0.570149,-0.360547,0.403703
46,3579146445,-0.847492,0.500698,0.098503,-0.146256,0.244587,-0.337780,-0.362736
47,3579179779,-0.847283,0.499400,0.097262,-0.152597,-0.074263,0.162386,-0.579599
48,3579213113,-0.848102,0.496668,0.095560,-0.157944,-0.107014,0.428349,0.104826
49,3579246447,-0.849088,0.494164,0.092991,-0.161983,-0.120707,0.250618,-0.015199
50,3579279781,-0.850407,0.491383,0.090653,-0.164828,-0.354547,0.357413,0.201723
51,3579313115,-0.850788,0.489905,0.089102,-0.168072,-0.869834,-0.830189,0.137338
52,3579346449,-0.850402,0.488799,0.090702,-0.172338,-0.666697,0.130868,0.073286
53,3579379783,-0.849753,0.487970,0.093272,-0.176463,-0.254636,0.757896,0.068229
54,3579413117,-0.848620,0.488648,0.094452,-0.179391,-0.294447,-0.470602,0.018854
55,3579446451,-0.848240,0.488450,0.096143,-0.180822,-0.749543,0.106831,0.484241
56,3579479785,-0.848063,0.488393,0.096209,-0.181770,-0.005602,-0.982536,-0.001878
57,3579513119,-0.847935,0.487948,0.097698,-0.182765,0.099548,0.548834,-0.288144
58,3579546453,-0.847769,0.487712,0.099836,-0.183011,-0.725089,-0.238278,0.695521
59,3579579787,-0.847126,0.487240,0.104082,-0.184869,-0.397052,-0.100512,0.667080
60,3579613121,-0.846186,0.486769,0.109850,-0.187062,-0.071846,0.507267,-0.176628
61,3579646455,-0.845353,0.486490,0.115602,-0.188084,-0.031396,-0.269499,0.291543
62,3579679789,-0.844818,0.486368,0.120026,-0.188037,0.400740,-0.613990,-0.145712
63,3579713123,-0.844462,0.486123,0.124553,-0.187322,0.360460,-0.149617,0.100535
64,3579746457,-0.844496,0.485729,0.128119,-0.185783,-0.132449,-0.570700,0.477951
65,3579779791,-0.844351,0.486306,0.130570,-0.183206,0.526948,-0.975569,0.294758
66,3579813125,-0.843832,0.486766,0.135010,-0.181142,0.465934,-0.900137,0.331446
67,3579846459,-0.842890,0.485501,0.145226,-0.181020,0.477613,-0.108378,0.118006
68,3579879793,-0.842000,0.485274,0.152786,-0.179547,0.841616,-0.010761,0.129946
69,3579913127,-0.840579,0.486416,0.159499,-0.177262,1.291299,-0.803111,0.065214
70,3579946461,-0.839222,0.488349,0.163973,-0.174271,0.316410,0.195082,0.610781
71,3579979795,-0.837092,0.493426,0.163091,-0.171008,-0.340761,0.035573,-0.295978
72,3580013129,-0.835139,0.500874,0.156064,-0.165367,-0.497402,1.000507,-0.352838
73,3580046463,-0.833359,0.509216,0.145966,-0.157926,0.977352,-0.921456,-0.712381
74,3580079797,-0.832722,0.513645,0.140297,-0.151970,1.036945,0.094896,-0.005136
75,3580113131,-0.833062,0.516026,0.134670,-0.147054,0.510247,-0.217592,0.255619
76,3580146465,-0.833027,0.518406,0.129403,-0.143566,-0.972101,-0.205892,0.830784
77,3580179799,-0.832578,0.521321,0.124525,-0.139882,-1.292208,0.286303,0.224060
78,3580213133,-0.831225,0.525079,0.121018,-0.136916,-0.726410,-0.303367,0.046078
79,3580246467,-0.829833,0.527919,0.120397,-0.134978,-0.166263,0.020589,0.006180
80,3580279801,-0.829742,0.529665,0.116839,-0.131780,0.193239,-0.424659,0.054844
81,3580313135,-0.830583,0.529009,0.114768,-0.130941,0.053011,0.031381,-0.143402
82,3580346469,-0.832091,0.526522,0.114790,-0.131368,-0.481443,1.420962,-0.013328
83,3580379803,-0.833195,0.523989,0.115904,-0.133501,-0.844102,0.765005,0.410629
84,3580413137,-0.833053,0.522033,0.119931,-0.138404,-0.335916,0.084817,0.680310
85,3580446471,-0.833216,0.519292,0.125269,-0.142930,0.187812,0.406246,-0.250162
86,3580479805,-0.833932,0.516999,0.126512,-0.145939,0.493177,-0.566503,-0.417276
87,3580513139,-0.834593,0.514159,0.128271,-0.150589,0.001721,-0.348612,-0.018517
88,3580546473,-0.836058,0.510892,0.128895,-0.153028,0.120897,0.092984,0.088372
89,3580579807,-0.837645,0.508435,0.127285,-0.153878,0.196740,0.067501,-0.486071
90,3580613141,-0.838490,0.506351,0.126206,-0.156999,0.445631,0.084823,-0.031235
91,3580646475,-0.839195,0.504378,0.124479,-0.160917,0.342385,0.552536,-0.054173
92,3580679809,-0.839912,0.502493,0.122075,-0.164868,0.135764,-0.192706,-0.039922
93,3580713143,-0.840214,0.500705,0.120202,-0.170062,-0.444575,0.360988,0.161529
94,3580746477,-0.840223,0.499125,0.118698,-0.175629,-0.125164,0.139741,0.267799
95,3580779811,-0.839900,0.498463,0.116488,-0.180466,-0.200967,0.307745,-0.080006
96,3580813145,-0.838822,0.498900,0.114098,-0.185723,-0.196690,-0.080915,0.416916
97,3580846479,-0.837714,0.499481,0.111408,-0.190726,-0.559540,-0.041696,0.355408
98,3580879813,-0.836168,0.501377,0.108532,-0.194168,0.173772,-0.363700,0.309704
99,3580913147,-0.834295,0.503785,0.105798,-0.197467,0.665812,0.367961,-0.338661
100,3580946481,-0.832228,0.505910,0.103781,-0.201782,0.301198,-0.256881,0.097458
101,3580979815,-0.831022,0.506672,0.101420,-0.205998,0.301771,0.171139,0.138525
102,3581013149,-0.830061,0.506591,0.099774,-0.210818,-0.004580,-0.556704,0.233512
103,3581046483,-0.829838,0.504905,0.099101,-0.215996,-0.145922,-0.001432,0.102589
104,3581079817,-0.830326,0.502212,0.098917,-0.220435,-0.092662,0.293285,0.100609
105,3581113151,-0.831738,0.498616,0.099003,-0.223220,-0.439629,0.095161,0.623616
106,3581146485,-0.833273,0.496520,0.096812,-0.223131,-0.015505,0.118990,0.140584
107,3581179819,-0.834547,0.495233,0.095035,-0.221988,-0.369459,-0.021887,0.158244
108,3581213153,-0.835707,0.494281,0.093241,-0.220502,-0.348766,-0.130530,0.253574
109,3581246487,-0.836465,0.493463,0.092788,-0.219649,-0.074880,0.008137,0.097097
110,3581279821,-0.837020,0.492876,0.092437,-0.219001,0.491187,-0.866890,0.211651
111,3581313155,-0.838154,0.491327,0.092589,-0.218077,0.049478,-0.351118,0.298036
112,3581346489,-0.839567,0.489869,0.091938,-0.216190,0.262982,-0.536585,-0.061171
113,3581379823,-0.841291,0.487743,0.092025,-0.214248,-0.448136,0.198201,0.137450
114,3581413157,-0.842593,0.486289,0.092063,-0.212414,-0.157379,-0.022142,0.590142
115,3581446491,-0.843520,0.485392,0.092261,-0.210692,-0.052964,-0.136500,0.009011
116,3581479825,-0.843858,0.484922,0.093630,-0.209816,0.057849,-0.140469,-0.201248
117,3581513159,-0.843924,0.484350,0.096285,-0.209672,-0.140851,0.066649,0.331083
118,3581546493,-0.844820,0.482042,0.098760,-0.210231,0.011563,-0.232350,-0.092612
119,3581579827,-0.845448,0.479319,0.103028,-0.211874,-0.042790,0.022305,0.164918
120,3581613161,-0.846492,0.476385,0.106879,-0.212418,-0.644165,0.660310,0.609665
121,3581646495,-0.847538,0.474721,0.107645,-0.211581,0.478629,0.536918,-0.552996
122,3581679829,-0.847313,0.474488,0.111655,-0.210926,-0.311058,-1.388348,0.449946
123,3581713163,-0.846391,0.475253,0.117857,-0.209528,-1.051871,-0.203281,0.725554
124,3581746497,-0.845114,0.480087,0.117595,-0.203729,0.167178,-0.347533,0.124619
125,3581779831,-0.843009,0.486541,0.116851,-0.197471,-0.033060,-0.190379,-0.200336
126,3581813165,-0.840475,0.493266,0.116954,-0.191436,-0.113135,0.177022,-0.007363
127,3581846499,-0.837527,0.499246,0.118649,-0.187775,0.217010,-0.509946,0.430301
128,3581879833,-0.834730,0.504485,0.121352,-0.184471,0.476302,0.005727,-0.384143
129,3581913167,-0.833048,0.507797,0.125561,-0.180119,0.360814,0.608354,-0.427417
130,3581946501,-0.832376,0.510233,0.127800,-0.174687,0.762876,-0.709064,0.070268
131,3581979835,-0.833268,0.510054,0.129440,-0.169673,0.231591,0.438346,-0.267700
132,3582013169,-0.834027,0.509858,0.130786,-0.165449,-0.386128,0.126274,0.205115
133,3582046503,-0.834124,0.510465,0.131193,-0.162746,-0.783581,0.047429,0.198490
134,3582079837,-0.833727,0.511841,0.131526,-0.160167,-0.481729,0.263777,0.153166
135,3582113171,-0.832621,0.513809,0.132663,-0.158676,0.058559,0.043126,-0.149314
136,3582146505,-0.832147,0.514192,0.134265,-0.158573,-0.396365,0.392656,0.432930
137,3582179839,-0.833049,0.513582,0.132639,-0.157174,-0.491297,0.215114,0.083611
138,3582213173,-0.834615,0.512357,0.129491,-0.155482,0.341452,0.261645,0.032270
139,3582246507,-0.837080,0.510173,0.124147,-0.153762,0.482563,0.323143,-0.167381
140,3582279841,-0.839504,0.507327,0.119271,-0.153826,0.138251,-0.394689,-0.109670
141,3582313175,-0.841597,0.504445,0.115058,-0.155067,-0.111780,0.107548,-0.259581
142,3582346509,-0.843370,0.501562,0.111110,-0.157644,-0.148645,-0.098275,0.376555
143,3582379843,-0.845255,0.498593,0.106116,-0.160381,0.206488,0.448746,-0.174335
144,3582413177,-0.847121,0.495263,0.101166,-0.164013,0.614044,-0.015775,0.189006
145,3582446511,-0.849198,0.490852,0.096096,-0.169493,0.471000,-0.077747,0.248030
146,3582479845,-0.851028,0.486081,0.089992,-0.177238,-0.079268,0.225457,0.386894
147,3582513179,-0.852377,0.483141,0.079688,-0.183612,-0.252923,0.139741,0.550056
148,3582546513,-0.853204,0.480571,0.069361,-0.190575,-0.155469,0.078156,0.535752
149,3582579847,-0.852786,0.478528,0.063395,-0.199454,0.813259,0.182157,-0.526701
150,3582613181,-0.851013,0.477382,0.061118,-0.210198,-0.356796,1.041424,0.683305
151,3582646515,-0.848911,0.477914,0.057320,-0.218400,-0.521234,0.651542,0.483949
152,3582679849,-0.846395,0.479963,0.054385,-0.224338,-0.238409,-0.953783,0.227268
153,3582713183,-0.843099,0.482512,0.055504,-0.230914,-0.239247,-1.551873,0.148946
154,3582746517,-0.840288,0.483659,0.059423,-0.237686,0.148531,-0.719616,-1.120421
155,3582779851,-0.837512,0.483291,0.068526,-0.245647,0.616177,-0.962192,-0.302078
156,3582813185,-0.835588,0.479343,0.083561,-0.255098,-0.639838,0.707463,0.513483
157,3582846519,-0.834589,0.478366,0.088918,-0.258369,-0.520452,0.859322,0.249099
158,3582879853,-0.834216,0.479916,0.087456,-0.257197,-0.359688,-0.230475,0.243246
159,3582913187,-0.833606,0.481420,0.087533,-0.256337,0.325778,-0.374651,-0.206787
160,3582946521,-0.832927,0.481886,0.089804,-0.256883,0.426284,0.101892,-0.299755
161,3582979855,-0.832829,0.480592,0.093722,-0.258221,-0.209703,0.341192,0.095983
162,3583013189,-0.833404,0.479684,0.094498,-0.257771,-0.422850,-0.072686,0.336566
163,3583046523,-0.834447,0.478939,0.093367,-0.256190,0.061374,-0.419019,-0.003450
164,3583079857,-0.835522,0.479097,0.091745,-0.252959,0.114331,0.269450,-0.076682
165,3583113191,-0.836429,0.479354,0.090985,-0.249726,-0.081809,0.310124,-0.038363
166,3583146525,-0.836794,0.479439,0.092082,-0.247930,-0.298967,-0.225167,0.952114
167,3583179859,-0.836659,0.480527,0.092308,-0.246190,0.186275,-0.602485,-0.298642
168,3583213193,-0.836713,0.481509,0.092829,-0.243880,-0.139137,-0.149533,0.076014
169,3583246527,-0.836951,0.483110,0.091547,-0.240359,-0.127521,0.061160,0.257646
170,3583279861,-0.836769,0.485194,0.090393,-0.237209,0.277146,-0.285356,-0.153156
171,3583313195,-0.836577,0.486459,0.091650,-0.234802,-0.097391,0.098722,0.244473
172,3583346529,-0.836598,0.487857,0.092269,-0.231560,-0.193248,0.416511,0.084493
173,3583379863,-0.836717,0.489651,0.092246,-0.227314,-0.412362,0.086478,0.673291
174,3583413197,-0.836285,0.492536,0.092184,-0.222648,-0.022283,-0.272949,-0.112037
175,3583446531,-0.835452,0.495819,0.093715,-0.217798,-0.174814,-0.102790,0.360752
176,3583479865,-0.834225,0.499952,0.095222,-0.212331,0.331200,-0.132991,-0.219530
177,3583513199,-0.832693,0.504153,0.097581,-0.207276,-0.191848,-0.152135,0.248101
178,3583546533,-0.831353,0.508316,0.099491,-0.201504,0.311974,0.432584,-0.011013
179,3583579867,-0.830359,0.512718,0.099590,-0.194272,0.472834,0.278877,-0.167568
180,3583613201,-0.830836,0.514598,0.099270,-0.187297,0.458309,-0.359862,-0.290165
181,3583646535,-0.831786,0.514913,0.099943,-0.181779,0.334743,-0.135671,0.003392
182,3583679869,-0.833190,0.514581,0.100396,-0.175944,0.062985,0.599192,-0.107614
183,3583713203,-0.834385,0.514803,0.099304,-0.170154,-0.307743,0.183076,0.749129
184,3583746537,-0.834641,0.515804,0.098954,-0.166024,0.198004,-0.709587,0.016224
185,3583779871,-0.834559,0.516485,0.100779,-0.163197,0.128196,-0.207870,0.112977
186,3583813205,-0.834530,0.517078,0.102394,-0.160439,0.205724,-0.219249,-0.109614
187,3583846539,-0.835161,0.516550,0.103069,-0.158413,0.064713,0.217330,0.100855
188,3583879873,-0.836233,0.515319,0.102356,-0.157224,-0.064423,-0.202767,-0.048512
189,3583913207,-0.837267,0.513174,0.103331,-0.158094,-0.298020,0.290768,0.237454
190,3583946541,-0.838646,0.510471,0.104046,-0.159063,0.197970,1.128329,-0.409191
191,3583979875,-0.840008,0.507498,0.105550,-0.160391,0.221620,0.035918,-0.180805
192,3584013209,-0.841693,0.502968,0.109577,-0.163104,-0.146827,-0.289934,0.077090
193,3584046543,-0.843641,0.498120,0.111745,-0.166415,-0.016637,0.363238,-0.171520
194,3584079877,-0.845893,0.493231,0.112733,-0.168863,0.119695,-0.465771,-0.314329
195,3584113211,-0.848084,0.487006,0.116854,-0.173085,-0.701003,1.141618,1.019340
196,3584146545,-0.850654,0.481503,0.115209,-0.176929,0.361154,-0.225912,0.263398
197,3584179879,-0.853134,0.475838,0.112999,-0.181677,0.327864,-0.491619,-0.035159
198,3584213213,-0.855374,0.470274,0.110815,-0.186900,0.191521,0.017772,-0.193122
199,3584246547,-0.857606,0.465283,0.106848,-0.191422,0.187559,-0.081106,0.217770
200,3584279881,-0.859442,0.460412,0.103589,-0.196686,0.543950,0.354594,-0.234990
201,3584313215,-0.860088,0.457232,0.101056,-0.202508,-0.783580,0.405996,1.444774
202,3584346549,-0.859871,0.456608,0.097380,-0.206598,-0.553974,-0.690745,0.470524
203,3584379883,-0.858358,0.458150,0.094428,-0.210803,-0.323111,-0.430149,0.721648
204,3584413217,-0.856118,0.460676,0.092321,-0.215296,0.371973,-1.220147,0.048949
205,3584446551,-0.853732,0.463772,0.089890,-0.219116,0.178434,0.361433,-0.351044
206,3584479885,-0.851687,0.466788,0.087365,-0.221676,0.544445,0.473463,-0.437932
207,3584513219,-0.850310,0.467221,0.087742,-0.225861,0.047940,0.437641,0.431499
208,3584546553,-0.849814,0.466740,0.087609,-0.228755,0.154954,0.429973,-0.271761
209,3584579887,-0.849303,0.466861,0.088054,-0.230232,-0.011930,-0.888187,0.136359
210,3584613221,-0.849187,0.466889,0.088628,-0.230383,-0.868306,-1.009304,0.754694
211,3584646555,-0.848892,0.467997,0.087571,-0.229626,-0.327171,0.252600,0.324477
212,3584679889,-0.847680,0.469682,0.088077,-0.230468,0.810629,-0.297681,-0.446341
213,3584713223,-0.847060,0.468968,0.091630,-0.232803,0.148500,-0.091722,-0.131641
214,3584746557,-0.846963,0.468331,0.094022,-0.233484,-0.179172,0.204058,0.295941
215,3584779891,-0.846985,0.468191,0.094999,-0.233287,-0.516471,-0.195640,0.519548
216,3584813225,-0.847488,0.467521,0.095515,-0.232593,-0.470339,-0.015601,0.476260
217,3584846559,-0.848014,0.467229,0.095572,-0.231235,0.000330,-0.593440,0.174176
218,3584879893,-0.848160,0.467407,0.095977,-0.230170,-0.072557,-0.353338,0.027507
219,3584913227,-0.848474,0.467825,0.095916,-0.228180,-0.514019,-0.042141,0.476052
220,3584946561,-0.848796,0.468280,0.095629,-0.226160,0.080709,-0.005579,0.184781
221,3584979895,-0.848859,0.468941,0.096437,-0.224204,0.168881,0.174971,-0.172333
222,3585013229,-0.849865,0.468554,0.097321,-0.220794,-0.636575,0.114452,0.140915
223,3585046563,-0.850552,0.469081,0.097391,-0.216966,-0.303655,-0.333855,0.101486
224,3585079897,-0.851032,0.468947,0.099903,-0.214213,-0.321139,-0.195164,0.374494
225,3585113231,-0.850802,0.470193,0.102072,-0.211355,-0.091259,1.015748,0.141500
226,3585146565,-0.849977,0.472259,0.104873,-0.208680,0.010749,0.245389,0.386126
227,3585179899,-0.848813,0.475280,0.107986,-0.204936,-0.267170,-0.765012,0.599627
228,3585213233,-0.846883,0.480109,0.110589,-0.200222,0.344753,-0.496500,0.094888
229,3585246567,-0.843568,0.486969,0.114187,-0.195577,0.277790,-0.118307,0.636015
230,3585279901,-0.839766,0.494411,0.117851,-0.191041,0.251431,0.325383,0.001222
231,3585313235,-0.835733,0.501846,0.121739,-0.186854,1.265422,-0.573775,-0.373456
232,3585346569,-0.832667,0.507392,0.125745,-0.182872,0.696262,-1.350914,-0.069484
233,3585379903,-0.831122,0.509727,0.131487,-0.179334,0.570908,-0.128333,-0.252565
234,3585413237,-0.831005,0.510781,0.134174,-0.174828,-0.228009,0.490416,0.261650
235,3585446571,-0.831383,0.511399,0.134719,-0.170763,-0.185776,0.692162,0.292231
236,3585479905,-0.831427,0.512406,0.135291,-0.167033,-0.739352,0.098331,0.466890
237,3585513239,-0.830888,0.514038,0.136725,-0.163500,-0.333852,-0.362754,0.700052
238,3585546573,-0.830499,0.516041,0.136899,-0.158953,-0.037592,-0.367338,-0.078620
239,3585579907,-0.830645,0.516821,0.137047,-0.155492,0.359102,-0.815168,0.311725
240,3585613241,-0.831488,0.516372,0.136737,-0.152729,0.238900,0.560061,-0.227825
241,3585646575,-0.833051,0.514708,0.136733,-0.149804,0.000037,0.307188,0.363607
242,3585679909,-0.834433,0.513036,0.136871,-0.147705,0.193098,0.494654,0.091837
243,3585713243,-0.835259,0.511824,0.137826,-0.146345,0.310978,0.331426,-0.030319
244,3585746577,-0.835675,0.511123,0.138155,-0.146110,-0.039142,-0.343964,0.436704
245,3585779911,-0.836555,0.509123,0.138719,-0.147520,-0.127427,-0.138880,0.319114
246,3585813245,-0.838039,0.506551,0.137753,-0.148846,0.423876,0.026103,-0.224990
247,3585846579,-0.839761,0.503803,0.135816,-0.150241,0.262496,0.367500,-0.603312
248,3585879913,-0.841568,0.500635,0.134186,-0.152175,-0.653489,0.166048,0.860075
249,3585913247,-0.843699,0.497146,0.131014,-0.154562,0.395585,0.170426,-0.699120
250,3585946581,-0.846155,0.492659,0.128293,-0.157748,-0.612590,0.755936,0.994285
251,3585979915,-0.848699,0.488704,0.123748,-0.159999,0.765721,-0.352154,-0.159908
252,3586013249,-0.850816,0.484573,0.120470,-0.163775,0.125203,-0.256298,0.375274
253,3586046583,-0.852633,0.480971,0.117213,-0.167271,-0.543871,-0.338492,0.295724
254,3586079917,-0.853767,0.478602,0.114056,-0.170437,-0.472132,0.102738,0.223166
255,3586113251,-0.853288,0.479108,0.111480,-0.173096,-0.210375,0.215768,0.685073
256,3586146585,-0.851733,0.481533,0.109174,-0.175475,0.027124,-0.321257,0.242006
257,3586179919,-0.849132,0.484842,0.108336,-0.179449,0.458930,-0.234117,0.067612
258,3586213253,-0.846401,0.487615,0.107995,-0.184957,0.569008,0.244968,-0.383970
259,3586246587,-0.844180,0.489601,0.107268,-0.190210,0.473414,-0.068461,-0.533293
260,3586279921,-0.842905,0.489928,0.106039,-0.195632,0.232881,-0.709974,-0.047567
261,3586313255,-0.842427,0.489343,0.103835,-0.200284,0.034933,-0.250594,0.169656
262,3586346589,-0.842457,0.488727,0.101434,-0.202874,-0.167827,0.315090,0.013684
263,3586379923,-0.843350,0.486871,0.100264,-0.204206,-0.318246,0.044172,1.672042
264,3586413257,-0.843387,0.487066,0.097708,-0.204823,0.280681,-1.154910,-0.217080
265,3586446591,-0.842722,0.487860,0.097568,-0.205735,-0.560788,-0.519269,0.243379
266,3586479925,-0.841937,0.489000,0.097914,-0.206080,0.336310,0.848989,0.037895
267,3586513259,-0.840974,0.489558,0.099121,-0.208101,0.820390,0.046958,-0.175829
268,3586546593,-0.840518,0.489194,0.100144,-0.210298,0.430087,-0.075699,0.107936
269,3586579927,-0.840806,0.488210,0.100987,-0.211029,0.233287,-0.567388,0.164046
270,3586613261,-0.841624,0.486773,0.101157,-0.211004,-0.191053,-0.548186,0.230062
271,3586646595,-0.842202,0.485957,0.101297,-0.210513,0.009394,-0.006367,0.084628
272,3586679929,-0.842617,0.485440,0.101621,-0.209889,-0.262258,0.094025,0.423190
273,3586713263,-0.843117,0.484997,0.101677,-0.208875,0.012055,-0.118155,-0.010251
274,3586746597,-0.843409,0.484509,0.102488,-0.208428,-0.029170,-0.257076,0.292232
275,3586779931,-0.843585,0.484268,0.103183,-0.207936,0.200407,-0.210537,0.106047
276,3586813265,-0.844101,0.483833,0.103707,-0.206588,-0.102525,0.423413,-0.361450
277,3586846599,-0.844494,0.483314,0.104685,-0.205703,-0.193657,-0.347080,0.850184
278,3586879933,-0.844296,0.483873,0.105252,-0.204910,-0.343502,-0.303743,-0.163543
279,3586913267,-0.843698,0.485063,0.107326,-0.203480,-0.560772,0.253183,0.333268
280,3586946601,-0.843116,0.486047,0.110146,-0.202029,-0.554858,0.229451,0.607387
281,3586979935,-0.841808,0.488198,0.113218,-0.200593,0.343809,-0.506984,0.489846
282,3587013269,-0.840645,0.490257,0.117042,-0.198241,-0.065182,-0.811596,0.600199
283,3587046603,-0.838919,0.493163,0.121290,-0.195777,-0.163392,-0.432438,0.708740
284,3587079937,-0.835767,0.497638,0.127147,-0.194210,0.106625,-1.208776,0.487103
285,3587113271,-0.831233,0.500680,0.140987,-0.196289,-0.506069,-0.101506,0.577648
286,3587146605,-0.826895,0.503562,0.154827,-0.196806,0.385455,0.756143,-0.487046
287,3587179939,-0.822946,0.506175,0.166934,-0.196761,1.612530,-0.775156,-0.983999
288,3587213273,-0.820744,0.505978,0.179339,-0.195543,2.096656,-0.251913,-1.312940
289,3587246607,-0.821754,0.504116,0.185108,-0.190676,0.978875,-0.289810,-0.810788
290,3587279941,-0.822833,0.499572,0.195187,-0.187913,-0.129894,0.033709,0.021633
291,3587313275,-0.825632,0.498698,0.192742,-0.180324,-0.595076,1.835039,0.289072
292,3587346609,-0.829031,0.501528,0.180926,-0.168754,-1.351641,1.075091,0.669824
293,3587379943,-0.830908,0.504623,0.172195,-0.159156,-0.607942,-0.330859,0.416488
294,3587413277,-0.831041,0.507504,0.168896,-0.152711,-0.187609,0.833205,-0.261642
295,3587446611,-0.830657,0.513104,0.159738,-0.145781,-0.883602,1.552410,0.084461
296,3587479945,-0.831275,0.519184,0.143269,-0.137620,-0.620776,0.820135,0.007455
297,3587513279,-0.831150,0.524018,0.129791,-0.133359,0.098179,-1.580687,0.168627
298,3587546613,-0.830642,0.524338,0.129480,-0.135544,-0.012300,-0.658554,-0.290606
299,3587579947,-0.830184,0.522481,0.134325,-0.140713,-0.012308,-0.080211,-0.144132
300,3587613281,-0.829189,0.520088,0.142556,-0.147201,-0.073910,-2.990570,0.497116
301,3587646615,-0.827966,0.514623,0.157891,-0.157294,0.283802,0.309684,-0.200076
302,3587679949,-0.828280,0.509193,0.166873,-0.163902,0.938189,0.869233,-0.001339
303,3587713283,-0.829423,0.504413,0.171244,-0.168333,0.849637,-2.024621,-0.505267
304,3587746617,-0.830048,0.498538,0.178245,-0.175336,-0.078412,0.000729,0.649640
305,3587779951,-0.831315,0.493366,0.180534,-0.181517,0.417586,0.486435,0.531750
306,3587813285,-0.833461,0.489634,0.176570,-0.185631,-0.008125,-0.270668,0.557824
307,3587846619,-0.835654,0.486354,0.170778,-0.189769,0.060687,-0.153684,0.074378
308,3587879953,-0.838250,0.483728,0.161252,-0.193329,-0.064413,0.780680,0.489662
309,3587913287,-0.839673,0.481122,0.154700,-0.198932,0.231664,-0.782489,-0.167432
310,3587946621,-0.839651,0.481158,0.147923,-0.204027,-0.426577,-0.850486,0.369925
311,3587979955,-0.839210,0.481749,0.142077,-0.208552,0.326545,-0.216415,0.120787
312,3588013289,-0.837675,0.482501,0.139138,-0.214868,0.800595,-0.418991,-0.442386
313,3588046623,-0.836157,0.483620,0.135847,-0.220305,0.034252,-0.427310,0.390181
314,3588079957,-0.835583,0.484455,0.130187,-0.224032,0.002624,-0.643841,0.210980
315,3588113291,-0.834131,0.484811,0.127404,-0.230190,0.365338,-0.718237,-0.030434
316,3588146625,-0.832770,0.485304,0.124984,-0.235347,0.472350,0.081763,0.047853
317,3588179959,-0.832399,0.484927,0.122524,-0.238708,0.052912,-0.132918,0.321745
318,3588213293,-0.832630,0.484382,0.119873,-0.240347,0.214055,-0.398132,0.071422
319,3588246627,-0.833169,0.484772,0.115993,-0.239595,0.309871,-0.106326,0.145906
320,3588279961,-0.833675,0.486527,0.110335,-0.236935,0.092553,-0.176627,0.088052
321,3588313295,-0.834201,0.488260,0.104231,-0.234268,0.255516,-0.168200,0.017912
322,3588346629,-0.835217,0.488759,0.099395,-0.231695,0.438035,-0.448735,-0.154783
323,3588379963,-0.836619,0.488171,0.096153,-0.229231,0.169548,-0.243839,-0.186716
324,3588413297,-0.838162,0.487394,0.093487,-0.226335,-0.863837,-0.022473,0.644274
325,3588446631,-0.839626,0.487467,0.089731,-0.222233,-0.264986,-0.202595,0.377191
326,3588479965,-0.840754,0.487975,0.086725,-0.218006,-0.042231,0.149576,0.125931
327,3588513299,-0.842025,0.487999,0.085286,-0.213572,0.294425,0.297467,0.184064
328,3588546633,-0.843494,0.488132,0.083347,-0.208164,0.062964,-0.700852,0.339035
329,3588579967,-0.845193,0.489092,0.079062,-0.200556,-0.304262,-0.691697,-0.082222
330,3588613301,-0.847106,0.489904,0.075104,-0.191830,0.096182,0.096095,0.132629
331,3588646635,-0.849245,0.490562,0.070799,-0.182081,0.202533,-0.091854,-0.005720
332,3588679969,-0.851298,0.491068,0.067474,-0.172124,-0.452064,0.040725,0.437275
333,3588713303,-0.853060,0.491903,0.064715,-0.161764,-0.146600,-0.235168,0.173326
334,3588746637,-0.854610,0.492944,0.062948,-0.150730,-0.217163,-0.135297,0.030588
335,3588779971,-0.856122,0.493757,0.062931,-0.139044,-0.275776,0.301376,0.245543
336,3588813305,-0.857188,0.495272,0.063826,-0.126080,0.377870,-0.018766,0.266580
337,3588846639,-0.857733,0.497488,0.066026,-0.111691,-0.168570,-0.396743,0.405555
338,3588879973,-0.858143,0.500997,0.062950,-0.093083,-0.024725,-0.383289,0.351076
339,3588913307,-0.857369,0.505728,0.059702,-0.075029,-0.346910,-0.339206,0.433108
340,3588946641,-0.855295,0.511614,0.057233,-0.059001,-0.379461,-0.119296,0.401898
341,3588979975,-0.852068,0.518526,0.055633,-0.045288,0.039229,0.372781,0.531500
342,3589013309,-0.848382,0.525682,0.053903,-0.032188,0.479117,0.052535,-0.080769
343,3589046643,-0.844851,0.532057,0.053207,-0.018627,0.995435,0.469147,-0.272082
344,3589079977,-0.841549,0.537415,0.054630,-0.005628,0.697909,0.424197,-0.173115
345,3589113311,-0.838470,0.541971,0.056863,0.006189,0.215662,0.439840,0.394976
346,3589146645,-0.835579,0.546199,0.056440,0.017983,0.416528,0.014825,-0.097963
347,3589179979,-0.832764,0.550037,0.056440,0.028511,0.471691,0.049417,-0.129268
348,3589213313,-0.829719,0.554112,0.056634,0.036788,0.303832,0.040008,-0.248404
349,3589246647,-0.826830,0.557895,0.057679,0.042580,-0.000671,0.261785,0.163108
350,3589279981,-0.824684,0.560550,0.058904,0.047384,0.130228,0.450855,0.116673
351,3589313315,-0.823193,0.562394,0.058496,0.051764,0.155344,0.207120,-0.043562
352,3589346649,-0.822555,0.563103,0.057208,0.055500,0.323446,0.205773,-0.029430
353,3589379983,-0.822722,0.562791,0.054466,0.058840,-0.064511,0.218484,-0.071554
354,3589413317,-0.823664,0.561417,0.052354,0.060686,-0.384797,0.428562,0.252013
355,3589446651,-0.824530,0.560206,0.051716,0.060667,-0.211123,0.427807,0.077792
356,3589479985,-0.825232,0.559140,0.052408,0.060348,0.134447,0.461787,0.167210
357,3589513319,-0.825669,0.558468,0.050885,0.061884,-0.371627,-0.156437,-0.094054
358,3589546653,-0.826229,0.557601,0.049764,0.063135,-0.197580,0.245292,0.416460
359,3589579987,-0.827259,0.556068,0.045045,0.066613,0.017562,0.436595,-0.151579
360,3589613321,-0.828273,0.554513,0.040025,0.070085,-0.175371,0.243094,0.029027
361,3589646655,-0.829868,0.552111,0.036130,0.072262,-0.333942,0.187304,0.076482
362,3589679989,-0.832293,0.548486,0.030467,0.074557,0.244925,0.728337,0.724380
363,3589713323,-0.834445,0.544923,0.021203,0.079663,0.085866,-0.534856,-0.958892
364,3589746657,-0.837051,0.540690,0.014076,0.082678,-0.902615,1.043401,1.065473
365,3589779991,-0.839704,0.535929,0.003252,0.087755,0.032963,0.244093,0.651731
366,3589813325,-0.841533,0.531846,-0.009742,0.094351,-0.231384,-0.212009,-0.489949
367,3589846659,-0.842882,0.528605,-0.018422,0.099110,-0.715361,0.436785,0.991924
368,3589879993,-0.843567,0.526079,-0.026939,0.104616,-0.251656,0.661013,0.611178
369,3589913327,-0.843048,0.525352,-0.035876,0.109650,-0.132807,-0.634624,-0.093064
370,3589946661,-0.842707,0.524542,-0.043120,0.113476,0.831784,0.326280,-0.442262
371,3589979995,-0.843035,0.522759,-0.049498,0.116619,0.780445,0.699063,0.079646
372,3590013329,-0.844234,0.519709,-0.055059,0.119055,0.480561,0.503687,0.498113
373,3590046663,-0.845527,0.516596,-0.059084,0.121473,-0.272873,-0.459837,0.367881
374,3590079997,-0.846416,0.513749,-0.063221,0.125219,-0.449764,-0.481971,0.390483
375,3590113331,-0.846181,0.511277,-0.070317,0.132905,0.262726,-0.219480,0.177278
376,3590146665,-0.845290,0.509664,-0.077204,0.140722,0.603935,0.487518,-0.111901
377,3590179999,-0.844507,0.508617,-0.081615,0.146595,0.832127,-0.090669,-0.387568
378,3590213333,-0.844239,0.507209,-0.084762,0.151159,0.703283,0.871225,-0.090856
379,3590246667,-0.844093,0.505606,-0.088183,0.155334,-0.377000,0.359836,0.172197
380,3590280001,-0.844465,0.503234,-0.090735,0.159488,0.194471,0.462898,0.266070
381,3590313335,-0.844516,0.499619,-0.095891,0.167373,-0.298740,0.058631,0.096076
382,3590346669,-0.844566,0.495126,-0.101687,0.176784,0.010151,0.601829,0.449204
383,3590380003,-0.844373,0.490594,-0.107706,0.186509,-0.458471,-0.408330,0.282739
384,3590413337,-0.843463,0.486895,-0.113380,0.196680,-0.281529,-0.260429,-0.040129
385,3590446671,-0.842187,0.483890,-0.117796,0.206711,0.726504,0.825920,0.550398
386,3590480005,-0.839733,0.481872,-0.123514,0.217776,0.168619,-0.087727,0.013884
387,3590513339,-0.836864,0.481670,-0.126427,0.227385,0.267594,0.175148,0.230229
388,3590546673,-0.833136,0.482745,-0.129014,0.237132,0.254681,0.391826,0.415721
389,3590580007,-0.828653,0.484918,-0.131673,0.246748,-0.317462,-0.043737,0.013724
390,3590613341,-0.823821,0.488048,-0.133595,0.255569,0.436346,0.239075,0.366998
391,3590646675,-0.817963,0.492033,-0.136074,0.265252,-0.622081,-0.599260,-0.040669
392,3590680009,-0.811199,0.497041,-0.138612,0.275188,0.103628,0.039836,0.268746
393,3590713343,-0.803967,0.502691,-0.141448,0.284546,0.368745,0.202560,0.125209
394,3590746677,-0.796581,0.509771,-0.144079,0.291321,0.427292,0.028577,-0.446886
395,3590780011,-0.789690,0.517711,-0.144541,0.295818,0.535762,0.351529,0.367182
396,3590813345,-0.782853,0.524342,-0.145541,0.301762,0.498160,-0.720391,-0.323481
397,3590846679,-0.776381,0.528762,-0.148215,0.309372,0.168175,-0.316608,0.006886
398,3590880013,-0.770444,0.530862,-0.152225,0.318534,0.739981,0.276217,0.282931
399,3590913347,-0.764475,0.531754,-0.158185,0.328372,0.314973,0.145023,0.083176
400,3590946681,-0.759380,0.532649,-0.162915,0.336333,0.854172,0.322009,0.122663
401,3590980015,-0.754942,0.533647,-0.165894,0.343216,0.788485,0.198394,-0.009991
402,3591013349,-0.751368,0.534395,-0.168970,0.348356,0.666755,0.231150,0.161792
403,3591046683,-0.748950,0.533568,-0.172458,0.353091,0.669803,0.387976,-0.054639
404,3591080017,-0.747600,0.532300,-0.175479,0.356361,0.336242,0.211198,0.026005
405,3591113351,-0.746786,0.529999,-0.179499,0.359481,0.318736,0.324099,0.097034
406,3591146685,-0.746634,0.527256,-0.183006,0.362052,0.559636,0.657286,0.364590
407,3591180019,-0.746917,0.523396,-0.186624,0.365210,0.582890,0.708419,0.077260
408,3591213353,-0.747836,0.519028,-0.190014,0.367806,0.325687,0.796496,0.273695
409,3591246687,-0.748547,0.514571,-0.194296,0.370376,-0.597223,0.408724,0.295569
410,3591280021,-0.749473,0.508646,-0.199035,0.374151,-0.915027,0.730279,0.142892
411,3591313355,-0.750869,0.500127,-0.205800,0.379145,0.662513,0.908791,0.406015
412,3591346689,-0.752397,0.490672,-0.213131,0.384383,-0.005547,0.490173,-0.086214
413,3591380023,-0.755638,0.481365,-0.217785,0.387173,0.602146,0.693880,0.279564
414,3591413357,-0.759676,0.471230,-0.220997,0.389910,1.365496,1.592851,1.107275
415,3591446691,-0.763048,0.460077,-0.226339,0.393563,0.437767,-0.288594,-0.999645
416,3591480025,-0.767027,0.450255,-0.229106,0.395582,-0.142446,-0.471472,-0.728175
417,3591513359,-0.770643,0.439176,-0.233345,0.398522,0.408051,0.364416,-0.003084
418,3591546693,-0.772025,0.428870,-0.239733,0.403250,1.904323,0.950442,0.318808
419,3591580027,-0.770984,0.422199,-0.247056,0.407836,0.230065,1.243415,1.021670
420,3591613361,-0.769114,0.417520,-0.254485,0.411597,0.214227,0.089507,0.154593
421,3591646695,-0.767537,0.414635,-0.260738,0.413540,0.393775,0.003607,-0.128722
422,3591680029,-0.766735,0.412810,-0.265578,0.413774,1.052898,-0.395496,-0.454581
423,3591713363,-0.766465,0.410796,-0.269445,0.413777,1.147510,0.170218,0.076843
424,3591746697,-0.766557,0.408468,-0.273013,0.413573,0.474644,-0.051476,0.023107
425,3591780031,-0.766939,0.406559,-0.275086,0.413373,0.473628,0.700254,0.514854
426,3591813365,-0.766407,0.403505,-0.278725,0.414912,-0.180843,0.579896,0.791994
427,3591846699,-0.764177,0.399595,-0.284146,0.419110,1.142894,-1.196298,-0.503660
428,3591880033,-0.760970,0.396385,-0.290046,0.423924,-0.014470,0.483426,0.353413
429,3591913367,-0.758084,0.392244,-0.296062,0.428761,0.125708,-0.474559,-0.085644
430,3591946701,-0.755489,0.389830,-0.301016,0.432081,0.703964,-0.114912,-0.077818
431,3591980035,-0.753775,0.387334,-0.304672,0.434747,0.455647,0.611917,0.249926
432,3592013369,-0.752376,0.384591,-0.307760,0.437422,0.473797,0.165514,0.461708
433,3592046703,-0.750852,0.381834,-0.311010,0.440150,-0.122500,-0.021771,-0.526634
434,3592080037,-0.749895,0.378972,-0.312570,0.443140,0.667588,0.713306,0.233736
435,3592113371,-0.747643,0.375117,-0.315527,0.448101,-0.066667,0.218101,0.264423
436,3592146705,-0.744809,0.371193,-0.319033,0.453572,0.416609,-0.041405,0.292200
437,3592180039,-0.742201,0.368040,-0.321677,0.458523,0.284456,-0.138414,-0.396166
438,3592213373,-0.740012,0.366540,-0.323096,0.462249,0.684294,1.083214,0.811671
439,3592246707,-0.736099,0.364578,-0.327037,0.467250,-0.441539,-0.193197,-0.349649
440,3592280041,-0.732629,0.363147,-0.329328,0.472183,1.265092,0.461975,0.468122
441,3592313375,-0.728695,0.361643,-0.331555,0.477833,0.892836,0.010592,0.229212
442,3592346709,-0.725091,0.361014,-0.332848,0.482865,0.169398,0.617844,0.466759
443,3592380043,-0.720440,0.359755,-0.334775,0.489390,0.334991,0.150334,0.248867
444,3592413377,-0.714486,0.358562,-0.337577,0.497011,0.295338,0.251962,0.218123
445,3592446711,-0.707660,0.357489,-0.340866,0.505237,-0.007123,0.460987,-0.244991
446,3592480045,-0.700279,0.357390,-0.344304,0.513198,0.377808,0.825713,0.599136
447,3592513379,-0.691790,0.358094,-0.348728,0.521170,-0.006915,-0.072361,0.246675
448,3592546713,-0.682975,0.361216,-0.353355,0.527488,0.374937,-0.114140,-0.003143
449,3592580047,-0.674558,0.365544,-0.357930,0.532231,1.384708,0.104030,0.285978
450,3592613381,-0.666422,0.370078,-0.362929,0.535949,1.279667,-0.733496,-0.092935
451,3592646715,-0.658213,0.375456,-0.367507,0.539223,0.367108,-1.317287,-0.526434
452,3592680049,-0.650786,0.382160,-0.370178,0.541696,0.133199,-0.523537,0.010300
453,3592713383,-0.642726,0.386876,-0.373043,0.545989,0.429206,-0.608636,-0.153198
454,3592746717,-0.634453,0.390000,-0.377135,0.550612,0.607744,-0.013292,0.065237
455,3592780051,-0.626676,0.391645,-0.382199,0.554843,1.193647,-0.026449,0.057244
456,3592813385,-0.620489,0.392533,-0.387242,0.557664,0.871487,0.421413,0.139016
457,3592846719,-0.615336,0.392645,-0.391093,0.560599,0.582551,0.000494,0.058276
458,3592880053,-0.611114,0.392631,-0.393656,0.563427,0.389502,0.327537,0.115385
459,3592913387,-0.607814,0.391714,-0.395849,0.566092,0.764172,0.599956,0.265480
460,3592946721,-0.605243,0.390197,-0.397238,0.568915,0.957898,0.026907,-0.004452
461,3592980055,-0.603578,0.388685,-0.398050,0.571147,0.207792,0.903706,-0.071276
462,3593013389,-0.602464,0.385524,-0.398313,0.574273,0.670734,0.724703,0.197337
463,3593046723,-0.600284,0.380338,-0.399429,0.579218,0.967245,0.199837,-0.098133
464,3593080057,-0.597401,0.374691,-0.401438,0.584467,0.607844,0.927754,-0.143725
465,3593113391,-0.595448,0.368689,-0.402619,0.589444,1.242748,0.156437,0.376652
466,3593146725,-0.593251,0.360885,-0.405090,0.594771,0.461345,0.379126,0.014849
467,3593180059,-0.592331,0.352249,-0.407493,0.599207,0.350141,-0.006487,-0.145854
468,3593213393,-0.592354,0.344978,-0.408269,0.602875,0.195549,0.578991,0.234529
469,3593246727,-0.592698,0.337342,-0.408906,0.606416,0.171271,-0.061176,0.229753
470,3593280061,-0.591430,0.328494,-0.411020,0.611065,0.148618,0.369187,0.057794
471,3593313395,-0.589009,0.318863,-0.413836,0.616578,0.877793,-0.103539,0.060545
472,3593346729,-0.586325,0.309824,-0.416663,0.621820,0.949397,0.602057,0.384299
473,3593380063,-0.583120,0.301213,-0.419599,0.627068,1.350647,0.324961,0.023137
474,3593413397,-0.579312,0.292371,-0.422491,0.632814,1.175728,-0.222048,0.269809
475,3593446731,-0.575122,0.285053,-0.425967,0.637626,0.733698,0.173495,0.378374
476,3593480065,-0.569550,0.278851,-0.431411,0.641697,1.023050,0.724327,0.505640
477,3593513399,-0.562413,0.274072,-0.439017,0.644884,0.511328,-0.160798,0.725502
478,3593546733,-0.555083,0.271357,-0.447895,0.646277,-0.022887,-1.236152,-0.568876
479,3593580067,-0.550876,0.271058,-0.453846,0.645850,0.014350,-0.940900,-0.448564
480,3593613401,-0.549115,0.270795,-0.456346,0.645698,0.063194,-0.687295,-0.217361
481,3593646735,-0.547980,0.270405,-0.457571,0.645960,0.341152,0.857823,0.581759
482,3593680069,-0.544266,0.266505,-0.460706,0.648487,0.203220,0.271224,0.120734
483,3593713403,-0.539179,0.262204,-0.464548,0.651740,0.901454,-0.496562,0.216044
484,3593746737,-0.533736,0.258987,-0.468616,0.654587,1.182066,-0.286040,0.113701
485,3593780071,-0.529138,0.256349,-0.472431,0.656614,0.907378,-0.286995,0.298794
486,3593813405,-0.521684,0.249754,-0.480274,0.659425,0.418053,0.361982,-0.123405
487,3593846739,-0.513246,0.241271,-0.488723,0.662987,0.434245,0.552554,0.277808
488,3593880073,-0.507160,0.233641,-0.493824,0.666613,0.431017,-0.554915,-0.093326
489,3593913407,-0.503329,0.227974,-0.495571,0.670173,0.373610,-0.483661,-0.337039
490,3593946741,-0.501784,0.224465,-0.493530,0.674012,0.813750,0.427627,0.441029
491,3593980075,-0.498835,0.219016,-0.493131,0.678272,0.865166,0.157247,0.127859
492,3594013409,-0.494906,0.214026,-0.493532,0.682439,1.047743,-0.131735,0.312251
493,3594046743,-0.490064,0.208887,-0.494135,0.687073,0.964111,-0.044321,-0.093570
494,3594080077,-0.485430,0.203660,-0.494472,0.691674,1.478976,-0.228059,0.292117
495,3594113411,-0.480767,0.198515,-0.494882,0.696119,0.375597,0.191125,-0.056389
496,3594146745,-0.476758,0.194490,-0.494814,0.700050,1.098135,0.242422,-0.011848
497,3594180079,-0.472312,0.190579,-0.494858,0.704096,0.733096,0.270819,0.146630
498,3594213413,-0.467312,0.187292,-0.494821,0.708328,1.083231,-0.148117,0.110158
499,3594246747,-0.462071,0.184206,-0.494638,0.712690,1.858849,-1.140745,0.092524
500,3594280081,-0.456353,0.180982,-0.495511,0.716583,0.553265,0.513326,0.172538
501,3594313415,-0.450584,0.178080,-0.495533,0.720932,0.310900,0.349874,0.549025
502,3594346749,-0.443465,0.175365,-0.496123,0.725591,0.283902,-0.794504,-0.154956
503,3594380083,-0.436366,0.173622,-0.496682,0.729918,1.173828,0.757615,0.811586
504,3594413417,-0.428237,0.171777,-0.499109,0.733506,0.138351,0.180044,0.197165
505,3594446751,-0.417977,0.171100,-0.503224,0.736764,0.984925,0.154926,0.805991
506,3594480085,-0.406419,0.170259,-0.509473,0.739126,-0.061381,-0.384435,0.064808
507,3594513419,-0.397572,0.172263,-0.515817,0.739074,-0.518518,-0.271369,-0.455371
508,3594546753,-0.390176,0.175528,-0.519671,0.739547,0.268120,-1.477446,-0.419277
509,3594580087,-0.381714,0.176639,-0.522656,0.741592,-0.226932,0.128559,-0.212911
510,3594613421,-0.373879,0.175943,-0.523411,0.745208,0.327789,0.132388,0.137001
511,3594646755,-0.366463,0.174894,-0.522956,0.749445,0.863726,-0.367192,-0.167691
512,3594680089,-0.359145,0.173606,-0.522635,0.753501,1.325538,-0.630163,0.454899
513,3594713423,-0.351935,0.171777,-0.523336,0.756828,1.328586,-0.603712,0.365441
514,3594746757,-0.345699,0.170196,-0.524487,0.759259,0.457578,-0.746573,0.044458
515,3594780091,-0.339599,0.168937,-0.525495,0.761592,0.647290,-0.149772,0.156860
516,3594813425,-0.335279,0.167877,-0.525940,0.763432,0.669660,0.189016,0.113566
517,3594846759,-0.331681,0.165854,-0.525865,0.765494,0.305198,-0.551284,-0.451537
518,3594880093,-0.328399,0.163959,-0.525169,0.767791,1.327346,-0.374759,0.339827
519,3594913427,-0.324493,0.161203,-0.524558,0.770449,0.811634,-0.100092,0.288853
520,3594946761,-0.320101,0.157878,-0.523827,0.773466,0.881999,-0.454199,0.119246
521,3594980095,-0.316139,0.154124,-0.522608,0.776671,0.900219,-0.836248,0.110865
522,3595013429,-0.312440,0.150063,-0.521257,0.779864,0.607119,-0.429893,0.081261
523,3595046763,-0.309267,0.146157,-0.519212,0.783228,0.411549,0.029793,-0.119557
524,3595080097,-0.306230,0.141958,-0.516810,0.786774,0.650192,0.007118,-0.157068
525,3595113431,-0.303488,0.138110,-0.513966,0.790376,0.442655,-0.170397,0.077257
526,3595146765,-0.301599,0.135061,-0.510933,0.793586,1.872833,-0.800261,0.957918
527,3595180099,-0.299497,0.131034,-0.508767,0.796444,0.074647,-0.167034,-0.065276
528,3595213433,-0.298969,0.128813,-0.506135,0.798678,0.749556,-0.231210,0.416135
529,3595246767,-0.298626,0.125676,-0.504289,0.800472,0.185045,0.215932,-0.267071
530,3595280101,-0.298131,0.122363,-0.501931,0.802649,0.401149,-0.183595,0.120525
531,3595313435,-0.295102,0.117574,-0.500938,0.805100,1.220749,0.185733,1.200238
532,3595346769,-0.289787,0.111401,-0.501913,0.807299,0.352850,-0.272192,0.453175
533,3595380103,-0.285161,0.106821,-0.503903,0.808325,-0.426322,-0.089241,0.092412
534,3595413437,-0.281491,0.103610,-0.506202,0.808592,0.285153,-0.091414,-0.003977
535,3595446771,-0.277863,0.099924,-0.508349,0.808965,0.481257,-0.550150,0.200104
536,3595480105,-0.275113,0.096285,-0.510683,0.808876,-0.105560,-0.424512,-0.207731
537,3595513439,-0.274367,0.094612,-0.512072,0.808448,0.097356,-0.452092,-0.135461
538,3595546773,-0.275484,0.094054,-0.512519,0.807850,0.190381,-0.415483,-0.077806
539,3595580107,-0.275535,0.093039,-0.512265,0.808111,0.252457,-0.169149,0.244214
540,3595613441,-0.273367,0.090158,-0.512405,0.809085,0.211173,1.017614,0.275619
541,3595646775,-0.269563,0.086374,-0.513070,0.810351,0.576343,0.335368,0.505697
542,3595680109,-0.264842,0.082711,-0.513976,0.811715,0.438224,-0.574042,0.068413
543,3595713443,-0.261260,0.080306,-0.514757,0.812622,0.017090,-0.217279,-0.490802
544,3595746777,-0.259857,0.080343,-0.514286,0.813366,0.679282,-0.502517,0.020295
545,3595780111,-0.258027,0.079375,-0.513480,0.814552,0.331081,-0.260565,0.229344
546,3595813445,-0.254976,0.077470,-0.511983,0.816636,0.025008,0.426580,-0.153876
547,3595846779,-0.250597,0.076002,-0.509792,0.819495,0.815629,-0.553523,0.593717
548,3595880113,-0.244343,0.072534,-0.508261,0.822643,0.744243,-0.423342,0.513243
549,3595913447,-0.238942,0.069588,-0.507353,0.825040,0.578219,0.348173,-0.043522
550,3595946781,-0.234578,0.067992,-0.507096,0.826582,0.871432,-0.510490,0.337151
551,3595980115,-0.229548,0.066082,-0.507571,0.827857,0.166554,-0.076701,-0.336508
552,3596013449,-0.224116,0.064569,-0.508314,0.829009,0.484205,-0.205033,-0.084867
553,3596046783,-0.218215,0.062996,-0.509100,0.830220,0.697789,-0.624584,0.223307
554,3596080117,-0.211194,0.061677,-0.510182,0.831470,0.794802,-0.140235,0.360525
555,3596113451,-0.203869,0.060974,-0.510979,0.832859,0.295458,-0.727004,-0.257977
556,3596146785,-0.197158,0.062916,-0.511565,0.833970,0.313408,-0.820975,-0.124564
557,3596180119,-0.191747,0.068262,-0.511121,0.835083,1.109530,-0.318572,0.440817
558,3596213453,-0.182807,0.069312,-0.512159,0.836365,-0.095039,-0.426509,0.188008
559,3596246787,-0.170687,0.069463,-0.515874,0.836630,0.740124,0.411165,0.848869
560,3596280121,-0.157797,0.068805,-0.522613,0.835031,0.287527,0.284348,0.283149
561,3596313455,-0.148374,0.071363,-0.530436,0.831604,0.002562,-0.969620,-0.450461
562,3596346789,-0.143849,0.078375,-0.536407,0.827929,-0.964536,-0.996113,-0.666246
563,3596380123,-0.139900,0.085826,-0.539751,0.825691,-0.715887,0.189000,-0.079822
564,3596413457,-0.133866,0.087895,-0.541314,0.825450,0.864397,-0.179103,0.387772
565,3596446791,-0.125814,0.085591,-0.541871,0.826593,0.907564,-0.533434,0.289175
566,3596480125,-0.118017,0.082970,-0.542468,0.827618,0.536239,-1.041941,-0.165361
567,3596513459,-0.111808,0.081718,-0.543855,0.827694,0.958156,-0.587880,0.486876
568,3596546793,-0.105017,0.079003,-0.545483,0.827776,-0.166305,0.173719,-0.178147
569,3596580127,-0.099629,0.077371,-0.545939,0.828295,0.560456,-0.141318,0.098128
570,3596613461,-0.093065,0.073759,-0.545128,0.829921,0.345222,-0.107641,-0.029521
571,3596646795,-0.085686,0.068822,-0.543813,0.832000,0.846730,-0.433765,0.498613
572,3596680129,-0.078317,0.063485,-0.542209,0.834194,0.536965,-0.461226,-0.137131
573,3596713463,-0.073056,0.059814,-0.540426,0.836098,0.142856,-0.889025,-0.102479
574,3596746797,-0.069912,0.057464,-0.538764,0.837603,0.830261,-0.902563,-0.009793
575,3596780131,-0.067826,0.055460,-0.536906,0.839101,0.451461,-0.518790,0.463022
576,3596813465,-0.065459,0.052119,-0.535048,0.840688,0.265672,-0.211052,-0.080657
577,3596846799,-0.063898,0.049058,-0.532687,0.842490,0.425294,0.028222,-0.113119
578,3596880133,-0.062372,0.046077,-0.530051,0.844433,0.088641,-0.383054,0.052268
579,3596913467,-0.060633,0.042430,-0.527336,0.846448,0.724796,-0.873979,0.258395
580,3596946801,-0.059135,0.039127,-0.523778,0.848919,0.300239,-1.175736,0.515962
581,3596980135,-0.057246,0.035987,-0.521310,0.850705,0.736379,-0.098928,0.357470
582,3597013469,-0.057895,0.033709,-0.518214,0.852644,0.596888,0.507804,0.167327
583,3597046803,-0.058351,0.029583,-0.514212,0.855185,-0.013652,0.116953,-0.732176
584,3597080137,-0.058251,0.026971,-0.510646,0.857412,0.955710,-0.383058,1.304592
585,3597113471,-0.054184,0.020630,-0.509524,0.858522,0.407291,-0.173637,0.269468
586,3597146805,-0.049676,0.014925,-0.510673,0.858229,0.693605,-0.933971,0.542871
587,3597180139,-0.046883,0.010512,-0.512564,0.857324,0.099928,-0.304162,0.281273
588,3597213473,-0.046078,0.007038,-0.514115,0.856474,0.266260,0.098990,-0.091853
589,3597246807,-0.045691,0.004069,-0.514361,0.856367,0.142692,0.014049,-0.281868
590,3597280141,-0.044212,-0.000151,-0.514196,0.856552,-0.064443,-0.191041,-0.107341
591,3597313475,-0.041953,-0.004452,-0.512986,0.857380,0.147853,-0.306053,-0.033459
592,3597346809,-0.039208,-0.008238,-0.511744,0.858224,0.538740,-0.368996,0.495347
593,3597380143,-0.035290,-0.012781,-0.510825,0.858885,0.552800,0.030237,0.082572
594,3597413477,-0.031411,-0.016699,-0.510576,0.859117,0.568479,0.057218,0.183485
595,3597446811,-0.028695,-0.019022,-0.510177,0.859400,-0.075543,-0.812745,-0.277304
596,3597480145,-0.026288,-0.020406,-0.509888,0.859617,0.184836,-0.408773,0.004616
597,3597513479,-0.023318,-0.021817,-0.509456,0.859924,-0.145566,-0.288141,-0.498754
598,3597546813,-0.019527,-0.023208,-0.508071,0.860801,0.733397,-0.891540,0.452573
599,3597580147,-0.015591,-0.024713,-0.506134,0.861980,0.213495,-0.712804,0.497952
600,3597613481,-0.010871,-0.026910,-0.505394,0.862421,0.144061,-1.001340,0.042910
601,3597646815,-0.004959,-0.028440,-0.504410,0.863001,-0.362609,-1.021128,0.290102
602,3597680149,-0.000672,-0.028337,-0.504453,0.862994,0.216147,-1.116402,0.092489
603,3597713483,0.002635,-0.026794,-0.504874,0.862793,0.106532,-0.606816,0.082866
604,3597746817,0.006064,-0.024010,-0.505619,0.862422,0.796882,-0.336403,0.398643
605,3597780151,0.010547,-0.022342,-0.506202,0.862081,0.979246,-0.133101,0.478067
606,3597813485,0.015470,-0.021591,-0.506989,0.861563,0.610800,0.290468,-0.058524
607,3597846819,0.020660,-0.019504,-0.508118,0.860839,0.965803,0.028326,0.814572
608,3597880153,0.026444,-0.018104,-0.509242,0.860047,0.289087,-0.737093,0.080437
609,3597913487,0.032204,-0.014919,-0.510642,0.859081,0.138530,-0.271428,0.104299
610,3597946821,0.038217,-0.010315,-0.513056,0.857462,0.424355,0.021508,0.179043
611,3597980155,0.047819,-0.009090,-0.515883,0.855295,0.513026,0.454890,0.293748
612,3598013489,0.058853,-0.009910,-0.519364,0.852487,1.061494,0.841426,0.216490
613,3598046823,0.065533,-0.003402,-0.523017,0.849813,-0.302306,-0.907702,-0.496387
614,3598080157,0.071635,0.005635,-0.526368,0.847236,-0.280962,-0.413559,-0.097089
615,3598113491,0.078138,0.013050,-0.529329,0.844731,-0.310130,-0.959063,0.051641
616,3598146825,0.083333,0.018993,-0.531401,0.842818,0.172499,-0.917240,-0.296712
617,3598180159,0.086058,0.023923,-0.532469,0.841744,-0.098306,-1.139871,0.002630
618,3598213493,0.089059,0.025811,-0.533680,0.840608,-0.067938,-1.526430,0.337568
619,3598246827,0.092222,0.025792,-0.535737,0.838958,0.054753,0.120734,-0.403624
620,3598280161,0.092682,0.029175,-0.537607,0.837600,0.029044,-0.410082,0.290152
621,3598313495,0.093218,0.032552,-0.539079,0.836468,0.234134,-0.406987,0.094522
622,3598346829,0.095049,0.033671,-0.539471,0.835965,0.278454,0.110878,0.051722
623,3598380163,0.098651,0.031931,-0.537972,0.836582,0.711745,-0.607055,0.254376
624,3598413497,0.103107,0.028069,-0.535080,0.838037,0.526073,0.163296,0.276553
625,3598446831,0.106193,0.026064,-0.531694,0.839869,0.324935,-0.017064,-0.167326
626,3598480165,0.108258,0.024276,-0.527273,0.842442,0.522044,-0.267646,0.284987
627,3598513499,0.110594,0.022483,-0.523288,0.844670,0.045332,-0.638527,-0.347864
628,3598546833,0.111728,0.021354,-0.520196,0.846458,0.276638,-0.661074,0.533626
629,3598580167,0.113194,0.019911,-0.517191,0.848138,0.181118,-0.256612,-0.063618
630,3598613501,0.112528,0.020046,-0.514367,0.849940,0.282329,-0.145995,0.347008
631,3598646835,0.111397,0.019646,-0.510743,0.852280,0.132396,-0.088832,0.081038
632,3598680169,0.109990,0.017830,-0.507402,0.854495,0.033996,-0.142957,-0.175241
633,3598713503,0.108367,0.016587,-0.504224,0.856606,0.032788,-0.710733,0.239418
634,3598746837,0.106195,0.014096,-0.500464,0.859124,-0.316243,-0.882406,-0.104181
635,3598780171,0.104371,0.010855,-0.497631,0.861038,0.881173,-0.085177,0.330355
636,3598813505,0.103542,0.006636,-0.494029,0.863253,0.883677,-1.025709,1.033063
637,3598846839,0.103751,0.001189,-0.491132,0.864904,0.070285,-0.090396,-0.618640
638,3598880173,0.102785,-0.002736,-0.489465,0.865960,0.329595,-0.226971,0.113529
639,3598913507,0.102092,-0.005398,-0.487974,0.866870,0.577667,-0.587929,1.037616
640,3598946841,0.100724,-0.008416,-0.487690,0.867166,-0.094709,0.169077,-0.533034
641,3598980175,0.098070,-0.009967,-0.488133,0.867204,0.391799,-0.519626,0.072724
642,3599013509,0.094246,-0.010718,-0.488126,0.867624,-0.028031,-0.549231,0.298847
643,3599046843,0.089215,-0.010148,-0.487820,0.868334,-0.580584,-0.665316,-0.309909
644,3599080177,0.084183,-0.008730,-0.487488,0.869039,0.328805,-0.039476,0.198009
645,3599113511,0.081852,-0.008059,-0.485585,0.870332,1.168365,0.740722,0.938055
646,3599146845,0.082808,-0.010244,-0.484200,0.870990,0.142767,0.728280,-0.320358
647,3599180179,0.084283,-0.012537,-0.483731,0.871079,0.400478,-0.826940,0.344986
648,3599213513,0.085116,-0.014965,-0.484233,0.870681,0.294361,-0.524526,0.731012
649,3599246847,0.083871,-0.016275,-0.485285,0.870192,-0.091955,0.268917,-0.503800
650,3599280181,0.081925,-0.016008,-0.485637,0.870186,0.174177,-0.148863,-0.168446
651,3599313515,0.081391,-0.016517,-0.484702,0.870748,0.400105,-0.009674,-0.079072
652,3599346849,0.081408,-0.016510,-0.482809,0.871797,0.466086,-0.420495,0.543914
653,3599380183,0.082633,-0.017104,-0.480851,0.872752,0.335270,-0.512232,0.600992
654,3599413517,0.083651,-0.017971,-0.479870,0.873178,0.553717,0.526022,0.279104
655,3599446851,0.084378,-0.018235,-0.478918,0.873625,0.601123,0.186594,0.450507
656,3599480185,0.086151,-0.019124,-0.478758,0.873521,0.586375,0.305723,0.312236
657,3599513519,0.088723,-0.019640,-0.479141,0.873041,-0.038612,-0.596500,-0.008704
658,3599546853,0.090933,-0.019402,-0.479920,0.872391,-0.076267,-0.862476,0.356176
659,3599580187,0.092352,-0.019356,-0.480849,0.871731,0.445700,0.204602,-0.196386
660,3599613521,0.093632,-0.018639,-0.481587,0.871203,0.520901,-0.169561,0.360713
661,3599646855,0.095391,-0.018440,-0.483093,0.870182,-0.154931,-0.292595,0.091973
662,3599680189,0.096886,-0.018034,-0.484697,0.869132,0.209354,-0.982362,0.417083
663,3599713523,0.099335,-0.018995,-0.487739,0.867131,0.220096,0.303339,0.386667
664,3599746857,0.101749,-0.020182,-0.492889,0.863907,0.710574,0.379123,0.375597
665,3599780191,0.103207,-0.019446,-0.501096,0.859015,1.565581,-0.226730,1.518181
666,3599813525,0.103131,-0.017481,-0.512946,0.852044,0.256953,-0.961534,0.990572
667,3599846859,0.101928,-0.014302,-0.526053,0.844221,0.189137,-0.604432,0.693609
668,3599880193,0.100795,-0.011467,-0.536858,0.837572,-0.961276,0.342834,-1.184644
669,3599913527,0.100205,-0.007939,-0.543585,0.833334,-1.506892,0.803034,-1.252409
670,3599946861,0.101197,-0.005384,-0.544880,0.832389,-1.896746,1.486702,-1.600809
671,3599980195,0.104580,-0.006492,-0.543882,0.832615,0.463308,-0.490672,0.690438
672,3600013529,0.108564,-0.008768,-0.542014,0.833302,0.659448,-1.407361,1.029842
673,3600046863,0.111048,-0.011165,-0.542076,0.832906,0.314087,-0.667289,0.419595
674,3600080197,0.111886,-0.012335,-0.542929,0.832221,0.480465,0.313343,0.070827
675,3600113531,0.112249,-0.012512,-0.542705,0.832316,-0.105759,0.254449,-0.048858
676,3600146865,0.113087,-0.012726,-0.541665,0.832876,0.260738,0.385835,-0.284252
677,3600180199,0.114462,-0.012522,-0.540783,0.833265,0.976332,-0.479445,0.432263
678,3600213533,0.115794,-0.011657,-0.539881,0.833678,0.447453,-0.860666,0.112257
679,3600246867,0.116894,-0.011018,-0.539289,0.833916,-0.269303,-1.025874,0.423466
680,3600280201,0.117291,-0.010928,-0.538101,0.834629,-0.563551,-0.621079,-0.400707
681,3600313535,0.116037,-0.010594,-0.536713,0.835701,-0.104921,-0.325617,0.351255
682,3600346869,0.115164,-0.011866,-0.534295,0.837353,-0.251928,0.092611,-0.149114
683,3600380203,0.114296,-0.013850,-0.531515,0.839208,-0.151424,0.404924,-0.364612
684,3600413537,0.113215,-0.016351,-0.527893,0.841593,0.388759,-0.375027,0.135265
685,3600446871,0.113612,-0.019690,-0.523588,0.844154,0.489561,0.090673,0.126797
686,3600480205,0.113108,-0.021944,-0.519478,0.846701,0.362348,-0.001094,0.009665
687,3600513539,0.110875,-0.022103,-0.515359,0.849505,-0.051703,-0.644096,0.084578
688,3600546873,0.107871,-0.023260,-0.511850,0.851979,0.387086,-0.809553,0.758165
689,3600580207,0.104393,-0.026354,-0.507915,0.854673,-0.150164,-0.751028,-0.068947
690,3600613541,0.099654,-0.029291,-0.505013,0.856860,-0.083055,-0.047984,0.154143
691,3600646875,0.094811,-0.032728,-0.502099,0.858994,-0.554849,-0.980912,0.037174
692,3600680209,0.089660,-0.036992,-0.500127,0.860523,0.424629,0.045421,0.408926
693,3600713543,0.083694,-0.040256,-0.499987,0.861059,0.788745,0.024656,0.525143
694,3600746877,0.078431,-0.043096,-0.500837,0.860923,0.165529,0.170778,0.258529
695,3600780211,0.073772,-0.045723,-0.501721,0.860685,0.345145,0.064139,0.136831
696,3600813545,0.068605,-0.047174,-0.502305,0.860693,-0.193355,0.370754,-0.342332
697,3600846879,0.064279,-0.048324,-0.501929,0.861182,-0.184803,-0.753643,-0.147176
698,3600880213,0.062004,-0.049944,-0.500323,0.862191,-0.031668,0.012206,-0.045782
699,3600913547,0.060418,-0.050203,-0.498932,0.863094,0.290134,-0.448063,0.736155
700,3600946881,0.061109,-0.052310,-0.497483,0.863756,0.034434,-0.547535,0.154019
701,3600980215,0.062053,-0.054306,-0.496404,0.864186,0.559184,-0.084512,0.407949
702,3601013549,0.061177,-0.054796,-0.495650,0.864651,0.465997,-0.302267,0.176097
703,3601046883,0.059387,-0.054262,-0.494829,0.865279,0.583878,-0.330588,-0.125512
704,3601080217,0.058169,-0.053381,-0.492908,0.866512,0.495906,-0.091772,0.350948
705,3601113551,0.057715,-0.052033,-0.491017,0.867697,0.345528,-0.478927,0.320313
706,3601146885,0.058053,-0.050367,-0.489281,0.868753,0.624611,-1.081316,0.549621
707,3601180219,0.058737,-0.049147,-0.487942,0.869530,0.295687,-0.506129,0.328056
708,3601213553,0.059507,-0.047625,-0.487215,0.869970,0.196441,-0.585679,0.323069
709,3601246887,0.060925,-0.046595,-0.486377,0.870396,0.192076,0.400831,0.073005
710,3601280221,0.062108,-0.044559,-0.485528,0.870893,0.088301,-0.189265,0.253230
711,3601313555,0.064792,-0.043215,-0.484261,0.871470,0.124186,-0.135678,-0.201440
712,3601346889,0.067129,-0.041191,-0.483035,0.872072,0.155711,-0.651470,-0.041341
713,3601380223,0.069027,-0.039261,-0.482155,0.872500,0.417725,-0.393133,0.297940
714,3601413557,0.071154,-0.037427,-0.481729,0.872644,0.234551,-0.786956,0.662063
715,3601446891,0.073564,-0.035922,-0.482462,0.872103,0.305972,0.021653,-0.127462
716,3601480225,0.076323,-0.034765,-0.483858,0.871138,0.717632,0.622966,0.453890
717,3601513559,0.080119,-0.034658,-0.486040,0.869586,0.066563,-0.204580,0.363835
718,3601546893,0.084657,-0.035363,-0.489966,0.866920,0.055990,-0.231062,0.747655
719,3601580227,0.087274,-0.036010,-0.495461,0.863505,-0.311191,0.506360,-0.136084
720,3601613561,0.089793,-0.035624,-0.501867,0.859554,-0.348226,0.197779,0.023890
721,3601646895,0.091440,-0.033256,-0.507647,0.856074,0.047809,0.585569,0.093423
722,3601680229,0.093217,-0.030658,-0.511611,0.853616,-0.416578,0.472735,-0.589671
723,3601713563,0.094827,-0.027531,-0.514402,0.851866,-0.290878,0.029416,-0.007470
724,3601746897,0.097636,-0.025797,-0.515353,0.851028,0.454726,-0.285438,0.618357
725,3601780231,0.100658,-0.025218,-0.516230,0.850161,-0.197264,-0.550628,-0.006587
726,3601813565,0.102862,-0.023970,-0.517833,0.848957,-0.071571,-0.592350,0.115436
727,3601846899,0.104502,-0.023272,-0.519358,0.847844,0.102638,-0.247080,0.265451
728,3601880233,0.105661,-0.022752,-0.520434,0.847055,0.051596,0.531024,0.074715
729,3601913567,0.106235,-0.022482,-0.520113,0.847187,0.080425,0.148111,-0.184197
730,3601946901,0.107803,-0.022511,-0.517764,0.848426,0.191067,-0.394606,-0.036085
731,3601980235,0.109533,-0.023755,-0.515810,0.849360,0.419190,-0.280408,-0.084657
732,3602013569,0.110062,-0.024159,-0.513996,0.850380,0.406474,-1.192515,0.603955
733,3602046903,0.110034,-0.024276,-0.512434,0.851322,0.265852,-0.662656,0.267644
734,3602080237,0.108637,-0.023990,-0.511504,0.852069,0.227042,-0.688092,0.111705
735,3602113571,0.106741,-0.023838,-0.509823,0.853319,0.341024,-0.091290,-0.225967
736,3602146905,0.104683,-0.024511,-0.507164,0.855138,0.138047,-0.674758,-0.104663
737,3602180239,0.103487,-0.025744,-0.503525,0.857394,0.158533,-0.491073,0.075698
738,3602213573,0.101921,-0.027456,-0.499955,0.859615,0.273485,-0.398042,0.287298
739,3602246907,0.100001,-0.029527,-0.495882,0.862127,0.421181,-0.253737,0.020169
740,3602280241,0.097027,-0.031389,-0.491893,0.864683,0.907233,-0.223492,0.620470
741,3602313575,0.093091,-0.033661,-0.487319,0.867615,0.227166,-0.857135,0.016709
742,3602346909,0.088008,-0.035431,-0.483511,0.870202,-0.020805,-0.563379,0.271780
743,3602380243,0.081552,-0.036668,-0.480476,0.872458,-0.034344,-0.294647,0.122435
744,3602413577,0.075831,-0.038349,-0.477878,0.874326,1.044415,-0.521436,1.189958
745,3602446911,0.070919,-0.041808,-0.477518,0.874777,0.520483,-0.188456,0.709925
746,3602480245,0.066025,-0.045029,-0.480206,0.873527,-0.012357,0.719071,0.081643
747,3602513579,0.060198,-0.046890,-0.484045,0.871730,-0.225493,-0.020935,0.117736
748,3602546913,0.052720,-0.048270,-0.488332,0.869746,-0.725407,0.101644,-0.554663
749,3602580247,0.043246,-0.048576,-0.491372,0.868538,-0.188359,0.305422,-0.288490
750,3602613581,0.034382,-0.047976,-0.492039,0.868590,-0.512927,0.098389,-0.695630
751,3602646915,0.028300,-0.047116,-0.490821,0.869545,-0.159873,-0.423318,-0.029242
752,3602680249,0.026929,-0.048351,-0.489726,0.870138,-0.017974,-0.142795,0.402815
753,3602713583,0.028661,-0.051689,-0.489508,0.870013,0.509688,-0.265544,0.298915
754,3602746917,0.028736,-0.054689,-0.490212,0.869431,0.481716,-0.897810,0.471044
755,3602780251,0.026269,-0.056672,-0.491484,0.868664,0.274625,-0.000330,0.209148
756,3602813585,0.021695,-0.055756,-0.492956,0.868015,0.091931,0.047293,0.030757
757,3602846919,0.019045,-0.054242,-0.493180,0.868046,-0.013590,0.208917,-0.117503
758,3602880253,0.019221,-0.052668,-0.492185,0.868703,0.275344,-0.503745,0.027558
759,3602913587,0.020002,-0.050519,-0.492038,0.868897,0.734965,0.825164,0.951359
760,3602946921,0.020676,-0.047710,-0.491220,0.869502,0.796268,0.295038,0.176663
761,3602980255,0.020641,-0.043759,-0.491224,0.869709,0.163870,0.904849,0.096515
762,3603013589,0.019651,-0.038328,-0.491084,0.870067,0.004017,-0.222872,-0.043648
763,3603046923,0.020295,-0.033845,-0.491280,0.870127,0.107359,-0.421034,-0.221673
764,3603080257,0.021736,-0.030233,-0.491577,0.870058,0.159289,-0.452412,0.499158
765,3603113591,0.023866,-0.027891,-0.491548,0.870096,0.583693,-0.250692,0.143818
766,3603146925,0.025132,-0.024401,-0.492344,0.869716,0.536489,-0.280578,0.355420
767,3603180259,0.026730,-0.020652,-0.493291,0.869228,0.395526,-0.581862,0.401082
768,3603213593,0.030316,-0.018312,-0.494716,0.868353,0.089249,0.406014,0.152311
769,3603246927,0.033881,-0.016979,-0.496905,0.866997,0.419376,0.532403,0.288926
770,3603280261,0.037098,-0.014461,-0.500706,0.864721,0.639023,1.328561,0.757854
771,3603313595,0.039180,-0.010311,-0.505911,0.861654,0.283071,0.566017,0.389263
772,3603346929,0.039896,-0.005066,-0.513480,0.857179,-0.200490,0.138271,0.202180
773,3603380263,0.039776,0.000110,-0.522380,0.851805,-0.500623,0.128323,0.005536
774,3603413597,0.040156,0.003801,-0.530183,0.846944,-1.019331,0.247974,-0.691178
775,3603446931,0.040395,0.006144,-0.535975,0.843265,-1.503802,0.866717,-1.150482
776,3603480265,0.041238,0.006668,-0.539155,0.841191,-0.689851,1.183118,-0.421019
777,3603513599,0.043784,0.005910,-0.538705,0.841356,0.093331,-0.351130,0.070056
778,3603546933,0.047799,0.002868,-0.537748,0.841766,0.768792,-0.510720,0.372684
779,3603580267,0.051495,0.000215,-0.537132,0.841945,0.642649,-1.261705,0.488680
780,3603613601,0.054772,-0.001815,-0.537475,0.841518,0.490843,-0.637998,0.430325
781,3603646935,0.057761,-0.002911,-0.538185,0.840861,0.108905,-0.281763,0.107484
782,3603680269,0.060222,-0.003363,-0.538683,0.840368,0.069090,-0.170144,-0.032817
783,3603713603,0.060632,-0.003670,-0.538238,0.840621,0.489669,-0.319077,0.631713
784,3603746937,0.060964,-0.004878,-0.537125,0.841303,-0.297434,-0.134774,-0.620902
785,3603780271,0.061703,-0.005634,-0.535465,0.842302,-0.129734,-0.350379,0.231294
786,3603813605,0.061430,-0.006897,-0.533721,0.843419,0.190256,-0.731064,0.080453
787,3603846939,0.060337,-0.007100,-0.531637,0.844812,0.220809,-1.121489,0.678446
788,3603880273,0.058778,-0.007413,-0.529818,0.846060,-0.027271,0.075833,0.022986
789,3603913607,0.056460,-0.007437,-0.528347,0.847137,0.185570,-0.254100,-0.051378
790,3603946941,0.054891,-0.008745,-0.525603,0.848933,0.267778,0.000580,0.101761
791,3603980275,0.053191,-0.010320,-0.522377,0.851012,0.085085,-0.510587,0.055058
792,3604013609,0.050200,-0.011607,-0.519185,0.853128,0.028856,-0.027473,-0.297962
793,3604046943,0.047096,-0.013106,-0.515485,0.855524,0.158821,-0.919642,0.658360
794,3604080277,0.043266,-0.015591,-0.511517,0.858062,0.145125,0.252284,0.006461
795,3604113611,0.037450,-0.017115,-0.507277,0.860819,0.225439,-0.388413,0.174128
796,3604146945,0.031480,-0.018535,-0.502627,0.863751,0.280860,-0.358555,0.191944
797,3604180279,0.025348,-0.019117,-0.499733,0.865618,0.027080,-0.243090,0.523415
798,3604213613,0.019543,-0.019337,-0.497382,0.867116,0.563351,-0.680867,0.180915
799,3604246947,0.013112,-0.018878,-0.496723,0.867625,0.635254,-0.622731,0.955908
800,3604280281,0.007461,-0.017871,-0.497413,0.867318,0.272495,-0.506238,0.323526
801,3604313615,0.001664,-0.015506,-0.498375,0.866841,-0.070272,0.120722,-0.004015
802,3604346949,-0.003978,-0.013191,-0.499018,0.866502,-0.265643,0.705053,-0.262336
803,3604380283,-0.010073,-0.010453,-0.498551,0.866759,0.095253,0.212879,-0.588134
804,3604413617,-0.016567,-0.006568,-0.497793,0.867133,0.122556,-0.334232,-0.107179
805,3604446951,-0.023942,-0.001645,-0.496409,0.867777,0.200126,0.049873,-0.007070
806,3604480285,-0.030570,0.004061,-0.494745,0.868511,0.397100,-0.067472,0.601474
807,3604513619,-0.034081,0.008121,-0.493284,0.869182,-0.086335,0.278303,-0.350752
808,3604546953,-0.035357,0.011589,-0.492532,0.869519,0.621500,0.470371,0.770327
809,3604580287,-0.036788,0.014309,-0.491285,0.870124,0.480264,1.514254,0.126642
810,3604613621,-0.038762,0.018808,-0.490374,0.870467,-0.017911,0.401315,-0.072354
811,3604646955,-0.041007,0.022953,-0.488105,0.871539,-0.534126,-0.353676,-0.544169
812,3604680289,-0.042882,0.026084,-0.486067,0.872499,0.127148,-0.039497,0.337490
813,3604713623,-0.044552,0.028635,-0.484390,0.873267,0.635975,0.110467,0.403603
814,3604746957,-0.046685,0.032602,-0.483378,0.873578,0.674102,-0.249935,0.636720
815,3604780291,-0.048324,0.036104,-0.483411,0.873333,0.460435,0.562875,0.309689
816,3604813625,-0.049418,0.040095,-0.483661,0.872959,0.374880,0.105052,0.150107
817,3604846959,-0.049677,0.044019,-0.483703,0.872732,0.185624,0.029897,0.305792
818,3604880293,-0.049046,0.047334,-0.484035,0.872410,-0.179846,-0.019033,-0.461463
819,3604913627,-0.046936,0.049823,-0.484361,0.872206,0.561355,0.663265,0.504252
820,3604946961,-0.045631,0.051672,-0.484484,0.872100,0.379150,1.345064,0.038325
821,3604980295,-0.046004,0.054980,-0.485260,0.871446,0.248596,0.307952,0.235596
822,3605013629,-0.046909,0.059236,-0.485791,0.870823,0.077387,-0.222161,0.187771
823,3605046963,-0.047838,0.063774,-0.486387,0.870119,0.208579,-0.602585,0.326441
824,3605080297,-0.048999,0.068888,-0.487420,0.869086,0.059527,-0.266678,0.158850
825,3605113631,-0.049917,0.073952,-0.489050,0.867701,0.246732,0.644454,-0.255022
826,3605146965,-0.051399,0.079418,-0.491343,0.865834,0.689879,0.596246,0.654593
827,3605180299,-0.052694,0.083775,-0.495239,0.863121,0.016797,0.431989,0.675176
828,3605213633,-0.054292,0.088405,-0.499853,0.859895,-0.176290,-0.050408,0.493929
829,3605246967,-0.055998,0.093339,-0.505640,0.855871,-0.710015,0.006180,-0.323654
830,3605280301,-0.057952,0.098127,-0.510899,0.852074,-0.704370,0.296390,-0.184622
831,3605313635,-0.058650,0.102072,-0.513963,0.849716,-0.608245,0.532997,-0.477666
832,3605346969,-0.058082,0.104570,-0.515351,0.848610,-0.112404,0.466122,0.094732
833,3605380303,-0.057711,0.106091,-0.515748,0.848206,0.498547,0.446611,0.356647
834,3605413637,-0.058448,0.108320,-0.516920,0.847159,0.297768,0.059497,-0.054569
835,3605446971,-0.060907,0.112340,-0.519474,0.844897,0.397510,-0.395396,0.223256
836,3605480305,-0.064903,0.117637,-0.521903,0.842378,-0.340712,-0.446380,-0.067432
837,3605513639,-0.070046,0.123659,-0.523280,0.840247,-0.620063,-0.414258,-0.203931
838,3605546973,-0.074386,0.127047,-0.523179,0.839431,0.142871,0.307829,0.266418
839,3605580307,-0.076832,0.127298,-0.521506,0.840213,0.736985,0.127725,0.127601
840,3605613641,-0.078054,0.126623,-0.520132,0.841054,0.929984,-0.031478,0.566165
841,3605646975,-0.079662,0.126069,-0.519038,0.841662,0.477600,-0.424035,0.113706
842,3605680309,-0.082526,0.126177,-0.518242,0.841860,0.218866,-0.647694,0.217610
843,3605713643,-0.086675,0.127135,-0.516882,0.842135,-0.134515,-0.269479,-0.097948
844,3605746977,-0.092293,0.128466,-0.515261,0.842330,0.117939,-0.377725,-0.290808
845,3605780311,-0.099531,0.130799,-0.512587,0.842778,0.117742,-0.323464,0.114521
846,3605813645,-0.107539,0.133404,-0.509300,0.843379,0.315918,-0.077636,0.411645
847,3605846979,-0.114943,0.134087,-0.505714,0.844451,0.188698,0.022356,-0.266658
848,3605880313,-0.122022,0.134029,-0.501444,0.846011,0.241933,-0.229589,0.039116
849,3605913647,-0.128502,0.133091,-0.498094,0.847178,0.517454,-0.363211,0.185487
850,3605946981,-0.135357,0.131246,-0.494425,0.848547,0.598155,-0.069355,0.670588
851,3605980315,-0.143958,0.129519,-0.490937,0.849422,-0.416605,0.017840,-0.644179
852,3606013649,-0.153417,0.127265,-0.486953,0.850399,0.857863,-0.029994,0.607571
853,3606046983,-0.163138,0.123774,-0.482496,0.851644,0.007522,0.098973,0.150352
854,3606080317,-0.173637,0.120872,-0.478258,0.852376,0.233765,-0.196805,-0.190994
855,3606113651,-0.184745,0.119857,-0.474878,0.852073,0.385665,-0.904352,0.405438
856,3606146985,-0.193154,0.118308,-0.472793,0.851585,-0.052591,0.219584,0.135650
857,3606180319,-0.199715,0.117246,-0.471931,0.850696,0.593635,-0.270177,0.110008
858,3606213653,-0.206927,0.117311,-0.471665,0.849109,-0.027701,-0.045183,0.151088
859,3606246987,-0.217915,0.121189,-0.469792,0.846851,-0.260895,0.326547,-0.058780
860,3606280321,-0.230739,0.125990,-0.466419,0.844615,-0.050942,0.197390,-0.142909
861,3606313655,-0.242653,0.130326,-0.461774,0.843169,-0.194055,0.140934,-0.110544
862,3606346989,-0.252655,0.134015,-0.456376,0.842592,-0.272396,0.306906,0.145494
863,3606380323,-0.260725,0.137293,-0.451371,0.842302,-0.109762,0.389961,0.088673
864,3606413657,-0.266971,0.140451,-0.447893,0.841681,0.278979,0.386761,0.468381
865,3606446991,-0.272514,0.144142,-0.446175,0.840192,0.208072,1.020299,0.433925
866,3606480325,-0.278651,0.149750,-0.445033,0.837800,0.748104,0.809701,0.720374
867,3606513659,-0.285553,0.155818,-0.443381,0.835242,-0.050772,0.525812,-0.026778
868,3606546993,-0.292702,0.162310,-0.440995,0.832790,-0.380230,0.258315,-0.282597
869,3606580327,-0.299238,0.168361,-0.438016,0.830836,-0.002463,0.250524,0.205926
870,3606613661,-0.305168,0.172722,-0.434807,0.829468,0.017759,0.200633,-0.004482
871,3606646995,-0.310440,0.175694,-0.431743,0.828488,0.138077,0.313441,0.204962
872,3606680329,-0.315247,0.176828,-0.428531,0.828099,-0.009637,0.262973,0.187546
873,3606713663,-0.320545,0.177720,-0.425898,0.827232,-0.332912,0.738213,0.089407
874,3606746997,-0.327725,0.180118,-0.422910,0.825431,-0.053674,0.604520,-0.375115
875,3606780331,-0.335278,0.183809,-0.421117,0.822495,0.372477,0.242949,0.362330
876,3606813665,-0.342390,0.187000,-0.419465,0.819685,0.467996,0.237269,0.397494
877,3606846999,-0.349343,0.189869,-0.418304,0.816680,0.622196,0.063355,0.286901
878,3606880333,-0.356867,0.193271,-0.416867,0.813357,0.441694,0.202564,0.170023
879,3606913667,-0.365437,0.198019,-0.414988,0.809360,0.494049,0.041175,0.104576
880,3606947001,-0.375262,0.204492,-0.412511,0.804507,0.463804,-0.250104,-0.265506
881,3606980335,-0.386327,0.213872,-0.409135,0.798532,1.212831,-0.625862,0.234543
882,3607013669,-0.397490,0.224842,-0.405647,0.791791,2.023542,-0.731791,0.301503
883,3607047003,-0.407260,0.235063,-0.403648,0.784849,2.513586,-0.331320,0.872188
884,3607080337,-0.415157,0.244043,-0.403630,0.777950,1.582808,0.378248,1.017864
885,3607113671,-0.421134,0.251820,-0.405626,0.771191,0.476908,1.383160,0.670637
886,3607147005,-0.426655,0.260245,-0.407550,0.764314,-0.060158,1.325071,0.023763
887,3607180339,-0.432865,0.270138,-0.408719,0.756728,-0.221621,0.487868,-0.824870
888,3607213673,-0.440242,0.281210,-0.407290,0.749171,-0.632336,0.475691,-0.438294
889,3607247007,-0.447504,0.291086,-0.403211,0.743280,-0.539262,0.357564,-0.233643
890,3607280341,-0.452161,0.298176,-0.399688,0.739544,-0.326953,1.076404,0.181087
891,3607313675,-0.455760,0.304210,-0.396868,0.736389,-0.253711,1.598449,0.643734
892,3607347009,-0.459091,0.311561,-0.395634,0.731897,0.603413,0.831111,0.574717
893,3607380343,-0.463909,0.320742,-0.394372,0.725547,0.461058,0.659608,0.034525
894,3607413677,-0.471280,0.332293,-0.392250,0.716694,-0.022647,0.799830,0.269929
895,3607447011,-0.479989,0.344537,-0.388090,0.707337,-0.137751,0.146696,-0.034649
896,3607480345,-0.487228,0.354898,-0.384140,0.699377,-0.221335,-0.011939,0.059216
897,3607513679,-0.493547,0.362918,-0.380365,0.692863,0.039252,0.602844,0.306716
898,3607547013,-0.498728,0.369578,-0.376434,0.687761,0.241287,0.144542,-0.327172
899,3607580347,-0.503497,0.375520,-0.372392,0.683253,0.205046,0.791739,0.476439
900,3607613681,-0.509172,0.381279,-0.367821,0.678316,0.424564,0.212422,-0.437371
901,3607647015,-0.515908,0.386749,-0.363096,0.672652,0.297995,0.385014,0.304859
902,3607680349,-0.523531,0.390809,-0.358580,0.666812,0.394656,0.732947,0.039289
903,3607713683,-0.532167,0.395619,-0.353643,0.659739,0.346947,1.001939,0.598813
904,3607747017,-0.541811,0.400241,-0.347826,0.652151,0.029832,1.046524,-0.209757
905,3607780351,-0.551066,0.403563,-0.341898,0.645448,0.792530,0.241474,0.263832
906,3607813685,-0.558698,0.405298,-0.337343,0.640176,0.861441,0.188822,-0.504402
907,3607847019,-0.566557,0.407067,-0.332600,0.634603,0.533927,1.455142,1.015497
908,3607880353,-0.576272,0.410134,-0.325828,0.627354,0.361500,0.885842,0.052797
909,3607913687,-0.587648,0.413198,-0.317840,0.618830,0.616016,1.037729,0.807669
910,3607947021,-0.600691,0.414921,-0.308896,0.609614,-0.305089,0.534994,-0.097987
911,3607980355,-0.613310,0.415217,-0.301656,0.600404,-0.170161,0.786680,0.353851
912,3608013689,-0.624460,0.414821,-0.296878,0.591499,-0.868005,1.683992,0.398840
913,3608047023,-0.634666,0.417274,-0.293507,0.580492,-1.247471,1.137289,0.394195
914,3608080357,-0.645670,0.422664,-0.288985,0.566558,-1.003031,0.684067,0.201492
915,3608113691,-0.657525,0.427318,-0.283546,0.551994,-0.716362,0.018789,-0.513441
916,3608147025,-0.668145,0.428827,-0.278869,0.540330,-0.452719,-0.126373,-0.453583
917,3608180359,-0.677589,0.428616,-0.273229,0.531547,-0.156278,0.460600,-0.174862
918,3608213693,-0.685052,0.427440,-0.267323,0.525901,-0.872711,0.949732,0.509801
919,3608247027,-0.690239,0.426335,-0.262466,0.522451,-0.111528,0.627374,0.391599
920,3608280361,-0.694045,0.425791,-0.258622,0.519762,-0.466333,1.008460,0.232286
921,3608313695,-0.698271,0.427071,-0.254763,0.514935,-0.649813,1.246780,0.873882
922,3608347029,-0.703741,0.429756,-0.249519,0.507774,-0.404960,0.556709,-0.140106
923,3608380363,-0.709454,0.433211,-0.243662,0.499666,-0.604474,0.443093,-0.205741
924,3608413697,-0.714149,0.435800,-0.238372,0.493237,0.160747,0.764364,-0.125408
925,3608447031,-0.718829,0.437418,-0.232791,0.487640,-0.106040,0.688591,0.411135
926,3608480365,-0.722515,0.439605,-0.227910,0.482505,-0.421334,1.006822,0.687881
927,3608513699,-0.726884,0.442212,-0.222075,0.476241,0.063278,1.121888,0.179347
928,3608547033,-0.730813,0.445717,-0.216884,0.469303,0.049583,1.054718,0.349134
929,3608580367,-0.735639,0.449001,-0.210742,0.461363,0.021297,0.821326,-0.273059
930,3608613701,-0.740336,0.452381,-0.204778,0.453162,0.017012,0.860584,0.216313
931,3608647035,-0.744987,0.455313,-0.198311,0.445412,0.003874,0.610472,0.169932
932,3608680369,-0.749106,0.457942,-0.192096,0.438478,-0.309580,0.735477,0.370582
933,3608713703,-0.753243,0.460399,-0.185443,0.431629,0.230894,1.094138,-0.107385
934,3608747037,-0.757360,0.464011,-0.178521,0.423396,0.304621,1.022955,0.079998
935,3608780371,-0.762043,0.466605,-0.172193,0.414673,-1.157064,1.258238,0.529556
936,3608813705,-0.766655,0.469759,-0.166390,0.404865,-0.440482,0.982915,0.167179
937,3608847039,-0.771512,0.472572,-0.161099,0.394369,-0.997734,0.741540,0.142966
938,3608880373,-0.774854,0.476576,-0.157857,0.384178,-1.677478,0.756771,0.949889
939,3608913707,-0.777250,0.482234,-0.154583,0.373459,-1.195590,0.130614,0.486059
940,3608947041,-0.779426,0.488578,-0.151295,0.361845,-0.599503,-0.152849,-0.379306
941,3608980375,-0.781406,0.494361,-0.148130,0.350862,-0.062858,-0.086155,-0.713444
942,3609013709,-0.784121,0.498319,-0.144354,0.340629,-0.934634,0.250423,-0.078955
943,3609047043,-0.786392,0.501532,-0.140903,0.332016,-1.074901,0.831187,0.669598
944,3609080377,-0.788224,0.505199,-0.136689,0.323772,-0.726833,0.454662,0.280483
945,3609113711,-0.790043,0.509585,-0.131957,0.314288,-1.097268,0.431061,0.047220
946,3609147045,-0.791991,0.514345,-0.126413,0.303735,-0.492738,0.297029,-0.033275
947,3609180379,-0.794120,0.518491,-0.120707,0.293267,-0.664855,0.322574,0.081170
948,3609213713,-0.796192,0.522743,-0.113700,0.282709,-0.313872,0.703545,0.204340
949,3609247047,-0.797762,0.526741,-0.106935,0.273348,-0.354047,0.899149,-0.146331
950,3609280381,-0.799452,0.529993,-0.099999,0.264613,-0.862050,0.997191,0.575572
951,3609313715,-0.801354,0.533111,-0.092201,0.255260,-0.299557,0.626013,-0.212423
952,3609347049,-0.802950,0.536294,-0.084048,0.246232,-0.278703,0.904153,0.023299
953,3609380383,-0.804994,0.538773,-0.076076,0.236548,-1.552470,0.565300,0.503183
954,3609413717,-0.807209,0.540937,-0.067799,0.226360,-0.306764,0.821796,0.149881
955,3609447051,-0.809681,0.542194,-0.059901,0.216540,-0.697984,1.003016,0.332375
956,3609480385,-0.812433,0.542365,-0.052791,0.207461,-0.948576,0.490304,0.544648
957,3609513719,-0.815577,0.541740,-0.045519,0.198276,-0.737271,0.771779,0.032939
958,3609547053,-0.818874,0.540556,-0.037924,0.189318,-0.911156,1.166962,-0.071757
959,3609580387,-0.822939,0.538320,-0.029572,0.179285,-0.784377,1.312337,0.037461
960,3609613721,-0.827033,0.536090,-0.020957,0.167984,-0.435727,0.909444,-0.791180
961,3609647055,-0.831374,0.533317,-0.013036,0.155742,-2.083015,0.890955,0.590632
962,3609680389,-0.836241,0.529484,-0.004964,0.142685,-1.146925,0.670606,0.033255
963,3609713723,-0.841213,0.524988,0.001984,0.129536,-0.983144,0.207332,-0.248257
964,3609747057,-0.846449,0.519881,0.008744,0.114919,-2.365830,0.141277,1.416016
965,3609780391,-0.851209,0.515057,0.013666,0.100041,-1.570328,-0.279385,0.468178
966,3609813725,-0.854334,0.512309,0.016931,0.086028,-2.536515,-0.985499,1.001352
967,3609847059,-0.855832,0.511796,0.020826,0.072237,-0.697857,-1.069829,0.382674
968,3609880393,-0.856288,0.512728,0.025270,0.057246,0.073461,-0.792947,-0.375520
969,3609913727,-0.856407,0.513637,0.030337,0.043114,0.195083,0.156715,-0.694256
970,3609947061,-0.857377,0.512617,0.035541,0.030001,-0.638781,-0.402095,0.118163
971,3609980395,-0.858922,0.510201,0.039817,0.019960,-1.037341,-0.260558,0.385297
972,3610013729,-0.860675,0.507163,0.043790,0.011917,-1.436721,-0.005394,-0.135573
973,3610047063,-0.861874,0.504872,0.047834,0.004864,-0.982337,-0.511949,0.374007
974,3610080397,-0.862817,0.502875,0.051832,-0.003406,0.300228,0.051253,-0.719231
975,3610113731,-0.863198,0.501532,0.056357,-0.014604,-0.970139,0.399763,0.492718
976,3610147065,-0.863230,0.500410,0.061324,-0.026419,-1.261622,0.676845,0.196260
977,3610180399,-0.862966,0.499362,0.067341,-0.037770,-1.233065,-0.292738,0.080573
978,3610213733,-0.862747,0.498201,0.073184,-0.046292,-1.439529,0.109615,0.090436
979,3610247067,-0.862738,0.496790,0.078681,-0.052222,-1.144868,0.244491,0.520099
980,3610280401,-0.862400,0.495822,0.084485,-0.057661,-0.849556,-0.108736,0.465225
981,3610313735,-0.861285,0.495605,0.091838,-0.064530,-0.896901,-0.090881,0.186689
982,3610347069,-0.859823,0.495587,0.099501,-0.072333,-0.927089,-0.155722,-0.087384
983,3610380403,-0.858254,0.495757,0.106151,-0.079945,-0.712544,-0.631958,0.221421
984,3610413737,-0.856804,0.495704,0.112058,-0.087418,-0.323965,-0.417659,0.040527
985,3610447071,-0.855830,0.495001,0.117149,-0.094026,-0.804874,-0.104892,0.014243
986,3610480405,-0.855121,0.494139,0.121518,-0.099317,-0.781545,0.082850,0.142392
987,3610513739,-0.854563,0.493790,0.123257,-0.103616,-0.168024,-1.847450,-0.500703
988,3610547073,-0.854463,0.493112,0.123256,-0.107594,-1.147047,0.808653,1.012374
989,3610580407,-0.853485,0.494387,0.122535,-0.110293,-0.134300,-0.621999,-0.060378
990,3610613741,-0.851729,0.497228,0.121364,-0.112373,-0.255314,-0.758205,0.361135
991,3610647075,-0.849045,0.500797,0.121336,-0.116784,-1.210169,0.449568,0.667513
992,3610680409,-0.844750,0.506440,0.123014,-0.121732,-0.470093,0.039101,0.187163
993,3610713743,-0.839908,0.511317,0.129570,-0.127894,0.074778,-0.268227,-0.682499
994,3610747077,-0.836078,0.514399,0.136875,-0.132919,0.132214,-0.545982,-0.047706
995,3610780411,-0.834132,0.515900,0.140866,-0.135137,0.185872,-0.370473,0.003057
996,3610813745,-0.833391,0.516823,0.141686,-0.135329,-0.498935,0.383267,-0.125122
997,3610847079,-0.832157,0.518091,0.143329,-0.136336,-1.021628,-0.080735,0.356072
998,3610880413,-0.829926,0.519840,0.146622,-0.139737,-0.943219,0.032925,0.566113
999,3610913747,-0.826749,0.522195,0.151633,-0.144363,-0.222163,0.104970,0.013893
1000,3610947081,-0.823155,0.524721,0.157332,-0.149550,-0.672624,-0.141956,0.144053
1001,3610980415,-0.820331,0.525667,0.163307,-0.155231,-0.339551,0.333785,-0.508272
1002,3611013749,-0.817863,0.526447,0.168790,-0.159685,-0.522502,0.687178,0.152032
1003,3611047083,-0.816720,0.526381,0.171911,-0.162398,-1.104886,0.178284,-0.061124
1004,3611080417,-0.816083,0.525888,0.174609,-0.164308,-1.132282,0.258173,0.232835
1005,3611113751,-0.815895,0.525309,0.176684,-0.164872,-0.946520,0.209481,-0.080042
1006,3611147085,-0.815807,0.524907,0.178540,-0.164591,-0.635581,0.332416,-0.051651
1007,3611180419,-0.815676,0.524197,0.181202,-0.164594,-0.702623,0.925144,0.072113
1008,3611213753,-0.815741,0.522829,0.184058,-0.165449,-0.502736,-0.435408,-0.120542
1009,3611247087,-0.816121,0.520685,0.186705,-0.167360,-0.527888,0.601058,0.584977
1010,3611280421,-0.817327,0.517822,0.187518,-0.169436,-0.470138,0.201964,-0.198479
1011,3611313755,-0.818544,0.514879,0.187943,-0.172039,-0.745483,0.373057,-0.079213
1012,3611347089,-0.820279,0.511593,0.187014,-0.174573,-0.937251,0.314226,0.251602
1013,3611380423,-0.822147,0.508424,0.185440,-0.176710,-1.073500,-0.372440,0.068526
1014,3611413757,-0.824245,0.504453,0.184528,-0.179252,-0.917955,0.186617,0.605367
1015,3611447091,-0.826084,0.500937,0.183058,-0.182130,-0.669295,0.464988,-0.057698
1016,3611480425,-0.828251,0.497203,0.180897,-0.184663,-1.034410,0.143593,0.481999
1017,3611513759,-0.830117,0.493549,0.178322,-0.188548,-1.229093,0.354614,0.474074
1018,3611547093,-0.831562,0.491337,0.174587,-0.191432,0.027477,-1.613228,0.497725
1019,3611580427,-0.831730,0.490944,0.172676,-0.193436,-0.097961,-1.271599,0.645300
1020,3611613761,-0.830881,0.491180,0.172254,-0.196832,0.242680,0.923903,-0.290421
1021,3611647095,-0.828720,0.492498,0.173449,-0.201540,0.482857,0.735452,-0.827300
1022,3611680429,-0.826673,0.492911,0.174550,-0.207888,0.292781,0.094325,-0.188503
1023,3611713763,-0.825638,0.492081,0.173925,-0.214389,-0.155484,-0.506450,-0.844281
1024,3611747097,-0.825763,0.489921,0.173511,-0.219137,-1.151791,-0.564443,0.704457
1025,3611780431,-0.826522,0.487659,0.173227,-0.221532,-1.351502,0.030427,0.549574
1026,3611813765,-0.827110,0.485904,0.174240,-0.222400,-0.475146,-0.429576,0.757843
1027,3611847099,-0.827179,0.485265,0.175502,-0.222546,0.072551,-0.893776,0.335189
1028,3611880433,-0.826993,0.485062,0.176716,-0.222718,0.119129,-0.677978,0.060145
1029,3611913767,-0.826405,0.484752,0.178440,-0.224197,0.129187,0.147825,-0.280252
1030,3611947101,-0.825393,0.484351,0.180820,-0.226866,0.592898,0.622121,-0.231559
1031,3611980435,-0.825213,0.483246,0.181832,-0.229062,0.828713,0.257499,-0.907071
1032,3612013769,-0.825063,0.482183,0.182802,-0.231059,-0.742831,-0.454064,0.442329
1033,3612047103,-0.824900,0.480850,0.183866,-0.233563,-0.775650,-0.486744,0.139649
1034,3612080437,-0.825184,0.479429,0.184988,-0.234592,-0.991036,-0.359441,0.167811
1035,3612113771,-0.825491,0.478091,0.186998,-0.234648,-1.337767,-0.257844,0.623074
1036,3612147105,-0.826066,0.477135,0.188725,-0.233183,-0.680124,-0.224331,0.676410
1037,3612180439,-0.826707,0.476248,0.190392,-0.231365,-0.579079,-0.034617,-0.032474
1038,3612213773,-0.827541,0.475252,0.191762,-0.229291,-0.428967,-0.717376,0.119060
1039,3612247107,-0.828381,0.474675,0.192631,-0.226707,-0.459576,-0.215177,0.180772
1040,3612280441,-0.828748,0.474728,0.193844,-0.224208,-0.087018,-0.422565,0.113118
1041,3612313775,-0.828781,0.474968,0.195391,-0.222226,-0.118195,-0.082829,-0.208092
1042,3612347109,-0.827795,0.476594,0.197760,-0.220318,-0.161235,-0.432664,0.386688
1043,3612380443,-0.827617,0.477893,0.198420,-0.217561,-0.008477,-0.740389,0.086832
1044,3612413777,-0.826336,0.481212,0.198717,-0.214828,0.341443,-0.504086,-0.223159
1045,3612447111,-0.824422,0.485206,0.199603,-0.212361,-0.315305,-0.313045,0.437684
1046,3612480445,-0.820680,0.491467,0.201500,-0.210660,-0.334995,-0.122686,0.295148
1047,3612513779,-0.815312,0.498700,0.205928,-0.210223,-0.372280,0.368639,0.307889
1048,3612547113,-0.809635,0.505543,0.211671,-0.210113,0.351917,0.588486,-0.320603
1049,3612580447,-0.805153,0.511202,0.216299,-0.208928,0.600395,-0.219248,-0.563924
1050,3612613781,-0.803300,0.514282,0.218438,-0.206259,0.066769,0.174949,-0.415338
1051,3612647115,-0.803032,0.516195,0.217824,-0.203149,-0.594993,-0.569557,-0.285365
1052,3612680449,-0.803636,0.516798,0.216588,-0.200533,-1.507449,1.137580,0.502187
1053,3612713783,-0.804404,0.517924,0.213973,-0.197330,-1.925253,0.338398,0.703639
1054,3612747117,-0.803818,0.519734,0.212750,-0.196281,-0.538836,-0.401327,0.206467
1055,3612780451,-0.803550,0.521177,0.211691,-0.194690,-0.737699,0.933745,-0.301703
1056,3612813785,-0.802889,0.522154,0.212035,-0.194424,0.012032,-0.624187,-0.245738
1057,3612847119,-0.803509,0.521622,0.211110,-0.194298,-0.112927,0.400795,0.841739
1058,3612880453,-0.805255,0.520770,0.207929,-0.192781,-0.406323,0.864753,-0.199241
1059,3612913787,-0.807674,0.519181,0.204354,-0.190758,-0.497007,0.624206,-0.039742
1060,3612947121,-0.810202,0.517481,0.199998,-0.189269,-1.337553,0.130723,0.340711
1061,3612980455,-0.812213,0.516085,0.196179,-0.188453,-1.181392,0.267237,0.184121
1062,3613013789,-0.814535,0.514033,0.192236,-0.188105,-0.447691,-0.220980,-0.032478
1063,3613047123,-0.816626,0.511757,0.188606,-0.188917,0.033968,-0.456120,-0.513933
1064,3613080457,-0.819158,0.508768,0.184586,-0.189994,-1.194756,0.659068,0.621454
1065,3613113791,-0.822486,0.505749,0.178638,-0.189360,0.296087,0.067735,-0.591584
1066,3613147125,-0.825026,0.503270,0.173227,-0.189943,-0.665786,0.105741,0.133522
1067,3613180459,-0.827753,0.500852,0.167477,-0.189627,-0.236179,0.899792,-0.158251
1068,3613213793,-0.829767,0.498485,0.162841,-0.191095,-1.561810,-0.016037,0.321839
1069,3613247127,-0.832202,0.495267,0.157225,-0.193559,-0.337438,0.170261,0.921405
1070,3613280461,-0.834222,0.492524,0.150979,-0.196809,-0.193374,0.291894,0.007903
1071,3613313795,-0.834248,0.492007,0.147582,-0.200532,-0.793065,-0.431324,0.824550
1072,3613347129,-0.833247,0.492981,0.145294,-0.203944,0.280572,-0.650463,0.199306
1073,3613380463,-0.830535,0.495458,0.146249,-0.208278,0.255501,0.365310,0.022890
1074,3613413797,-0.827713,0.497697,0.147192,-0.213442,-0.146268,-0.300718,-0.319727
1075,3613447131,-0.825304,0.498976,0.147460,-0.219514,0.581412,-0.049723,-0.633827
1076,3613480465,-0.823400,0.499152,0.147849,-0.225908,0.114049,0.329163,-0.478745
1077,3613513799,-0.822850,0.497679,0.147931,-0.231054,-0.804923,-0.048328,0.560907
1078,3613547133,-0.822667,0.496431,0.148210,-0.234189,-1.241125,0.234770,0.829660
1079,3613580467,-0.822485,0.495955,0.149450,-0.235044,-0.744336,0.005811,0.610114
1080,3613613801,-0.822188,0.496149,0.150816,-0.234803,-0.701360,-0.480149,0.548326
1081,3613647135,-0.821822,0.496156,0.152300,-0.235112,0.035740,0.296469,-0.159417
1082,3613680469,-0.821311,0.496646,0.152880,-0.235487,0.048247,0.365421,-0.428020
1083,3613713803,-0.821977,0.497391,0.149100,-0.234011,-0.682550,-1.439344,0.609287
1084,3613747137,-0.823321,0.496697,0.146019,-0.232697,-0.094979,-0.243694,-0.272865
1085,3613780471,-0.824337,0.495269,0.146315,-0.231956,-1.101070,0.497616,0.596416
1086,3613813805,-0.824829,0.493920,0.147865,-0.232100,-0.829097,-0.435528,-0.007100
1087,3613847139,-0.825235,0.492419,0.150781,-0.231970,-0.994324,0.522945,0.557994
1088,3613880473,-0.825798,0.490857,0.154042,-0.231134,-0.069475,-0.267073,-0.378214
1089,3613913807,-0.825264,0.489938,0.158779,-0.231786,-0.383934,-1.159211,0.369660
1090,3613947141,-0.825785,0.488874,0.161675,-0.230168,-0.397247,-0.273280,0.473317
1091,3613980475,-0.826184,0.488206,0.164904,-0.227850,-0.295608,0.261677,-0.060152
1092,3614013809,-0.826217,0.487827,0.169238,-0.225353,-0.250798,0.565345,0.418859
1093,3614047143,-0.826528,0.488159,0.171638,-0.221647,0.118050,-0.268773,0.181758
1094,3614080477,-0.825710,0.490570,0.173797,-0.217653,0.570481,-0.997702,-0.170198
1095,3614113811,-0.824553,0.493632,0.176197,-0.213143,-0.332271,-0.595066,0.384314
1096,3614147145,-0.820538,0.499230,0.181450,-0.211180,-0.269353,-0.048739,0.384171
1097,3614180479,-0.815054,0.505239,0.188933,-0.211563,-0.344715,0.657879,0.366693
1098,3614213813,-0.809596,0.511136,0.196116,-0.211821,1.048238,0.061386,-0.748925
1099,3614247147,-0.805847,0.514792,0.202071,-0.211666,1.266958,-0.148349,-0.638318
1100,3614280481,-0.805812,0.515484,0.203312,-0.208905,0.263332,-0.238516,-0.324313
1101,3614313815,-0.808008,0.514670,0.201470,-0.204161,-0.988780,0.006907,0.297465
1102,3614347149,-0.810189,0.514159,0.199105,-0.199063,-1.054201,0.406539,0.297055
1103,3614380483,-0.809933,0.515538,0.199313,-0.196314,-1.297625,0.383812,0.563789
1104,3614413817,-0.807844,0.517721,0.202420,-0.195997,-0.636257,0.509344,0.073159
1105,3614447151,-0.805059,0.519934,0.207216,-0.196584,-0.510933,-0.281956,0.594483
1106,3614480485,-0.803655,0.521002,0.210204,-0.196330,0.024595,0.609122,-0.260103
1107,3614513819,-0.803264,0.521255,0.211722,-0.195624,-0.309873,-1.179470,0.197119
1108,3614547153,-0.804601,0.519691,0.211057,-0.195006,-1.211366,-0.141275,0.532552
1109,3614580487,-0.807521,0.517370,0.207658,-0.192746,-0.367410,0.840709,-0.713411
1110,3614613821,-0.809909,0.514855,0.204499,-0.192838,-1.012188,0.432169,1.131079
1111,3614647155,-0.813168,0.511544,0.199535,-0.193136,-0.188071,0.549721,-0.360106
1112,3614680489,-0.815401,0.508242,0.195715,-0.196323,-0.424621,-0.280356,0.458816
1113,3614713823,-0.817995,0.504561,0.191012,-0.199629,-0.017401,-0.052911,-0.357763
1114,3614747157,-0.820443,0.501215,0.185910,-0.202807,-0.360934,-0.150124,0.180785
1115,3614780491,-0.822969,0.497780,0.180428,-0.205955,-0.366092,-0.020254,0.102923
1116,3614813825,-0.825241,0.494323,0.175009,-0.209831,-0.961095,0.527568,0.738228
1117,3614847159,-0.827087,0.491320,0.169717,-0.213924,-0.464783,0.163501,-0.010325
1118,3614880493,-0.828467,0.488500,0.165022,-0.218661,-0.281834,0.372759,0.183793
1119,3614913827,-0.829823,0.486031,0.159661,-0.222960,-0.264145,0.194457,0.182835
1120,3614947161,-0.830455,0.484586,0.154911,-0.227064,-0.731439,-0.621297,0.698305
1121,3614980495,-0.830351,0.484349,0.151606,-0.230161,0.060135,0.351424,0.371429
1122,3615013829,-0.829266,0.485461,0.150133,-0.232681,0.155930,-0.289920,0.236268
1123,3615047163,-0.827583,0.487402,0.148474,-0.235660,0.236450,-0.763842,-0.110247
1124,3615080497,-0.825347,0.488577,0.148312,-0.241110,0.326763,-0.381141,0.012683
1125,3615113831,-0.823165,0.488332,0.149158,-0.248433,-0.283225,0.291041,-0.154677
1126,3615147165,-0.821852,0.487782,0.149326,-0.253703,-0.357386,0.024016,-0.052897
1127,3615180499,-0.821668,0.487004,0.148719,-0.256138,-0.208234,-0.458970,0.127822
1128,3615213833,-0.821939,0.486773,0.148047,-0.256096,-0.644765,-0.405793,0.680491
1129,3615247167,-0.822056,0.486734,0.146978,-0.256412,-0.038114,-0.161913,-0.048077
1130,3615280501,-0.820768,0.487353,0.148250,-0.258617,-0.531564,1.153935,-0.285213
1131,3615313835,-0.820022,0.486914,0.149454,-0.261109,-0.747350,-0.211228,0.527620
1132,3615347169,-0.819529,0.486380,0.149921,-0.263375,0.297819,-0.030903,-0.534957
1133,3615380503,-0.819765,0.485150,0.151236,-0.264154,-0.884016,0.235921,0.104403
1134,3615413837,-0.821390,0.483669,0.150983,-0.261958,-0.824739,-0.451846,1.083936
1135,3615447171,-0.821818,0.482986,0.151642,-0.261495,-0.174834,-0.936353,0.124021
1136,3615480505,-0.822722,0.481936,0.152180,-0.260273,-0.354681,-0.050364,0.143533
1137,3615513839,-0.822826,0.481528,0.153870,-0.259706,-0.366041,0.043004,0.069461
1138,3615547173,-0.823187,0.480941,0.155454,-0.258705,-1.129729,-0.248085,0.070571
1139,3615580507,-0.823426,0.480907,0.156986,-0.257078,-0.002090,-0.654342,-0.003116
1140,3615613841,-0.824619,0.480096,0.158075,-0.254084,-0.803745,0.572596,0.114968
1141,3615647175,-0.825086,0.480653,0.160010,-0.250275,-0.121570,-0.186314,0.126700
1142,3615680509,-0.824992,0.481011,0.163633,-0.247539,-1.107619,-0.234500,1.017896
1143,3615713843,-0.824846,0.482961,0.166009,-0.242599,0.339802,-0.665104,-0.101787
1144,3615747177,-0.823516,0.486701,0.170259,-0.236625,0.089701,-0.736970,0.246466
1145,3615780511,-0.821719,0.491350,0.174744,-0.229897,0.527852,-0.618781,0.215250
1146,3615813845,-0.817826,0.498173,0.180433,-0.224640,0.122021,-0.312921,0.541181
1147,3615847179,-0.812307,0.505965,0.187944,-0.221060,0.396737,0.623972,0.124782
1148,3615880513,-0.805699,0.512869,0.198214,-0.220364,0.974236,0.767167,-0.790293
1149,3615913847,-0.799833,0.518673,0.207011,-0.220059,1.225081,-0.075548,-0.737109
1150,3615947181,-0.796220,0.522165,0.212415,-0.219755,0.804752,-0.495182,-0.245766
1151,3615980515,-0.795675,0.522927,0.214123,-0.218256,-0.330808,-0.390921,0.015572
1152,3616013849,-0.795977,0.523340,0.214570,-0.215709,-1.535461,0.340260,0.839036
1153,3616047183,-0.795053,0.524953,0.216293,-0.213464,-0.811249,0.164589,0.204103
1154,3616080517,-0.792103,0.527347,0.220554,-0.214172,-0.773785,-0.597466,0.884809
1155,3616113851,-0.789541,0.529119,0.224505,-0.215151,-0.306436,0.723242,-0.138377
1156,3616147185,-0.787732,0.529999,0.228451,-0.215464,0.051951,-0.500924,-0.156888
1157,3616180519,-0.788075,0.529702,0.229472,-0.213846,-0.596672,0.250518,-0.163829
1158,3616213853,-0.789733,0.528734,0.228560,-0.211085,-0.467581,0.782074,0.312665
1159,3616247187,-0.792022,0.527132,0.226267,-0.208979,-0.910183,-0.017608,0.431045
1160,3616280521,-0.793952,0.525675,0.224150,-0.207602,-0.029465,-0.154048,-0.028646
1161,3616313855,-0.795336,0.524279,0.222506,-0.207599,-0.344214,0.265076,0.170461
1162,3616347189,-0.797096,0.522179,0.220521,-0.208260,-0.297820,-0.070652,0.069958
1163,3616380523,-0.798953,0.519968,0.217778,-0.209560,-0.345235,-0.085911,-0.045363
1164,3616413857,-0.801222,0.517254,0.214772,-0.210712,-0.730088,-0.263092,0.413234
1165,3616447191,-0.804181,0.514032,0.210639,-0.211495,-0.564882,0.085373,0.213631
1166,3616480525,-0.807224,0.510657,0.205861,-0.212779,-0.344866,0.003257,-0.345338
1167,3616513859,-0.809663,0.508209,0.201161,-0.213868,0.273262,-0.394821,-0.674669
1168,3616547193,-0.812910,0.503423,0.198109,-0.215709,-1.375819,0.187626,0.767289
1169,3616580527,-0.815118,0.500053,0.194259,-0.218697,-0.589590,0.490396,-0.058485
1170,3616613861,-0.817199,0.496393,0.190492,-0.222550,-1.592915,-0.045720,0.437241
1171,3616647195,-0.819589,0.493113,0.185238,-0.225466,-0.896636,-0.305877,0.208179
1172,3616680529,-0.821178,0.490979,0.180124,-0.228465,-0.764788,-0.192576,0.483558
1173,3616713863,-0.821730,0.490454,0.176128,-0.230713,0.352927,-0.064918,-0.022966
1174,3616747197,-0.821493,0.490786,0.173648,-0.232723,0.420276,0.520549,-0.304858
1175,3616780531,-0.820011,0.492172,0.172543,-0.235826,0.983126,-0.214749,0.026793
1176,3616813865,-0.818830,0.492885,0.170594,-0.239821,0.631785,-0.529967,-0.092972
1177,3616847199,-0.818225,0.492661,0.167698,-0.244348,0.877453,0.200022,-0.363328
1178,3616880533,-0.818748,0.492204,0.162202,-0.247210,0.445817,0.024823,0.117709
1179,3616913867,-0.818997,0.492199,0.158404,-0.248851,-0.233217,-0.979267,0.653081
1180,3616947201,-0.818525,0.492462,0.156795,-0.250893,-0.590861,-0.783426,0.674143
1181,3616980535,-0.817056,0.494085,0.156883,-0.252431,0.846546,-0.470932,0.110597
1182,3617013869,-0.814875,0.495911,0.158724,-0.254740,0.113103,0.108456,-0.097822
1183,3617047203,-0.812306,0.497329,0.161415,-0.258464,-0.491458,0.179057,-0.237166
1184,3617080537,-0.810535,0.497411,0.164035,-0.262188,-0.633562,-0.100960,0.374571
1185,3617113871,-0.810263,0.496297,0.164950,-0.264557,-0.051531,-0.386284,-0.906556
1186,3617147205,-0.810605,0.494739,0.166229,-0.265625,-0.597360,-0.002217,0.192990
1187,3617180539,-0.811417,0.493298,0.167320,-0.265139,-0.891013,0.009291,0.738714
1188,3617213873,-0.812232,0.492279,0.168420,-0.263837,-0.820892,0.098267,0.938481
1189,3617247207,-0.812536,0.491551,0.169955,-0.263274,-0.098480,-0.428059,0.113985
1190,3617280541,-0.812981,0.491334,0.171309,-0.261421,-0.252243,-0.290855,0.028130
1191,3617313875,-0.813987,0.490763,0.172269,-0.258719,-0.475972,-0.549122,-0.035484
1192,3617347209,-0.815694,0.490122,0.172313,-0.254495,-0.002827,-0.161488,0.477029
1193,3617380543,-0.817343,0.489707,0.172788,-0.249633,-0.146646,0.074879,0.349956
1194,3617413877,-0.818359,0.490005,0.174266,-0.244642,-0.443049,-0.395962,0.291571
1195,3617447211,-0.818826,0.491048,0.176404,-0.239400,0.709738,-0.674181,0.425145
1196,3617480545,-0.818580,0.493662,0.178374,-0.233327,0.513369,-0.973861,-0.108747
1197,3617513879,-0.817837,0.496275,0.181193,-0.228160,0.572293,-0.285419,0.377639
1198,3617547213,-0.815622,0.501215,0.184430,-0.222633,0.637946,-0.700138,0.259157
1199,3617580547,-0.811603,0.507840,0.189493,-0.218005,0.022889,-0.492198,0.346257
1200,3617613881,-0.805880,0.515587,0.195685,-0.215569,0.709517,1.033235,-0.489285
1201,3617647215,-0.799894,0.522836,0.201343,-0.215192,0.905837,0.373802,-0.758637
1202,3617680549,-0.797969,0.526077,0.202564,-0.213285,0.856508,0.675085,-0.337281
1203,3617713883,-0.799559,0.526311,0.199890,-0.209240,-0.242061,0.419311,0.053273
1204,3617747217,-0.802082,0.526007,0.195594,-0.204349,-1.445323,-0.606193,0.351045
1205,3617780551,-0.802890,0.527407,0.193171,-0.199822,-0.790891,-0.667892,0.315592
1206,3617813885,-0.803229,0.528542,0.192194,-0.196375,-1.677119,0.890760,0.525543
1207,3617847219,-0.802443,0.530433,0.192151,-0.194524,0.150382,0.229252,-0.139236
1208,3617880553,-0.802326,0.530630,0.192629,-0.193992,0.248292,-0.090699,0.041826
1209,3617913887,-0.803360,0.529111,0.192392,-0.194100,-0.303784,-0.351692,-0.123554
1210,3617947221,-0.805997,0.526296,0.190519,-0.192664,-1.196741,0.143487,0.413962
1211,3617980555,-0.808053,0.524300,0.187980,-0.191988,-0.847247,-0.287043,0.707379
1212,3618013889,-0.810930,0.522222,0.183459,-0.189878,0.033704,-1.128365,-0.110353
1213,3618047223,-0.813922,0.520408,0.177830,-0.187396,-0.776299,0.402451,0.080957
1214,3618080557,-0.817174,0.518557,0.171216,-0.184516,-0.386087,-0.434236,0.250187
1215,3618113891,-0.821053,0.515762,0.163712,-0.181920,0.187867,0.454954,-0.472286
1216,3618147225,-0.824653,0.512867,0.155971,-0.180617,-0.095137,0.299710,-0.087137
1217,3618180559,-0.828287,0.509555,0.148358,-0.179777,-0.150791,0.377204,0.572783
1218,3618213893,-0.831972,0.506094,0.140501,-0.178847,0.162811,0.510154,-0.297745
1219,3618247227,-0.834891,0.502001,0.135911,-0.180321,0.545854,-1.203305,-0.138440
1220,3618280561,-0.837965,0.493660,0.138131,-0.187268,1.081615,-0.452743,-0.145552
1221,3618313895,-0.842097,0.485122,0.136593,-0.192111,0.714465,-0.409989,-1.253706
1222,3618347229,-0.845638,0.479624,0.131357,-0.194006,-1.181928,0.446140,1.472381
1223,3618380563,-0.848834,0.476304,0.123385,-0.193460,-1.129703,0.535755,1.299616
1224,3618413897,-0.849826,0.477027,0.115895,-0.191948,0.412611,-0.352297,0.485651
1225,3618447231,-0.849512,0.479953,0.109382,-0.189855,-0.203101,-0.371372,0.637068
1226,3618480565,-0.848510,0.483719,0.102491,-0.188620,0.260698,-0.083797,-0.071336
1227,3618513899,-0.846919,0.487021,0.096761,-0.190293,0.819401,0.427250,-0.499928
1228,3618547233,-0.845723,0.488669,0.092761,-0.193353,0.366824,0.255916,-0.194222
1229,3618580567,-0.845713,0.488564,0.088673,-0.195571,-0.201894,-0.242335,0.114799
1230,3618613901,-0.846372,0.488198,0.084334,-0.195550,-0.041746,-0.515759,0.546621
1231,3618647235,-0.846636,0.488526,0.081164,-0.194926,0.179042,0.032803,0.119506
1232,3618680569,-0.846598,0.488464,0.081102,-0.195274,-0.155165,0.082615,0.322880
1233,3618713903,-0.845680,0.489165,0.081883,-0.197162,0.198780,-0.285683,-0.032375
1234,3618747237,-0.844683,0.490231,0.082171,-0.198665,0.022609,0.286370,-0.190038
1235,3618780571,-0.844255,0.491202,0.081364,-0.198416,0.110799,-0.606164,-0.071336
1236,3618813905,-0.844270,0.492090,0.079720,-0.196811,-0.030461,-0.407193,-0.113966
1237,3618847239,-0.844611,0.492702,0.078020,-0.194489,-0.791743,0.293591,0.282007
1238,3618880573,-0.844938,0.493545,0.076461,-0.191524,-0.721476,0.667365,0.480394
1239,3618913907,-0.845186,0.494714,0.074698,-0.188078,-0.209792,0.041403,0.172772
1240,3618947241,-0.845358,0.496078,0.072648,-0.184479,-0.116161,-0.288058,-0.269873
1241,3618980575,-0.846305,0.496231,0.071382,-0.180168,-0.710367,0.725515,0.249727
1242,3619013909,-0.847369,0.496810,0.068616,-0.174566,0.097225,-0.187358,0.131462
1243,3619047243,-0.848192,0.497384,0.066823,-0.169557,-0.468758,-0.366094,0.498076
1244,3619080577,-0.849115,0.497911,0.064981,-0.164014,-0.390842,-0.731546,0.595800
1245,3619113911,-0.849873,0.499515,0.061420,-0.156409,0.618580,0.331176,-0.195577
1246,3619147245,-0.850413,0.501464,0.058566,-0.148108,0.063304,-0.188370,0.231711
1247,3619180579,-0.850931,0.503837,0.055472,-0.137921,-0.040925,0.073458,0.406092
1248,3619213913,-0.851118,0.506868,0.052328,-0.126412,0.108824,-0.420759,0.005447
1249,3619247247,-0.850626,0.510833,0.049765,-0.114205,-0.387641,-0.538792,0.718513
1250,3619280581,-0.848786,0.517169,0.045272,-0.100417,-0.602377,-0.048163,0.474378
1251,3619313915,-0.845213,0.525399,0.041183,-0.088939,0.396442,0.424844,-0.236290
1252,3619347249,-0.841698,0.532794,0.037658,-0.079326,0.787580,-0.063350,-0.366759
1253,3619380583,-0.839681,0.537485,0.034011,-0.070170,0.723004,0.005804,-0.767195
1254,3619413917,-0.838870,0.540032,0.029108,-0.062057,0.203020,0.074036,-0.349224
1255,3619447251,-0.839302,0.540690,0.021250,-0.053019,-0.821665,-0.232501,0.518932
1256,3619480585,-0.839861,0.541011,0.011613,-0.042908,-1.345013,0.155485,0.462079
1257,3619513919,-0.839361,0.542519,0.003396,-0.034187,-0.724186,1.176058,0.254274
1258,3619547253,-0.838034,0.544861,-0.001803,-0.029287,-0.077399,1.460518,-0.037761
1259,3619580587,-0.836886,0.546730,-0.004967,-0.026795,0.022913,0.258478,0.375507
1260,3619613921,-0.837232,0.546300,-0.008340,-0.023779,-0.082108,0.299198,-0.194994
1261,3619647255,-0.838396,0.544584,-0.013470,-0.019340,-0.079046,-0.206482,-0.084834
1262,3619680589,-0.840040,0.541981,-0.021387,-0.012955,-0.023732,0.245722,0.290263
1263,3619713923,-0.842020,0.538578,-0.030562,-0.006136,-0.439944,-0.321668,0.104152
1264,3619747257,-0.844215,0.534534,-0.040124,-0.000154,-0.080803,0.658422,0.282036
1265,3619780591,-0.846187,0.530608,-0.049321,0.005109,0.204946,1.315369,-0.073591
1266,3619813925,-0.848109,0.526557,-0.058116,0.010294,0.020059,1.289764,0.203473
1267,3619847259,-0.849068,0.523771,-0.067586,0.014663,0.162539,-0.139117,-0.322229
1268,3619880593,-0.850160,0.520567,-0.076810,0.019310,-0.024229,1.362282,0.737304
1269,3619913927,-0.850517,0.517536,-0.090399,0.025323,-0.276005,0.388988,0.469443
1270,3619947261,-0.850425,0.515240,-0.102583,0.028580,0.234796,0.115704,0.146878
1271,3619980595,-0.850691,0.512571,-0.112753,0.030285,0.495975,0.451662,0.051096
1272,3620013929,-0.850819,0.510203,-0.121837,0.031491,0.395302,0.489215,-0.043873
1273,3620047263,-0.850808,0.508093,-0.130389,0.031645,-0.272680,0.196172,0.267123
1274,3620080597,-0.850734,0.506144,-0.138013,0.032496,-0.239323,0.626542,0.556207
1275,3620113931,-0.849597,0.505439,-0.146818,0.034593,0.240031,0.406044,0.200817
1276,3620147265,-0.848011,0.505823,-0.154146,0.035998,0.291255,0.553088,0.080893
1277,3620180599,-0.845922,0.507247,-0.160613,0.036812,0.286899,0.238824,0.363851
1278,3620213933,-0.843763,0.508675,-0.167133,0.037625,0.448686,-0.253231,-0.213297
1279,3620247267,-0.841918,0.509924,-0.172684,0.036961,0.094737,0.000634,0.028792
1280,3620280601,-0.841008,0.510369,-0.176095,0.035430,-0.050008,0.437405,0.170566
1281,3620313935,-0.840276,0.510223,-0.179913,0.035706,0.055412,0.354232,0.286002
1282,3620347269,-0.839329,0.510063,-0.184240,0.038126,0.330708,0.098725,0.059330
1283,3620380603,-0.838877,0.509076,-0.188370,0.040967,0.257840,0.292652,-0.502855
1284,3620413937,-0.838990,0.507185,-0.192154,0.044400,-0.120723,-0.121888,0.076290
1285,3620447271,-0.839036,0.505193,-0.196103,0.048754,-0.279035,-0.262480,0.092772
1286,3620480605,-0.839479,0.502926,-0.199039,0.052524,-0.191504,0.335799,0.093874
1287,3620513939,-0.839610,0.501067,-0.201937,0.056956,0.158738,0.208757,-0.213485
1288,3620547273,-0.839835,0.499174,-0.204148,0.062144,-0.226645,0.763151,0.088339
1289,3620580607,-0.840353,0.497111,-0.205226,0.067865,-0.242999,0.789464,0.214332
1290,3620613941,-0.840891,0.494955,-0.205970,0.074386,-0.054335,0.307157,0.392779
1291,3620647275,-0.840875,0.492987,-0.207949,0.081770,-0.059102,0.096877,0.164119
1292,3620680609,-0.840037,0.492096,-0.210370,0.089209,-0.477906,0.266536,-0.017337
1293,3620713943,-0.838678,0.491080,-0.213786,0.098943,-0.218505,1.010876,0.432092
1294,3620747277,-0.836768,0.490443,-0.217771,0.109071,-0.040507,-0.039758,-0.000910
1295,3620780611,-0.835518,0.490034,-0.219144,0.117419,0.311844,0.572992,-0.044725
1296,3620813945,-0.834360,0.489344,-0.220262,0.126120,0.226598,0.779985,0.284077
1297,3620847279,-0.832425,0.488598,-0.223331,0.136011,-0.028956,0.090607,-0.319777
1298,3620880613,-0.830597,0.488355,-0.224209,0.146233,0.142486,0.661961,0.091543
1299,3620913947,-0.828562,0.487862,-0.224974,0.157791,0.188007,0.967208,0.521964
1300,3620947281,-0.825665,0.488051,-0.227024,0.169054,-0.140717,-0.550595,0.182416
1301,3620980615,-0.821835,0.489659,-0.228341,0.180881,0.107307,-0.361695,-0.094700
1302,3621013949,-0.816876,0.492790,-0.230019,0.192348,-0.016358,0.968407,0.213679
1303,3621047283,-0.811660,0.496802,-0.231010,0.202646,0.072775,1.321969,0.602412
1304,3621080617,-0.805735,0.501901,-0.232248,0.212093,0.685756,-0.636741,-0.172145
1305,3621113951,-0.800995,0.506400,-0.231503,0.220017,1.011080,-0.288488,-0.130996
1306,3621147285,-0.796749,0.508319,-0.232469,0.229773,0.276948,-0.353934,-0.128675
1307,3621180619,-0.792536,0.508151,-0.235587,0.241252,0.430034,0.288803,-0.058068
1308,3621213953,-0.788949,0.507713,-0.238126,0.251233,0.216636,0.342588,-0.019144
1309,3621247287,-0.786449,0.508233,-0.237865,0.258170,0.526225,0.194118,-0.347160
1310,3621280621,-0.784733,0.510318,-0.234845,0.262016,0.855556,0.192476,-0.146174
1311,3621313955,-0.783387,0.512325,-0.232096,0.264564,0.129859,0.760016,0.400144
1312,3621347289,-0.782295,0.512166,-0.232098,0.268078,0.506378,0.585870,0.279007
1313,3621380623,-0.781135,0.509199,-0.235248,0.274295,0.702823,0.230567,-0.440087
1314,3621413957,-0.780633,0.504816,-0.238703,0.280765,-0.093604,0.640184,-0.044944
1315,3621447291,-0.780878,0.498955,-0.242463,0.287264,0.404479,0.913662,0.661865
1316,3621480625,-0.781446,0.492666,-0.246313,0.293236,0.644399,-0.079650,-0.050307
1317,3621513959,-0.782825,0.486834,-0.248723,0.297238,0.720862,0.541543,0.197799
1318,3621547293,-0.783761,0.479938,-0.253569,0.301854,-0.667658,-0.025104,0.311288
1319,3621580627,-0.784887,0.472351,-0.258847,0.306383,-0.057003,-0.546183,-0.607197
1320,3621613961,-0.786680,0.464854,-0.262047,0.310502,0.945416,0.562808,0.097187
1321,3621647295,-0.786947,0.456266,-0.269705,0.315959,0.527850,1.435998,0.589445
1322,3621680629,-0.786014,0.447141,-0.280494,0.321876,1.044083,0.279578,0.092000
1323,3621713963,-0.785205,0.439956,-0.289833,0.325459,0.323115,-0.448839,0.073054
1324,3621747297,-0.784005,0.433383,-0.298772,0.329069,0.704192,0.884304,0.238571
1325,3621780631,-0.781753,0.427492,-0.308816,0.332838,0.425304,-0.012006,-0.026119
1326,3621813965,-0.779785,0.424852,-0.315082,0.334956,0.093881,0.726773,0.735358
1327,3621847299,-0.776426,0.423889,-0.323140,0.336299,-0.394564,1.122202,0.537087
1328,3621880633,-0.772665,0.423479,-0.331743,0.337100,0.692459,-0.046583,-0.480569
1329,3621913967,-0.769783,0.423620,-0.338308,0.336992,0.685436,-0.835339,-0.354963
1330,3621947301,-0.768345,0.421899,-0.343398,0.337284,0.321662,0.295207,-0.180057
1331,3621980635,-0.765783,0.419153,-0.349293,0.340467,0.174426,0.322580,0.274087
1332,3622013969,-0.762166,0.416147,-0.356389,0.344885,0.369624,0.336027,0.368284
1333,3622047303,-0.758408,0.413633,-0.364976,0.347208,0.352606,0.130675,0.328888
1334,3622080637,-0.755280,0.411732,-0.372748,0.348028,0.530376,0.101872,-0.004811
1335,3622113971,-0.752663,0.409205,-0.379586,0.349285,0.717925,0.394840,-0.282542
1336,3622147305,-0.749544,0.407086,-0.385680,0.351782,-0.129520,-0.052794,-0.031923
1337,3622180639,-0.746230,0.404875,-0.390900,0.355597,-0.422006,-0.280967,-0.213086
1338,3622213973,-0.743755,0.402695,-0.394082,0.359721,0.313982,0.891467,0.065525
1339,3622247307,-0.739823,0.399806,-0.398561,0.366062,-0.107876,0.682800,0.358831
1340,3622280641,-0.735660,0.396739,-0.402747,0.373139,0.636665,0.821741,0.145874
1341,3622313975,-0.731245,0.393625,-0.406988,0.380443,0.782934,0.678504,0.272629
1342,3622347309,-0.725158,0.389296,-0.413635,0.389275,0.715429,0.855461,0.226132
1343,3622380643,-0.716222,0.383318,-0.424446,0.399968,-0.172621,0.836699,0.549984
1344,3622413977,-0.705708,0.375816,-0.436689,0.412403,0.688692,0.646642,0.166428
1345,3622447311,-0.694898,0.369094,-0.447399,0.425155,0.105028,-0.261849,-0.335598
1346,3622480645,-0.685903,0.363306,-0.453162,0.438435,0.365923,0.543464,0.179420
1347,3622513979,-0.675826,0.357258,-0.457946,0.453812,0.750887,0.229850,0.026467
1348,3622547313,-0.664918,0.352984,-0.461264,0.469635,0.414515,-0.868763,0.286862
1349,3622580647,-0.654530,0.352368,-0.461774,0.483971,0.845407,0.226183,-0.048603
1350,3622613981,-0.645150,0.356245,-0.461133,0.494229,0.993163,0.261014,-0.277369
1351,3622647315,-0.636426,0.363403,-0.459869,0.501454,0.726668,-0.218121,-0.128401
1352,3622680649,-0.627824,0.370491,-0.458761,0.508083,-0.114208,-1.432786,-0.412957
1353,3622713983,-0.621007,0.375569,-0.456204,0.514986,-0.196841,-1.271237,-0.124373
1354,3622747317,-0.613920,0.375144,-0.455332,0.524478,0.576386,-0.209689,-0.175283
1355,3622780651,-0.605257,0.369299,-0.457852,0.536366,1.585324,0.168961,0.031807
1356,3622813985,-0.596503,0.364015,-0.462157,0.546007,0.978394,1.038708,0.333285
1357,3622847319,-0.590570,0.362464,-0.463891,0.551985,1.777536,0.792385,0.263450
1358,3622880653,-0.585343,0.362739,-0.465695,0.555839,0.363945,-0.061739,-0.317904
1359,3622913987,-0.582311,0.363881,-0.466340,0.557733,0.683356,-0.252553,0.256930
1360,3622947321,-0.580049,0.362071,-0.467661,0.560157,-0.244816,-0.210792,-0.437238
1361,3622980655,-0.578095,0.357785,-0.468914,0.563872,0.771667,0.413698,-0.074238
1362,3623013989,-0.574570,0.350790,-0.471258,0.569883,0.572620,0.757016,0.364743
1363,3623047323,-0.570763,0.342881,-0.473914,0.576284,1.508070,0.307472,-0.012874
1364,3623080657,-0.567892,0.335946,-0.476110,0.581372,1.417365,-0.147948,0.014979
1365,3623113991,-0.565129,0.328435,-0.479120,0.585866,1.159415,0.565323,0.326335
1366,3623147325,-0.558652,0.316517,-0.485590,0.593265,-0.097530,1.126533,-0.050192
1367,3623180659,-0.549795,0.300731,-0.494836,0.602045,0.293537,-0.439873,-0.753598
1368,3623213993,-0.542110,0.283522,-0.503957,0.609750,0.075904,-0.244095,-0.275917
1369,3623247327,-0.536447,0.268466,-0.509661,0.616792,1.028464,-0.581166,-0.464676
1370,3623280661,-0.534579,0.259419,-0.512092,0.620260,0.924226,0.773731,0.242088
1371,3623313995,-0.533870,0.253275,-0.513980,0.621847,1.718881,0.465067,0.635472
1372,3623347329,-0.530813,0.248501,-0.517820,0.623203,0.746438,-0.157226,0.467958
1373,3623380663,-0.527462,0.246524,-0.521497,0.623767,1.112615,-0.656189,0.166790
1374,3623413997,-0.525384,0.246690,-0.525227,0.622325,0.311706,-0.467507,0.214637
1375,3623447331,-0.522722,0.246503,-0.530025,0.620570,-0.127490,-0.471149,-0.395176
1376,3623480665,-0.518069,0.243469,-0.537344,0.619373,-0.453437,-0.019075,-0.568660
1377,3623513999,-0.513739,0.238019,-0.543338,0.619870,0.560512,0.034205,-0.107938
1378,3623547333,-0.510642,0.234371,-0.547872,0.619828,0.467237,0.221355,0.505466
1379,3623580667,-0.508225,0.230308,-0.551133,0.620445,0.696511,-0.333068,0.222343
1380,3623614001,-0.504975,0.225582,-0.554263,0.622046,0.255099,-0.234522,0.192146
1381,3623647335,-0.500594,0.221051,-0.557685,0.624151,0.141038,0.436570,0.192226
1382,3623680669,-0.495888,0.216371,-0.561606,0.626030,0.195179,0.279362,0.020478
1383,3623714003,-0.492162,0.211325,-0.565267,0.627397,-0.040189,-0.135754,-0.014169
1384,3623747337,-0.488908,0.205754,-0.568431,0.628932,0.613316,-0.144070,-0.344974
1385,3623780671,-0.484187,0.198761,-0.571881,0.631700,-0.031696,0.234562,0.095340
1386,3623814005,-0.478514,0.191327,-0.574831,0.635628,1.357589,0.080909,0.220421
1387,3623847339,-0.472111,0.184072,-0.577755,0.639893,1.353849,-0.131268,0.389750
1388,3623880673,-0.464493,0.176264,-0.581391,0.644357,0.700947,-0.442036,-0.018356
1389,3623914007,-0.458111,0.170321,-0.584159,0.648011,0.355626,0.695569,0.176239
1390,3623947341,-0.450395,0.163705,-0.586876,0.652654,0.719292,0.343752,-0.052099
1391,3623980675,-0.441437,0.156690,-0.589680,0.657947,0.550494,0.025818,0.184932
1392,3624014009,-0.432496,0.150459,-0.591704,0.663499,0.493325,-0.260023,-0.007439
1393,3624047343,-0.424233,0.145499,-0.592811,0.668930,0.943554,0.251730,0.145926
1394,3624080677,-0.414475,0.140187,-0.593920,0.675168,0.354439,0.177925,0.007829
1395,3624114011,-0.403956,0.135619,-0.594535,0.681902,1.133423,-0.573771,-0.033397
1396,3624147345,-0.392846,0.130656,-0.595554,0.688441,0.128447,-0.121821,0.448448
1397,3624180679,-0.380994,0.125023,-0.595588,0.696077,0.783945,-0.047450,0.139630
1398,3624214013,-0.367300,0.119495,-0.595964,0.704041,0.414115,-0.271073,-0.053310
1399,3624247347,-0.351921,0.114471,-0.597683,0.711237,0.492991,0.204688,0.239410
1400,3624280681,-0.336981,0.112487,-0.599661,0.717100,0.292147,-0.572527,0.014195
1401,3624314015,-0.325473,0.114092,-0.600561,0.721395,0.640544,-0.933899,-0.202048
1402,3624347349,-0.316106,0.116256,-0.598946,0.726541,-0.120458,-2.124158,-0.259815
1403,3624380683,-0.305892,0.113134,-0.597850,0.732285,-0.764046,0.380988,-0.791938
1404,3624414017,-0.297474,0.109573,-0.594026,0.739372,0.257447,0.876830,-0.011191
1405,3624447351,-0.286137,0.102798,-0.591000,0.747203,1.068134,0.482539,0.174328
1406,3624480685,-0.277071,0.099702,-0.587917,0.753446,1.545824,-0.209824,0.679537
1407,3624514019,-0.269048,0.096383,-0.587093,0.757417,1.468186,-0.755545,0.380035
1408,3624547353,-0.263704,0.093144,-0.585901,0.760618,1.185503,-1.339007,0.016163
1409,3624580687,-0.256803,0.087081,-0.585385,0.764087,0.922765,0.102932,-0.166907
1410,3624614021,-0.248455,0.078188,-0.584348,0.768589,0.039022,-0.270986,-0.576634
1411,3624647355,-0.239629,0.067826,-0.581277,0.774680,0.478316,-0.727834,-0.558925
1412,3624680689,-0.231775,0.058694,-0.576805,0.781132,1.133389,-1.697656,-0.137505
1413,3624714023,-0.224536,0.049808,-0.573616,0.786195,1.534837,-0.106619,0.385161
1414,3624747357,-0.216475,0.039691,-0.571633,0.790465,0.456732,-0.701247,0.064393
1415,3624780691,-0.209535,0.030486,-0.569823,0.794042,0.194613,-0.812304,0.108006
1416,3624814025,-0.203708,0.022034,-0.567257,0.797667,0.403807,-0.992236,0.442106
1417,3624847359,-0.198575,0.014097,-0.564134,0.801347,-0.200637,-0.632006,0.168794
1418,3624880693,-0.193911,0.005831,-0.562374,0.803826,0.248556,0.507988,0.315751
1419,3624914027,-0.192020,-0.001571,-0.561353,0.805012,0.409530,0.226354,0.276387
1420,3624947361,-0.192896,-0.006079,-0.559613,0.805992,-0.210445,-1.540224,-0.204595
1421,3624980695,-0.190405,-0.013804,-0.559843,0.806329,0.403164,-0.366278,0.281968
1422,3625014029,-0.189250,-0.019557,-0.560129,0.806283,1.442692,0.188959,0.614621
1423,3625047363,-0.188900,-0.025257,-0.561193,0.805466,1.030445,-0.973632,0.149686
1424,3625080697,-0.188331,-0.031019,-0.562846,0.804244,0.256988,-0.470754,-0.732398
1425,3625114031,-0.188846,-0.036179,-0.564604,0.802674,1.852304,-0.978443,0.521277
1426,3625147365,-0.187718,-0.043105,-0.565600,0.801895,0.432135,-1.176617,-0.489486
1427,3625180699,-0.185890,-0.048048,-0.566310,0.801539,0.154586,0.095697,-0.095756
1428,3625214033,-0.184336,-0.049445,-0.565776,0.802190,1.178159,-0.351629,0.656928
1429,3625247367,-0.182441,-0.050621,-0.565132,0.803003,0.864291,-0.129164,-0.154662
1430,3625280701,-0.183310,-0.049118,-0.564078,0.803639,-0.091222,0.202303,-0.247031
1431,3625314035,-0.184415,-0.048986,-0.563431,0.803848,-0.398130,0.725670,-0.510694
1432,3625347369,-0.185903,-0.049018,-0.562001,0.804504,0.366917,0.084622,-0.069485
1433,3625380703,-0.186080,-0.049747,-0.560687,0.805335,1.395755,-0.328200,0.593923
1434,3625414037,-0.183634,-0.052581,-0.559063,0.806844,0.924027,-0.311752,0.166220
1435,3625447371,-0.182356,-0.054843,-0.557819,0.807844,-0.363755,0.639619,-0.179981
1436,3625480705,-0.182366,-0.054244,-0.555833,0.809250,0.064710,-0.499614,-0.025329
1437,3625514039,-0.181586,-0.053412,-0.552993,0.811423,0.679356,-1.037241,-0.463219
1438,3625547373,-0.180421,-0.052627,-0.550459,0.813455,1.146287,0.187061,0.504914
1439,3625580707,-0.178227,-0.052071,-0.548444,0.815333,0.954032,-0.648368,0.367868
1440,3625614041,-0.174467,-0.053045,-0.547218,0.816906,0.868826,-0.216185,0.145807
1441,3625647375,-0.171186,-0.053178,-0.546005,0.818401,0.687516,0.139371,0.037733
1442,3625680709,-0.167194,-0.052686,-0.545162,0.819820,0.913117,0.228270,0.143860
1443,3625714043,-0.161173,-0.052810,-0.544533,0.821434,1.275308,-0.462308,0.289215
1444,3625747377,-0.153774,-0.054062,-0.545025,0.822444,0.299266,-0.643033,-0.458932
1445,3625780711,-0.147218,-0.052654,-0.545056,0.823713,0.505827,0.167773,0.377265
1446,3625814045,-0.139098,-0.050205,-0.546013,0.824643,1.298549,-1.014111,0.799776
1447,3625847379,-0.128734,-0.051006,-0.550166,0.823516,0.688466,0.566960,0.871708
1448,3625880713,-0.118625,-0.050484,-0.554793,0.821961,0.386854,-0.226348,-0.361776
1449,3625914047,-0.110709,-0.047052,-0.559048,0.820384,0.039669,-0.713574,-0.339139
1450,3625947381,-0.102089,-0.044624,-0.561973,0.819639,-1.184850,-1.185518,-0.540569
1451,3625980715,-0.094301,-0.043073,-0.563107,0.819877,0.019509,-0.292381,-0.207969
1452,3626014049,-0.087262,-0.039368,-0.562646,0.821158,-0.084324,0.153762,-0.327535
1453,3626047383,-0.078892,-0.037389,-0.562266,0.822357,0.650684,-0.554991,0.065423
1454,3626080717,-0.070581,-0.037875,-0.562188,0.823143,0.702232,-1.002006,0.385732
1455,3626114051,-0.063811,-0.038663,-0.562582,0.823389,0.552416,-1.343742,0.068772
1456,3626147385,-0.059246,-0.038725,-0.563189,0.823313,0.142351,-1.963213,-0.172231
1457,3626180719,-0.056690,-0.039585,-0.564012,0.822888,0.175632,0.002996,-0.097985
1458,3626214053,-0.054554,-0.040945,-0.564180,0.822851,-0.262807,-0.082922,-0.189438
1459,3626247387,-0.051528,-0.043270,-0.563214,0.823588,-0.371376,-0.681433,-0.339262
1460,3626280721,-0.048585,-0.045972,-0.561777,0.824602,-0.088502,-0.262615,-0.280822
1461,3626314055,-0.045483,-0.050008,-0.559750,0.825921,0.116213,-0.860571,0.047945
1462,3626347389,-0.042402,-0.054734,-0.557702,0.827170,0.538664,-0.802037,0.015971
1463,3626380723,-0.040139,-0.059065,-0.556023,0.828114,0.183248,-1.058634,0.214258
1464,3626414057,-0.038992,-0.063033,-0.554740,0.828737,0.314697,-0.400421,0.108610
1465,3626447391,-0.038002,-0.066954,-0.553475,0.829322,0.245269,-0.236234,-0.151131
1466,3626480725,-0.037994,-0.070638,-0.551535,0.830308,0.011479,-1.026488,0.188815
1467,3626514059,-0.037934,-0.074949,-0.549750,0.831116,0.052955,-0.099516,0.050674
