sep=,
DeviceTag:,D_Leg
FirmwareVersion:,2.2.1
AppVersion:,2023.6.0
SyncStatus:,Synced
OutputRate:,30Hz
FilterProfile:,General
Measurement Mode:,Sensor fusion Mode - Complete(Quaternion)
StartTime: ,2026-09-07_17:00:37_796 AEST
© Movella Technologies B. V. 2005-2026

PacketCounter,SampleTimeFine,Quat_W,Quat_X,Quat_Y,Quat_Z,FreeAcc_X,FreeAcc_Y,FreeAcc_Z
1,3039232130,0.464842,-0.474868,-0.586985,-0.462465,0.276033,0.040259,-0.121711
2,3039265464,0.472335,-0.466959,-0.590979,-0.457816,0.549367,0.550208,-0.217256
3,3039298798,0.480146,-0.458339,-0.595527,-0.452477,0.369226,0.746320,-0.309821
4,3039332132,0.487307,-0.450675,-0.599536,-0.447195,0.603722,0.569663,-0.705741
5,3039365466,0.493297,-0.444509,-0.602829,-0.442346,-0.241502,0.482241,-0.671719
6,3039398800,0.498879,-0.439562,-0.605847,-0.436872,0.028155,0.422589,-0.807901
7,3039432134,0.503661,-0.436187,-0.609137,-0.430140,-0.054064,-1.680697,-0.813888
8,3039465468,0.506343,-0.434623,-0.613723,-0.421979,0.332582,0.295343,0.633677
9,3039498802,0.510695,-0.429832,-0.620466,-0.411655,1.302344,0.424635,1.591400
10,3039532136,0.513417,-0.424836,-0.627645,-0.402469,1.178152,0.248050,1.502267
11,3039565470,0.515130,-0.419212,-0.635794,-0.393283,0.663772,-0.771964,0.566275
12,3039598804,0.517111,-0.412439,-0.645392,-0.382049,-0.457447,-1.519972,-0.344222
13,3039632138,0.520644,-0.405616,-0.655111,-0.367746,0.572229,-0.960542,-0.517632
14,3039665472,0.522338,-0.402375,-0.662612,-0.355254,0.575863,-0.190336,0.367385
15,3039698806,0.523498,-0.400312,-0.668314,-0.345049,-0.153720,-0.283376,0.467718
16,3039732140,0.525019,-0.397573,-0.673375,-0.335944,0.348298,-0.520520,0.106425
17,3039765474,0.525573,-0.396798,-0.676813,-0.329015,0.233750,-0.645228,0.284046
18,3039798808,0.525911,-0.400044,-0.676403,-0.325368,1.062129,0.350747,0.074236
19,3039832142,0.523509,-0.409626,-0.671093,-0.328302,1.636312,-0.289806,-0.216609
20,3039865476,0.518223,-0.422672,-0.664035,-0.334445,0.379879,-1.522513,-0.081940
21,3039898810,0.514236,-0.433086,-0.658438,-0.338319,0.159987,-1.541922,-0.092352
22,3039932144,0.512205,-0.441275,-0.653516,-0.340355,0.221036,-1.004013,-0.656080
23,3039965478,0.508920,-0.451403,-0.647353,-0.343762,-0.939281,-0.371069,-0.078538
24,3039998812,0.505483,-0.463372,-0.638845,-0.348788,0.106908,-0.112717,0.916954
25,3040032146,0.499503,-0.477819,-0.628167,-0.357203,0.441579,0.883402,0.064601
26,3040065480,0.493286,-0.492776,-0.616571,-0.365627,-1.447579,0.834707,0.327487
27,3040098814,0.488542,-0.505427,-0.605760,-0.372730,-1.565825,0.292150,0.878412
28,3040132148,0.484638,-0.514093,-0.598556,-0.377581,-0.784236,0.725756,0.239112
29,3040165482,0.482909,-0.518590,-0.594410,-0.380188,-0.437375,0.516220,-0.035376
30,3040198816,0.480494,-0.523219,-0.590537,-0.382930,-0.284969,0.197307,0.295712
31,3040232150,0.477662,-0.528198,-0.586605,-0.385672,-0.305062,0.319248,0.128016
32,3040265484,0.475953,-0.531454,-0.583966,-0.387311,-0.270464,0.285774,0.411857
33,3040298818,0.474921,-0.533133,-0.582371,-0.388670,0.265801,-0.371337,0.144353
34,3040332152,0.473668,-0.534796,-0.580824,-0.390228,-0.082247,-0.404837,-0.346315
35,3040365486,0.472632,-0.536531,-0.579583,-0.390946,-0.257665,-0.063791,0.098343
36,3040398820,0.471594,-0.538342,-0.578180,-0.391788,0.091746,0.016065,0.575261
37,3040432154,0.471127,-0.539448,-0.576451,-0.393373,0.458333,-0.258170,0.048137
38,3040465488,0.470151,-0.541248,-0.573946,-0.395723,0.056820,0.128390,-0.021339
39,3040498822,0.468303,-0.543974,-0.571281,-0.398027,-0.289847,0.299666,0.226279
40,3040532156,0.467301,-0.545760,-0.569033,-0.399975,-0.225301,0.014438,0.567478
41,3040565490,0.466987,-0.546670,-0.567005,-0.401973,0.070187,-0.132613,0.016038
42,3040598824,0.467437,-0.546860,-0.565038,-0.403958,0.311455,0.020792,-0.038133
43,3040632158,0.467415,-0.547697,-0.562693,-0.406116,-0.250883,-0.158618,-0.279103
44,3040665492,0.468681,-0.547866,-0.560611,-0.407307,-0.223415,-0.186455,0.510928
45,3040698826,0.470600,-0.546801,-0.559358,-0.408247,0.681892,-0.424336,0.192508
46,3040732160,0.471584,-0.546000,-0.557939,-0.410121,0.670815,0.057640,-0.575566
47,3040765494,0.471004,-0.547260,-0.555515,-0.412393,-0.076747,0.274673,0.488127
48,3040798828,0.470678,-0.549269,-0.552283,-0.414429,0.010153,-0.151875,0.642973
49,3040832162,0.470545,-0.550604,-0.549436,-0.416586,0.221765,0.289569,-0.225417
50,3040865496,0.470337,-0.551645,-0.548017,-0.417315,-0.976484,0.386534,-0.453221
51,3040898830,0.470877,-0.552174,-0.548058,-0.415949,-0.555841,0.313838,0.827666
52,3040932164,0.472279,-0.551814,-0.548413,-0.414368,0.651672,0.287869,0.215981
53,3040965498,0.473441,-0.551234,-0.548842,-0.413242,0.905508,0.080083,-0.472881
54,3040998832,0.473587,-0.551098,-0.549887,-0.411866,-0.382752,0.063905,-0.122043
55,3041032166,0.474228,-0.550193,-0.552194,-0.409243,-0.191538,0.476856,0.611032
56,3041065500,0.474592,-0.549245,-0.554697,-0.406702,0.213541,0.383620,0.005050
57,3041098834,0.474506,-0.548835,-0.556479,-0.404917,-0.299132,0.637875,0.190724
58,3041132168,0.474042,-0.549040,-0.558034,-0.403039,-0.747947,0.273055,0.442393
59,3041165502,0.474177,-0.548154,-0.560295,-0.400943,-0.370508,0.308766,0.079662
60,3041198836,0.474097,-0.546448,-0.563789,-0.398460,-0.329579,0.229358,-0.026904
61,3041232170,0.474804,-0.543540,-0.568359,-0.395090,-0.521375,0.511559,0.637645
62,3041265504,0.475317,-0.540506,-0.572979,-0.391949,-0.168550,-0.041585,0.298502
63,3041298838,0.475979,-0.537378,-0.577343,-0.389032,-0.308911,-0.161405,-0.260477
64,3041332172,0.476461,-0.534258,-0.582120,-0.385605,-0.357611,-0.073880,-0.001209
65,3041365506,0.477240,-0.530611,-0.587436,-0.381596,-0.159708,0.070079,0.185786
66,3041398840,0.477683,-0.526729,-0.593078,-0.377672,-0.133099,0.149669,-0.004023
67,3041432174,0.477956,-0.522628,-0.599198,-0.373339,-0.361444,-0.281964,-0.082514
68,3041465508,0.478297,-0.518129,-0.605858,-0.368393,-0.345272,-0.214526,0.374320
69,3041498842,0.479219,-0.512123,-0.613075,-0.363622,-0.501584,0.571534,0.326571
70,3041532176,0.480752,-0.504243,-0.621997,-0.357406,-0.670836,0.368084,0.191001
71,3041565510,0.482725,-0.494644,-0.632045,-0.350465,-0.691958,0.271915,0.213613
72,3041598844,0.485155,-0.483670,-0.643084,-0.342248,-0.908649,-0.065633,0.244954
73,3041632178,0.488374,-0.470853,-0.654837,-0.333135,-0.943349,-0.071025,0.266002
74,3041665512,0.492712,-0.455797,-0.667264,-0.322869,-0.392541,-0.423205,-0.004991
75,3041698846,0.496959,-0.440595,-0.679233,-0.312333,0.083239,-0.763325,-0.077092
76,3041732180,0.499485,-0.428330,-0.689016,-0.303821,0.877175,-0.632455,-0.123717
77,3041765514,0.500018,-0.419963,-0.695862,-0.298984,0.706678,-0.306558,-0.202161
78,3041798848,0.499826,-0.413866,-0.700904,-0.296015,0.497722,-0.318375,0.119911
79,3041832182,0.498654,-0.409942,-0.704402,-0.295147,0.697230,-0.285520,0.237443
80,3041865516,0.497761,-0.406696,-0.707084,-0.294733,0.080981,-0.272806,0.188858
81,3041898850,0.497978,-0.403177,-0.708948,-0.294724,0.510126,0.227215,0.396665
82,3041932184,0.498410,-0.400797,-0.709175,-0.296687,0.825989,0.521473,0.293312
83,3041965518,0.498289,-0.400533,-0.707571,-0.301044,0.498694,0.041582,0.314883
84,3041998852,0.498132,-0.402058,-0.703723,-0.308206,0.455917,0.057961,0.170171
85,3042032186,0.497933,-0.404460,-0.698688,-0.316721,0.752743,0.104381,0.199605
86,3042065520,0.497445,-0.407025,-0.693536,-0.325406,1.156187,-0.278343,-0.124245
87,3042098854,0.496710,-0.409390,-0.688865,-0.333386,0.755609,-0.758647,-0.215414
88,3042132188,0.495955,-0.411543,-0.684913,-0.339936,0.192970,-0.645556,0.055470
89,3042165522,0.495418,-0.412806,-0.682110,-0.344791,-0.124927,-0.122218,0.035449
90,3042198856,0.494986,-0.413007,-0.680774,-0.347798,-0.122276,0.506359,0.036007
91,3042232190,0.494604,-0.412497,-0.680481,-0.349516,0.028183,0.733239,0.193212
92,3042265524,0.493929,-0.412220,-0.680180,-0.351378,0.070510,0.389970,0.200858
93,3042298858,0.493506,-0.411894,-0.679917,-0.352860,-0.023220,0.214974,0.231793
94,3042332192,0.493599,-0.411128,-0.679722,-0.353999,0.133585,0.235065,0.054541
95,3042365526,0.493717,-0.410311,-0.679589,-0.355035,0.319127,0.103751,0.080188
96,3042398860,0.493967,-0.409710,-0.679366,-0.355807,0.190242,-0.069363,0.098955
97,3042432194,0.494527,-0.409339,-0.678853,-0.356434,0.166650,-0.046539,0.259174
98,3042465528,0.495440,-0.408713,-0.677940,-0.357621,0.425114,0.288094,0.374978
99,3042498862,0.496500,-0.407866,-0.676932,-0.359024,0.613870,0.287297,0.441610
100,3042532196,0.497856,-0.407104,-0.675525,-0.360657,0.747797,0.017547,0.170837
101,3042565530,0.498817,-0.407558,-0.672935,-0.363648,0.839939,0.031966,0.072601
102,3042598864,0.499272,-0.409120,-0.669892,-0.366871,0.603377,-0.484454,-0.010655
103,3042632198,0.499245,-0.411442,-0.667117,-0.369361,0.373470,-0.498873,-0.079656
104,3042665532,0.498660,-0.413850,-0.665355,-0.370637,0.113145,-0.517771,-0.181855
105,3042698866,0.497776,-0.415689,-0.665108,-0.370211,-0.337997,-0.669310,-0.150944
106,3042732200,0.496359,-0.417450,-0.665691,-0.369082,-0.528820,-0.052283,-0.075759
107,3042765534,0.494939,-0.418840,-0.666943,-0.367149,-0.214043,0.499270,0.154806
108,3042798868,0.493986,-0.419563,-0.668326,-0.365085,-0.548513,0.956237,0.310344
109,3042832202,0.493457,-0.420117,-0.669315,-0.363347,-0.771003,0.963541,0.476885
110,3042865536,0.493522,-0.420576,-0.669446,-0.362486,-0.741848,0.773823,0.358482
111,3042898870,0.494213,-0.420441,-0.669196,-0.362162,-0.497441,0.459342,0.364016
112,3042932204,0.495660,-0.419252,-0.669138,-0.361671,-0.082717,0.194630,0.169840
113,3042965538,0.497197,-0.417663,-0.669325,-0.361054,0.385625,-0.013983,0.091411
114,3042998872,0.498370,-0.416412,-0.669440,-0.360667,0.599833,-0.265105,0.076020
115,3043032206,0.499280,-0.415773,-0.669374,-0.360268,0.736166,-0.339285,0.032346
116,3043065540,0.499703,-0.415919,-0.669077,-0.360064,0.635012,-0.380447,0.031224
117,3043098874,0.499998,-0.416355,-0.668953,-0.359380,0.300215,-0.403426,0.030005
118,3043132208,0.500179,-0.417081,-0.668665,-0.358823,0.144015,-0.178564,0.045325
119,3043165542,0.499933,-0.418200,-0.668376,-0.358403,-0.024502,-0.121122,-0.043579
120,3043198876,0.499046,-0.419815,-0.668084,-0.358294,-0.321501,-0.333198,0.049584
121,3043232210,0.497992,-0.421552,-0.667600,-0.358623,-0.414976,-0.137761,-0.010798
122,3043265544,0.496938,-0.423129,-0.667229,-0.358918,-0.263323,0.057555,0.207341
123,3043298878,0.496061,-0.424677,-0.666577,-0.359513,0.060703,0.327613,0.280624
124,3043332212,0.495132,-0.426539,-0.665510,-0.360565,0.308945,0.538033,0.107914
125,3043365546,0.493944,-0.428339,-0.664806,-0.361358,-0.191429,0.164467,-0.027093
126,3043398880,0.492960,-0.429371,-0.665141,-0.360860,-0.674465,0.065256,0.490747
127,3043432214,0.493450,-0.428623,-0.665986,-0.359519,-0.282862,0.482066,0.339979
128,3043465548,0.494138,-0.427280,-0.666947,-0.358390,-0.112391,0.453029,0.019915
129,3043498882,0.493993,-0.426416,-0.668218,-0.357250,-0.258786,-0.007251,0.084749
130,3043532216,0.494377,-0.424993,-0.669517,-0.355981,-0.261490,-0.151128,0.079671
131,3043565550,0.495043,-0.423209,-0.670794,-0.354773,-0.015702,-0.119261,0.100142
132,3043598884,0.495472,-0.421672,-0.672011,-0.353701,0.230524,-0.266682,0.081579
133,3043632218,0.495602,-0.420533,-0.672965,-0.353059,0.140406,-0.411450,0.039137
134,3043665552,0.495637,-0.419557,-0.673839,-0.352503,0.126899,-0.297898,0.076820
135,3043698886,0.495590,-0.418779,-0.674632,-0.351979,0.214150,-0.056317,0.076161
136,3043732220,0.495419,-0.418273,-0.675238,-0.351659,0.187711,0.092182,0.119708
137,3043765554,0.495165,-0.417995,-0.675645,-0.351565,0.081010,0.267841,0.194185
138,3043798888,0.494724,-0.418010,-0.675903,-0.351673,-0.086477,0.247923,0.198853
139,3043832222,0.494318,-0.418152,-0.675981,-0.351924,-0.123351,0.287579,0.194145
140,3043865556,0.493780,-0.418383,-0.676057,-0.352259,-0.059657,0.216246,0.163343
141,3043898890,0.493316,-0.418505,-0.676182,-0.352525,-0.119780,0.153765,0.193272
142,3043932224,0.493103,-0.418534,-0.676167,-0.352817,0.122897,0.184586,0.204071
143,3043965558,0.492711,-0.418756,-0.676024,-0.353374,0.257214,0.150333,0.132306
144,3043998892,0.492220,-0.419013,-0.676023,-0.353755,0.056250,-0.060345,0.115604
145,3044032226,0.491929,-0.419162,-0.675997,-0.354035,-0.073115,-0.187857,0.161428
146,3044065560,0.491931,-0.419124,-0.675858,-0.354341,0.199345,-0.031080,0.139012
147,3044098894,0.491870,-0.419197,-0.675557,-0.354911,0.310058,0.000032,0.117312
148,3044132228,0.491752,-0.419575,-0.675056,-0.355581,0.154390,-0.170104,0.062700
149,3044165562,0.491598,-0.420228,-0.674328,-0.356404,0.053226,-0.195126,0.082126
150,3044198896,0.491484,-0.420771,-0.673657,-0.357189,0.147969,-0.067800,0.114369
151,3044232230,0.491332,-0.421254,-0.673186,-0.357716,0.037646,0.013685,0.121033
152,3044265564,0.491248,-0.421802,-0.672595,-0.358298,-0.035910,0.085828,0.164620
153,3044298898,0.491270,-0.422346,-0.671886,-0.358955,0.117182,0.136296,0.180580
154,3044332232,0.491356,-0.422799,-0.671168,-0.359647,0.102946,0.079734,0.120872
155,3044365566,0.491479,-0.423220,-0.670454,-0.360314,0.059754,-0.002942,0.086597
156,3044398900,0.491505,-0.423813,-0.669709,-0.360967,0.030629,-0.055243,0.107113
157,3044432234,0.491508,-0.424462,-0.669020,-0.361477,0.091984,-0.026147,0.113592
158,3044465568,0.491527,-0.424983,-0.668356,-0.362068,0.048737,-0.063060,0.161208
159,3044498902,0.491889,-0.425067,-0.667698,-0.362691,0.001432,-0.021884,0.258626
160,3044532236,0.492538,-0.424875,-0.666995,-0.363327,0.115473,-0.024738,0.025452
161,3044565570,0.492942,-0.424922,-0.666292,-0.364014,0.152902,-0.202360,-0.150728
162,3044598904,0.492870,-0.425262,-0.665930,-0.364378,0.105322,-0.338795,-0.020805
163,3044632238,0.492724,-0.425450,-0.666139,-0.363974,-0.085708,-0.101698,0.070688
164,3044665572,0.492521,-0.425475,-0.666748,-0.363104,-0.039963,0.298996,0.140086
165,3044698906,0.492144,-0.425691,-0.667252,-0.362436,-0.111767,0.625871,0.319279
166,3044732240,0.492074,-0.425932,-0.667310,-0.362139,-0.216244,0.719657,0.314138
167,3044765574,0.492048,-0.426367,-0.667053,-0.362137,-0.339054,0.345659,0.235811
168,3044798908,0.492136,-0.426752,-0.666543,-0.362502,-0.153352,0.093494,0.166503
169,3044832242,0.492431,-0.426728,-0.666325,-0.362531,-0.072728,0.003499,0.093350
170,3044865576,0.492480,-0.426765,-0.666332,-0.362407,-0.006220,-0.142205,0.034272
171,3044898910,0.492368,-0.426998,-0.666336,-0.362277,0.059240,-0.069709,0.037109
172,3044932244,0.492332,-0.427177,-0.666373,-0.362048,0.168149,0.049964,0.156918
173,3044965578,0.492139,-0.427597,-0.666297,-0.361955,0.137519,0.007448,0.103206
174,3044998912,0.491892,-0.428240,-0.666005,-0.362066,0.125095,-0.007915,0.134861
175,3045032246,0.491679,-0.428923,-0.665602,-0.362289,0.054739,0.020223,0.195110
176,3045065580,0.491575,-0.429488,-0.665173,-0.362548,0.058567,-0.001616,0.179905
177,3045098914,0.491572,-0.429999,-0.664616,-0.362968,0.083048,-0.007856,0.127304
178,3045132248,0.491544,-0.430590,-0.663970,-0.363487,0.023290,-0.030449,0.138448
179,3045165582,0.491552,-0.431196,-0.663237,-0.364095,0.051454,-0.038923,0.138256
180,3045198916,0.491631,-0.431749,-0.662418,-0.364824,0.037149,-0.043223,0.102094
181,3045232250,0.491877,-0.432105,-0.661687,-0.365395,0.124532,-0.086365,0.081647
182,3045265584,0.491960,-0.432604,-0.660960,-0.366009,0.283311,-0.215515,0.059645
183,3045298918,0.491800,-0.433190,-0.660180,-0.366940,0.103260,-0.273629,0.024171
184,3045332252,0.492031,-0.432982,-0.659967,-0.367258,-0.009797,-0.150838,0.064754
185,3045365586,0.492416,-0.432223,-0.660555,-0.366576,0.037365,-0.090423,0.085221
186,3045398920,0.492473,-0.431805,-0.661143,-0.365933,-0.013280,-0.034754,0.055634
187,3045432254,0.492415,-0.431523,-0.661766,-0.365217,-0.037003,0.096287,0.148313
188,3045465588,0.492356,-0.431163,-0.662559,-0.364282,-0.079546,0.247497,0.168656
189,3045498922,0.492297,-0.430680,-0.663456,-0.363301,-0.118937,0.130084,0.161389
190,3045532256,0.492298,-0.430029,-0.664457,-0.362240,-0.176151,0.148156,0.137929
191,3045565590,0.492228,-0.429397,-0.665530,-0.361112,-0.220530,0.096620,0.136606
192,3045598924,0.492048,-0.428774,-0.666615,-0.360094,-0.051560,0.094780,0.133507
193,3045632258,0.491933,-0.428077,-0.667635,-0.359190,-0.112970,0.129317,0.208557
194,3045665592,0.491787,-0.427635,-0.668315,-0.358652,-0.080255,0.227128,0.210322
195,3045698926,0.491612,-0.427599,-0.668564,-0.358472,-0.140989,0.321730,0.210344
196,3045732260,0.491530,-0.427760,-0.668466,-0.358573,-0.087227,0.316651,0.213042
197,3045765594,0.491397,-0.428089,-0.668150,-0.358952,0.003495,0.184151,0.173720
198,3045798928,0.491350,-0.428351,-0.667862,-0.359241,-0.131903,-0.000596,0.100763
199,3045832262,0.491488,-0.428473,-0.667578,-0.359435,-0.141790,-0.043138,0.145082
200,3045865596,0.491772,-0.428436,-0.667319,-0.359571,-0.013146,-0.027626,0.148627
201,3045898930,0.492096,-0.428251,-0.667112,-0.359731,0.002341,0.032486,0.172208
202,3045932264,0.492725,-0.427734,-0.666904,-0.359871,-0.092280,0.031175,0.246542
203,3045965598,0.493805,-0.427012,-0.666364,-0.360250,0.024474,-0.056541,0.135369
204,3045998932,0.494783,-0.426699,-0.665151,-0.361517,0.671970,-0.159829,0.032669
205,3046032266,0.495482,-0.426599,-0.663949,-0.362885,0.547451,-0.604679,-0.129208
206,3046065600,0.495761,-0.426628,-0.663360,-0.363545,0.223130,-0.768897,-0.083529
207,3046098934,0.496006,-0.426288,-0.663614,-0.363147,0.051174,-0.366055,-0.058081
208,3046132268,0.495969,-0.425950,-0.664408,-0.362141,0.058013,0.019692,0.048470
209,3046165602,0.495708,-0.425812,-0.665325,-0.360975,0.000626,0.236764,0.158072
210,3046198936,0.495331,-0.425829,-0.666122,-0.360002,-0.148407,0.246704,0.168549
211,3046232270,0.495054,-0.425524,-0.667063,-0.359000,-0.302301,0.260419,0.200688
212,3046265604,0.495107,-0.424685,-0.668142,-0.357912,-0.267955,0.282831,0.223274
213,3046298938,0.495469,-0.423506,-0.669282,-0.356675,-0.145135,0.211206,0.173809
214,3046332272,0.495784,-0.422434,-0.670255,-0.355679,-0.004897,0.141704,0.146682
215,3046365606,0.495992,-0.421454,-0.671165,-0.354836,-0.009690,-0.011368,0.117391
216,3046398940,0.496209,-0.420489,-0.672050,-0.354000,-0.032821,0.008929,0.103699
217,3046432274,0.496268,-0.419635,-0.672959,-0.353204,-0.050788,0.091479,0.119938
218,3046465608,0.496365,-0.418686,-0.674003,-0.352203,-0.101302,0.232363,0.205800
219,3046498942,0.496438,-0.417859,-0.674879,-0.351403,-0.027512,0.381188,0.197433
220,3046532276,0.496399,-0.417311,-0.675599,-0.350725,-0.024102,0.324616,0.175808
221,3046565610,0.496215,-0.417046,-0.676131,-0.350274,-0.125183,0.203246,0.205541
222,3046598944,0.496154,-0.416751,-0.676555,-0.349895,-0.109422,0.156011,0.181764
223,3046632278,0.496211,-0.416426,-0.676867,-0.349596,-0.035957,0.125386,0.157850
224,3046665612,0.496377,-0.416152,-0.676962,-0.349503,-0.022628,0.066528,0.199421
225,3046698946,0.496717,-0.415935,-0.676715,-0.349756,0.029325,0.001468,0.138515
226,3046732280,0.497192,-0.415652,-0.676369,-0.350085,0.117310,-0.051279,0.073598
227,3046765614,0.497809,-0.415230,-0.676143,-0.350148,0.038189,-0.207650,0.081257
228,3046798948,0.498118,-0.415188,-0.675746,-0.350524,0.124679,-0.107039,0.072224
229,3046832282,0.498439,-0.415161,-0.675517,-0.350542,-0.123245,0.038676,0.155502
230,3046865616,0.498968,-0.414939,-0.675314,-0.350443,0.012519,0.218226,0.173224
231,3046898950,0.499220,-0.414875,-0.675081,-0.350609,-0.003579,0.203077,0.194476
232,3046932284,0.499660,-0.414678,-0.674821,-0.350715,-0.019226,0.058071,0.134916
233,3046965618,0.499999,-0.414644,-0.674389,-0.351102,0.075198,-0.019062,0.128853
234,3046998952,0.500284,-0.414643,-0.673871,-0.351692,0.067639,-0.151520,0.138210
235,3047032286,0.500798,-0.414357,-0.673436,-0.352130,0.163582,-0.132249,0.070252
236,3047065620,0.501135,-0.414171,-0.673032,-0.352642,0.258069,-0.168066,0.001313
237,3047098954,0.501085,-0.414378,-0.672654,-0.353191,0.128890,-0.275136,0.042105
238,3047132288,0.500909,-0.414643,-0.672403,-0.353609,0.083216,-0.149232,0.105425
239,3047165622,0.500776,-0.414771,-0.672295,-0.353850,0.070055,0.027019,0.105203
240,3047198956,0.500636,-0.414855,-0.672305,-0.353932,-0.024511,0.059736,0.155696
241,3047232290,0.500557,-0.414904,-0.672306,-0.353984,-0.016425,0.106730,0.171864
242,3047265624,0.500512,-0.414843,-0.672321,-0.354090,0.002382,0.075304,0.101763
243,3047298958,0.500525,-0.414642,-0.672519,-0.353933,-0.030174,-0.009633,0.092779
244,3047332292,0.500539,-0.414393,-0.672846,-0.353582,0.026621,-0.053632,0.109088
245,3047365626,0.500429,-0.414274,-0.673175,-0.353249,0.044118,0.025447,0.116534
246,3047398960,0.500301,-0.414180,-0.673544,-0.352837,0.058032,0.147618,0.143464
247,3047432294,0.500039,-0.414290,-0.673838,-0.352520,-0.065305,0.185231,0.191952
248,3047465628,0.499812,-0.414520,-0.673894,-0.352463,-0.032985,0.239510,0.182117
249,3047498962,0.499633,-0.414827,-0.673827,-0.352484,-0.016595,0.178436,0.176145
250,3047532296,0.499370,-0.415311,-0.673653,-0.352620,-0.063024,0.104814,0.130013
251,3047565630,0.499134,-0.415713,-0.673532,-0.352711,-0.114553,0.025638,0.180056
252,3047598964,0.499001,-0.415981,-0.673453,-0.352734,-0.007215,0.063326,0.116439
253,3047632298,0.498744,-0.416356,-0.673361,-0.352830,-0.005230,0.066075,0.119364
254,3047665632,0.498515,-0.416690,-0.673309,-0.352859,-0.051820,0.038856,0.143690
255,3047698966,0.498334,-0.416980,-0.673254,-0.352878,0.031771,-0.024149,0.140444
256,3047732300,0.498193,-0.417256,-0.673187,-0.352877,0.097404,-0.041457,0.088693
257,3047765634,0.498040,-0.417386,-0.673323,-0.352680,0.119704,-0.155171,0.073050
258,3047798968,0.498076,-0.417158,-0.673729,-0.352125,0.015699,-0.278253,0.067736
259,3047832302,0.498010,-0.416952,-0.674264,-0.351437,0.094767,-0.250471,0.035633
260,3047865636,0.497666,-0.417011,-0.674976,-0.350486,0.050520,-0.264795,0.073003
261,3047898970,0.497265,-0.417239,-0.675658,-0.349467,0.044171,-0.075844,0.054098
262,3047932304,0.496871,-0.417216,-0.676670,-0.348096,-0.169501,-0.077909,0.196784
263,3047965638,0.497385,-0.416428,-0.677893,-0.345917,-0.064779,0.068864,0.171943
264,3047998972,0.497212,-0.416223,-0.678531,-0.345163,0.167045,0.447986,0.120549
265,3048032306,0.497135,-0.415851,-0.679304,-0.344198,-0.049996,0.151019,0.231009
266,3048065640,0.497271,-0.415508,-0.679678,-0.343678,-0.181421,0.112149,0.173755
267,3048098974,0.497272,-0.415364,-0.679847,-0.343516,-0.049436,0.140332,0.163482
268,3048132308,0.497453,-0.414875,-0.680185,-0.343177,0.020078,0.143172,0.133343
269,3048165642,0.497658,-0.414280,-0.680555,-0.342864,-0.012788,0.068698,0.156010
270,3048198976,0.497868,-0.413748,-0.680802,-0.342710,-0.065729,0.094928,0.147023
271,3048232310,0.497832,-0.413491,-0.680885,-0.342909,0.050702,0.170765,0.104765
272,3048265644,0.497696,-0.413199,-0.680963,-0.343304,-0.005404,0.148968,0.167607
273,3048298978,0.497698,-0.412760,-0.680970,-0.343814,-0.157043,0.138587,0.159613
274,3048332312,0.497584,-0.412558,-0.680649,-0.344856,-0.132316,0.177586,0.152857
275,3048365646,0.497391,-0.412500,-0.680178,-0.346132,-0.129362,0.118400,0.173263
276,3048398980,0.497347,-0.412212,-0.679711,-0.347451,-0.146346,-0.035162,0.147326
277,3048432314,0.497428,-0.411684,-0.679259,-0.348840,-0.142992,-0.074726,0.132576
278,3048465648,0.497535,-0.411117,-0.678815,-0.350221,-0.148826,-0.169135,0.123505
279,3048498982,0.497784,-0.410741,-0.678184,-0.351528,-0.122529,-0.247922,0.073971
280,3048532316,0.497822,-0.410821,-0.677225,-0.353225,-0.066276,-0.201559,0.087177
281,3048565650,0.497822,-0.410977,-0.676299,-0.354815,-0.010117,-0.142503,0.126376
282,3048598984,0.497965,-0.411018,-0.675318,-0.356431,0.019466,-0.081456,0.054607
283,3048632318,0.498152,-0.411139,-0.674212,-0.358120,-0.079390,-0.121777,0.056755
284,3048665652,0.497936,-0.411480,-0.673308,-0.359726,0.062467,-0.222433,0.098861
285,3048698986,0.497924,-0.410824,-0.672969,-0.361124,-0.080120,-0.132569,0.218785
286,3048732320,0.499196,-0.407932,-0.673607,-0.361456,-0.164944,0.003022,0.114260
287,3048765654,0.501259,-0.403722,-0.674737,-0.361221,-0.253270,0.235326,0.249547
288,3048798988,0.503340,-0.400466,-0.674870,-0.361701,-0.352720,0.173559,0.188525
289,3048832322,0.504326,-0.399681,-0.672646,-0.365322,-0.123566,0.097792,0.181212
290,3048865656,0.504766,-0.399785,-0.669268,-0.370766,-0.077890,0.062321,0.189380
291,3048898990,0.505610,-0.399367,-0.666027,-0.375865,-0.098351,-0.224353,0.167345
292,3048932324,0.506740,-0.398661,-0.662992,-0.380432,-0.098656,-0.695686,-0.040038
293,3048965658,0.507389,-0.397995,-0.660208,-0.385077,-0.154749,-0.841535,-0.025277
294,3048998992,0.508296,-0.396515,-0.658105,-0.388987,-0.048737,-0.800587,-0.136189
295,3049032326,0.509615,-0.393954,-0.657488,-0.390903,0.286931,-0.798157,-0.268595
296,3049065660,0.509700,-0.392524,-0.657381,-0.392407,0.450990,-0.657544,-0.116784
297,3049098994,0.509148,-0.392446,-0.656861,-0.394068,0.076755,-0.038236,0.554171
298,3049132328,0.509090,-0.392539,-0.655418,-0.396446,-0.000045,0.853703,0.572759
299,3049165662,0.509881,-0.392303,-0.653607,-0.398647,0.003710,1.197053,0.695513
300,3049198996,0.511408,-0.392352,-0.650647,-0.401476,0.242217,1.084105,0.772904
301,3049232330,0.513316,-0.393103,-0.646385,-0.405174,0.395112,0.362669,0.514504
302,3049265664,0.515220,-0.394234,-0.641861,-0.408833,0.474546,-0.076231,0.230611
303,3049298998,0.516293,-0.395812,-0.637932,-0.412092,0.357912,-0.296547,-0.099077
304,3049332332,0.516656,-0.397317,-0.634845,-0.414946,-0.059193,-0.126581,0.018906
305,3049365666,0.516465,-0.398878,-0.632454,-0.417330,0.222318,-0.150956,0.160815
306,3049399000,0.515150,-0.401158,-0.630737,-0.419364,0.110631,-0.026197,-0.027481
307,3049432334,0.513054,-0.403748,-0.630285,-0.420126,0.291657,-0.457600,-0.344272
308,3049465668,0.510774,-0.406405,-0.631184,-0.418991,0.383499,-0.610508,-0.145965
309,3049499002,0.508603,-0.408387,-0.632118,-0.418297,0.169776,0.227018,0.015693
310,3049532336,0.506727,-0.409825,-0.632646,-0.418370,0.018291,1.090642,0.487947
311,3049565670,0.506160,-0.410288,-0.632981,-0.418095,-0.206311,1.772125,0.932396
312,3049599004,0.506569,-0.410327,-0.633502,-0.416770,-0.118870,1.506763,0.100311
313,3049632338,0.506392,-0.411744,-0.632813,-0.416634,-0.080039,1.044503,0.073430
314,3049665672,0.506590,-0.413101,-0.631276,-0.417381,-0.201728,0.619098,-0.274754
315,3049699006,0.507454,-0.413265,-0.630130,-0.417901,-0.122744,0.240112,-0.498375
316,3049732340,0.509615,-0.411342,-0.629900,-0.417515,-0.220580,0.518203,-0.023474
317,3049765674,0.512672,-0.407563,-0.631264,-0.415412,0.060883,0.351546,-0.077345
318,3049799008,0.515690,-0.403738,-0.633949,-0.411303,-0.000502,-0.325160,0.137312
319,3049832342,0.519261,-0.400740,-0.635619,-0.407145,-0.161436,-0.370137,0.090693
320,3049865676,0.522526,-0.399092,-0.636592,-0.403045,0.193873,-0.212464,0.285353
321,3049899010,0.526388,-0.396784,-0.637486,-0.398864,0.435785,0.120043,0.466622
322,3049932344,0.531150,-0.392705,-0.638950,-0.394219,0.661453,0.418005,0.332464
323,3049965678,0.536932,-0.386687,-0.641729,-0.387768,-0.073076,1.759776,0.315183
324,3049999012,0.542114,-0.379704,-0.647206,-0.378237,1.793877,-0.269046,-0.690042
325,3050032346,0.543251,-0.378409,-0.651348,-0.370720,1.402220,-0.903716,-0.246377
326,3050065680,0.542291,-0.379618,-0.654478,-0.365338,0.602898,-0.083594,0.320266
327,3050099014,0.539889,-0.382386,-0.657699,-0.360186,0.261988,0.203975,0.372401
328,3050132348,0.538719,-0.384382,-0.661198,-0.353344,-0.425712,-0.202826,0.339313
329,3050165682,0.538127,-0.386638,-0.664265,-0.345954,-0.411401,-0.129124,0.091879
330,3050199016,0.538159,-0.388369,-0.667476,-0.337686,-0.330345,0.048274,0.080583
331,3050232350,0.539025,-0.388433,-0.671239,-0.328652,-0.177613,0.197494,0.157733
332,3050265684,0.540168,-0.387706,-0.675345,-0.319083,-0.311694,0.020850,0.133519
333,3050299018,0.541601,-0.386805,-0.679031,-0.309789,-0.135774,0.327850,0.035514
334,3050332352,0.542678,-0.386255,-0.681906,-0.302184,-0.009156,0.233724,0.193641
335,3050365686,0.543795,-0.386005,-0.684105,-0.295450,-0.082541,-0.025273,0.016329
336,3050399020,0.544588,-0.385918,-0.686143,-0.289311,-0.201889,-0.051328,0.062129
337,3050432354,0.545741,-0.384752,-0.688522,-0.282972,-0.398570,-0.026240,0.103205
338,3050465688,0.547202,-0.382864,-0.690778,-0.277152,-0.153813,-0.163783,0.193968
339,3050499022,0.548495,-0.380997,-0.693134,-0.271222,-0.127804,-0.576338,0.108919
340,3050532356,0.549608,-0.378951,-0.695978,-0.264470,0.043784,-0.460083,0.129511
341,3050565690,0.550153,-0.377559,-0.698903,-0.257523,0.022404,-0.145407,0.134407
342,3050599024,0.549555,-0.377626,-0.701597,-0.251299,-0.030623,0.271911,0.110977
343,3050632358,0.547330,-0.379727,-0.703723,-0.247012,-0.301231,0.432359,0.175901
344,3050665692,0.544443,-0.382963,-0.704994,-0.244757,-0.526571,0.257866,0.252073
345,3050699026,0.542605,-0.385787,-0.705071,-0.244184,-0.870124,0.307390,0.400809
346,3050732360,0.542410,-0.387380,-0.704226,-0.244532,-0.581756,0.246197,0.325639
347,3050765694,0.542503,-0.388860,-0.703015,-0.245462,0.037925,-0.202570,0.061497
348,3050799028,0.540569,-0.391453,-0.702615,-0.246747,0.362352,-0.832111,-0.153667
349,3050832362,0.537795,-0.393751,-0.703314,-0.247160,0.017851,-1.005363,0.096127
350,3050865696,0.535894,-0.394624,-0.704599,-0.246236,-0.144511,-0.796631,0.091276
351,3050899030,0.533426,-0.396155,-0.705576,-0.246337,-0.118293,0.009604,0.108899
352,3050932364,0.530919,-0.398098,-0.705876,-0.247758,-0.311716,0.232040,0.359282
353,3050965698,0.529396,-0.399119,-0.705828,-0.249506,-0.426336,0.368773,0.315888
354,3050999032,0.527808,-0.400185,-0.705491,-0.252104,-0.206134,0.116776,0.150456
355,3051032366,0.526587,-0.400610,-0.705210,-0.254752,0.036195,-0.305470,0.154257
356,3051065700,0.525442,-0.400606,-0.705234,-0.257046,0.159030,-0.452554,0.045533
357,3051099034,0.523936,-0.400598,-0.705667,-0.258937,0.165080,-0.506404,-0.005764
358,3051132368,0.522359,-0.400483,-0.706380,-0.260355,0.057280,-0.456048,-0.023788
359,3051165702,0.520664,-0.400399,-0.707272,-0.261455,0.059614,-0.429994,0.024745
360,3051199036,0.519718,-0.399580,-0.708236,-0.261980,0.102416,-0.341809,0.041677
361,3051232370,0.519856,-0.397787,-0.709145,-0.261975,0.122251,-0.118536,0.080398
362,3051265704,0.520393,-0.395911,-0.709493,-0.262808,0.193715,0.124839,0.233142
363,3051299038,0.520305,-0.395457,-0.708876,-0.265320,0.276395,0.479462,0.256980
364,3051332372,0.519678,-0.396508,-0.707183,-0.269466,0.047061,0.502822,0.179535
365,3051365706,0.518680,-0.398530,-0.704796,-0.274608,-0.247079,0.270635,0.240188
366,3051399040,0.517527,-0.400856,-0.702200,-0.279996,-0.327666,0.137374,0.178268
367,3051432374,0.516561,-0.402773,-0.699767,-0.285074,-0.118340,0.096425,0.050398
368,3051465708,0.515341,-0.404406,-0.697823,-0.289698,-0.026404,0.034450,-0.002893
369,3051499042,0.513783,-0.405932,-0.696322,-0.293913,-0.108122,0.119789,0.073180
370,3051532376,0.512130,-0.407220,-0.695203,-0.297640,-0.209331,0.288941,0.108556
371,3051565710,0.510466,-0.408418,-0.694257,-0.301046,-0.215467,0.376595,0.189408
372,3051599044,0.508987,-0.409437,-0.693387,-0.304156,-0.182478,0.406599,0.214998
373,3051632378,0.507784,-0.410095,-0.692662,-0.306921,-0.112219,0.357749,0.183862
374,3051665712,0.506712,-0.410551,-0.692018,-0.309523,0.001445,0.181411,0.183617
375,3051699046,0.505923,-0.410779,-0.691373,-0.311943,0.083026,0.093556,0.133269
376,3051732380,0.505336,-0.410759,-0.690880,-0.314007,0.126398,-0.033973,0.074148
377,3051765714,0.504795,-0.410611,-0.690540,-0.315813,0.155041,-0.044007,0.120701
378,3051799048,0.504434,-0.410142,-0.690408,-0.317282,0.229030,0.062070,0.073462
379,3051832382,0.504113,-0.409562,-0.690562,-0.318207,0.135312,0.058784,0.122525
380,3051865716,0.503951,-0.408983,-0.690699,-0.318909,0.169359,0.122572,0.128611
381,3051899050,0.503591,-0.408747,-0.690731,-0.319712,0.111260,0.115447,0.086900
382,3051932384,0.503065,-0.408733,-0.690779,-0.320454,0.052856,0.069526,0.149636
383,3051965718,0.502595,-0.408677,-0.690922,-0.320952,-0.057686,0.114530,0.170727
384,3051999052,0.502339,-0.408370,-0.691155,-0.321243,-0.024797,0.107403,0.170832
385,3052032386,0.502189,-0.407995,-0.691360,-0.321513,0.042612,0.092641,0.131947
386,3052065720,0.502109,-0.407687,-0.691465,-0.321803,0.001836,0.064868,0.122049
387,3052099054,0.502024,-0.407497,-0.691482,-0.322138,0.074768,0.070707,0.143390
388,3052132388,0.502049,-0.407218,-0.691497,-0.322421,0.124952,0.034180,0.140488
389,3052165722,0.502167,-0.406767,-0.691630,-0.322521,0.116908,-0.012356,0.108829
390,3052199056,0.502285,-0.406315,-0.691833,-0.322470,0.070453,-0.060955,0.125835
391,3052232390,0.502456,-0.405798,-0.692141,-0.322195,0.030637,-0.072911,0.092607
392,3052265724,0.502619,-0.405288,-0.692532,-0.321742,0.072135,-0.035346,0.144754
393,3052299058,0.502816,-0.404752,-0.692901,-0.321313,0.102772,0.059364,0.170675
394,3052332392,0.503060,-0.404194,-0.693247,-0.320887,0.056163,0.070045,0.132808
395,3052365726,0.503314,-0.403728,-0.693453,-0.320632,0.043370,0.011154,0.098387
396,3052399060,0.503535,-0.403441,-0.693470,-0.320607,0.162990,-0.030473,0.143447
397,3052432394,0.503765,-0.403303,-0.693341,-0.320700,0.144566,0.008247,0.136477
398,3052465728,0.503913,-0.403299,-0.693151,-0.320884,0.029275,0.008584,0.079865
399,3052499062,0.503931,-0.403345,-0.693039,-0.321037,0.014692,-0.056858,0.090285
400,3052532396,0.503901,-0.403386,-0.693043,-0.321026,-0.062871,-0.063852,0.115500
401,3052565730,0.503724,-0.403469,-0.693190,-0.320881,-0.160174,-0.016546,0.073852
402,3052599064,0.503467,-0.403449,-0.693520,-0.320596,-0.051733,0.085674,0.151911
403,3052632398,0.503379,-0.403236,-0.693898,-0.320185,-0.023456,0.133480,0.168698
404,3052665732,0.503383,-0.403036,-0.694141,-0.319904,-0.108579,0.123814,0.145539
405,3052699066,0.503381,-0.402884,-0.694305,-0.319741,-0.049292,0.089082,0.131041
406,3052732400,0.503408,-0.402702,-0.694455,-0.319604,-0.004781,-0.003359,0.143168
407,3052765734,0.503478,-0.402563,-0.694553,-0.319456,-0.011285,-0.030842,0.112341
408,3052799068,0.503460,-0.402611,-0.694546,-0.319439,-0.016014,0.044085,0.124621
409,3052832402,0.503429,-0.402768,-0.694407,-0.319591,0.060721,0.086860,0.137028
410,3052865736,0.503376,-0.402989,-0.694214,-0.319817,0.005901,0.013519,0.142393
411,3052899070,0.503322,-0.403279,-0.693941,-0.320127,-0.034733,-0.027533,0.133920
412,3052932404,0.503291,-0.403552,-0.693636,-0.320493,-0.000536,-0.005821,0.108925
413,3052965738,0.503256,-0.403843,-0.693300,-0.320908,0.014539,-0.050052,0.102345
414,3052999072,0.503124,-0.404185,-0.693007,-0.321316,0.001011,-0.062703,0.112007
415,3053032406,0.502962,-0.404502,-0.692765,-0.321693,-0.061592,-0.036561,0.105135
416,3053065740,0.502831,-0.404786,-0.692548,-0.322008,0.004777,0.048067,0.137584
417,3053099074,0.502688,-0.405100,-0.692277,-0.322417,0.033606,0.071674,0.132994
418,3053132408,0.502547,-0.405417,-0.691994,-0.322847,-0.028020,0.042487,0.130651
419,3053165742,0.502447,-0.405698,-0.691702,-0.323275,-0.038206,0.022993,0.124398
420,3053199076,0.502395,-0.405888,-0.691484,-0.323584,0.011514,0.030959,0.133983
421,3053232410,0.502360,-0.406036,-0.691293,-0.323861,0.004024,0.010513,0.095211
422,3053265744,0.502248,-0.406197,-0.691163,-0.324111,-0.048023,0.003446,0.127697
423,3053299078,0.502225,-0.406131,-0.691203,-0.324143,-0.056763,0.037076,0.126283
424,3053332412,0.502287,-0.405866,-0.691364,-0.324036,-0.032940,0.056493,0.103004
425,3053365746,0.502295,-0.405610,-0.691583,-0.323876,0.021246,0.061014,0.127328
426,3053399080,0.502315,-0.405353,-0.691801,-0.323701,0.015644,0.069332,0.121452
427,3053432414,0.502331,-0.405163,-0.691971,-0.323551,-0.001698,0.034213,0.144805
428,3053465748,0.502274,-0.405140,-0.692075,-0.323444,0.029273,0.037772,0.129001
429,3053499082,0.502147,-0.405300,-0.692035,-0.323527,0.003318,0.099216,0.140149
430,3053532416,0.502019,-0.405603,-0.691811,-0.323826,-0.035679,0.120132,0.181519
431,3053565750,0.501892,-0.406116,-0.691350,-0.324366,-0.039662,0.100186,0.191548
432,3053599084,0.501813,-0.406803,-0.690607,-0.325206,-0.020316,0.151544,0.217195
433,3053632418,0.501915,-0.407487,-0.689603,-0.326322,-0.031287,0.103119,0.173723
434,3053665752,0.502309,-0.408039,-0.688291,-0.327792,0.156050,0.077283,0.119751
435,3053699086,0.502881,-0.408326,-0.687040,-0.329180,0.107978,-0.132619,0.055326
436,3053732420,0.503217,-0.408689,-0.686016,-0.330350,0.079105,-0.270940,0.013309
437,3053765754,0.503328,-0.409000,-0.685440,-0.330990,0.024875,-0.234890,-0.001404
438,3053799088,0.503225,-0.409205,-0.685397,-0.330981,-0.017123,-0.196244,0.048063
439,3053832422,0.502858,-0.409445,-0.685696,-0.330623,-0.071446,-0.045417,0.075476
440,3053865756,0.502386,-0.409594,-0.686238,-0.330031,-0.127400,0.123743,0.137559
441,3053899090,0.502119,-0.409488,-0.686816,-0.329365,-0.182035,0.138550,0.203086
442,3053932424,0.502086,-0.409212,-0.687205,-0.328949,-0.091928,0.214391,0.212401
443,3053965758,0.502179,-0.408887,-0.687452,-0.328694,-0.064393,0.067285,0.138809
444,3053999092,0.502275,-0.408558,-0.687663,-0.328516,-0.077800,-0.074257,0.082594
445,3054032426,0.502311,-0.408189,-0.688033,-0.328143,0.031340,-0.120979,0.068089
446,3054065760,0.502150,-0.407899,-0.688557,-0.327651,0.064080,-0.088952,0.043114
447,3054099094,0.501677,-0.407850,-0.689244,-0.326993,0.025973,-0.117383,0.052893
448,3054132428,0.501156,-0.407831,-0.690009,-0.326199,-0.024270,0.028444,0.158993
449,3054165762,0.500675,-0.407795,-0.690728,-0.325461,-0.044258,0.173504,0.181746
450,3054199096,0.500393,-0.407617,-0.691346,-0.324806,-0.128952,0.298388,0.218554
451,3054232430,0.500278,-0.407295,-0.691830,-0.324355,-0.161328,0.331562,0.235086
452,3054265764,0.500379,-0.406835,-0.692135,-0.324126,-0.213122,0.256397,0.179404
453,3054299098,0.500552,-0.406379,-0.692350,-0.323973,-0.157328,0.132250,0.154801
454,3054332432,0.500796,-0.405938,-0.692449,-0.323935,-0.036034,0.034659,0.137019
455,3054365766,0.500982,-0.405637,-0.692407,-0.324114,0.072813,0.007160,0.134010
456,3054399100,0.501107,-0.405409,-0.692336,-0.324358,0.092550,-0.027778,0.108603
457,3054432434,0.501260,-0.405184,-0.692248,-0.324592,0.007259,-0.075217,0.109783
458,3054465768,0.501338,-0.405079,-0.692129,-0.324856,0.026795,-0.036153,0.114100
459,3054499102,0.501337,-0.405102,-0.691953,-0.325203,0.031730,-0.017455,0.115163
460,3054532436,0.501386,-0.405113,-0.691741,-0.325566,0.026141,-0.014077,0.138452
461,3054565770,0.501449,-0.405080,-0.691587,-0.325837,0.071134,-0.064053,0.123479
462,3054599104,0.501501,-0.405065,-0.691429,-0.326109,0.077323,-0.137878,0.076738
463,3054632438,0.501579,-0.404878,-0.691448,-0.326181,0.124283,-0.117914,0.086962
464,3054665772,0.501459,-0.404916,-0.691478,-0.326254,0.084526,-0.116006,0.093702
465,3054699106,0.501331,-0.404868,-0.691649,-0.326148,0.028151,-0.087528,0.107280
466,3054732440,0.501100,-0.405109,-0.691613,-0.326283,0.017470,0.032727,0.119905
467,3054765774,0.501061,-0.404994,-0.691799,-0.326089,-0.002239,0.059504,0.158978
468,3054799108,0.500965,-0.405116,-0.691762,-0.326165,0.008424,0.080893,0.153646
469,3054832442,0.500903,-0.405302,-0.691624,-0.326320,-0.027590,0.134500,0.150345
470,3054865776,0.500966,-0.405285,-0.691557,-0.326387,-0.014922,0.092101,0.149007
471,3054899110,0.501068,-0.405333,-0.691357,-0.326593,0.010437,0.040771,0.158146
472,3054932444,0.501171,-0.405506,-0.691005,-0.326968,0.053560,-0.024241,0.113832
473,3054965778,0.501222,-0.405713,-0.690669,-0.327341,0.099591,-0.146139,0.083212
474,3054999112,0.501025,-0.406288,-0.690225,-0.327867,0.069832,-0.057529,0.116860
475,3055032446,0.500998,-0.406385,-0.690200,-0.327840,0.004756,0.021315,0.071722
476,3055065780,0.500862,-0.406357,-0.690468,-0.327517,-0.090507,0.033975,0.116405
477,3055099114,0.500763,-0.406328,-0.690723,-0.327169,-0.085723,0.117797,0.152582
478,3055132448,0.500804,-0.406143,-0.690957,-0.326840,-0.034520,0.203714,0.143022
479,3055165782,0.500769,-0.405973,-0.691231,-0.326524,-0.025682,0.055843,0.104825
480,3055199116,0.500790,-0.405662,-0.691540,-0.326224,0.030826,-0.007396,0.213049
481,3055232450,0.500834,-0.405471,-0.691721,-0.326012,-0.024846,-0.070510,0.054939
482,3055265784,0.500629,-0.405516,-0.692025,-0.325624,0.035703,-0.145991,0.037637
483,3055299118,0.500174,-0.405881,-0.692251,-0.325389,0.005846,0.005606,0.159611
484,3055332452,0.499937,-0.406081,-0.692456,-0.325068,-0.130100,0.176730,0.201889
485,3055365786,0.499741,-0.406323,-0.692473,-0.325029,-0.201267,0.190457,0.172256
486,3055399120,0.499695,-0.406620,-0.692151,-0.325414,-0.135874,0.235756,0.313854
487,3055432454,0.500005,-0.406850,-0.691412,-0.326221,0.052576,0.278899,0.191910
488,3055465788,0.500385,-0.407208,-0.690354,-0.327430,0.080598,0.031969,0.068442
489,3055499122,0.500835,-0.407394,-0.689456,-0.328402,0.011533,-0.230990,0.016503
490,3055532456,0.501159,-0.407359,-0.688974,-0.328963,0.062567,-0.349752,-0.012790
491,3055565790,0.501069,-0.407375,-0.688965,-0.329096,-0.066185,-0.220577,0.018909
492,3055599124,0.500929,-0.406952,-0.689640,-0.328418,-0.211837,0.012583,0.088382
493,3055632458,0.500836,-0.406258,-0.690589,-0.327424,-0.178365,0.204901,0.146186
494,3055665792,0.500548,-0.405774,-0.691440,-0.326667,-0.170225,0.280265,0.213394
495,3055699126,0.500284,-0.405382,-0.692092,-0.326177,-0.208958,0.303778,0.223556
496,3055732460,0.500161,-0.404899,-0.692632,-0.325819,-0.080418,0.332352,0.097627
497,3055765794,0.499773,-0.404811,-0.693015,-0.325710,0.049223,0.136871,0.145094
498,3055799128,0.499219,-0.405045,-0.693269,-0.325729,-0.025919,0.005323,0.146802
499,3055832462,0.498782,-0.405216,-0.693439,-0.325824,-0.045925,-0.017033,0.161674
500,3055865796,0.498590,-0.405157,-0.693558,-0.325937,-0.000964,0.008231,0.170056
501,3055899130,0.498436,-0.405170,-0.693571,-0.326131,0.023733,-0.029741,0.113724
502,3055932464,0.498238,-0.405422,-0.693313,-0.326667,0.023498,-0.004169,0.100128
503,3055965798,0.498172,-0.405512,-0.693110,-0.327087,0.026326,-0.062753,0.087986
504,3055999132,0.498066,-0.405574,-0.692913,-0.327588,0.057766,-0.089186,0.087210
505,3056032466,0.497963,-0.405564,-0.692835,-0.327921,0.072007,-0.092894,0.122980
506,3056065800,0.497856,-0.405671,-0.692715,-0.328205,0.089343,-0.081359,0.085922
507,3056099134,0.497519,-0.406147,-0.692463,-0.328660,0.128421,-0.044091,0.129965
508,3056132468,0.497413,-0.406127,-0.692554,-0.328651,0.105377,-0.012226,0.106691
509,3056165802,0.497361,-0.406154,-0.692613,-0.328574,0.065992,0.030159,0.172887
510,3056199136,0.497418,-0.406026,-0.692712,-0.328435,0.041006,0.012805,0.133862
511,3056232470,0.497507,-0.405925,-0.692751,-0.328343,0.007814,-0.027870,0.129299
512,3056265804,0.497556,-0.405954,-0.692719,-0.328300,0.009645,0.008083,0.120397
513,3056299138,0.497653,-0.405851,-0.692797,-0.328117,0.089426,-0.015371,0.104855
514,3056332472,0.497506,-0.406082,-0.692742,-0.328171,0.044105,-0.011806,0.173536
515,3056365806,0.497530,-0.406196,-0.692658,-0.328171,0.033475,0.087138,0.138480
516,3056399140,0.497503,-0.406468,-0.692428,-0.328362,0.054818,0.151762,0.111051
517,3056432474,0.497439,-0.406749,-0.692234,-0.328517,-0.040125,-0.009049,0.105197
518,3056465808,0.497568,-0.406671,-0.692239,-0.328408,-0.038208,-0.100802,0.095294
519,3056499142,0.497615,-0.406726,-0.692185,-0.328383,-0.061711,-0.025188,0.156773
520,3056532476,0.497537,-0.407037,-0.691991,-0.328525,-0.072176,0.096248,0.136439
521,3056565810,0.497604,-0.407062,-0.691945,-0.328489,-0.077121,0.097382,0.153714
522,3056599144,0.497796,-0.406929,-0.691924,-0.328407,-0.033031,0.096383,0.114371
523,3056632478,0.497947,-0.406825,-0.691891,-0.328376,-0.013281,0.003040,0.145304
524,3056665812,0.498100,-0.406786,-0.691803,-0.328378,-0.031182,-0.003501,0.096243
525,3056699146,0.498360,-0.406475,-0.691893,-0.328179,0.044083,0.056031,0.109397
526,3056732480,0.498414,-0.406502,-0.691817,-0.328225,0.009285,0.069264,0.131694
527,3056765814,0.498291,-0.407044,-0.691368,-0.328685,-0.036884,0.055700,0.130997
528,3056799148,0.498450,-0.406913,-0.691327,-0.328692,-0.004297,0.038572,0.112300
529,3056832482,0.498477,-0.407044,-0.691148,-0.328865,-0.010546,-0.022702,0.102776
530,3056865816,0.498417,-0.407211,-0.691026,-0.329005,-0.037640,-0.036331,0.091135
531,3056899150,0.498284,-0.407431,-0.690946,-0.329104,-0.003443,-0.007293,0.101312
532,3056932484,0.498158,-0.407628,-0.690932,-0.329080,-0.034632,0.049806,0.177126
533,3056965818,0.498106,-0.407691,-0.690934,-0.329074,-0.036771,0.105458,0.163182
534,3056999152,0.498177,-0.407702,-0.690847,-0.329139,-0.037942,0.085759,0.131433
535,3057032486,0.498228,-0.407792,-0.690678,-0.329304,-0.043463,0.073124,0.163321
536,3057065820,0.498316,-0.407893,-0.690446,-0.329531,0.050167,0.041511,0.122739
537,3057099154,0.498419,-0.407981,-0.690220,-0.329741,0.001388,-0.048353,0.107861
538,3057132488,0.498513,-0.408027,-0.690090,-0.329815,-0.011462,-0.012292,0.113008
539,3057165822,0.498572,-0.408012,-0.690036,-0.329856,-0.020652,0.047280,0.098331
540,3057199156,0.498678,-0.407920,-0.690034,-0.329814,-0.046094,0.023633,0.132551
541,3057232490,0.498810,-0.407785,-0.690059,-0.329728,-0.098163,0.060655,0.110875
542,3057265824,0.498869,-0.407638,-0.690158,-0.329614,-0.073305,0.042436,0.130455
543,3057299158,0.498821,-0.407504,-0.690354,-0.329443,-0.055545,-0.005861,0.126236
544,3057332492,0.498790,-0.407285,-0.690640,-0.329161,-0.051611,-0.054842,0.136669
545,3057365826,0.498827,-0.406960,-0.690945,-0.328865,-0.025400,0.030970,0.138532
546,3057399160,0.498857,-0.406687,-0.691174,-0.328676,0.035631,0.056198,0.132979
547,3057432494,0.498674,-0.407029,-0.690960,-0.328981,0.009891,0.013949,0.126716
548,3057465828,0.498647,-0.407086,-0.690919,-0.329038,-0.003340,-0.048033,0.113661
549,3057499162,0.498675,-0.406995,-0.690968,-0.329004,0.031115,-0.024895,0.088178
550,3057532496,0.498574,-0.407020,-0.691049,-0.328957,0.017970,-0.028854,0.145677
551,3057565830,0.498437,-0.407084,-0.691139,-0.328895,-0.023143,0.013148,0.117046
552,3057599164,0.498222,-0.407405,-0.691015,-0.329085,-0.001998,0.089915,0.135094
553,3057632498,0.498197,-0.407339,-0.691101,-0.329022,-0.051932,0.048390,0.141880
554,3057665832,0.498195,-0.407449,-0.690991,-0.329120,0.006230,0.024010,0.144481
555,3057699166,0.498253,-0.407607,-0.690696,-0.329458,0.066789,0.112426,0.216664
556,3057732500,0.498404,-0.407721,-0.690337,-0.329839,-0.073202,0.001810,0.092514
557,3057765834,0.498617,-0.407470,-0.690308,-0.329889,-0.131319,-0.021781,0.092120
558,3057799168,0.499079,-0.406726,-0.690621,-0.329452,-0.137227,-0.022717,0.114176
559,3057832502,0.499508,-0.405984,-0.690907,-0.329118,-0.097800,0.030201,0.120574
560,3057865836,0.499934,-0.405078,-0.691252,-0.328863,-0.080329,0.055328,0.141702
561,3057899170,0.500405,-0.404167,-0.691573,-0.328592,-0.081377,0.079323,0.121296
562,3057932504,0.500743,-0.403485,-0.691793,-0.328454,0.113512,0.095618,0.139002
563,3057965838,0.500860,-0.403320,-0.691662,-0.328751,0.256338,0.095282,0.118866
564,3057999172,0.501022,-0.402950,-0.691814,-0.328639,0.198052,-0.016725,0.107306
565,3058032506,0.501093,-0.402640,-0.692148,-0.328207,-0.004942,-0.091629,0.068853
566,3058065840,0.501118,-0.402237,-0.692733,-0.327428,-0.003034,-0.033435,0.111216
567,3058099174,0.500892,-0.402494,-0.692937,-0.327027,0.091238,0.087228,0.107426
568,3058132508,0.500511,-0.402920,-0.693078,-0.326787,0.101315,0.017792,0.152532
569,3058165842,0.500261,-0.403230,-0.693199,-0.326530,-0.009321,-0.036010,0.146296
570,3058199176,0.500098,-0.403527,-0.693156,-0.326504,0.005752,-0.017674,0.126138
571,3058232510,0.499869,-0.404035,-0.692952,-0.326660,-0.060172,-0.001638,0.122002
572,3058265844,0.499641,-0.404696,-0.692615,-0.326905,-0.107455,-0.037439,0.129202
573,3058299178,0.499567,-0.404927,-0.692530,-0.326913,-0.090867,-0.005954,0.075838
574,3058332512,0.499364,-0.405105,-0.692555,-0.326948,0.020135,0.003498,0.149341
575,3058365846,0.499304,-0.405032,-0.692779,-0.326656,-0.079662,0.096125,0.079484
576,3058399180,0.498838,-0.405399,-0.692964,-0.326521,-0.204337,0.151394,0.108277
577,3058432514,0.498175,-0.406177,-0.692915,-0.326670,-0.260539,0.235478,0.227371
578,3058465848,0.498044,-0.406142,-0.693121,-0.326476,-0.286344,0.349650,0.212544
579,3058499182,0.497887,-0.406045,-0.693370,-0.326308,-0.282906,0.156687,0.112622
580,3058532516,0.497650,-0.405897,-0.693714,-0.326122,-0.162171,0.035158,0.110712
581,3058565850,0.497606,-0.405342,-0.694278,-0.325678,0.005096,0.068151,0.184814
582,3058599184,0.497570,-0.405053,-0.694549,-0.325517,0.099825,0.100457,0.095202
583,3058632518,0.497359,-0.404994,-0.694729,-0.325527,0.094178,0.012260,0.116938
584,3058665852,0.497098,-0.405224,-0.694706,-0.325690,0.024036,-0.006156,0.107020
585,3058699186,0.496794,-0.405503,-0.694685,-0.325851,-0.016457,-0.003925,0.145924
586,3058732520,0.496462,-0.405816,-0.694584,-0.326180,-0.042245,0.049052,0.141582
587,3058765854,0.496241,-0.406060,-0.694460,-0.326477,0.012980,0.100015,0.135731
588,3058799188,0.495948,-0.406568,-0.694109,-0.327036,0.088192,0.086858,0.159140
589,3058832522,0.495724,-0.407061,-0.693689,-0.327655,0.093797,0.020728,0.117075
590,3058865856,0.495490,-0.407557,-0.693263,-0.328292,0.071865,-0.062367,0.092355
591,3058899190,0.495136,-0.408089,-0.692983,-0.328755,-0.046776,-0.144995,0.063598
592,3058932524,0.494917,-0.408206,-0.693090,-0.328715,-0.100219,-0.123307,0.092731
593,3058965858,0.494835,-0.408008,-0.693441,-0.328343,-0.101350,-0.054641,0.076042
594,3058999192,0.494766,-0.407718,-0.693895,-0.327848,-0.099200,0.022099,0.125830
595,3059032526,0.494717,-0.407328,-0.694368,-0.327406,-0.145376,0.077378,0.187914
596,3059065860,0.494652,-0.407236,-0.694546,-0.327241,-0.120311,-0.004902,0.124903
597,3059099194,0.494746,-0.406845,-0.694830,-0.326982,-0.133363,0.008749,0.088249
598,3059132528,0.494693,-0.406746,-0.694887,-0.327065,-0.158005,-0.052957,0.138322
599,3059165862,0.494932,-0.406044,-0.695211,-0.326886,-0.126328,0.053982,0.101637
600,3059199196,0.495067,-0.405257,-0.695717,-0.326582,0.048735,0.120414,0.130750
601,3059232530,0.495193,-0.404424,-0.696309,-0.326160,0.130593,0.092910,0.119598
602,3059265864,0.495072,-0.404112,-0.696638,-0.326030,0.147922,0.069867,0.108581
603,3059299198,0.494920,-0.403996,-0.696807,-0.326043,0.029440,0.078833,0.217594
604,3059332532,0.494878,-0.403830,-0.696895,-0.326125,0.074383,0.159618,0.151891
605,3059365866,0.494662,-0.404042,-0.696744,-0.326511,0.024781,0.099267,0.079335
606,3059399200,0.494294,-0.404493,-0.696515,-0.326997,-0.028095,-0.014646,0.143300
607,3059432534,0.493976,-0.405106,-0.695997,-0.327822,-0.020904,0.057313,0.171047
608,3059465868,0.493743,-0.405745,-0.695293,-0.328874,0.107917,0.129492,0.171274
609,3059499202,0.493556,-0.406425,-0.694472,-0.330049,0.083532,0.130764,0.168295
610,3059532536,0.493599,-0.407015,-0.693511,-0.331276,0.066224,0.057601,0.145635
611,3059565870,0.493584,-0.407840,-0.692271,-0.332873,0.085049,0.063331,0.123610
612,3059599204,0.493668,-0.408476,-0.691125,-0.334348,0.026006,-0.054872,0.058600
613,3059632538,0.493591,-0.409250,-0.690016,-0.335800,0.135726,-0.129386,0.066834
614,3059665872,0.493077,-0.410511,-0.688910,-0.337286,0.038397,-0.186226,0.012611
615,3059699206,0.492252,-0.412080,-0.687935,-0.338565,-0.122715,-0.128326,0.174522
616,3059732540,0.491598,-0.413502,-0.687007,-0.339663,-0.084884,0.004930,0.141947
617,3059765874,0.490889,-0.414938,-0.685965,-0.341041,0.008322,0.065236,0.132648
618,3059799208,0.490291,-0.416286,-0.684899,-0.342398,0.003472,0.016646,0.113551
619,3059832542,0.489781,-0.417433,-0.683964,-0.343598,-0.015302,-0.130649,0.076742
620,3059865876,0.489319,-0.418134,-0.683488,-0.344351,-0.007843,-0.219260,0.078090
621,3059899210,0.489187,-0.418211,-0.683588,-0.344245,0.033344,-0.205874,0.117212
622,3059932544,0.489115,-0.418120,-0.683855,-0.343928,-0.025062,-0.039702,0.106858
623,3059965878,0.489058,-0.417908,-0.684290,-0.343402,-0.017299,0.078978,0.141446
624,3059999212,0.489211,-0.417469,-0.684743,-0.342815,-0.083405,0.123642,0.182999
625,3060032546,0.489534,-0.417036,-0.684960,-0.342447,-0.017716,0.088110,0.187435
626,3060065880,0.489957,-0.416662,-0.684929,-0.342359,0.139944,0.033597,0.178783
627,3060099214,0.490541,-0.416093,-0.684915,-0.342244,0.086534,-0.043761,0.056373
628,3060132548,0.491126,-0.415502,-0.685036,-0.341879,0.093310,-0.142242,0.109641
629,3060165882,0.491562,-0.415179,-0.685119,-0.341478,0.092784,-0.076109,0.075471
630,3060199216,0.491948,-0.414953,-0.685179,-0.341076,0.118991,0.029237,0.139462
631,3060232550,0.492228,-0.414739,-0.685348,-0.340594,0.025824,0.075601,0.156258
632,3060265884,0.492570,-0.414494,-0.685478,-0.340136,-0.081574,0.061338,0.163544
633,3060299218,0.493140,-0.414162,-0.685404,-0.339863,-0.036664,0.143241,0.179641
634,3060332552,0.493636,-0.414069,-0.685099,-0.339871,0.106347,0.109882,0.137113
635,3060365886,0.494057,-0.414317,-0.684408,-0.340347,0.169130,0.026038,0.138866
636,3060399220,0.494550,-0.414651,-0.683507,-0.341035,0.089755,-0.072026,0.112617
637,3060432554,0.495034,-0.415003,-0.682624,-0.341673,0.096402,-0.198184,0.068295
638,3060465888,0.495408,-0.415439,-0.681850,-0.342148,0.213601,-0.331641,0.023734
639,3060499222,0.495356,-0.416217,-0.681241,-0.342490,0.118466,-0.335332,0.012254
640,3060532556,0.494916,-0.417180,-0.680974,-0.342486,0.071481,-0.284102,0.065111
641,3060565890,0.494562,-0.417792,-0.681138,-0.341922,-0.053804,-0.058219,0.111970
642,3060599224,0.494240,-0.418330,-0.681403,-0.341204,-0.073253,0.189047,0.167220
643,3060632558,0.493982,-0.418958,-0.681412,-0.340787,-0.150847,0.317728,0.202102
644,3060665892,0.493992,-0.419494,-0.681060,-0.340816,-0.280140,0.439408,0.222914
645,3060699226,0.494135,-0.420030,-0.680350,-0.341367,-0.301453,0.410847,0.186386
646,3060732560,0.494428,-0.420473,-0.679567,-0.341956,-0.248913,0.171202,0.175824
647,3060765894,0.494753,-0.420800,-0.678853,-0.342503,-0.116471,0.038917,0.104675
648,3060799228,0.495066,-0.420906,-0.678391,-0.342835,-0.031714,-0.026518,0.054282
649,3060832562,0.495231,-0.420984,-0.678143,-0.342993,-0.024960,-0.035567,0.099183
650,3060865896,0.495350,-0.421013,-0.678048,-0.342973,-0.069896,-0.013816,0.121765
651,3060899230,0.495495,-0.420998,-0.677992,-0.342891,-0.034635,0.070838,0.144439
652,3060932564,0.495616,-0.420980,-0.677923,-0.342875,-0.030400,0.075743,0.147848
653,3060965898,0.495820,-0.420852,-0.677864,-0.342855,-0.044533,0.030816,0.127392
654,3060999232,0.496060,-0.420636,-0.677832,-0.342834,-0.025087,-0.006694,0.105911
655,3061032566,0.496224,-0.420460,-0.677831,-0.342815,-0.059923,-0.052579,0.114421
656,3061065900,0.496455,-0.420242,-0.677880,-0.342652,-0.027949,-0.068326,0.128945
657,3061099234,0.496607,-0.420134,-0.677860,-0.342603,0.017521,0.027175,0.118079
658,3061132568,0.496706,-0.420058,-0.677843,-0.342587,0.028059,0.006503,0.152291
659,3061165902,0.496787,-0.420006,-0.677802,-0.342614,-0.000841,0.017390,0.134464
660,3061199236,0.496810,-0.420045,-0.677697,-0.342741,-0.032041,0.050116,0.130799
661,3061232570,0.496827,-0.420151,-0.677550,-0.342876,-0.049517,0.039252,0.132431
662,3061265904,0.496928,-0.420195,-0.677412,-0.342950,-0.014778,0.060253,0.127402
663,3061299238,0.496965,-0.420206,-0.677327,-0.343050,-0.023797,0.054078,0.119540
664,3061332572,0.497013,-0.420139,-0.677368,-0.342981,-0.047245,-0.002821,0.105419
665,3061365906,0.497038,-0.420057,-0.677473,-0.342838,-0.052072,0.025190,0.111538
666,3061399240,0.497022,-0.420000,-0.677597,-0.342686,-0.054869,0.039170,0.120917
667,3061432574,0.496981,-0.419951,-0.677708,-0.342586,-0.040788,0.062266,0.153593
668,3061465908,0.497000,-0.419863,-0.677783,-0.342518,-0.038294,0.022453,0.122900
669,3061499242,0.496972,-0.419877,-0.677753,-0.342602,-0.024357,0.040126,0.130022
670,3061532576,0.496912,-0.419940,-0.677704,-0.342708,-0.036200,0.060709,0.109118
671,3061565910,0.496876,-0.420005,-0.677680,-0.342727,-0.082902,0.047589,0.132540
672,3061599244,0.496782,-0.420127,-0.677661,-0.342752,-0.104307,0.101100,0.143262
673,3061632578,0.496670,-0.420259,-0.677592,-0.342888,-0.069407,0.100355,0.172004
674,3061665912,0.496690,-0.420298,-0.677491,-0.343011,-0.027418,0.072333,0.141560
675,3061699246,0.496745,-0.420310,-0.677357,-0.343183,0.057340,-0.027609,0.132883
676,3061732580,0.496758,-0.420402,-0.677095,-0.343569,0.101300,-0.054357,0.094213
677,3061765914,0.496680,-0.420642,-0.676794,-0.343979,0.104797,-0.081901,0.118492
678,3061799248,0.496532,-0.421085,-0.676344,-0.344534,0.093103,0.003460,0.121425
679,3061832582,0.496365,-0.421681,-0.675775,-0.345164,0.090317,0.026970,0.127539
680,3061865916,0.496130,-0.422474,-0.675073,-0.345906,0.003464,0.066787,0.120440
681,3061899250,0.495759,-0.423466,-0.674279,-0.346772,-0.082502,0.043306,0.155313
682,3061932584,0.495560,-0.424278,-0.673555,-0.347469,-0.085661,0.035642,0.164335
683,3061965918,0.495495,-0.424879,-0.672889,-0.348116,-0.009154,0.018271,0.126933
684,3061999252,0.495372,-0.425472,-0.672271,-0.348761,0.013364,-0.023249,0.094860
685,3062032586,0.495232,-0.425997,-0.671764,-0.349295,-0.041170,-0.044152,0.079779
686,3062065920,0.495072,-0.426391,-0.671471,-0.349605,-0.112409,-0.054633,0.122226
687,3062099254,0.494938,-0.426661,-0.671322,-0.349752,-0.076578,0.034406,0.110803
688,3062132588,0.494849,-0.426829,-0.671271,-0.349770,-0.010738,0.067823,0.122155
689,3062165922,0.494727,-0.426995,-0.671237,-0.349804,-0.089154,0.026491,0.170698
690,3062199256,0.494793,-0.427018,-0.671197,-0.349762,-0.072449,0.083430,0.139731
691,3062232590,0.494878,-0.427038,-0.671147,-0.349711,0.013248,0.078610,0.131678
692,3062265924,0.495018,-0.427072,-0.671081,-0.349600,-0.026832,0.092061,0.155281
693,3062299258,0.495243,-0.427072,-0.671000,-0.349436,-0.030044,0.062704,0.146253
694,3062332592,0.495457,-0.427067,-0.670913,-0.349306,0.027322,0.107444,0.115487
695,3062365926,0.495563,-0.427168,-0.670811,-0.349229,-0.068812,0.028884,0.150446
696,3062399260,0.495692,-0.427244,-0.670708,-0.349149,-0.065357,0.057300,0.092421
697,3062432594,0.495681,-0.427360,-0.670682,-0.349074,-0.074610,0.016201,0.107541
698,3062465928,0.495637,-0.427435,-0.670707,-0.348995,-0.089285,0.006734,0.139531
699,3062499262,0.495598,-0.427411,-0.670812,-0.348877,-0.110263,0.047113,0.094122
700,3062532596,0.495523,-0.427322,-0.671033,-0.348670,-0.102276,0.066650,0.151410
701,3062565930,0.495515,-0.427055,-0.671420,-0.348263,-0.036385,0.003276,0.091726
702,3062599264,0.495512,-0.426676,-0.671951,-0.347706,0.027573,-0.025953,0.090586
703,3062632598,0.495432,-0.426266,-0.672617,-0.347033,-0.038378,-0.029070,0.121841
704,3062665932,0.495230,-0.426008,-0.673321,-0.346275,-0.059530,0.115924,0.113358
705,3062699266,0.494870,-0.425879,-0.674114,-0.345404,-0.076306,0.186688,0.182244
706,3062732600,0.494610,-0.425702,-0.674820,-0.344613,-0.034564,0.205037,0.221077
707,3062765934,0.494534,-0.425414,-0.675372,-0.343997,-0.135956,0.225369,0.226480
708,3062799268,0.494856,-0.424890,-0.675837,-0.343268,-0.120429,0.212140,0.227960
709,3062832602,0.495505,-0.424219,-0.676045,-0.342751,-0.103570,0.117176,0.213925
710,3062865936,0.496342,-0.423539,-0.675903,-0.342662,-0.128829,0.095271,0.184946
711,3062899270,0.497192,-0.423042,-0.675386,-0.343063,0.086030,-0.022371,0.120737
712,3062932604,0.497661,-0.422972,-0.674705,-0.343808,0.062861,-0.222819,-0.069602
713,3062965938,0.497501,-0.423316,-0.674163,-0.344678,-0.162630,-0.465372,-0.058616
714,3062999272,0.497249,-0.423295,-0.674367,-0.344669,-0.299714,-0.388565,0.040861
715,3063032606,0.497110,-0.422645,-0.675199,-0.344036,-0.229998,-0.132262,0.103907
716,3063065940,0.496966,-0.421594,-0.676460,-0.343055,-0.245132,0.150360,0.140358
717,3063099274,0.496890,-0.420351,-0.677847,-0.341953,-0.189271,0.221589,0.149905
718,3063132608,0.496973,-0.418969,-0.679112,-0.341015,-0.103977,0.196300,0.223420
719,3063165942,0.497297,-0.417415,-0.680207,-0.340266,-0.002100,0.137957,0.190839
720,3063199276,0.497709,-0.416155,-0.680801,-0.340018,0.128270,0.123451,0.249542
721,3063232610,0.498482,-0.414963,-0.680946,-0.340054,0.289950,0.078207,0.171688
722,3063265944,0.499004,-0.414457,-0.680478,-0.340840,0.543175,0.064908,0.116398
723,3063299278,0.499190,-0.414706,-0.679524,-0.342167,0.472497,-0.107529,0.082707
724,3063332612,0.499037,-0.415665,-0.678262,-0.343726,0.263402,-0.292272,0.047860
725,3063365946,0.498576,-0.417112,-0.676938,-0.345248,0.081259,-0.297612,0.101548
726,3063399280,0.498022,-0.418688,-0.675632,-0.346696,0.028602,-0.091265,0.099405
727,3063432614,0.497463,-0.420141,-0.674509,-0.347925,-0.017558,0.120087,0.133065
728,3063465948,0.496963,-0.421515,-0.673417,-0.349090,-0.082868,0.129528,0.201061
729,3063499282,0.496785,-0.422605,-0.672255,-0.350266,-0.103456,0.166424,0.236079
730,3063532616,0.496966,-0.423358,-0.671047,-0.351414,-0.095028,0.047525,0.146929
731,3063565950,0.497398,-0.423759,-0.669998,-0.352320,0.062417,-0.013299,0.095002
732,3063599284,0.497904,-0.423865,-0.669279,-0.352842,0.147242,-0.080279,0.012998
733,3063632618,0.498319,-0.423777,-0.669043,-0.352811,0.063004,-0.193391,0.059660
734,3063665952,0.498844,-0.423519,-0.669123,-0.352227,0.042319,-0.204777,0.171138
735,3063699286,0.499355,-0.423276,-0.669236,-0.351580,0.099957,0.007449,0.040239
736,3063732620,0.499650,-0.423104,-0.669736,-0.350413,0.062978,0.010218,0.090923
737,3063765954,0.499637,-0.423124,-0.670428,-0.349080,-0.116866,-0.032534,0.113183
738,3063799288,0.499687,-0.422914,-0.671285,-0.347615,-0.195424,0.107212,0.118917
739,3063832622,0.499726,-0.422524,-0.672242,-0.346181,-0.234886,0.139931,0.098092
740,3063865956,0.499733,-0.421943,-0.673342,-0.344738,-0.233176,0.168430,0.218872
741,3063899290,0.500159,-0.420870,-0.674471,-0.343223,-0.220894,0.162782,0.145974
742,3063932624,0.500554,-0.419826,-0.675525,-0.341849,-0.174399,0.209246,0.136322
743,3063965958,0.500734,-0.419179,-0.676336,-0.340773,-0.208231,0.089031,0.199664
744,3063999292,0.500981,-0.418541,-0.676947,-0.339981,-0.200711,0.136045,0.173411
745,3064032626,0.501295,-0.417805,-0.677506,-0.339309,-0.079629,0.073681,0.113201
746,3064065960,0.501830,-0.416870,-0.677979,-0.338723,0.177892,-0.057784,0.140693
747,3064099294,0.502563,-0.415637,-0.678613,-0.337880,0.134824,-0.067632,0.061261
748,3064132628,0.503002,-0.414429,-0.679591,-0.336742,-0.119448,-0.256812,-0.036395
749,3064165962,0.503097,-0.413554,-0.680648,-0.335539,-0.163895,-0.130693,0.170615
750,3064199296,0.503374,-0.412754,-0.681540,-0.334297,0.027156,0.006123,0.087851
751,3064232630,0.503416,-0.412122,-0.682250,-0.333565,0.066756,-0.086662,0.133871
752,3064265964,0.503659,-0.411092,-0.683095,-0.332738,0.040419,-0.281536,0.181434
753,3064299298,0.504242,-0.409837,-0.683819,-0.331915,0.257311,-0.307330,0.019022
754,3064332632,0.504657,-0.408935,-0.684410,-0.331178,0.352060,-0.259060,0.014426
755,3064365966,0.504824,-0.408115,-0.685435,-0.329811,0.136179,-0.368122,0.073493
756,3064399300,0.504855,-0.406991,-0.686915,-0.328070,-0.093784,-0.213340,0.022796
757,3064432634,0.504736,-0.405554,-0.688792,-0.326092,-0.232946,0.108036,0.145723
758,3064465968,0.504890,-0.403560,-0.690985,-0.323677,-0.372968,0.343623,0.193913
759,3064499302,0.505274,-0.401286,-0.693117,-0.321339,-0.420209,0.436303,0.233240
760,3064532636,0.505809,-0.398996,-0.694930,-0.319428,-0.371042,0.479051,0.255041
761,3064565970,0.506602,-0.396656,-0.696437,-0.317800,-0.338655,0.439861,0.233925
762,3064599304,0.507206,-0.394817,-0.697537,-0.316713,-0.107619,0.240069,0.055744
763,3064632638,0.507445,-0.393569,-0.698303,-0.316193,0.010889,0.073397,0.255452
764,3064665972,0.507964,-0.392258,-0.698810,-0.315869,-0.032074,0.044497,0.135161
765,3064699306,0.508363,-0.391103,-0.699262,-0.315659,-0.116226,-0.080236,0.040751
766,3064732640,0.508349,-0.390363,-0.699703,-0.315621,-0.021867,-0.031486,0.083138
767,3064765974,0.508396,-0.389682,-0.700016,-0.315692,0.109565,0.103676,0.160965
768,3064799308,0.508237,-0.389387,-0.700088,-0.316152,0.103617,0.128791,0.088423
769,3064832642,0.507807,-0.389670,-0.699807,-0.317116,0.065407,-0.005279,0.151615
770,3064865976,0.507320,-0.390186,-0.699355,-0.318256,0.049055,0.119906,0.166272
771,3064899310,0.506713,-0.390870,-0.698863,-0.319461,-0.057950,0.183384,0.132584
772,3064932644,0.506112,-0.391755,-0.698244,-0.320680,-0.156409,0.200539,0.126093
773,3064965978,0.505338,-0.393121,-0.697369,-0.322131,-0.043581,0.288871,0.163116
774,3064999312,0.504431,-0.394852,-0.696196,-0.323967,-0.048957,0.268190,0.236618
775,3065032646,0.503823,-0.396566,-0.694769,-0.325876,-0.131790,0.148922,0.179181
776,3065065980,0.503343,-0.398398,-0.692983,-0.328179,-0.022063,0.169032,0.138523
777,3065099314,0.502725,-0.400287,-0.691192,-0.330596,0.155531,-0.008546,0.091841
778,3065132648,0.502093,-0.402131,-0.689595,-0.332647,0.008715,-0.334423,0.094872
779,3065165982,0.501736,-0.403790,-0.688087,-0.334296,0.006538,-0.287745,0.097130
780,3065199316,0.501285,-0.405344,-0.686804,-0.335727,0.280543,-0.082506,0.071495
781,3065232650,0.500552,-0.406872,-0.685788,-0.337046,0.266497,-0.009594,0.148095
782,3065265984,0.499970,-0.408187,-0.684889,-0.338146,0.145638,0.035457,0.134902
783,3065299318,0.499627,-0.409430,-0.683830,-0.339291,-0.087168,0.200974,0.194267
784,3065332652,0.499296,-0.410833,-0.682587,-0.340584,-0.035201,0.204366,0.153000
785,3065365986,0.498710,-0.412495,-0.681211,-0.342184,0.012257,0.150521,0.179733
786,3065399320,0.498386,-0.413768,-0.680073,-0.343381,-0.174843,-0.011655,0.082972
787,3065432654,0.498441,-0.414467,-0.679193,-0.344199,-0.174726,-0.134190,0.071676
788,3065465988,0.498305,-0.415097,-0.678585,-0.344837,-0.002099,-0.168108,0.128288
789,3065499322,0.498283,-0.415392,-0.678261,-0.345149,0.239929,-0.212311,0.032398
790,3065532656,0.498283,-0.415559,-0.678141,-0.345185,0.223605,-0.272073,-0.001616
791,3065565990,0.498100,-0.415962,-0.678042,-0.345157,0.260937,-0.278888,0.092373
792,3065599324,0.497882,-0.416414,-0.678038,-0.344936,0.297665,-0.128565,0.117695
793,3065632658,0.497503,-0.416903,-0.678276,-0.344423,-0.034355,-0.146403,0.063725
794,3065665992,0.497066,-0.417369,-0.678676,-0.343700,-0.289654,-0.009342,0.098415
795,3065699326,0.496902,-0.417478,-0.679228,-0.342713,-0.277516,0.159981,0.189312
796,3065732660,0.497175,-0.417043,-0.679886,-0.341541,-0.207156,0.324696,0.183494
797,3065765994,0.497372,-0.416594,-0.680495,-0.340586,-0.093855,0.248403,0.207975
798,3065799328,0.497694,-0.416031,-0.681089,-0.339616,-0.136228,0.036087,0.157076
799,3065832662,0.498065,-0.415366,-0.681669,-0.338721,-0.057632,-0.001499,0.086613
800,3065865996,0.498209,-0.414751,-0.682470,-0.337648,-0.035763,-0.168385,0.088763
801,3065899330,0.498503,-0.413733,-0.683673,-0.336026,-0.182358,-0.223958,0.104004
802,3065932664,0.498963,-0.412364,-0.685011,-0.334297,-0.183191,-0.026877,0.106537
803,3065965998,0.499483,-0.410738,-0.686562,-0.332335,-0.130757,0.046184,0.149700
804,3065999332,0.500096,-0.409135,-0.687927,-0.330562,0.036011,0.186900,0.140222
805,3066032666,0.500620,-0.407848,-0.689000,-0.329121,0.066692,0.192912,0.177510
806,3066066000,0.501083,-0.406843,-0.689777,-0.328032,0.043552,0.108487,0.166015
807,3066099334,0.501658,-0.405911,-0.690329,-0.327147,0.054010,0.100211,0.186126
808,3066132668,0.502337,-0.405100,-0.690674,-0.326380,0.095733,0.086290,0.185451
809,3066166002,0.503015,-0.404399,-0.690814,-0.325907,0.058526,0.092175,0.213922
810,3066199336,0.503851,-0.403644,-0.690752,-0.325683,-0.021535,0.118947,0.215263
811,3066232670,0.504757,-0.402942,-0.690483,-0.325721,-0.058811,0.056977,0.137938
812,3066266004,0.505588,-0.402441,-0.689990,-0.326095,-0.102501,-0.032934,0.122341
813,3066299338,0.506449,-0.401981,-0.689452,-0.326464,-0.188381,-0.052878,0.110225
814,3066332672,0.507283,-0.401493,-0.688934,-0.326864,-0.146523,-0.013258,0.109217
815,3066366006,0.508279,-0.400612,-0.688637,-0.327022,-0.062165,-0.126680,0.086136
816,3066399340,0.509258,-0.399614,-0.688423,-0.327172,0.080645,-0.248733,0.008750
817,3066432674,0.509888,-0.398830,-0.688225,-0.327564,0.137308,-0.388467,0.069602
818,3066466008,0.510683,-0.397795,-0.688122,-0.327801,0.131032,-0.306851,0.119227
819,3066499342,0.511684,-0.396409,-0.688326,-0.327491,0.170995,-0.319829,0.079015
820,3066532676,0.512483,-0.395323,-0.688485,-0.327218,0.252006,-0.209099,0.119776
821,3066566010,0.513096,-0.394612,-0.688625,-0.326821,0.273957,-0.271639,0.017087
822,3066599344,0.513486,-0.394010,-0.689037,-0.326066,0.193416,-0.476210,-0.078469
823,3066632678,0.513387,-0.393656,-0.689852,-0.324923,0.095482,-0.547349,0.069494
824,3066666012,0.513323,-0.392994,-0.690954,-0.323481,0.178508,-0.444683,0.003247
825,3066699346,0.513440,-0.391793,-0.692326,-0.321817,0.179864,-0.167273,0.014711
826,3066732680,0.513328,-0.390617,-0.693749,-0.320356,0.126388,0.081078,0.136997
827,3066766014,0.513293,-0.389801,-0.694570,-0.319624,0.011883,0.422089,0.277918
828,3066799348,0.513875,-0.389138,-0.694462,-0.319733,-0.193521,0.778236,0.301764
829,3066832682,0.514703,-0.388926,-0.693554,-0.320629,-0.473782,0.738796,0.398257
830,3066866016,0.516026,-0.388753,-0.692120,-0.321809,-0.384717,0.511494,0.365449
831,3066899350,0.517635,-0.388814,-0.690202,-0.323266,-0.072353,0.245421,0.083517
832,3066932684,0.518570,-0.389926,-0.687801,-0.325539,-0.007093,0.081603,0.070803
833,3066966018,0.519384,-0.390545,-0.686053,-0.327183,-0.158132,-0.059629,0.079618
834,3066999352,0.520528,-0.389910,-0.685402,-0.327486,-0.223770,-0.074217,0.057137
835,3067032686,0.521183,-0.389461,-0.685044,-0.327728,-0.100509,0.077384,0.016600
836,3067066020,0.521144,-0.389711,-0.684712,-0.328187,-0.173604,0.160548,0.177956
837,3067099354,0.521114,-0.389884,-0.684434,-0.328608,-0.131327,0.195207,0.098671
838,3067132688,0.521104,-0.389797,-0.684403,-0.328790,-0.229327,0.186945,0.120509
839,3067166022,0.521080,-0.389422,-0.684736,-0.328581,-0.270695,0.197349,0.273561
840,3067199356,0.521426,-0.388658,-0.685118,-0.328139,-0.139079,0.244785,0.128231
841,3067232690,0.521813,-0.387904,-0.685408,-0.327811,-0.036480,0.272315,0.175406
842,3067266024,0.521941,-0.387378,-0.685737,-0.327541,-0.108465,0.146238,0.182247
843,3067299358,0.522095,-0.386873,-0.686016,-0.327309,-0.185116,0.009530,0.135799
844,3067332692,0.522184,-0.386401,-0.686330,-0.327066,-0.106936,0.052623,0.111357
845,3067366026,0.522147,-0.386090,-0.686615,-0.326891,0.028426,0.104596,0.166512
846,3067399360,0.522129,-0.385927,-0.686715,-0.326905,0.008072,0.084896,0.176974
847,3067432694,0.522191,-0.385916,-0.686554,-0.327158,-0.012617,0.045745,0.148915
848,3067466028,0.522231,-0.386020,-0.686273,-0.327559,0.057197,0.028003,0.151960
849,3067499362,0.522406,-0.386007,-0.686009,-0.327848,-0.042161,0.028097,0.077591
850,3067532696,0.522590,-0.385821,-0.685947,-0.327904,-0.018468,-0.022730,0.064013
851,3067566030,0.522460,-0.385698,-0.686129,-0.327877,0.050744,-0.071665,0.050708
852,3067599364,0.522045,-0.385525,-0.686601,-0.327752,0.120188,-0.084481,0.147811
853,3067632698,0.521822,-0.384824,-0.687374,-0.327309,-0.020691,-0.039298,0.091344
854,3067666032,0.521821,-0.383758,-0.688393,-0.326420,-0.173367,-0.045509,0.107611
855,3067699366,0.521649,-0.383133,-0.689266,-0.325587,-0.101217,0.086564,0.114543
856,3067732700,0.521174,-0.383068,-0.689896,-0.325089,-0.024163,0.148216,0.147730
857,3067766034,0.520912,-0.382772,-0.690539,-0.324491,-0.010147,0.132046,0.170706
858,3067799368,0.520675,-0.382444,-0.691197,-0.323857,-0.036035,0.081803,0.158439
859,3067832702,0.520242,-0.382615,-0.691570,-0.323555,-0.005077,0.109382,0.141769
860,3067866036,0.519655,-0.383276,-0.691621,-0.323606,-0.004955,0.175108,0.170619
861,3067899370,0.518994,-0.384177,-0.691527,-0.323800,-0.021090,0.184109,0.182273
862,3067932704,0.518304,-0.385185,-0.691310,-0.324171,-0.102738,0.121095,0.155525
863,3067966038,0.517488,-0.386418,-0.690959,-0.324754,-0.167231,0.115466,0.127937
864,3067999372,0.516467,-0.387905,-0.690570,-0.325434,-0.190851,0.130062,0.137726
865,3068032706,0.515480,-0.389367,-0.690184,-0.326070,-0.140399,0.141115,0.139951
866,3068066040,0.514325,-0.390916,-0.689802,-0.326850,-0.103900,0.213146,0.124497
867,3068099374,0.513059,-0.392530,-0.689502,-0.327537,-0.141080,0.163179,0.153449
868,3068132708,0.511815,-0.394205,-0.689108,-0.328298,-0.150486,0.156287,0.143544
869,3068166042,0.510494,-0.396022,-0.688592,-0.329250,-0.079287,0.193968,0.103592
870,3068199376,0.509170,-0.397705,-0.688226,-0.330035,-0.061927,0.070906,0.128832
871,3068232710,0.507789,-0.399317,-0.688011,-0.330664,-0.038122,-0.063999,0.109292
872,3068266044,0.506123,-0.401038,-0.688011,-0.331136,0.130355,-0.128196,0.030881
873,3068299378,0.504169,-0.402989,-0.688115,-0.331532,0.105166,-0.186619,0.097857
874,3068332712,0.502498,-0.404598,-0.688392,-0.331536,-0.033856,-0.059357,0.156374
875,3068366046,0.501058,-0.406139,-0.688476,-0.331655,-0.101818,0.140326,0.146754
876,3068399380,0.499758,-0.407724,-0.688343,-0.331950,-0.034878,0.142636,0.148626
877,3068432714,0.498631,-0.409191,-0.688071,-0.332402,-0.019912,0.002172,0.122468
878,3068466048,0.497507,-0.410505,-0.687758,-0.333111,-0.091497,-0.121600,0.067501
879,3068499382,0.496492,-0.411478,-0.687756,-0.333430,-0.200755,-0.208115,0.149984
880,3068532716,0.495843,-0.412014,-0.687993,-0.333247,-0.045110,-0.018397,0.119173
881,3068566050,0.495218,-0.412420,-0.688310,-0.333017,0.118224,0.192743,0.148163
882,3068599384,0.494659,-0.412708,-0.688656,-0.332776,0.062910,0.211882,0.198956
883,3068632718,0.494146,-0.413066,-0.688798,-0.332800,-0.091592,0.187404,0.201592
884,3068666052,0.493778,-0.413484,-0.688732,-0.332964,-0.047783,0.205724,0.225519
885,3068699386,0.493774,-0.413673,-0.688487,-0.333243,0.016948,0.196128,0.220428
886,3068732720,0.494217,-0.413454,-0.688049,-0.333761,0.000700,0.105009,0.125461
887,3068766054,0.494653,-0.413275,-0.687475,-0.334519,0.033473,0.042169,0.105801
888,3068799388,0.495051,-0.413320,-0.686709,-0.335446,0.055272,-0.018593,0.052608
889,3068832722,0.495041,-0.413844,-0.685869,-0.336533,-0.021359,-0.175447,0.080284
890,3068866056,0.494919,-0.414521,-0.685056,-0.337532,-0.064683,-0.119115,0.083129
891,3068899390,0.494656,-0.415357,-0.684287,-0.338450,-0.064240,0.010404,0.076084
892,3068932724,0.494298,-0.416323,-0.683446,-0.339483,-0.105955,0.030984,0.184456
893,3068966058,0.493887,-0.417447,-0.682450,-0.340703,-0.016779,0.021803,0.160336
894,3068999392,0.493384,-0.418661,-0.681255,-0.342329,0.060235,0.047874,0.109686
895,3069032726,0.493006,-0.419752,-0.679943,-0.344141,-0.037316,-0.013270,0.134029
896,3069066060,0.492884,-0.420616,-0.678618,-0.345871,0.011199,-0.149795,0.102715
897,3069099394,0.492533,-0.421467,-0.677411,-0.347698,0.139183,-0.221102,0.028845
898,3069132728,0.492115,-0.422029,-0.676590,-0.349201,0.066497,-0.363416,0.054336
899,3069166062,0.491895,-0.422236,-0.676238,-0.349944,0.039875,-0.485634,0.034405
900,3069199396,0.491142,-0.422822,-0.676066,-0.350627,0.168509,-0.381050,-0.000076
901,3069232730,0.490083,-0.423520,-0.676235,-0.350940,0.098100,-0.255041,0.116492
902,3069266064,0.489348,-0.423798,-0.676836,-0.350471,-0.075612,-0.228071,0.127817
903,3069299398,0.488708,-0.424023,-0.677386,-0.350027,-0.003063,-0.001687,0.149201
904,3069332732,0.488203,-0.424241,-0.677742,-0.349780,-0.023654,0.204603,0.201024
905,3069366066,0.488010,-0.424284,-0.677936,-0.349621,-0.011418,0.285521,0.214801
906,3069399400,0.487869,-0.424491,-0.677685,-0.350051,-0.063864,0.320068,0.221302
907,3069432734,0.487869,-0.424770,-0.677117,-0.350812,-0.082672,0.149503,0.214769
908,3069466068,0.488100,-0.424920,-0.676391,-0.351709,-0.112791,0.147620,0.123431
909,3069499402,0.488370,-0.424942,-0.675784,-0.352474,-0.045917,0.094375,0.135155
910,3069532736,0.488700,-0.424776,-0.675297,-0.353149,-0.040426,0.046910,0.078270
911,3069566070,0.488871,-0.424575,-0.675063,-0.353601,-0.029750,-0.056249,0.106006
912,3069599404,0.489024,-0.424289,-0.675074,-0.353712,-0.064800,-0.116208,0.143344
913,3069632738,0.489356,-0.423870,-0.675081,-0.353739,-0.040309,-0.031327,0.099717
914,3069666072,0.489811,-0.423348,-0.675131,-0.353643,0.010620,0.033718,0.101546
915,3069699406,0.490375,-0.422695,-0.675196,-0.353516,0.149781,0.085213,0.174463
916,3069732740,0.490926,-0.422084,-0.675108,-0.353648,0.072559,-0.011987,0.139450
917,3069766074,0.491506,-0.421575,-0.674944,-0.353763,0.024965,-0.043538,0.168138
918,3069799408,0.492233,-0.420959,-0.674839,-0.353688,0.082197,-0.089529,0.118341
919,3069832742,0.493105,-0.419972,-0.674978,-0.353380,0.003656,-0.052292,0.076739
920,3069866076,0.494057,-0.418753,-0.675410,-0.352672,-0.006940,-0.076116,0.157828
921,3069899410,0.495100,-0.417436,-0.675922,-0.351787,0.044736,-0.059992,0.120688
922,3069932744,0.496119,-0.416169,-0.676399,-0.350935,0.028799,-0.060376,0.092210
923,3069966078,0.497252,-0.414750,-0.677038,-0.349779,-0.083232,-0.161430,0.159441
924,3069999412,0.499933,-0.411820,-0.677696,-0.348141,-0.115783,-0.557628,0.353859
925,3070032746,0.503661,-0.407945,-0.678555,-0.345648,0.239597,-0.109231,0.140895
926,3070066080,0.505617,-0.405225,-0.680062,-0.343021,0.035106,0.486601,0.066850
927,3070099414,0.508517,-0.401233,-0.681607,-0.340349,0.377583,0.489612,0.076753
928,3070132748,0.511399,-0.397391,-0.682639,-0.338463,-0.148940,0.224927,-0.072471
929,3070166082,0.512294,-0.396374,-0.682723,-0.338133,-0.073730,-0.303341,0.068973
930,3070199416,0.513298,-0.395630,-0.683003,-0.336913,-0.113661,-0.160346,0.075983
931,3070232750,0.513988,-0.394838,-0.683603,-0.335572,0.025515,0.072521,0.072054
932,3070266084,0.514238,-0.394101,-0.684419,-0.334390,0.053012,-0.010271,0.123992
933,3070299418,0.514302,-0.393684,-0.685021,-0.333549,-0.002792,0.085451,0.057487
934,3070332752,0.513432,-0.394523,-0.685332,-0.333258,-0.217914,0.158733,0.138653
935,3070366086,0.512746,-0.395393,-0.685324,-0.333300,-0.184377,0.192463,0.272177
936,3070399420,0.513008,-0.395498,-0.684878,-0.333690,-0.100125,0.260906,0.200099
937,3070432754,0.513130,-0.395719,-0.684346,-0.334332,0.040845,0.068902,0.059821
938,3070466088,0.512842,-0.396367,-0.683841,-0.335038,-0.080364,-0.161512,0.097392
939,3070499422,0.512344,-0.397162,-0.683516,-0.335520,-0.172929,-0.070558,0.097299
940,3070532756,0.511763,-0.397957,-0.683408,-0.335687,-0.105790,0.049745,0.127145
941,3070566090,0.511123,-0.398851,-0.683193,-0.336037,-0.097196,0.259951,0.132599
942,3070599424,0.510736,-0.399465,-0.682741,-0.336814,-0.071971,0.197684,0.255957
943,3070632758,0.511081,-0.399505,-0.682138,-0.337464,-0.074312,-0.014158,0.090744
944,3070666092,0.510994,-0.399835,-0.681582,-0.338328,-0.055239,-0.134693,0.037979
945,3070699426,0.510166,-0.400497,-0.681584,-0.338790,0.034218,-0.159800,0.071773
946,3070732760,0.509208,-0.400942,-0.681994,-0.338880,-0.027026,-0.211242,0.050277
947,3070766094,0.508069,-0.401384,-0.682563,-0.338920,-0.137191,-0.065663,0.136239
948,3070799428,0.507634,-0.401153,-0.683124,-0.338714,-0.199671,-0.074252,0.214876
949,3070832762,0.508054,-0.400231,-0.683577,-0.338264,-0.193437,0.138360,0.187711
950,3070866096,0.508528,-0.399326,-0.683793,-0.338184,-0.008350,0.162262,0.131272
951,3070899430,0.508947,-0.398507,-0.684017,-0.338065,-0.040297,0.034190,0.052183
952,3070932764,0.509070,-0.397894,-0.684358,-0.337913,-0.091926,-0.099244,0.062246
953,3070966098,0.508896,-0.397332,-0.685115,-0.337302,-0.107868,-0.134366,0.029819
954,3070999432,0.508640,-0.396608,-0.686235,-0.336260,-0.043688,-0.038959,0.088085
955,3071032766,0.508168,-0.396082,-0.687402,-0.335211,0.138416,0.092264,0.099942
956,3071066100,0.507246,-0.396209,-0.688248,-0.334718,0.098158,-0.011758,0.119995
957,3071099434,0.506084,-0.396804,-0.688861,-0.334512,0.020510,-0.001541,0.170709
958,3071132768,0.504813,-0.397730,-0.689305,-0.334418,0.006084,0.074887,0.132347
959,3071166102,0.503713,-0.398679,-0.689544,-0.334454,0.024160,0.210353,0.236268
960,3071199436,0.502753,-0.399773,-0.689352,-0.334989,-0.061888,0.330781,0.242215
961,3071232770,0.502350,-0.400654,-0.688726,-0.335826,-0.031659,0.417527,0.206585
962,3071266104,0.502188,-0.401565,-0.687726,-0.337029,-0.051772,0.330122,0.216600
963,3071299438,0.502337,-0.402396,-0.686469,-0.338376,-0.018461,0.241410,0.205590
964,3071332772,0.502643,-0.403255,-0.684984,-0.339904,0.120019,0.100861,0.148628
965,3071366106,0.502701,-0.404488,-0.683188,-0.341962,0.090708,-0.079347,0.078085
966,3071399440,0.502560,-0.405791,-0.681608,-0.343774,0.047770,-0.268498,0.062148
967,3071432774,0.502137,-0.407243,-0.680248,-0.345364,0.070535,-0.364574,-0.032120
968,3071466108,0.501337,-0.408831,-0.679283,-0.346548,0.076677,-0.387862,-0.040668
969,3071499442,0.499858,-0.410891,-0.678679,-0.347429,-0.033389,-0.130955,0.071744
970,3071532776,0.497922,-0.413324,-0.678352,-0.347963,-0.126100,0.021995,0.098791
971,3071566110,0.495844,-0.415781,-0.678197,-0.348306,-0.226204,0.233561,0.172124
972,3071599444,0.494291,-0.417567,-0.678166,-0.348437,-0.187595,0.305912,0.218451
973,3071632778,0.493466,-0.418646,-0.677944,-0.348742,-0.089120,0.220030,0.223521
974,3071666112,0.492800,-0.419534,-0.677618,-0.349250,-0.055747,0.076683,0.174065
975,3071699446,0.492390,-0.420211,-0.677345,-0.349544,0.084391,0.022496,0.170894
976,3071732780,0.492095,-0.420792,-0.677161,-0.349617,0.159159,0.048034,0.106359
977,3071766114,0.491629,-0.421386,-0.677284,-0.349320,-0.113408,-0.033714,0.018551
978,3071799448,0.491481,-0.421731,-0.677668,-0.348365,-0.281794,-0.149335,0.075207
979,3071832782,0.491558,-0.422074,-0.677582,-0.348007,-0.138651,0.038929,0.125818
980,3071866116,0.491847,-0.422052,-0.677428,-0.347926,0.052788,0.089849,0.171525
981,3071899450,0.492151,-0.421857,-0.677393,-0.347799,0.054099,0.107340,0.183287
982,3071932784,0.492495,-0.421648,-0.677406,-0.347542,-0.069627,-0.092898,0.044333
983,3071966118,0.492329,-0.422007,-0.677243,-0.347657,0.004531,-0.061632,0.123621
984,3071999452,0.491827,-0.422658,-0.677154,-0.347751,-0.051805,0.079353,0.261811
985,3072032786,0.491914,-0.422774,-0.677176,-0.347445,-0.180515,0.104198,-0.026541
986,3072066120,0.491652,-0.422999,-0.677369,-0.347165,0.016443,0.028711,0.145383
987,3072099454,0.491635,-0.422757,-0.677940,-0.346367,-0.030842,-0.146240,0.178327
988,3072132788,0.491611,-0.422543,-0.678379,-0.345805,-0.210814,-0.015514,0.075624
989,3072166122,0.491182,-0.422618,-0.678777,-0.345541,-0.205052,0.157885,0.181343
990,3072199456,0.491163,-0.422177,-0.679351,-0.344980,-0.258630,0.132650,0.226999
991,3072232790,0.491378,-0.421530,-0.679798,-0.344582,-0.147285,0.164174,0.152241
992,3072266124,0.491385,-0.421180,-0.680019,-0.344565,-0.049240,0.055522,0.030032
993,3072299458,0.491175,-0.421127,-0.680119,-0.344732,0.058525,0.004033,0.199774
994,3072332792,0.491073,-0.420872,-0.680350,-0.344734,0.016890,-0.006344,0.107839
995,3072366126,0.490943,-0.420486,-0.680816,-0.344468,-0.103528,-0.092403,0.073991
996,3072399460,0.490790,-0.420059,-0.681461,-0.343931,-0.150192,-0.000632,0.105822
997,3072432794,0.490709,-0.419487,-0.682260,-0.343162,-0.066538,0.079474,0.082976
998,3072466128,0.490606,-0.418823,-0.683168,-0.342311,-0.138756,0.082014,0.186035
999,3072499462,0.490746,-0.417855,-0.684080,-0.341470,-0.174141,0.039535,0.157822
1000,3072532796,0.491027,-0.416789,-0.684886,-0.340754,-0.028751,0.054657,0.157676
1001,3072566130,0.491283,-0.415889,-0.685516,-0.340218,0.005932,0.014011,0.168959
1002,3072599464,0.491489,-0.415176,-0.685937,-0.339941,0.072880,-0.072372,0.094849
1003,3072632798,0.491545,-0.414577,-0.686427,-0.339602,0.059173,-0.074586,0.113489
1004,3072666132,0.491759,-0.413852,-0.686927,-0.339166,0.038232,-0.099678,0.110921
1005,3072699466,0.492027,-0.413141,-0.687287,-0.338914,0.089847,-0.012556,0.095000
1006,3072732800,0.492100,-0.412610,-0.687630,-0.338759,0.158099,0.001431,0.174454
1007,3072766134,0.492253,-0.412094,-0.687929,-0.338558,0.123253,-0.034293,0.119276
1008,3072799468,0.492400,-0.411675,-0.688116,-0.338473,0.076359,-0.021912,0.103820
1009,3072832802,0.492471,-0.411333,-0.688333,-0.338345,0.103000,-0.044850,0.115087
1010,3072866136,0.492480,-0.411039,-0.688608,-0.338128,0.124410,-0.113049,0.074597
1011,3072899470,0.492313,-0.410931,-0.688873,-0.337965,0.089847,-0.078199,0.096560
1012,3072932804,0.492103,-0.410989,-0.689083,-0.337772,0.014217,-0.055414,0.160707
1013,3072966138,0.491847,-0.411187,-0.689171,-0.337724,0.014951,0.022255,0.119352
1014,3072999472,0.491568,-0.411476,-0.689129,-0.337865,-0.009068,0.057986,0.154844
1015,3073032806,0.491490,-0.411684,-0.689003,-0.337981,-0.097528,0.084056,0.161789
1016,3073066140,0.491398,-0.412025,-0.688703,-0.338310,-0.074387,0.119218,0.165917
1017,3073099474,0.491302,-0.412447,-0.688261,-0.338833,-0.007583,0.178242,0.169794
1018,3073132808,0.491329,-0.412777,-0.687788,-0.339353,-0.021182,0.119811,0.138126
1019,3073166142,0.491455,-0.412997,-0.687338,-0.339816,-0.066884,0.074485,0.118580
1020,3073199476,0.491544,-0.413175,-0.686969,-0.340216,-0.013477,0.025353,0.093459
1021,3073232810,0.491559,-0.413404,-0.686644,-0.340572,0.000786,-0.014071,0.095970
1022,3073266144,0.491661,-0.413493,-0.686464,-0.340681,-0.066440,-0.014722,0.102795
1023,3073299478,0.491724,-0.413590,-0.686313,-0.340775,-0.045497,0.033656,0.127052
1024,3073332812,0.491755,-0.413762,-0.686055,-0.341040,-0.006890,0.071175,0.146212
1025,3073366146,0.491721,-0.414098,-0.685632,-0.341532,-0.023032,0.082481,0.124059
1026,3073399480,0.491698,-0.414363,-0.685293,-0.341925,-0.070752,0.000571,0.104445
1027,3073432814,0.491602,-0.414738,-0.684866,-0.342463,-0.064452,0.015967,0.120509
1028,3073466148,0.491324,-0.415269,-0.684403,-0.343142,-0.017252,0.072251,0.119309
1029,3073499482,0.490829,-0.415901,-0.684033,-0.343823,-0.112329,-0.014936,0.107773
1030,3073532816,0.490401,-0.416373,-0.683819,-0.344288,-0.160666,0.017018,0.142512
1031,3073566150,0.490258,-0.416375,-0.683880,-0.344369,-0.090817,0.052335,0.090042
1032,3073599484,0.490171,-0.416205,-0.684121,-0.344219,-0.111809,0.054245,0.139973
1033,3073632818,0.490266,-0.415757,-0.684511,-0.343850,-0.062834,0.103611,0.111873
1034,3073666152,0.490294,-0.415397,-0.684878,-0.343512,-0.067926,0.072221,0.081677
1035,3073699486,0.490150,-0.415197,-0.685250,-0.343220,-0.052195,0.052393,0.174759
1036,3073732820,0.490271,-0.414672,-0.685731,-0.342721,-0.049733,0.032743,0.108866
1037,3073766154,0.490052,-0.414731,-0.685859,-0.342705,0.065114,0.017159,0.116610
1038,3073799488,0.489984,-0.414557,-0.686093,-0.342544,0.063797,0.047687,0.161733
1039,3073832822,0.489793,-0.414858,-0.685912,-0.342816,0.079941,0.012250,0.107491
1040,3073866156,0.489539,-0.415122,-0.685810,-0.343062,0.115485,-0.042146,0.123777
1041,3073899490,0.489432,-0.415214,-0.685839,-0.343048,0.077007,-0.029292,0.138142
1042,3073932824,0.489230,-0.415455,-0.685790,-0.343141,0.002066,0.040877,0.126934
1043,3073966158,0.489028,-0.415740,-0.685768,-0.343128,-0.037995,0.073711,0.124495
1044,3073999492,0.488847,-0.415923,-0.685841,-0.343018,-0.021184,0.071729,0.141301
1045,3074032826,0.488840,-0.415855,-0.686007,-0.342779,-0.065943,0.050955,0.147020
1046,3074066160,0.488846,-0.415725,-0.686159,-0.342621,-0.067207,-0.012264,0.117120
1047,3074099494,0.488908,-0.415523,-0.686353,-0.342392,-0.077291,-0.095454,0.092740
1048,3074132828,0.488937,-0.415364,-0.686551,-0.342146,-0.022018,-0.110675,0.116367
1049,3074166162,0.488888,-0.415247,-0.686738,-0.341982,-0.016890,-0.049017,0.091772
1050,3074199496,0.488870,-0.415049,-0.686993,-0.341735,-0.056071,-0.049962,0.141673
1051,3074232830,0.488852,-0.414972,-0.687120,-0.341599,-0.056077,0.031811,0.149796
1052,3074266164,0.488808,-0.414925,-0.687192,-0.341575,-0.032447,0.027149,0.093933
1053,3074299498,0.488766,-0.414785,-0.687323,-0.341542,-0.027221,-0.007692,0.116740
1054,3074332832,0.488707,-0.414714,-0.687438,-0.341480,-0.053863,-0.050786,0.136945
1055,3074366166,0.488648,-0.414657,-0.687514,-0.341483,0.035175,0.027394,0.111352
1056,3074399500,0.488588,-0.414612,-0.687589,-0.341472,-0.014152,0.060889,0.119594
1057,3074432834,0.488521,-0.414631,-0.687630,-0.341463,0.029140,0.042384,0.184396
1058,3074466168,0.488499,-0.414669,-0.687559,-0.341588,0.085166,0.038214,0.126794
1059,3074499502,0.488440,-0.414839,-0.687386,-0.341816,0.037416,0.041888,0.108467
1060,3074532836,0.488336,-0.415135,-0.687157,-0.342065,-0.004455,0.041078,0.140487
1061,3074566170,0.488352,-0.415248,-0.687029,-0.342161,-0.076435,0.107017,0.126448
1062,3074599504,0.488349,-0.415446,-0.686798,-0.342391,-0.091994,0.113677,0.128041
1063,3074632838,0.488264,-0.415643,-0.686684,-0.342500,-0.071535,-0.016139,0.110648
1064,3074666172,0.488117,-0.415718,-0.686776,-0.342435,-0.069222,-0.060895,0.111499
1065,3074699506,0.488159,-0.415527,-0.687033,-0.342090,-0.087040,-0.030028,0.114747
1066,3074732840,0.488161,-0.415450,-0.687177,-0.341892,-0.041563,0.119650,0.154140
1067,3074766174,0.488236,-0.415286,-0.687327,-0.341684,0.050674,0.094993,0.184762
1068,3074799508,0.488477,-0.415024,-0.687364,-0.341581,0.044588,0.023668,0.153723
1069,3074832842,0.488805,-0.414695,-0.687316,-0.341608,0.041041,-0.083788,0.107512
1070,3074866176,0.489125,-0.414565,-0.687066,-0.341812,0.051659,-0.091544,0.101511
1071,3074899510,0.489243,-0.414724,-0.686751,-0.342083,0.156443,-0.088811,0.094861
1072,3074932844,0.489196,-0.415132,-0.686378,-0.342403,0.087104,-0.111567,0.086412
1073,3074966178,0.489326,-0.415183,-0.686271,-0.342371,0.068745,-0.093237,0.112506
1074,3074999512,0.489269,-0.415547,-0.686049,-0.342456,0.011244,-0.019472,0.122433
1075,3075032846,0.489286,-0.415727,-0.685979,-0.342352,-0.077274,0.028007,0.085322
1076,3075066180,0.489222,-0.415924,-0.685980,-0.342203,-0.115709,0.032740,0.139126
1077,3075099514,0.489210,-0.416114,-0.685908,-0.342134,-0.086716,0.121749,0.154768
1078,3075132848,0.489279,-0.416181,-0.685862,-0.342046,-0.077658,0.134168,0.138716
1079,3075166182,0.489323,-0.416282,-0.685757,-0.342070,-0.042966,0.096647,0.128318
1080,3075199516,0.489356,-0.416461,-0.685551,-0.342217,-0.021884,0.017179,0.144037
1081,3075232850,0.489597,-0.416241,-0.685581,-0.342081,0.006209,-0.070146,0.127038
1082,3075266184,0.489666,-0.416251,-0.685561,-0.342011,-0.065756,-0.069405,0.095630
1083,3075299518,0.489645,-0.416372,-0.685533,-0.341949,-0.014972,0.018175,0.118605
1084,3075332852,0.489454,-0.416615,-0.685538,-0.341917,0.018843,0.040410,0.045946
1085,3075366186,0.489443,-0.416441,-0.685917,-0.341383,-0.069937,0.017499,0.277288
1086,3075399520,0.489617,-0.416194,-0.686098,-0.341071,0.046094,0.122040,0.225602
1087,3075432854,0.489924,-0.416106,-0.685929,-0.341078,0.069027,0.156913,0.087323
1088,3075466188,0.489912,-0.416511,-0.685514,-0.341434,-0.028439,0.004718,0.080231
1089,3075499522,0.489913,-0.416828,-0.685223,-0.341632,-0.184988,-0.040313,0.113191
1090,3075532856,0.489967,-0.416832,-0.685198,-0.341598,-0.155953,-0.009527,0.094947
1091,3075566190,0.489942,-0.416760,-0.685387,-0.341342,-0.147371,0.007884,0.122632
1092,3075599524,0.490045,-0.416451,-0.685751,-0.340841,-0.161077,0.067498,0.089411
1093,3075632858,0.490048,-0.416062,-0.686222,-0.340365,-0.025019,0.095411,0.193490
1094,3075666192,0.490508,-0.415174,-0.686774,-0.339671,-0.020296,0.042822,0.146111
1095,3075699526,0.490910,-0.414543,-0.687057,-0.339289,-0.048080,-0.015356,0.064109
1096,3075732860,0.490991,-0.414278,-0.687234,-0.339137,-0.083191,-0.015966,0.027395
1097,3075766194,0.490921,-0.414150,-0.687451,-0.338952,-0.192290,-0.036044,0.257166
1098,3075799528,0.491201,-0.413674,-0.687634,-0.338758,0.046206,0.085437,0.264842
1099,3075832862,0.491818,-0.413019,-0.687465,-0.339005,0.404035,0.041004,0.015620
1100,3075866196,0.492160,-0.412477,-0.687551,-0.338994,0.103713,-0.238914,0.026707
1101,3075899530,0.492068,-0.412654,-0.687466,-0.339087,-0.148543,-0.266626,0.032676
1102,3075932864,0.491998,-0.412703,-0.687559,-0.338938,-0.080492,-0.049775,0.075254
1103,3075966198,0.491895,-0.412452,-0.688081,-0.338334,0.026237,0.043054,0.070802
1104,3075999532,0.491522,-0.412250,-0.688815,-0.337627,-0.031615,-0.048833,0.094683
1105,3076032866,0.490979,-0.412352,-0.689418,-0.337063,-0.027268,0.041568,0.176620
1106,3076066200,0.490782,-0.412086,-0.690085,-0.336308,0.010897,0.137798,0.177015
1107,3076099534,0.490613,-0.412036,-0.690477,-0.335811,0.008469,0.215756,0.168326
1108,3076132868,0.490498,-0.412180,-0.690521,-0.335713,-0.032727,0.258010,0.164064
1109,3076166202,0.490477,-0.412375,-0.690354,-0.335846,-0.072792,0.152232,0.149954
1110,3076199536,0.490521,-0.412456,-0.690184,-0.336032,-0.114949,0.068921,0.237308
1111,3076232870,0.490799,-0.412308,-0.690031,-0.336121,-0.076385,0.026069,0.124181
1112,3076266204,0.491070,-0.412204,-0.689825,-0.336277,0.085272,0.059852,0.117976
1113,3076299538,0.491217,-0.412215,-0.689636,-0.336435,0.098666,0.051171,0.111815
1114,3076332872,0.491331,-0.412381,-0.689357,-0.336638,0.003927,-0.034452,0.088272
1115,3076366206,0.491296,-0.412680,-0.689090,-0.336870,0.008354,-0.091749,0.057263
1116,3076399540,0.491274,-0.412692,-0.689188,-0.336684,-0.023717,-0.144724,0.092762
1117,3076432874,0.491315,-0.412450,-0.689534,-0.336215,-0.080897,-0.096666,0.081809
1118,3076466208,0.491314,-0.411991,-0.690234,-0.335340,-0.095114,0.028771,0.057686
1119,3076499542,0.491026,-0.411752,-0.691065,-0.334343,-0.112988,0.121086,0.120478
1120,3076532876,0.490725,-0.411697,-0.691726,-0.333486,-0.150233,0.195603,0.187633
1121,3076566210,0.490465,-0.411660,-0.692260,-0.332804,-0.142868,0.253092,0.213895
1122,3076599544,0.490377,-0.411533,-0.692696,-0.332182,-0.196499,0.229947,0.125358
1123,3076632878,0.490299,-0.411458,-0.692972,-0.331814,0.034508,0.216856,0.218703
1124,3076666212,0.490479,-0.411460,-0.692834,-0.331834,0.349901,0.188190,0.396818
1125,3076699546,0.491102,-0.411430,-0.692187,-0.332299,-0.033534,0.096001,0.087893
1126,3076732880,0.491340,-0.411833,-0.691423,-0.333040,-0.164191,-0.094121,-0.040895
1127,3076766214,0.491382,-0.412466,-0.690630,-0.333837,-0.025637,-0.133038,0.017236
1128,3076799548,0.491523,-0.412740,-0.690177,-0.334230,-0.021777,-0.169922,0.033218
1129,3076832882,0.491034,-0.413129,-0.690338,-0.334136,-0.073586,-0.493220,-0.285670
1130,3076866216,0.490368,-0.413629,-0.690689,-0.333768,0.303053,0.002995,0.754410
1131,3076899550,0.491222,-0.413029,-0.690624,-0.333389,0.044994,0.227624,0.117284
1132,3076932884,0.491546,-0.412939,-0.690334,-0.333623,-0.108173,0.095701,0.012782
1133,3076966218,0.491442,-0.413493,-0.689873,-0.334044,-0.123094,0.144352,0.049790
1134,3076999552,0.491606,-0.413719,-0.689586,-0.334118,-0.113265,-0.102893,-0.234365
1135,3077032886,0.491173,-0.414235,-0.689557,-0.334173,0.058856,-0.083905,0.527809
1136,3077066220,0.491660,-0.414240,-0.688997,-0.334608,0.289515,0.079296,0.303757
1137,3077099554,0.492371,-0.414148,-0.688222,-0.335268,-0.176374,0.004390,0.058789
1138,3077132888,0.492424,-0.414930,-0.687125,-0.336473,-0.100715,0.044155,0.056645
1139,3077166222,0.493184,-0.414915,-0.686252,-0.337158,-0.082534,0.025361,0.129313
1140,3077199556,0.494045,-0.414498,-0.685586,-0.337766,-0.082361,-0.061823,-0.021072
1141,3077232890,0.494185,-0.414738,-0.684987,-0.338480,0.155504,-0.144969,-0.043925
1142,3077266224,0.494160,-0.415142,-0.684658,-0.338688,0.139150,-0.072183,0.243958
1143,3077299558,0.494319,-0.415272,-0.684360,-0.338897,-0.013227,-0.127530,0.134915
1144,3077332892,0.494433,-0.415432,-0.684024,-0.339213,0.069607,-0.024227,0.281138
1145,3077366226,0.494922,-0.415233,-0.683813,-0.339170,0.019783,0.171315,0.259880
1146,3077399560,0.495856,-0.414355,-0.683848,-0.338808,-0.214676,0.223582,-0.033548
1147,3077432894,0.496351,-0.413667,-0.684049,-0.338518,-0.185873,-0.001614,0.046462
1148,3077466228,0.496863,-0.412927,-0.684400,-0.337961,-0.339628,0.048141,0.179012
1149,3077499562,0.497610,-0.412093,-0.684592,-0.337490,-0.191610,-0.022329,0.183651
1150,3077532896,0.498026,-0.411674,-0.684378,-0.337822,0.071948,-0.013863,0.064755
1151,3077566230,0.498189,-0.411512,-0.684239,-0.338061,0.108272,-0.164089,0.023305
1152,3077599564,0.498162,-0.411705,-0.683926,-0.338499,0.085548,0.018105,0.341620
1153,3077632898,0.498541,-0.411986,-0.683123,-0.339220,0.057539,0.044544,0.046263
1154,3077666232,0.498396,-0.412878,-0.682096,-0.340413,0.233114,0.039470,0.103988
1155,3077699566,0.498123,-0.413884,-0.681138,-0.341507,0.051168,-0.010806,0.199137
1156,3077732900,0.498296,-0.414508,-0.680138,-0.342489,-0.282576,0.073359,0.153575
1157,3077766234,0.498358,-0.415318,-0.678910,-0.343852,-0.026729,0.300180,0.138956
1158,3077799568,0.498324,-0.416148,-0.677789,-0.345106,-0.038512,0.201122,0.121644
1159,3077832902,0.498284,-0.416828,-0.676810,-0.346262,-0.153929,-0.163438,0.017429
1160,3077866236,0.498465,-0.417077,-0.676209,-0.346877,-0.151976,-0.188902,0.241480
1161,3077899570,0.499068,-0.416597,-0.676201,-0.346601,-0.031563,-0.113718,0.044306
1162,3077932904,0.499564,-0.416150,-0.676213,-0.346400,0.049997,0.119212,0.120245
1163,3077966238,0.499846,-0.416006,-0.676023,-0.346538,0.047007,0.147863,0.209125
1164,3077999572,0.500355,-0.415789,-0.675650,-0.346791,0.026793,0.059552,0.154804
1165,3078032906,0.500756,-0.415956,-0.674863,-0.347542,0.144829,0.081412,0.084823
1166,3078066240,0.500677,-0.416768,-0.673953,-0.348448,0.117441,0.067126,0.012752
1167,3078099574,0.500298,-0.417795,-0.673286,-0.349052,-0.101005,0.045540,0.168222
1168,3078132908,0.500209,-0.418516,-0.672627,-0.349586,-0.197234,0.052927,0.278397
1169,3078166242,0.500389,-0.419144,-0.671663,-0.350430,-0.151674,0.098183,0.129010
1170,3078199576,0.500429,-0.419971,-0.670651,-0.351319,0.105047,0.086621,0.038278
1171,3078232910,0.500365,-0.420689,-0.669846,-0.352086,0.028247,-0.040024,0.085830
1172,3078266244,0.500284,-0.420981,-0.669565,-0.352386,-0.299962,-0.214676,-0.020527
1173,3078299578,0.500098,-0.421105,-0.669815,-0.352027,-0.336216,-0.203414,0.033218
1174,3078332912,0.499721,-0.421257,-0.670370,-0.351324,-0.175506,0.083615,0.147126
1175,3078366246,0.499441,-0.421183,-0.671074,-0.350466,-0.015476,0.220554,0.233407
1176,3078399580,0.499382,-0.420928,-0.671535,-0.349972,-0.056264,0.287300,0.217155
1177,3078432914,0.499427,-0.420738,-0.671730,-0.349762,-0.050934,0.135986,0.155539
1178,3078466248,0.499364,-0.420773,-0.671798,-0.349678,0.005569,0.019628,0.076642
1179,3078499582,0.499178,-0.420898,-0.671908,-0.349584,0.055471,-0.054004,0.127185
1180,3078532916,0.499112,-0.420911,-0.672030,-0.349427,-0.012454,-0.016561,0.204200
1181,3078566250,0.499114,-0.420979,-0.672048,-0.349307,-0.010488,0.055926,0.136830
1182,3078599584,0.499077,-0.421080,-0.672076,-0.349185,-0.069254,0.049095,0.139503
1183,3078632918,0.499150,-0.420992,-0.672192,-0.348963,-0.196867,0.026465,0.135698
1184,3078666252,0.499246,-0.420841,-0.672327,-0.348749,-0.158301,0.023410,0.121810
1185,3078699586,0.499393,-0.420543,-0.672570,-0.348428,-0.090741,-0.041376,0.060259
1186,3078732920,0.499335,-0.420251,-0.672984,-0.348065,-0.014359,-0.073339,0.108707
1187,3078766254,0.499401,-0.419842,-0.673437,-0.347586,0.072469,-0.061704,0.159892
1188,3078799588,0.499582,-0.419488,-0.673682,-0.347279,0.088898,0.021656,0.233538
1189,3078832922,0.499751,-0.419319,-0.673680,-0.347243,0.011482,-0.001667,0.128584
1190,3078866256,0.499931,-0.419129,-0.673674,-0.347226,-0.023238,-0.025495,0.031233
1191,3078899590,0.500087,-0.418780,-0.673967,-0.346853,-0.109197,-0.068202,0.109422
1192,3078932924,0.500336,-0.418360,-0.674258,-0.346434,-0.114136,-0.048291,0.110674
1193,3078966258,0.500485,-0.418147,-0.674337,-0.346324,0.009080,-0.036116,0.160264
1194,3078999592,0.500655,-0.417926,-0.674381,-0.346258,0.187573,0.017320,0.155433
1195,3079032926,0.500771,-0.417686,-0.674452,-0.346242,-0.015274,-0.044899,0.079110
1196,3079066260,0.500870,-0.417471,-0.674609,-0.346053,-0.160999,-0.060718,0.095167
1197,3079099594,0.500904,-0.417397,-0.674822,-0.345678,-0.041826,0.023143,0.118593
1198,3079132928,0.500771,-0.417404,-0.675019,-0.345476,0.069990,0.111779,0.219049
1199,3079166262,0.500866,-0.417269,-0.675064,-0.345413,0.014097,0.170455,0.197581
1200,3079199596,0.500932,-0.417394,-0.674796,-0.345692,0.037402,0.086200,0.080148
1201,3079232930,0.500866,-0.417710,-0.674473,-0.346036,0.035793,0.008102,0.102421
1202,3079266264,0.500824,-0.417891,-0.674363,-0.346093,-0.118604,-0.030399,0.119703
1203,3079299598,0.500882,-0.417954,-0.674330,-0.345996,-0.160350,0.076018,0.116913
1204,3079332932,0.500760,-0.418190,-0.674286,-0.345974,-0.062267,0.131953,0.132960
1205,3079366266,0.500651,-0.418402,-0.674251,-0.345944,-0.040164,0.096425,0.156163
1206,3079399600,0.500642,-0.418499,-0.674219,-0.345900,-0.046283,0.002130,0.107949
1207,3079432934,0.500486,-0.418723,-0.674172,-0.345947,-0.046880,-0.065844,0.094447
1208,3079466268,0.500225,-0.419053,-0.674120,-0.346026,-0.022190,0.044783,0.152386
1209,3079499602,0.500099,-0.419253,-0.674100,-0.346005,-0.067113,0.078601,0.139945
1210,3079532936,0.499951,-0.419476,-0.674068,-0.346012,-0.100337,0.016461,0.124472
1211,3079566270,0.499737,-0.419763,-0.674040,-0.346025,-0.060515,-0.010272,0.123339
1212,3079599604,0.499546,-0.419988,-0.674054,-0.346001,-0.033910,0.003797,0.120195
1213,3079632938,0.499318,-0.420239,-0.674051,-0.346030,-0.057766,0.031311,0.117148
1214,3079666272,0.499059,-0.420502,-0.674102,-0.345986,-0.049741,0.051414,0.133925
1215,3079699606,0.498785,-0.420779,-0.674144,-0.345964,-0.043523,0.052839,0.129789
1216,3079732940,0.498454,-0.421132,-0.674108,-0.346082,-0.070111,0.059066,0.099216
1217,3079766274,0.498131,-0.421491,-0.674096,-0.346133,-0.069747,0.006502,0.177078
1218,3079799608,0.497903,-0.421737,-0.674089,-0.346173,-0.025641,0.035456,0.121813
1219,3079832942,0.497677,-0.421991,-0.674002,-0.346360,-0.011903,0.003829,0.127943
1220,3079866276,0.497360,-0.422440,-0.673761,-0.346736,0.040239,-0.011608,0.149370
1221,3079899610,0.497085,-0.422893,-0.673510,-0.347065,0.022158,-0.045064,0.073327
1222,3079932944,0.496775,-0.423232,-0.673419,-0.347273,-0.026859,-0.107156,0.087385
1223,3079966278,0.496526,-0.423428,-0.673513,-0.347206,-0.097779,-0.089184,0.106731
1224,3079999612,0.496324,-0.423498,-0.673751,-0.346950,-0.057860,0.028080,0.095783
1225,3080032946,0.495993,-0.423589,-0.674079,-0.346675,-0.098819,0.086313,0.128042
1226,3080066280,0.495795,-0.423472,-0.674506,-0.346271,-0.121137,0.070905,0.159700
1227,3080099614,0.495684,-0.423220,-0.674989,-0.345796,-0.085451,0.005125,0.135977
1228,3080132948,0.495550,-0.422978,-0.675489,-0.345306,-0.029405,-0.026858,0.099231
1229,3080166282,0.495364,-0.422699,-0.676072,-0.344774,-0.008701,0.003357,0.118404
1230,3080199616,0.495217,-0.422413,-0.676687,-0.344129,-0.086173,0.018333,0.142578
1231,3080232950,0.495140,-0.422185,-0.677159,-0.343589,-0.072366,0.148266,0.183648
1232,3080266284,0.494996,-0.422175,-0.677428,-0.343279,0.009600,0.104579,0.132112
1233,3080299618,0.494832,-0.422218,-0.677650,-0.343024,0.012493,-0.005096,0.124956
1234,3080332952,0.494835,-0.421944,-0.678090,-0.342488,-0.066295,-0.063905,0.125729
1235,3080366286,0.494931,-0.421692,-0.678489,-0.341867,-0.036205,-0.067724,0.091783
1236,3080399620,0.494916,-0.421458,-0.678962,-0.341239,0.060321,0.000134,0.081136
1237,3080432954,0.495062,-0.420962,-0.679657,-0.340256,-0.005039,-0.064712,0.151848
1238,3080466288,0.495347,-0.420253,-0.680433,-0.339163,-0.012349,-0.041134,0.094361
1239,3080499622,0.495395,-0.419692,-0.681204,-0.338240,-0.013741,-0.014663,0.094236
1240,3080532956,0.495590,-0.418934,-0.682113,-0.337059,-0.007703,0.008479,0.151973
1241,3080566290,0.495741,-0.418251,-0.682942,-0.336005,-0.042810,0.015784,0.124167
1242,3080599624,0.495783,-0.417675,-0.683706,-0.335106,-0.040591,-0.002660,0.113555
1243,3080632958,0.495871,-0.417063,-0.684446,-0.334226,-0.011893,0.032326,0.127846
1244,3080666292,0.495917,-0.416564,-0.685086,-0.333467,-0.041131,0.056248,0.126225
1245,3080699626,0.495929,-0.416176,-0.685634,-0.332807,-0.049085,0.032826,0.126642
1246,3080732960,0.495958,-0.415836,-0.686105,-0.332218,0.020054,0.037557,0.116554
1247,3080766294,0.495977,-0.415545,-0.686543,-0.331649,0.019153,-0.051693,0.133375
1248,3080799628,0.495971,-0.415348,-0.686882,-0.331200,-0.017601,-0.046755,0.127327
1249,3080832962,0.495978,-0.415173,-0.687211,-0.330728,-0.049406,0.024305,0.116485
1250,3080866296,0.495984,-0.414996,-0.687540,-0.330256,-0.107562,0.033830,0.134602
1251,3080899630,0.496031,-0.414786,-0.687874,-0.329754,-0.131743,0.024541,0.130953
1252,3080932964,0.496075,-0.414581,-0.688131,-0.329410,-0.150409,0.102089,0.175113
1253,3080966298,0.496291,-0.414213,-0.688430,-0.328922,-0.073551,0.027691,0.170116
1254,3080999632,0.496537,-0.413837,-0.688633,-0.328599,-0.012218,0.055983,0.127052
1255,3081032966,0.496810,-0.413485,-0.688736,-0.328413,-0.011035,0.023278,0.149886
1256,3081066300,0.497054,-0.413253,-0.688705,-0.328401,-0.010458,0.041220,0.127506
1257,3081099634,0.497239,-0.413171,-0.688595,-0.328453,-0.027141,0.025455,0.097803
1258,3081132968,0.497236,-0.413234,-0.688447,-0.328689,0.001263,0.026630,0.106144
1259,3081166302,0.497256,-0.413177,-0.688414,-0.328801,-0.071181,-0.003166,0.157723
1260,3081199636,0.497371,-0.412988,-0.688450,-0.328787,-0.039067,-0.032095,0.109291
1261,3081232970,0.497354,-0.412877,-0.688536,-0.328773,-0.003844,-0.040284,0.101007
1262,3081266304,0.497339,-0.412721,-0.688669,-0.328715,0.040065,-0.043427,0.108309
1263,3081299638,0.497315,-0.412583,-0.688808,-0.328631,0.031246,-0.044562,0.118457
1264,3081332972,0.497261,-0.412525,-0.688892,-0.328610,0.034162,-0.017430,0.151430
1265,3081366306,0.497247,-0.412509,-0.688899,-0.328638,0.040397,0.014844,0.135403
1266,3081399640,0.497247,-0.412572,-0.688814,-0.328737,0.047561,0.008035,0.133846
1267,3081432974,0.497164,-0.412727,-0.688720,-0.328865,0.021943,-0.000785,0.088381
1268,3081466308,0.497007,-0.412943,-0.688638,-0.329002,0.133986,-0.002745,0.153689
1269,3081499642,0.497038,-0.413067,-0.688501,-0.329084,0.061078,0.015316,0.178189
1270,3081532976,0.497172,-0.413194,-0.688302,-0.329141,-0.069401,0.039010,0.115611
1271,3081566310,0.497088,-0.413518,-0.688054,-0.329380,-0.120230,0.130625,0.132999
1272,3081599644,0.497187,-0.413623,-0.687915,-0.329389,-0.133381,0.055819,0.136006
1273,3081632978,0.497361,-0.413559,-0.687865,-0.329310,-0.141922,-0.035492,0.037680
1274,3081666312,0.497378,-0.413392,-0.688085,-0.329034,-0.080557,-0.106756,0.160601
1275,3081699646,0.497601,-0.412895,-0.688442,-0.328575,0.038725,-0.074025,0.122732
1276,3081732980,0.497870,-0.412415,-0.688748,-0.328128,0.225375,-0.045252,0.120703
1277,3081766314,0.498149,-0.411991,-0.689029,-0.327647,0.133059,-0.005929,0.228905
1278,3081799648,0.498551,-0.411539,-0.689212,-0.327218,-0.179872,0.043987,0.080763
1279,3081832982,0.498643,-0.411450,-0.689300,-0.327006,-0.176842,0.144682,0.125493
1280,3081866316,0.498902,-0.411266,-0.689351,-0.326733,-0.194475,0.140090,0.151905
1281,3081899650,0.499068,-0.411035,-0.689428,-0.326607,-0.090163,0.029254,0.105873
1282,3081932984,0.499131,-0.410688,-0.689659,-0.326460,-0.071645,-0.080878,0.130594
1283,3081966318,0.499285,-0.410276,-0.689826,-0.326392,-0.090515,-0.048653,0.213843
1284,3081999652,0.499562,-0.409850,-0.689861,-0.326428,-0.051622,0.107750,0.122037
1285,3082032986,0.499734,-0.409516,-0.689915,-0.326469,-0.049352,0.133015,0.104722
1286,3082066320,0.499932,-0.409024,-0.690123,-0.326345,-0.181616,0.048688,0.115430
1287,3082099654,0.500264,-0.408246,-0.690505,-0.326000,-0.250124,0.004597,0.185159
1288,3082132988,0.500714,-0.407215,-0.691061,-0.325421,-0.215035,-0.076420,0.064948
1289,3082166322,0.501137,-0.406182,-0.691575,-0.324967,0.136399,-0.040894,0.159164
1290,3082199656,0.501787,-0.404935,-0.692078,-0.324450,0.206859,-0.071467,0.129874
1291,3082232990,0.502400,-0.403721,-0.692508,-0.324097,0.093328,-0.259527,0.079605
1292,3082266324,0.502816,-0.402833,-0.692721,-0.324102,0.088920,-0.095928,0.089151
1293,3082299658,0.503219,-0.402123,-0.692896,-0.323983,0.079374,-0.072281,0.094725
1294,3082332992,0.503443,-0.401683,-0.693001,-0.323957,0.003748,0.015588,0.158786
1295,3082366326,0.503670,-0.401473,-0.692825,-0.324240,0.010386,0.082401,0.167585
1296,3082399660,0.503850,-0.401624,-0.692310,-0.324875,-0.045708,0.099698,0.092022
1297,3082432994,0.503815,-0.401948,-0.691785,-0.325644,-0.067053,-0.048633,0.072275
1298,3082466328,0.503836,-0.402037,-0.691425,-0.326266,-0.090750,-0.076825,0.147111
1299,3082499662,0.503906,-0.402041,-0.691065,-0.326914,0.007868,-0.028888,0.069953
1300,3082532996,0.503732,-0.402136,-0.690860,-0.327501,-0.039925,-0.009351,0.079823
1301,3082566330,0.503430,-0.402166,-0.690931,-0.327777,-0.090222,0.071348,0.110139
1302,3082599664,0.503219,-0.401923,-0.691293,-0.327636,-0.121691,0.178632,0.104736
1303,3082632998,0.502945,-0.401692,-0.691775,-0.327322,-0.136365,0.194850,0.125348
1304,3082666332,0.502603,-0.401643,-0.692122,-0.327174,-0.091515,0.194500,0.191170
1305,3082699666,0.502384,-0.401550,-0.692407,-0.327022,-0.016920,0.219904,0.188604
1306,3082733000,0.502245,-0.401365,-0.692686,-0.326872,-0.039911,0.127783,0.161132
1307,3082766334,0.502138,-0.401181,-0.692946,-0.326709,-0.049699,0.024193,0.120978
1308,3082799668,0.501973,-0.401125,-0.693168,-0.326559,0.040423,0.017629,0.094276
1309,3082833002,0.501629,-0.401330,-0.693285,-0.326591,0.057226,0.039398,0.085155
1310,3082866336,0.501210,-0.401607,-0.693401,-0.326646,0.042958,-0.008944,0.111507
1311,3082899670,0.500833,-0.401772,-0.693564,-0.326675,0.003142,0.008726,0.162314
1312,3082933004,0.500539,-0.401844,-0.693730,-0.326684,-0.000753,-0.020213,0.132609
1313,3082966338,0.500297,-0.402055,-0.693751,-0.326750,-0.025923,0.016175,0.135206
1314,3082999672,0.500012,-0.402440,-0.693620,-0.326991,0.072305,0.150565,0.146265
1315,3083033006,0.499741,-0.402835,-0.693490,-0.327197,0.051896,0.056395,0.107807
1316,3083066340,0.499609,-0.403058,-0.693473,-0.327160,-0.022255,-0.114676,0.117345
1317,3083099674,0.499566,-0.403200,-0.693492,-0.327009,-0.061538,-0.034144,0.142494
1318,3083133008,0.499427,-0.403339,-0.693554,-0.326918,-0.002474,0.050326,0.103918
1319,3083166342,0.499248,-0.403436,-0.693716,-0.326728,-0.038847,0.022214,0.099434
1320,3083199676,0.499105,-0.403465,-0.693938,-0.326439,-0.041606,-0.048767,0.130249
1321,3083233010,0.498912,-0.403554,-0.694144,-0.326186,-0.039417,-0.022162,0.116427
1322,3083266344,0.498651,-0.403715,-0.694326,-0.325999,-0.002751,0.019573,0.137223
1323,3083299678,0.498459,-0.403845,-0.694507,-0.325746,-0.031863,0.067596,0.166354
1324,3083333012,0.498284,-0.403978,-0.694640,-0.325565,-0.078190,0.084160,0.143974
1325,3083366346,0.498102,-0.404132,-0.694742,-0.325435,-0.070184,0.034959,0.118721
1326,3083399680,0.497916,-0.404287,-0.694827,-0.325346,-0.064511,0.039969,0.154945
1327,3083433014,0.497759,-0.404463,-0.694840,-0.325338,-0.001420,0.051350,0.155084
1328,3083466348,0.497635,-0.404619,-0.694808,-0.325403,-0.061816,0.058884,0.121925
1329,3083499682,0.497452,-0.404831,-0.694709,-0.325630,-0.073526,0.020113,0.151990
1330,3083533016,0.497302,-0.405051,-0.694580,-0.325862,-0.059258,0.001327,0.122491
1331,3083566350,0.497125,-0.405308,-0.694428,-0.326135,-0.026409,-0.045259,0.114145
1332,3083599684,0.496945,-0.405623,-0.694214,-0.326474,-0.028011,-0.015464,0.130592
1333,3083633018,0.496765,-0.406061,-0.693860,-0.326955,0.013112,0.016562,0.162248
1334,3083666352,0.496647,-0.406469,-0.693419,-0.327563,0.055094,0.057126,0.112037
1335,3083699686,0.496546,-0.406840,-0.693032,-0.328073,0.033496,-0.043973,0.124692
1336,3083733020,0.496428,-0.407216,-0.692672,-0.328545,0.030971,-0.074557,0.097259
1337,3083766354,0.496222,-0.407589,-0.692424,-0.328916,-0.001599,-0.075269,0.077173
1338,3083799688,0.495986,-0.407881,-0.692361,-0.329044,-0.009268,-0.076923,0.106259
1339,3083833022,0.495844,-0.407957,-0.692477,-0.328920,-0.011380,-0.034971,0.145397
1340,3083866356,0.495781,-0.407887,-0.692635,-0.328768,0.015848,0.010685,0.116538
1341,3083899690,0.495736,-0.407744,-0.692921,-0.328409,-0.032255,-0.055701,0.113338
1342,3083933024,0.495638,-0.407696,-0.693090,-0.328262,-0.019906,0.024459,0.122685
1343,3083966358,0.495597,-0.407584,-0.693259,-0.328105,-0.013924,0.074261,0.140841
1344,3083999692,0.495614,-0.407494,-0.693384,-0.327926,-0.039043,0.025011,0.133122
1345,3084033026,0.495585,-0.407505,-0.693411,-0.327900,-0.013830,0.026166,0.145509
1346,3084066360,0.495544,-0.407558,-0.693369,-0.327986,-0.009653,0.032679,0.114092
1347,3084099694,0.495542,-0.407524,-0.693415,-0.327932,-0.039334,-0.026175,0.138105
1348,3084133028,0.495598,-0.407530,-0.693390,-0.327894,-0.004427,0.001158,0.142672
1349,3084166362,0.495636,-0.407555,-0.693317,-0.327960,0.002101,0.049639,0.133845
1350,3084199696,0.495694,-0.407589,-0.693253,-0.327965,-0.020312,0.023006,0.087250
1351,3084233030,0.495752,-0.407570,-0.693269,-0.327866,-0.050357,-0.048730,0.147326
1352,3084266364,0.495879,-0.407527,-0.693228,-0.327816,-0.033212,0.042735,0.138027
1353,3084299698,0.495996,-0.407437,-0.693197,-0.327815,-0.037109,0.056573,0.131655
1354,3084333032,0.496046,-0.407446,-0.693148,-0.327834,-0.058991,0.005925,0.136505
1355,3084366366,0.496162,-0.407332,-0.693175,-0.327741,-0.048107,-0.035483,0.137153
1356,3084399700,0.496351,-0.407051,-0.693267,-0.327610,-0.011211,-0.016095,0.110069
1357,3084433034,0.496579,-0.406695,-0.693402,-0.327422,-0.015807,-0.064348,0.114433
1358,3084466368,0.496805,-0.406350,-0.693562,-0.327167,-0.014728,-0.029748,0.133629
1359,3084499702,0.496935,-0.406212,-0.693579,-0.327105,0.012429,0.014189,0.125547
1360,3084533036,0.497121,-0.405982,-0.693612,-0.327038,-0.000595,-0.017874,0.147805
1361,3084566370,0.497353,-0.405746,-0.693617,-0.326966,-0.008961,-0.008356,0.132035
1362,3084599704,0.497565,-0.405628,-0.693506,-0.327027,0.008374,-0.039608,0.145722
1363,3084633038,0.497772,-0.405494,-0.693422,-0.327056,0.022440,-0.040304,0.125327
1364,3084666372,0.497927,-0.405481,-0.693274,-0.327152,0.021904,-0.045796,0.115498
1365,3084699706,0.498091,-0.405449,-0.693118,-0.327271,0.048305,-0.049004,0.139968
1366,3084733040,0.498299,-0.405464,-0.692905,-0.327387,0.011938,0.006582,0.120348
1367,3084766374,0.498482,-0.405519,-0.692644,-0.327591,0.070354,0.036072,0.135796
1368,3084799708,0.498658,-0.405584,-0.692371,-0.327820,0.022142,0.019096,0.116733
1369,3084833042,0.498789,-0.405758,-0.692043,-0.328098,0.016157,-0.027938,0.123928
1370,3084866376,0.498932,-0.405884,-0.691752,-0.328339,0.025137,0.002555,0.127736
1371,3084899710,0.499045,-0.405992,-0.691459,-0.328650,0.013859,0.014560,0.129527
1372,3084933044,0.499178,-0.406135,-0.691125,-0.328975,0.012998,0.039768,0.132995
1373,3084966378,0.499317,-0.406352,-0.690740,-0.329306,-0.069965,0.012503,0.114116
1374,3084999712,0.499490,-0.406486,-0.690381,-0.329629,-0.085420,0.010159,0.158048
1375,3085033046,0.499873,-0.406400,-0.690105,-0.329732,-0.043439,0.035705,0.151405
1376,3085066380,0.500233,-0.406360,-0.689738,-0.330004,0.001504,0.041434,0.103944
1377,3085099714,0.500457,-0.406447,-0.689348,-0.330373,-0.024124,-0.000153,0.144608
1378,3085133048,0.500788,-0.406422,-0.688973,-0.330683,-0.102609,0.038372,0.134888
1379,3085166382,0.501088,-0.406415,-0.688572,-0.331071,-0.138764,0.004662,0.167119
1380,3085199716,0.501534,-0.406187,-0.688269,-0.331307,-0.027464,-0.009080,0.090332
1381,3085233050,0.501953,-0.406014,-0.687945,-0.331556,0.060161,-0.051822,0.106631
1382,3085266384,0.502349,-0.405882,-0.687613,-0.331806,-0.013045,-0.109381,0.094622
1383,3085299718,0.502852,-0.405548,-0.687486,-0.331717,0.056634,-0.099951,0.043335
1384,3085333052,0.503198,-0.405140,-0.687627,-0.331397,0.027757,-0.151631,0.054116
1385,3085366386,0.503417,-0.404702,-0.687986,-0.330856,-0.074423,-0.121549,0.119607
1386,3085399720,0.503540,-0.404367,-0.688366,-0.330287,-0.044780,0.041059,0.122706
1387,3085433054,0.503618,-0.404130,-0.688681,-0.329802,-0.047986,0.147399,0.185566
1388,3085466388,0.503733,-0.404046,-0.688768,-0.329548,-0.100873,0.192066,0.179782
1389,3085499722,0.503878,-0.404062,-0.688640,-0.329574,-0.075845,0.216276,0.206344
1390,3085533056,0.504223,-0.403834,-0.688545,-0.329523,-0.065329,0.190591,0.168029
1391,3085566390,0.504469,-0.403933,-0.688163,-0.329824,-0.064606,0.113118,0.172263
1392,3085599724,0.504863,-0.403866,-0.687877,-0.329899,-0.047354,0.097310,0.141597
1393,3085633058,0.505409,-0.403514,-0.687746,-0.329766,-0.031496,0.129434,0.144204
1394,3085666392,0.505827,-0.403348,-0.687480,-0.329885,-0.047336,0.037818,0.140844
1395,3085699726,0.506511,-0.402749,-0.687439,-0.329652,-0.090122,-0.078068,0.110269
1396,3085733060,0.507128,-0.402214,-0.687417,-0.329403,0.020609,-0.080625,0.074600
1397,3085766394,0.507694,-0.401564,-0.687607,-0.328926,0.018217,-0.164013,0.060538
1398,3085799728,0.508196,-0.400797,-0.688022,-0.328219,-0.048251,-0.175179,0.092715
1399,3085833062,0.508788,-0.399799,-0.688604,-0.327296,-0.040616,-0.050351,0.122587
1400,3085866396,0.509005,-0.399328,-0.688910,-0.326888,0.041990,0.141470,0.137359
1401,3085899730,0.509242,-0.399014,-0.689060,-0.326587,-0.044860,0.175282,0.137133
1402,3085933064,0.509529,-0.398757,-0.689091,-0.326388,-0.123018,0.096698,0.148549
1403,3085966398,0.509822,-0.398457,-0.689151,-0.326170,-0.051306,-0.027631,0.113936
1404,3085999732,0.510054,-0.398222,-0.689219,-0.325952,0.055929,-0.048796,0.071861
1405,3086033066,0.510155,-0.398061,-0.689414,-0.325576,0.043457,-0.191378,0.040251
1406,3086066400,0.510219,-0.397937,-0.689613,-0.325206,0.037079,-0.106146,0.123544
1407,3086099734,0.510277,-0.397667,-0.689951,-0.324729,0.038151,-0.097812,0.079895
1408,3086133068,0.510349,-0.397283,-0.690385,-0.324161,-0.029638,-0.053212,0.153550
1409,3086166402,0.510347,-0.396981,-0.690785,-0.323683,-0.046684,0.069350,0.152658
1410,3086199736,0.510449,-0.396597,-0.691091,-0.323339,-0.027483,0.080818,0.155645
1411,3086233070,0.510468,-0.396289,-0.691370,-0.323090,-0.113481,0.067021,0.143596
1412,3086266404,0.510584,-0.395937,-0.691607,-0.322833,-0.123183,0.000922,0.137362
1413,3086299738,0.510732,-0.395551,-0.691792,-0.322674,-0.047837,-0.020939,0.120612
1414,3086333072,0.510766,-0.395170,-0.692063,-0.322507,-0.016942,-0.067329,0.116422
1415,3086366406,0.510882,-0.394600,-0.692476,-0.322134,-0.066753,-0.051333,0.120779
1416,3086399740,0.510954,-0.394122,-0.692840,-0.321822,-0.072401,0.019176,0.105324
1417,3086433074,0.510806,-0.394021,-0.693028,-0.321775,-0.037676,0.085148,0.157136
1418,3086466408,0.510620,-0.394036,-0.693125,-0.321843,-0.072450,0.131878,0.157740
1419,3086499742,0.510512,-0.394076,-0.693093,-0.322034,-0.112263,0.174065,0.175102
1420,3086533076,0.510317,-0.394342,-0.692869,-0.322501,-0.092275,0.130958,0.165133
1421,3086566410,0.510076,-0.394739,-0.692522,-0.323140,-0.077496,0.086511,0.114770
1422,3086599744,0.509816,-0.395175,-0.692132,-0.323850,-0.077100,0.070549,0.150231
1423,3086633078,0.509508,-0.395679,-0.691694,-0.324657,-0.070271,0.108464,0.142723
1424,3086666412,0.509196,-0.396197,-0.691270,-0.325415,-0.091101,0.103337,0.133146
1425,3086699746,0.508922,-0.396661,-0.690902,-0.326062,-0.038411,0.069067,0.134169
1426,3086733080,0.508704,-0.396987,-0.690625,-0.326588,-0.030559,-0.001799,0.106158
1427,3086766414,0.508286,-0.397449,-0.690380,-0.327196,-0.017002,-0.048990,0.120384
1428,3086799748,0.507890,-0.397835,-0.690233,-0.327651,-0.010648,-0.060429,0.115518
1429,3086833082,0.507472,-0.398227,-0.690067,-0.328173,0.055844,-0.031156,0.110022
1430,3086866416,0.506882,-0.398846,-0.689799,-0.328895,-0.021055,-0.039454,0.124488
1431,3086899750,0.506373,-0.399428,-0.689525,-0.329548,-0.051677,0.000878,0.149522
1432,3086933084,0.505987,-0.399946,-0.689190,-0.330212,0.020029,0.109545,0.144762
1433,3086966418,0.505646,-0.400376,-0.688903,-0.330811,0.046374,0.075693,0.103338
1434,3086999752,0.505097,-0.401159,-0.688453,-0.331637,-0.017535,-0.001364,0.132025
1435,3087033086,0.504579,-0.401980,-0.687988,-0.332395,-0.006292,0.028472,0.166926
1436,3087066420,0.504080,-0.402707,-0.687572,-0.333133,0.020916,0.082411,0.100145
1437,3087099754,0.503630,-0.403280,-0.687291,-0.333701,0.004188,0.010549,0.128900
1438,3087133088,0.503245,-0.403848,-0.687036,-0.334119,-0.011036,0.054893,0.139448
1439,3087166422,0.502816,-0.404420,-0.686803,-0.334551,-0.008300,0.056844,0.121124
1440,3087199756,0.502303,-0.405159,-0.686494,-0.335062,-0.075363,0.040854,0.127697
1441,3087233090,0.502114,-0.405333,-0.686529,-0.335064,0.008260,0.016585,0.125610
1442,3087266424,0.501817,-0.405573,-0.686599,-0.335074,0.009565,-0.068001,0.120086
1443,3087299758,0.501690,-0.405453,-0.686925,-0.334740,0.028143,-0.069230,0.121614
1444,3087333092,0.501413,-0.405589,-0.687114,-0.334602,0.073126,-0.027869,0.098714
1445,3087366426,0.501046,-0.405830,-0.687233,-0.334617,-0.000216,0.010193,0.147531
1446,3087399760,0.500838,-0.406120,-0.687278,-0.334483,-0.031475,-0.028087,0.142341
1447,3087433094,0.500710,-0.406468,-0.687119,-0.334579,-0.013554,0.064239,0.140129
1448,3087466428,0.500771,-0.406329,-0.687249,-0.334388,0.048627,0.059244,0.144091
1449,3087499762,0.500819,-0.406345,-0.687227,-0.334342,-0.051670,-0.000753,0.108720
1450,3087533096,0.500747,-0.406558,-0.687112,-0.334428,-0.042427,0.008327,0.110555
1451,3087566430,0.500548,-0.406940,-0.686967,-0.334559,-0.066553,-0.008083,0.131804
1452,3087599764,0.500405,-0.407237,-0.686881,-0.334590,-0.057453,0.008790,0.145992
1453,3087633098,0.500295,-0.407441,-0.686823,-0.334624,-0.050431,0.088268,0.143906
