sep=,
DeviceTag:,23_Right
FirmwareVersion:,2.2.1
AppVersion:,2023.6.0
SyncStatus:,Synced
OutputRate:,30Hz
FilterProfile:,General
Measurement Mode:,Sensor fusion Mode - Complete(Quaternion)
StartTime: ,2026-05-01_14:41:30_594 AEST
© Movella Technologies B. V. 2005-2026

PacketCounter,SampleTimeFine,Quat_W,Quat_X,Quat_Y,Quat_Z,FreeAcc_X,FreeAcc_Y,FreeAcc_Z
1,2312979094,-0.471997,0.425091,0.415410,-0.651115,-0.454627,0.089540,-0.126363
2,2313012428,-0.476932,0.420789,0.419473,-0.647699,-0.474843,0.008722,-0.101812
3,2313045762,-0.481510,0.415004,0.424706,-0.644627,-0.383066,0.294370,-0.422939
4,2313079096,-0.486315,0.410591,0.429411,-0.640716,-0.259981,0.047257,-0.193827
5,2313112430,-0.490972,0.407555,0.433104,-0.636604,-0.333372,-0.016193,-0.060987
6,2313145764,-0.494953,0.405836,0.435571,-0.632926,-0.259205,-0.220883,0.061053
7,2313179098,-0.497613,0.404901,0.437171,-0.630332,-0.238905,-0.396122,0.055513
8,2313212432,-0.498525,0.404223,0.438264,-0.629285,-0.308311,-0.512753,-0.043048
9,2313245766,-0.497814,0.403891,0.438878,-0.629634,-0.336781,-0.569274,-0.147997
10,2313279100,-0.495785,0.403841,0.439124,-0.631093,-0.379142,-0.585703,-0.092453
11,2313312434,-0.492852,0.403871,0.439119,-0.633371,-0.404186,-0.524024,0.162653
12,2313345768,-0.489510,0.404052,0.438807,-0.636057,-0.422637,-0.434494,0.345565
13,2313379102,-0.486050,0.404523,0.438087,-0.638901,-0.490130,-0.325227,0.369619
14,2313412436,-0.482382,0.405599,0.436938,-0.641780,-0.506770,-0.333097,0.319044
15,2313445770,-0.477931,0.406526,0.436038,-0.645126,-0.520655,-0.317623,0.209614
16,2313479104,-0.472343,0.406314,0.436138,-0.649294,-0.486214,-0.330085,0.145476
17,2313512438,-0.465732,0.404269,0.437609,-0.654338,-0.585227,-0.250422,0.094768
18,2313545772,-0.458637,0.400638,0.440198,-0.659822,-0.553035,-0.198022,0.185403
19,2313579106,-0.451505,0.395436,0.443752,-0.665475,-0.543270,-0.147214,0.380244
20,2313612440,-0.444933,0.388842,0.447699,-0.671119,-0.542789,-0.061706,0.384233
21,2313645774,-0.439503,0.381728,0.451370,-0.676303,-0.396828,-0.020159,0.168105
22,2313679108,-0.435351,0.374434,0.454618,-0.680875,-0.204702,-0.082130,0.110899
23,2313712442,-0.432366,0.366694,0.457607,-0.684975,-0.021765,-0.091540,0.037230
24,2313745776,-0.430421,0.358573,0.460318,-0.688672,0.182895,-0.052253,0.018584
25,2313779110,-0.429564,0.350604,0.462487,-0.691850,0.355738,0.052339,0.009881
26,2313812444,-0.429956,0.343467,0.463756,-0.694333,0.483421,0.072055,0.026390
27,2313845778,-0.431635,0.337514,0.463932,-0.696090,0.657718,0.072656,0.005395
28,2313879112,-0.434417,0.333017,0.462865,-0.697235,0.796028,0.127980,-0.016650
29,2313912446,-0.438331,0.330435,0.460492,-0.697585,0.938939,0.216846,0.051324
30,2313945780,-0.443275,0.330204,0.456623,-0.697113,0.947297,0.250795,-0.159790
31,2313979114,-0.449030,0.332639,0.451530,-0.695588,1.140994,0.227970,-0.215502
32,2314012448,-0.454789,0.336894,0.446063,-0.693322,1.264575,0.149719,-0.174812
33,2314045782,-0.459455,0.341587,0.441450,-0.690898,1.365849,0.072938,-0.062120
34,2314079116,-0.461952,0.345444,0.438780,-0.689015,1.350508,-0.001256,-0.027408
35,2314112450,-0.461473,0.347655,0.438641,-0.688311,1.220382,-0.041322,-0.080934
36,2314145784,-0.458153,0.348562,0.440640,-0.688792,1.050331,0.026691,-0.092579
37,2314179118,-0.452826,0.349065,0.443889,-0.689974,0.786016,0.036466,-0.058604
38,2314212452,-0.446261,0.349795,0.447660,-0.691443,0.590445,0.012282,0.000813
39,2314245786,-0.438946,0.350766,0.451636,-0.693046,0.373695,-0.036704,0.051673
40,2314279120,-0.431291,0.351915,0.455616,-0.694664,0.195020,-0.029513,0.133740
41,2314312454,-0.423715,0.353247,0.459357,-0.696184,-0.018796,-0.019765,0.213328
42,2314345788,-0.416568,0.354979,0.462620,-0.697455,-0.218159,-0.034134,0.231341
43,2314379122,-0.409998,0.357455,0.465259,-0.698327,-0.391198,-0.072096,0.209959
44,2314412456,-0.403936,0.360349,0.467505,-0.698873,-0.542652,-0.168067,0.264953
45,2314445790,-0.398264,0.362913,0.469679,-0.699343,-0.691434,-0.242699,0.180046
46,2314479124,-0.393097,0.364875,0.471876,-0.699766,-0.779208,-0.291609,0.006009
47,2314512458,-0.388594,0.365961,0.474202,-0.700142,-0.871620,-0.356228,-0.031579
48,2314545792,-0.385093,0.365915,0.476692,-0.700410,-0.917049,-0.346960,0.022600
49,2314579126,-0.383321,0.364898,0.478946,-0.700375,-1.099713,-0.286344,0.057336
50,2314612460,-0.384608,0.364671,0.479647,-0.699307,-1.213535,-0.219878,0.086935
51,2314645794,-0.388567,0.365468,0.478812,-0.697271,-0.705213,-0.408742,0.204174
52,2314679128,-0.393336,0.364790,0.478194,-0.695374,-0.601697,-0.350952,0.314703
53,2314712462,-0.398816,0.363615,0.477390,-0.693417,-0.482318,-0.232571,0.416922
54,2314745796,-0.404706,0.362276,0.475932,-0.691705,-0.399851,-0.268923,0.339474
55,2314779130,-0.410833,0.361330,0.473436,-0.690300,-0.299703,-0.204284,0.078184
56,2314812464,-0.417076,0.361493,0.469946,-0.688854,-0.129955,-0.212626,0.151932
57,2314845798,-0.423194,0.361821,0.466144,-0.687532,0.034832,-0.276503,0.218763
58,2314879132,-0.429097,0.361579,0.462465,-0.686485,0.169636,-0.190042,0.083790
59,2314912466,-0.434793,0.361339,0.458785,-0.685496,0.259774,-0.057546,-0.048436
60,2314945800,-0.440238,0.361801,0.454976,-0.684314,0.366194,-0.051679,-0.105602
61,2314979134,-0.445179,0.362844,0.451291,-0.683004,0.474580,-0.086242,-0.132429
62,2315012468,-0.449007,0.363588,0.448479,-0.681954,0.600807,-0.134566,-0.074857
63,2315045802,-0.451345,0.363213,0.447051,-0.681548,0.665986,-0.144237,-0.017195
64,2315079136,-0.452193,0.361814,0.446932,-0.681809,0.664679,-0.046850,0.066494
65,2315112470,-0.451955,0.360332,0.447514,-0.682370,0.603188,0.061907,0.132435
66,2315145804,-0.451156,0.359839,0.448030,-0.682819,0.517173,0.058804,0.119994
67,2315179138,-0.449871,0.360335,0.448436,-0.683139,0.453366,-0.028163,0.120575
68,2315212472,-0.447916,0.361059,0.449037,-0.683647,0.383508,-0.117425,0.061749
69,2315245806,-0.445219,0.361347,0.450145,-0.684527,0.301487,-0.142649,0.019708
70,2315279140,-0.441938,0.360913,0.451811,-0.685784,0.200016,-0.171474,-0.010232
71,2315312474,-0.438448,0.359856,0.453828,-0.687245,0.104116,-0.159755,0.021449
72,2315345808,-0.435216,0.358494,0.455867,-0.688660,0.026535,-0.112208,0.082817
73,2315379142,-0.432674,0.357236,0.457471,-0.689851,-0.042796,-0.078203,0.143051
74,2315412476,-0.431197,0.356581,0.458239,-0.690605,-0.083115,-0.009641,0.240567
75,2315445810,-0.430866,0.356831,0.458031,-0.690821,-0.094877,-0.015032,0.273603
76,2315479144,-0.431264,0.357847,0.457085,-0.690673,-0.076187,-0.019678,0.250263
77,2315512478,-0.431635,0.358967,0.455988,-0.690585,-0.064407,-0.068893,0.270944
78,2315545812,-0.431457,0.359487,0.455364,-0.690837,-0.047709,-0.083627,0.227277
79,2315579146,-0.430561,0.358911,0.455627,-0.691522,-0.064610,-0.118183,0.149860
80,2315612480,-0.429166,0.357261,0.456672,-0.692554,-0.119284,-0.088195,-0.015003
81,2315645814,-0.427783,0.355231,0.457996,-0.693578,-0.140374,-0.017355,-0.189182
82,2315679148,-0.426807,0.353723,0.459090,-0.694227,-0.125185,-0.014411,-0.323957
83,2315712482,-0.426382,0.352931,0.459880,-0.694369,-0.081570,0.002108,-0.430761
84,2315745816,-0.426336,0.352711,0.460643,-0.694002,0.051835,-0.030784,-0.377193
85,2315779150,-0.426398,0.352483,0.461795,-0.693314,0.142316,-0.045365,-0.075315
86,2315812484,-0.426263,0.351738,0.463420,-0.692691,0.181795,0.008199,0.127547
87,2315845818,-0.425614,0.350870,0.465014,-0.692462,0.091392,0.074832,0.261640
88,2315879152,-0.424308,0.351021,0.465657,-0.692755,-0.005753,0.226268,0.107009
89,2315912486,-0.422380,0.353106,0.464984,-0.693325,-0.080042,0.246971,0.089682
90,2315945820,-0.419863,0.356651,0.463445,-0.694070,-0.136821,0.253752,0.147466
91,2315979154,-0.416872,0.360627,0.461834,-0.694891,-0.186093,0.295945,0.181949
92,2316012488,-0.413522,0.364221,0.460784,-0.695715,-0.271414,0.258006,0.245116
93,2316045822,-0.409610,0.366716,0.460696,-0.696777,-0.407462,0.209380,0.124898
94,2316079156,-0.404982,0.367901,0.461591,-0.698263,-0.510792,0.137052,-0.071724
95,2316112490,-0.399790,0.367590,0.463370,-0.700238,-0.589354,0.115258,-0.133331
96,2316145824,-0.394806,0.365812,0.465617,-0.702503,-0.680168,0.179076,-0.144949
97,2316179158,-0.391245,0.363368,0.467597,-0.704446,-0.713257,0.277284,-0.165209
98,2316212492,-0.390204,0.361693,0.468407,-0.705346,-0.773904,0.398520,-0.150360
99,2316245826,-0.392095,0.361908,0.467673,-0.704674,-0.669514,0.417588,0.130322
100,2316279160,-0.396083,0.363557,0.465968,-0.702721,-0.546354,0.295122,0.316844
101,2316312494,-0.400611,0.365269,0.464240,-0.700406,-0.462169,0.124243,0.232676
102,2316345828,-0.404313,0.366172,0.463240,-0.698468,-0.355268,0.002609,0.191081
103,2316379162,-0.406503,0.365426,0.463530,-0.697394,-0.297814,-0.081233,0.176150
104,2316412496,-0.407501,0.362986,0.464989,-0.697114,-0.274015,-0.061958,0.106014
105,2316445830,-0.408158,0.359792,0.466859,-0.697135,-0.294916,-0.017880,-0.005880
106,2316479164,-0.409351,0.357022,0.468322,-0.696879,-0.243971,0.005711,0.023410
107,2316512498,-0.411298,0.355109,0.469032,-0.696232,-0.159802,-0.000909,0.139055
108,2316545832,-0.413752,0.354076,0.468905,-0.695390,-0.088308,0.009956,0.227562
109,2316579166,-0.416228,0.354042,0.467963,-0.694563,-0.038984,0.020059,0.197593
110,2316612500,-0.418177,0.355100,0.466325,-0.693954,-0.010709,-0.003484,0.120227
111,2316645834,-0.418987,0.356565,0.464525,-0.693921,0.062961,-0.046884,0.065373
112,2316679168,-0.418420,0.357456,0.463230,-0.694670,0.082996,-0.039806,-0.012704
113,2316712502,-0.416763,0.357487,0.462732,-0.695981,0.050624,0.059567,-0.076813
114,2316745836,-0.414712,0.357253,0.462764,-0.697304,-0.000155,0.195028,-0.036235
115,2316779170,-0.412920,0.357490,0.462951,-0.698121,-0.074157,0.208401,-0.008978
116,2316812504,-0.411480,0.358208,0.463196,-0.698441,-0.100481,0.177212,-0.031898
117,2316845838,-0.410083,0.358922,0.463685,-0.698571,-0.079748,0.122926,-0.072911
118,2316879172,-0.408357,0.359150,0.464691,-0.698797,-0.105503,0.053688,-0.085337
119,2316912506,-0.406352,0.358712,0.466287,-0.699128,-0.087519,0.034099,-0.019019
120,2316945840,-0.404371,0.357622,0.468469,-0.699376,-0.138622,0.001037,0.078990
121,2316979174,-0.402674,0.356051,0.470983,-0.699468,-0.133116,-0.075624,0.144645
122,2317012508,-0.401426,0.354224,0.473486,-0.699423,-0.160664,-0.127227,0.204974
123,2317045842,-0.400678,0.352522,0.475634,-0.699255,-0.178941,-0.149908,0.216392
124,2317079176,-0.400438,0.351440,0.477282,-0.698814,-0.137757,-0.213254,0.214592
125,2317112510,-0.400663,0.350892,0.478480,-0.698140,-0.126801,-0.315837,0.090281
126,2317145844,-0.401163,0.350449,0.479462,-0.697401,-0.073834,-0.442885,-0.079241
127,2317179178,-0.401655,0.349543,0.480442,-0.696899,-0.035586,-0.532110,-0.129792
128,2317212512,-0.402132,0.347802,0.481563,-0.696720,0.054831,-0.481970,0.025868
129,2317245846,-0.402923,0.345453,0.482747,-0.696613,0.078225,-0.459257,0.187969
130,2317279180,-0.404450,0.343254,0.483538,-0.696266,0.060732,-0.397742,0.134560
131,2317312514,-0.406725,0.342111,0.483476,-0.695546,0.164390,-0.385250,0.164858
132,2317345848,-0.409270,0.341959,0.482571,-0.694757,0.215518,-0.440183,0.163037
133,2317379182,-0.411340,0.342220,0.481242,-0.694328,0.294535,-0.498470,0.134153
134,2317412516,-0.412441,0.342271,0.479957,-0.694537,0.330880,-0.511262,0.102995
135,2317445850,-0.412515,0.341812,0.478959,-0.695408,0.353817,-0.452253,0.092937
136,2317479184,-0.411992,0.341224,0.478123,-0.696582,0.330983,-0.304074,0.121066
137,2317512518,-0.411504,0.341058,0.477176,-0.697600,0.298663,-0.225803,0.110742
138,2317545852,-0.411359,0.341589,0.475917,-0.698285,0.307961,-0.192353,-0.000302
139,2317579186,-0.411293,0.342457,0.474580,-0.698809,0.331852,-0.196445,-0.001478
140,2317612520,-0.411079,0.343087,0.473444,-0.699396,0.312885,-0.155280,0.054544
141,2317645854,-0.410869,0.343588,0.472423,-0.699964,0.278894,-0.082226,0.070952
142,2317679188,-0.410829,0.344153,0.471427,-0.700381,0.266353,-0.017293,0.213981
143,2317712522,-0.411176,0.345001,0.470216,-0.700574,0.214327,0.060917,0.146392
144,2317745856,-0.412029,0.346639,0.468608,-0.700342,0.206703,0.076945,0.083263
145,2317779190,-0.413067,0.348901,0.466837,-0.699790,0.219594,0.043451,0.006463
146,2317812524,-0.413819,0.351026,0.465467,-0.699195,0.236533,-0.036609,-0.020731
147,2317845858,-0.413924,0.352146,0.465097,-0.698817,0.207930,-0.075631,-0.011222
148,2317879192,-0.413530,0.352147,0.465843,-0.698552,0.142782,-0.067305,0.001331
149,2317912526,-0.412891,0.351501,0.467378,-0.698230,0.109244,-0.156410,0.057090
150,2317945860,-0.411882,0.350270,0.469411,-0.698081,0.072668,-0.230580,0.126606
151,2317979194,-0.410433,0.348560,0.471640,-0.698287,0.007053,-0.289439,0.205245
152,2318012528,-0.408679,0.346767,0.473573,-0.698900,-0.040539,-0.281548,0.202086
153,2318045862,-0.406904,0.345421,0.474698,-0.699839,-0.119231,-0.254935,0.126660
154,2318079196,-0.405591,0.344963,0.474785,-0.700767,-0.100771,-0.208461,0.194187
155,2318112530,-0.404851,0.345151,0.474106,-0.701562,-0.080513,-0.196388,0.179493
156,2318145864,-0.404459,0.345211,0.473185,-0.702379,-0.017842,-0.196427,0.146801
157,2318179198,-0.404216,0.344806,0.472355,-0.703277,-0.018064,-0.076561,0.144876
158,2318212532,-0.404189,0.344287,0.471611,-0.704045,0.016987,-0.010592,0.138882
159,2318245866,-0.404300,0.343598,0.471053,-0.704692,0.090360,0.052451,0.150072
160,2318279200,-0.404505,0.342530,0.470764,-0.705287,0.150518,0.127757,0.065115
161,2318312534,-0.405001,0.341187,0.470691,-0.705702,0.199888,0.139638,0.035535
162,2318345868,-0.405895,0.339632,0.470721,-0.705918,0.194015,0.165082,0.032673
163,2318379202,-0.407385,0.338128,0.470745,-0.705766,0.311337,0.200156,0.059721
164,2318412536,-0.409376,0.336725,0.470647,-0.705350,0.322335,0.191965,0.194510
165,2318445870,-0.412027,0.335872,0.469950,-0.704677,0.282724,0.265257,0.258366
166,2318479204,-0.415496,0.336691,0.468077,-0.703495,0.306594,0.307938,-0.041392
167,2318512538,-0.419257,0.339307,0.465262,-0.701872,0.410705,0.349520,-0.210353
168,2318545872,-0.422776,0.342705,0.462435,-0.699976,0.413308,0.270155,-0.213723
169,2318579206,-0.426046,0.346121,0.460285,-0.697726,0.460669,0.219175,-0.190264
170,2318612540,-0.428803,0.348929,0.459374,-0.695234,0.489715,0.201355,-0.213411
171,2318645874,-0.430543,0.350672,0.460197,-0.692734,0.426019,0.115711,-0.018717
172,2318679208,-0.431125,0.351164,0.462509,-0.690580,0.261581,0.031417,0.148432
173,2318712542,-0.430996,0.350968,0.465370,-0.688835,0.150011,0.105173,0.141880
174,2318745876,-0.430877,0.351314,0.467688,-0.687161,0.044835,0.145667,0.232589
175,2318779210,-0.431371,0.352892,0.468738,-0.685325,-0.088235,0.185564,0.304538
176,2318812544,-0.432822,0.356009,0.468221,-0.683147,-0.109273,0.183199,0.433258
177,2318845878,-0.434951,0.360315,0.466570,-0.680662,-0.111934,0.239985,0.569635
178,2318879212,-0.437053,0.365454,0.464342,-0.678096,-0.223038,0.192052,0.521102
179,2318912546,-0.438095,0.370833,0.462308,-0.675889,-0.280600,0.094325,0.315661
180,2318945880,-0.437346,0.375677,0.461215,-0.674444,-0.433035,0.039798,-0.030001
181,2318979214,-0.435061,0.379761,0.461053,-0.673746,-0.539722,-0.084651,-0.681682
182,2319012548,-0.431977,0.382647,0.461733,-0.673630,-0.514237,-0.231359,-0.901795
183,2319045882,-0.429062,0.383046,0.463253,-0.674223,-0.536644,-0.075980,-0.725505
184,2319079216,-0.427865,0.381699,0.464889,-0.674622,-0.542830,0.139090,-0.318146
185,2319112550,-0.429476,0.380531,0.465307,-0.673969,-0.678559,0.408188,-0.006783
186,2319145884,-0.434420,0.381851,0.463125,-0.671553,-0.693456,0.482754,0.260037
187,2319179218,-0.442021,0.386667,0.457796,-0.667479,-0.649524,0.539683,0.377986
188,2319212552,-0.450355,0.394505,0.449997,-0.662607,-0.558974,0.349169,0.288846
189,2319245886,-0.456784,0.402914,0.442008,-0.658511,-0.449396,-0.015762,0.152118
190,2319279220,-0.459384,0.408334,0.436901,-0.656769,-0.405370,-0.260928,0.040424
191,2319312554,-0.458157,0.408921,0.435973,-0.657876,-0.568019,-0.227750,-0.098612
192,2319345888,-0.454865,0.406005,0.437827,-0.660730,-0.837766,-0.119760,-0.213947
193,2319379222,-0.451893,0.402707,0.439972,-0.663358,-0.915939,0.034542,-0.223891
194,2319412556,-0.450319,0.400370,0.441165,-0.665048,-0.883592,0.020698,-0.079623
195,2319445890,-0.449853,0.398492,0.441431,-0.666314,-0.682205,0.078766,0.010148
196,2319479224,-0.449638,0.396762,0.441047,-0.667744,-0.618148,0.114399,0.022696
197,2319512558,-0.449103,0.395440,0.439732,-0.669752,-0.740041,0.163923,0.068091
198,2319545892,-0.447927,0.395039,0.437315,-0.672354,-0.604019,0.160634,0.282350
199,2319579226,-0.445331,0.394162,0.434648,-0.676311,-0.516420,0.142567,0.437049
200,2319612560,-0.440870,0.391137,0.432813,-0.682141,-0.525313,0.254313,0.514399
201,2319645894,-0.436310,0.387829,0.431542,-0.687744,-0.470900,0.765875,0.296518
202,2319679228,-0.432443,0.386075,0.429760,-0.692275,-0.373072,0.687828,-0.020584
203,2319712562,-0.428544,0.385580,0.428484,-0.695758,-0.153732,0.638117,-0.424907
204,2319745896,-0.423275,0.384460,0.429242,-0.699127,-0.170547,0.601527,-0.666420
205,2319779230,-0.417140,0.382672,0.432279,-0.701919,-0.238737,0.636662,-0.602172
206,2319812564,-0.411341,0.380528,0.437748,-0.703117,-0.266245,0.410589,-0.535332
207,2319845898,-0.406624,0.377546,0.445696,-0.702474,-0.215271,0.156479,-0.509745
208,2319879232,-0.402894,0.372727,0.456277,-0.700400,-0.113225,-0.061170,-0.591251
209,2319912566,-0.399842,0.365757,0.469290,-0.697219,-0.034980,-0.363094,-0.395509
210,2319945900,-0.397425,0.356208,0.484028,-0.693459,0.026549,-0.691469,0.026859
211,2319979234,-0.396188,0.343767,0.499610,-0.689382,0.293649,-0.982993,0.759388
212,2320012568,-0.396544,0.328033,0.515133,-0.685408,0.463223,-1.272941,1.541760
213,2320045902,-0.399486,0.311278,0.528199,-0.681559,0.386443,-1.340711,1.507376
214,2320079236,-0.406655,0.299531,0.535233,-0.677080,0.213862,-1.143467,0.927659
215,2320112570,-0.418962,0.298599,0.533849,-0.671054,0.151160,-0.992150,0.365928
216,2320145904,-0.434233,0.308699,0.524767,-0.663902,0.552397,-1.227804,0.097013
217,2320179238,-0.447661,0.324047,0.511761,-0.657794,1.149357,-1.832953,-0.009008
218,2320212572,-0.454501,0.336764,0.499908,-0.655828,1.472913,-2.248881,0.137105
219,2320245906,-0.453340,0.341987,0.492461,-0.659551,1.438593,-2.082051,0.252704
220,2320279240,-0.446029,0.340087,0.489429,-0.667725,1.221179,-1.511220,0.327935
221,2320312574,-0.436140,0.334849,0.488506,-0.677509,0.996177,-0.818137,0.319558
222,2320345908,-0.426818,0.330195,0.487234,-0.686585,0.814301,-0.377489,0.161007
223,2320379242,-0.419140,0.327822,0.484370,-0.694434,0.824754,-0.314021,0.263449
224,2320412576,-0.412252,0.325946,0.480627,-0.702001,0.643398,-0.094133,0.329301
225,2320445910,-0.407082,0.326932,0.475560,-0.707984,0.689929,0.616437,0.112381
226,2320479244,-0.403054,0.331659,0.468591,-0.712721,0.781103,0.515468,0.201072
227,2320512578,-0.398763,0.337421,0.461206,-0.717233,0.546291,0.740206,0.095716
228,2320545912,-0.394161,0.344318,0.454021,-0.721073,0.436141,0.984430,-0.013589
229,2320579246,-0.389168,0.352097,0.447855,-0.723879,0.363847,0.978654,-0.172664
230,2320612580,-0.383456,0.358857,0.443973,-0.725996,0.312887,0.872488,-0.297865
231,2320645914,-0.377219,0.362860,0.443445,-0.727595,0.174622,0.777503,-0.407278
232,2320679248,-0.371058,0.363239,0.446781,-0.728532,0.030312,0.660557,-0.462052
233,2320712582,-0.365681,0.359961,0.453748,-0.728572,-0.117145,0.500017,-0.454576
234,2320745916,-0.361609,0.353689,0.463453,-0.727566,-0.265012,0.371892,-0.347252
235,2320779250,-0.359196,0.345585,0.474638,-0.725443,-0.307308,0.173997,-0.111984
236,2320812584,-0.358567,0.336836,0.485948,-0.722375,-0.397550,-0.083458,0.071560
237,2320845918,-0.359995,0.328674,0.496100,-0.718513,-0.429479,-0.321575,0.247597
238,2320879252,-0.363548,0.321757,0.504155,-0.714235,-0.361580,-0.513223,0.470699
239,2320912586,-0.369334,0.316808,0.509342,-0.709785,-0.320685,-0.612205,0.507613
240,2320945920,-0.377485,0.314829,0.511187,-0.705035,-0.228941,-0.677626,0.478324
241,2320979254,-0.387486,0.316066,0.509641,-0.700158,-0.013137,-0.848854,0.490859
242,2321012588,-0.398245,0.319380,0.505323,-0.695734,0.172612,-0.899171,0.372034
243,2321045922,-0.408858,0.324159,0.499005,-0.691916,0.374560,-0.909312,0.139803
244,2321079256,-0.418240,0.329234,0.491763,-0.689092,0.496322,-0.970614,-0.060021
245,2321112590,-0.425534,0.333354,0.484493,-0.687795,0.625376,-0.825255,-0.135984
246,2321145924,-0.430616,0.336743,0.477684,-0.687744,0.764649,-0.524841,0.107819
247,2321179258,-0.433905,0.339705,0.471657,-0.688379,0.668094,-0.278948,0.245503
248,2321212592,-0.435882,0.343403,0.465907,-0.689211,0.554230,-0.196686,-0.005622
249,2321245926,-0.436300,0.348281,0.460241,-0.690304,0.500740,-0.144037,-0.253141
250,2321279260,-0.434364,0.353534,0.455131,-0.692240,0.448249,-0.042971,-0.388116
251,2321312594,-0.429467,0.358358,0.451237,-0.695357,0.345505,0.095219,-0.314935
252,2321345928,-0.421740,0.362143,0.448998,-0.699562,0.200266,0.263375,-0.063361
253,2321379262,-0.412331,0.364739,0.448352,-0.704222,-0.036649,0.413838,0.047236
254,2321412596,-0.402553,0.366882,0.448810,-0.708461,-0.289294,0.486041,-0.046937
255,2321445930,-0.392983,0.368898,0.450141,-0.711935,-0.510060,0.494879,-0.048337
256,2321479264,-0.383639,0.370412,0.452467,-0.714765,-0.637060,0.429602,-0.019758
257,2321512598,-0.374178,0.370449,0.456070,-0.717465,-0.814230,0.341669,0.008876
258,2321545932,-0.364922,0.368649,0.460834,-0.720112,-0.984995,0.274796,-0.022746
259,2321579266,-0.356500,0.365344,0.466451,-0.722395,-1.142627,0.242775,0.128704
260,2321612600,-0.349619,0.360880,0.472459,-0.724096,-1.230465,0.195973,0.328214
261,2321645934,-0.344789,0.355803,0.478162,-0.725179,-1.302216,0.169567,0.309214
262,2321679268,-0.342474,0.351133,0.482788,-0.725488,-1.287969,0.053085,0.170638
263,2321712602,-0.342851,0.347382,0.485950,-0.725004,-1.179435,-0.039201,0.243356
264,2321745936,-0.345705,0.344300,0.487681,-0.723956,-1.031747,-0.054079,0.353828
265,2321779270,-0.350699,0.341736,0.488259,-0.722377,-0.900270,-0.130136,0.389748
266,2321812604,-0.357205,0.339520,0.487809,-0.720536,-0.702254,-0.184599,0.324127
267,2321845938,-0.364544,0.337473,0.486545,-0.718674,-0.481787,-0.174808,0.273095
268,2321879272,-0.371909,0.335331,0.484905,-0.717010,-0.264901,-0.139895,0.158310
269,2321912606,-0.378745,0.333101,0.483249,-0.715587,-0.074273,-0.191240,0.027668
270,2321945940,-0.384557,0.330547,0.481928,-0.714562,0.116806,-0.235998,0.009080
271,2321979274,-0.389020,0.327143,0.481357,-0.714097,0.299453,-0.281359,0.001574
272,2322012608,-0.392067,0.322843,0.481528,-0.714272,0.398597,-0.245209,-0.056293
273,2322045942,-0.393812,0.318310,0.482092,-0.714966,0.472629,-0.188965,-0.267597
274,2322079276,-0.394453,0.314370,0.482840,-0.715851,0.545870,-0.229598,-0.233201
275,2322112610,-0.393932,0.310787,0.483865,-0.717010,0.690085,-0.248019,-0.163681
276,2322145944,-0.392226,0.307096,0.485237,-0.718606,0.697536,-0.232543,-0.231665
277,2322179278,-0.389430,0.303686,0.486696,-0.720587,0.737606,-0.176012,-0.294480
278,2322212612,-0.385531,0.300696,0.488206,-0.722911,0.805956,-0.114531,0.071311
279,2322245946,-0.380686,0.297754,0.489826,-0.725597,0.727074,-0.054065,0.317591
280,2322279280,-0.375397,0.295397,0.491178,-0.728396,0.621211,-0.021799,0.227244
281,2322312614,-0.369864,0.293987,0.492007,-0.731232,0.559323,0.019020,0.294861
282,2322345948,-0.364073,0.293206,0.492153,-0.734347,0.419390,0.019984,0.241324
283,2322379282,-0.358237,0.292809,0.491554,-0.737769,0.379392,0.136419,0.180156
284,2322412616,-0.352715,0.292562,0.490447,-0.741256,0.306275,0.282467,0.316572
285,2322445950,-0.348229,0.292617,0.488829,-0.744417,0.152148,0.445187,0.268761
286,2322479284,-0.345784,0.294383,0.486241,-0.746552,0.018063,0.611924,-0.030095
287,2322512618,-0.345585,0.298515,0.482698,-0.747303,0.079509,0.586670,-0.211160
288,2322545952,-0.347008,0.303487,0.478929,-0.747066,0.138510,0.496907,-0.277500
289,2322579286,-0.349379,0.307406,0.475962,-0.746254,0.262073,0.436258,-0.184287
290,2322612620,-0.352381,0.309353,0.474294,-0.745099,0.158760,0.497051,-0.109262
291,2322645954,-0.356304,0.310823,0.473602,-0.743059,0.113336,0.575773,0.103142
292,2322679288,-0.361288,0.312575,0.473540,-0.739950,0.104143,0.438502,0.223157
293,2322712622,-0.367138,0.314589,0.473660,-0.736131,0.084617,0.285835,0.056128
294,2322745956,-0.373376,0.316790,0.473709,-0.732006,0.158883,0.121221,-0.110008
295,2322779290,-0.379375,0.318552,0.473908,-0.728017,0.200447,-0.029322,-0.170382
296,2322812624,-0.385253,0.319656,0.474380,-0.724129,0.243037,-0.122227,-0.130061
297,2322845958,-0.391735,0.320560,0.474870,-0.719918,0.227787,-0.126621,-0.071586
298,2322879292,-0.399526,0.322206,0.474807,-0.714926,0.288040,-0.106282,0.102051
299,2322912626,-0.408680,0.325198,0.473670,-0.709128,0.293114,-0.127551,0.177113
300,2322945960,-0.418776,0.329916,0.471174,-0.702691,0.340940,-0.191123,0.122251
301,2322979294,-0.428633,0.336275,0.467583,-0.696102,0.446955,-0.333533,0.048656
302,2323012628,-0.436924,0.343156,0.463846,-0.690063,0.476718,-0.517610,0.047443
303,2323045962,-0.442760,0.349194,0.460947,-0.685240,0.461815,-0.587969,0.023004
304,2323079296,-0.446082,0.353790,0.459385,-0.681768,0.371482,-0.579315,0.064756
305,2323112630,-0.447521,0.357364,0.458796,-0.679353,0.172171,-0.467764,0.035484
306,2323145964,-0.447969,0.360952,0.458467,-0.677380,0.042522,-0.403124,0.077801
307,2323179298,-0.447999,0.365173,0.457865,-0.675503,-0.096984,-0.336691,0.111328
308,2323212632,-0.447586,0.370016,0.456977,-0.673739,-0.220806,-0.429758,0.116640
309,2323245966,-0.446402,0.374652,0.456215,-0.672479,-0.309880,-0.452403,0.239335
310,2323279300,-0.444177,0.378280,0.456003,-0.672065,-0.453540,-0.457977,0.276289
311,2323312634,-0.440951,0.380766,0.456308,-0.672578,-0.578488,-0.423679,0.233089
312,2323345968,-0.436923,0.382167,0.456933,-0.673987,-0.674242,-0.354331,0.238903
313,2323379302,-0.432502,0.382493,0.457656,-0.676159,-0.749629,-0.302800,0.237314
314,2323412636,-0.428313,0.381818,0.458258,-0.678794,-0.819025,-0.236837,0.290593
315,2323445970,-0.425194,0.380672,0.458203,-0.681430,-0.856743,-0.049163,0.132130
316,2323479304,-0.423923,0.380289,0.456908,-0.683303,-0.782171,0.166893,-0.010406
317,2323512638,-0.424773,0.381484,0.454422,-0.683767,-0.680570,0.187054,0.058208
318,2323545972,-0.427176,0.383172,0.451720,-0.683116,-0.523578,0.104036,0.124147
319,2323579306,-0.430076,0.384041,0.449866,-0.682031,-0.382230,-0.008780,0.055548
320,2323612640,-0.432352,0.383209,0.449638,-0.681211,-0.311648,-0.079985,0.077685
321,2323645974,-0.433566,0.380796,0.450925,-0.680941,-0.295739,-0.044076,0.042175
322,2323679308,-0.434025,0.377609,0.453041,-0.681018,-0.268369,-0.004328,-0.014375
323,2323712642,-0.434276,0.374488,0.455229,-0.681123,-0.211453,-0.037201,0.029896
324,2323745976,-0.434660,0.371577,0.457181,-0.681165,-0.155792,-0.104331,0.103080
325,2323779310,-0.435204,0.368893,0.458703,-0.681253,-0.132335,-0.096499,0.065523
326,2323812644,-0.435926,0.367005,0.459471,-0.681293,-0.082550,-0.056453,0.041040
327,2323845978,-0.436688,0.366269,0.459519,-0.681169,-0.043433,-0.111876,0.084157
328,2323879312,-0.437173,0.366214,0.459272,-0.681055,-0.019738,-0.190149,0.058374
329,2323912646,-0.436973,0.366130,0.459378,-0.681156,0.035260,-0.279963,0.040703
330,2323945980,-0.435708,0.365314,0.460273,-0.681800,0.003735,-0.348631,0.030399
331,2323979314,-0.433303,0.363752,0.461936,-0.683043,-0.045697,-0.356048,0.009492
332,2324012648,-0.429989,0.361731,0.464054,-0.684773,-0.129432,-0.312632,0.022406
333,2324045982,-0.426203,0.359733,0.466182,-0.686743,-0.164004,-0.347784,0.197674
334,2324079316,-0.422257,0.357758,0.468127,-0.688887,-0.274472,-0.302202,0.270349
335,2324112650,-0.418413,0.356154,0.469460,-0.691152,-0.316598,-0.286085,0.053771
336,2324145984,-0.414816,0.355083,0.470082,-0.693445,-0.287279,-0.182269,-0.063523
337,2324179318,-0.411602,0.354320,0.470220,-0.695653,-0.290756,-0.138337,-0.095025
338,2324212652,-0.408996,0.353694,0.470239,-0.697494,-0.223123,-0.103115,-0.071463
339,2324245986,-0.407063,0.352809,0.470636,-0.698804,-0.143622,-0.019873,0.034554
340,2324279320,-0.405847,0.351152,0.471753,-0.699591,-0.046224,-0.076002,0.123801
341,2324312654,-0.405252,0.348075,0.473831,-0.700069,0.056009,-0.087157,0.187633
342,2324345988,-0.405343,0.343655,0.476684,-0.700264,0.177727,-0.066002,0.155203
343,2324379322,-0.406226,0.338247,0.479929,-0.700169,0.355356,-0.092283,0.269652
344,2324412656,-0.407837,0.331975,0.483234,-0.699961,0.499228,-0.133630,0.385159
345,2324445990,-0.410117,0.325293,0.485996,-0.699854,0.572988,-0.068836,0.343909
346,2324479324,-0.414039,0.319841,0.486998,-0.699360,0.696240,0.060982,0.336073
347,2324512658,-0.420078,0.317080,0.485497,-0.698059,0.815863,0.239112,0.314913
348,2324545992,-0.428127,0.317941,0.481222,-0.695733,0.993534,0.220224,0.238412
349,2324579326,-0.437506,0.322064,0.474825,-0.692389,1.164566,0.155552,0.010968
350,2324612660,-0.446923,0.327863,0.467632,-0.688539,1.351332,-0.031456,-0.176537
351,2324645994,-0.454940,0.333189,0.461274,-0.685011,1.466273,-0.177348,-0.321178
352,2324679328,-0.460549,0.336540,0.457001,-0.682484,1.453534,-0.215092,-0.378592
353,2324712662,-0.463847,0.338206,0.454852,-0.680860,1.293447,-0.049638,-0.285240
354,2324745996,-0.465825,0.340300,0.453658,-0.679261,1.114691,0.096402,-0.202198
355,2324779330,-0.466976,0.343996,0.452780,-0.677193,1.023584,0.087260,-0.036293
356,2324812664,-0.466976,0.348792,0.452348,-0.675024,0.853263,-0.022134,0.063584
357,2324845998,-0.465243,0.353987,0.452726,-0.673261,0.638898,-0.054805,-0.010211
358,2324879332,-0.461194,0.359559,0.454124,-0.672152,0.413795,-0.122799,0.045896
359,2324912666,-0.454195,0.364481,0.457086,-0.672259,0.155184,-0.168093,0.398977
360,2324946000,-0.444021,0.367612,0.461759,-0.674155,-0.131129,-0.179331,0.476896
361,2324979334,-0.430869,0.368987,0.467700,-0.677832,-0.423384,-0.124430,0.411624
362,2325012668,-0.415687,0.369103,0.474151,-0.682749,-0.818372,0.012076,0.329229
363,2325046002,-0.400204,0.369464,0.479898,-0.687772,-1.087986,0.103293,0.145947
364,2325079336,-0.385225,0.367414,0.485249,-0.693643,-1.716147,-0.521161,0.293931
365,2325112670,-0.373362,0.359622,0.490637,-0.700391,-2.999198,0.156281,-0.416406
366,2325146004,-0.369686,0.358473,0.492505,-0.701617,-2.386027,0.325188,-0.486427
367,2325179338,-0.372244,0.364641,0.492338,-0.697190,-1.287722,0.110436,-0.227030
368,2325212672,-0.375846,0.370315,0.492713,-0.691982,-0.519213,-0.409741,0.139731
369,2325246006,-0.376190,0.368077,0.495744,-0.690824,-0.333899,-0.176184,-0.005263
370,2325279340,-0.374156,0.360223,0.500171,-0.692874,-0.441777,0.132860,-0.160740
371,2325312674,-0.374169,0.352723,0.503767,-0.694120,-0.752450,0.729679,-0.434639
372,2325346008,-0.378964,0.350378,0.504470,-0.692192,-0.299700,0.426276,-0.161962
373,2325379342,-0.386853,0.350022,0.503145,-0.688966,-0.065844,0.327005,0.028615
374,2325412676,-0.396100,0.350022,0.500704,-0.685480,0.153945,0.291749,0.227498
375,2325446010,-0.405820,0.350591,0.497298,-0.681974,0.146390,0.290330,0.434311
376,2325479344,-0.415535,0.352550,0.492799,-0.678372,0.147517,0.225095,0.501810
377,2325512678,-0.424173,0.355841,0.487730,-0.674961,0.289961,0.078273,0.477985
378,2325546012,-0.430036,0.359222,0.483220,-0.672701,0.301731,-0.076696,0.262420
379,2325579346,-0.432442,0.361715,0.480185,-0.671995,0.289786,-0.120499,-0.053772
380,2325612680,-0.432150,0.362990,0.478920,-0.672398,0.106815,-0.231145,-0.031835
381,2325646014,-0.430532,0.362974,0.478982,-0.673400,-0.193307,-0.211191,-0.140857
382,2325679348,-0.429248,0.363281,0.479356,-0.673788,-0.164963,-0.250300,-0.163720
383,2325712682,-0.428508,0.363810,0.479835,-0.673632,-0.318013,-0.309367,-0.348179
384,2325746016,-0.428063,0.364516,0.480521,-0.673045,-0.261016,-0.400831,-0.348390
385,2325779350,-0.426899,0.364313,0.481884,-0.672919,-0.143288,-0.424717,-0.135719
386,2325812684,-0.424678,0.362828,0.483764,-0.673777,-0.126929,-0.170596,-0.046944
387,2325846018,-0.421764,0.361476,0.485288,-0.675237,-0.031902,-0.020810,0.166970
388,2325879352,-0.418431,0.360850,0.485691,-0.677353,-0.250383,0.173693,0.321688
389,2325912686,-0.415664,0.362360,0.484124,-0.679368,-0.345266,0.348901,0.233856
390,2325946020,-0.413756,0.366430,0.480630,-0.680830,-0.306528,0.327722,0.147309
391,2325979354,-0.411890,0.371107,0.476408,-0.682393,-0.267462,0.268674,0.036922
392,2326012688,-0.409669,0.374900,0.472387,-0.684449,-0.287469,0.385556,-0.326582
393,2326046022,-0.407300,0.378195,0.468775,-0.686530,-0.317787,0.424264,-0.419484
394,2326079356,-0.405008,0.380940,0.465798,-0.688393,-0.444205,0.504757,-0.334729
395,2326112690,-0.403074,0.383315,0.463739,-0.689599,-0.509012,0.424110,-0.202931
396,2326146024,-0.401114,0.384815,0.463023,-0.690387,-0.655141,0.261836,-0.023378
397,2326179358,-0.398452,0.385087,0.463776,-0.691271,-0.795915,0.154240,0.312812
398,2326212692,-0.395229,0.384053,0.465254,-0.692702,-1.046209,0.182749,0.540773
399,2326246026,-0.392932,0.383054,0.466111,-0.693984,-1.184565,0.186219,0.414391
400,2326279360,-0.392178,0.382804,0.466169,-0.694509,-1.103824,-0.012900,-0.077335
401,2326312694,-0.392468,0.382533,0.465990,-0.694615,-0.906722,-0.255156,-0.353214
402,2326346028,-0.392954,0.380277,0.466763,-0.695060,-0.662917,-0.371740,-0.105325
403,2326379362,-0.393593,0.374702,0.469217,-0.696073,-0.588589,-0.350169,0.246351
404,2326412696,-0.395092,0.366753,0.472858,-0.696993,-0.456916,-0.220929,0.478679
405,2326446030,-0.397749,0.358110,0.476719,-0.697346,-0.347579,-0.193212,0.594448
406,2326479364,-0.401315,0.350259,0.479737,-0.697220,-0.208366,-0.211423,0.351243
407,2326512698,-0.405100,0.344116,0.481387,-0.696953,0.136346,-0.330611,-0.058407
408,2326546032,-0.407785,0.338394,0.482650,-0.697315,0.478242,-0.527034,0.062049
409,2326579366,-0.408873,0.330951,0.484628,-0.698877,0.797200,-0.629522,0.403398
410,2326612700,-0.408987,0.320743,0.487809,-0.701352,1.034815,-0.542408,0.622618
411,2326646034,-0.409514,0.309373,0.491341,-0.703683,1.031055,-0.301147,0.587602
412,2326679368,-0.411867,0.300395,0.493354,-0.704790,1.048993,-0.066754,0.316169
413,2326712702,-0.416359,0.296647,0.492624,-0.704249,1.137690,-0.070844,0.070110
414,2326746036,-0.421653,0.298213,0.489390,-0.702691,1.274186,-0.287755,-0.228450
415,2326779370,-0.425414,0.302668,0.485257,-0.701384,1.518156,-0.590241,-0.438862
416,2326812704,-0.425366,0.306076,0.482497,-0.701838,1.626496,-0.815189,-0.516765
417,2326846038,-0.420446,0.305685,0.482508,-0.704958,1.609164,-0.777272,-0.451760
418,2326879372,-0.411570,0.301718,0.484981,-0.710189,1.399108,-0.507542,-0.137967
419,2326912706,-0.401039,0.296641,0.488302,-0.716053,1.092994,-0.168581,0.049392
420,2326946040,-0.391112,0.293495,0.490683,-0.721195,0.882978,0.093130,0.147141
421,2326979374,-0.383171,0.294175,0.491197,-0.724821,0.631404,0.220304,0.173602
422,2327012708,-0.377526,0.299006,0.489812,-0.726741,0.571390,0.150986,0.183551
423,2327046042,-0.372892,0.305897,0.487669,-0.727706,0.608688,0.008101,0.278833
424,2327079376,-0.367403,0.311785,0.486228,-0.728963,0.520844,-0.104923,0.226606
425,2327112710,-0.360009,0.315365,0.486097,-0.731196,0.309024,-0.009982,0.131043
426,2327146044,-0.350884,0.317186,0.487148,-0.734139,0.062803,0.087736,0.151879
427,2327179378,-0.340932,0.318027,0.489014,-0.737217,-0.180229,0.142946,0.204088
428,2327212712,-0.331256,0.318129,0.491417,-0.739981,-0.340539,0.093937,0.180030
429,2327246046,-0.322805,0.317077,0.494345,-0.742214,-0.442695,0.023375,0.094620
430,2327279380,-0.316406,0.314686,0.497691,-0.743749,-0.530597,-0.028124,0.130921
431,2327312714,-0.312790,0.311383,0.501092,-0.744385,-0.630144,-0.051914,0.107365
432,2327346048,-0.312413,0.308260,0.503939,-0.743921,-0.677218,-0.090149,0.024613
433,2327379382,-0.315427,0.306327,0.505654,-0.742282,-0.610170,-0.149532,-0.028358
434,2327412716,-0.321313,0.305627,0.506042,-0.739777,-0.381824,-0.282233,0.090469
435,2327446050,-0.329026,0.305186,0.505362,-0.737029,-0.238830,-0.328676,0.158212
436,2327479384,-0.337904,0.304664,0.503798,-0.734294,-0.037127,-0.305861,0.213435
437,2327512718,-0.347485,0.304355,0.501347,-0.731623,0.024431,-0.231309,0.211587
438,2327546052,-0.357611,0.305056,0.497852,-0.728833,0.189245,-0.154660,0.163634
439,2327579386,-0.368065,0.306963,0.493456,-0.725811,0.349452,-0.131408,0.167471
440,2327612720,-0.378325,0.309705,0.488605,-0.722646,0.520984,-0.166834,0.166345
441,2327646054,-0.387685,0.312516,0.483924,-0.719618,0.673466,-0.178659,0.069468
442,2327679388,-0.395576,0.314944,0.479902,-0.716954,0.753766,-0.256797,-0.111770
443,2327712722,-0.401562,0.316747,0.476816,-0.714888,0.793894,-0.282620,-0.266978
444,2327746056,-0.405385,0.317777,0.474834,-0.713591,0.832412,-0.291276,-0.310291
445,2327779390,-0.407110,0.318045,0.473936,-0.713087,0.810760,-0.233760,-0.299685
446,2327812724,-0.407232,0.317881,0.473839,-0.713154,0.732744,-0.154843,-0.132953
447,2327846058,-0.406542,0.318276,0.473762,-0.713423,0.577379,-0.110342,-0.183823
448,2327879392,-0.405636,0.320210,0.472963,-0.713603,0.455228,-0.026588,-0.406537
449,2327912726,-0.404623,0.323459,0.471754,-0.713513,0.569799,-0.034864,0.002434
450,2327946060,-0.403569,0.326405,0.471166,-0.713158,0.534762,0.006769,0.458016
451,2327979394,-0.403100,0.328695,0.471473,-0.712167,0.466769,0.092967,0.689801
452,2328012728,-0.403399,0.331308,0.472118,-0.710358,0.274913,0.129377,0.393529
453,2328046062,-0.403470,0.335096,0.472517,-0.708272,0.136268,0.009980,-0.009344
454,2328079396,-0.401893,0.339676,0.472845,-0.706767,0.088008,-0.205435,-0.126081
455,2328112730,-0.397551,0.343029,0.474126,-0.706744,0.021931,-0.346355,0.141048
456,2328146064,-0.390819,0.343539,0.477010,-0.708309,-0.114252,-0.346518,0.324632
457,2328179398,-0.383386,0.341503,0.480995,-0.710657,-0.329909,-0.229413,0.279269
458,2328212732,-0.377188,0.338910,0.484574,-0.712781,-0.580201,-0.052407,0.076621
459,2328246066,-0.373767,0.338369,0.486402,-0.713594,-0.731927,0.048480,0.052564
460,2328279400,-0.373193,0.340411,0.486467,-0.712879,-0.697868,-0.021455,0.101604
461,2328312734,-0.374304,0.343441,0.485613,-0.711424,-0.599776,-0.314655,0.086190
462,2328346068,-0.375423,0.345028,0.484966,-0.710507,-0.520015,-0.419634,0.149442
463,2328379402,-0.375742,0.344321,0.484811,-0.710787,-0.578628,-0.289455,0.122730
464,2328412736,-0.375660,0.342726,0.484454,-0.711844,-0.655190,-0.116986,0.129590
465,2328446070,-0.375980,0.341805,0.483178,-0.712984,-0.674637,0.023827,0.153625
466,2328479404,-0.377242,0.342087,0.480764,-0.713814,-0.624754,0.091701,0.213762
467,2328512738,-0.379490,0.343232,0.477440,-0.714304,-0.539148,0.113797,0.105623
468,2328546072,-0.382306,0.344714,0.473747,-0.714547,-0.441591,0.147290,-0.003891
469,2328579406,-0.385327,0.346219,0.470237,-0.714515,-0.391718,0.179693,-0.121416
470,2328612740,-0.388433,0.347877,0.467233,-0.713998,-0.332671,0.163224,-0.247132
471,2328646074,-0.391281,0.349495,0.465096,-0.713049,-0.308930,0.108695,-0.278872
472,2328679408,-0.393417,0.350712,0.464146,-0.711893,-0.198631,0.010972,-0.270998
473,2328712742,-0.394322,0.350603,0.464918,-0.710941,-0.180548,-0.120537,-0.190428
474,2328746076,-0.393970,0.348857,0.467311,-0.710426,-0.219252,-0.209224,-0.199406
475,2328779410,-0.392716,0.345917,0.470863,-0.710213,-0.232631,-0.256296,-0.133151
476,2328812744,-0.390935,0.342353,0.474938,-0.710209,-0.280768,-0.353568,0.023258
477,2328846078,-0.388974,0.338279,0.478939,-0.710551,-0.296726,-0.401596,0.193902
478,2328879412,-0.387357,0.334061,0.482289,-0.711164,-0.325281,-0.402318,0.381796
479,2328912746,-0.386696,0.330443,0.484305,-0.711843,-0.285349,-0.339662,0.539850
480,2328946080,-0.387307,0.328048,0.484530,-0.712466,-0.257211,-0.278875,0.667443
481,2328979414,-0.389157,0.327438,0.482735,-0.712957,-0.181860,-0.155175,0.523296
482,2329012748,-0.391884,0.328807,0.479178,-0.713232,-0.076250,-0.134414,0.310834
483,2329046082,-0.394716,0.331255,0.474748,-0.713500,0.052279,-0.136417,0.109042
484,2329079416,-0.397183,0.333511,0.470464,-0.713918,0.183255,-0.103716,-0.083014
485,2329112750,-0.399123,0.334492,0.467130,-0.714566,0.278079,-0.051008,-0.117640
486,2329146084,-0.400817,0.333910,0.465023,-0.715264,0.339698,0.081398,-0.110199
487,2329179418,-0.402613,0.332444,0.463904,-0.715665,0.346501,0.188085,-0.049795
488,2329212752,-0.404655,0.331015,0.463280,-0.715579,0.374672,0.228952,0.009430
489,2329246086,-0.406778,0.330108,0.462690,-0.715176,0.439406,0.257779,-0.038022
490,2329279420,-0.408750,0.330038,0.461919,-0.714582,0.475273,0.293896,-0.070707
491,2329312754,-0.410547,0.331028,0.461103,-0.713621,0.491884,0.270654,-0.098161
492,2329346088,-0.412108,0.332582,0.460642,-0.712295,0.527641,0.150104,-0.138994
493,2329379422,-0.413329,0.334077,0.460918,-0.710707,0.540153,0.071818,-0.284165
494,2329412756,-0.413967,0.335011,0.462253,-0.709027,0.548719,0.006347,-0.175648
495,2329446090,-0.413821,0.335242,0.464628,-0.707450,0.485626,-0.092931,-0.060871
496,2329479424,-0.412882,0.334895,0.467845,-0.706041,0.402634,-0.159491,0.007112
497,2329512758,-0.411418,0.334418,0.471474,-0.704706,0.316886,-0.265078,0.138599
498,2329546092,-0.409656,0.333951,0.475151,-0.703484,0.272677,-0.337640,0.204859
499,2329579426,-0.407577,0.333465,0.478676,-0.702531,0.224008,-0.465908,0.185647
500,2329612760,-0.405101,0.332704,0.481985,-0.702061,0.154647,-0.589667,0.142219
501,2329646094,-0.402352,0.331680,0.484933,-0.702096,0.063964,-0.609588,0.145004
502,2329679428,-0.399654,0.330682,0.487269,-0.702491,0.002957,-0.627624,0.192579
503,2329712762,-0.397291,0.329921,0.488798,-0.703127,-0.017986,-0.639680,0.225054
504,2329746096,-0.395394,0.329442,0.489441,-0.703973,-0.054923,-0.633843,0.231782
505,2329779430,-0.393893,0.329215,0.489198,-0.705089,-0.050620,-0.598390,0.191021
506,2329812764,-0.392484,0.329112,0.488241,-0.706584,-0.014020,-0.516572,0.204477
507,2329846098,-0.390849,0.328861,0.486931,-0.708509,-0.004457,-0.463825,0.204275
508,2329879432,-0.388997,0.328286,0.485507,-0.710769,0.005458,-0.331501,0.169308
509,2329912766,-0.387203,0.327591,0.483990,-0.713100,0.036128,-0.184813,0.171410
510,2329946100,-0.385548,0.326894,0.482366,-0.715413,0.027707,-0.078935,0.127877
511,2329979434,-0.384006,0.326246,0.480686,-0.717665,0.077851,0.013251,0.088879
512,2330012768,-0.382541,0.325512,0.479090,-0.719844,0.087220,0.091155,0.096341
513,2330046102,-0.381170,0.324684,0.477702,-0.721865,0.107058,0.206494,0.116424
514,2330079436,-0.379926,0.323977,0.476512,-0.723624,0.100614,0.244665,0.152031
515,2330112770,-0.378664,0.323249,0.475530,-0.725255,0.111807,0.358196,0.193350
516,2330146104,-0.377358,0.322614,0.474670,-0.726779,0.091277,0.430350,0.169841
517,2330179438,-0.376035,0.322277,0.473874,-0.728133,0.074404,0.485952,0.148418
518,2330212772,-0.374778,0.322284,0.473162,-0.729240,0.014629,0.509779,0.119319
519,2330246106,-0.373747,0.322727,0.472542,-0.729975,-0.003003,0.493510,0.046679
520,2330279440,-0.372983,0.323352,0.472138,-0.730350,0.010238,0.486910,0.020178
521,2330312774,-0.372422,0.323811,0.472072,-0.730476,-0.026637,0.473048,-0.045877
522,2330346108,-0.372114,0.324068,0.472408,-0.730302,-0.052763,0.441376,-0.115967
523,2330379442,-0.372226,0.324261,0.473129,-0.729692,-0.094939,0.367493,-0.110432
524,2330412776,-0.372784,0.324204,0.474137,-0.728778,-0.143301,0.272713,-0.215772
525,2330446110,-0.373767,0.324058,0.475169,-0.727667,-0.151953,0.254232,-0.303371
526,2330479444,-0.375133,0.324275,0.476000,-0.726322,-0.180066,0.314355,-0.023211
527,2330512778,-0.376997,0.325474,0.476396,-0.724559,-0.214624,0.312604,0.163324
528,2330546112,-0.379016,0.327872,0.476446,-0.722389,-0.187334,0.275892,0.148146
529,2330579446,-0.380499,0.330741,0.476829,-0.720044,-0.140417,0.036969,0.269788
530,2330612780,-0.380635,0.332170,0.478367,-0.718293,-0.167896,-0.164559,0.198320
531,2330646114,-0.379140,0.331377,0.481302,-0.717488,-0.224154,-0.257259,-0.022768
532,2330679448,-0.376468,0.328983,0.485082,-0.717451,-0.375186,-0.307048,-0.156783
533,2330712782,-0.373480,0.326034,0.488872,-0.717787,-0.427534,-0.364224,-0.122925
534,2330746116,-0.370946,0.323267,0.491954,-0.718246,-0.473695,-0.360954,0.017588
535,2330779450,-0.369657,0.321349,0.493724,-0.718557,-0.481095,-0.289100,0.057224
536,2330812784,-0.369829,0.320992,0.493968,-0.718461,-0.411097,-0.294782,0.030085
537,2330846118,-0.370939,0.321938,0.492882,-0.718211,-0.308567,-0.366139,0.087690
538,2330879452,-0.371940,0.323045,0.491149,-0.718383,-0.182609,-0.372328,0.078479
539,2330912786,-0.372216,0.323619,0.489358,-0.719204,-0.129217,-0.312681,0.082466
540,2330946120,-0.371689,0.323507,0.487700,-0.720651,-0.117076,-0.232768,0.092185
541,2330979454,-0.370807,0.323056,0.485984,-0.722465,-0.124958,-0.068047,0.109366
542,2331012788,-0.370028,0.322884,0.483899,-0.724338,-0.107089,0.080380,0.082173
543,2331046122,-0.369518,0.323505,0.481286,-0.726060,-0.080529,0.183048,0.007627
544,2331079456,-0.369009,0.324868,0.478314,-0.727673,-0.090289,0.254730,-0.196593
545,2331112790,-0.368038,0.326762,0.475498,-0.729161,-0.027844,0.355666,0.044652
546,2331146124,-0.366233,0.328272,0.473641,-0.730598,-0.033671,0.498897,0.496713
547,2331179458,-0.363738,0.328633,0.473264,-0.731925,-0.060288,0.600861,0.630524
548,2331212792,-0.361113,0.328223,0.474021,-0.732919,-0.234631,0.565113,0.136840
549,2331246126,-0.358755,0.328081,0.475316,-0.733301,-0.214396,0.475326,-0.333159
550,2331279460,-0.356752,0.327694,0.477226,-0.733212,-0.183948,0.305933,-0.362043
551,2331312794,-0.355437,0.325972,0.480109,-0.732736,-0.180724,0.198212,-0.217332
552,2331346128,-0.355664,0.323205,0.483708,-0.731483,-0.165017,0.187850,-0.058754
553,2331379462,-0.358114,0.320607,0.487261,-0.729069,-0.175097,0.130996,0.068005
554,2331412796,-0.362713,0.319286,0.489963,-0.725556,-0.080800,0.045272,0.131891
555,2331446130,-0.368731,0.319454,0.491622,-0.721313,0.064272,-0.165724,0.170062
556,2331479464,-0.374766,0.319889,0.492844,-0.717165,0.158954,-0.390304,0.153332
557,2331512798,-0.380129,0.319760,0.494125,-0.713509,0.292126,-0.524885,0.193498
558,2331546132,-0.384801,0.318879,0.495593,-0.710374,0.298544,-0.523493,0.239901
559,2331579466,-0.389524,0.318418,0.496707,-0.707221,0.287793,-0.511484,0.217300
560,2331612800,-0.394837,0.319353,0.496978,-0.703654,0.347495,-0.581365,0.095540
561,2331646134,-0.400462,0.321615,0.496438,-0.699816,0.421308,-0.747738,-0.082462
562,2331679468,-0.405472,0.324268,0.495675,-0.696238,0.524603,-0.903253,-0.121319
563,2331712802,-0.408928,0.326039,0.495420,-0.693567,0.601342,-0.980021,0.008075
564,2331746136,-0.410621,0.326437,0.495895,-0.692038,0.551417,-0.984345,0.123329
565,2331779470,-0.411078,0.326186,0.496589,-0.691387,0.433708,-0.883953,0.202591
566,2331812804,-0.411079,0.326712,0.496532,-0.691179,0.339678,-0.761533,0.217596
567,2331846138,-0.411036,0.328723,0.495178,-0.691222,0.253358,-0.733771,0.179187
568,2331879472,-0.410793,0.332030,0.492633,-0.691604,0.226920,-0.736192,0.109171
569,2331912806,-0.410045,0.335775,0.489431,-0.692513,0.161803,-0.677125,0.056386
570,2331946140,-0.408658,0.339349,0.485978,-0.694021,0.099122,-0.653904,-0.076979
571,2331979474,-0.406700,0.342359,0.482674,-0.695996,0.137840,-0.514573,0.127160
572,2332012808,-0.404467,0.343558,0.480152,-0.698447,0.051409,-0.336745,0.590782
573,2332046142,-0.403098,0.343911,0.477637,-0.700784,-0.138990,-0.101637,0.363837
574,2332079476,-0.403114,0.345682,0.474028,-0.702353,-0.227056,0.054078,0.058512
575,2332112810,-0.403939,0.349432,0.469179,-0.703278,-0.122809,0.097703,-0.044679
576,2332146144,-0.404529,0.353633,0.464224,-0.704128,-0.027135,0.058080,-0.033018
577,2332179478,-0.404485,0.356593,0.460368,-0.705191,0.045995,0.095219,0.011864
578,2332212812,-0.404121,0.357435,0.458253,-0.706350,0.047755,0.211649,0.013390
579,2332246146,-0.404075,0.357094,0.457342,-0.707138,0.010445,0.292890,0.105082
580,2332279480,-0.404557,0.357728,0.456211,-0.707273,0.022831,0.098716,0.455585
581,2332312814,-0.404868,0.360936,0.452706,-0.707717,0.083056,-0.243704,0.862748
582,2332346148,-0.403914,0.367910,0.445222,-0.709416,0.287475,-0.435969,0.941734
583,2332379482,-0.400713,0.378122,0.434728,-0.712364,0.659911,-0.478844,0.399003
584,2332412816,-0.395585,0.389829,0.423349,-0.715766,0.338384,-0.615334,0.257981
585,2332446150,-0.390137,0.400907,0.412198,-0.719137,0.350326,-0.637010,-0.026118
586,2332479484,-0.384802,0.408641,0.402903,-0.722916,0.288842,-0.460306,-0.342892
587,2332512818,-0.379931,0.412001,0.396338,-0.727202,0.197465,-0.126672,-0.592248
588,2332546152,-0.376230,0.412170,0.392412,-0.731149,0.003629,0.297665,-0.773815
589,2332579486,-0.374471,0.410997,0.390727,-0.733611,-0.169936,0.559721,-0.795903
590,2332612820,-0.374508,0.408716,0.391306,-0.734556,-0.180934,0.682667,-0.622790
591,2332646154,-0.375451,0.404422,0.394475,-0.734757,-0.248372,0.763785,-0.404626
592,2332679488,-0.376343,0.397743,0.400047,-0.734934,-0.314423,0.841384,-0.347466
593,2332712822,-0.377138,0.389843,0.407220,-0.734820,-0.417143,0.872370,-0.174765
594,2332746156,-0.378372,0.382106,0.414948,-0.733926,-0.490517,0.849528,-0.017849
595,2332779490,-0.380632,0.375323,0.422309,-0.732056,-0.473944,0.664237,-0.016234
596,2332812824,-0.383977,0.369488,0.428953,-0.729410,-0.365504,0.498277,0.026564
597,2332846158,-0.388453,0.364045,0.434897,-0.726250,-0.297055,0.376651,0.230252
598,2332879492,-0.394083,0.358939,0.439932,-0.722717,-0.298103,0.263139,0.342539
599,2332912826,-0.400804,0.355114,0.443600,-0.718657,-0.219654,0.247306,0.396524
600,2332946160,-0.408049,0.352905,0.445861,-0.714256,-0.158024,0.098288,0.488169
601,2332979494,-0.414714,0.351811,0.447047,-0.710203,-0.058718,-0.057773,0.425733
602,2333012828,-0.419751,0.351124,0.447582,-0.707241,-0.016611,-0.167510,0.272467
603,2333046162,-0.422817,0.350544,0.447746,-0.705597,0.025100,-0.229386,0.169772
604,2333079496,-0.424299,0.349954,0.447840,-0.704940,0.060448,-0.168112,0.126945
605,2333112830,-0.424996,0.349571,0.448043,-0.704582,0.053627,-0.192679,0.127478
606,2333146164,-0.425455,0.349314,0.448498,-0.704142,0.104452,-0.245060,0.132105
607,2333179498,-0.425690,0.348957,0.449335,-0.703643,0.099567,-0.338195,0.146818
608,2333212832,-0.425196,0.348167,0.450377,-0.703667,0.060939,-0.451164,0.104115
609,2333246166,-0.423339,0.346986,0.451435,-0.704691,0.011824,-0.353318,0.180156
610,2333279500,-0.419948,0.345748,0.452369,-0.706727,-0.070234,-0.291727,0.219301
611,2333312834,-0.415367,0.344638,0.452981,-0.709579,-0.120266,-0.239806,0.208186
612,2333346168,-0.410414,0.343745,0.453090,-0.712817,-0.178704,-0.140589,0.124139
613,2333379502,-0.405750,0.342983,0.452784,-0.716041,-0.176153,-0.023671,0.082553
614,2333412836,-0.401713,0.342280,0.452272,-0.718972,-0.175579,-0.003432,0.000265
615,2333446170,-0.398279,0.341238,0.451854,-0.721635,-0.165070,0.030642,-0.044746
616,2333479504,-0.395502,0.339874,0.451588,-0.723969,-0.161686,0.122127,-0.060878
617,2333512838,-0.393390,0.338413,0.451485,-0.725866,-0.133253,0.227211,-0.001767
618,2333546172,-0.391815,0.336959,0.451628,-0.727304,-0.077143,0.246950,0.018748
619,2333579506,-0.390649,0.335551,0.452177,-0.728240,-0.042153,0.238635,-0.009673
620,2333612840,-0.389804,0.334238,0.453231,-0.728641,0.043846,0.242972,-0.085481
621,2333646174,-0.388999,0.332831,0.455043,-0.728586,0.148985,0.185717,-0.108502
622,2333679508,-0.388062,0.330822,0.457864,-0.728234,0.181359,0.141566,-0.119774
623,2333712842,-0.387187,0.328103,0.461653,-0.727538,0.252174,0.074388,-0.071860
624,2333746176,-0.386606,0.324641,0.466033,-0.726606,0.233382,-0.016934,-0.006903
625,2333779510,-0.386487,0.320955,0.470216,-0.725611,0.265520,-0.080376,-0.044024
626,2333812844,-0.386872,0.317623,0.473577,-0.724685,0.279139,-0.099193,0.058238
627,2333846178,-0.387967,0.315101,0.475726,-0.723794,0.340052,-0.135681,0.316051
628,2333879512,-0.390065,0.313419,0.476439,-0.722927,0.396309,-0.097702,0.522809
629,2333912846,-0.393521,0.313133,0.475298,-0.721927,0.397663,0.081573,0.579777
630,2333946180,-0.398394,0.315729,0.471832,-0.720397,0.385312,0.248790,0.533909
631,2333979514,-0.403897,0.321770,0.466302,-0.718256,0.431286,0.296856,0.376044
632,2334012848,-0.408620,0.330144,0.459945,-0.715880,0.519759,0.212210,0.043913
633,2334046182,-0.411372,0.338339,0.454664,-0.713848,0.622315,0.083095,-0.197364
634,2334079516,-0.412020,0.344207,0.451807,-0.712482,0.567577,0.061054,-0.641839
635,2334112850,-0.411428,0.347526,0.452082,-0.711038,0.579575,0.079704,-0.881593
636,2334146184,-0.410666,0.348467,0.455855,-0.708604,0.517842,0.022717,-0.788370
637,2334179518,-0.410551,0.347481,0.462816,-0.704631,0.452835,-0.217422,-0.538849
638,2334212852,-0.411233,0.344799,0.472470,-0.699122,0.451602,-0.472300,-0.077892
639,2334246186,-0.411771,0.339922,0.484221,-0.693128,0.413498,-0.867846,0.407592
640,2334279520,-0.410872,0.333305,0.496427,-0.688223,0.195927,-1.211481,0.478595
641,2334312854,-0.407718,0.326362,0.507507,-0.685339,0.100177,-1.336829,0.671838
642,2334346188,-0.402316,0.320101,0.516105,-0.685064,-0.129184,-1.371874,0.849371
643,2334379522,-0.395949,0.316376,0.521039,-0.686766,-0.243882,-1.220817,0.634041
644,2334412856,-0.390031,0.316485,0.521807,-0.689514,-0.341947,-1.094948,0.423977
645,2334446190,-0.385439,0.320201,0.518750,-0.692680,-0.308215,-1.016929,0.339078
646,2334479524,-0.382307,0.325721,0.513168,-0.695992,-0.140149,-0.880594,0.242743
647,2334512858,-0.380273,0.330989,0.506427,-0.699549,-0.055464,-0.717980,0.158947
648,2334546192,-0.379312,0.335038,0.499388,-0.703194,-0.010691,-0.419234,0.056039
649,2334579526,-0.379602,0.338127,0.492348,-0.706515,-0.071166,-0.080776,0.049088
650,2334612860,-0.381356,0.341602,0.484970,-0.708998,-0.104381,0.203510,-0.022589
651,2334646194,-0.383984,0.345631,0.477452,-0.710728,-0.024142,0.319143,0.033983
652,2334679528,-0.386599,0.349160,0.470242,-0.712390,0.042844,0.510129,0.056778
653,2334712862,-0.389120,0.352030,0.463316,-0.714141,0.048923,0.801165,-0.016703
654,2334746196,-0.392248,0.355285,0.456270,-0.715354,-0.030564,1.060976,-0.145578
655,2334779530,-0.396670,0.359859,0.448880,-0.715305,0.064610,1.250609,-0.052531
656,2334812864,-0.402557,0.365549,0.441425,-0.713768,0.116102,1.337070,-0.109381
657,2334846198,-0.409686,0.372047,0.434258,-0.710744,0.168939,1.349562,-0.266913
658,2334879532,-0.417568,0.378928,0.427853,-0.706393,0.230057,1.269684,-0.312474
659,2334912866,-0.425563,0.385145,0.423071,-0.701120,0.261263,1.147756,-0.138185
660,2334946200,-0.433299,0.389582,0.420622,-0.695381,0.237482,1.018585,-0.013389
661,2334979534,-0.440746,0.392318,0.420509,-0.689204,0.100491,0.906627,0.017782
662,2335012868,-0.447939,0.394225,0.422260,-0.682372,0.002747,0.700910,0.171804
663,2335046202,-0.454558,0.395148,0.425493,-0.675419,-0.109758,0.431348,0.246877
664,2335079536,-0.460142,0.394838,0.430059,-0.668895,-0.156491,0.116938,0.239417
665,2335112870,-0.464312,0.392988,0.436128,-0.663149,-0.275651,-0.179471,0.336446
666,2335146204,-0.467404,0.389743,0.443053,-0.658284,-0.381609,-0.304172,0.413033
667,2335179538,-0.470457,0.386469,0.449473,-0.653670,-0.522081,-0.434346,0.385182
668,2335212872,-0.474770,0.385063,0.453417,-0.648638,-1.202162,-0.243253,0.210437
669,2335246206,-0.483874,0.390237,0.449620,-0.641422,-1.397912,-1.132019,0.486420
670,2335279540,-0.494322,0.395830,0.442444,-0.634986,-0.692555,-1.395554,0.116323
671,2335312874,-0.503053,0.398962,0.436792,-0.630063,-0.448060,-1.035350,-0.139168
672,2335346208,-0.509320,0.400085,0.433298,-0.626720,-0.311452,-0.867696,0.022578
673,2335379542,-0.513111,0.399046,0.431751,-0.625356,-0.324666,-0.576773,0.000213
674,2335412876,-0.515094,0.398061,0.430569,-0.625168,-0.300317,-0.391743,0.115613
675,2335446210,-0.515330,0.398607,0.428758,-0.625870,-0.265078,-0.429308,0.072937
676,2335479544,-0.513604,0.399417,0.426867,-0.628061,-0.479598,-0.436999,0.079250
677,2335512878,-0.511068,0.400553,0.423846,-0.631443,-0.667114,-0.176994,0.054940
678,2335546212,-0.508821,0.404857,0.417412,-0.634790,-0.728482,-0.564719,0.492414
679,2335579546,-0.506683,0.414049,0.404968,-0.638620,-0.946398,-0.514889,0.722984
680,2335612880,-0.503677,0.427977,0.385856,-0.643630,-0.303263,-1.066742,0.693734
681,2335646214,-0.497092,0.441530,0.365665,-0.651337,-0.285949,-0.915869,0.209208
682,2335679548,-0.487337,0.452618,0.347760,-0.660834,-0.418262,-1.011610,0.266693
683,2335712882,-0.475212,0.459537,0.333802,-0.671993,-0.574740,-0.633437,-0.048013
684,2335746216,-0.461653,0.462458,0.324546,-0.683870,-0.507663,-0.310463,-0.585967
685,2335779550,-0.446874,0.462240,0.320105,-0.695822,-0.415575,0.060415,-0.971385
686,2335812884,-0.431256,0.459767,0.320150,-0.707202,-0.344091,0.431372,-1.227661
687,2335846218,-0.415154,0.454862,0.325042,-0.717700,-0.231777,0.682680,-1.068747
688,2335879552,-0.399386,0.446293,0.335152,-0.727313,-0.288682,1.071857,-0.880872
689,2335912886,-0.384988,0.434623,0.349504,-0.735346,-0.307165,1.371252,-0.914926
690,2335946220,-0.372565,0.421549,0.366557,-0.741031,-0.391407,1.509925,-0.863930
691,2335979554,-0.362086,0.408881,0.384695,-0.744123,-0.394338,1.472652,-0.659530
692,2336012888,-0.353196,0.397636,0.403107,-0.744743,-0.339621,1.418857,-0.549212
693,2336046222,-0.345256,0.387930,0.421676,-0.743302,-0.094620,1.185413,-0.209152
694,2336079556,-0.338137,0.379803,0.439782,-0.740273,-0.068799,0.879096,0.449286
695,2336112890,-0.331802,0.373101,0.456572,-0.736372,0.374091,0.774880,0.559141
696,2336146224,-0.325877,0.367409,0.472752,-0.731655,0.856862,0.481369,0.589767
697,2336179558,-0.320095,0.363073,0.488100,-0.726274,0.994238,0.297137,0.327761
698,2336212892,-0.315325,0.360949,0.502729,-0.719408,0.369901,0.447158,0.380832
699,2336246226,-0.314720,0.364702,0.514861,-0.709127,0.397752,0.601179,0.391591
700,2336279560,-0.322937,0.379558,0.520788,-0.693127,-0.049689,0.532563,0.621971
701,2336312894,-0.336860,0.399271,0.520486,-0.675427,0.889598,-1.602193,1.356984
702,2336346228,-0.349942,0.411081,0.517849,-0.663614,0.838325,-1.637846,0.948653
703,2336379562,-0.361802,0.420048,0.513567,-0.654910,1.033663,-1.326205,0.264700
704,2336412896,-0.370772,0.426916,0.509613,-0.648509,1.188640,-1.100423,0.107376
705,2336446230,-0.376435,0.430152,0.507404,-0.644830,1.365452,-1.141107,0.237256
706,2336479564,-0.379263,0.428937,0.507143,-0.644188,1.238796,-0.765795,0.224329
707,2336512898,-0.381357,0.426208,0.507386,-0.644571,1.153982,-0.568675,0.185956
708,2336546232,-0.383437,0.422649,0.507744,-0.645398,1.096301,-0.427401,0.069628
709,2336579566,-0.385793,0.419182,0.507979,-0.646070,0.979860,-0.297441,-0.000999
710,2336612900,-0.388410,0.416395,0.507532,-0.646655,0.846193,-0.405759,-0.004436
711,2336646234,-0.390972,0.413045,0.506421,-0.648129,0.731457,-0.430941,0.111814
712,2336679568,-0.392948,0.407337,0.505177,-0.651508,0.742760,-0.343657,0.249394
713,2336712902,-0.393999,0.399671,0.504210,-0.656353,0.716788,-0.135661,0.101523
714,2336746236,-0.394909,0.392064,0.503317,-0.661062,0.534918,0.185395,0.039228
715,2336779570,-0.396627,0.386157,0.502213,-0.664343,0.281728,0.369254,-0.112904
716,2336812904,-0.399883,0.383301,0.500432,-0.665388,0.083547,0.456417,-0.243912
717,2336846238,-0.405265,0.384804,0.497149,-0.663723,0.082472,0.295031,-0.288734
718,2336879572,-0.412101,0.389121,0.492777,-0.660248,0.321362,0.157935,-0.114147
719,2336912906,-0.419746,0.393951,0.487928,-0.656156,0.514711,0.215302,-0.169303
720,2336946240,-0.428304,0.398616,0.482905,-0.651509,0.719748,0.530068,-0.055553
721,2336979574,-0.438603,0.404332,0.477215,-0.645297,0.686164,0.789388,-0.179670
722,2337012908,-0.450566,0.412762,0.470542,-0.636559,0.753359,0.660504,-0.317465
723,2337046242,-0.462797,0.423473,0.463559,-0.625781,0.762331,0.392730,-0.290242
724,2337079576,-0.473437,0.434467,0.457873,-0.614367,0.714542,0.094664,-0.087357
725,2337112910,-0.481103,0.443162,0.455331,-0.604003,0.469540,-0.085933,0.148493
726,2337146244,-0.487736,0.450191,0.453571,-0.594738,-1.657814,-0.348309,1.045010
727,2337179578,-0.497470,0.456442,0.449054,-0.585264,-2.940725,-0.193801,1.418024
728,2337212912,-0.510507,0.464010,0.440966,-0.574131,-2.841098,-0.007967,1.101733
729,2337246246,-0.523883,0.472756,0.431587,-0.561943,-2.157687,-0.412260,0.660641
730,2337279580,-0.532828,0.477862,0.425689,-0.553651,-1.515608,-0.896702,0.298470
731,2337312914,-0.536327,0.476534,0.425019,-0.551930,-0.913712,-0.922967,-0.163293
732,2337346248,-0.536891,0.471519,0.427068,-0.554103,-0.735951,-0.668764,-0.537003
733,2337379582,-0.537230,0.465824,0.429372,-0.556804,-0.491866,-0.279084,-0.682409
734,2337412916,-0.538498,0.461545,0.430918,-0.557947,0.051648,-0.527906,-0.562649
735,2337446250,-0.538839,0.456988,0.433754,-0.559170,0.370030,-0.576511,-0.364457
736,2337479584,-0.536794,0.451928,0.438071,-0.561877,0.351354,-0.543035,-0.335821
737,2337512918,-0.532095,0.447255,0.442924,-0.566265,0.119723,-0.319236,-0.339997
738,2337546252,-0.526692,0.442715,0.447402,-0.571340,-1.122728,0.475519,0.092828
739,2337579586,-0.523586,0.438343,0.449461,-0.575931,-1.647596,0.440055,0.281672
740,2337612920,-0.523218,0.433918,0.449651,-0.579458,-1.221605,0.515171,-0.118962
741,2337646254,-0.524731,0.432601,0.447683,-0.580596,-0.399721,0.296063,-0.273684
742,2337679588,-0.526416,0.433499,0.444942,-0.580508,0.137846,0.076226,-0.090940
743,2337712922,-0.526755,0.434286,0.442960,-0.581129,0.366955,-0.019188,-0.038404
744,2337746256,-0.525021,0.434187,0.442333,-0.583246,0.272906,-0.022074,-0.151557
745,2337779590,-0.520938,0.433256,0.443365,-0.586805,0.001719,0.202695,-0.335821
746,2337812924,-0.515137,0.432331,0.445479,-0.590992,-0.441399,0.203938,-0.265594
747,2337846258,-0.508616,0.430525,0.448608,-0.595574,-1.108445,0.387666,-0.080347
748,2337879592,-0.503714,0.429954,0.450262,-0.598894,-1.284757,0.508077,-0.135534
749,2337912926,-0.500614,0.432295,0.449672,-0.600250,-0.785662,0.176268,-0.230727
750,2337946260,-0.497802,0.436321,0.448027,-0.600906,-0.693323,-0.156517,-0.327000
751,2337979594,-0.493774,0.439566,0.446893,-0.602706,-0.672130,-0.454297,-0.373775
752,2338012928,-0.488269,0.441293,0.446885,-0.605926,-0.661256,-0.394941,-0.468309
753,2338046262,-0.482019,0.442754,0.447575,-0.609345,-0.541930,-0.265188,-0.378854
754,2338079596,-0.474682,0.443142,0.449709,-0.613240,-0.554239,-0.360018,-0.106500
755,2338112930,-0.466680,0.442901,0.452875,-0.617213,-0.692407,-0.117161,0.432103
756,2338146264,-0.458879,0.442623,0.456194,-0.620807,-0.720959,-0.123889,1.041205
757,2338179598,-0.450942,0.440189,0.459910,-0.625593,-0.781823,-0.072377,0.653132
758,2338212932,-0.442791,0.436609,0.463746,-0.631068,-0.479036,0.222161,-0.234931
759,2338246266,-0.433998,0.433382,0.467810,-0.636380,-0.094257,0.196128,-0.560914
760,2338279600,-0.423877,0.428992,0.473404,-0.642014,0.099425,0.079472,-0.285199
761,2338312934,-0.412686,0.421075,0.481275,-0.648660,0.181573,0.097397,0.239389
762,2338346268,-0.401627,0.409269,0.490668,-0.656078,0.168040,0.347559,0.523390
763,2338379602,-0.392943,0.396950,0.499119,-0.662499,0.136849,0.608000,0.531817
764,2338412936,-0.387993,0.388172,0.504471,-0.666552,0.085328,0.597959,0.289369
765,2338446270,-0.386670,0.383990,0.506479,-0.668218,0.280993,0.391388,0.257495
766,2338479604,-0.387600,0.381903,0.506534,-0.668834,0.566457,0.135534,0.380685
767,2338512938,-0.389661,0.379069,0.506121,-0.669560,0.854045,0.065246,0.651271
768,2338546272,-0.392976,0.374898,0.505667,-0.670314,0.904854,0.204548,0.496733
769,2338579606,-0.397806,0.370927,0.504878,-0.670269,1.028052,0.196615,0.065569
770,2338612940,-0.403399,0.368264,0.503817,-0.669192,1.141157,0.125510,-0.148937
771,2338646274,-0.408595,0.366628,0.502864,-0.667653,1.301495,-0.035245,-0.182581
772,2338679608,-0.411922,0.364380,0.502864,-0.666839,1.506526,-0.174153,-0.130991
773,2338712942,-0.412584,0.360307,0.504428,-0.667461,1.484156,-0.165355,0.034448
774,2338746276,-0.411515,0.355492,0.506824,-0.668886,1.299332,-0.065966,0.145082
775,2338779610,-0.410176,0.351907,0.508821,-0.670088,1.212698,-0.024919,0.077621
776,2338812944,-0.409108,0.350216,0.509928,-0.670784,1.188887,-0.083502,0.008524
777,2338846278,-0.408404,0.349854,0.510161,-0.671225,1.118020,-0.173719,-0.024399
778,2338879612,-0.408234,0.350201,0.509806,-0.671417,1.147820,-0.182834,0.022962
779,2338912946,-0.408539,0.350626,0.509319,-0.671380,1.163488,-0.191678,0.241583
780,2338946280,-0.409086,0.350695,0.509062,-0.671205,1.090718,-0.165475,0.302102
781,2338979614,-0.409568,0.350561,0.509023,-0.671011,0.994269,-0.317824,0.243060
782,2339012948,-0.409407,0.350067,0.508970,-0.671407,0.859794,-0.413878,0.157183
783,2339046282,-0.408246,0.349283,0.508551,-0.672839,0.756751,-0.399095,0.039204
784,2339079616,-0.406312,0.348920,0.507512,-0.674979,0.628501,-0.259077,0.133517
785,2339112950,-0.404615,0.349631,0.505759,-0.676943,0.522313,-0.147875,0.459463
786,2339146284,-0.404406,0.351769,0.502921,-0.678074,0.363835,-0.115185,0.170519
787,2339179618,-0.406139,0.355917,0.498433,-0.678187,0.315582,-0.031907,-0.258682
788,2339212952,-0.408713,0.362383,0.492571,-0.677499,0.312591,-0.005221,-0.502324
789,2339246286,-0.410339,0.370099,0.486494,-0.676735,0.196212,-0.061003,-0.454255
790,2339279620,-0.410196,0.377588,0.481330,-0.676378,0.090289,-0.184791,-0.198563
791,2339312954,-0.408397,0.383106,0.477732,-0.676915,-0.020623,-0.042785,-0.108984
792,2339346288,-0.406437,0.385932,0.475346,-0.678167,-0.467447,0.379803,0.057215
793,2339379622,-0.406846,0.384181,0.474024,-0.679839,-1.882978,0.951699,0.143016
794,2339412956,-0.412897,0.384182,0.471007,-0.678286,-2.020273,0.975034,0.273125
795,2339446290,-0.422992,0.388211,0.466308,-0.672998,-1.564577,0.815471,0.271241
796,2339479624,-0.433318,0.394014,0.461704,-0.666196,-1.186731,0.301468,0.525722
797,2339512958,-0.440324,0.395559,0.459593,-0.662134,-1.233362,0.080645,0.484365
798,2339546292,-0.444302,0.393807,0.458694,-0.661144,-1.106114,0.148224,-0.126195
799,2339579626,-0.447329,0.393276,0.456677,-0.660815,-0.782975,0.011287,-0.377347
800,2339612960,-0.450249,0.394125,0.453525,-0.660496,-0.586515,-0.193864,-0.379577
801,2339646294,-0.453629,0.395714,0.449440,-0.660025,-0.340899,-0.294439,-0.392740
802,2339679628,-0.457288,0.397611,0.445074,-0.659318,-0.146820,-0.225648,-0.233277
803,2339712962,-0.460547,0.399771,0.440989,-0.658489,-0.205481,-0.051464,-0.181603
804,2339746296,-0.462503,0.402187,0.437903,-0.657706,-0.190844,-0.069479,-0.205706
805,2339779630,-0.461895,0.404749,0.436314,-0.657617,-0.348707,-0.077099,-0.101712
806,2339812964,-0.458579,0.406659,0.436409,-0.658696,-0.544782,-0.109448,-0.032467
807,2339846298,-0.452904,0.406132,0.438363,-0.661643,-0.889836,-0.051725,-0.005191
808,2339879632,-0.446060,0.401579,0.442065,-0.666590,-1.472400,0.137936,0.058343
809,2339912966,-0.440338,0.396484,0.445268,-0.671296,-1.335719,0.454269,0.102442
810,2339946300,-0.436675,0.394353,0.446348,-0.674220,-0.959539,0.441254,0.740449
811,2339979634,-0.434487,0.393305,0.446401,-0.676208,-0.703754,0.454353,0.892811
812,2340012968,-0.433063,0.392987,0.445472,-0.677917,-0.503006,0.342077,0.563419
813,2340046302,-0.431940,0.393073,0.444172,-0.679434,-0.343034,0.273050,-0.029492
814,2340079636,-0.430114,0.392626,0.443687,-0.681166,-0.341891,0.039214,-0.383057
815,2340112970,-0.427497,0.390500,0.445012,-0.683168,-0.353777,-0.133703,-0.371180
816,2340146304,-0.424294,0.385627,0.448839,-0.685426,-0.224474,-0.232076,-0.221023
817,2340179638,-0.421164,0.377801,0.455031,-0.687629,-0.141201,-0.174546,-0.091178
818,2340212972,-0.418976,0.368548,0.462255,-0.689166,-0.114463,-0.123413,0.010534
819,2340246306,-0.418319,0.359939,0.468979,-0.689573,-0.048829,-0.180566,-0.052245
820,2340279640,-0.419053,0.353022,0.474646,-0.688825,0.174370,-0.395235,-0.043376
821,2340312974,-0.420099,0.346426,0.479964,-0.687851,0.372784,-0.688535,0.166928
822,2340346308,-0.420373,0.338397,0.485651,-0.687688,0.621250,-0.825693,0.328418
823,2340379642,-0.419603,0.328862,0.491556,-0.688589,0.697343,-0.765293,0.396724
824,2340412976,-0.418435,0.319842,0.496409,-0.690065,0.715859,-0.629719,0.361855
825,2340446310,-0.417572,0.313538,0.499040,-0.691583,0.757982,-0.572489,0.156082
826,2340479644,-0.416868,0.310276,0.499395,-0.693219,0.969092,-0.570390,0.090778
827,2340512978,-0.415682,0.308716,0.498374,-0.695360,1.150010,-0.596945,0.125574
828,2340546312,-0.413696,0.307400,0.496838,-0.698221,1.204841,-0.527025,0.079373
829,2340579646,-0.411290,0.306187,0.494916,-0.701532,1.209377,-0.307997,0.111257
830,2340612980,-0.408978,0.305889,0.492344,-0.704816,1.172721,-0.048179,0.043707
831,2340646314,-0.406890,0.307249,0.489000,-0.707754,1.105503,0.066838,-0.066999
832,2340679648,-0.404838,0.310282,0.485063,-0.710313,1.091638,0.176656,-0.088509
833,2340712982,-0.402592,0.314445,0.480989,-0.712525,1.000114,0.236338,-0.076906
834,2340746316,-0.399892,0.319114,0.477226,-0.714498,0.915948,0.278605,-0.086423
835,2340779650,-0.396470,0.323663,0.474227,-0.716354,0.831444,0.329438,-0.046873
836,2340812984,-0.392317,0.327513,0.472293,-0.718165,0.698114,0.387366,0.080424
837,2340846318,-0.387769,0.330509,0.471474,-0.719799,0.503268,0.375495,0.144814
838,2340879652,-0.383269,0.332709,0.471454,-0.721207,0.277772,0.411642,0.149559
839,2340912986,-0.379199,0.334744,0.471684,-0.722266,0.082907,0.437576,0.056164
840,2340946320,-0.375884,0.337250,0.471742,-0.722795,-0.091064,0.441579,0.051843
841,2340979654,-0.373602,0.340486,0.471477,-0.722634,-0.220544,0.422140,0.056562
842,2341012988,-0.372677,0.344073,0.471030,-0.721703,-0.298513,0.301872,0.021486
843,2341046322,-0.373127,0.347273,0.470698,-0.720153,-0.328104,0.233998,-0.013367
844,2341079656,-0.374933,0.349661,0.470683,-0.718066,-0.376251,0.178985,-0.030024
845,2341112990,-0.377939,0.351287,0.470890,-0.715557,-0.398749,0.119305,0.006367
846,2341146324,-0.382078,0.352406,0.471116,-0.712653,-0.421784,0.062350,0.091710
847,2341179658,-0.387327,0.353362,0.471060,-0.709376,-0.412722,0.035530,0.179900
848,2341212992,-0.393620,0.354791,0.470327,-0.705676,-0.352758,0.037076,0.208371
849,2341246326,-0.400575,0.356980,0.468855,-0.701626,-0.293367,-0.002012,0.209154
850,2341279660,-0.407621,0.359732,0.466817,-0.697509,-0.234284,-0.100876,0.131964
851,2341312994,-0.414209,0.362712,0.464579,-0.693567,-0.153278,-0.161240,0.053445
852,2341346328,-0.420029,0.365450,0.462648,-0.689911,-0.126624,-0.279318,-0.056675
853,2341379662,-0.425089,0.367653,0.461330,-0.686516,-0.110371,-0.369737,-0.077621
854,2341412996,-0.429368,0.368940,0.460998,-0.683378,-0.065804,-0.457207,0.008498
855,2341446330,-0.432972,0.369233,0.461588,-0.680542,-0.133796,-0.499188,-0.021992
856,2341479664,-0.436108,0.369220,0.462538,-0.677897,-0.139400,-0.535221,-0.116220
857,2341512998,-0.438662,0.369433,0.463420,-0.675526,-0.146898,-0.611543,-0.056818
858,2341546332,-0.440296,0.369597,0.464318,-0.673754,-0.158218,-0.666993,0.115573
859,2341579666,-0.441038,0.369561,0.465118,-0.672736,-0.181666,-0.670951,0.141643
860,2341613000,-0.441239,0.369767,0.465459,-0.672256,-0.152694,-0.593037,0.101221
861,2341646334,-0.441168,0.370431,0.465210,-0.672109,-0.184795,-0.551224,0.105515
862,2341679668,-0.440820,0.371444,0.464469,-0.672290,-0.128203,-0.535164,0.104327
863,2341713002,-0.440090,0.372327,0.463548,-0.672916,-0.093342,-0.462842,0.150360
864,2341746336,-0.438928,0.372966,0.462532,-0.674019,-0.169349,-0.318852,0.086796
865,2341779670,-0.437495,0.373994,0.461124,-0.675345,-0.150774,-0.189693,0.017636
866,2341813004,-0.435717,0.375432,0.459428,-0.676850,-0.170683,-0.148509,0.142625
867,2341846338,-0.433540,0.376674,0.457887,-0.678600,-0.159771,-0.076684,0.228538
868,2341879672,-0.430938,0.377172,0.456810,-0.680704,-0.189538,0.005087,0.137649
869,2341913006,-0.427974,0.377033,0.456054,-0.683153,-0.237661,0.108889,0.161435
870,2341946340,-0.425022,0.376711,0.455282,-0.685684,-0.266806,0.327616,0.311909
871,2341979674,-0.422654,0.376900,0.454228,-0.687740,-0.357500,0.446818,0.321373
872,2342013008,-0.421172,0.378120,0.452630,-0.689031,-0.404664,0.453947,0.047226
873,2342046342,-0.420219,0.380143,0.450759,-0.689727,-0.330597,0.412590,-0.175801
874,2342079676,-0.419233,0.381890,0.449365,-0.690270,-0.266299,0.330734,-0.266774
875,2342113010,-0.417846,0.382095,0.449249,-0.691073,-0.200173,0.326161,-0.165418
876,2342146344,-0.416223,0.380196,0.450664,-0.692178,-0.197499,0.369609,-0.087815
877,2342179678,-0.414911,0.377008,0.453035,-0.693162,-0.254098,0.452153,-0.020381
878,2342213012,-0.414312,0.374022,0.455229,-0.693700,-0.289996,0.507975,0.159261
879,2342246346,-0.414336,0.371995,0.456581,-0.693887,-0.270181,0.538220,0.378786
880,2342279680,-0.414692,0.371150,0.456819,-0.693970,-0.301381,0.503764,0.411850
881,2342313014,-0.415145,0.371570,0.455981,-0.694025,-0.300275,0.456185,0.295708
882,2342346348,-0.415417,0.372839,0.454468,-0.694174,-0.307970,0.358587,0.158176
883,2342379682,-0.415359,0.374077,0.452881,-0.694580,-0.255836,0.346004,0.064982
884,2342413016,-0.415099,0.374599,0.451731,-0.695202,-0.280845,0.350979,-0.042460
885,2342446350,-0.414974,0.374401,0.451221,-0.695714,-0.291759,0.343339,-0.016970
886,2342479684,-0.415232,0.373770,0.451226,-0.695897,-0.341113,0.396139,-0.034704
887,2342513018,-0.415927,0.373468,0.451380,-0.695544,-0.332634,0.399997,-0.012025
888,2342546352,-0.416599,0.373288,0.451784,-0.694975,-0.274125,0.322365,0.196752
889,2342579686,-0.416783,0.372637,0.452656,-0.694647,-0.291324,0.293164,0.163642
890,2342613020,-0.416406,0.371896,0.453814,-0.694515,-0.326336,0.300352,0.078365
891,2342646354,-0.415438,0.371098,0.455274,-0.694566,-0.315468,0.200427,0.068054
892,2342679688,-0.413938,0.369613,0.457228,-0.694970,-0.293179,0.154593,0.023164
893,2342713022,-0.412336,0.367465,0.459479,-0.695576,-0.368436,0.175406,-0.101132
894,2342746356,-0.411421,0.365593,0.461436,-0.695810,-0.339907,0.231728,-0.158355
895,2342779690,-0.411645,0.364516,0.462848,-0.695303,-0.269532,0.170173,-0.218670
896,2342813024,-0.412832,0.363756,0.464133,-0.694140,-0.138069,0.040044,-0.138867
897,2342846358,-0.414430,0.362348,0.465910,-0.692733,-0.014556,-0.077792,-0.073504
898,2342879692,-0.416077,0.359983,0.468447,-0.691266,0.093380,-0.111378,-0.026999
899,2342913026,-0.417743,0.357093,0.471555,-0.689645,0.119000,-0.167844,-0.054198
900,2342946360,-0.419485,0.354298,0.474863,-0.687757,0.202473,-0.296814,-0.113126
901,2342979694,-0.421032,0.351326,0.478349,-0.685917,0.317970,-0.403939,0.049696
902,2343013028,-0.422235,0.347871,0.482050,-0.684346,0.376626,-0.482143,0.072952
903,2343046362,-0.423077,0.344197,0.485794,-0.683035,0.445416,-0.540654,0.072548
904,2343079696,-0.423590,0.340676,0.489319,-0.681966,0.449403,-0.639769,0.016255
905,2343113030,-0.423875,0.337609,0.492344,-0.681136,0.575856,-0.731389,0.062233
906,2343146364,-0.423685,0.334406,0.495031,-0.680887,0.669864,-0.774831,0.185888
907,2343179698,-0.423091,0.330878,0.497291,-0.681333,0.695924,-0.740363,0.140400
908,2343213032,-0.422503,0.327725,0.498749,-0.682155,0.728120,-0.721242,0.124073
909,2343246366,-0.422105,0.325392,0.499100,-0.683261,0.776135,-0.692096,0.134406
910,2343279700,-0.421936,0.324123,0.498183,-0.684636,0.846136,-0.601370,0.197410
911,2343313034,-0.422014,0.324247,0.495898,-0.686187,0.886819,-0.444604,0.201321
912,2343346368,-0.422278,0.326204,0.492298,-0.687687,0.862907,-0.327391,0.158675
913,2343379702,-0.422472,0.330031,0.487677,-0.689033,0.825086,-0.261791,-0.011420
914,2343413036,-0.422045,0.335052,0.482858,-0.690265,0.852799,-0.267067,-0.107289
915,2343446370,-0.420188,0.339524,0.479053,-0.691862,0.846310,-0.283396,-0.109844
916,2343479704,-0.416630,0.342303,0.476888,-0.694136,0.773146,-0.150314,-0.061131
917,2343513038,-0.411933,0.343629,0.476371,-0.696635,0.635794,0.013066,0.163640
918,2343546372,-0.406985,0.344271,0.476852,-0.698893,0.399998,0.070543,0.225651
919,2343579706,-0.402512,0.345472,0.477304,-0.700581,0.211729,0.210014,0.091653
920,2343613040,-0.398556,0.347900,0.477368,-0.701596,0.111115,0.172632,0.077582
921,2343646374,-0.394846,0.350998,0.477254,-0.702228,0.025511,0.075151,0.108912
922,2343679708,-0.391258,0.353635,0.477446,-0.702783,-0.046340,-0.024683,0.112111
923,2343713042,-0.387974,0.355010,0.478365,-0.703285,-0.172492,-0.017899,0.086187
924,2343746376,-0.385552,0.355443,0.479709,-0.703483,-0.279306,-0.026345,0.051661
925,2343779710,-0.384304,0.355513,0.481031,-0.703228,-0.335236,-0.023355,0.057342
926,2343813044,-0.384466,0.355718,0.481971,-0.702391,-0.415298,-0.062524,0.163959
927,2343846378,-0.386035,0.356460,0.482228,-0.700977,-0.424507,-0.124618,0.163965
928,2343879712,-0.388578,0.357559,0.481837,-0.699279,-0.363575,-0.217059,0.172054
929,2343913046,-0.391614,0.358611,0.481052,-0.697585,-0.279180,-0.258311,0.191476
930,2343946380,-0.394832,0.359479,0.480042,-0.696018,-0.275526,-0.283951,0.115081
931,2343979714,-0.398225,0.360428,0.478741,-0.694489,-0.242625,-0.313773,0.010677
932,2344013048,-0.401619,0.361574,0.477191,-0.693004,-0.179120,-0.271961,-0.082484
933,2344046382,-0.404951,0.362966,0.475506,-0.691494,-0.145236,-0.272637,-0.118411
934,2344079716,-0.408293,0.364668,0.473728,-0.689851,-0.079548,-0.270192,-0.067245
935,2344113050,-0.411478,0.366329,0.472073,-0.688211,-0.042518,-0.251995,0.003591
936,2344146384,-0.414150,0.367606,0.470720,-0.686853,0.022162,-0.277674,0.045657
937,2344179718,-0.415908,0.368402,0.469733,-0.686040,-0.038580,-0.233838,0.104278
938,2344213052,-0.416705,0.369119,0.468870,-0.685761,-0.072233,-0.183181,0.112249
939,2344246386,-0.416530,0.370163,0.467820,-0.686021,-0.121057,-0.107624,0.184837
940,2344279720,-0.415617,0.371554,0.466436,-0.686765,-0.232290,-0.045147,0.226736
941,2344313054,-0.414362,0.373256,0.464725,-0.687759,-0.298757,0.011066,0.245378
942,2344346388,-0.413080,0.374983,0.462925,-0.688805,-0.368701,0.041669,0.262508
943,2344379722,-0.411931,0.376528,0.461133,-0.689851,-0.451508,0.081960,0.148376
944,2344413056,-0.410926,0.377891,0.459328,-0.690908,-0.444149,0.125013,0.131666
945,2344446390,-0.409995,0.378513,0.457758,-0.692163,-0.487094,0.212169,0.345854
946,2344479724,-0.409482,0.378548,0.456264,-0.693432,-0.552235,0.291826,0.284762
947,2344513058,-0.409880,0.378540,0.454543,-0.694331,-0.527051,0.421417,0.236662
948,2344546392,-0.411430,0.378983,0.452319,-0.694624,-0.547453,0.496544,0.143061
949,2344579726,-0.414173,0.380269,0.449498,-0.694123,-0.446233,0.485488,-0.188903
950,2344613060,-0.417498,0.381983,0.446696,-0.692998,-0.279086,0.420862,-0.194026
951,2344646394,-0.420869,0.382704,0.444915,-0.691705,-0.158783,0.413996,-0.013115
952,2344679728,-0.424233,0.381816,0.444573,-0.690360,-0.073567,0.428026,-0.016705
953,2344713062,-0.427651,0.380106,0.445208,-0.688784,-0.066128,0.478975,-0.086308
954,2344746396,-0.431144,0.378778,0.446047,-0.686792,-0.016853,0.438623,-0.111423
955,2344779730,-0.434468,0.378020,0.446785,-0.684632,0.055215,0.360109,-0.043788
956,2344813064,-0.437374,0.377667,0.447371,-0.682590,0.077474,0.288122,-0.002057
957,2344846398,-0.439794,0.377696,0.447886,-0.680680,0.130116,0.274750,0.071441
958,2344879732,-0.441761,0.378125,0.448396,-0.678828,0.074820,0.204780,0.064109
959,2344913066,-0.443319,0.379283,0.448798,-0.676899,0.005700,0.098644,-0.068395
960,2344946400,-0.444024,0.380823,0.449340,-0.675211,0.015838,-0.069169,-0.040541
961,2344979734,-0.443386,0.381659,0.450461,-0.674410,-0.058229,-0.141608,-0.101761
962,2345013068,-0.441447,0.381785,0.452186,-0.674456,-0.129778,-0.177838,-0.053099
963,2345046402,-0.438572,0.381417,0.454301,-0.675119,-0.240644,-0.206474,-0.029927
964,2345079736,-0.435156,0.380589,0.456604,-0.676241,-0.303224,-0.204883,0.127137
965,2345113070,-0.431459,0.379375,0.458800,-0.677805,-0.394676,-0.192094,0.225924
966,2345146404,-0.427742,0.378112,0.460474,-0.679728,-0.476726,-0.138401,0.170856
967,2345179738,-0.424162,0.377356,0.461326,-0.681811,-0.534990,-0.132394,0.106239
968,2345213072,-0.420527,0.376781,0.461704,-0.684121,-0.493352,-0.189500,0.168850
969,2345246406,-0.416810,0.375537,0.462025,-0.686858,-0.521696,-0.149390,-0.012727
970,2345279740,-0.413132,0.373441,0.462678,-0.689776,-0.452233,-0.073669,-0.076735
971,2345313074,-0.409719,0.370921,0.463666,-0.692504,-0.406692,-0.033034,-0.069052
972,2345346408,-0.406570,0.367853,0.465087,-0.695038,-0.327206,-0.099195,-0.080557
973,2345379742,-0.403449,0.364132,0.467076,-0.697479,-0.243540,-0.148524,-0.065513
974,2345413076,-0.400024,0.359753,0.469740,-0.699930,-0.150008,-0.144656,-0.010786
975,2345446410,-0.396110,0.354583,0.473146,-0.702496,-0.052389,-0.209161,-0.048568
976,2345479744,-0.391719,0.348773,0.477119,-0.705174,0.040222,-0.257666,-0.078765
977,2345513078,-0.386989,0.342206,0.481731,-0.707862,0.134857,-0.289715,0.070932
978,2345546412,-0.382126,0.334886,0.486808,-0.710526,0.196011,-0.339333,0.058818
979,2345579746,-0.377341,0.327426,0.492099,-0.712912,0.277114,-0.353223,-0.029841
980,2345613080,-0.372509,0.320094,0.497432,-0.715078,0.414752,-0.456335,-0.090261
981,2345646414,-0.367402,0.312506,0.502890,-0.717256,0.545074,-0.546994,0.071504
982,2345679748,-0.361835,0.304168,0.508579,-0.719655,0.659648,-0.638890,0.148256
983,2345713082,-0.355796,0.295063,0.514256,-0.722418,0.730342,-0.638505,0.125589
984,2345746416,-0.349454,0.286097,0.519333,-0.725481,0.740298,-0.594767,0.105831
985,2345779750,-0.342955,0.278262,0.523255,-0.728804,0.769289,-0.549963,0.082041
986,2345813084,-0.336207,0.271908,0.525863,-0.732460,0.837734,-0.503635,0.095278
987,2345846418,-0.329368,0.266967,0.527366,-0.736295,0.924371,-0.443561,0.321978
988,2345879752,-0.322721,0.262904,0.528089,-0.740171,0.933126,-0.362936,0.404943
989,2345913086,-0.316412,0.259653,0.528125,-0.744007,0.924319,-0.297481,0.189316
990,2345946420,-0.310099,0.257428,0.527376,-0.747959,0.862707,-0.201203,-0.093148
991,2345979754,-0.303419,0.256186,0.525888,-0.752161,0.864766,-0.097696,-0.049019
992,2346013088,-0.296187,0.255220,0.523994,-0.756680,0.823206,0.050775,0.205479
993,2346046422,-0.288751,0.254050,0.521944,-0.761351,0.653946,0.243594,0.332098
994,2346079756,-0.281884,0.253428,0.519458,-0.765818,0.478527,0.443021,0.248880
995,2346113090,-0.276244,0.254699,0.516106,-0.769709,0.278922,0.650147,0.203769
996,2346146424,-0.271862,0.258522,0.511828,-0.772845,0.158817,0.797790,0.241357
997,2346179758,-0.268323,0.264396,0.507094,-0.775211,0.102998,0.904455,0.253956
998,2346213092,-0.265017,0.271159,0.502577,-0.776951,-0.008792,0.940050,0.117985
999,2346246426,-0.261659,0.277734,0.498811,-0.778193,-0.113287,0.916888,-0.098354
1000,2346279760,-0.258292,0.283304,0.496266,-0.778937,-0.219329,0.914504,-0.169065
1001,2346313094,-0.255527,0.287348,0.495153,-0.779076,-0.344353,0.883464,-0.220351
1002,2346346428,-0.254105,0.289767,0.495545,-0.778395,-0.440142,0.778595,-0.285181
1003,2346379762,-0.254859,0.290765,0.497283,-0.776667,-0.503410,0.684746,-0.272740