sep=,
DeviceTag:,2C_Leg
FirmwareVersion:,2.2.1
AppVersion:,2023.6.0
SyncStatus:,Synced
OutputRate:,30Hz
FilterProfile:,General
Measurement Mode:,Sensor fusion Mode - Complete(Quaternion)
StartTime: ,2026-05-01_14:41:30_595 AEST
© Movella Technologies B. V. 2005-2026

PacketCounter,SampleTimeFine,Quat_W,Quat_X,Quat_Y,Quat_Z,FreeAcc_X,FreeAcc_Y,FreeAcc_Z
1,2312979094,-0.601851,0.615117,-0.353338,0.366825,-0.012120,-0.118725,-0.552890
2,2313012428,-0.600422,0.616168,-0.354084,0.366683,0.045655,0.237153,-0.548365
3,2313045762,-0.598808,0.617807,-0.354961,0.365715,0.102373,0.482747,-0.268139
4,2313079096,-0.597549,0.619630,-0.355558,0.364108,0.174151,0.638453,-0.054371
5,2313112430,-0.596252,0.621267,-0.356578,0.362444,0.176704,0.341507,-0.021871
6,2313145764,-0.595568,0.622407,-0.357770,0.360432,0.252100,0.563233,0.107303
7,2313179098,-0.595489,0.623601,-0.358559,0.357703,0.450169,0.433370,0.090253
8,2313212432,-0.595166,0.625499,-0.359082,0.354388,0.416127,0.336705,0.034151
9,2313245766,-0.595491,0.628150,-0.358485,0.349725,0.087500,0.103192,-0.242703
10,2313279100,-0.594868,0.631214,-0.358388,0.345341,0.614270,-0.463088,0.366864
11,2313312434,-0.594671,0.634661,-0.356792,0.340987,0.782353,0.228367,0.707111
12,2313345768,-0.593487,0.638680,-0.355532,0.336839,0.620714,0.427597,0.885449
13,2313379102,-0.593257,0.643172,-0.353417,0.330868,0.337206,0.501744,0.517299
14,2313412436,-0.593258,0.647039,-0.351917,0.324872,0.561038,0.077852,0.187733
15,2313445770,-0.592816,0.650432,-0.351262,0.319569,0.351734,-0.245297,0.035773
16,2313479104,-0.591836,0.654438,-0.350472,0.314025,0.065566,-0.171592,0.007152
17,2313512438,-0.589748,0.659747,-0.349560,0.307799,-0.304456,-0.065604,0.056302
18,2313545772,-0.587359,0.666330,-0.347825,0.300056,-0.312158,0.053198,0.190285
19,2313579106,-0.585300,0.673457,-0.345177,0.291092,0.006331,-0.313083,0.208037
20,2313612440,-0.582891,0.679994,-0.343160,0.282999,0.054507,-0.273583,0.198444
21,2313645774,-0.580453,0.685893,-0.341478,0.275716,0.140579,-0.406144,-0.005855
22,2313679108,-0.577785,0.690796,-0.340675,0.270012,-0.306925,-0.064411,0.158577
23,2313712442,-0.575615,0.694893,-0.340212,0.264665,-0.668187,0.079907,0.100111
24,2313745776,-0.574127,0.698596,-0.339546,0.258942,-0.226055,-0.089512,0.107459
25,2313779110,-0.572324,0.701653,-0.339502,0.254691,-0.140614,-0.094609,0.137646
26,2313812444,-0.570518,0.704085,-0.339881,0.251508,-0.405792,0.048793,0.215055
27,2313845778,-0.568594,0.706289,-0.340542,0.248777,-0.501586,0.253998,0.151147
28,2313879112,-0.567083,0.708270,-0.341018,0.245925,-0.551291,0.194868,0.185431
29,2313912446,-0.565875,0.710191,-0.341100,0.243039,-0.385587,-0.131866,0.079977
30,2313945780,-0.564130,0.712147,-0.341369,0.240981,-0.145713,-0.141025,0.093003
31,2313979114,-0.562959,0.713488,-0.341547,0.239499,-0.324086,-0.006166,0.203494
32,2314012448,-0.563746,0.713885,-0.340788,0.237536,-0.121537,0.112201,0.091116
33,2314045782,-0.563877,0.713881,-0.341026,0.236896,-0.111809,0.008316,0.222069
34,2314079116,-0.565013,0.713445,-0.340471,0.236299,-0.292824,0.024119,0.190849
35,2314112450,-0.568455,0.712116,-0.338522,0.234851,-0.326560,0.074829,0.177003
36,2314145784,-0.573218,0.710243,-0.335824,0.232809,0.106773,-0.035044,-0.010837
37,2314179118,-0.577273,0.707796,-0.334414,0.232272,-0.000210,0.031230,0.116315
38,2314212452,-0.580485,0.705116,-0.333983,0.233036,0.164535,0.228811,0.231504
39,2314245786,-0.583745,0.701816,-0.333887,0.234986,0.084371,0.113350,0.146083
40,2314279120,-0.587019,0.698389,-0.333865,0.237061,-0.153332,-0.216119,-0.005757
41,2314312454,-0.588667,0.696655,-0.333746,0.238238,-0.077401,-0.451936,0.080673
42,2314345788,-0.588773,0.695760,-0.334276,0.239843,0.086084,-0.330344,0.104688
43,2314379122,-0.588413,0.694978,-0.335113,0.241819,0.106767,0.020091,0.178249
44,2314412456,-0.588115,0.694003,-0.336176,0.243861,0.209856,0.124994,0.155806
45,2314445790,-0.587736,0.692740,-0.337627,0.246347,0.174943,0.146510,0.170316
46,2314479124,-0.587581,0.691155,-0.339152,0.249062,0.141164,0.195641,0.137626
47,2314512458,-0.587328,0.689429,-0.340926,0.252001,0.115769,0.162897,0.057640
48,2314545792,-0.587166,0.687641,-0.342615,0.254957,0.145079,0.212461,0.036937
49,2314579126,-0.587071,0.685818,-0.344087,0.258084,0.171711,0.086965,-0.005522
50,2314612460,-0.586474,0.684436,-0.345486,0.261223,-0.000060,0.148151,0.061049
51,2314645794,-0.585576,0.683612,-0.346795,0.263648,-0.502903,0.248377,0.083899
52,2314679128,-0.584801,0.683448,-0.347766,0.264513,-0.211879,-0.217681,0.040557
53,2314712462,-0.582916,0.683940,-0.349029,0.265736,0.358376,-0.141004,0.197474
54,2314745796,-0.580988,0.684584,-0.349673,0.267450,0.186915,-0.379439,0.120706
55,2314779130,-0.579188,0.685263,-0.349977,0.269209,-0.323037,-0.031988,-0.024835
56,2314812464,-0.578079,0.685616,-0.350099,0.270532,-0.210268,0.168129,0.099956
57,2314845798,-0.577158,0.686144,-0.350102,0.271156,0.076085,-0.016265,0.161518
58,2314879132,-0.576250,0.686695,-0.349800,0.272080,0.031524,-0.154254,0.104368
59,2314912466,-0.575472,0.687329,-0.349054,0.273083,-0.095294,-0.090573,0.200077
60,2314945800,-0.574421,0.687891,-0.348662,0.274377,-0.048789,-0.063723,0.074971
61,2314979134,-0.573292,0.688017,-0.348776,0.276269,0.111298,0.208906,0.183372
62,2315012468,-0.572200,0.687695,-0.349335,0.278620,0.152922,0.277217,0.204347
63,2315045802,-0.571478,0.687228,-0.349697,0.280791,0.031534,0.268545,0.138664
64,2315079136,-0.570813,0.686639,-0.349925,0.283291,0.020421,0.182270,0.134410
65,2315112470,-0.570231,0.686114,-0.349939,0.285705,-0.089565,-0.025676,0.157119
66,2315145804,-0.569520,0.685958,-0.349606,0.287900,-0.196685,-0.164967,0.100410
67,2315179138,-0.568563,0.686068,-0.349040,0.290207,-0.225778,0.095900,0.174122
68,2315212472,-0.567557,0.686219,-0.348400,0.292579,-0.008029,0.326447,0.237391
69,2315245806,-0.567046,0.685829,-0.347721,0.295278,0.079401,0.286286,0.294813
70,2315279140,-0.566332,0.684947,-0.347846,0.298531,-0.148020,-0.014526,0.113701
71,2315312474,-0.565886,0.683738,-0.348116,0.301815,-0.217529,0.146911,0.126269
72,2315345808,-0.566401,0.682126,-0.347647,0.305020,0.000661,0.377077,0.230095
73,2315379142,-0.567557,0.680486,-0.346618,0.307694,-0.016940,-0.035917,0.318065
74,2315412476,-0.568578,0.679127,-0.345685,0.309854,-0.188181,-0.396991,0.125155
75,2315445810,-0.569434,0.677790,-0.344882,0.312096,-0.107351,-0.147782,0.048174
76,2315479144,-0.570000,0.676781,-0.344026,0.314191,-0.083002,-0.165893,0.162436
77,2315512478,-0.570581,0.675921,-0.342893,0.316219,-0.226716,-0.073420,0.269077
78,2315545812,-0.571472,0.675432,-0.341035,0.317661,-0.190270,-0.168404,0.344457
79,2315579146,-0.572847,0.675036,-0.338489,0.318746,-0.050848,-0.056673,0.248979
80,2315612480,-0.574618,0.674160,-0.335899,0.320150,0.070496,-0.086813,0.096246
81,2315645814,-0.576735,0.672571,-0.333626,0.322055,0.002345,-0.035903,0.051266
82,2315679148,-0.579660,0.670285,-0.331271,0.323996,-0.051798,0.304675,-0.010009
83,2315712482,-0.584335,0.667318,-0.328166,0.324880,-0.001602,0.279720,0.018044
84,2315745816,-0.589376,0.663789,-0.325222,0.325963,0.229815,-0.172787,0.456895
85,2315779150,-0.594038,0.659735,-0.322632,0.328297,0.126284,-0.226292,0.366615
86,2315812484,-0.598900,0.655997,-0.319404,0.330106,-0.209325,-0.276241,-0.033997
87,2315845818,-0.603399,0.653172,-0.315804,0.330978,-0.464029,-0.301658,-0.215103
88,2315879152,-0.607009,0.651120,-0.312810,0.331261,-0.325644,-0.040168,-0.312706
89,2315912486,-0.609640,0.650648,-0.310264,0.329749,-0.204021,0.039641,-0.384484
90,2315945820,-0.611387,0.651052,-0.308332,0.327520,0.041479,-0.017759,0.095425
91,2315979154,-0.613128,0.650669,-0.306944,0.326329,0.427104,-0.139570,0.218076
92,2316012488,-0.613308,0.650240,-0.307504,0.326321,0.464010,0.105436,0.291712
93,2316045822,-0.613251,0.649797,-0.308477,0.326391,0.420691,0.209770,0.405668
94,2316079156,-0.614136,0.648180,-0.309665,0.326816,0.353501,0.231112,0.173314
95,2316112490,-0.615132,0.646024,-0.311610,0.327365,0.250475,0.381120,0.082836
96,2316145824,-0.617485,0.642699,-0.313384,0.327784,0.068371,0.301791,-0.083599
97,2316179158,-0.619065,0.639951,-0.315957,0.327710,-0.075065,-0.303448,-0.305256
98,2316212492,-0.618973,0.638713,-0.319231,0.327126,-0.271815,-0.850666,-0.156991
99,2316245826,-0.618503,0.638178,-0.321281,0.327053,0.507675,-0.494746,0.250326
100,2316279160,-0.617398,0.640058,-0.321279,0.325463,0.165370,-0.335213,0.110856
101,2316312494,-0.615103,0.643224,-0.320771,0.324067,0.591097,-0.209262,0.498402
102,2316345828,-0.613715,0.645798,-0.319612,0.322722,0.580197,0.054187,0.345503
103,2316379162,-0.611974,0.647280,-0.320042,0.322632,0.580074,-0.081578,0.253543
104,2316412496,-0.610059,0.647502,-0.322066,0.323796,0.122472,0.256869,0.076558
105,2316445830,-0.609090,0.647612,-0.323464,0.324007,-0.085470,0.236761,0.010406
106,2316479164,-0.609375,0.648124,-0.323513,0.322394,-0.076642,0.055340,-0.012761
107,2316512498,-0.609199,0.648964,-0.323968,0.320576,0.231424,-0.337451,0.080460
108,2316545832,-0.608234,0.649776,-0.325145,0.319570,0.429329,-0.263108,0.225731
109,2316579166,-0.607663,0.650287,-0.325998,0.318747,0.436502,-0.005645,0.260307
110,2316612500,-0.607136,0.650912,-0.326700,0.317755,0.298008,-0.169106,0.196896
111,2316645834,-0.606430,0.651496,-0.327764,0.316809,0.079022,-0.097742,-0.010888
112,2316679168,-0.605615,0.652193,-0.329019,0.315630,0.061138,-0.195045,0.044659
113,2316712502,-0.604676,0.653296,-0.330081,0.314038,0.197437,-0.126626,0.091477
114,2316745836,-0.603700,0.654593,-0.330903,0.312344,0.293481,0.173793,0.315381
115,2316779170,-0.602932,0.656014,-0.331630,0.310069,0.034969,0.241774,0.269665
116,2316812504,-0.602673,0.657462,-0.332087,0.306999,-0.048506,0.323802,0.157302
117,2316845838,-0.602530,0.658900,-0.332535,0.303695,0.121030,0.224341,0.192394
118,2316879172,-0.602330,0.660631,-0.332699,0.300129,0.058168,-0.083132,0.134500
119,2316912506,-0.601506,0.662679,-0.332906,0.297021,-0.127734,-0.190454,0.125375
120,2316945840,-0.599636,0.665505,-0.333325,0.294000,-0.211931,0.092797,0.110628
121,2316979174,-0.597750,0.668995,-0.333206,0.290027,-0.036883,0.257235,0.071350
122,2317012508,-0.596035,0.672237,-0.333180,0.286064,0.248792,0.424076,0.160852
123,2317045842,-0.594912,0.674554,-0.333319,0.282765,0.162269,0.522414,0.270059
124,2317079176,-0.594968,0.676097,-0.332913,0.279423,0.053165,0.390752,0.112531
125,2317112510,-0.595293,0.677131,-0.332594,0.276593,-0.127571,0.210653,0.043106
126,2317145844,-0.595246,0.678432,-0.332393,0.273731,-0.174275,0.007470,0.068270
127,2317179178,-0.595277,0.679653,-0.331964,0.271144,-0.056819,0.255700,0.047528
128,2317212512,-0.594985,0.681072,-0.331577,0.268687,-0.055486,0.172051,0.189835
129,2317245846,-0.594655,0.682725,-0.330919,0.266020,0.075124,0.246999,0.020838
130,2317279180,-0.594492,0.683979,-0.330262,0.263971,0.043391,0.122301,0.346048
131,2317312514,-0.593498,0.685509,-0.330208,0.262302,-0.158885,0.082804,0.076508
132,2317345848,-0.592437,0.687017,-0.330217,0.260739,0.012799,-0.122235,0.093087
133,2317379182,-0.591081,0.688499,-0.330400,0.259673,-0.113371,-0.075335,0.103340
134,2317412516,-0.589407,0.689976,-0.330881,0.258943,-0.167005,0.126881,0.215525
135,2317445850,-0.587627,0.691552,-0.331534,0.257948,-0.142003,-0.146852,0.094908
136,2317479184,-0.585515,0.693095,-0.332560,0.257287,-0.114794,-0.226570,0.092864
137,2317512518,-0.583252,0.694151,-0.334017,0.257695,-0.119306,-0.039944,0.186655
138,2317545852,-0.581742,0.694779,-0.335080,0.258035,-0.355806,-0.203892,0.011850
139,2317579186,-0.579527,0.695589,-0.336817,0.258575,-0.377646,-0.149578,0.064715
140,2317612520,-0.577116,0.696400,-0.338611,0.259439,-0.174758,0.132745,0.200739
141,2317645854,-0.575764,0.696810,-0.339620,0.260025,-0.037749,0.122665,0.081134
142,2317679188,-0.574517,0.696978,-0.340631,0.261007,-0.238444,0.150219,0.113015
143,2317712522,-0.573661,0.697101,-0.341166,0.261859,-0.280879,0.126649,0.072583
144,2317745856,-0.573081,0.697415,-0.341071,0.262415,-0.230231,-0.199978,0.085472
145,2317779190,-0.572124,0.698194,-0.340698,0.262918,-0.187505,-0.164332,0.123715
146,2317812524,-0.570890,0.698952,-0.340485,0.263860,0.031800,-0.019211,0.140301
147,2317845858,-0.569872,0.699288,-0.340467,0.265190,0.063537,0.119430,0.128170
148,2317879192,-0.568748,0.699320,-0.340921,0.266929,0.062425,0.143759,0.255345
149,2317912526,-0.568050,0.699070,-0.341201,0.268708,0.044656,0.063391,0.165782
150,2317945860,-0.567865,0.698784,-0.340913,0.270205,-0.032847,-0.123588,0.042886
151,2317979194,-0.567394,0.698397,-0.340930,0.272167,-0.082770,-0.134401,0.190965
152,2318012528,-0.566885,0.698293,-0.340755,0.273708,-0.075039,-0.194561,0.058702
153,2318045862,-0.566452,0.698271,-0.340386,0.275115,0.009957,-0.121150,0.072902
154,2318079196,-0.566025,0.698102,-0.340072,0.276806,0.123429,-0.186682,0.264326
155,2318112530,-0.565645,0.697748,-0.339794,0.278810,0.004780,-0.165825,0.083494
156,2318145864,-0.565324,0.697275,-0.339467,0.281036,-0.069230,-0.111988,0.061786
157,2318179198,-0.565009,0.696897,-0.338971,0.283194,0.051015,0.023822,0.395753
158,2318212532,-0.565753,0.696561,-0.337187,0.284664,0.118609,-0.136689,0.203411
159,2318245866,-0.566130,0.696374,-0.335562,0.286288,-0.126791,-0.110757,0.240227
160,2318279200,-0.566299,0.695609,-0.334943,0.288529,-0.376801,0.197852,0.066375
161,2318312534,-0.566286,0.694691,-0.335036,0.290649,-0.252574,0.125964,0.124140
162,2318345868,-0.566481,0.693459,-0.335142,0.293080,-0.038538,-0.041464,0.122012
163,2318379202,-0.565841,0.692121,-0.336029,0.296444,-0.269747,-0.254580,0.145226
164,2318412536,-0.565089,0.690968,-0.336800,0.299676,-0.445117,0.007793,-0.079993
165,2318445870,-0.564857,0.690250,-0.336753,0.301812,-0.450590,0.181278,0.040727
166,2318479204,-0.565643,0.689043,-0.336141,0.303773,-0.245277,-0.139501,0.061226
167,2318512538,-0.566723,0.687489,-0.335520,0.305963,0.235771,-0.188817,0.210474
168,2318545872,-0.567931,0.686044,-0.334587,0.307978,0.192223,-0.133629,0.109755
169,2318579206,-0.569407,0.684081,-0.333931,0.310324,0.025721,-0.124320,0.105124
170,2318612540,-0.570905,0.681351,-0.334118,0.313362,-0.110742,-0.255171,0.188042
171,2318645874,-0.572108,0.678177,-0.335082,0.317001,-0.140093,-0.079526,0.066439
172,2318679208,-0.573807,0.674827,-0.335837,0.320264,-0.259916,0.063821,0.113004
173,2318712542,-0.575899,0.671643,-0.336214,0.322799,0.088746,-0.150207,0.385836
174,2318745876,-0.578154,0.668424,-0.336512,0.325129,0.425455,-0.029395,0.366240
175,2318779210,-0.579835,0.665096,-0.337673,0.327745,0.478253,-0.212107,0.339507
176,2318812544,-0.582106,0.660180,-0.339738,0.331505,0.294477,-0.522393,0.462766
177,2318845878,-0.586863,0.652634,-0.341307,0.336411,0.061584,-0.197326,0.744584
178,2318879212,-0.598816,0.640523,-0.338224,0.341695,1.307426,0.047852,1.311667
179,2318912546,-0.602270,0.635401,-0.340084,0.343338,-1.567354,-1.769099,-0.298923
180,2318945880,-0.600918,0.631720,-0.345713,0.346860,-0.543822,-0.249447,0.067514
181,2318979214,-0.597602,0.630707,-0.351645,0.348464,0.768610,0.212658,0.221244
182,2319012548,-0.594736,0.629110,-0.357224,0.350575,0.711724,0.545444,-0.013738
183,2319045882,-0.591768,0.626752,-0.362640,0.354241,0.513289,0.311904,-0.442235
184,2319079216,-0.587901,0.625522,-0.367371,0.357959,0.193591,0.279097,-0.205712
185,2319112550,-0.585698,0.624983,-0.368940,0.360888,0.413746,-0.010548,-0.247191
186,2319145884,-0.584383,0.625536,-0.368314,0.362696,0.149781,-0.130715,-0.116169
187,2319179218,-0.581810,0.626597,-0.368150,0.365159,0.298133,0.336977,0.109143
188,2319212552,-0.579302,0.627942,-0.367799,0.367183,0.683788,0.438359,0.308559
189,2319245886,-0.576636,0.629680,-0.367456,0.368745,0.800002,0.393283,0.269011
190,2319279220,-0.575318,0.631526,-0.365883,0.369209,0.314110,0.575818,-0.185113
191,2319312554,-0.573808,0.633025,-0.365053,0.369812,0.090199,0.402742,-0.238093
192,2319345888,-0.572022,0.636101,-0.363943,0.368393,-0.260969,-0.290022,-0.367199
193,2319379222,-0.569961,0.640241,-0.362820,0.365513,0.333890,0.104683,-0.051069
194,2319412556,-0.569084,0.643255,-0.361908,0.362479,-0.234725,-0.944879,-0.336426
195,2319445890,-0.566303,0.646508,-0.363620,0.359318,0.066117,-0.464620,-0.355072
196,2319479224,-0.564252,0.648527,-0.366443,0.356025,0.066661,1.007741,-0.183792
197,2319512558,-0.564129,0.649142,-0.369653,0.351755,0.810427,0.723206,0.324282
198,2319545892,-0.565554,0.649801,-0.371899,0.345832,1.004057,-0.317956,0.640594
199,2319579226,-0.565495,0.652157,-0.372875,0.340403,1.377342,-0.879687,0.909825
200,2319612560,-0.565797,0.656126,-0.372085,0.333057,-0.667772,0.300708,0.880293
201,2319645894,-0.565840,0.661871,-0.372269,0.321199,-0.831680,-0.424236,0.186020
202,2319679228,-0.564776,0.668025,-0.373460,0.308708,0.148132,-1.077965,0.080238
203,2319712562,-0.563821,0.675119,-0.372733,0.295621,0.724114,-0.833157,0.032551
204,2319745896,-0.563527,0.682894,-0.369712,0.281795,-0.208253,-0.375941,0.010813
205,2319779230,-0.563611,0.690711,-0.365725,0.267411,-1.001082,0.316045,0.063652
206,2319812564,-0.563936,0.697915,-0.361990,0.252698,-0.261930,0.106803,0.049065
207,2319845898,-0.564389,0.704253,-0.358142,0.239224,0.480221,0.159023,0.148597
208,2319879232,-0.565045,0.709535,-0.353922,0.228089,-0.250348,0.660897,0.318095
209,2319912566,-0.566428,0.714145,-0.349454,0.216884,-0.545937,0.809969,-0.170675
210,2319945900,-0.567367,0.717933,-0.346247,0.206838,-0.433794,0.927090,0.208529
211,2319979234,-0.568138,0.721262,-0.343336,0.197795,-0.289919,0.991468,0.293560
212,2320012568,-0.569003,0.724773,-0.339584,0.188743,-0.333374,0.827030,0.165450
213,2320045902,-0.569815,0.728129,-0.335631,0.180255,-0.008436,0.798661,0.182334
214,2320079236,-0.570994,0.730044,-0.332862,0.173798,0.160102,0.291349,0.202207
215,2320112570,-0.571133,0.731422,-0.331795,0.169538,-0.200738,-0.113357,-0.005422
216,2320145904,-0.570681,0.733604,-0.329869,0.165338,-0.032033,-0.181748,0.149903
217,2320179238,-0.569415,0.736657,-0.327156,0.161476,-0.219984,-0.018652,0.132625
218,2320212572,-0.567477,0.739919,-0.324871,0.157958,-0.265740,-0.367767,0.061619
219,2320245906,-0.564338,0.743115,-0.324309,0.155335,-0.269415,-0.312506,-0.003115
220,2320279240,-0.560838,0.745631,-0.325280,0.153915,-0.277060,0.193065,0.196599
221,2320312574,-0.557802,0.747371,-0.326884,0.153107,-0.173631,0.167214,0.196041
222,2320345908,-0.554873,0.748568,-0.329180,0.152986,-0.398760,0.003722,0.072136
223,2320379242,-0.551961,0.749593,-0.331688,0.153081,-0.320220,-0.113148,0.108468
224,2320412576,-0.548571,0.750631,-0.334524,0.154008,0.081475,0.038617,0.173349
225,2320445910,-0.545813,0.750914,-0.337401,0.156135,0.232764,0.521928,0.225492
226,2320479244,-0.545578,0.750519,-0.338392,0.156711,0.332181,0.523583,0.141322
227,2320512578,-0.545452,0.749815,-0.339626,0.157847,0.078414,0.370320,0.265693
228,2320545912,-0.545529,0.748934,-0.340668,0.159507,-0.186126,0.439325,0.212576
229,2320579246,-0.545215,0.748116,-0.341827,0.161926,-0.352491,0.279551,0.217926
230,2320612580,-0.544750,0.747586,-0.342510,0.164477,-0.634422,0.270599,0.172930
231,2320645914,-0.544707,0.747319,-0.342267,0.166323,-0.323880,0.275466,0.139226
232,2320679248,-0.544932,0.746998,-0.341759,0.168066,-0.223574,0.389567,0.150491
233,2320712582,-0.545318,0.746548,-0.341210,0.169918,-0.192450,0.353395,0.134153
234,2320745916,-0.545162,0.746043,-0.341109,0.172811,-0.294362,0.261515,0.239783
235,2320779250,-0.545492,0.745388,-0.340542,0.175692,-0.427293,0.318637,0.211469
236,2320812584,-0.546569,0.744583,-0.339358,0.178037,-0.031280,-0.036700,0.060241
237,2320845918,-0.547275,0.743635,-0.338614,0.181218,0.253820,-0.310965,0.109113
238,2320879252,-0.548050,0.742219,-0.338216,0.185375,0.105680,-0.303481,0.184954
239,2320912586,-0.548743,0.740477,-0.338297,0.190086,-0.266357,-0.302983,-0.017493
240,2320945920,-0.549024,0.738732,-0.338703,0.195268,-0.277719,-0.087047,0.119422
241,2320979254,-0.550099,0.736967,-0.338067,0.199957,0.011020,-0.209907,0.239485
242,2321012588,-0.551028,0.734997,-0.337641,0.205300,0.152054,-0.421188,0.105112
243,2321045922,-0.551082,0.732715,-0.338426,0.211914,0.031663,-0.200984,0.094084
244,2321079256,-0.551448,0.730147,-0.339269,0.218374,-0.151950,-0.078063,0.089983
245,2321112590,-0.552106,0.727722,-0.339729,0.224020,-0.227989,0.124979,0.088810
246,2321145924,-0.552785,0.725280,-0.340250,0.229411,0.087868,0.249397,0.168460
247,2321179258,-0.554267,0.722371,-0.340518,0.234558,0.417184,0.182722,0.174797
248,2321212592,-0.556415,0.718556,-0.340891,0.240570,0.421588,0.233109,0.088704
249,2321245926,-0.559044,0.714042,-0.341298,0.247245,0.319312,0.255221,0.178477
250,2321279260,-0.561528,0.709534,-0.341908,0.253670,0.161056,0.053702,0.092652
251,2321312594,-0.563387,0.705404,-0.342833,0.259744,-0.012122,-0.210714,-0.087650
252,2321345928,-0.564951,0.702249,-0.342993,0.264640,-0.119213,-0.028078,-0.014695
253,2321379262,-0.566555,0.700222,-0.341883,0.267996,0.049950,0.093486,0.145473
254,2321412596,-0.567833,0.699211,-0.340130,0.270152,0.189787,-0.018128,0.044058
255,2321445930,-0.568347,0.698471,-0.338896,0.272528,0.217886,0.109100,0.161234
256,2321479264,-0.568709,0.698043,-0.337675,0.274379,0.283596,-0.000858,0.083537
257,2321512598,-0.569037,0.698038,-0.336146,0.275587,0.284934,-0.015953,0.217340
258,2321545932,-0.568683,0.698487,-0.334980,0.276596,0.284115,-0.061575,0.182055
259,2321579266,-0.567873,0.699056,-0.334424,0.277493,0.282979,-0.118973,0.196701
260,2321612600,-0.566232,0.699986,-0.334619,0.278268,0.098656,-0.024594,0.154182
261,2321645934,-0.564686,0.701126,-0.334646,0.278507,0.165394,0.235074,0.105742
262,2321679268,-0.564209,0.701926,-0.333981,0.278256,0.545477,-0.024902,0.189997
263,2321712602,-0.563510,0.702357,-0.334026,0.278532,0.577114,-0.131772,0.233064
264,2321745936,-0.562263,0.702325,-0.335222,0.279693,0.189405,0.063994,0.146176
265,2321779270,-0.561867,0.701955,-0.336061,0.280409,0.181776,-0.013101,-0.025084
266,2321812604,-0.561928,0.702088,-0.336105,0.279901,-0.090088,-0.059288,0.082768
267,2321845938,-0.561489,0.702448,-0.336476,0.279431,0.035347,0.068964,0.196246
268,2321879272,-0.561232,0.703240,-0.336226,0.278254,0.212318,-0.084361,0.027369
269,2321912606,-0.560760,0.704417,-0.335787,0.276757,-0.112268,0.078838,-0.006869
270,2321945940,-0.559985,0.705838,-0.335517,0.275026,-0.043371,0.212661,0.243968
271,2321979274,-0.559799,0.707585,-0.334368,0.272303,0.334518,0.109069,0.176745
272,2322012608,-0.559587,0.709055,-0.333354,0.270147,0.179176,0.048194,0.050286
273,2322045942,-0.559398,0.710502,-0.332394,0.267912,-0.118681,0.186203,0.168858
274,2322079276,-0.559784,0.712037,-0.330878,0.264889,0.024713,-0.065329,0.206995
275,2322112610,-0.559928,0.713764,-0.329220,0.261988,0.004232,-0.169470,0.134717
276,2322145944,-0.559797,0.715391,-0.327926,0.259438,-0.161192,-0.118954,-0.000962
277,2322179278,-0.559747,0.717142,-0.326570,0.256408,-0.122782,-0.170793,0.149233
278,2322212612,-0.559771,0.718615,-0.325388,0.253720,0.096356,-0.129536,0.099719
279,2322245946,-0.559792,0.719636,-0.324693,0.251662,0.076439,-0.210872,0.225477
280,2322279280,-0.559473,0.720346,-0.324724,0.250296,-0.234856,-0.096010,0.085402
281,2322312614,-0.559428,0.720956,-0.324573,0.248830,-0.199226,-0.177462,0.098010
282,2322345948,-0.559331,0.721620,-0.324343,0.247420,-0.197931,-0.171802,0.100173
283,2322379282,-0.558917,0.722236,-0.324372,0.246518,-0.156750,-0.107806,0.111034
284,2322412616,-0.558423,0.722843,-0.324407,0.245812,-0.306987,-0.041297,0.124372
285,2322445950,-0.557910,0.723367,-0.324533,0.245269,-0.228447,0.020338,0.123163
286,2322479284,-0.557735,0.723528,-0.324665,0.245016,0.073460,-0.010446,0.277636
287,2322512618,-0.557538,0.723295,-0.325188,0.245459,-0.168018,-0.071962,0.095793
288,2322545952,-0.556948,0.722810,-0.326390,0.246629,-0.357737,0.113564,0.114961
289,2322579286,-0.557009,0.722010,-0.327136,0.247845,-0.112879,0.122377,0.111440
290,2322612620,-0.557493,0.720800,-0.327782,0.249419,-0.025198,-0.207412,0.199333
291,2322645954,-0.556935,0.719439,-0.329605,0.252177,-0.324680,-0.260993,0.155586
292,2322679288,-0.556295,0.718064,-0.331429,0.255103,-0.258523,-0.189836,0.061807
293,2322712622,-0.556217,0.716538,-0.332700,0.257893,-0.057720,-0.363159,0.162605
294,2322745956,-0.555606,0.714726,-0.334679,0.261649,-0.054155,-0.199155,0.160792
295,2322779290,-0.554889,0.712422,-0.337256,0.266107,-0.109073,0.159968,0.098106
296,2322812624,-0.555514,0.709165,-0.339477,0.270640,-0.141177,0.150354,0.121636
297,2322845958,-0.556463,0.705608,-0.341796,0.275032,-0.115351,0.259011,0.113130
298,2322879292,-0.557752,0.701510,-0.344169,0.279903,0.067373,0.105875,0.242991
299,2322912626,-0.558977,0.697463,-0.346376,0.284806,-0.068219,-0.055349,0.121388
300,2322945960,-0.559554,0.693479,-0.349071,0.290064,-0.292524,0.072818,0.070150
301,2322979294,-0.560250,0.689802,-0.351430,0.294604,-0.197009,0.040332,0.144358
302,2323012628,-0.561501,0.685999,-0.353282,0.298859,-0.014844,-0.120260,0.124426
303,2323045962,-0.563109,0.681978,-0.354848,0.303150,-0.000975,-0.024847,0.058700
304,2323079296,-0.565162,0.677895,-0.355973,0.307139,0.007076,0.009035,0.153909
305,2323112630,-0.567603,0.674165,-0.356469,0.310256,0.141063,-0.123631,0.119297
306,2323145964,-0.569433,0.670643,-0.357481,0.313357,0.228741,0.012670,0.047438
307,2323179298,-0.571019,0.667110,-0.358706,0.316597,0.281892,0.026789,0.121686
308,2323212632,-0.572691,0.664002,-0.359628,0.319056,0.078576,0.136144,0.110456
309,2323245966,-0.574102,0.661290,-0.360411,0.321260,0.108554,0.349243,0.070716
310,2323279300,-0.574735,0.659306,-0.361339,0.323157,0.033451,0.488765,0.076143
311,2323312634,-0.575784,0.658346,-0.360948,0.323685,0.166226,0.389566,0.138870
312,2323345968,-0.577860,0.657741,-0.359087,0.323286,0.374309,-0.059081,0.302167
313,2323379302,-0.580000,0.656205,-0.357988,0.323792,0.251538,0.126887,0.155791
314,2323412636,-0.582675,0.653830,-0.357030,0.324849,0.270511,-0.001121,0.132911
315,2323445970,-0.586199,0.651447,-0.355203,0.325300,0.306190,0.438556,0.179374
316,2323479304,-0.590275,0.649185,-0.352666,0.325210,0.126885,-0.040336,0.281964
317,2323512638,-0.592439,0.648224,-0.351452,0.324506,0.134084,-0.620541,-0.074925
318,2323545972,-0.591772,0.647628,-0.352727,0.325529,0.169373,0.096154,0.192431
319,2323579306,-0.591211,0.647151,-0.353772,0.326362,0.376649,0.226855,0.418633
320,2323612640,-0.591383,0.647239,-0.353778,0.325869,0.198652,0.374044,0.202909
321,2323645974,-0.591616,0.647263,-0.353723,0.325458,0.208631,0.349312,0.018761
322,2323679308,-0.591921,0.647464,-0.353539,0.324702,0.098404,0.057360,-0.049782
323,2323712642,-0.591910,0.647784,-0.353641,0.323970,0.092268,0.224660,0.029543
324,2323745976,-0.591773,0.648399,-0.353538,0.323103,0.255037,0.365492,0.082008
325,2323779310,-0.591860,0.649252,-0.352966,0.321853,0.210660,0.424800,0.021726
326,2323812644,-0.592053,0.650462,-0.352004,0.320107,0.157618,0.146027,0.026389
327,2323845978,-0.592237,0.651792,-0.350782,0.318398,0.346453,0.175826,0.086940
328,2323879312,-0.592382,0.653152,-0.349443,0.316807,0.234739,0.222504,0.179009
329,2323912646,-0.592404,0.654798,-0.348155,0.314782,0.005860,0.051834,0.129428
330,2323945980,-0.592198,0.656521,-0.347070,0.312772,0.247403,0.242609,0.116753
331,2323979314,-0.591739,0.658393,-0.346159,0.310708,0.285359,-0.276954,0.072894
332,2324012648,-0.590793,0.660264,-0.345633,0.309118,0.299857,0.126541,0.130423
333,2324045982,-0.589586,0.662485,-0.345240,0.307104,-0.116067,0.028616,0.213934
334,2324079316,-0.588462,0.665023,-0.344637,0.304441,-0.034480,-0.165462,0.051468
335,2324112650,-0.586666,0.667607,-0.344714,0.302155,0.132605,-0.102490,0.070171
336,2324145984,-0.584495,0.670366,-0.344856,0.300084,0.095713,-0.172994,0.139054
337,2324179318,-0.582283,0.673236,-0.344755,0.298070,0.144126,-0.356677,0.156980
338,2324212652,-0.579486,0.676089,-0.345130,0.296626,-0.314055,0.092351,0.163768
339,2324245986,-0.576649,0.679322,-0.345390,0.294458,-0.330767,0.431024,0.223448
340,2324279320,-0.575237,0.682211,-0.344319,0.291781,0.191110,0.046460,0.398130
341,2324312654,-0.574228,0.683998,-0.343222,0.290877,0.357858,0.099113,0.218604
342,2324345988,-0.574089,0.684034,-0.342387,0.292049,-0.325732,0.152086,0.280703
343,2324379322,-0.574235,0.683870,-0.341736,0.292905,-0.812165,-0.024312,0.137543
344,2324412656,-0.573351,0.683872,-0.342149,0.294149,-0.600795,0.152149,-0.026070
345,2324445990,-0.572643,0.683328,-0.342646,0.296207,-0.435023,-0.044489,0.078145
346,2324479324,-0.572191,0.682493,-0.342798,0.298818,-0.449367,-0.168644,0.242085
347,2324512658,-0.571763,0.681779,-0.342527,0.301565,-0.586967,0.002381,0.220389
348,2324545992,-0.572133,0.680079,-0.341977,0.305302,-0.234707,0.546599,0.421350
349,2324579326,-0.574956,0.677234,-0.340000,0.308516,-0.393766,-0.375084,0.111608
350,2324612660,-0.575060,0.675102,-0.340316,0.312618,-0.783546,-0.626559,-0.155581
351,2324645994,-0.573914,0.672893,-0.341934,0.317680,-0.824019,-0.345989,-0.124468
352,2324679328,-0.573621,0.671317,-0.342397,0.321029,-0.615441,-0.550996,-0.150908
353,2324712662,-0.572724,0.670356,-0.343400,0.323555,-0.636401,-0.840316,-0.299997
354,2324745996,-0.569158,0.669490,-0.347407,0.327341,-0.336367,-1.120670,0.301718
355,2324779330,-0.564833,0.668580,-0.352022,0.331734,0.249050,-0.907912,0.584886
356,2324812664,-0.561788,0.667281,-0.355297,0.336000,0.324851,-0.618587,0.217605
357,2324845998,-0.559145,0.666216,-0.358059,0.339572,-0.040769,-0.379297,0.728318
358,2324879332,-0.559467,0.663418,-0.359774,0.342693,0.121678,0.001257,0.930190
359,2324912666,-0.560397,0.661354,-0.360823,0.344057,1.224401,1.122715,0.176265
360,2324946000,-0.559509,0.658566,-0.363465,0.348045,1.166652,1.148841,0.427880
361,2324979334,-0.559153,0.655960,-0.364848,0.352069,1.118756,0.857294,0.429548
362,2325012668,-0.556195,0.654363,-0.366871,0.357580,0.274930,0.209527,-0.262104
363,2325046002,-0.553539,0.653230,-0.367138,0.363451,-0.477241,-0.001431,-0.590772
364,2325079336,-0.552699,0.652521,-0.365171,0.367957,-0.798310,-1.223774,-0.882640
365,2325112670,-0.552810,0.653136,-0.361192,0.370618,-0.331230,-0.377555,-0.245333
366,2325146004,-0.550130,0.657861,-0.358211,0.369138,0.118234,-1.999264,-0.079559
367,2325179338,-0.545327,0.662752,-0.357393,0.368307,-0.815452,-0.274406,-0.235319
368,2325212672,-0.538427,0.667014,-0.359750,0.368470,-0.953776,0.670346,0.013332
369,2325246006,-0.532580,0.670695,-0.362638,0.367452,0.290402,1.288609,0.310161
370,2325279340,-0.528924,0.673067,-0.364891,0.366165,1.377174,1.998995,0.533906
371,2325312674,-0.527269,0.673512,-0.366820,0.365806,2.014285,2.038757,0.587342
372,2325346008,-0.528993,0.672335,-0.366325,0.365976,1.888887,1.214903,0.422797
373,2325379342,-0.533768,0.669782,-0.363010,0.367027,1.041762,1.346048,0.309614
374,2325412676,-0.541538,0.667581,-0.357099,0.365451,0.202883,1.796494,0.408737
375,2325446010,-0.550989,0.665569,-0.350049,0.361795,-0.298795,1.088696,0.596326
376,2325479344,-0.560261,0.662027,-0.344167,0.359693,0.148618,0.263029,0.483635
377,2325512678,-0.568836,0.659163,-0.337345,0.357952,-0.034440,-0.310613,0.250238
378,2325546012,-0.577008,0.656733,-0.330275,0.355926,-0.263758,-0.578063,0.021948
379,2325579346,-0.584674,0.655248,-0.323306,0.352535,-0.331624,-1.083792,-0.000638
380,2325612680,-0.592017,0.655455,-0.315244,0.347158,-0.420495,-1.546413,-0.331429
381,2325646014,-0.597622,0.654220,-0.310001,0.344593,-0.078605,-1.626007,-0.415163
382,2325679348,-0.598624,0.653033,-0.310150,0.344973,-0.916917,-1.932058,-0.468644
383,2325712682,-0.595637,0.651911,-0.315029,0.347833,-1.087212,-1.321682,-0.381758
384,2325746016,-0.590124,0.651279,-0.322856,0.351218,-1.174975,-1.415146,-0.585735
385,2325779350,-0.582220,0.649981,-0.334502,0.355884,-1.112162,-1.075532,-0.311608
386,2325812684,-0.572340,0.648687,-0.348667,0.360646,-0.834308,-1.061110,-0.184965
387,2325846018,-0.563202,0.649729,-0.360441,0.361580,0.037055,0.048459,0.366213
388,2325879352,-0.561095,0.652327,-0.363295,0.357296,0.845089,1.234923,1.043428
389,2325912686,-0.566265,0.652548,-0.360022,0.352009,2.718751,2.176881,1.120204
390,2325946020,-0.573977,0.650789,-0.355596,0.347243,1.976846,2.643997,0.836605
391,2325979354,-0.584169,0.641599,-0.355118,0.347836,0.675711,3.024578,0.598722
392,2326012688,-0.594209,0.633301,-0.354306,0.346863,0.763575,0.576622,-0.124799
393,2326046022,-0.599670,0.631362,-0.353119,0.342179,-0.679772,-1.157574,-1.203098
394,2326079356,-0.602323,0.633106,-0.351115,0.336309,-1.452410,-1.216668,-1.349181
395,2326112690,-0.603007,0.637559,-0.349210,0.328564,-0.439012,-0.739009,-0.364231
396,2326146024,-0.601439,0.644822,-0.347896,0.318506,-0.101367,-1.522550,0.069975
397,2326179358,-0.598975,0.652372,-0.346433,0.309234,1.903819,0.270697,1.263881
398,2326212692,-0.598190,0.658558,-0.344047,0.300171,1.399591,0.459652,1.372557
399,2326246026,-0.595086,0.664261,-0.345042,0.292536,0.332593,0.237457,0.384843
400,2326279360,-0.593506,0.669014,-0.345322,0.284473,0.398582,-0.204275,-0.185869
401,2326312694,-0.591116,0.674264,-0.345584,0.276628,-0.304864,-0.160236,-0.171494
402,2326346028,-0.589131,0.681266,-0.343850,0.265650,-0.364131,-0.145574,0.002718
403,2326379362,-0.586797,0.688912,-0.341157,0.254327,0.014377,-0.067598,0.173998
404,2326412696,-0.584144,0.696388,-0.338448,0.243461,0.402073,-0.102204,0.284379
405,2326446030,-0.580823,0.702827,-0.337424,0.234148,0.511489,0.147789,0.190367
406,2326479364,-0.578353,0.707084,-0.337580,0.227116,0.358056,0.352509,0.150311
407,2326512698,-0.576886,0.709518,-0.338484,0.221851,-0.122861,0.252381,0.155741
408,2326546032,-0.574818,0.711893,-0.340009,0.217226,-1.159753,0.272485,0.060342
409,2326579366,-0.572686,0.715083,-0.341125,0.210530,-1.767722,0.694906,-0.094524
410,2326612700,-0.572133,0.718781,-0.339813,0.201360,-0.045008,-0.311367,0.191455
411,2326646034,-0.570541,0.723020,-0.338124,0.193389,-0.285348,-0.643605,0.108059
412,2326679368,-0.568974,0.727315,-0.336045,0.185358,-0.686584,-0.367160,0.077080
413,2326712702,-0.567183,0.731281,-0.334474,0.177931,-0.035948,-0.438304,0.201163
414,2326746036,-0.564252,0.735225,-0.333967,0.171849,-0.169073,-0.289211,0.160350
415,2326779370,-0.560401,0.739219,-0.334079,0.167027,-0.227914,-0.369382,-0.005044
416,2326812704,-0.555521,0.743470,-0.334527,0.163529,-0.203628,-0.152924,0.196788
417,2326846038,-0.550703,0.747546,-0.334826,0.160610,0.070492,0.018955,0.211372
418,2326879372,-0.546124,0.750943,-0.335638,0.158691,0.156521,0.201713,0.139832
419,2326912706,-0.542978,0.753016,-0.336640,0.157536,0.332314,0.477893,0.177364
420,2326946040,-0.541580,0.753737,-0.337599,0.156847,0.140240,0.604677,0.356236
421,2326979374,-0.541565,0.753432,-0.338480,0.156463,-0.369889,0.545134,0.355696
422,2327012708,-0.543180,0.752737,-0.338046,0.155145,-0.252012,0.252528,0.098988
423,2327046042,-0.545370,0.751858,-0.337137,0.153696,-0.177856,-0.034136,0.150843
424,2327079376,-0.547504,0.751134,-0.335969,0.152197,-0.334071,0.093731,0.093053
425,2327112710,-0.549448,0.750358,-0.334970,0.151219,-0.244100,0.072844,0.101750
426,2327146044,-0.551404,0.749801,-0.333532,0.150033,-0.354869,-0.152137,0.140947
427,2327179378,-0.552073,0.749974,-0.332307,0.149425,-0.191031,-0.225301,-0.017443
428,2327212712,-0.551681,0.750504,-0.331632,0.149710,-0.282874,-0.152992,0.207127
429,2327246046,-0.551241,0.751110,-0.331000,0.149693,-0.186478,-0.106921,0.084433
430,2327279380,-0.550685,0.751463,-0.330810,0.150386,-0.066983,0.016457,0.164289
431,2327312714,-0.550394,0.751516,-0.330770,0.151271,-0.138730,0.088651,0.286295
432,2327346048,-0.550684,0.751060,-0.330834,0.152338,0.060291,0.090047,0.084348
433,2327379382,-0.550968,0.750092,-0.331587,0.154428,0.191833,0.134907,0.189723
434,2327412716,-0.551557,0.748714,-0.332483,0.157065,-0.003342,0.115444,0.141845
435,2327446050,-0.552162,0.747234,-0.333451,0.159908,-0.137461,0.182879,0.083008
436,2327479384,-0.552730,0.745836,-0.334223,0.162835,-0.078241,-0.017058,0.169602
437,2327512718,-0.553304,0.744604,-0.334667,0.165585,-0.291889,0.017466,0.102036
438,2327546052,-0.553538,0.743956,-0.334595,0.167851,-0.264116,-0.029698,0.098829
439,2327579386,-0.553479,0.743836,-0.334027,0.169695,0.070501,-0.058576,0.052547
440,2327612720,-0.553389,0.743693,-0.333406,0.171823,0.019651,-0.033598,0.172960
441,2327646054,-0.553215,0.743624,-0.332813,0.173821,-0.077697,0.111003,0.154917
442,2327679388,-0.553508,0.743073,-0.332393,0.176033,0.125678,0.133161,0.114535
443,2327712722,-0.554241,0.742018,-0.332148,0.178620,0.130207,0.038459,0.167007
444,2327746056,-0.555138,0.740726,-0.331975,0.181499,0.030237,0.083618,0.150926
445,2327779390,-0.556459,0.738962,-0.331919,0.184717,-0.012290,0.010654,0.160326
446,2327812724,-0.558200,0.736738,-0.332001,0.188167,-0.024866,-0.149755,0.077978
447,2327846058,-0.559185,0.734866,-0.332280,0.192030,-0.084171,-0.159517,0.138650
448,2327879392,-0.560007,0.733548,-0.331700,0.195646,-0.308426,0.051056,0.136515
449,2327912726,-0.561953,0.732302,-0.329812,0.197909,-0.412881,0.093786,0.155747
450,2327946060,-0.564359,0.730910,-0.327955,0.199289,-0.190081,-0.047329,0.074075
451,2327979394,-0.566615,0.729067,-0.326938,0.201301,0.158541,-0.261455,0.129306
452,2328012728,-0.568378,0.726653,-0.327024,0.204886,-0.009212,-0.074753,0.180718
453,2328046062,-0.570756,0.723693,-0.327007,0.208744,-0.054867,-0.053097,0.010606
454,2328079396,-0.573115,0.720679,-0.326891,0.212849,-0.126817,-0.241089,0.062975
455,2328112730,-0.575058,0.718022,-0.326670,0.216888,0.002266,-0.200899,0.054717
456,2328146064,-0.576579,0.715415,-0.326883,0.221104,0.142219,-0.141920,0.128015
457,2328179398,-0.578281,0.712342,-0.327510,0.225608,0.168700,0.004242,0.086712
458,2328212732,-0.580459,0.708977,-0.328010,0.229849,0.308274,-0.027995,0.284702
459,2328246066,-0.582810,0.705554,-0.328363,0.233891,0.347029,0.002848,0.169641
460,2328279400,-0.585311,0.701909,-0.328663,0.238155,0.428020,0.031497,0.117763
461,2328312734,-0.586824,0.698461,-0.329929,0.242773,0.465432,0.107333,0.120917
462,2328346068,-0.587617,0.695027,-0.332050,0.247766,0.406166,0.181253,0.094464
463,2328379402,-0.588158,0.691605,-0.334443,0.252790,0.201495,0.371171,0.067871
464,2328412736,-0.588729,0.688765,-0.336133,0.256939,0.036442,0.421448,-0.003243
465,2328446070,-0.589400,0.686689,-0.336942,0.259881,0.086558,0.219251,0.002019
466,2328479404,-0.589807,0.685246,-0.337314,0.262274,0.155684,0.160587,0.059719
467,2328512738,-0.590380,0.683859,-0.337349,0.264546,0.509895,0.345950,0.232611
468,2328546072,-0.590827,0.682603,-0.337325,0.266817,0.510906,0.455953,0.211847
469,2328579406,-0.591146,0.681489,-0.337360,0.268905,0.253380,0.565147,0.295512
470,2328612740,-0.591749,0.680594,-0.337018,0.270269,0.077099,0.152316,-0.087464
471,2328646074,-0.591920,0.680248,-0.336682,0.271181,0.038695,-0.110992,-0.103171
472,2328679408,-0.591850,0.680363,-0.336204,0.271640,0.138104,-0.024733,0.212403
473,2328712742,-0.591328,0.681044,-0.335679,0.271718,0.281892,0.102052,0.058580
474,2328746076,-0.590514,0.681822,-0.335387,0.271898,0.341956,0.210545,0.061114
475,2328779410,-0.589358,0.682811,-0.335324,0.272004,0.312683,0.448330,0.174893
476,2328812744,-0.588305,0.683979,-0.335084,0.271644,0.455935,0.535570,0.067828
477,2328846078,-0.587320,0.684976,-0.335146,0.271188,0.223851,0.287246,0.211784
478,2328879412,-0.586268,0.685871,-0.335759,0.270442,-0.062851,-0.048580,0.269447
479,2328912746,-0.583935,0.687538,-0.336956,0.269765,0.221389,-1.047953,0.046786
480,2328946080,-0.580553,0.689473,-0.338498,0.270198,-0.134714,-0.152163,0.146307
481,2328979414,-0.578181,0.691717,-0.338622,0.269389,-0.088719,-0.067293,0.174873
482,2329012748,-0.576915,0.693742,-0.337929,0.267763,0.080553,-0.108089,0.107089
483,2329046082,-0.575768,0.694562,-0.338343,0.267583,0.161022,-0.434178,0.166560
484,2329079416,-0.574246,0.695332,-0.339255,0.267699,-0.201062,-0.246368,0.075406
485,2329112750,-0.572838,0.695960,-0.340100,0.268011,-0.248201,0.043275,0.190922
486,2329146084,-0.572390,0.696612,-0.339927,0.267493,-0.061165,-0.270694,0.124714
487,2329179418,-0.570844,0.697504,-0.340595,0.267621,-0.172965,-0.253770,0.128388
488,2329212752,-0.569271,0.698069,-0.341517,0.268325,-0.054606,0.007531,0.105909
489,2329246086,-0.568828,0.698236,-0.341743,0.268541,-0.030826,-0.083044,0.096905
490,2329279420,-0.568052,0.698323,-0.342363,0.269168,-0.206596,-0.066780,0.144131
491,2329312754,-0.567248,0.698477,-0.342885,0.269800,-0.168962,0.034139,0.170447
492,2329346088,-0.566864,0.698610,-0.342850,0.270304,-0.072293,-0.005779,0.138405
493,2329379422,-0.566481,0.698611,-0.342818,0.271145,-0.106178,-0.130304,0.135004
494,2329412756,-0.565610,0.698784,-0.343060,0.272209,-0.318248,0.071134,0.139995
495,2329446090,-0.564976,0.699040,-0.342885,0.273089,-0.159459,0.119717,0.099459
496,2329479424,-0.564568,0.699209,-0.342442,0.274054,-0.119432,0.160657,0.168139
497,2329512758,-0.564107,0.699111,-0.342109,0.275663,-0.046186,0.121512,0.138827
498,2329546092,-0.563716,0.699245,-0.341427,0.276965,-0.227248,0.132718,0.084823
499,2329579426,-0.563647,0.699403,-0.340300,0.278091,-0.241335,0.187582,0.072069
500,2329612760,-0.563834,0.699665,-0.338740,0.278956,-0.111953,0.155835,0.152304
501,2329646094,-0.563625,0.700129,-0.337374,0.279869,-0.145600,0.067766,0.191270
502,2329679428,-0.563230,0.700778,-0.336025,0.280661,-0.179589,0.114226,0.082272
503,2329712762,-0.562628,0.701462,-0.334866,0.281545,-0.154822,0.128650,0.172704
504,2329746096,-0.561949,0.702286,-0.333670,0.282266,0.100243,0.067576,0.244457
505,2329779430,-0.561542,0.702801,-0.332307,0.283398,0.248684,-0.089749,0.170276
506,2329812764,-0.561480,0.703001,-0.330692,0.284911,-0.022414,-0.132192,0.171125
507,2329846098,-0.561824,0.702973,-0.328912,0.286361,-0.207971,-0.008823,0.081649
508,2329879432,-0.562219,0.702731,-0.327405,0.287900,-0.148797,-0.202250,0.204426
509,2329912766,-0.562588,0.702361,-0.325954,0.289721,-0.066002,-0.237144,0.092196
510,2329946100,-0.562949,0.702202,-0.324303,0.291256,-0.057026,-0.158836,0.190975
511,2329979434,-0.563704,0.701970,-0.322461,0.292398,-0.002450,-0.073082,0.168728
512,2330012768,-0.564361,0.701651,-0.320999,0.293503,0.095581,-0.102969,0.128722
513,2330046102,-0.564822,0.701074,-0.320060,0.295017,0.071648,-0.105676,0.249110
514,2330079436,-0.565523,0.700316,-0.319073,0.296539,0.014991,-0.031241,0.109404
515,2330112770,-0.566568,0.699542,-0.317929,0.297597,-0.125931,0.075728,-0.004025
516,2330146104,-0.567699,0.698683,-0.316967,0.298484,-0.074782,0.024513,0.227826
517,2330179438,-0.569017,0.698028,-0.315718,0.298830,0.213989,-0.005791,0.272134
518,2330212772,-0.570285,0.697476,-0.314351,0.299143,0.269728,0.007322,0.265419
519,2330246106,-0.571371,0.696599,-0.313389,0.300122,0.253804,-0.043826,0.276139
520,2330279440,-0.572638,0.695422,-0.312598,0.301261,0.138936,0.016238,0.130975
521,2330312774,-0.573756,0.694037,-0.312304,0.302628,0.039253,-0.110443,0.133146
522,2330346108,-0.574769,0.692487,-0.312319,0.304238,0.048422,-0.101727,0.159680
523,2330379442,-0.576322,0.690819,-0.311917,0.305502,0.146106,0.179117,0.058119
524,2330412776,-0.578776,0.688827,-0.311127,0.306166,0.143588,0.320570,-0.088116
525,2330446110,-0.580752,0.686484,-0.311395,0.307411,0.221968,-0.060083,0.219735
526,2330479444,-0.581954,0.683961,-0.312527,0.309606,0.271264,-0.050771,0.156197
527,2330512778,-0.583711,0.681402,-0.312901,0.311557,0.256545,0.116633,-0.033453
528,2330546112,-0.586015,0.678840,-0.312602,0.313121,0.324349,-0.109948,0.105815
529,2330579446,-0.587681,0.676353,-0.312638,0.315336,0.320113,-0.141885,0.446671
530,2330612780,-0.589251,0.674262,-0.312301,0.317213,0.040819,0.086862,0.037215
531,2330646114,-0.590769,0.672793,-0.311822,0.317978,-0.301295,0.014801,-0.233814
532,2330679448,-0.592701,0.671706,-0.310989,0.317497,-0.242940,0.024801,-0.157287
533,2330712782,-0.593929,0.671080,-0.310792,0.316716,-0.070537,-0.111845,0.006058
534,2330746116,-0.594109,0.671153,-0.310965,0.316055,0.042882,-0.246052,0.083038
535,2330779450,-0.594502,0.671755,-0.310192,0.314792,0.106765,-0.247067,-0.033660
536,2330812784,-0.595290,0.672190,-0.309208,0.313339,0.047499,-0.222280,0.031979
537,2330846118,-0.595401,0.672637,-0.309290,0.312088,0.126149,-0.122677,0.192539
538,2330879452,-0.595539,0.672617,-0.309916,0.311244,0.246420,-0.029607,0.017436
539,2330912786,-0.596133,0.672210,-0.310440,0.310463,0.159421,-0.134833,-0.021678
540,2330946120,-0.596964,0.672268,-0.310476,0.308700,-0.032146,-0.392809,0.033031
541,2330979454,-0.596582,0.672512,-0.311719,0.307653,0.029871,-0.412537,-0.024473
542,2331012788,-0.595846,0.672924,-0.313298,0.306573,0.050490,-0.334418,-0.251592
543,2331046122,-0.596539,0.673208,-0.314006,0.303865,0.013446,0.170809,-0.512100
544,2331079456,-0.598826,0.673462,-0.314342,0.298407,-0.654370,-0.821422,-0.404449
545,2331112790,-0.599621,0.673546,-0.317045,0.293726,-0.142926,-0.421194,1.062368
546,2331146124,-0.600047,0.674797,-0.318334,0.288546,1.046333,0.296440,1.166053
547,2331179458,-0.598169,0.678171,-0.318681,0.284117,0.924969,0.223103,0.833635
548,2331212792,-0.596673,0.681167,-0.318361,0.280432,0.353704,0.309699,0.062253
549,2331246126,-0.595184,0.682892,-0.319791,0.277758,0.086008,0.319106,-0.068144
550,2331279460,-0.593945,0.684607,-0.321286,0.274446,0.314876,0.466085,0.202579
551,2331312794,-0.593048,0.686139,-0.322305,0.271344,0.045858,0.546791,0.211928
552,2331346128,-0.592564,0.687555,-0.322785,0.268229,-0.406295,0.674571,0.160047
553,2331379462,-0.592467,0.688991,-0.322839,0.264670,-0.345904,0.451692,0.155451
554,2331412796,-0.592520,0.690178,-0.322884,0.261384,0.033328,0.197795,0.140907
555,2331446130,-0.592463,0.690951,-0.323288,0.258960,-0.023586,-0.021843,0.117017
556,2331479464,-0.592499,0.691574,-0.323614,0.256801,-0.245749,0.138103,0.127443
557,2331512798,-0.592822,0.692218,-0.323593,0.254331,-0.368231,0.000722,0.102920
558,2331546132,-0.592699,0.693349,-0.323545,0.251585,-0.172646,-0.125573,0.081897
559,2331579466,-0.592038,0.694736,-0.323592,0.249244,-0.005993,-0.088725,0.080767
560,2331612800,-0.591334,0.696044,-0.323529,0.247341,0.046463,0.279247,0.146937
561,2331646134,-0.591157,0.696817,-0.323315,0.245864,-0.017840,0.425548,0.129127
562,2331679468,-0.591091,0.697128,-0.323443,0.244970,-0.097185,0.338485,0.196712
563,2331712802,-0.591293,0.696976,-0.323716,0.244554,0.001967,0.248656,0.121623
564,2331746136,-0.591344,0.696668,-0.324270,0.244573,0.003106,0.054245,0.044181
565,2331779470,-0.591043,0.696410,-0.324991,0.245081,-0.135556,0.104946,0.058722
566,2331812804,-0.590329,0.696584,-0.325458,0.245686,-0.013642,0.238678,0.072383
567,2331846138,-0.589429,0.697001,-0.325677,0.246372,0.109815,0.260471,0.086284
568,2331879472,-0.588315,0.697212,-0.326297,0.247616,0.034634,0.357353,0.049756
569,2331912806,-0.586253,0.697511,-0.328113,0.249259,-0.451307,0.509788,0.228404
570,2331946140,-0.584925,0.697670,-0.329846,0.249644,-0.158499,-0.001581,0.394670
571,2331979474,-0.581358,0.698594,-0.332516,0.251842,0.615448,-0.898491,0.020378
572,2332012808,-0.578847,0.698172,-0.334833,0.255695,-0.173148,0.215134,0.356339
573,2332046142,-0.578131,0.697580,-0.335700,0.257787,-0.573834,0.033860,-0.173009
574,2332079476,-0.577605,0.696922,-0.336359,0.259877,-0.337692,-0.102819,0.023367
575,2332112810,-0.576998,0.696988,-0.336228,0.261216,0.008938,-0.211415,0.220577
576,2332146144,-0.575924,0.697557,-0.335707,0.262734,0.141911,0.034748,0.047547
577,2332179478,-0.574868,0.697719,-0.335333,0.265082,0.090035,0.457122,0.140847
578,2332212812,-0.573785,0.697589,-0.335572,0.267458,0.104217,0.279256,0.230380
579,2332246146,-0.571553,0.697591,-0.336997,0.270422,-0.011142,0.045700,0.233459
580,2332279480,-0.569437,0.697785,-0.338028,0.273087,-0.047364,0.450848,0.164895
581,2332312814,-0.569021,0.697942,-0.337300,0.274448,0.160484,0.564628,0.179928
582,2332346148,-0.569624,0.697468,-0.336047,0.275938,0.292574,-0.074811,0.210282
583,2332379482,-0.568712,0.697043,-0.336352,0.278509,-0.045759,-0.345130,0.139595
584,2332412816,-0.566822,0.696853,-0.337446,0.281498,-0.122361,-0.103313,0.160181
585,2332446150,-0.566959,0.696200,-0.336797,0.283604,-0.005096,-0.282265,0.214042
586,2332479484,-0.566950,0.695841,-0.335884,0.285580,0.235410,-0.473649,0.114245
587,2332512818,-0.565501,0.695655,-0.336328,0.288370,-0.303075,-0.246984,0.071389
588,2332546152,-0.564236,0.695592,-0.336756,0.290495,-0.238980,-0.141770,0.154536
589,2332579486,-0.563906,0.695210,-0.336628,0.292193,0.010925,-0.245707,0.107261
590,2332612820,-0.563093,0.694664,-0.337087,0.294521,-0.030737,-0.228222,0.014729
591,2332646154,-0.562133,0.694434,-0.337459,0.296463,-0.242588,-0.091589,-0.032793
592,2332679488,-0.561152,0.694489,-0.337678,0.297940,-0.198210,-0.077593,0.235491
593,2332712822,-0.559617,0.694583,-0.338272,0.299929,-0.042235,-0.013105,0.226140
594,2332746156,-0.558455,0.694863,-0.338211,0.301510,-0.093134,0.118649,-0.024979
595,2332779490,-0.558183,0.695300,-0.337147,0.302198,-0.042108,0.127672,0.022989
596,2332812824,-0.558153,0.695696,-0.336062,0.302550,0.035881,0.065020,0.130170
597,2332846158,-0.557991,0.696085,-0.335216,0.302892,0.105836,0.051372,0.205757
598,2332879492,-0.557705,0.696582,-0.334418,0.303157,0.177411,-0.000800,0.133160
599,2332912826,-0.557832,0.697090,-0.333282,0.303008,0.172209,-0.105018,0.074330
600,2332946160,-0.558112,0.697443,-0.332235,0.302831,0.216070,-0.236290,0.271138
601,2332979494,-0.558441,0.697607,-0.331494,0.302657,0.294629,-0.123134,0.178371
602,2333012828,-0.559078,0.697641,-0.330800,0.302163,0.340021,-0.224934,0.116966
603,2333046162,-0.559496,0.697401,-0.330650,0.302106,0.350110,-0.102773,0.144873
604,2333079496,-0.559823,0.697084,-0.330833,0.302031,0.154315,-0.025319,0.109775
605,2333112830,-0.560576,0.696675,-0.330787,0.301629,0.119828,-0.190800,0.274535
606,2333146164,-0.561443,0.695924,-0.330846,0.301684,0.195366,-0.056016,0.088634
607,2333179498,-0.561952,0.695697,-0.330866,0.301238,-0.008334,0.011928,-0.101714
608,2333212832,-0.563220,0.695436,-0.330203,0.300200,0.170757,-0.186950,0.087472
609,2333246166,-0.563556,0.695941,-0.329778,0.298863,0.095921,0.008483,0.181764
610,2333279500,-0.563421,0.696722,-0.329685,0.297397,-0.070041,0.446763,0.207202
611,2333312834,-0.564188,0.697502,-0.328813,0.295070,0.198674,0.115307,0.190486
612,2333346168,-0.564824,0.698628,-0.327819,0.292283,0.270377,0.111082,0.206004
613,2333379502,-0.565338,0.699154,-0.327466,0.290419,0.137370,0.052597,0.168313
614,2333412836,-0.566282,0.700018,-0.326408,0.287677,0.034094,-0.057059,0.113446
615,2333446170,-0.567275,0.700635,-0.325600,0.285127,-0.180329,-0.051136,0.119571
616,2333479504,-0.568237,0.701418,-0.324810,0.282170,0.010113,-0.309113,0.108496
617,2333512838,-0.568913,0.702673,-0.323918,0.278688,-0.301383,-0.255832,0.040123
618,2333546172,-0.569322,0.704071,-0.323155,0.275189,-0.202979,-0.165519,0.120389
619,2333579506,-0.569556,0.705797,-0.322173,0.271408,-0.136599,-0.183242,0.197629
620,2333612840,-0.569636,0.707474,-0.321221,0.267981,-0.078848,-0.241128,0.139522
621,2333646174,-0.569729,0.709133,-0.320205,0.264592,-0.247245,-0.116260,0.136127
622,2333679508,-0.570062,0.710500,-0.319206,0.261399,-0.124841,0.036936,0.181950
623,2333712842,-0.570561,0.711758,-0.318024,0.258308,-0.115425,-0.096737,0.147480
624,2333746176,-0.570958,0.713084,-0.316736,0.255341,-0.228979,0.101357,0.069904
625,2333779510,-0.571724,0.714120,-0.315222,0.252589,-0.076232,0.267216,0.207151
626,2333812844,-0.572415,0.714851,-0.314104,0.250340,-0.125905,0.116756,0.215395
627,2333846178,-0.572773,0.715131,-0.313878,0.249002,-0.058755,0.158535,0.169278
628,2333879512,-0.573574,0.714668,-0.313963,0.248378,-0.039815,0.220488,0.124551
629,2333912846,-0.574837,0.713722,-0.314082,0.248026,-0.174461,-0.045319,0.170589
630,2333946180,-0.576099,0.712378,-0.314580,0.248333,-0.301302,-0.087391,0.148073
631,2333979514,-0.578275,0.710651,-0.314561,0.248246,-0.224428,-0.386482,0.108539
632,2334012848,-0.580707,0.709069,-0.314175,0.247583,-0.452225,-0.848096,-0.122300
633,2334046182,-0.582000,0.707506,-0.314914,0.248076,-0.442558,-0.859367,-0.250341
634,2334079516,-0.583682,0.706310,-0.314631,0.247891,-0.357970,-0.374387,0.150861
635,2334112850,-0.585419,0.705243,-0.314067,0.247551,-0.152133,-0.207766,0.394695
636,2334146184,-0.586361,0.704403,-0.314233,0.247500,-0.201563,-0.034777,0.108460
637,2334179518,-0.587265,0.703527,-0.314494,0.247518,-0.153276,0.478950,0.130441
638,2334212852,-0.588659,0.702532,-0.313994,0.247667,-0.007656,0.778164,0.294464
639,2334246186,-0.590948,0.701452,-0.312275,0.247451,-0.066381,0.829049,0.144304
640,2334279520,-0.593458,0.700438,-0.310036,0.247131,-0.404391,0.977698,0.007616
641,2334312854,-0.595889,0.699719,-0.307596,0.246366,-0.840261,0.956346,-0.028961
642,2334346188,-0.598615,0.700105,-0.303645,0.243547,-0.041271,0.569300,0.092190
643,2334379522,-0.601124,0.701041,-0.298843,0.240595,0.317570,0.163644,0.075467
644,2334412856,-0.603081,0.701703,-0.294477,0.239147,0.472134,0.348824,0.146311
645,2334446190,-0.605156,0.701821,-0.290081,0.238932,0.696042,0.032459,0.103031
646,2334479524,-0.605643,0.701838,-0.287357,0.240932,0.333733,-0.568600,0.082825
647,2334512858,-0.604254,0.702022,-0.286622,0.244728,-0.150297,-0.245429,0.254364
648,2334546192,-0.602072,0.702578,-0.286524,0.248594,-0.169465,0.016847,0.135877
649,2334579526,-0.600748,0.702574,-0.286308,0.252033,0.112571,0.208919,0.232574
650,2334612860,-0.600163,0.701639,-0.286547,0.255732,0.113028,-0.302921,0.083741
651,2334646194,-0.599105,0.699711,-0.288620,0.261109,-0.027491,-0.118648,0.141559
652,2334679528,-0.598760,0.696311,-0.291577,0.267620,0.070844,0.173405,0.281310
653,2334712862,-0.599666,0.691990,-0.294098,0.273968,-0.044921,0.085501,0.195033
654,2334746196,-0.600425,0.687352,-0.297249,0.280502,-0.120996,-0.185231,0.248773
655,2334779530,-0.601208,0.682652,-0.300567,0.286698,-0.029522,-0.488636,0.128067
656,2334812864,-0.601936,0.678376,-0.303452,0.292230,-0.004916,-0.659756,0.054678
657,2334846198,-0.602532,0.674317,-0.305981,0.297707,-0.158994,-0.611250,0.125677
658,2334879532,-0.602825,0.670152,-0.308924,0.303424,0.120849,-0.228035,0.229709
659,2334912866,-0.603186,0.665881,-0.312031,0.308883,0.192964,-0.260650,0.083241
660,2334946200,-0.604226,0.661991,-0.314087,0.313099,0.327246,-0.112613,0.257019
661,2334979534,-0.605447,0.657914,-0.315959,0.317417,0.176340,-0.285641,0.207711
662,2335012868,-0.606139,0.653412,-0.318890,0.322428,0.212672,0.202880,0.297105
663,2335046202,-0.607597,0.648998,-0.320988,0.326490,0.448643,0.385627,0.241578
664,2335079536,-0.608967,0.644913,-0.323075,0.329955,0.603098,0.331339,0.373427
665,2335112870,-0.609496,0.641513,-0.325504,0.333204,0.294654,0.736235,0.608963
666,2335146204,-0.609361,0.638046,-0.328732,0.336917,0.196799,-0.137904,0.351084
667,2335179538,-0.609263,0.635291,-0.330956,0.340108,0.859896,-0.665527,0.178282
668,2335212872,-0.608069,0.632461,-0.334127,0.344392,0.413761,-0.204592,-0.053835
669,2335246206,-0.606974,0.628857,-0.337660,0.349439,0.459792,0.033860,0.027984
670,2335279540,-0.605550,0.625475,-0.341657,0.354065,0.190218,-0.435779,0.042062
671,2335312874,-0.604108,0.621146,-0.346437,0.359463,0.062752,0.133761,-0.124086
672,2335346208,-0.602723,0.616695,-0.351403,0.364596,0.023126,0.197342,0.039564
673,2335379542,-0.601837,0.612454,-0.355571,0.369139,0.044667,0.225112,0.025692
674,2335412876,-0.602381,0.608817,-0.357518,0.372371,0.105208,0.351103,0.053974
675,2335446210,-0.603089,0.606292,-0.358095,0.374784,0.187022,0.224153,0.016566
676,2335479544,-0.603565,0.604628,-0.358127,0.376670,-0.103597,0.153996,-0.249972
677,2335512878,-0.603260,0.604197,-0.358198,0.377782,-0.040142,0.089729,-0.262979
678,2335546212,-0.602780,0.604788,-0.357944,0.377842,0.213049,0.330081,-0.205259
679,2335579546,-0.602703,0.606209,-0.357174,0.376414,-0.050375,0.296084,-0.405046
680,2335612880,-0.601307,0.609169,-0.357599,0.373454,-0.212946,0.158151,-0.497505
681,2335646214,-0.599045,0.612351,-0.359447,0.370097,-0.315790,0.278917,-0.488655
682,2335679548,-0.595991,0.616606,-0.362074,0.365371,-0.509961,-0.606682,-0.072245
683,2335712882,-0.594234,0.620945,-0.362793,0.360133,1.514351,0.247621,0.995697
684,2335746216,-0.596199,0.625128,-0.359203,0.353180,1.176644,0.677882,0.401163
685,2335779550,-0.595650,0.630508,-0.357112,0.346603,0.854693,-0.025777,0.440065
686,2335812884,-0.595955,0.634995,-0.355131,0.339857,0.719455,-0.043214,0.452456
687,2335846218,-0.596536,0.638408,-0.354124,0.333432,0.379870,0.257231,0.465159
688,2335879552,-0.596630,0.642427,-0.353642,0.325975,0.433206,-0.238491,0.512029
689,2335912886,-0.595669,0.647672,-0.352709,0.318273,0.201805,-0.224321,0.338054
690,2335946220,-0.594807,0.654266,-0.350469,0.308729,-0.674271,-0.003937,0.037634
691,2335979554,-0.593939,0.662150,-0.347756,0.296414,-0.807046,-0.117159,-0.146172
692,2336012888,-0.591883,0.670553,-0.345631,0.283854,-0.486089,-0.307207,-0.088620
693,2336046222,-0.590422,0.679567,-0.341446,0.270199,-0.231257,-0.078644,0.192189
694,2336079556,-0.589858,0.688404,-0.335747,0.255818,-0.404443,0.116980,0.007138
695,2336112890,-0.590216,0.696182,-0.329419,0.241788,-0.374545,0.070090,0.083049
696,2336146224,-0.591195,0.702547,-0.323330,0.228858,-0.037088,-0.075164,0.163745
697,2336179558,-0.591430,0.707710,-0.318697,0.218613,0.041994,-0.009915,0.218228
698,2336212892,-0.591447,0.711699,-0.315134,0.210635,-0.501422,0.102243,0.134731
699,2336246226,-0.591143,0.715163,-0.312798,0.203101,-0.346895,0.025046,0.138337
700,2336279560,-0.591107,0.718147,-0.310000,0.196873,-0.390062,0.095020,0.038908
701,2336312894,-0.589831,0.720687,-0.308950,0.193032,-0.078800,0.384072,0.339338
702,2336346228,-0.590227,0.721427,-0.308089,0.190414,-0.362879,0.884114,0.459869
703,2336379562,-0.592364,0.720230,-0.307856,0.188680,-0.214616,-0.165397,-0.098309
704,2336412896,-0.592133,0.719704,-0.309232,0.189162,-0.888611,-0.494007,0.125872
705,2336446230,-0.592017,0.720078,-0.308810,0.188788,-0.842561,-0.268861,0.145013
706,2336479564,-0.592065,0.720616,-0.307704,0.188392,-0.734382,-0.139362,0.101366
707,2336512898,-0.591721,0.720779,-0.307398,0.189345,-0.304897,-0.031538,0.200125
708,2336546232,-0.591336,0.719915,-0.308313,0.192324,-0.266991,0.088753,0.254226
709,2336579566,-0.591338,0.718111,-0.309743,0.196714,-0.456486,0.090719,0.166912
710,2336612900,-0.592201,0.715648,-0.310631,0.201632,-0.532617,-0.030109,0.120270
711,2336646234,-0.593271,0.712891,-0.311373,0.207037,-0.617039,-0.313311,0.143802
712,2336679568,-0.594013,0.709854,-0.312614,0.213376,-0.611492,-0.608431,0.039614
713,2336712902,-0.594773,0.706569,-0.313900,0.220166,-0.424297,-0.556601,0.086954
714,2336746236,-0.595506,0.702829,-0.315449,0.227813,-0.285849,-0.588591,0.054857
715,2336779570,-0.596068,0.698742,-0.317286,0.236207,-0.339983,-0.425907,0.085265
716,2336812904,-0.597094,0.693636,-0.319486,0.245517,-0.288715,-0.073543,-0.055388
717,2336846238,-0.598471,0.687622,-0.322078,0.255492,-0.383718,0.296494,0.127079
718,2336879572,-0.600670,0.680594,-0.324673,0.265664,-0.390138,0.020849,0.099265
719,2336912906,-0.603148,0.672884,-0.327466,0.276056,-0.216124,-0.306603,-0.040146
720,2336946240,-0.604765,0.665021,-0.330877,0.287277,-0.019973,0.075695,0.159642
721,2336979574,-0.606916,0.657195,-0.333116,0.297964,0.331835,0.443243,0.242222
722,2337012908,-0.609474,0.649358,-0.334572,0.308120,0.438408,0.531730,0.301356
723,2337046242,-0.612573,0.641658,-0.335533,0.316938,0.447672,0.494632,0.359019
724,2337079576,-0.616304,0.634805,-0.335547,0.323422,0.179128,0.128198,0.327822
725,2337112910,-0.619377,0.629403,-0.335240,0.328389,0.111817,-0.325410,0.189002
726,2337146244,-0.619240,0.627028,-0.336153,0.332236,0.284361,-0.601420,0.410068
727,2337179578,-0.614266,0.627209,-0.340528,0.336644,0.665232,-0.474920,0.490253
728,2337212912,-0.608217,0.627367,-0.345944,0.341772,0.722284,-0.201565,0.614488
729,2337246246,-0.603507,0.627533,-0.350267,0.345394,1.070184,0.249994,0.568244
730,2337279580,-0.602167,0.626933,-0.351658,0.347404,1.240832,0.962186,0.286111
731,2337312914,-0.600844,0.625730,-0.354617,0.348850,-0.014948,1.130326,-0.448038
732,2337346248,-0.597799,0.623485,-0.360896,0.351651,-0.515815,1.189271,0.073943
733,2337379582,-0.598250,0.619137,-0.365297,0.354015,0.103184,0.849390,-1.203423
734,2337412916,-0.589971,0.622578,-0.372460,0.354410,-0.110553,-2.444666,-1.163557
735,2337446250,-0.582370,0.628015,-0.375819,0.353842,-0.257460,-1.549030,-0.050353
736,2337479584,-0.576281,0.631270,-0.378965,0.354663,0.513754,1.551800,0.492702
737,2337512918,-0.576228,0.631394,-0.378900,0.354597,1.629372,3.051730,1.302827
738,2337546252,-0.579512,0.630886,-0.375778,0.353469,1.702574,0.942868,0.561153
739,2337579586,-0.583858,0.629147,-0.371442,0.354000,1.513563,0.282745,0.593536
740,2337612920,-0.592264,0.626302,-0.363965,0.352846,0.333966,0.159315,0.391893
741,2337646254,-0.598835,0.623379,-0.358692,0.352331,-0.901355,-0.521986,0.012676
742,2337679588,-0.602446,0.622360,-0.356009,0.350695,-1.162541,0.103835,-0.265100
743,2337712922,-0.607096,0.621884,-0.353004,0.346531,-1.452624,-0.175733,-0.363421
744,2337746256,-0.610906,0.623154,-0.350332,0.340209,0.015606,-0.367293,-0.377641
745,2337779590,-0.615535,0.624872,-0.346296,0.332766,0.389332,-0.098794,-0.147926
746,2337812924,-0.619319,0.626156,-0.343628,0.326026,0.508390,0.136924,-0.023518
747,2337846258,-0.623570,0.628030,-0.340478,0.317514,0.173052,0.574912,0.072884
748,2337879592,-0.628418,0.629120,-0.337322,0.309055,0.298464,0.688789,0.144226
749,2337912926,-0.632843,0.631264,-0.333109,0.300092,1.281703,0.414587,-0.005091
750,2337946260,-0.636921,0.633457,-0.328859,0.291406,0.513245,0.052015,-0.324497
751,2337979594,-0.639916,0.635900,-0.325458,0.283228,0.136059,-0.313587,-0.677876
752,2338012928,-0.641512,0.639801,-0.321803,0.274884,0.188389,-0.081214,-0.791760
753,2338046262,-0.641087,0.645982,-0.317986,0.265708,-0.171423,-0.576855,-0.807320
754,2338079596,-0.638431,0.654225,-0.314484,0.255924,0.257237,-0.992401,0.680031
755,2338112930,-0.636979,0.662760,-0.308067,0.245161,1.436866,0.785507,2.392304
756,2338146264,-0.633995,0.672137,-0.302240,0.234381,1.451761,-0.253822,0.898741
757,2338179598,-0.630738,0.680154,-0.298195,0.225036,0.646672,0.093557,-0.066715
758,2338212932,-0.627445,0.686501,-0.296351,0.217274,0.273463,-0.450937,-0.263836
759,2338246266,-0.622939,0.692380,-0.296785,0.210896,-0.131017,0.085911,0.102411
760,2338279600,-0.617662,0.699060,-0.297387,0.203398,-0.392069,-0.045644,0.041510
761,2338312934,-0.612859,0.705495,-0.297354,0.195606,0.004466,-0.118313,0.264686
762,2338346268,-0.607124,0.711993,-0.297946,0.188935,-0.096597,-0.857184,-0.191291
763,2338379602,-0.601608,0.717804,-0.299007,0.182818,-0.689159,-0.151276,0.232711
764,2338412936,-0.596452,0.723095,-0.299948,0.177232,-0.437181,-0.608711,0.191567
765,2338446270,-0.591546,0.728757,-0.299818,0.170576,-0.543499,-0.270300,0.177900
766,2338479604,-0.587422,0.733328,-0.299636,0.165482,-0.496101,0.067729,0.155848
767,2338512938,-0.585028,0.736228,-0.299472,0.161333,-0.641844,0.475179,0.401142
768,2338546272,-0.584684,0.737663,-0.298800,0.157222,-0.466468,0.184252,0.368363
769,2338579606,-0.586983,0.737450,-0.296923,0.153157,-0.603056,-0.128450,0.227977
770,2338612940,-0.589596,0.736861,-0.295041,0.149548,-0.287228,-0.508064,-0.039686
771,2338646274,-0.589023,0.737389,-0.295373,0.148545,-0.528786,-1.547618,-0.033592
772,2338679608,-0.586739,0.739253,-0.295618,0.147834,-0.632585,-1.117738,-0.161981
773,2338712942,-0.582665,0.742234,-0.296268,0.147708,-0.626893,-0.643428,0.048645
774,2338746276,-0.578664,0.745149,-0.296775,0.147744,-0.213559,0.096065,0.355271
775,2338779610,-0.576325,0.746691,-0.297156,0.148331,-0.004533,0.256527,0.329948
776,2338812944,-0.576234,0.746419,-0.297516,0.149328,0.302840,0.856687,0.195322
777,2338846278,-0.577829,0.744337,-0.298313,0.151947,-0.388003,0.983858,0.642022
778,2338879612,-0.583212,0.740559,-0.296570,0.153245,-0.823027,0.901502,0.375113
779,2338912946,-0.589339,0.736670,-0.293719,0.154041,-0.712983,0.514359,0.131484
780,2338946280,-0.594543,0.732922,-0.291619,0.155897,-0.046162,0.039994,0.243245
781,2338979614,-0.599154,0.728527,-0.291085,0.159796,0.038569,-0.176252,-0.076425
782,2339012948,-0.601108,0.724750,-0.292879,0.166223,-0.370546,0.030199,0.116100
783,2339046282,-0.602263,0.721575,-0.294375,0.173072,-0.836682,0.340847,0.374939
784,2339079616,-0.604202,0.718244,-0.294573,0.179706,-0.880784,-0.056555,0.083715
785,2339112950,-0.605649,0.714791,-0.295502,0.186933,-0.424409,-0.359606,-0.015913
786,2339146284,-0.607321,0.710695,-0.296955,0.194660,-0.052294,-0.706976,-0.081948
787,2339179618,-0.608781,0.706430,-0.298583,0.202961,-0.235528,-0.634521,0.046846
788,2339212952,-0.610820,0.702126,-0.299026,0.210958,-0.045532,-0.334585,0.090697
789,2339246286,-0.614225,0.697316,-0.298278,0.217969,0.114696,-0.291208,0.075593
790,2339279620,-0.617359,0.691886,-0.298795,0.225577,0.387862,-0.543381,0.081252
791,2339312954,-0.619871,0.685897,-0.300894,0.234027,0.681369,-0.536774,0.290964
792,2339346288,-0.622335,0.679118,-0.303979,0.243097,0.658244,-0.410076,0.363421
793,2339379622,-0.625442,0.671560,-0.306545,0.252708,0.684908,-0.115535,0.325507
794,2339412956,-0.627757,0.664930,-0.309212,0.261111,0.661080,0.009948,0.455775
795,2339446290,-0.627949,0.659669,-0.313334,0.268961,0.589017,-0.198211,0.258451
796,2339479624,-0.626230,0.654970,-0.319108,0.277529,0.494899,0.172863,0.000175
797,2339512958,-0.623507,0.651958,-0.324114,0.284855,0.339796,0.362556,-0.000815
798,2339546292,-0.622506,0.648784,-0.327017,0.290908,-0.204665,0.915164,0.035212
799,2339579626,-0.622400,0.645398,-0.329215,0.296141,0.047452,0.507999,-0.416555
800,2339612960,-0.620967,0.643793,-0.330979,0.300641,0.698959,0.560170,-0.149694
801,2339646294,-0.618850,0.642223,-0.332818,0.306280,0.484794,0.195518,0.212575
802,2339679628,-0.614766,0.644195,-0.334469,0.308558,-0.071845,-1.491908,-0.366551
803,2339712962,-0.610624,0.647031,-0.335528,0.309696,0.088836,-0.782696,-0.015807
804,2339746296,-0.607220,0.648646,-0.338005,0.310317,0.498762,0.282965,-0.054749
805,2339779630,-0.603581,0.648840,-0.343110,0.311407,0.710911,0.508421,0.095726
806,2339812964,-0.601010,0.647863,-0.348558,0.312361,0.784746,0.979879,-0.018372
807,2339846298,-0.598233,0.647801,-0.352969,0.312866,0.777229,0.033949,-0.290720
808,2339879632,-0.597568,0.649791,-0.352538,0.310489,0.638442,-0.452292,-0.356568
809,2339912966,-0.596236,0.651999,-0.352164,0.308840,0.953081,-0.580155,0.367488
810,2339946300,-0.593018,0.653874,-0.354742,0.308121,-0.023476,0.451284,1.023545
811,2339979634,-0.590086,0.656056,-0.357791,0.305577,0.250549,0.581229,0.395103
812,2340012968,-0.587805,0.658918,-0.359413,0.301888,0.383389,0.080006,0.016077
813,2340046302,-0.585412,0.662975,-0.359687,0.297293,-0.101673,-0.034620,0.043612
814,2340079636,-0.583298,0.667982,-0.358680,0.291399,-0.397979,0.096361,0.038416
815,2340112970,-0.580816,0.673277,-0.357893,0.285071,-0.480641,0.356046,0.051581
816,2340146304,-0.578302,0.679101,-0.356718,0.277745,-0.050029,0.421077,0.300985
817,2340179638,-0.577137,0.684749,-0.353896,0.269799,0.345247,0.359804,0.274311
818,2340212972,-0.576893,0.689589,-0.350579,0.262216,0.091855,0.322949,0.174347
819,2340246306,-0.577062,0.693438,-0.347696,0.255445,-0.231175,0.194983,0.193774
820,2340279640,-0.577146,0.697158,-0.345010,0.248681,-0.509360,-0.220995,0.055567
821,2340312974,-0.576563,0.701301,-0.342226,0.242147,0.001551,-0.164088,0.085850
822,2340346308,-0.576062,0.705009,-0.339206,0.236761,-0.279412,0.003162,0.163038
823,2340379642,-0.576171,0.708716,-0.335493,0.230640,-0.305125,0.209641,0.164911
824,2340412976,-0.576760,0.711787,-0.331767,0.225033,-0.191003,0.152244,0.127597
825,2340446310,-0.577594,0.713773,-0.328972,0.220662,-0.266160,0.105652,0.197392
826,2340479644,-0.578170,0.715290,-0.326800,0.217449,-0.309175,0.194461,0.224517
827,2340512978,-0.578952,0.716421,-0.324704,0.214767,-0.261542,0.148605,0.147115
828,2340546312,-0.579757,0.717216,-0.322909,0.212634,-0.353775,0.044826,0.083957
829,2340579646,-0.579794,0.718124,-0.321680,0.211330,-0.459379,-0.091367,0.273891
830,2340612980,-0.580054,0.718750,-0.320490,0.210296,-0.393362,-0.181708,-0.028346
831,2340646314,-0.580272,0.719123,-0.319498,0.209928,-0.182460,-0.063850,0.217581
832,2340679648,-0.580670,0.719131,-0.318565,0.210216,-0.139246,-0.049961,0.198034
833,2340712982,-0.581523,0.718410,-0.317991,0.211191,-0.108761,0.009652,0.114072
834,2340746316,-0.582599,0.717092,-0.317805,0.212978,-0.113263,-0.159672,0.157621
835,2340779650,-0.583370,0.715628,-0.318146,0.215269,-0.178242,-0.266035,0.169897
836,2340812984,-0.583763,0.714240,-0.318722,0.217943,-0.333703,-0.423331,0.129278
837,2340846318,-0.583889,0.712938,-0.319464,0.220764,-0.244531,-0.415045,0.073769
838,2340879652,-0.584145,0.711567,-0.320120,0.223544,-0.117660,-0.255995,0.034165
839,2340912986,-0.584585,0.709948,-0.320814,0.226526,0.000521,-0.166569,0.204610
840,2340946320,-0.585395,0.707748,-0.321692,0.230046,0.088254,-0.209690,0.150795
841,2340979654,-0.586257,0.704928,-0.323168,0.234400,-0.025172,-0.313753,0.073681
842,2341012988,-0.586855,0.701762,-0.325355,0.239326,-0.135968,-0.129946,0.112318
843,2341046322,-0.587716,0.698297,-0.327505,0.244365,-0.027113,-0.080044,0.194519
844,2341079656,-0.589854,0.694202,-0.328806,0.249085,0.120465,0.029928,0.059652
845,2341112990,-0.592913,0.689220,-0.329860,0.254213,0.232015,0.346662,0.231527
846,2341146324,-0.596922,0.683217,-0.330869,0.259664,0.261142,0.365500,0.249736
847,2341179658,-0.600399,0.676724,-0.333019,0.265831,0.152027,0.091965,0.138037
848,2341212992,-0.602373,0.670875,-0.336003,0.272353,-0.082737,-0.051346,0.129860
849,2341246326,-0.603345,0.666468,-0.338298,0.278120,-0.048327,-0.197640,0.087244
850,2341279660,-0.603278,0.663372,-0.340308,0.283170,-0.088344,-0.287264,0.002697
851,2341312994,-0.602686,0.661174,-0.341935,0.287577,0.131301,0.191911,0.047960
852,2341346328,-0.602716,0.658993,-0.342918,0.291325,0.461699,0.428513,0.042871
853,2341379662,-0.603214,0.656150,-0.344023,0.295382,0.342025,0.408482,0.165697
854,2341412996,-0.603750,0.652977,-0.345420,0.299656,0.050191,0.305759,0.171269
855,2341446330,-0.603842,0.650351,-0.346780,0.303585,-0.249035,0.119990,-0.042290
856,2341479664,-0.603931,0.648522,-0.347219,0.306804,-0.287696,0.150034,0.013428
857,2341512998,-0.604366,0.647702,-0.346281,0.308732,-0.066518,0.068086,0.117037
858,2341546332,-0.604522,0.647505,-0.345066,0.310196,0.138930,0.041788,0.077151
859,2341579666,-0.604464,0.647217,-0.344076,0.312005,0.280923,0.211057,0.164071
860,2341613000,-0.604575,0.646591,-0.343150,0.314101,0.255238,0.314562,0.230138
861,2341646334,-0.604551,0.646324,-0.342298,0.315622,0.061876,0.116529,0.113130
862,2341679668,-0.604509,0.646281,-0.341256,0.316915,0.091104,0.128835,0.011183
863,2341713002,-0.604469,0.646433,-0.339891,0.318147,0.189610,0.164548,0.047667
864,2341746336,-0.604467,0.646655,-0.338373,0.319315,0.309635,0.306223,0.155065
865,2341779670,-0.604369,0.646840,-0.337062,0.320510,0.292892,0.285300,0.151184
866,2341813004,-0.604040,0.646598,-0.336640,0.322060,0.307053,0.158204,0.140842
867,2341846338,-0.603642,0.645975,-0.336775,0.323909,0.186633,0.159810,0.141404
868,2341879672,-0.603255,0.645387,-0.336847,0.325721,0.115881,0.071532,0.132001
869,2341913006,-0.602553,0.645284,-0.337046,0.327017,-0.027930,-0.070455,0.131841
870,2341946340,-0.601661,0.646021,-0.336906,0.327349,-0.026459,-0.201842,0.087140
871,2341979674,-0.601297,0.647053,-0.335865,0.327049,0.017426,-0.272020,0.123098
872,2342013008,-0.600579,0.648202,-0.334992,0.326986,0.144535,-0.244490,0.153354
873,2342046342,-0.599197,0.649454,-0.334846,0.327188,0.328497,0.126319,0.192769
874,2342079676,-0.598378,0.650109,-0.334689,0.327548,0.603631,0.380179,0.249131
875,2342113010,-0.597824,0.650123,-0.334878,0.328336,0.616072,0.175828,0.178207
876,2342146344,-0.597045,0.650115,-0.335563,0.329070,0.179025,-0.244136,-0.056434
877,2342179678,-0.596722,0.649589,-0.336414,0.329824,0.320381,0.794111,0.101904
878,2342213012,-0.597929,0.648505,-0.336512,0.329671,0.016314,-0.519951,0.289498
879,2342246346,-0.597337,0.648419,-0.337659,0.329741,0.173608,-0.678004,0.169553
880,2342279680,-0.597005,0.648505,-0.338188,0.329631,0.319638,-0.140758,0.071386
881,2342313014,-0.596606,0.648624,-0.338829,0.329462,0.173740,-0.157727,0.192212
882,2342346348,-0.596623,0.648940,-0.339293,0.328329,0.243233,-0.006557,0.224009
883,2342379682,-0.596912,0.649343,-0.339799,0.326479,0.473901,-0.145566,0.105799
884,2342413016,-0.596759,0.649633,-0.340947,0.324981,0.283532,-0.346996,0.154765
885,2342446350,-0.596755,0.650130,-0.341888,0.322998,0.184191,-0.157998,0.134677
886,2342479684,-0.596970,0.650843,-0.342735,0.320258,0.119970,-0.216635,0.182010
887,2342513018,-0.597077,0.651973,-0.343723,0.316683,0.312458,-0.329203,0.158480
888,2342546352,-0.597150,0.653051,-0.344864,0.313061,0.306298,-0.229118,0.176381
889,2342579686,-0.597107,0.654189,-0.346318,0.309137,0.310400,-0.381558,0.133451
890,2342613020,-0.596760,0.655543,-0.347974,0.305051,0.145499,-0.236007,0.061229
891,2342646354,-0.595713,0.657300,-0.350072,0.300887,0.043746,-0.111245,0.109345
892,2342679688,-0.594356,0.659215,-0.352512,0.296502,-0.143412,-0.143261,0.001870
893,2342713022,-0.593079,0.661620,-0.354376,0.291437,-0.047989,-0.040479,0.061931
894,2342746356,-0.591742,0.664332,-0.355885,0.286098,-0.031714,0.018085,0.147624
895,2342779690,-0.590934,0.667234,-0.356532,0.280147,0.070092,0.108550,0.098043
896,2342813024,-0.590823,0.669767,-0.356477,0.274346,0.034987,0.111462,0.145490
897,2342846358,-0.590714,0.672065,-0.356572,0.268783,-0.194624,0.277902,0.070569
898,2342879692,-0.591094,0.674626,-0.355981,0.262235,-0.210475,0.416770,0.137132
899,2342913026,-0.592082,0.677203,-0.354494,0.255286,0.004865,0.055268,0.172281
900,2342946360,-0.592686,0.679599,-0.353241,0.249181,-0.110135,-0.065008,0.024123
901,2342979694,-0.593157,0.682032,-0.351982,0.243118,-0.330692,0.142283,0.134812
902,2343013028,-0.593517,0.684591,-0.350567,0.237017,-0.034653,0.067774,0.027699
903,2343046362,-0.593694,0.686915,-0.349225,0.231772,-0.167067,0.175726,0.168717
904,2343079696,-0.593721,0.689205,-0.348046,0.226621,-1.006862,0.553440,0.170385
905,2343113030,-0.593419,0.692149,-0.346437,0.220833,0.222438,-0.870246,0.025507
906,2343146364,-0.593217,0.693752,-0.345467,0.217844,-0.114181,0.293599,0.188479
907,2343179698,-0.594280,0.693814,-0.344814,0.215773,-0.519463,0.792900,0.298450
908,2343213032,-0.596429,0.692790,-0.344294,0.213955,-0.562026,0.477969,0.158287
909,2343246366,-0.598258,0.691683,-0.344319,0.212388,-0.499635,-0.128567,0.073017
910,2343279700,-0.598764,0.691469,-0.344535,0.211304,-0.516037,-0.344722,0.077514
911,2343313034,-0.598877,0.692151,-0.343756,0.210013,-0.210538,-0.199827,0.165351
912,2343346368,-0.598962,0.692744,-0.342734,0.209489,0.034328,0.182130,0.204897
913,2343379702,-0.599148,0.692418,-0.342530,0.210365,-0.029295,0.467342,0.223730
914,2343413036,-0.599696,0.691241,-0.342879,0.212099,-0.306526,0.316114,0.159691
915,2343446370,-0.600458,0.689797,-0.343254,0.214032,-0.489156,0.117836,0.095900
916,2343479704,-0.600955,0.688932,-0.343243,0.215433,-0.684653,-0.191856,0.006080
917,2343513038,-0.601480,0.688563,-0.342517,0.216303,-0.211509,-0.087462,0.185832
918,2343546372,-0.601939,0.687948,-0.341839,0.218047,0.020581,-0.001166,0.213198
919,2343579706,-0.602044,0.687011,-0.341849,0.220681,-0.103720,-0.039290,0.093312
920,2343613040,-0.602093,0.685831,-0.342133,0.223756,-0.248128,0.029881,0.128334
921,2343646374,-0.602328,0.684604,-0.342311,0.226589,-0.355645,0.264626,0.086741
922,2343679708,-0.602727,0.683511,-0.342030,0.229238,-0.097973,-0.054413,0.150358
923,2343713042,-0.603163,0.682475,-0.341371,0.232141,-0.037757,0.118476,0.115600
924,2343746376,-0.603758,0.681211,-0.340716,0.235247,-0.058549,-0.032670,0.031105
925,2343779710,-0.603954,0.680032,-0.340480,0.238479,-0.037262,0.000812,0.116352
926,2343813044,-0.603965,0.678831,-0.340310,0.242087,0.108830,0.194835,0.141000
927,2343846378,-0.604165,0.677300,-0.340101,0.246134,0.029563,0.169171,0.102778
928,2343879712,-0.604471,0.675787,-0.339653,0.250128,-0.080047,0.115486,0.131587
929,2343913046,-0.604744,0.674392,-0.339117,0.253933,-0.105471,-0.015908,0.044826
930,2343946380,-0.604789,0.673317,-0.338578,0.257374,-0.083843,0.026067,0.019996
931,2343979714,-0.604946,0.672439,-0.337595,0.260573,0.053583,0.138874,0.139986
932,2344013048,-0.605225,0.671840,-0.336085,0.263404,0.244851,0.135531,0.146877
933,2344046382,-0.605340,0.671287,-0.334689,0.266314,0.415574,0.051683,0.141687
934,2344079716,-0.605226,0.670303,-0.333959,0.269942,0.335101,0.133686,0.094182
935,2344113050,-0.605136,0.669105,-0.333449,0.273720,0.288324,0.358593,0.096204
936,2344146384,-0.605176,0.667921,-0.332825,0.277260,0.299072,0.206960,0.090426
937,2344179718,-0.605077,0.666829,-0.332263,0.280757,0.281117,0.150649,0.032769
938,2344213052,-0.604965,0.665782,-0.331805,0.284006,0.311171,0.235469,0.011039
939,2344246386,-0.604548,0.664634,-0.331888,0.287464,0.398586,0.044746,0.128056
940,2344279720,-0.603151,0.663931,-0.332737,0.291018,0.275897,-0.034035,0.208511
941,2344313054,-0.601386,0.663209,-0.334157,0.294669,0.328338,0.138528,0.142206
942,2344346388,-0.599397,0.662771,-0.335789,0.297835,0.414629,-0.415079,-0.032726
943,2344379722,-0.596859,0.662587,-0.338045,0.300774,-0.141998,-0.019344,-0.311743
944,2344413056,-0.595866,0.661552,-0.339214,0.303691,0.399063,-0.384153,0.841166
945,2344446390,-0.591479,0.662143,-0.342382,0.307401,0.065693,-0.704358,0.088956
946,2344479724,-0.588200,0.662172,-0.344644,0.311081,-0.028681,0.420769,0.175752
947,2344513058,-0.585977,0.662231,-0.346262,0.313344,0.262040,0.090995,0.193438
948,2344546392,-0.584081,0.662100,-0.347936,0.315303,0.327795,0.056511,0.176842
949,2344579726,-0.582534,0.661391,-0.349679,0.317714,0.413730,-0.402620,0.246181
950,2344613060,-0.580494,0.660832,-0.351764,0.320299,0.028906,-0.287276,0.165260
951,2344646394,-0.577844,0.660534,-0.354387,0.322806,-0.264748,0.014625,0.049573
952,2344679728,-0.576429,0.660246,-0.356068,0.324071,0.030625,0.239161,0.117152
953,2344713062,-0.577138,0.659024,-0.356504,0.324816,0.017025,-0.291878,0.168173
954,2344746396,-0.577317,0.658234,-0.357378,0.325139,0.105719,-0.385614,0.061761
955,2344779730,-0.576319,0.658031,-0.359060,0.325467,-0.231838,-0.179363,0.043614
956,2344813064,-0.575648,0.658305,-0.360030,0.325029,-0.039129,0.098743,0.079686
957,2344846398,-0.575148,0.659564,-0.360185,0.323185,-0.025535,-0.335344,0.087017
958,2344879732,-0.573662,0.661721,-0.360709,0.320824,0.005000,-0.154353,0.055237
959,2344913066,-0.571649,0.664023,-0.361639,0.318607,0.207065,0.115223,0.087438
960,2344946400,-0.570361,0.666750,-0.361665,0.315170,0.165881,-0.014218,0.084601
961,2344979734,-0.569212,0.669695,-0.361448,0.311228,0.360667,0.332790,0.170471
962,2345013068,-0.568209,0.672244,-0.361390,0.307611,0.575497,0.310991,0.219545
963,2345046402,-0.568196,0.674466,-0.360790,0.303450,0.636485,0.138072,0.152739
964,2345079736,-0.567877,0.676141,-0.360982,0.300071,0.406400,0.419790,0.188010
965,2345113070,-0.568223,0.677159,-0.361128,0.296929,0.309098,0.300569,0.145281
966,2345146404,-0.569860,0.678161,-0.360099,0.292723,0.227352,0.153967,0.072145
967,2345179738,-0.570262,0.679607,-0.359889,0.288820,0.015226,-0.097121,0.232577
968,2345213072,-0.570137,0.681996,-0.359380,0.284029,-0.191571,-0.405107,-0.021906
969,2345246406,-0.569677,0.685252,-0.358501,0.278166,-0.259405,-0.201461,-0.051985
970,2345279740,-0.568920,0.688877,-0.357533,0.271938,-0.033241,-0.027214,0.026753
971,2345313074,-0.568696,0.692570,-0.356003,0.264945,-0.007388,0.243193,0.155770
972,2345346408,-0.569156,0.696215,-0.353932,0.257060,0.153145,0.085840,-0.021415
973,2345379742,-0.569059,0.700111,-0.351957,0.249287,-0.107417,0.041705,0.146988
974,2345413076,-0.568364,0.704235,-0.349905,0.242039,-0.174584,0.017398,0.196403
975,2345446410,-0.567885,0.708697,-0.347024,0.234158,-0.240329,-0.195077,0.030720
976,2345479744,-0.567325,0.713437,-0.343796,0.225735,-0.285289,-0.242514,0.045938
977,2345513078,-0.566033,0.718339,-0.340879,0.217714,-0.259256,-0.064856,0.150117
978,2345546412,-0.564676,0.723515,-0.337385,0.209382,-0.232130,0.101265,0.108949
979,2345579746,-0.564271,0.728542,-0.332507,0.200661,-0.239170,0.232856,0.175794
980,2345613080,-0.564516,0.733357,-0.326784,0.191633,-0.228717,0.170917,0.125634
981,2345646414,-0.564575,0.737780,-0.321579,0.183099,-0.427259,0.273195,0.126546
982,2345679748,-0.565524,0.741515,-0.315985,0.174624,-0.084965,0.331880,0.128960
983,2345713082,-0.567003,0.744615,-0.310309,0.166630,-0.247728,-0.043834,0.185089
984,2345746416,-0.568529,0.747508,-0.304576,0.158877,-0.413453,-0.176510,0.155083
985,2345779750,-0.569802,0.750716,-0.298383,0.150736,-0.281012,-0.441319,0.084348
986,2345813084,-0.569748,0.754662,-0.292422,0.142697,-0.162065,-0.208258,0.145363
987,2345846418,-0.569420,0.758464,-0.286650,0.135376,0.008225,0.163076,0.237877
988,2345879752,-0.569580,0.761425,-0.281453,0.128829,0.103986,0.310662,0.181229
989,2345913086,-0.570152,0.763454,-0.277167,0.123473,0.119703,0.262784,0.173749
990,2345946420,-0.571318,0.764504,-0.273639,0.119382,-0.136833,-0.063537,0.187469
991,2345979754,-0.572148,0.765502,-0.270584,0.115926,-0.028722,-0.160229,0.118330
992,2346013088,-0.572787,0.766327,-0.268019,0.113253,-0.002750,0.012730,0.272424
993,2346046422,-0.573473,0.766775,-0.266138,0.111164,0.109026,-0.083754,0.097095
994,2346079756,-0.573862,0.766860,-0.265457,0.110197,0.097319,-0.135161,0.197914
995,2346113090,-0.574492,0.766473,-0.265333,0.109907,0.110448,-0.078696,0.128009
996,2346146424,-0.575135,0.765756,-0.265760,0.110499,0.015580,0.043968,0.175838
997,2346179758,-0.575746,0.764737,-0.266741,0.112004,-0.097061,0.091889,0.184274
998,2346213092,-0.576554,0.763401,-0.268039,0.113850,-0.112179,0.043662,0.108990
999,2346246426,-0.577295,0.761940,-0.269617,0.116129,0.021853,0.050281,0.203421
1000,2346279760,-0.577886,0.760519,-0.271194,0.118805,0.035725,-0.093893,0.177813
1001,2346313094,-0.578272,0.759065,-0.273008,0.122028,-0.147138,-0.086004,0.093611
1002,2346346428,-0.578463,0.757781,-0.274723,0.125208,-0.216310,0.126263,0.156713
1003,2346379762,-0.578569,0.756570,-0.276329,0.128467,-0.081422,0.180944,0.191949