sep=,
DeviceTag:,D_Leg
FirmwareVersion:,2.2.1
AppVersion:,2023.6.0
SyncStatus:,Synced
OutputRate:,30Hz
FilterProfile:,General
Measurement Mode:,Sensor fusion Mode - Complete(Quaternion)
StartTime: ,2026-09-15_13:37:33_167 AEST
© Movella Technologies B. V. 2005-2026

PacketCounter,SampleTimeFine,Quat_W,Quat_X,Quat_Y,Quat_Z,FreeAcc_X,FreeAcc_Y,FreeAcc_Z
1,2922160758,-0.657584,0.209340,0.630099,0.356028,0.135616,0.023574,0.118871
2,2922194092,-0.657660,0.210533,0.629916,0.355506,0.241907,0.090295,0.110071
3,2922227426,-0.657562,0.211995,0.629677,0.355242,0.239189,0.076734,0.158808
4,2922260760,-0.657561,0.213713,0.629005,0.355404,0.237536,0.020908,0.182576
5,2922294094,-0.657576,0.215554,0.628388,0.355358,0.208870,-0.058566,0.128869
6,2922327428,-0.657663,0.217373,0.627883,0.354980,0.167971,0.024422,0.038616
7,2922360762,-0.657789,0.219032,0.627563,0.354292,0.053169,0.042060,0.116424
8,2922394096,-0.658088,0.220690,0.627054,0.353610,0.092064,0.191455,0.164344
9,2922427430,-0.658698,0.222120,0.626522,0.352519,0.114234,0.247182,0.136494
10,2922460764,-0.659553,0.223387,0.625966,0.351105,0.195218,0.207262,0.137198
11,2922494098,-0.660551,0.224635,0.625314,0.349590,0.162776,0.144190,0.159506
12,2922527432,-0.661832,0.225767,0.624416,0.348040,0.340524,-0.186973,-0.120260
13,2922560766,-0.662623,0.227455,0.623472,0.347127,0.561398,-0.223810,-0.311618
14,2922594100,-0.662817,0.230538,0.621766,0.347781,0.239337,-0.231572,-0.022013
15,2922627434,-0.663128,0.234015,0.619341,0.349191,0.049175,-0.211257,0.180366
16,2922660768,-0.663797,0.237007,0.616532,0.350870,0.014400,-0.149276,0.368831
17,2922694102,-0.665330,0.238973,0.613111,0.352623,0.001283,-0.269130,0.398873
18,2922727436,-0.667512,0.240741,0.609071,0.354293,-0.250696,-0.272690,-0.201720
19,2922760770,-0.670228,0.241563,0.605267,0.355123,-0.453887,-0.316302,-0.628384
20,2922794104,-0.673328,0.240804,0.602359,0.354720,-0.664465,-0.093779,-0.285261
21,2922827438,-0.677288,0.237245,0.600648,0.352473,-0.194822,0.104236,0.180810
22,2922860772,-0.682413,0.230736,0.598408,0.350716,0.770830,0.542597,-0.225571
23,2922894106,-0.686660,0.225996,0.593565,0.353729,0.895235,0.582890,0.278677
24,2922927440,-0.689804,0.223986,0.586445,0.360697,-0.140673,-0.176836,0.580845
25,2922960774,-0.692773,0.222638,0.578362,0.368801,-0.318067,-0.806316,-0.081046
26,2922994108,-0.695354,0.223797,0.570238,0.375828,-0.574131,-1.090390,-1.045835
27,2923027442,-0.697683,0.226949,0.563813,0.379297,-1.144243,-0.259816,-1.512922
28,2923060776,-0.701240,0.226938,0.559935,0.378489,-1.599199,-0.076217,-0.910939
29,2923094110,-0.706571,0.222356,0.557536,0.374818,-0.481203,0.521595,0.400089
30,2923127444,-0.714982,0.213236,0.552623,0.371429,1.399914,1.308648,2.060849
31,2923160778,-0.722936,0.203737,0.545656,0.371663,1.844822,-1.026700,0.062370
32,2923194112,-0.727864,0.200551,0.535950,0.377849,1.398475,0.275235,-1.618336
33,2923227446,-0.731568,0.199225,0.525983,0.385328,-0.991057,-0.214634,-0.436789
34,2923260780,-0.736080,0.191673,0.517602,0.391861,-1.176749,0.282853,0.062037
35,2923294114,-0.741156,0.182522,0.509615,0.397095,-0.835959,1.002092,0.093052
36,2923327448,-0.746704,0.174612,0.500387,0.401966,-0.801029,0.523757,-0.242358
37,2923360782,-0.752990,0.166790,0.489944,0.406401,-0.259698,-0.339903,-0.310210
38,2923394116,-0.759469,0.157978,0.479647,0.410132,0.211668,-0.277708,-0.193894
39,2923427450,-0.765181,0.148551,0.469696,0.414530,0.627989,0.046230,-0.093470
40,2923460784,-0.770576,0.137620,0.459423,0.419789,0.215943,-0.517381,0.148518
41,2923494118,-0.775326,0.125944,0.449044,0.425895,0.875714,-0.574687,-0.379667
42,2923527452,-0.779307,0.116508,0.437781,0.432981,0.411333,-0.259246,-0.065132
43,2923560786,-0.783412,0.108141,0.425799,0.439644,-0.112007,-0.214631,0.217855
44,2923594120,-0.787724,0.097293,0.414165,0.445547,-0.181191,-0.469967,0.669953
45,2923627454,-0.791229,0.084516,0.403099,0.452045,-0.238440,-0.522419,-0.117891
46,2923660788,-0.793935,0.071369,0.392989,0.458424,-0.296550,-0.111820,0.030569
47,2923694122,-0.796241,0.057785,0.382476,0.465181,0.322022,-0.708114,0.072519
48,2923727456,-0.797751,0.045728,0.371096,0.473086,1.046930,-0.642937,-0.075234
49,2923760790,-0.797776,0.036985,0.359540,0.482634,0.245313,0.185272,-0.158101
50,2923794124,-0.796789,0.026691,0.348096,0.493218,-1.573751,0.593897,-0.398561
51,2923827458,-0.795766,0.012834,0.339076,0.501636,-0.224007,1.001359,-0.486029
52,2923860792,-0.795479,0.000654,0.329611,0.508517,-1.373709,0.691808,0.023227
53,2923894126,-0.796100,-0.011409,0.320207,0.513402,0.169944,0.184051,-0.065261
54,2923927460,-0.796153,-0.022531,0.311196,0.518468,-0.889957,0.632602,-0.295451
55,2923960794,-0.795521,-0.035933,0.304845,0.522440,-1.182131,1.234326,-0.276656
56,2923994128,-0.795012,-0.051149,0.298639,0.525522,0.283576,-0.189863,0.737270
57,2924027462,-0.796577,-0.059778,0.288102,0.528117,-1.065801,0.817989,0.208008
58,2924060796,-0.799548,-0.067106,0.275715,0.529358,-0.549365,-0.097957,0.499868
59,2924094130,-0.803213,-0.072088,0.263186,0.529532,0.133033,-0.011044,0.226024
60,2924127464,-0.805570,-0.079408,0.253518,0.529621,0.118151,-0.229385,0.950240
61,2924160798,-0.807496,-0.085687,0.242338,0.530943,1.251914,-0.707460,1.413984
62,2924194132,-0.810480,-0.086360,0.226733,0.533176,0.161858,-0.785559,0.627304
63,2924227466,-0.814203,-0.086224,0.209669,0.534506,-0.115422,-0.815670,0.542093
64,2924260800,-0.818071,-0.085127,0.192737,0.535150,0.872729,-0.289694,0.276203
65,2924294134,-0.820408,-0.084611,0.177787,0.536827,1.128150,0.008890,0.763347
66,2924327468,-0.820960,-0.084060,0.165020,0.540136,0.510911,0.490797,0.277544
67,2924360802,-0.821067,-0.085132,0.156358,0.542377,-0.990410,0.412311,0.353213
68,2924394136,-0.821019,-0.086027,0.149692,0.544186,0.327523,0.304608,0.700534
69,2924427470,-0.821554,-0.086069,0.144631,0.544740,-1.032543,0.663422,0.363355
70,2924460804,-0.822064,-0.088507,0.144277,0.543674,-0.040089,0.890359,0.120109
71,2924494138,-0.822694,-0.089801,0.145117,0.542284,0.266741,0.568659,0.151439
72,2924527472,-0.823301,-0.090464,0.145830,0.541059,0.230956,0.450011,0.011009
73,2924560806,-0.823460,-0.090917,0.146706,0.540505,-0.044921,0.403463,-0.686794
74,2924594140,-0.822936,-0.091898,0.147918,0.540805,-0.079420,0.023612,-0.442968
75,2924627474,-0.822581,-0.091808,0.148168,0.541293,0.137412,-0.101179,0.457022
76,2924660808,-0.822364,-0.091251,0.147785,0.541821,-0.106217,0.273777,0.434407
77,2924694142,-0.821640,-0.092158,0.150491,0.542020,-0.149362,0.198975,0.263682
78,2924727476,-0.820418,-0.092450,0.156554,0.542105,0.258304,-0.202453,1.218450
79,2924760810,-0.818680,-0.092881,0.165387,0.542035,-0.251806,-0.051166,1.480703
80,2924794144,-0.817237,-0.090820,0.175822,0.541277,0.144446,0.002150,1.633251
81,2924827478,-0.816274,-0.086817,0.186945,0.539658,-0.730338,0.626051,1.953219
82,2924860812,-0.815390,-0.082813,0.201422,0.536404,-0.902914,0.874901,1.048649
83,2924894146,-0.814991,-0.078296,0.218126,0.531130,-0.208189,0.502379,0.559906
84,2924927480,-0.814823,-0.073781,0.235582,0.524538,-0.363649,0.229593,0.672713
85,2924960814,-0.814556,-0.069377,0.253821,0.516991,0.337184,0.373882,0.000878
86,2924994148,-0.814019,-0.063255,0.271736,0.509461,0.485850,-0.129567,-0.072297
87,2925027482,-0.813677,-0.054946,0.286823,0.502655,-0.019133,-0.091055,0.162595
88,2925060816,-0.813422,-0.045590,0.300535,0.495949,-0.295844,0.033871,-0.432296
89,2925094150,-0.812987,-0.036556,0.313290,0.489474,0.128536,-0.190380,-0.003232
90,2925127484,-0.811964,-0.026145,0.325504,0.483836,0.289313,-0.179541,-0.218951
91,2925160818,-0.810083,-0.015251,0.337706,0.479069,0.524941,-0.078642,0.019592
92,2925194152,-0.807675,-0.004145,0.348887,0.475332,0.055667,-0.224640,0.166380
93,2925227486,-0.805216,0.008383,0.359366,0.471628,-0.325995,-0.050521,-0.058990
94,2925260820,-0.802456,0.019204,0.371083,0.466918,0.241541,-0.004733,0.132672
95,2925294154,-0.799198,0.030467,0.382708,0.462502,-0.255211,0.106843,0.453018
96,2925327488,-0.796101,0.043205,0.393471,0.457773,-0.711899,0.031682,0.149600
97,2925360822,-0.792702,0.054683,0.406222,0.451262,0.071830,0.022146,-0.413343
98,2925394156,-0.788757,0.066527,0.419290,0.444581,-0.336906,0.168626,0.112817
99,2925427490,-0.784600,0.079435,0.432208,0.437387,-0.320705,-0.401334,-0.010013
100,2925460824,-0.779851,0.091232,0.446412,0.429238,-0.138512,-0.255147,-0.182557
101,2925494158,-0.774449,0.102023,0.461250,0.420818,0.176396,-0.298803,-0.174167
102,2925527492,-0.768319,0.112827,0.475825,0.412995,0.326220,-0.332671,-0.019069
103,2925560826,-0.760987,0.123525,0.490902,0.405801,0.342545,-0.216316,-0.434375
104,2925594160,-0.753228,0.135652,0.505219,0.398773,0.049508,-0.229150,-0.439088
105,2925627494,-0.745507,0.148570,0.518670,0.391340,-0.667906,-0.131679,0.127254
106,2925660828,-0.738935,0.158631,0.531584,0.382425,-1.146374,-0.092940,0.071837
107,2925694162,-0.733449,0.166194,0.543593,0.372770,-0.579859,0.038308,-0.602690
108,2925727496,-0.728032,0.173788,0.555426,0.362337,-0.277448,0.211458,-1.209056
109,2925760830,-0.722285,0.182382,0.567047,0.351453,-0.209474,0.217350,-0.743606
110,2925794164,-0.716668,0.188655,0.578707,0.340461,0.302708,0.112444,-0.390686
111,2925827498,-0.711878,0.191919,0.590368,0.328454,0.326507,0.331851,-0.686016
112,2925860832,-0.707108,0.194429,0.601348,0.317167,0.052576,0.263843,-1.084373
113,2925894166,-0.701588,0.198206,0.612150,0.306237,-0.955635,0.985823,0.040021
114,2925927500,-0.698483,0.197877,0.622256,0.292888,-1.091545,0.041810,0.650027
115,2925960834,-0.697637,0.193332,0.631196,0.278454,0.723731,0.191029,-0.851186
116,2925994168,-0.694331,0.195142,0.638967,0.267516,1.041055,0.040296,-0.944849
117,2926027502,-0.689354,0.201642,0.646094,0.258291,1.403732,-0.213241,0.100903
118,2926060836,-0.684498,0.207116,0.652793,0.249892,1.069647,-0.044790,0.250901
119,2926094170,-0.679736,0.211792,0.658741,0.243276,0.673633,0.229785,0.848101
120,2926127504,-0.675874,0.215297,0.663778,0.237191,-0.271173,-0.044107,-0.100029
121,2926160838,-0.670822,0.221083,0.669108,0.231157,-1.048895,-0.051683,0.005244
122,2926194172,-0.664977,0.226540,0.675322,0.224600,-0.187454,-0.256654,0.062943
123,2926227506,-0.659998,0.228485,0.682055,0.216838,0.289825,-0.241696,-0.208326
124,2926260840,-0.656301,0.228137,0.688289,0.208566,0.317448,0.282610,0.112798
125,2926294174,-0.653286,0.227130,0.693747,0.200910,0.543735,0.127677,0.033861
126,2926327508,-0.650060,0.226640,0.698811,0.194265,0.175715,0.062339,0.423781
127,2926360842,-0.647400,0.227283,0.701911,0.191197,0.545740,0.060839,0.276114
128,2926394176,-0.645663,0.227978,0.703554,0.190201,0.724660,-0.146370,0.203455
129,2926427510,-0.644696,0.228643,0.704200,0.190292,0.149307,-0.434233,0.246957
130,2926460844,-0.644401,0.230161,0.703378,0.192487,0.163568,-0.560005,-0.021548