sep=,
DeviceTag:,2B_Left
FirmwareVersion:,2.2.1
AppVersion:,2023.6.0
SyncStatus:,Synced
OutputRate:,30Hz
FilterProfile:,General
Measurement Mode:,Sensor fusion Mode - Complete(Quaternion)
StartTime: ,2026-05-27_15:34:22_804 AEST
© Movella Technologies B. V. 2005-2026

PacketCounter,SampleTimeFine,Quat_W,Quat_X,Quat_Y,Quat_Z,FreeAcc_X,FreeAcc_Y,FreeAcc_Z
1,636206189,0.689926,-0.449863,-0.405729,0.396245,0.740884,0.520940,0.031339
2,636239523,0.699112,-0.448521,-0.407988,0.378970,0.367732,0.097373,0.199007
3,636272857,0.708339,-0.448824,-0.408677,0.360271,0.049757,-0.343015,0.407214
4,636306191,0.717084,-0.449844,-0.408339,0.341599,-0.237452,-0.702009,0.318172
5,636339525,0.725080,-0.451379,-0.407003,0.323827,-0.591650,-1.087956,0.188895
6,636372859,0.731846,-0.452634,-0.405604,0.308234,-0.947328,-1.273639,0.199603
7,636406193,0.736449,-0.452066,-0.406463,0.296760,-1.210279,-1.263088,0.466359
8,636439527,0.738415,-0.447711,-0.412101,0.290638,-1.624342,-0.982994,0.838864
9,636472861,0.738337,-0.438216,-0.422725,0.290048,-1.481724,-0.318351,1.100836
10,636506195,0.738962,-0.425686,-0.432945,0.292036,-1.297544,0.007550,1.063253
11,636539529,0.742408,-0.410692,-0.440417,0.293591,-0.906073,0.750673,1.595715
12,636572863,0.748204,-0.391678,-0.447745,0.293773,-0.642164,1.025241,1.756939
13,636606197,0.755973,-0.368180,-0.455988,0.291587,-0.282885,1.333137,1.883866
14,636639531,0.765700,-0.340440,-0.464938,0.285722,-0.011270,1.633983,2.796985
15,636672865,0.775768,-0.305867,-0.477307,0.277143,0.439605,1.295475,2.860545
16,636706199,0.785395,-0.264229,-0.493063,0.265004,1.201484,1.325907,2.355439
17,636739533,0.795475,-0.218422,-0.508162,0.247553,1.000170,0.855058,1.841251
18,636772867,0.806488,-0.171662,-0.518754,0.225841,0.452185,-0.045311,1.584791
19,636806201,0.817356,-0.124572,-0.524743,0.202623,-0.542331,-0.952069,0.342609
20,636839535,0.827745,-0.078925,-0.525562,0.179984,-0.892136,-0.626623,0.457304
21,636872869,0.839750,-0.037755,-0.517962,0.158460,-1.672892,-0.468040,-0.004034
22,636906203,0.852660,-0.000777,-0.504170,0.137051,-2.108444,-0.189931,0.010298
23,636939537,0.866414,0.033089,-0.484648,0.115532,-2.344288,0.056641,0.523681
24,636972871,0.881240,0.065036,-0.458453,0.094900,-2.058969,-0.196347,0.219893
25,637006205,0.894936,0.096503,-0.428870,0.076466,-1.050924,-0.017827,-0.353282
26,637039539,0.906641,0.127103,-0.397509,0.061914,-0.416421,-0.179566,-1.107914
27,637072873,0.914891,0.156389,-0.368511,0.052121,-0.260193,-0.192868,-2.775610
28,637106207,0.919685,0.182459,-0.344362,0.047995,-0.177705,0.039034,-4.078256
29,637139541,0.922901,0.201770,-0.323770,0.052114,-0.486782,0.043398,-5.469878
30,637172875,0.924570,0.212402,-0.309635,0.064671,-0.618901,-0.354750,-6.162326
31,637206209,0.922335,0.215314,-0.310212,0.081897,0.171248,-1.231614,-5.638004
32,637239543,0.917486,0.209909,-0.321846,0.102822,1.545617,-1.522099,-4.706892
33,637272877,0.911305,0.197126,-0.339292,0.124683,2.741006,-2.184329,-3.294583
34,637306211,0.903908,0.179280,-0.360754,0.143753,4.510727,-2.107052,-1.604346
35,637339545,0.898390,0.157926,-0.377640,0.159195,5.052409,-1.286042,-0.644227
36,637372879,0.894629,0.136147,-0.390828,0.168396,4.272279,-0.904578,0.558429
37,637406213,0.890337,0.116395,-0.405652,0.170876,3.683869,-0.149384,0.765061
38,637439547,0.887706,0.097236,-0.417405,0.168212,2.910945,0.111576,0.755099
39,637472881,0.884804,0.079172,-0.429683,0.161944,2.158752,0.397640,0.805613
40,637506215,0.880709,0.062396,-0.443453,0.154295,1.142931,0.235693,1.394728
41,637539549,0.875898,0.049112,-0.457218,0.146092,-0.267170,0.402929,2.053595
42,637572883,0.871063,0.042195,-0.469283,0.138715,-2.300812,0.816868,2.549990
43,637606217,0.867385,0.041937,-0.477047,0.135316,-4.159626,0.918172,2.922279
44,637639551,0.864703,0.049099,-0.480563,0.137614,-4.890152,0.469264,2.363508
45,637672885,0.860822,0.064374,-0.484230,0.142699,-4.246775,0.724492,2.109439
46,637706219,0.858916,0.082344,-0.483275,0.148084,-3.218490,0.884205,1.391413
47,637739553,0.859616,0.099203,-0.477581,0.152106,-2.157060,0.550419,0.585603
48,637772887,0.861083,0.114281,-0.470642,0.154828,-1.314511,0.402774,-0.224498
49,637806221,0.863723,0.126167,-0.461840,0.157381,-0.690182,0.331942,-1.073622
50,637839555,0.867272,0.134340,-0.451627,0.160700,0.044870,0.328089,-2.082744
51,637872889,0.869967,0.138441,-0.443559,0.165065,0.452465,0.503294,-3.064204
52,637906223,0.872037,0.136280,-0.437954,0.170808,0.708337,0.541504,-3.571339
53,637939557,0.873484,0.126875,-0.435035,0.177972,1.558475,-0.148036,-1.912424
54,637972891,0.874633,0.110693,-0.433490,0.186683,2.346261,-0.712885,-0.861165
55,638006225,0.874781,0.092903,-0.433813,0.194765,3.031900,-1.210829,1.006187
56,638039559,0.874069,0.077113,-0.435521,0.200947,3.689342,-1.298203,2.207129
57,638072893,0.872530,0.065171,-0.439132,0.203979,3.708883,-1.107088,2.529436
58,638106227,0.870591,0.056358,-0.444133,0.204063,3.375038,-0.814778,2.232801
59,638139561,0.868663,0.048738,-0.450125,0.201087,2.499848,-0.286363,1.249215
60,638172895,0.867275,0.040013,-0.456201,0.195226,1.257888,-0.068397,0.631333
61,638206229,0.866583,0.029822,-0.461430,0.187691,0.137258,-0.124600,0.254120
62,638239563,0.866115,0.020032,-0.465888,0.179976,-0.521665,0.028962,0.728955
63,638272897,0.865646,0.012421,-0.469482,0.173461,-1.616751,0.132884,1.049603
64,638306231,0.865445,0.008412,-0.472009,0.167755,-2.269659,0.458997,1.496364
65,638339565,0.866799,0.008119,-0.471171,0.163067,-2.702775,0.454292,1.675949
66,638372899,0.868870,0.012293,-0.468252,0.160171,-2.833322,0.404290,1.492611
67,638406233,0.870604,0.020912,-0.465038,0.159222,-2.586630,0.356987,0.994149
68,638439567,0.871962,0.032514,-0.461550,0.159989,-2.247290,0.136211,0.215516
69,638472901,0.872624,0.045727,-0.458529,0.161829,-1.880711,0.005703,-1.033487
70,638506235,0.872545,0.059508,-0.456132,0.164523,-1.543808,0.114161,-1.818578
71,638539569,0.872610,0.070923,-0.452558,0.169451,-1.099183,0.346738,-2.315974
72,638572903,0.872830,0.077902,-0.447951,0.177311,-0.856026,0.396820,-2.876477
73,638606237,0.871951,0.080132,-0.444765,0.188319,-0.376128,0.300436,-2.861555
74,638639571,0.868610,0.078410,-0.445632,0.201943,0.622063,0.214830,-1.897491
75,638672905,0.865242,0.071627,-0.445891,0.217732,1.533607,0.247780,-1.226389
76,638706239,0.864216,0.059174,-0.441661,0.233591,2.051619,-0.018197,-0.392934
77,638739573,0.863810,0.044285,-0.436742,0.247240,2.452363,0.038845,0.275567
78,638772907,0.863697,0.029316,-0.432178,0.257665,2.670833,-0.058920,1.090131
79,638806241,0.864873,0.014709,-0.426328,0.264619,3.019519,-0.007424,1.947206
80,638839575,0.867082,0.001147,-0.420218,0.267553,2.985475,-0.149330,1.796170
81,638872909,0.868864,-0.009045,-0.417708,0.265544,3.072175,-0.258720,1.653391
82,638906243,0.871233,-0.016945,-0.416922,0.258537,2.545678,-0.469614,1.843698
83,638939577,0.875215,-0.024799,-0.414725,0.247765,1.461875,-1.169317,1.463777
84,638972911,0.879408,-0.031128,-0.412520,0.235585,0.050303,-1.566267,1.122102
85,639006245,0.882735,-0.033873,-0.410933,0.225313,-1.416199,-1.428415,1.283373
86,639039579,0.884482,-0.031276,-0.410626,0.219317,-2.523367,-1.096359,1.244096
87,639072913,0.884810,-0.023145,-0.411461,0.217429,-3.021957,-0.422317,1.291432
88,639106247,0.884487,-0.011919,-0.412119,0.218402,-3.051381,0.299191,1.217186
89,639139581,0.884719,-0.000212,-0.410716,0.220421,-2.641878,0.708077,0.650539
90,639172915,0.885682,0.011822,-0.407547,0.222112,-2.239035,0.889588,0.103990
91,639206249,0.886148,0.023605,-0.404917,0.224114,-1.845451,1.000998,-0.570724
92,639239583,0.885837,0.033870,-0.403310,0.226909,-1.453230,1.290624,-1.352703
93,639272917,0.885984,0.040339,-0.400276,0.230615,-1.101095,1.401975,-2.127977
94,639306251,0.887379,0.040659,-0.394411,0.235256,-0.747296,1.429120,-2.952799
95,639339585,0.890873,0.032203,-0.383811,0.240828,-0.607562,0.860105,-3.055584
96,639372919,0.895023,0.015946,-0.371100,0.246910,0.244395,0.001417,-2.394810
97,639406253,0.897794,-0.003651,-0.360030,0.253636,0.954750,-0.718034,-1.361796
98,639439587,0.897820,-0.022076,-0.353921,0.261098,1.603575,-1.081513,-0.314681
99,639472921,0.895296,-0.037250,-0.352807,0.269416,2.234641,-1.082444,0.715913
100,639506255,0.891034,-0.048219,-0.355697,0.277872,2.602215,-0.934243,0.951290
101,639539589,0.886613,-0.057118,-0.359868,0.284870,2.712194,-0.355778,0.786592
102,639572923,0.884049,-0.067351,-0.361251,0.288825,2.682547,-0.339305,0.492231
103,639606257,0.882879,-0.078345,-0.361871,0.288852,2.856505,-0.305271,0.782290
104,639639591,0.881946,-0.088741,-0.364019,0.285983,2.717393,-0.327068,1.105613
105,639672925,0.880839,-0.097561,-0.368976,0.280109,2.082466,-0.310002,1.287362
106,639706259,0.880910,-0.106875,-0.372835,0.271238,1.406608,-0.129768,1.511333
107,639739593,0.881836,-0.116021,-0.375866,0.260056,0.956182,-0.474478,1.461204
108,639772927,0.882909,-0.122525,-0.379562,0.247775,0.173615,-0.753655,2.009448
109,639806261,0.883501,-0.126050,-0.383730,0.237252,-1.003157,-0.148451,1.568774
110,639839595,0.883764,-0.126526,-0.387799,0.229270,-2.116654,0.017417,1.705853
111,639872929,0.883787,-0.123871,-0.391571,0.224162,-2.524950,0.200024,1.306148
112,639906263,0.883914,-0.119442,-0.393662,0.222395,-2.469001,0.568369,0.891165
113,639939597,0.884355,-0.113462,-0.393449,0.224145,-2.315356,0.738041,0.436700
114,639972931,0.884821,-0.105810,-0.391638,0.229163,-2.662143,0.446752,-0.156206
115,640006265,0.884966,-0.096525,-0.389735,0.235849,-2.737696,0.538845,-0.789669
116,640039599,0.885041,-0.088160,-0.387045,0.243161,-1.973607,0.849070,-1.564059
117,640072933,0.885062,-0.083460,-0.382812,0.251306,-1.232361,0.711501,-2.246143
118,640106267,0.883403,-0.081245,-0.381050,0.260383,-0.719424,0.469383,-2.066000
119,640139601,0.880592,-0.082107,-0.380678,0.270002,-0.207804,0.198827,-1.868422
120,640172935,0.877737,-0.087899,-0.378790,0.279945,0.014805,0.015561,-2.452118
121,640206269,0.873425,-0.099979,-0.377450,0.290971,0.738913,-0.369287,-1.631929
122,640239603,0.866596,-0.113774,-0.379742,0.303090,2.539848,-0.460391,-0.977325
123,640272937,0.859272,-0.125030,-0.384044,0.313895,2.378226,-0.057758,0.620004
124,640306271,0.852491,-0.135634,-0.388953,0.321834,2.593160,0.216402,0.942373
125,640339605,0.846473,-0.145369,-0.394883,0.326220,2.663611,0.373325,1.272604
126,640372939,0.841158,-0.153741,-0.402142,0.327259,2.663009,0.485397,1.340852
127,640406273,0.835281,-0.161124,-0.411169,0.327543,2.424257,1.098676,1.331837
128,640439607,0.828377,-0.167260,-0.422489,0.327594,1.639847,0.998939,1.725379
129,640472941,0.823167,-0.171780,-0.433413,0.324100,0.685534,1.267597,1.857799
130,640506275,0.821317,-0.176611,-0.440321,0.316804,-0.496045,0.417953,1.552767
131,640539609,0.820635,-0.179819,-0.446122,0.308542,-1.536179,-0.302442,1.079975
132,640572943,0.819562,-0.178862,-0.453343,0.301342,-1.976048,-0.190080,0.716984
133,640606277,0.819990,-0.177163,-0.457486,0.294849,-2.404711,-0.364615,0.535432
134,640639611,0.822376,-0.175179,-0.457937,0.288625,-2.261167,-0.520410,0.533244
135,640672945,0.824834,-0.170671,-0.458161,0.283916,-1.912277,-0.804501,0.359624
136,640706279,0.828161,-0.165072,-0.456674,0.279910,-1.698761,-0.526230,0.461454
137,640739613,0.831805,-0.159478,-0.454189,0.276367,-1.350967,-0.383147,-0.091659
138,640772947,0.836009,-0.155079,-0.450032,0.272965,-0.801799,-0.327926,-0.652099
139,640806281,0.840241,-0.153107,-0.444222,0.270594,-0.913294,-0.173860,-1.032333
140,640839615,0.843677,-0.154008,-0.437681,0.270049,-0.933220,-0.543072,-1.292840
141,640872949,0.845546,-0.156426,-0.432171,0.271681,-0.464873,-0.665829,-1.038142
142,640906283,0.845976,-0.161110,-0.426769,0.276109,-0.220082,-1.099442,-1.469376
143,640939617,0.842326,-0.164732,-0.426823,0.284909,0.746534,-1.247472,-1.739277
144,640972951,0.832896,-0.165836,-0.435758,0.298158,1.396779,-0.525516,-0.957856
145,641006285,0.822986,-0.169329,-0.444282,0.310861,2.821541,0.073239,-0.393880
146,641039619,0.813406,-0.177338,-0.451323,0.321294,2.932523,0.221988,0.253679
147,641072953,0.802772,-0.187899,-0.459883,0.329785,3.550809,0.751672,1.592573
148,641106287,0.794174,-0.199600,-0.467420,0.333117,2.618301,0.904836,2.277512
149,641139621,0.791022,-0.210818,-0.471305,0.328194,1.577564,0.817515,2.233479
150,641172955,0.793367,-0.223768,-0.470442,0.314930,0.218423,1.883563,1.548008
151,641206289,0.798621,-0.243333,-0.463533,0.296868,-1.396904,0.907914,1.416387
152,641239623,0.805326,-0.263996,-0.453031,0.276622,-1.933788,0.340829,1.693922
153,641272957,0.812946,-0.278057,-0.442905,0.256200,-1.215397,0.542571,1.673399
154,641306291,0.821394,-0.285196,-0.432945,0.237769,-2.651146,-0.237227,1.239351
155,641339625,0.828792,-0.284415,-0.426214,0.224842,-3.016517,-0.324204,1.171305
156,641372959,0.833833,-0.275640,-0.425063,0.219242,-2.915780,-0.461180,1.497730
157,641406293,0.837638,-0.261076,-0.426279,0.220203,-1.918542,-0.479444,1.291926
158,641439627,0.839122,-0.242064,-0.430483,0.227956,-1.358092,-0.779987,0.803763
159,641472961,0.836809,-0.218456,-0.440728,0.240389,-0.033699,-0.445581,0.140028
160,641506295,0.836022,-0.196466,-0.447303,0.249776,0.256844,-0.450660,-0.318521
161,641539629,0.835792,-0.177598,-0.451963,0.256204,0.588673,-0.000252,-0.686156
162,641572963,0.834719,-0.164154,-0.455500,0.262330,0.713374,-0.573401,-1.755123
163,641606297,0.830831,-0.154347,-0.461017,0.270851,1.081239,-1.059906,-2.896410
164,641639631,0.823807,-0.149202,-0.468118,0.282747,1.035786,-0.406340,-3.357679
165,641672965,0.817072,-0.154791,-0.469418,0.296782,1.213953,-0.920816,-3.071811
166,641706299,0.808791,-0.173043,-0.467076,0.312656,1.408491,-1.996290,-2.474451
167,641739633,0.793401,-0.196577,-0.471943,0.330367,2.733480,-2.164089,-1.528761
168,641772967,0.774354,-0.224196,-0.479975,0.346028,3.632400,-0.129157,0.843172
169,641806301,0.763929,-0.264445,-0.473239,0.350038,2.323124,0.905551,2.783926
170,641839635,0.766070,-0.316785,-0.446868,0.336293,1.043349,1.268477,2.640197
171,641872969,0.775414,-0.372396,-0.407338,0.306807,0.894015,1.685353,2.262258
172,641906303,0.786474,-0.422438,-0.362943,0.266978,-1.509399,1.945582,2.610165
173,641939637,0.793356,-0.456118,-0.329803,0.231890,-3.334877,2.194730,2.335163
174,641972971,0.797837,-0.472099,-0.311850,0.208156,-2.451890,2.668735,2.149517
175,642006305,0.803025,-0.474831,-0.304697,0.191956,-2.056930,1.278306,1.992355
176,642039639,0.808737,-0.463791,-0.311954,0.183102,-2.205320,0.358232,1.433215
177,642072973,0.812322,-0.438581,-0.337364,0.184294,-1.593193,0.086110,1.002600
178,642106307,0.811700,-0.401477,-0.376457,0.195550,-0.934459,0.058014,0.471984
179,642139641,0.806888,-0.357169,-0.420454,0.211142,-0.598148,0.400375,0.124021
180,642172975,0.801903,-0.314202,-0.456620,0.222997,-0.261131,0.825301,0.519792
181,642206309,0.801173,-0.279404,-0.477823,0.227464,-0.520187,-0.304669,0.090995
182,642239643,0.802962,-0.251712,-0.489681,0.228267,-0.538803,-1.080874,-0.904658
183,642272977,0.804425,-0.229801,-0.496837,0.230747,-0.442642,-1.647874,-1.622326
184,642306311,0.804031,-0.212487,-0.502131,0.237166,-0.241622,-2.074653,-1.903447
185,642339645,0.800299,-0.197888,-0.508740,0.248084,0.302775,-2.428422,-1.895786
186,642372979,0.792944,-0.186302,-0.517120,0.262905,1.204193,-1.825379,-1.290913
187,642406313,0.786099,-0.181378,-0.521165,0.278453,1.899689,-1.694463,-0.670891
188,642439647,0.781307,-0.183388,-0.521200,0.290307,2.047285,-0.955916,-2.177693
189,642472981,0.785011,-0.203438,-0.507313,0.291555,2.426184,0.938677,-0.465620
190,642506315,0.800510,-0.249849,-0.468298,0.278310,4.100635,1.779629,-1.029741
191,642539649,0.822174,-0.321412,-0.401691,0.243657,5.207757,1.377179,-0.857926
192,642572983,0.838481,-0.403657,-0.315859,0.185050,4.099061,-0.399266,-0.241091
193,642606317,0.842362,-0.473893,-0.231251,0.111241,0.580616,-1.174182,2.489116
194,642639651,0.839207,-0.516330,-0.164467,0.045675,-2.575694,-0.466915,2.360213
195,642672985,0.836364,-0.529751,-0.140468,0.011282,-5.927428,1.028276,2.346035
196,642706319,0.836983,-0.523211,-0.160141,0.008045,-4.235203,2.206776,1.772891
197,642739653,0.839667,-0.510049,-0.185865,0.016215,-2.872683,2.723042,1.544691
198,642772987,0.843749,-0.497769,-0.199334,0.024098,-3.421687,1.796944,1.188326
199,642806321,0.848264,-0.484630,-0.210756,0.034116,-3.181387,0.775794,0.824012
200,642839655,0.852378,-0.467617,-0.228604,0.050268,-2.978332,0.007794,0.535530
201,642872989,0.854419,-0.443951,-0.259366,0.074875,-2.661669,-0.485598,0.430099
202,642906323,0.852453,-0.413301,-0.301643,0.107326,-1.568672,-0.802242,0.313388
203,642939657,0.846182,-0.377131,-0.348193,0.143214,-0.763226,-1.118596,-0.011328
204,642972991,0.835040,-0.335265,-0.397598,0.179504,0.187030,-0.974763,-0.040841
205,643006325,0.820779,-0.291714,-0.442674,0.212753,1.210713,-0.783436,-0.598646
206,643039659,0.806410,-0.252849,-0.477464,0.240412,1.989622,-0.533311,-0.989629
207,643072993,0.794306,-0.223758,-0.500115,0.262480,2.245892,-0.344289,-1.260742
208,643106327,0.784319,-0.206894,-0.513446,0.280022,2.728153,-0.099939,-0.939717
209,643139661,0.780261,-0.206946,-0.513283,0.291388,3.123604,-0.236573,-1.161512
210,643172995,0.783300,-0.225183,-0.499171,0.294213,2.472109,-1.301916,-1.573218
211,643206329,0.785195,-0.251687,-0.484331,0.292481,2.960521,-0.466411,-1.466084
212,643239663,0.786179,-0.283357,-0.468507,0.286588,2.237530,-0.930448,-1.035236
213,643272997,0.786548,-0.314839,-0.453638,0.276463,0.822630,0.070707,1.051885
214,643306331,0.787349,-0.340917,-0.441518,0.262524,-0.229125,0.532186,1.738024
215,643339665,0.788227,-0.356883,-0.436072,0.247332,-0.751528,0.475085,1.627531
216,643372999,0.787762,-0.360364,-0.441172,0.234387,-0.955117,1.245900,1.726458
217,643406333,0.788330,-0.356650,-0.449382,0.222244,-1.338058,1.759104,2.027905
218,643439667,0.789992,-0.347278,-0.458710,0.211886,-2.273882,1.091658,1.308175
219,643473001,0.790046,-0.332372,-0.471928,0.206493,-2.406859,0.960529,0.905746
220,643506335,0.789922,-0.315450,-0.484451,0.204506,-2.195716,0.759010,0.635357
221,643539669,0.789563,-0.298189,-0.495382,0.205595,-2.437579,0.112323,0.258106
222,643573003,0.786899,-0.280176,-0.507445,0.211639,-2.115900,-0.357061,0.398134
223,643606337,0.784140,-0.261519,-0.517475,0.221252,-1.721308,-0.440993,0.418794
224,643639671,0.781813,-0.241920,-0.525190,0.233279,-1.423545,-1.174392,-0.173591
225,643673005,0.778681,-0.222157,-0.532040,0.247459,-0.168795,-1.322026,-0.720087
226,643706339,0.775715,-0.206538,-0.535290,0.262817,1.055876,-0.890867,-1.129582
227,643739673,0.774867,-0.199502,-0.531871,0.277296,1.448740,-1.040151,-1.488905
228,643773007,0.774843,-0.200163,-0.525115,0.289494,1.885750,-0.472525,-1.215258
229,643806341,0.776623,-0.210352,-0.513273,0.298597,2.680724,0.468870,-1.001673
230,643839675,0.781230,-0.229862,-0.494927,0.303133,1.654130,-0.272637,-1.348617
231,643873009,0.784114,-0.249832,-0.479398,0.304840,1.627099,0.234944,-0.282124
232,643906343,0.787421,-0.271051,-0.463268,0.303122,1.755137,-0.015865,0.142699
233,643939677,0.790325,-0.290899,-0.449143,0.298387,1.731222,0.044599,0.472080
234,643973011,0.792528,-0.307579,-0.439269,0.290408,1.925698,0.755528,0.856719
235,644006345,0.796812,-0.323564,-0.429043,0.276260,1.733069,0.928046,0.867522
236,644039679,0.804987,-0.341112,-0.414580,0.252511,1.433245,1.098599,1.004593
237,644073013,0.818984,-0.362335,-0.389727,0.214688,1.225720,0.702416,1.084685
238,644106347,0.834438,-0.382035,-0.361319,0.164958,0.458133,0.911124,1.268716
239,644139681,0.848376,-0.397805,-0.330149,0.114068,-0.186139,0.755636,1.665549
240,644173015,0.859375,-0.405566,-0.303028,0.071871,-3.017657,-0.368309,1.157084
241,644206349,0.865947,-0.401369,-0.294790,0.046238,-3.844439,-0.188288,0.861532
242,644239683,0.870128,-0.388882,-0.300428,0.037298,-3.778256,-0.192742,0.653348
243,644273017,0.873154,-0.372551,-0.311803,0.039838,-3.426660,-0.045422,0.119321
244,644306351,0.875011,-0.354592,-0.325569,0.051229,-2.797273,-0.136791,-0.222234
245,644339685,0.874349,-0.334297,-0.344291,0.072269,-2.863554,-0.724636,-0.422293
246,644373019,0.868430,-0.309846,-0.373178,0.102776,-1.791752,-1.421283,-0.581476
247,644406353,0.860388,-0.285524,-0.400042,0.134818,-0.260863,-1.187913,-0.323352
248,644439687,0.852027,-0.265028,-0.420035,0.165471,-0.490901,-1.145579,-0.048703
249,644473021,0.843341,-0.251790,-0.433768,0.192929,1.277955,-1.616441,-0.860246
250,644506355,0.836227,-0.247067,-0.439250,0.216199,2.222949,-0.974981,-0.521080
251,644539689,0.827836,-0.248800,-0.443579,0.236692,2.346388,-0.468625,-0.565439
252,644573023,0.820619,-0.258081,-0.443360,0.251817,2.902712,-0.070955,-0.616693
253,644606357,0.816648,-0.273603,-0.436362,0.260415,2.964659,0.076904,-0.462831
254,644639691,0.814166,-0.291809,-0.427280,0.263463,2.454003,-0.158963,-0.057676
255,644673025,0.811788,-0.308762,-0.420531,0.262334,1.943472,0.320277,0.416443
256,644706359,0.810214,-0.322987,-0.416339,0.256701,1.149918,0.380062,0.708509
257,644739693,0.809075,-0.333400,-0.415871,0.247577,1.134233,1.216859,1.367414
258,644773027,0.808480,-0.339627,-0.418496,0.236378,-0.042169,0.306665,1.606808
259,644806361,0.809642,-0.340608,-0.422719,0.223104,-0.619587,0.827466,2.197148
260,644839695,0.813896,-0.336520,-0.425156,0.208737,-1.385274,0.077431,1.909192
261,644873029,0.815300,-0.322160,-0.438182,0.198734,-1.780344,0.292267,1.927326
262,644906363,0.816240,-0.302149,-0.453204,0.192519,-2.172162,0.460107,2.154743
263,644939697,0.818310,-0.278651,-0.465989,0.188619,-2.494666,-0.141986,1.420227
264,644973031,0.818837,-0.250894,-0.480555,0.188747,-2.179622,-0.218270,1.172695
265,645006365,0.817579,-0.219999,-0.495958,0.192848,-2.135503,-0.019302,0.468319
266,645039699,0.816011,-0.189645,-0.508514,0.198933,-2.176252,0.329072,-0.367801
267,645073033,0.815081,-0.162476,-0.516620,0.205785,-1.906229,0.190733,-0.588463
268,645106367,0.814900,-0.139085,-0.520498,0.213719,-0.943505,-0.310743,-1.373654
269,645139701,0.811796,-0.116531,-0.526620,0.223787,-0.580903,-0.602259,-1.571770
270,645173035,0.806417,-0.096842,-0.533314,0.236408,0.029090,-0.381392,-1.656479
271,645206369,0.799819,-0.082461,-0.538928,0.251092,0.740781,-0.770281,-2.236578
272,645239703,0.791056,-0.073531,-0.544993,0.267967,2.138541,-0.847625,-2.144491
273,645273037,0.781107,-0.071250,-0.550254,0.286383,3.135526,-1.289622,-1.794569
274,645306371,0.770453,-0.075003,-0.555071,0.304423,3.621840,-1.469776,-1.082252
275,645339705,0.758590,-0.084696,-0.560746,0.320830,3.802757,-0.968739,-0.088112
276,645373039,0.746450,-0.098690,-0.567232,0.333647,3.385450,-0.242330,0.938612
277,645406373,0.737074,-0.116184,-0.571960,0.340712,2.316226,0.276906,1.416438
278,645439707,0.731836,-0.135766,-0.573873,0.341544,1.481004,0.391395,1.415094
279,645473041,0.728163,-0.153203,-0.575916,0.338568,0.630692,0.232530,1.491295
280,645506375,0.724941,-0.166079,-0.578993,0.334134,0.097950,0.177953,1.558379
281,645539709,0.721858,-0.172158,-0.584003,0.328973,-0.672024,-0.501208,1.225534
282,645573043,0.718107,-0.171539,-0.591487,0.324099,-0.918320,0.897701,1.523776
283,645606377,0.716090,-0.169251,-0.596536,0.320491,-1.835658,0.752408,0.890393
284,645639711,0.714416,-0.163044,-0.601508,0.318143,-2.832103,1.029184,0.819189
285,645673045,0.714200,-0.154811,-0.604625,0.316831,-3.306970,1.531618,0.437742
286,645706379,0.716665,-0.145829,-0.604769,0.315246,-3.873252,1.117538,0.478940
287,645739713,0.721397,-0.133183,-0.602836,0.313747,-3.878703,0.984617,0.720223
288,645773047,0.726252,-0.114901,-0.601119,0.313069,-3.393672,1.083288,0.883964
289,645806381,0.732297,-0.093886,-0.597904,0.312150,-2.697012,0.959201,0.972265
290,645839715,0.739216,-0.071776,-0.592894,0.311265,-1.697118,0.610184,0.922313
291,645873049,0.745851,-0.049422,-0.586990,0.310978,-0.709705,0.418863,0.928725
292,645906383,0.751785,-0.028591,-0.580377,0.311712,0.177191,0.204525,0.600476
293,645939717,0.757731,-0.011072,-0.572573,0.312859,0.872348,-0.541020,-0.160854
294,645973051,0.762351,0.004689,-0.566041,0.313683,1.290005,-0.761351,-0.980179
295,646006385,0.765737,0.016121,-0.560440,0.315109,1.739265,-1.173516,-2.273937
296,646039719,0.767254,0.022674,-0.556539,0.317917,2.380229,-0.726853,-2.112733
297,646073053,0.769126,0.021700,-0.551512,0.322193,2.673866,-0.758369,-2.046054
298,646106387,0.770200,0.014916,-0.547262,0.327221,3.181419,-0.802117,-1.613911
299,646139721,0.770284,0.004718,-0.543901,0.332884,3.814984,-0.819143,-1.066773
300,646173055,0.767012,-0.004587,-0.546326,0.336451,3.697880,-0.568127,-0.115333
301,646206389,0.765469,-0.018422,-0.548600,0.335791,3.276963,-0.022875,0.534767
302,646239723,0.767474,-0.035611,-0.548373,0.330154,2.104063,-0.587043,0.689646
303,646273057,0.769578,-0.051030,-0.549250,0.321668,1.071974,-0.268649,1.032605
304,646306391,0.771873,-0.064993,-0.549692,0.312773,-0.042562,-0.317969,0.917121
305,646339725,0.772408,-0.074579,-0.552295,0.304621,-0.750279,0.005879,1.105844
306,646373059,0.772506,-0.080569,-0.555247,0.297396,-1.367891,0.481312,1.468717
307,646406393,0.772341,-0.082705,-0.558466,0.291145,-1.885044,0.930999,1.480445
308,646439727,0.771517,-0.079805,-0.562824,0.285697,-2.492825,1.141089,1.368834
309,646473061,0.771845,-0.072593,-0.565924,0.280565,-2.873657,1.277178,1.150139
310,646506395,0.773458,-0.062252,-0.567241,0.275906,-2.969894,1.218466,0.605915
311,646539729,0.775171,-0.049471,-0.568139,0.271809,-2.863330,1.021859,0.392103
312,646573063,0.773971,-0.033065,-0.572231,0.269122,-2.334219,0.827547,0.260354
313,646606397,0.767656,-0.013257,-0.581248,0.269592,-1.746364,0.662034,0.442824
314,646639731,0.757407,0.008243,-0.592939,0.273296,-1.733202,0.024253,0.275601
315,646673065,0.747924,0.027498,-0.602096,0.278091,-0.998132,0.224977,0.363438
316,646706399,0.742460,0.040362,-0.605353,0.284028,-0.279566,-0.098450,-0.166279
317,646739733,0.738448,0.048621,-0.606585,0.290491,0.332674,-0.482688,-0.899659
318,646773067,0.736482,0.051430,-0.605576,0.297030,0.913943,-0.963281,-1.289025
319,646806401,0.737175,0.049375,-0.602342,0.302191,1.557041,-0.756901,-0.770315
320,646839735,0.741369,0.043116,-0.595652,0.306125,2.048080,-0.819969,-0.526663
321,646873069,0.747852,0.033440,-0.586120,0.309940,2.272153,-0.810001,-0.817102
322,646906403,0.753957,0.022206,-0.576584,0.314016,2.353962,-0.859383,-1.237780
323,646939737,0.756808,0.010621,-0.570698,0.318486,2.410966,-0.774076,-1.058696
324,646973071,0.756239,-0.000566,-0.569116,0.322815,2.313499,-0.593115,-0.853271
325,647006405,0.753560,-0.010883,-0.570825,0.325865,1.969438,-0.361974,-0.447481
326,647039739,0.750376,-0.020521,-0.573977,0.327209,1.908211,0.188719,0.286182
327,647073073,0.748341,-0.030327,-0.576735,0.326254,1.556370,0.204636,0.597095
328,647106407,0.745993,-0.038875,-0.581243,0.322706,1.339491,0.219859,0.720281
329,647139741,0.744255,-0.045635,-0.586340,0.316554,1.111482,0.332771,1.387229
330,647173075,0.744010,-0.050859,-0.590538,0.308429,0.257868,0.046744,1.781935
331,647206409,0.744210,-0.053669,-0.594663,0.299410,-0.040985,0.058291,1.491752
332,647239743,0.743834,-0.054127,-0.599742,0.289984,-0.817783,0.099122,1.480445
333,647273077,0.744943,-0.054506,-0.602885,0.280390,-1.231242,-0.044291,1.323728
334,647306411,0.746971,-0.053981,-0.604833,0.270735,-1.905152,-0.159252,1.313482
335,647339745,0.750283,-0.051539,-0.604993,0.261539,-2.465467,0.114275,1.181701
336,647373079,0.754823,-0.047104,-0.603156,0.253431,-3.259018,0.048899,0.785775
337,647406413,0.760644,-0.040278,-0.598990,0.247000,-3.888467,0.157990,0.583970
338,647439747,0.767972,-0.032093,-0.591594,0.243322,-3.689020,0.265709,0.372074
339,647473081,0.774454,-0.022281,-0.583712,0.242909,-3.033798,0.060691,-0.072786
340,647506415,0.777973,-0.009133,-0.578527,0.244912,-2.106546,-0.004247,-0.065622
341,647539749,0.781439,0.005584,-0.572541,0.248029,-1.031330,0.113019,0.090481
342,647573083,0.786421,0.019841,-0.564074,0.250935,-0.099464,-0.010859,-0.060704
343,647606417,0.792709,0.032633,-0.553616,0.253095,0.614925,-0.009383,-0.527734
344,647639751,0.799979,0.041947,-0.541320,0.255433,1.231493,0.007877,-0.738431
345,647673085,0.806849,0.047081,-0.528949,0.258825,1.331161,-0.606802,-1.142076
346,647706419,0.810891,0.050369,-0.520424,0.262828,1.977793,-0.532935,-1.269075
347,647739753,0.813880,0.049912,-0.513465,0.267324,2.429008,-0.473253,-1.513500
348,647773087,0.817232,0.043908,-0.506309,0.271763,2.777359,-0.471255,-1.458418
349,647806421,0.821195,0.031478,-0.498926,0.275174,2.977057,-0.358511,-0.895273
350,647839755,0.827234,0.011304,-0.488909,0.276630,3.289932,-0.562010,-1.420900
351,647873089,0.834250,-0.013417,-0.478568,0.273531,4.221878,-0.327908,-1.475782