sep=,
DeviceTag:,23_Right
FirmwareVersion:,2.2.1
AppVersion:,2023.6.0
SyncStatus:,Synced
OutputRate:,30Hz
FilterProfile:,General
Measurement Mode:,Sensor fusion Mode - Complete(Quaternion)
StartTime: ,2026-05-27_15:29:23_381 AEST
© Movella Technologies B. V. 2005-2026

PacketCounter,SampleTimeFine,Quat_W,Quat_X,Quat_Y,Quat_Z,FreeAcc_X,FreeAcc_Y,FreeAcc_Z
1,336800201,0.586984,-0.492763,-0.353553,0.536345,0.340171,-0.103096,-0.295858
2,336833535,0.589085,-0.492842,-0.353274,0.534150,0.518859,-0.171900,-0.202840
3,336866869,0.590268,-0.492624,-0.353716,0.532749,0.386282,-0.180114,-0.025910
4,336900203,0.590470,-0.492133,-0.354425,0.532507,0.330509,-0.236740,0.051256
5,336933537,0.589575,-0.491881,-0.355096,0.533285,0.060598,-0.156120,0.104415
6,336966871,0.587876,-0.492018,-0.355772,0.534582,-0.067197,-0.189161,0.171835
7,337000205,0.585549,-0.491975,-0.356956,0.536383,-0.137216,-0.269562,0.218854
8,337033539,0.582855,-0.490958,-0.358969,0.538900,-0.507473,-0.258654,0.207953
9,337066873,0.581114,-0.489355,-0.360555,0.541174,-1.282466,-0.286122,0.302045
10,337100207,0.580822,-0.487382,-0.360521,0.543286,-1.345324,-0.360654,0.327247
11,337133541,0.582416,-0.486494,-0.357551,0.544339,-1.098912,-0.205268,0.206649
12,337166875,0.586455,-0.487583,-0.351224,0.543145,-0.952973,-0.210542,0.349622
13,337200209,0.592383,-0.488985,-0.343026,0.540686,-0.607882,-0.302060,0.332757
14,337233543,0.598817,-0.488528,-0.335480,0.538742,-0.515510,-0.202539,0.176208
15,337266877,0.604922,-0.488172,-0.327755,0.536998,-0.208930,-0.272235,-0.015001
16,337300211,0.610353,-0.487839,-0.320608,0.535466,-0.179838,-0.102302,-0.203802
17,337333545,0.614619,-0.486997,-0.314744,0.534831,-0.113756,-0.038637,-0.293095
18,337366879,0.617685,-0.485723,-0.310446,0.534970,-0.074242,0.063742,-0.425518
19,337400213,0.619673,-0.484586,-0.307572,0.535363,-0.023254,0.036660,-0.573891
20,337433547,0.619741,-0.483205,-0.307718,0.536447,0.332490,-0.374859,-0.618559
21,337466881,0.615303,-0.478272,-0.316118,0.541072,0.480862,-1.059616,0.019242
22,337500215,0.605471,-0.466370,-0.334250,0.551554,0.225369,-0.880078,0.330774
23,337533549,0.592938,-0.449557,-0.355810,0.565467,-0.271257,-0.378757,0.307217
24,337566883,0.582218,-0.434656,-0.371665,0.577922,-0.918701,0.171768,0.039483
25,337600217,0.576316,-0.428181,-0.376150,0.585716,-1.126422,0.341609,0.003016
26,337633551,0.574831,-0.430187,-0.370660,0.589195,-0.511641,0.090362,0.195443
27,337666885,0.575165,-0.435694,-0.361097,0.590759,-0.012741,0.017340,0.124654
28,337700219,0.574880,-0.440855,-0.352238,0.592554,0.261967,0.244505,0.035789
29,337733553,0.572826,-0.445014,-0.346027,0.595088,0.432054,0.442384,0.063699
30,337766887,0.567743,-0.447088,-0.344683,0.599170,0.611601,0.382595,0.362948
31,337800221,0.558313,-0.444709,-0.350327,0.606484,0.676701,0.332631,0.250985
32,337833555,0.544264,-0.437675,-0.362342,0.617217,0.409812,0.597260,-0.173978
33,337866889,0.526984,-0.429068,-0.377111,0.629291,0.057990,0.749708,-0.450733
34,337900223,0.508024,-0.420748,-0.392503,0.640980,-0.104538,0.766864,-0.512252
35,337933557,0.488931,-0.412815,-0.408287,0.651048,-0.198064,0.724753,-0.454043
36,337966891,0.471145,-0.405172,-0.424447,0.658585,-0.308713,0.567598,-0.420717
37,338000225,0.455657,-0.398086,-0.440732,0.663092,-0.175891,0.315366,-0.363004
38,338033559,0.442764,-0.391180,-0.456833,0.665036,-0.097968,0.038563,-0.365540
39,338066893,0.432675,-0.384876,-0.471689,0.664984,-0.076931,-0.242123,-0.489309
40,338100227,0.425813,-0.380554,-0.483924,0.663107,0.031510,-0.470547,-0.484285
41,338133561,0.422279,-0.378906,-0.492998,0.659618,0.260880,-0.736554,-0.041496
42,338166895,0.421900,-0.379106,-0.499109,0.655134,0.308288,-0.874145,0.441171
43,338200229,0.425459,-0.381445,-0.501635,0.649521,0.314251,-0.865447,0.615456
44,338233563,0.433234,-0.386741,-0.500096,0.642398,0.516789,-0.996198,0.634282
45,338266897,0.443388,-0.393902,-0.495494,0.634638,0.907285,-1.068278,0.702256
46,338300231,0.453472,-0.400618,-0.489684,0.627781,1.226480,-1.078393,0.703977
47,338333565,0.461645,-0.405314,-0.484219,0.623031,1.451720,-1.160935,0.684471
48,338366899,0.466248,-0.406518,-0.480571,0.621642,1.703365,-1.103533,0.696319
49,338400233,0.466240,-0.402941,-0.479687,0.624652,1.702105,-0.973014,0.529819
50,338433567,0.462673,-0.396091,-0.480438,0.631075,1.186508,-0.504432,0.657420
51,338466901,0.458457,-0.389609,-0.479888,0.638561,0.830723,-0.035760,0.683230
52,338500235,0.456169,-0.386144,-0.476374,0.644905,0.620540,0.280008,0.736280
53,338533569,0.456913,-0.386146,-0.469679,0.649273,0.472214,0.519564,0.613823
54,338566903,0.460947,-0.389782,-0.459951,0.651210,0.454641,0.660411,0.163819
55,338600237,0.467424,-0.396739,-0.447831,0.650840,0.560663,0.757838,-0.339007
56,338633571,0.474603,-0.405915,-0.434713,0.648877,0.703462,0.728374,-0.682375
57,338666905,0.480666,-0.414912,-0.422972,0.646478,0.905971,0.693837,-0.674201
58,338700239,0.484577,-0.420969,-0.415062,0.644768,0.894900,0.706156,-0.634180
59,338733573,0.486781,-0.423561,-0.411688,0.643572,0.695318,0.793178,-0.543502
60,338766907,0.488710,-0.424379,-0.411674,0.641576,0.385904,0.856077,-0.336879
61,338800241,0.491630,-0.425200,-0.413344,0.637717,0.384484,0.743371,-0.196715
62,338833575,0.495767,-0.426541,-0.415687,0.632070,0.438871,0.510814,-0.221718
63,338866909,0.500542,-0.428665,-0.418116,0.625232,0.569727,0.298061,-0.093666
64,338900243,0.505353,-0.431150,-0.420607,0.617939,0.651891,0.131857,0.171160
65,338933577,0.509938,-0.433650,-0.423140,0.610651,0.644951,-0.065518,0.372334
66,338966911,0.514562,-0.436755,-0.424918,0.603280,0.583303,-0.159915,0.469748
67,339000245,0.519321,-0.441501,-0.424767,0.595808,0.535018,-0.295422,0.240041
68,339033579,0.523632,-0.448287,-0.422389,0.588615,0.577852,-0.489368,0.058916
69,339066913,0.526316,-0.456121,-0.418831,0.582715,0.640130,-0.749236,-0.079255
70,339100247,0.526303,-0.463241,-0.415867,0.579223,0.499332,-0.918082,-0.093089
71,339133581,0.523622,-0.469132,-0.414101,0.578176,0.229642,-0.962594,-0.145439
72,339166915,0.518984,-0.473957,-0.413382,0.578936,-0.013059,-0.926076,-0.041513
73,339200249,0.513168,-0.477741,-0.413458,0.580953,-0.259794,-0.941036,0.051502
74,339233583,0.506934,-0.480470,-0.413862,0.583879,-0.538231,-0.922854,-0.031334
75,339266917,0.501051,-0.482870,-0.413697,0.587086,-0.803883,-0.892113,-0.001176
76,339300251,0.495789,-0.484807,-0.412662,0.590674,-1.117985,-0.841617,0.418667
77,339333585,0.492023,-0.486007,-0.410547,0.594300,-1.502966,-0.513292,0.599377
78,339366919,0.491590,-0.487689,-0.406464,0.596084,-1.985860,-0.213047,0.420663
79,339400253,0.495168,-0.491846,-0.399491,0.594419,-1.938164,-0.101412,0.097147
80,339433587,0.501473,-0.497954,-0.390829,0.589789,-1.551818,-0.144068,0.095838
81,339466921,0.508610,-0.504445,-0.382141,0.583823,-1.053896,-0.243375,0.028056
82,339500255,0.514650,-0.508599,-0.375996,0.578896,-0.603142,-0.386545,0.006257
83,339533589,0.518913,-0.508356,-0.374521,0.576254,-0.449562,-0.407840,-0.032832
84,339566923,0.521892,-0.504525,-0.377347,0.575086,-0.569603,-0.318703,-0.106092
85,339600257,0.524738,-0.499322,-0.382348,0.573731,-0.524253,-0.274661,-0.134166
86,339633591,0.528258,-0.493838,-0.387866,0.571540,-0.370140,-0.373251,-0.156080
87,339666925,0.532450,-0.488258,-0.393326,0.568707,-0.140894,-0.483036,-0.044648
88,339700259,0.536781,-0.482413,-0.398788,0.565811,0.156723,-0.590385,0.047819
89,339733593,0.540639,-0.475892,-0.404720,0.563445,0.394421,-0.735320,0.102961
90,339766927,0.543727,-0.468636,-0.411100,0.561933,0.587388,-0.810832,0.176309
91,339800261,0.546047,-0.461190,-0.417071,0.561444,0.746540,-0.859447,0.245405
92,339833595,0.547710,-0.454241,-0.421537,0.562154,0.876883,-0.856529,0.357131
93,339866929,0.548885,-0.448102,-0.423718,0.564291,0.966052,-0.748073,0.299557
94,339900263,0.549638,-0.443211,-0.423278,0.567740,1.036700,-0.673973,0.288590
95,339933597,0.550003,-0.439798,-0.420191,0.572315,1.068591,-0.428933,0.220992
96,339966931,0.549926,-0.437781,-0.414820,0.577827,1.084751,-0.258383,0.031134
97,340000265,0.549220,-0.436587,-0.408068,0.584175,1.050683,-0.052892,-0.055938
98,340033599,0.547923,-0.435644,-0.400755,0.591119,0.974971,0.237760,-0.150376
99,340066933,0.546241,-0.434805,-0.393520,0.598113,0.979407,0.547074,-0.106585
100,340100267,0.544396,-0.434056,-0.386791,0.604691,0.902886,0.833589,-0.096244
101,340133601,0.542441,-0.433794,-0.380599,0.610538,0.746619,1.040330,0.050560
102,340166935,0.540435,-0.434796,-0.374186,0.615547,0.594812,1.307046,0.069464
103,340200269,0.538101,-0.437516,-0.366924,0.620020,0.471182,1.360700,-0.162952
104,340233603,0.534675,-0.441541,-0.359232,0.624618,0.362728,1.416103,-0.290985
105,340266937,0.529878,-0.446240,-0.351978,0.629477,0.148319,1.574164,-0.318974
106,340300271,0.524203,-0.451255,-0.345927,0.633992,-0.128875,1.703969,-0.301622
107,340333605,0.518551,-0.456447,-0.341675,0.637221,-0.416622,1.688835,-0.365949
108,340366939,0.513919,-0.461682,-0.339565,0.638329,-0.620777,1.523809,-0.549129
109,340400273,0.510843,-0.466621,-0.340006,0.636970,-0.716743,1.330355,-0.672318
110,340433607,0.509384,-0.470539,-0.343373,0.633440,-0.813426,1.134995,-0.600403
111,340466941,0.509743,-0.473376,-0.349216,0.627818,-0.887119,0.854147,-0.345488
112,340500275,0.511894,-0.475322,-0.356904,0.620229,-0.875133,0.709169,0.000964
113,340533609,0.515852,-0.476841,-0.365340,0.610801,-0.860746,0.564953,0.311714
114,340566943,0.521538,-0.478858,-0.373227,0.599521,-0.942362,0.330648,0.646850
115,340600277,0.529966,-0.483926,-0.377819,0.585009,-0.785625,-0.168648,0.842394
116,340633611,0.539466,-0.489809,-0.379980,0.569833,-0.468482,-0.502789,0.747529
117,340666945,0.548541,-0.494224,-0.381554,0.556140,-0.136399,-0.841561,0.519608
118,340700279,0.556124,-0.496526,-0.384122,0.544674,0.052224,-1.172706,0.395179
119,340733613,0.561307,-0.496130,-0.389378,0.535915,0.360763,-1.455729,0.046278
120,340766947,0.564331,-0.493808,-0.397425,0.528931,0.372224,-1.684727,-0.023297
121,340800281,0.565413,-0.489923,-0.407288,0.523862,0.396716,-1.839075,-0.015743
122,340833615,0.565219,-0.484854,-0.417234,0.520952,0.457178,-2.009292,-0.012956
123,340866949,0.564306,-0.479516,-0.425557,0.520149,0.488258,-2.034682,0.030534
124,340900283,0.563143,-0.475004,-0.430906,0.521144,0.590691,-1.971077,0.236227
125,340933617,0.561866,-0.471548,-0.432884,0.524014,0.708898,-1.906100,0.300239
126,340966951,0.560347,-0.469055,-0.431719,0.528819,0.788870,-1.695822,0.137944
127,341000285,0.558184,-0.467621,-0.427935,0.535409,0.834205,-1.423160,-0.000144
128,341033619,0.554845,-0.466828,-0.422698,0.543668,0.894459,-1.204389,0.019668
129,341066953,0.549659,-0.465531,-0.417682,0.553831,0.918299,-0.971836,0.040314
130,341100287,0.542340,-0.462883,-0.414029,0.565878,0.835223,-0.653552,0.105101
131,341133621,0.533370,-0.458829,-0.411748,0.579211,0.637403,-0.281581,0.195425
132,341166955,0.523638,-0.454009,-0.410090,0.592905,0.428112,0.080846,0.244867
133,341200289,0.513866,-0.449278,-0.408230,0.606193,0.241849,0.396471,0.256619
134,341233623,0.504547,-0.445289,-0.405626,0.618585,0.054677,0.659905,0.256882
135,341266957,0.495983,-0.442332,-0.402127,0.629816,-0.118177,0.915665,0.260677
136,341300291,0.488355,-0.440458,-0.397929,0.639679,-0.268054,1.135314,0.236854
137,341333625,0.481791,-0.439670,-0.393211,0.648061,-0.435979,1.272938,0.026608
138,341366959,0.476313,-0.440351,-0.388041,0.654730,-0.542612,1.273166,-0.389297
139,341400293,0.471638,-0.442376,-0.383004,0.659697,-0.577265,1.287814,-0.564755
140,341433627,0.467468,-0.444823,-0.379188,0.663214,-0.630019,1.308524,-0.563563
141,341466961,0.463826,-0.446712,-0.377818,0.665281,-0.693871,1.248578,-0.584620
142,341500295,0.461033,-0.447676,-0.379594,0.665562,-0.764425,1.093807,-0.575328
143,341533629,0.459473,-0.447834,-0.384552,0.663686,-0.803257,0.891154,-0.569201
144,341566963,0.459376,-0.447429,-0.392099,0.659599,-0.726729,0.660143,-0.477482
145,341600297,0.460448,-0.446479,-0.401517,0.653803,-0.609435,0.368465,-0.248832
146,341633631,0.462380,-0.444651,-0.412294,0.646942,-0.529196,0.062535,0.088747
147,341666965,0.465095,-0.441928,-0.423696,0.639452,-0.439443,-0.204854,0.409623
148,341700299,0.469022,-0.439037,-0.434371,0.631361,-0.404390,-0.423794,0.593430
149,341733633,0.474749,-0.437225,-0.442742,0.622461,-0.298610,-0.586749,0.704178
150,341766967,0.482603,-0.437220,-0.447730,0.612782,-0.076097,-0.806065,0.700339
151,341800301,0.492201,-0.438524,-0.449361,0.602943,0.185299,-1.026012,0.566319
152,341833635,0.502838,-0.440477,-0.448247,0.593498,0.442415,-1.111615,0.421853
153,341866969,0.513934,-0.442490,-0.445277,0.584666,0.674478,-1.086076,0.808369
154,341900303,0.525433,-0.444217,-0.440546,0.576663,0.457592,-0.832619,1.542983
155,341933637,0.539954,-0.448520,-0.429207,0.568411,-0.362648,0.325166,1.882524
156,341966971,0.560518,-0.461017,-0.404418,0.556560,-0.094567,0.689183,0.730569
157,342000305,0.584334,-0.479594,-0.369267,0.540570,0.911069,-0.000883,-0.010317
158,342033639,0.606254,-0.496197,-0.333620,0.524379,1.421216,-0.406590,-0.097949
159,342066973,0.623384,-0.505468,-0.305892,0.512207,1.417603,-0.416939,-0.323059
160,342100307,0.636790,-0.508129,-0.287672,0.503566,1.300314,-0.063148,-0.924108
161,342133641,0.648132,-0.507311,-0.277222,0.495721,1.193228,0.177500,-1.587843
162,342166975,0.658054,-0.505575,-0.272920,0.486727,1.213163,0.159850,-1.503090
163,342200309,0.666378,-0.503599,-0.274239,0.476604,1.434522,-0.086457,-1.468535
164,342233643,0.672254,-0.501138,-0.281811,0.466420,1.773806,-0.601502,-1.397182
165,342266977,0.674640,-0.497043,-0.296406,0.458240,1.913657,-0.794154,-0.618311
166,342300311,0.673566,-0.491657,-0.314946,0.453234,1.910093,-0.771053,-0.353966
167,342333645,0.669404,-0.487859,-0.332495,0.450964,1.809107,-0.894101,0.006998
168,342366979,0.662311,-0.487503,-0.345338,0.452169,1.563131,-1.012993,0.512923
169,342400313,0.652075,-0.490980,-0.352067,0.458057,1.433885,-1.252572,0.597033
170,342433647,0.637973,-0.497164,-0.354242,0.469427,1.102087,-1.455575,0.779673
171,342466981,0.619162,-0.503549,-0.354911,0.486976,0.747728,-1.336936,1.051011
172,342500315,0.595890,-0.508124,-0.355827,0.510042,0.110041,-0.914528,1.399657
173,342533649,0.569197,-0.507902,-0.358837,0.537881,-1.537920,-0.157165,1.365673
174,342566983,0.542882,-0.495131,-0.369210,0.569069,-3.207758,-1.388410,2.187184
175,342600317,0.522560,-0.464557,-0.384919,0.602483,-8.204161,1.007388,0.087140
176,342633651,0.518032,-0.456877,-0.380064,0.615214,-5.082529,1.227664,-0.927979
177,342666985,0.527207,-0.474083,-0.358270,0.607430,-2.132719,1.241279,-0.991527
178,342700319,0.540850,-0.495912,-0.333385,0.591978,-0.706661,0.547139,-0.364742
179,342733653,0.551551,-0.506410,-0.317883,0.581653,0.294006,-0.106627,-0.144297
180,342766987,0.557012,-0.501372,-0.317077,0.581255,0.362288,0.255408,-0.473546
181,342800321,0.560032,-0.487945,-0.326128,0.584761,-0.184037,0.926629,-0.849627
182,342833655,0.563106,-0.475687,-0.337306,0.585567,-0.503105,1.025008,-0.828999
183,342866989,0.567314,-0.469387,-0.346217,0.581374,-0.297493,0.955536,-0.506970
184,342900323,0.572053,-0.466808,-0.353442,0.574417,0.424682,0.543432,-0.093323
185,342933657,0.575519,-0.463497,-0.361732,0.568445,0.767536,0.125751,0.045464
186,342966991,0.576672,-0.458565,-0.371663,0.564858,0.730096,0.057156,0.031678
187,343000325,0.576442,-0.454315,-0.380796,0.562438,0.635100,-0.021238,0.006698
188,343033659,0.574879,-0.451981,-0.387691,0.561207,0.660569,-0.259240,0.130834
189,343066993,0.572015,-0.451600,-0.392113,0.561368,0.645589,-0.386806,0.079797
190,343100327,0.567684,-0.452024,-0.395031,0.563373,0.757233,-0.427158,0.190853
191,343133661,0.561871,-0.451977,-0.397252,0.567661,0.594111,-0.478719,0.095778
192,343166995,0.555078,-0.451939,-0.398447,0.573507,0.343309,-0.415449,0.011682
193,343200329,0.547855,-0.452402,-0.398268,0.580173,0.234040,-0.246011,0.069959
194,343233663,0.540481,-0.453181,-0.397044,0.587277,0.118062,-0.028626,0.240730
195,343266997,0.533173,-0.453861,-0.395203,0.594627,0.013939,0.087248,0.244732
196,343300331,0.525985,-0.454661,-0.392815,0.601955,-0.163018,0.218679,0.207813
197,343333665,0.519198,-0.456116,-0.389523,0.608847,-0.378095,0.377858,0.163123
198,343366999,0.512955,-0.458610,-0.385097,0.615048,-0.544919,0.488048,0.022810
199,343400333,0.507036,-0.461933,-0.380070,0.620572,-0.625996,0.551481,-0.181271
200,343433667,0.501205,-0.465390,-0.375588,0.625436,-0.727369,0.593407,-0.283420
201,343467001,0.495403,-0.468174,-0.373015,0.629507,-0.795593,0.551317,-0.283354
202,343500335,0.489823,-0.469706,-0.373305,0.632554,-0.929097,0.484721,-0.240746
203,343533669,0.484528,-0.469725,-0.376953,0.634451,-0.979746,0.427818,-0.159684
204,343567003,0.479789,-0.467983,-0.383923,0.635159,-0.960884,0.279713,0.026752
205,343600337,0.475816,-0.464231,-0.393648,0.634949,-0.938773,0.079131,0.070056
206,343633671,0.473026,-0.458939,-0.404754,0.633898,-0.898011,-0.139980,0.019678
207,343667005,0.471880,-0.453014,-0.415692,0.631931,-0.807927,-0.304017,0.053110
208,343700339,0.472830,-0.447174,-0.425248,0.629017,-0.674207,-0.378495,0.226633
209,343733673,0.476268,-0.441853,-0.432522,0.625213,-0.538851,-0.457530,0.416447
210,343767007,0.482510,-0.437854,-0.436533,0.620434,-0.392905,-0.420645,0.495754
211,343800341,0.491761,-0.436385,-0.436265,0.614364,-0.213557,-0.328215,0.416013
212,343833675,0.503509,-0.438215,-0.431420,0.606921,0.090006,-0.227244,0.346945
213,343867009,0.516622,-0.442769,-0.423040,0.598436,0.453068,-0.217739,0.200907
214,343900343,0.529471,-0.448358,-0.413453,0.589680,0.826733,-0.317367,0.029724
215,343933677,0.540443,-0.452940,-0.405504,0.581690,1.143367,-0.427018,-0.122133
216,343967011,0.548453,-0.454849,-0.401466,0.575472,1.377931,-0.636145,-0.272556
217,344000345,0.552766,-0.453036,-0.402698,0.571903,1.532562,-0.736326,-0.216149
218,344033679,0.553568,-0.447661,-0.408592,0.571179,1.454091,-0.699211,-0.108552
219,344067013,0.552118,-0.440713,-0.416391,0.572351,1.339983,-0.568449,0.115139
220,344100347,0.549851,-0.434304,-0.423136,0.574483,1.199492,-0.460733,0.330292
221,344133681,0.548041,-0.430430,-0.426312,0.576775,1.034557,-0.350564,0.328288
222,344167015,0.547267,-0.430614,-0.424729,0.578539,1.073874,-0.320310,0.212443
223,344200349,0.546416,-0.433460,-0.420248,0.580486,1.307586,-0.424667,0.164004
224,344233683,0.543890,-0.436035,-0.416116,0.583897,1.385724,-0.488619,0.125121
225,344267017,0.539052,-0.436641,-0.414156,0.589299,1.228112,-0.376655,0.068522
226,344300351,0.532366,-0.435544,-0.414110,0.596181,0.953908,-0.196233,0.026410
227,344333685,0.524919,-0.433691,-0.414690,0.603685,0.698006,-0.046353,0.093081
228,344367019,0.517603,-0.432225,-0.414854,0.610897,0.525901,0.194456,0.139121
229,344400353,0.510762,-0.431187,-0.414494,0.617596,0.368177,0.295428,0.214392
230,344433687,0.504570,-0.431068,-0.413324,0.623525,0.123224,0.363518,0.098413
231,344467021,0.498752,-0.431714,-0.411678,0.628826,0.135073,0.393119,0.010751
232,344500355,0.493156,-0.432836,-0.410074,0.633498,0.009087,0.397975,-0.011328
233,344533689,0.487537,-0.434064,-0.409111,0.637616,-0.074690,0.379283,0.063382
234,344567023,0.481909,-0.434828,-0.409092,0.641375,-0.157755,0.361002,-0.009302
235,344600357,0.476507,-0.434977,-0.410035,0.644699,-0.284000,0.335682,-0.191950
236,344633691,0.471787,-0.435246,-0.411341,0.647153,-0.474684,0.283368,-0.275908
237,344667025,0.468210,-0.435985,-0.412594,0.648454,-0.492263,0.255911,-0.264858
238,344700359,0.465772,-0.436458,-0.414314,0.648795,-0.447944,0.227052,-0.177941
239,344733693,0.464304,-0.436218,-0.416920,0.648339,-0.492486,0.175648,-0.037448
240,344767027,0.463999,-0.435841,-0.419858,0.646914,-0.502132,0.083948,-0.017524
241,344800361,0.465031,-0.436041,-0.422202,0.644508,-0.425480,0.013742,0.056644
242,344833695,0.467189,-0.436736,-0.423506,0.641614,-0.292508,-0.019661,0.170197
243,344867029,0.470020,-0.437645,-0.423806,0.638722,-0.238840,0.010504,0.134440
244,344900363,0.473272,-0.439139,-0.423054,0.635787,-0.182344,0.072511,0.075731
245,344933697,0.476796,-0.441357,-0.421508,0.632639,-0.102373,0.083545,0.091628
246,344967031,0.480412,-0.443939,-0.419764,0.629246,-0.020904,0.017449,-0.038877
247,345000365,0.483896,-0.446486,-0.418502,0.625606,0.081490,-0.013238,-0.072492
248,345033699,0.486854,-0.448440,-0.418419,0.621957,0.172376,-0.051465,-0.053097
249,345067033,0.488975,-0.449538,-0.419932,0.618471,0.263564,-0.173642,-0.018178
250,345100367,0.489979,-0.449451,-0.423190,0.615512,0.344394,-0.309522,-0.061543
251,345133701,0.489606,-0.448357,-0.427705,0.613482,0.330479,-0.398033,-0.026716
252,345167035,0.488064,-0.446727,-0.432577,0.612483,0.273047,-0.508846,0.142910
253,345200369,0.485828,-0.444742,-0.436950,0.612601,0.197676,-0.541659,0.303442
254,345233703,0.483842,-0.443070,-0.439733,0.613394,0.031371,-0.489031,0.296772
255,345267037,0.483116,-0.442930,-0.439858,0.613976,-0.053833,-0.348193,0.231810
256,345300371,0.484088,-0.444792,-0.437261,0.613720,0.012602,-0.322402,0.207300
257,345333705,0.486150,-0.447759,-0.433080,0.612897,0.147886,-0.323104,0.055937
258,345367039,0.488209,-0.450581,-0.428828,0.612181,0.289903,-0.293963,-0.062048
259,345400373,0.489352,-0.452261,-0.425665,0.612237,0.316317,-0.284816,0.038955
260,345433707,0.489327,-0.452338,-0.424108,0.613280,0.231961,-0.164502,0.307984
261,345467041,0.488752,-0.451364,-0.423400,0.614943,0.037136,-0.002120,0.332026
262,345500375,0.488583,-0.451095,-0.421788,0.616381,-0.150197,0.124521,0.128626
263,345533709,0.489216,-0.452963,-0.418204,0.616951,-0.166011,0.227179,-0.009043
264,345567043,0.490025,-0.456476,-0.413560,0.616850,-0.042673,0.232818,0.022387
265,345600377,0.490014,-0.459808,-0.409929,0.616808,0.047998,0.151538,0.005701
266,345633711,0.488593,-0.461524,-0.408839,0.617377,0.021625,0.024925,-0.230451
267,345667045,0.485890,-0.461395,-0.410608,0.618432,-0.102959,-0.096055,-0.336732
268,345700379,0.482421,-0.459660,-0.414703,0.619704,-0.216285,-0.205867,-0.263653
269,345733713,0.478934,-0.456525,-0.420250,0.620990,-0.296382,-0.259185,-0.004679
270,345767047,0.476374,-0.452696,-0.425942,0.621883,-0.442356,-0.317370,0.160150
271,345800381,0.475835,-0.449711,-0.429964,0.621693,-0.503041,-0.303832,0.224293
272,345833715,0.477857,-0.448778,-0.430993,0.620102,-0.421086,-0.275915,0.258021
273,345867049,0.482002,-0.449834,-0.429066,0.617459,-0.215117,-0.319807,0.266280
274,345900383,0.487074,-0.451835,-0.425308,0.614612,0.015238,-0.263475,0.088919
275,345933717,0.491930,-0.454035,-0.421070,0.612035,0.152143,-0.219997,-0.018483
276,345967051,0.495955,-0.455798,-0.417447,0.609955,0.287679,-0.190963,-0.034595
277,346000385,0.498873,-0.456454,-0.415334,0.608525,0.334011,-0.185913,-0.067241
278,346033719,0.500665,-0.455931,-0.414867,0.607764,0.312340,-0.138675,-0.103062
279,346067053,0.501704,-0.454880,-0.415361,0.607357,0.249075,-0.113199,-0.031928
280,346100387,0.502550,-0.454155,-0.415866,0.606854,0.222510,-0.088154,0.000197
281,346133721,0.503382,-0.454092,-0.415910,0.606181,0.246407,-0.151937,0.007660
282,346167055,0.504104,-0.454667,-0.415482,0.605444,0.242649,-0.184477,-0.009394
283,346200389,0.504514,-0.455588,-0.414907,0.604804,0.259429,-0.212443,-0.001014
284,346233723,0.504442,-0.456452,-0.414572,0.604441,0.234767,-0.287153,-0.007143
285,346267057,0.503776,-0.457103,-0.414736,0.604393,0.223556,-0.307605,0.012080
286,346300391,0.502685,-0.457319,-0.415511,0.604606,0.168257,-0.348494,0.066124
287,346333725,0.501315,-0.457043,-0.416752,0.605097,0.100199,-0.363027,0.117963
288,346367059,0.500116,-0.456674,-0.417879,0.605591,0.042801,-0.387750,0.174696
289,346400393,0.499272,-0.456394,-0.418448,0.606106,-0.005817,-0.404240,0.187013
290,346433727,0.499071,-0.456476,-0.418001,0.606517,-0.072840,-0.358323,0.057586
291,346467061,0.499576,-0.457354,-0.416376,0.606558,-0.068230,-0.320296,0.072715
292,346500395,0.500535,-0.458444,-0.414218,0.606422,0.030312,-0.292617,0.111672
293,346533729,0.501508,-0.458908,-0.412481,0.606451,0.075166,-0.201026,0.099761
294,346567063,0.502402,-0.458914,-0.411160,0.606604,0.064487,-0.126435,0.144128
295,346600397,0.502893,-0.458763,-0.410042,0.607067,0.142564,-0.089361,0.148114
296,346633731,0.502942,-0.458546,-0.409195,0.607762,0.076805,-0.032688,0.134879
297,346667065,0.502383,-0.458172,-0.408492,0.608978,0.007770,-0.037086,0.116826
298,346700399,0.501433,-0.457325,-0.408071,0.610678,0.182682,0.031472,0.132755
299,346733733,0.500100,-0.455683,-0.408480,0.612722,-0.261719,0.208430,-0.024158
300,346767067,0.499841,-0.455486,-0.407582,0.613677,-0.123534,0.109534,-0.055912
301,346800401,0.500302,-0.455907,-0.406005,0.614033,-0.143374,0.120090,-0.197001
302,346833735,0.501344,-0.456482,-0.404254,0.613912,-0.083390,0.102544,-0.232929
303,346867069,0.502746,-0.456920,-0.402904,0.613327,-0.097958,0.166527,-0.176822
304,346900403,0.504444,-0.457334,-0.402110,0.612143,0.080503,0.226809,-0.042942
305,346933737,0.506433,-0.457827,-0.401776,0.610350,0.092197,0.221070,0.058338
306,346967071,0.508522,-0.458556,-0.401631,0.608157,0.175683,0.179084,0.030070
307,347000405,0.510252,-0.459347,-0.401772,0.606014,0.356695,0.122182,0.051028
308,347033739,0.511119,-0.459818,-0.402564,0.604398,0.383497,0.089635,0.080991
309,347067073,0.510994,-0.459777,-0.404192,0.603448,0.410194,-0.005690,0.138553
310,347100407,0.509886,-0.459052,-0.406518,0.603375,0.343555,-0.105810,0.106304
311,347133741,0.508254,-0.457765,-0.409191,0.603922,0.314161,-0.144007,0.103496
312,347167075,0.506638,-0.456632,-0.411286,0.604714,0.194106,-0.182820,0.097553
313,347200409,0.505292,-0.455968,-0.412278,0.605665,0.213063,-0.259181,0.199890
314,347233743,0.504090,-0.455324,-0.412500,0.606999,0.231512,-0.245003,0.234124
315,347267077,0.502988,-0.454790,-0.412040,0.608623,0.071824,-0.203710,0.228482
316,347300411,0.501975,-0.454661,-0.410821,0.610377,0.186891,-0.151514,0.219981
317,347333745,0.500775,-0.454222,-0.409425,0.612625,0.084486,-0.154967,0.242693
318,347367079,0.499285,-0.452995,-0.408396,0.615429,0.037343,-0.048036,0.248846
319,347400413,0.497820,-0.451145,-0.407487,0.618570,-0.087546,0.081397,0.164907
320,347433747,0.496987,-0.449524,-0.405917,0.621445,-0.199114,0.296851,0.174121
321,347467081,0.497229,-0.448686,-0.403094,0.623691,-0.243022,0.416498,0.094683
322,347500415,0.498613,-0.448883,-0.398880,0.625152,-0.230058,0.541867,-0.232753
323,347533749,0.500777,-0.450405,-0.393572,0.625691,-0.159069,0.615096,-0.494628
324,347567083,0.503081,-0.452704,-0.388177,0.625554,-0.032062,0.602060,-0.636242
325,347600417,0.504954,-0.454666,-0.384181,0.625089,0.031775,0.597485,-0.712277
326,347633751,0.506227,-0.455655,-0.382757,0.624212,0.101101,0.676453,-0.491304
327,347667085,0.507089,-0.455343,-0.384470,0.622685,0.047998,0.666429,0.050982
328,347700419,0.507790,-0.454062,-0.388694,0.620422,0.030536,0.526619,0.242048
329,347733753,0.508430,-0.452660,-0.394041,0.617544,0.065420,0.347476,0.226209
330,347767087,0.508666,-0.451772,-0.399114,0.614736,0.079606,0.095376,0.239579
331,347800421,0.508175,-0.451576,-0.403143,0.612653,0.113179,-0.150306,0.190706
332,347833755,0.506977,-0.451498,-0.406232,0.611663,0.142129,-0.294325,0.116954
333,347867089,0.505628,-0.451051,-0.408772,0.611416,0.000390,-0.314605,0.081293
334,347900423,0.505284,-0.450867,-0.410296,0.610815,-0.126640,-0.233929,0.105715
335,347933757,0.506815,-0.451859,-0.410044,0.608979,-0.154716,-0.196841,0.173233
336,347967091,0.510273,-0.454083,-0.407897,0.605872,0.133572,-0.203243,0.258204
337,348000425,0.514488,-0.456352,-0.404792,0.602677,0.296005,-0.258144,0.216757
338,348033759,0.518368,-0.458501,-0.401185,0.600127,0.366381,-0.235827,0.082591
339,348067093,0.521195,-0.460626,-0.397405,0.598564,0.431031,-0.170039,-0.002143
340,348100427,0.522652,-0.462262,-0.394165,0.598175,0.397839,-0.075395,0.022686
341,348133761,0.523003,-0.463037,-0.392062,0.598650,0.316739,0.032022,0.036387
342,348167095,0.522852,-0.463166,-0.391047,0.599346,0.190855,0.150458,0.050522
343,348200429,0.522767,-0.463210,-0.390598,0.599679,0.136520,0.188598,0.033051
344,348233763,0.522735,-0.463433,-0.390343,0.599700,0.145130,0.148067,-0.063314
345,348267097,0.522394,-0.463755,-0.390317,0.599766,0.159620,0.139340,-0.079999
346,348300431,0.521604,-0.463919,-0.390566,0.600165,0.091266,0.120629,-0.104627
347,348333765,0.520580,-0.464092,-0.390924,0.600686,0.010613,0.179508,-0.095405
348,348367099,0.519803,-0.464638,-0.391108,0.600817,-0.044237,0.188197,-0.073039
349,348400433,0.519399,-0.465525,-0.391278,0.600370,-0.017462,0.175102,-0.094945
350,348433767,0.519170,-0.466353,-0.391835,0.599561,0.004604,0.087025,-0.122694
351,348467101,0.518889,-0.466876,-0.392974,0.598650,0.037112,0.036866,-0.089323
352,348500435,0.518600,-0.467024,-0.394657,0.597678,0.038388,0.064002,0.073726
353,348533769,0.518559,-0.466958,-0.396622,0.596463,0.054861,0.021331,0.273477
354,348567103,0.518830,-0.466852,-0.398540,0.595030,0.048775,-0.047664,0.355330
355,348600437,0.519476,-0.467139,-0.399649,0.593495,0.046085,-0.132773,0.236205
356,348633771,0.520205,-0.468364,-0.399598,0.591924,0.022492,-0.217441,0.165313
357,348667105,0.520621,-0.469950,-0.399125,0.590619,0.082705,-0.348395,0.192142
358,348700439,0.520448,-0.470805,-0.399506,0.589831,0.075077,-0.415261,0.100637
359,348733773,0.519613,-0.470522,-0.401490,0.589446,0.059943,-0.494358,0.134661
360,348767107,0.518176,-0.468970,-0.405089,0.589486,0.038762,-0.626946,0.154015
361,348800441,0.516259,-0.466299,-0.409665,0.590124,-0.019812,-0.686452,0.209058
362,348833775,0.514162,-0.463146,-0.414100,0.591341,-0.026726,-0.733355,0.286552
363,348867109,0.512130,-0.459856,-0.417618,0.593195,-0.092628,-0.687318,0.289255
364,348900443,0.510751,-0.457163,-0.419490,0.595142,-0.124787,-0.625331,0.236512
365,348933777,0.510216,-0.455266,-0.419626,0.596956,-0.037889,-0.540556,0.142161
366,348967111,0.510255,-0.453646,-0.418685,0.598814,0.028995,-0.398083,0.031888
367,349000445,0.510556,-0.452072,-0.417292,0.600717,0.060918,-0.205700,-0.044807
368,349033779,0.511117,-0.450733,-0.415594,0.602421,0.106847,-0.060794,-0.086058
369,349067113,0.511780,-0.449830,-0.413796,0.603770,0.165272,0.051448,-0.135111
370,349100447,0.512057,-0.449254,-0.412449,0.604884,0.303240,0.046616,-0.247149
371,349133781,0.511261,-0.448413,-0.412385,0.606224,0.369527,-0.004124,-0.382136
372,349167115,0.508889,-0.446611,-0.414459,0.608132,0.425590,-0.031849,-0.370898
373,349200449,0.505070,-0.443268,-0.418920,0.610699,0.396127,-0.113676,-0.269667
374,349233783,0.500561,-0.438849,-0.424822,0.613520,0.264095,-0.104314,-0.200052
375,349267117,0.496372,-0.435015,-0.430067,0.615995,0.132713,-0.064741,-0.091039
376,349300451,0.493015,-0.433082,-0.433179,0.617869,0.185240,-0.047489,0.127864
377,349333785,0.489719,-0.432569,-0.434515,0.619909,0.309702,-0.136686,0.333073
378,349367119,0.485688,-0.432453,-0.434979,0.622828,0.178671,-0.158576,0.293299
379,349400453,0.481094,-0.432815,-0.434698,0.626329,0.043958,-0.064400,0.189919
380,349433787,0.476220,-0.433645,-0.433817,0.630080,-0.069902,-0.065938,0.070567
381,349467121,0.471114,-0.434256,-0.433077,0.633994,-0.124842,-0.070408,0.021235
382,349500455,0.465948,-0.434102,-0.433008,0.637952,-0.289351,-0.011615,0.057186
383,349533789,0.461221,-0.433502,-0.433394,0.641523,-0.461101,0.073815,0.132614
384,349567123,0.457639,-0.433075,-0.433564,0.644256,-0.507488,0.160089,0.068550
385,349600457,0.455251,-0.432736,-0.433449,0.646250,-0.542424,0.089149,0.033124
386,349633791,0.453992,-0.432440,-0.433179,0.647512,-0.522656,0.056684,0.006964
387,349667125,0.453643,-0.431706,-0.433071,0.648319,-0.474871,0.075346,0.006589
388,349700459,0.454221,-0.430615,-0.433023,0.648672,-0.483288,0.134967,0.034853
389,349733793,0.456149,-0.429761,-0.432562,0.648193,-0.475091,0.153934,0.062055
390,349767127,0.459436,-0.429325,-0.431460,0.646894,-0.340732,0.178005,0.094375
391,349800461,0.463741,-0.429208,-0.429725,0.645052,-0.230131,0.253474,0.095972
392,349833795,0.468666,-0.429492,-0.427359,0.642871,-0.127721,0.297236,0.170356
393,349867129,0.473908,-0.430119,-0.424444,0.640535,-0.068429,0.350065,0.185723
394,349900463,0.479487,-0.431389,-0.420769,0.637949,-0.050992,0.427923,0.100404
395,349933797,0.485460,-0.433733,-0.416120,0.634885,-0.001239,0.484060,0.067628
396,349967131,0.491608,-0.436904,-0.410870,0.631389,0.083092,0.446225,0.053017
397,350000465,0.497583,-0.440112,-0.405835,0.627727,0.131444,0.415363,-0.079085
398,350033799,0.503241,-0.443179,-0.401169,0.624048,0.032565,0.404185,-0.232515
399,350067133,0.508901,-0.446852,-0.396288,0.619943,-0.023136,0.494848,-0.261650
400,350100467,0.514845,-0.451288,-0.391093,0.615101,0.015850,0.488001,-0.299300
401,350133801,0.521044,-0.456094,-0.386057,0.609493,0.048051,0.489461,-0.380182
402,350167135,0.527425,-0.461202,-0.381462,0.603019,0.086308,0.429137,-0.272204
403,350200469,0.533637,-0.466346,-0.377565,0.596011,0.161946,0.321032,-0.161916
404,350233803,0.539356,-0.471213,-0.374503,0.588923,0.185095,0.257498,-0.040721
405,350267137,0.544655,-0.475674,-0.372222,0.581864,0.213319,0.099219,0.089314
406,350300471,0.549522,-0.479820,-0.370558,0.574904,-0.029023,0.016443,0.061164
407,350333805,0.554354,-0.484557,-0.368748,0.567408,-0.032084,-0.098409,0.016156
408,350367139,0.558967,-0.489385,-0.367054,0.559785,0.037888,-0.349831,0.015316
409,350400473,0.563075,-0.493660,-0.366001,0.552557,0.040945,-0.530132,0.051842
410,350433807,0.566710,-0.497190,-0.365558,0.545930,-0.005164,-0.663536,0.106277
411,350467141,0.570089,-0.500116,-0.365270,0.539898,-0.037551,-0.742480,0.205148
412,350500475,0.573457,-0.502836,-0.364427,0.534347,-0.055570,-0.820152,0.216392
413,350533809,0.576743,-0.505598,-0.362615,0.529414,-0.027680,-0.894562,0.285048
414,350567143,0.579606,-0.508168,-0.359992,0.525603,0.014059,-0.946372,0.285349
415,350600477,0.581753,-0.510412,-0.356764,0.523252,0.003318,-0.926258,0.262780
416,350633811,0.582908,-0.512333,-0.353295,0.522443,-0.025019,-0.876544,0.311658
417,350667145,0.582926,-0.513742,-0.349936,0.523299,-0.097610,-0.762961,0.283297
418,350700479,0.581885,-0.514816,-0.346640,0.525591,-0.172582,-0.605744,0.203769
419,350733813,0.579746,-0.515343,-0.343863,0.529249,-0.156614,-0.480555,0.251458
420,350767147,0.576799,-0.515034,-0.341755,0.534113,-0.390826,-0.521242,0.348475
421,350800481,0.573438,-0.513869,-0.340322,0.539739,-0.565914,-0.338261,0.088821
422,350833815,0.570016,-0.512558,-0.339130,0.545333,-0.524871,-0.154547,-0.024334
423,350867149,0.566586,-0.511120,-0.338038,0.550905,-0.485826,0.006285,-0.162146
424,350900483,0.563097,-0.509370,-0.337319,0.556515,-0.401057,0.179034,-0.312517
425,350933817,0.559624,-0.507203,-0.337408,0.561919,-0.397454,0.303250,-0.308547
426,350967151,0.556527,-0.504619,-0.338545,0.566616,-0.369785,0.389759,-0.280717
427,351000485,0.554072,-0.501780,-0.340506,0.570357,-0.252997,0.484951,-0.314530
428,351033819,0.552215,-0.498822,-0.343080,0.573202,-0.149170,0.521017,-0.246672
429,351067153,0.550892,-0.495943,-0.346178,0.575109,-0.032882,0.589017,-0.187775
430,351100487,0.550056,-0.493415,-0.349736,0.575929,0.077368,0.593004,-0.220447
431,351133821,0.549575,-0.491427,-0.353807,0.575602,0.196311,0.483930,-0.275735
432,351167155,0.549129,-0.489740,-0.358703,0.574433,0.349305,0.302265,-0.275969
433,351200489,0.548460,-0.487670,-0.365011,0.572857,0.587505,0.040359,-0.179135
434,351233823,0.547019,-0.483730,-0.373811,0.571900,0.588875,-0.121472,-0.072024
435,351267157,0.545191,-0.478866,-0.383976,0.571005,0.606086,-0.236565,-0.071263
436,351300491,0.543472,-0.473873,-0.394272,0.569792,0.671799,-0.426374,0.039127
437,351333825,0.541930,-0.469353,-0.403734,0.568373,0.572862,-0.553607,0.073936
438,351367159,0.540932,-0.466485,-0.411113,0.566392,0.759212,-0.757476,0.226835
439,351400493,0.539858,-0.464255,-0.417038,0.564916,0.983926,-0.958591,0.395644
440,351433827,0.537971,-0.461650,-0.422259,0.564972,1.068917,-1.066851,0.539944
441,351467161,0.534990,-0.458598,-0.426734,0.566923,1.100042,-1.063164,0.713556
442,351500495,0.530949,-0.455241,-0.429995,0.570950,1.078212,-1.000710,0.795618
443,351533829,0.526210,-0.452163,-0.431188,0.576852,0.912953,-0.739767,0.653264
444,351567163,0.521270,-0.450537,-0.429464,0.583853,0.822908,-0.493276,0.515979
445,351600497,0.516120,-0.450317,-0.425322,0.591579,0.763095,-0.349986,0.441896
446,351633831,0.510219,-0.450473,-0.420262,0.600134,0.708009,-0.181548,0.305406
447,351667165,0.503484,-0.450007,-0.415494,0.609420,0.567532,0.045825,0.197731
448,351700499,0.496244,-0.448494,-0.411653,0.619004,0.427039,0.274291,0.130995
449,351733833,0.488901,-0.445740,-0.409110,0.628450,0.271246,0.474532,0.162189
450,351767167,0.481954,-0.441991,-0.407785,0.637264,0.048410,0.650396,0.100312
451,351800501,0.476068,-0.438137,-0.406949,0.644839,-0.151778,0.768927,0.046501
452,351833835,0.471852,-0.435108,-0.405617,0.650801,-0.323250,0.898986,-0.076591
453,351867169,0.469656,-0.433771,-0.403088,0.654841,-0.376654,0.956816,-0.205235
454,351900503,0.469221,-0.434201,-0.399678,0.656953,-0.323174,1.000782,-0.291101
455,351933837,0.469923,-0.435235,-0.396831,0.657494,-0.199500,0.964195,-0.327428
456,351967171,0.471159,-0.435349,-0.396197,0.656916,-0.093229,0.841724,-0.345506
457,352000505,0.472644,-0.433605,-0.398667,0.655506,-0.027400,0.746582,-0.208942
458,352033839,0.474565,-0.430162,-0.403801,0.653241,-0.027390,0.692203,-0.102250
459,352067173,0.477370,-0.426139,-0.410130,0.649882,-0.005354,0.556510,0.035300
460,352100507,0.481405,-0.422611,-0.416249,0.645302,0.083891,0.456081,0.144742
461,352133841,0.486850,-0.420317,-0.421080,0.639556,0.212960,0.310938,0.246064
462,352167175,0.493622,-0.419420,-0.424292,0.632796,0.436497,0.148062,0.391674
463,352200509,0.501068,-0.419143,-0.426445,0.625640,0.716101,0.004239,0.461006
464,352233843,0.508643,-0.418895,-0.428019,0.618578,0.849676,-0.140138,0.405641
465,352267177,0.516156,-0.418964,-0.428736,0.611774,0.928480,-0.271357,0.260954
466,352300511,0.523400,-0.419806,-0.428037,0.605499,1.017782,-0.396552,0.096876
467,352333845,0.529857,-0.421498,-0.425830,0.600241,1.120256,-0.485595,-0.007242
468,352367179,0.534875,-0.423525,-0.422603,0.596633,1.153631,-0.563385,0.057957
469,352400513,0.538322,-0.425572,-0.418591,0.594903,1.026815,-0.474220,0.040668
470,352433847,0.540727,-0.428242,-0.413207,0.594569,0.823054,-0.288605,-0.010677
471,352467181,0.542622,-0.432308,-0.405834,0.594979,0.659710,-0.160465,-0.103889
472,352500515,0.544104,-0.437788,-0.396635,0.595821,0.512116,-0.039167,-0.141514
473,352533849,0.545219,-0.444368,-0.385927,0.596962,0.262246,0.111465,-0.252407
474,352567183,0.546096,-0.452213,-0.373794,0.597989,-0.011224,0.211775,-0.322248
475,352600517,0.546662,-0.460990,-0.360771,0.598768,-0.248327,0.297858,-0.241950
476,352633851,0.546928,-0.469949,-0.347897,0.599179,-0.466290,0.440238,-0.212937
477,352667185,0.546521,-0.478281,-0.336824,0.599284,-0.575454,0.419589,-0.054161
478,352700519,0.544561,-0.484634,-0.329721,0.599914,-0.702363,0.512475,0.136314
479,352733853,0.541207,-0.489468,-0.326338,0.600873,-1.694912,0.357021,0.322500
480,352767187,0.538104,-0.493869,-0.324927,0.600825,-2.125373,0.308151,0.585165
481,352800521,0.536854,-0.496745,-0.324797,0.599640,-2.831890,0.003910,0.387076
482,352833855,0.540617,-0.500074,-0.322684,0.594612,-3.744622,0.003368,0.712042
483,352867189,0.551186,-0.504548,-0.315138,0.585101,-2.142482,-0.229179,0.508139
484,352900523,0.563784,-0.505833,-0.308172,0.575622,-1.100473,-0.430838,0.255284
485,352933857,0.574802,-0.501358,-0.307197,0.569125,-0.569862,-0.109827,-0.177040
486,352967191,0.584919,-0.494141,-0.310211,0.563466,-0.351148,0.041582,-0.366445
487,353000525,0.594206,-0.485526,-0.315417,0.558324,-0.373285,0.300033,-0.452184
488,353033859,0.603667,-0.478536,-0.319959,0.551585,-0.126589,0.156702,-0.359519
489,353067193,0.613035,-0.473504,-0.323239,0.543625,-0.017417,0.131799,-0.302287
490,353100527,0.621838,-0.470925,-0.324533,0.535028,0.269227,-0.150890,-0.055257
491,353133861,0.629045,-0.469360,-0.325192,0.527527,0.348070,-0.613149,0.130605
492,353167195,0.633555,-0.467080,-0.326971,0.523034,0.186679,-1.088829,0.397843
493,353200529,0.635799,-0.463439,-0.329496,0.521964,-0.149139,-0.881719,0.247477
494,353233863,0.637694,-0.460971,-0.329301,0.521960,-0.499141,-0.627265,-0.019361
495,353267197,0.640212,-0.461624,-0.324654,0.521212,-0.564164,-0.740481,-0.095130
496,353300531,0.642625,-0.463755,-0.318328,0.520251,-0.292780,-1.024367,-0.098018
497,353333865,0.643644,-0.464549,-0.314265,0.520754,-0.166633,-1.007224,-0.073649
498,353367199,0.643126,-0.463620,-0.313149,0.522890,-0.258685,-0.796445,0.107655
499,353400533,0.641779,-0.461919,-0.313104,0.526067,-0.301908,-0.529755,0.095462
500,353433867,0.640155,-0.460706,-0.312190,0.529640,-0.235491,-0.327491,0.001436
501,353467201,0.638049,-0.460462,-0.310277,0.533504,-0.062893,-0.179565,0.115336
502,353500535,0.634688,-0.460421,-0.308498,0.538557,0.095850,-0.029641,0.152579
503,353533869,0.629843,-0.460343,-0.307202,0.545013,0.219920,-0.034257,0.152980
504,353567203,0.623648,-0.460222,-0.307075,0.552262,0.171237,0.088968,-0.081223
505,353600537,0.615993,-0.460092,-0.308865,0.559911,0.223633,0.204632,-0.402116
506,353633871,0.606895,-0.460068,-0.313080,0.567473,0.280466,0.280873,-0.738349
507,353667205,0.596159,-0.459858,-0.320746,0.574697,0.490823,0.255409,-0.731601
508,353700539,0.583280,-0.457512,-0.333752,0.582329,0.660417,0.159024,-0.512753
509,353733873,0.568037,-0.451630,-0.352450,0.590908,0.630119,0.177161,-0.577990
510,353767207,0.551049,-0.443469,-0.374500,0.599550,0.522744,0.125419,-0.577873
511,353800541,0.532915,-0.434047,-0.397805,0.607771,0.586415,-0.085116,-0.301316
512,353833875,0.513701,-0.422589,-0.421813,0.616145,0.640854,-0.364547,0.187678
513,353867209,0.493975,-0.409124,-0.445057,0.624948,0.546624,-0.437006,0.634038
514,353900543,0.475243,-0.395333,-0.464715,0.633977,0.309409,-0.415195,0.831811
515,353933877,0.459478,-0.384044,-0.477924,0.642657,-0.001068,-0.355665,0.863976
516,353967211,0.448650,-0.378263,-0.482843,0.650017,-0.196861,-0.352462,0.858933
517,354000545,0.443002,-0.378506,-0.480319,0.655596,0.036451,-0.321173,0.771568
518,354033879,0.440337,-0.381805,-0.473887,0.660144,0.354761,-0.244459,0.536139
519,354067213,0.438127,-0.384609,-0.467067,0.664829,0.494391,-0.097355,0.295611
520,354100547,0.435074,-0.384954,-0.461818,0.670279,0.491535,0.023189,-0.066620
521,354133881,0.431300,-0.383107,-0.458445,0.676068,0.282389,0.257761,-0.157434
522,354167215,0.427898,-0.380541,-0.456076,0.681261,0.069658,0.477589,-0.053740
523,354200549,0.425564,-0.378139,-0.454141,0.685341,0.068279,0.617808,0.052595
524,354233883,0.424300,-0.375690,-0.452622,0.688469,0.110934,0.693921,0.051785
525,354267217,0.424050,-0.373167,-0.451307,0.690854,0.127213,0.742525,-0.070583
526,354300551,0.424696,-0.370902,-0.449948,0.692562,0.170555,0.829707,-0.025565
527,354333885,0.426248,-0.369171,-0.448346,0.693571,0.156049,0.948669,0.099399
528,354367219,0.429015,-0.368594,-0.445991,0.693691,0.100345,1.077544,0.228611
529,354400553,0.433312,-0.370064,-0.442105,0.692724,0.043471,1.189957,0.211038
530,354433887,0.439112,-0.374138,-0.436336,0.690537,0.089550,1.271210,0.216337
531,354467221,0.445807,-0.380151,-0.429335,0.687345,0.180709,1.268806,0.169885
532,354500555,0.452476,-0.386848,-0.422278,0.683612,0.213845,1.168425,0.019008
533,354533889,0.458433,-0.393231,-0.416099,0.679780,0.173984,1.037174,-0.112367
534,354567223,0.463663,-0.399092,-0.411009,0.675902,0.000410,1.008197,-0.096489
535,354600557,0.468861,-0.404994,-0.406512,0.671511,-0.180601,0.999205,0.014671
536,354633891,0.474795,-0.411483,-0.402022,0.666078,-0.328439,0.930549,-0.049002
537,354667225,0.481941,-0.418833,-0.397243,0.659197,-0.360869,0.812313,-0.202002
538,354700559,0.490395,-0.426725,-0.392422,0.650733,-0.326864,0.699130,-0.276312
539,354733893,0.500026,-0.434540,-0.388145,0.640720,-0.251734,0.547951,-0.324584
540,354767227,0.510644,-0.442042,-0.384741,0.629163,-0.166471,0.435970,-0.372529
541,354800561,0.522180,-0.449573,-0.381928,0.615933,-0.051695,0.331029,-0.351997
542,354833895,0.534501,-0.457378,-0.379512,0.600927,0.056604,0.264125,-0.109452
543,354867229,0.547326,-0.465000,-0.377651,0.584482,0.329406,-0.120109,-0.016797
544,354900563,0.559599,-0.471252,-0.377292,0.567848,0.549960,-0.508712,0.133954
545,354933897,0.570544,-0.475658,-0.378477,0.552281,0.564443,-0.876487,0.382443
546,354967231,0.579881,-0.478431,-0.380410,0.538664,0.573872,-1.176779,0.615417
547,355000565,0.587769,-0.480294,-0.381288,0.527726,0.363494,-1.188125,0.587368
548,355033899,0.595379,-0.483654,-0.377727,0.518609,0.150830,-0.915715,0.518295
549,355067233,0.604023,-0.490203,-0.367215,0.509941,0.115100,-0.706184,0.419302
550,355100567,0.613646,-0.499472,-0.350450,0.501181,0.320574,-0.580297,0.348321
551,355133901,0.623538,-0.510006,-0.330071,0.492115,0.475616,-0.318278,0.001230
552,355167235,0.632513,-0.521259,-0.308478,0.482792,0.546066,-0.260808,-0.337172
553,355200569,0.639337,-0.532567,-0.288491,0.473734,0.495390,-0.381402,-0.510193
554,355233903,0.643119,-0.542514,-0.273554,0.466128,0.424839,-0.589473,-0.450020
555,355267237,0.643543,-0.549115,-0.267063,0.461554,0.039817,-0.807419,-0.309243
556,355300571,0.640825,-0.552000,-0.269460,0.460500,-0.796020,-0.194738,-0.283898
557,355333905,0.637085,-0.555493,-0.273845,0.458900,-1.174480,-0.418431,0.153643
558,355367239,0.634668,-0.561732,-0.274590,0.454185,-1.780074,-0.622499,0.466492
559,355400573,0.634291,-0.567281,-0.273168,0.448639,-1.868978,-0.531524,0.561540
560,355433907,0.636366,-0.570469,-0.270265,0.443386,-1.133535,-1.386967,0.666005
561,355467241,0.637209,-0.566459,-0.274119,0.444947,-0.903839,-1.314852,0.200130
562,355500575,0.637361,-0.560547,-0.280522,0.448213,-1.069466,-0.857258,-0.120330
563,355533909,0.637852,-0.556174,-0.285032,0.450114,-0.898567,-0.736791,-0.621905
564,355567243,0.638401,-0.553653,-0.287610,0.450803,-0.174708,-0.766507,-0.290896
565,355600577,0.638579,-0.551255,-0.290881,0.451389,-0.228837,-0.684364,0.553232
566,355633911,0.637939,-0.548077,-0.296441,0.452546,-0.004597,-1.221680,0.735166
567,355667245,0.635559,-0.542672,-0.305803,0.456166,-0.018750,-1.423999,0.213330
568,355700579,0.631532,-0.535378,-0.317032,0.462665,-0.088333,-1.369328,-0.024310
569,355733913,0.626715,-0.527491,-0.327006,0.471253,-0.024199,-1.023329,0.036597
570,355767247,0.622102,-0.520255,-0.333765,0.480579,0.070849,-0.791760,0.239672
571,355800581,0.618363,-0.513963,-0.337640,0.489385,0.191992,-0.731351,0.474419
572,355833915,0.615621,-0.508237,-0.339770,0.497285,0.356597,-0.605410,0.476528
573,355867249,0.613646,-0.503231,-0.340195,0.504475,0.509834,-0.421828,0.329900
574,355900583,0.611768,-0.499116,-0.338870,0.511685,0.663555,-0.304203,0.157958
575,355933917,0.609054,-0.495563,-0.336827,0.519661,0.777466,-0.188653,0.003605
576,355967251,0.604581,-0.492114,-0.335662,0.528835,0.877072,-0.039084,-0.040127
577,356000585,0.597857,-0.488126,-0.336816,0.539338,0.879922,0.108167,0.018256
578,356033919,0.588946,-0.483076,-0.340875,0.551013,0.751500,0.219169,-0.014470
579,356067253,0.578481,-0.477153,-0.347353,0.563082,0.577245,0.323260,-0.077463
580,356100587,0.567242,-0.470803,-0.355174,0.574859,0.395098,0.357801,-0.197049
581,356133921,0.555602,-0.464235,-0.363750,0.586096,0.312165,0.363026,-0.178616
582,356167255,0.543858,-0.457421,-0.372767,0.596707,0.181208,0.308139,-0.097514
583,356200589,0.532442,-0.450467,-0.381829,0.606483,0.048589,0.308444,-0.143270
584,356233923,0.522000,-0.443984,-0.390112,0.615011,-0.088973,0.310765,-0.140515
585,356267257,0.512998,-0.438732,-0.396911,0.621964,-0.125243,0.339731,0.079595
586,356300591,0.505442,-0.434681,-0.402138,0.627611,-0.101470,0.263592,0.012705
587,356333925,0.498796,-0.431527,-0.406263,0.632430,-0.035498,0.185493,-0.042693
588,356367259,0.492458,-0.428499,-0.409943,0.637064,-0.021120,0.119146,-0.011524
589,356400593,0.486288,-0.425147,-0.413491,0.641740,-0.065893,0.150914,0.040681
590,356433927,0.480721,-0.421689,-0.416640,0.646164,-0.190075,0.205424,0.056345
591,356467261,0.476378,-0.418954,-0.418679,0.649830,-0.292219,0.281081,0.000789
592,356500595,0.473765,-0.417527,-0.419362,0.652215,-0.245946,0.277937,0.101982
593,356533929,0.472503,-0.416787,-0.419351,0.653609,-0.074131,0.272744,0.025113
594,356567263,0.471643,-0.415951,-0.419724,0.654523,0.056362,0.349574,0.251859
595,356600597,0.470654,-0.414412,-0.420897,0.655456,0.114910,0.372321,0.473386
596,356633931,0.469250,-0.412122,-0.422557,0.656838,0.088474,0.378981,0.421782
597,356667265,0.467692,-0.410028,-0.423706,0.658517,0.016565,0.372510,0.392577
598,356700599,0.466224,-0.408314,-0.423873,0.660512,0.033666,0.354352,0.404433
599,356733933,0.465058,-0.406645,-0.423062,0.662880,-0.118402,0.418546,0.232117
600,356767267,0.464869,-0.405979,-0.420663,0.664944,-0.275464,0.601212,0.082237
601,356800601,0.466243,-0.407314,-0.416161,0.665998,-0.306644,0.751858,-0.166479
602,356833935,0.468906,-0.410569,-0.410174,0.665844,-0.208887,0.798532,-0.419063
603,356867269,0.472019,-0.414646,-0.404116,0.664821,-0.072390,0.856685,-0.593821
604,356900603,0.474989,-0.418370,-0.399462,0.663184,0.035754,0.837616,-0.649046
605,356933937,0.477404,-0.420818,-0.397441,0.661111,0.091024,0.771203,-0.555842
606,356967271,0.479167,-0.421617,-0.398542,0.658660,0.040506,0.763235,-0.263250
607,357000605,0.480869,-0.421626,-0.401643,0.655523,-0.067342,0.744343,-0.036610
608,357033939,0.483099,-0.422057,-0.405062,0.651489,-0.059952,0.532406,-0.003345
609,357067273,0.485470,-0.423329,-0.408013,0.647045,0.044143,0.273772,-0.044543
610,357100607,0.487341,-0.425160,-0.410348,0.642949,0.104368,0.076698,0.008508
611,357133941,0.488584,-0.427280,-0.412023,0.639520,0.079227,-0.050091,0.036158
612,357167275,0.489465,-0.429683,-0.413138,0.636510,0.044898,-0.046649,0.108362
613,357200609,0.490544,-0.432402,-0.413887,0.633343,0.006051,-0.024864,0.314899
614,357233943,0.492232,-0.435208,-0.414669,0.629588,0.036359,-0.161745,0.380106
615,357267277,0.494239,-0.437659,-0.415839,0.625533,0.124818,-0.286033,0.345830
616,357300611,0.495978,-0.439557,-0.417444,0.621744,0.211932,-0.428641,0.283417
617,357333945,0.496882,-0.440478,-0.419749,0.618812,0.314403,-0.621429,0.317346
618,357367279,0.496538,-0.439897,-0.423011,0.617278,0.317413,-0.626266,0.354766
619,357400613,0.495458,-0.438104,-0.426780,0.616827,0.228034,-0.649409,0.676987
620,357433947,0.494592,-0.435505,-0.430115,0.617046,0.145945,-0.622806,0.795838
621,357467281,0.494820,-0.433232,-0.431473,0.617515,0.054834,-0.559614,0.429828
622,357500615,0.496567,-0.432915,-0.429452,0.617744,0.108839,-0.496712,-0.053308
623,357533949,0.498853,-0.433941,-0.424911,0.618323,0.342114,-0.502104,-0.263213
624,357567283,0.500578,-0.434388,-0.419896,0.620038,0.403375,-0.427675,-0.593333
625,357600617,0.501661,-0.434272,-0.415093,0.622473,0.288169,-0.162773,-0.831083
626,357633951,0.502605,-0.434585,-0.410274,0.624683,0.288234,0.035658,-0.903766
627,357667285,0.503437,-0.435315,-0.406115,0.626222,0.375110,0.244492,-0.744434
628,357700619,0.503774,-0.435615,-0.404364,0.626875,0.597521,0.451412,0.203537
629,357733953,0.503152,-0.433569,-0.406645,0.627317,0.701022,0.506941,1.033679
630,357767287,0.501143,-0.429058,-0.412316,0.628324,0.614141,0.370583,0.936790
631,357800621,0.497598,-0.424167,-0.418259,0.630531,0.437211,0.196249,0.256313
632,357833955,0.492626,-0.421199,-0.421463,0.634279,0.241166,0.082895,-0.222758
633,357867289,0.486345,-0.419911,-0.421670,0.639819,0.304370,0.035840,-0.326225
634,357900623,0.478956,-0.417724,-0.421130,0.647138,0.202907,0.157627,-0.270387
635,357933957,0.471811,-0.414091,-0.420614,0.655009,-0.167103,0.455603,-0.295694
636,357967291,0.467369,-0.411367,-0.418349,0.661330,-0.566094,0.774667,-0.560897
637,358000625,0.467237,-0.412478,-0.412202,0.664584,-0.733181,1.033253,-0.759555
638,358033959,0.471184,-0.418330,-0.402179,0.664280,-0.529393,1.269429,-0.539027
639,358067293,0.477254,-0.426695,-0.392202,0.660582,-0.137484,1.810490,0.926345
640,358100627,0.483603,-0.432427,-0.387275,0.655120,0.095410,1.903542,2.391895
641,358133961,0.488775,-0.433956,-0.387223,0.650285,-0.105806,1.168073,0.857049
642,358167295,0.492000,-0.437058,-0.386950,0.645923,-0.510049,0.790496,-1.253342
643,358200629,0.493047,-0.446206,-0.382838,0.641303,-0.344473,0.520595,-1.506723
644,358233963,0.490562,-0.454956,-0.379891,0.638809,0.098200,0.099321,-0.219377
645,358267297,0.484923,-0.455142,-0.385208,0.639797,-0.266081,0.086043,0.549955
646,358300631,0.479851,-0.448610,-0.397480,0.640728,-0.918278,0.249008,0.418200
647,358333965,0.480047,-0.442475,-0.409831,0.637056,-1.497767,0.252092,0.024583
648,358367299,0.488101,-0.443014,-0.415196,0.627008,-1.587311,0.053494,-0.128839
649,358400633,0.502422,-0.451698,-0.411367,0.611841,-0.831813,-0.298679,-0.068140
650,358433967,0.517830,-0.462116,-0.403170,0.596477,0.050457,-0.666189,0.340637
651,358467301,0.531082,-0.468431,-0.396448,0.584280,0.233064,-0.895109,0.528914
652,358500635,0.542538,-0.471629,-0.391944,0.574133,-0.061066,-0.559595,0.495769
653,358533969,0.554327,-0.475989,-0.385983,0.563208,-0.089579,-0.226685,0.357237
654,358567303,0.566732,-0.482761,-0.376793,0.551194,0.214771,-0.465419,-0.067812
655,358600637,0.577868,-0.490334,-0.366372,0.539855,0.497002,-0.769711,-0.603448
656,358633971,0.585936,-0.496533,-0.358497,0.530703,0.772472,-1.010862,-0.453188
657,358667305,0.590252,-0.498644,-0.356656,0.525151,0.818850,-1.102281,-0.046435
658,358700639,0.591864,-0.497156,-0.360000,0.522459,0.432783,-0.749953,0.026505
659,358733973,0.593414,-0.496260,-0.362814,0.519599,0.100825,-0.432717,-0.022305
660,358767307,0.596668,-0.499106,-0.360611,0.514656,0.027795,-0.479452,-0.084461
661,358800641,0.600802,-0.505089,-0.353928,0.508613,0.297083,-0.870339,-0.138060
662,358833975,0.603628,-0.511230,-0.346837,0.503996,0.500725,-1.062326,-0.120727
663,358867309,0.603825,-0.515694,-0.342677,0.502054,0.486119,-0.999109,0.049664
664,358900643,0.601347,-0.518050,-0.342548,0.502690,0.306939,-0.951728,0.226061
665,358933977,0.597075,-0.518744,-0.345558,0.505002,0.036312,-0.893848,0.198183
666,358967311,0.591954,-0.518578,-0.349841,0.508242,-0.165700,-0.948783,0.173039
667,359000645,0.586319,-0.517804,-0.354184,0.512537,-0.299449,-1.026939,0.289582
668,359033979,0.580195,-0.516122,-0.358478,0.518186,-0.337574,-1.076897,0.309496
669,359067313,0.573836,-0.513054,-0.363143,0.525020,-0.446878,-0.989356,0.312693
670,359100647,0.568099,-0.509230,-0.367028,0.532232,-0.608562,-0.811527,0.268042
671,359133981,0.563838,-0.505586,-0.368932,0.538878,-0.621946,-0.636611,0.318455
672,359167315,0.561268,-0.502191,-0.368937,0.544700,-0.472879,-0.515638,0.516238
673,359200649,0.560043,-0.498456,-0.367921,0.550053,-0.356220,-0.345855,0.424505
674,359233983,0.559770,-0.494604,-0.366202,0.554934,-0.230925,-0.208222,0.149633
675,359267317,0.560024,-0.490883,-0.364070,0.559366,-0.049854,-0.029974,0.205823
676,359300651,0.560492,-0.486829,-0.362123,0.563688,0.068823,0.114928,0.252966
677,359333985,0.561152,-0.482619,-0.360373,0.567758,0.138351,0.334979,0.134076
678,359367319,0.561995,-0.479290,-0.358242,0.571083,0.239513,0.583019,0.074565
679,359400653,0.562707,-0.477080,-0.355982,0.573641,0.464446,0.652935,-0.063926
680,359433987,0.562367,-0.475157,-0.355141,0.576085,0.612354,0.537666,-0.237942
681,359467321,0.560080,-0.472305,-0.357348,0.579285,0.690787,0.525377,-0.341328
682,359500655,0.555868,-0.468299,-0.362671,0.583273,0.569303,0.622395,-0.476473
683,359533989,0.550678,-0.464598,-0.369612,0.586788,0.419750,0.569604,-0.517515
684,359567323,0.545025,-0.461540,-0.377730,0.589304,0.487571,0.311248,-0.333734
685,359600657,0.538759,-0.457740,-0.387725,0.591534,0.516271,0.068795,-0.227764
686,359633991,0.531921,-0.453093,-0.399151,0.593696,0.475449,-0.132489,-0.103712
687,359667325,0.524559,-0.448247,-0.410872,0.595926,0.475358,-0.321131,0.161016
688,359700659,0.516580,-0.443357,-0.422090,0.598707,0.418027,-0.513895,0.262852
689,359733993,0.508208,-0.438715,-0.432095,0.602145,0.363112,-0.744892,0.256238
690,359767327,0.499656,-0.434294,-0.440540,0.606373,0.352897,-0.846296,0.330489
691,359800661,0.490981,-0.429882,-0.447400,0.611558,0.288242,-0.905035,0.416794
692,359833995,0.482437,-0.425614,-0.452566,0.617512,0.163370,-0.886612,0.508520
693,359867329,0.474311,-0.421880,-0.455733,0.624006,0.019802,-0.825760,0.407628
694,359900663,0.466912,-0.419047,-0.456699,0.630753,-0.048675,-0.742727,0.135695
695,359933997,0.460153,-0.416726,-0.456069,0.637676,-0.008469,-0.596219,-0.047562
696,359967331,0.453726,-0.413963,-0.455095,0.644738,0.002010,-0.399596,-0.070732
697,360000665,0.447704,-0.410000,-0.454904,0.651578,-0.004975,-0.231429,-0.036115
698,360033999,0.442383,-0.404545,-0.455902,0.657894,-0.062145,-0.089602,-0.020645
699,360067333,0.438222,-0.398509,-0.457377,0.663317,-0.101360,0.094970,0.080672
700,360100667,0.435396,-0.393085,-0.458091,0.667905,-0.117481,0.218556,0.221720
701,360134001,0.433691,-0.388951,-0.457154,0.672064,-0.099874,0.359524,0.239912
702,360167335,0.432761,-0.386621,-0.454198,0.676001,-0.150148,0.496799,0.195286
703,360200669,0.432463,-0.386246,-0.449367,0.679625,-0.179738,0.596147,0.132474
704,360234003,0.432708,-0.387292,-0.443302,0.682848,-0.217770,0.710922,-0.056182
705,360267337,0.433491,-0.389192,-0.436663,0.685544,-0.255521,0.892626,-0.240427
706,360300671,0.434828,-0.391509,-0.430247,0.687432,-0.266020,0.989494,-0.267808
707,360334005,0.436648,-0.393254,-0.425075,0.688499,-0.226852,1.073818,-0.186677
708,360367339,0.438938,-0.393918,-0.421764,0.688700,-0.271280,1.156829,-0.089570
709,360400673,0.441890,-0.394144,-0.419849,0.687853,-0.361116,1.192227,-0.037284
710,360434007,0.445592,-0.395108,-0.418295,0.685855,-0.351117,1.220766,0.043890
711,360467341,0.449920,-0.397106,-0.416523,0.682948,-0.302093,1.120542,0.130853
712,360500675,0.454501,-0.399647,-0.414628,0.679577,-0.229214,1.018172,0.088152
713,360534009,0.459233,-0.402287,-0.412835,0.675920,-0.282490,0.952552,-0.016465
714,360567343,0.464566,-0.405365,-0.410856,0.671629,-0.304799,0.882938,-0.109053
715,360600677,0.470879,-0.408963,-0.408553,0.666437,-0.274968,0.904471,-0.092185
716,360634011,0.478599,-0.413145,-0.405674,0.660086,-0.291556,0.932766,-0.083963
717,360667345,0.488242,-0.418683,-0.401419,0.652087,-0.242948,0.928684,-0.168166
718,360700679,0.499695,-0.425895,-0.395556,0.642250,-0.017185,0.911884,-0.093699
719,360734013,0.512045,-0.433717,-0.388925,0.631243,0.198989,0.807162,-0.080035
720,360767347,0.524501,-0.441429,-0.382307,0.619606,0.291747,0.712285,-0.213497
721,360800681,0.536641,-0.449268,-0.375789,0.607444,0.390742,0.643084,-0.271799
722,360834015,0.548087,-0.457055,-0.369732,0.595004,0.476526,0.486456,-0.132217
723,360867349,0.558746,-0.464271,-0.364605,0.582537,0.487640,0.392330,-0.030725
724,360900683,0.568912,-0.471239,-0.360096,0.569766,0.441360,0.300006,-0.022441
725,360934017,0.578792,-0.478366,-0.355754,0.556449,0.485906,0.112109,0.038065
726,360967351,0.588189,-0.485543,-0.351644,0.542825,0.495350,-0.103334,0.072285
727,361000685,0.596891,-0.492660,-0.347841,0.529192,0.493036,-0.330506,0.114775
728,361034019,0.604890,-0.499515,-0.344343,0.515802,0.387115,-0.535053,0.197458
729,361067353,0.612532,-0.506221,-0.340543,0.502600,0.230723,-0.788899,0.008710
730,361100687,0.619176,-0.513157,-0.336199,0.490196,0.235788,-1.053887,-0.082582
731,361134021,0.624007,-0.519976,-0.331913,0.479692,0.231796,-1.316794,0.178610
732,361167355,0.626410,-0.525600,-0.328914,0.472442,0.108212,-1.383989,0.321584
733,361200689,0.626628,-0.530177,-0.327082,0.468292,-0.134256,-1.329460,0.332113
734,361234023,0.625389,-0.534246,-0.325602,0.466352,-0.302387,-1.344410,0.294687
735,361267357,0.623029,-0.537380,-0.324556,0.466639,-0.389491,-1.386217,0.185419
736,361300691,0.619725,-0.538852,-0.324508,0.469367,-0.619040,-1.267505,0.025740
737,361334025,0.615929,-0.538587,-0.325662,0.473846,-0.894930,-0.951362,-0.048446
738,361367359,0.612471,-0.537638,-0.326789,0.478607,-1.039830,-0.643572,0.118797
739,361400693,0.610044,-0.536689,-0.326828,0.482728,-1.036967,-0.415535,0.293363
740,361434027,0.608964,-0.536264,-0.325088,0.485729,-0.881244,-0.437310,0.336132
741,361467361,0.608702,-0.536569,-0.321627,0.488020,-0.546314,-0.435013,0.629811
742,361500695,0.608169,-0.535649,-0.318600,0.491666,-0.469645,-0.365850,0.405880
743,361534029,0.607128,-0.534351,-0.315668,0.496235,-0.355819,-0.240865,0.119158
744,361567363,0.605181,-0.532822,-0.312980,0.501927,-0.309521,-0.062763,-0.008942
745,361600697,0.602524,-0.530775,-0.311281,0.508309,-0.263491,0.052857,0.118289
746,361634031,0.599476,-0.527761,-0.311389,0.514941,-0.276721,0.101986,-0.018353
747,361667365,0.596145,-0.523854,-0.313387,0.521543,-0.309863,0.140631,-0.223510
748,361700699,0.592790,-0.519425,-0.316618,0.527808,-0.312566,0.183972,-0.298011
749,361734033,0.589490,-0.514619,-0.320631,0.533756,-0.218595,0.234533,-0.224978
750,361767367,0.586308,-0.509507,-0.325244,0.539345,-0.169991,0.289805,-0.204356
751,361800701,0.583458,-0.504531,-0.330167,0.544101,-0.067356,0.348008,0.048893
752,361834035,0.580971,-0.499767,-0.335218,0.548055,0.037438,0.345834,0.164538
753,361867369,0.578496,-0.495173,-0.340411,0.551630,0.192853,0.251895,0.112305
754,361900703,0.575432,-0.490524,-0.346150,0.555405,0.285776,0.114609,0.161510
755,361934037,0.571452,-0.485339,-0.352817,0.559857,0.288030,0.023317,0.143866
756,361967371,0.566862,-0.479667,-0.359934,0.564859,0.244287,0.007549,0.012823
757,362000705,0.562427,-0.474341,-0.366220,0.569728,0.190467,0.067697,-0.052385
758,362034039,0.558686,-0.470167,-0.370849,0.573860,0.257310,0.084484,-0.030246
759,362067373,0.555601,-0.466860,-0.374310,0.577297,0.375593,0.073794,-0.040354
760,362100707,0.552874,-0.464005,-0.377306,0.580259,0.463796,0.095846,-0.114678
761,362134041,0.550278,-0.461594,-0.380060,0.582847,0.523233,0.188403,-0.086614
762,362167375,0.547672,-0.459656,-0.382571,0.585186,0.596822,0.183930,-0.128993
763,362200709,0.544686,-0.458092,-0.385133,0.587513,0.664388,0.194059,-0.192012
764,362234043,0.541041,-0.456669,-0.388162,0.589991,0.660882,0.181662,-0.094367
765,362267377,0.536800,-0.455063,-0.391894,0.592632,0.639276,0.164694,-0.020223
766,362300711,0.532264,-0.453304,-0.395995,0.595339,0.542610,0.159561,-0.072013
767,362334045,0.527854,-0.451963,-0.399759,0.597765,0.449515,0.137865,-0.093442
768,362367379,0.523912,-0.451416,-0.402798,0.599604,0.405306,0.144923,-0.052299
769,362400713,0.520462,-0.451635,-0.405197,0.600825,0.430291,0.134012,-0.045715
770,362434047,0.517130,-0.452187,-0.407581,0.601675,0.464137,0.066725,0.009048
771,362467381,0.513412,-0.452442,-0.410619,0.602600,0.469967,0.015049,0.111013
772,362500715,0.509183,-0.452204,-0.414417,0.603767,0.418242,-0.053378,0.252058
773,362534049,0.504457,-0.451609,-0.418553,0.605324,0.324562,-0.106244,0.327603
774,362567383,0.499419,-0.450873,-0.422513,0.607296,0.207760,-0.182668,0.279489
775,362600717,0.494380,-0.450196,-0.425970,0.609502,0.064893,-0.249503,0.266397
776,362634051,0.489718,-0.449645,-0.428756,0.611715,-0.058692,-0.283820,0.234883
777,362667385,0.485898,-0.449278,-0.430784,0.613602,-0.133934,-0.283676,0.101228
778,362700719,0.483247,-0.448935,-0.432246,0.614918,-0.117792,-0.321929,0.131071
779,362734053,0.481817,-0.448183,-0.433418,0.615763,-0.096206,-0.263270,0.079088
780,362767387,0.481697,-0.447546,-0.433957,0.615940,-0.078321,-0.198172,0.062788
781,362800721,0.482757,-0.447240,-0.433657,0.615543,0.062780,-0.223430,0.046864
782,362834055,0.484524,-0.446861,-0.432857,0.614993,0.157684,-0.193534,0.102567
783,362867389,0.486829,-0.446335,-0.431536,0.614483,0.194520,-0.096065,0.190087
784,362900723,0.489769,-0.446264,-0.429143,0.613874,0.194407,0.024423,0.215767
785,362934057,0.493435,-0.447267,-0.425211,0.612944,0.225223,0.169822,0.234797
786,362967391,0.497677,-0.449462,-0.419743,0.611676,0.271080,0.309783,0.217693
787,363000725,0.502268,-0.452479,-0.413321,0.610071,0.301657,0.401588,0.133311
788,363034059,0.506854,-0.455851,-0.406748,0.608182,0.293553,0.459399,0.022128
789,363067393,0.511227,-0.459390,-0.400507,0.605997,0.260458,0.537102,-0.035226
790,363100727,0.515254,-0.463196,-0.394725,0.603478,0.216610,0.574977,-0.063373
791,363134061,0.518699,-0.467068,-0.389722,0.600788,0.164568,0.490666,-0.091951
792,363167395,0.521408,-0.470570,-0.385942,0.598144,0.112450,0.367883,-0.085864
793,363200729,0.523438,-0.473452,-0.383444,0.595699,-0.050608,0.276955,-0.105110
794,363234063,0.525061,-0.476044,-0.381706,0.593316,-0.165460,0.229855,-0.031305
795,363267397,0.526667,-0.478489,-0.380268,0.590844,-0.299794,0.113482,-0.026396
796,363300731,0.528448,-0.481132,-0.378724,0.588092,-0.432034,0.107940,0.067558
797,363334065,0.530767,-0.484555,-0.376410,0.584670,-0.534091,0.123500,0.278568
798,363367399,0.533555,-0.488971,-0.373113,0.580556,-0.557718,0.089089,0.127115
799,363400733,0.536337,-0.493921,-0.369530,0.576076,-0.510781,-0.113604,-0.205778
800,363434067,0.538373,-0.498129,-0.367492,0.571842,-0.412979,-0.300692,-0.276958
801,363467401,0.539423,-0.499984,-0.368998,0.568252,-0.409610,-0.569012,-0.197830
802,363500735,0.539528,-0.498743,-0.374722,0.565490,-0.472544,-0.718066,-0.055234
803,363534069,0.539647,-0.496050,-0.382119,0.562789,-0.846158,-0.796989,0.172906
804,363567403,0.540917,-0.494411,-0.387163,0.559555,-0.856863,-0.950149,0.510886
805,363600737,0.543556,-0.493940,-0.388014,0.556818,-0.832315,-0.903961,0.613135
806,363634071,0.547343,-0.494760,-0.384529,0.554794,-0.699609,-0.754604,0.450994
807,363667405,0.550910,-0.496088,-0.378612,0.554147,-0.611638,-0.707519,0.243902
808,363700739,0.553705,-0.497442,-0.372476,0.554306,-0.443868,-0.632287,-0.054244
809,363734073,0.555232,-0.497599,-0.368298,0.555427,-0.342360,-0.563659,-0.084023
810,363767407,0.555633,-0.495823,-0.366768,0.557624,-0.274504,-0.493777,0.026031
811,363800741,0.555590,-0.492615,-0.366973,0.560368,-0.440704,-0.246787,-0.012858
812,363834075,0.555971,-0.489758,-0.366847,0.562572,-0.434490,-0.095856,0.004551
813,363867409,0.556901,-0.487782,-0.365683,0.564125,-0.319920,-0.084359,0.000143
814,363900743,0.557784,-0.486165,-0.364125,0.565654,-0.176866,-0.106558,-0.091144
815,363934077,0.558029,-0.484394,-0.362955,0.567680,-0.117751,-0.070880,-0.137153
816,363967411,0.557561,-0.482359,-0.362333,0.570264,-0.131386,0.010737,-0.226565
817,364000745,0.556575,-0.480260,-0.362233,0.573056,-0.136435,0.093642,-0.135013
818,364034079,0.555379,-0.478073,-0.362605,0.575803,-0.144035,0.170469,-0.016063
819,364067413,0.554130,-0.475729,-0.363381,0.578452,-0.146584,0.172334,0.131030
820,364100747,0.553109,-0.473243,-0.364234,0.580927,-0.187674,0.212022,0.265471
821,364134081,0.552631,-0.470930,-0.364500,0.583090,-0.225571,0.260211,0.238208
822,364167415,0.552961,-0.469420,-0.363378,0.584693,-0.268625,0.352296,0.088715
823,364200749,0.554268,-0.469331,-0.360368,0.585389,-0.219863,0.368640,-0.192980
824,364234083,0.556118,-0.470106,-0.356591,0.585325,-0.017086,0.345793,-0.278353
825,364267417,0.557927,-0.470282,-0.353997,0.585037,0.086717,0.365632,-0.213206
826,364300751,0.559623,-0.469679,-0.353039,0.584482,0.125564,0.426605,-0.187665
827,364334085,0.561469,-0.468825,-0.353093,0.583362,0.171357,0.442518,-0.219623
828,364367419,0.563623,-0.468135,-0.353426,0.581635,0.232119,0.433503,-0.231142
829,364400753,0.566163,-0.467862,-0.353538,0.579315,0.299474,0.409243,-0.166059
830,364434087,0.568887,-0.467993,-0.353501,0.576557,0.462014,0.423618,0.052636
831,364467421,0.571489,-0.468232,-0.353569,0.573741,0.564045,0.477110,0.284408
832,364500755,0.573958,-0.468919,-0.353294,0.570878,0.544621,0.537964,0.426745
833,364534089,0.576296,-0.470893,-0.351775,0.567827,0.587415,0.532568,0.343741
834,364567423,0.578074,-0.474085,-0.349061,0.565032,0.610928,0.401460,0.158822
835,364600757,0.578622,-0.477677,-0.346241,0.563178,0.615524,0.232128,0.038224
836,364634091,0.577596,-0.480439,-0.344844,0.562738,0.515933,0.211297,-0.059801
837,364667425,0.575368,-0.482198,-0.345123,0.563344,0.325014,0.249565,-0.147033
838,364700759,0.572876,-0.483472,-0.346386,0.564017,0.176550,0.359728,-0.139202
839,364734093,0.570954,-0.484753,-0.347910,0.563928,0.032962,0.365655,-0.000327
840,364767427,0.570085,-0.486299,-0.349066,0.562760,-0.022695,0.354379,0.033409
841,364800761,0.570290,-0.488334,-0.349350,0.560610,-0.010054,0.303057,0.055112
842,364834095,0.571308,-0.490788,-0.348755,0.557795,0.056379,0.254071,0.112547
843,364867429,0.572696,-0.493342,-0.347704,0.554766,0.092293,0.185011,0.123225
844,364900763,0.574120,-0.495670,-0.346667,0.551862,0.065312,0.108960,0.169407
845,364934097,0.575635,-0.497672,-0.345589,0.549150,0.022653,0.153196,0.202038
846,364967431,0.577619,-0.499637,-0.344072,0.546227,-0.047484,0.226551,0.385344
847,365000765,0.580498,-0.501751,-0.341618,0.542766,-0.087771,0.251708,0.395338
848,365034099,0.584380,-0.504153,-0.337952,0.538655,-0.091102,0.276345,0.301536
849,365067433,0.589294,-0.507131,-0.332632,0.533795,-0.090508,0.313257,0.104939
850,365100767,0.595018,-0.510876,-0.325648,0.528150,0.004858,0.339379,0.017570
851,365134101,0.601035,-0.515042,-0.317889,0.521983,0.112427,0.431420,-0.048665
852,365167435,0.607143,-0.519645,-0.309955,0.515078,0.158334,0.508385,-0.126364
853,365200769,0.613213,-0.524548,-0.302476,0.507305,0.266321,0.422081,-0.148334
854,365234103,0.618612,-0.529398,-0.296822,0.498984,0.239105,0.535506,-0.227432
855,365267437,0.623527,-0.534669,-0.292288,0.489839,0.409366,0.604332,-0.230862
856,365300771,0.627888,-0.539622,-0.288934,0.480742,0.350897,0.263212,-0.257998
857,365334105,0.630866,-0.544308,-0.287642,0.472261,0.109674,0.085923,-0.605618
858,365367439,0.632623,-0.548664,-0.289164,0.463864,0.254528,-0.033802,-0.354372
859,365400773,0.633634,-0.551960,-0.293229,0.455956,0.280497,-0.322612,-0.346333
860,365434107,0.634096,-0.554717,-0.299022,0.448138,0.118110,-0.518098,-0.233969
861,365467441,0.633776,-0.557634,-0.305366,0.440630,0.097568,-0.951951,0.138140
862,365500775,0.631968,-0.559892,-0.313204,0.434824,0.106370,-1.352839,0.662262
863,365534109,0.628336,-0.560459,-0.322615,0.432468,-0.083564,-1.588174,0.690702
864,365567443,0.622559,-0.559106,-0.333027,0.434677,-0.157736,-1.847775,0.735826
865,365600777,0.615394,-0.555611,-0.343391,0.441249,-0.353522,-1.699319,0.783958
866,365634111,0.607859,-0.550984,-0.351928,0.450667,-0.570448,-1.500234,1.086881
867,365667445,0.601099,-0.545396,-0.357523,0.461986,-0.740089,-1.500430,0.905266
868,365700779,0.595282,-0.538394,-0.360526,0.475209,-0.695041,-1.346237,0.225968
869,365734113,0.590517,-0.529857,-0.361730,0.489615,-0.389605,-0.871834,-0.045699
870,365767447,0.587674,-0.519111,-0.362654,0.503663,-0.180061,-0.325388,0.281205
871,365800781,0.589003,-0.506314,-0.363201,0.514624,-0.227091,0.595555,0.710829
872,365834115,0.597585,-0.496018,-0.358700,0.517903,0.104939,1.183995,0.336580
873,365867449,0.613117,-0.491231,-0.347323,0.512032,0.694621,0.999147,0.447900
874,365900783,0.632280,-0.490476,-0.330466,0.500478,1.147369,0.764075,0.484842
875,365934117,0.651386,-0.492731,-0.309120,0.487225,1.882837,0.472839,-0.237003
876,365967451,0.665671,-0.496344,-0.287128,0.477612,2.314048,0.062934,-1.222933
877,366000785,0.671092,-0.499065,-0.270916,0.476661,1.931544,-0.460026,-0.798038
878,366034119,0.667870,-0.497465,-0.265279,0.485938,1.147210,-0.196704,-0.220720
879,366067453,0.660276,-0.494080,-0.265728,0.499338,0.719999,1.323413,-0.372230
880,366100787,0.653367,-0.493080,-0.265921,0.509216,0.012942,1.504999,-0.248236
881,366134121,0.649007,-0.494667,-0.265545,0.513430,-0.554184,0.923490,-0.356515
882,366167455,0.646493,-0.497274,-0.266276,0.513704,-1.027274,0.396139,-1.037767
883,366200789,0.644141,-0.501174,-0.268370,0.511777,-0.930278,0.057902,-0.883075
884,366234123,0.639310,-0.502731,-0.275670,0.512426,-0.831947,-0.589764,0.517025
885,366267457,0.630593,-0.496273,-0.292141,0.520337,-1.129415,-0.170799,1.179779
886,366300791,0.621160,-0.485470,-0.311387,0.530611,-1.790787,0.680918,0.775519
887,366334125,0.615219,-0.477715,-0.324569,0.536637,-2.411807,0.684343,0.317309
888,366367459,0.614607,-0.477026,-0.327725,0.536033,-2.241674,0.289248,-0.038343
889,366400793,0.617645,-0.479963,-0.324705,0.531740,-1.329918,-0.038154,-0.111676
890,366434127,0.621681,-0.481116,-0.321615,0.527858,-0.570916,-0.304250,-0.290597
891,366467461,0.624464,-0.478237,-0.322531,0.526630,-0.328638,-0.332189,0.001140
892,366500795,0.626686,-0.472757,-0.326132,0.526720,-0.540593,0.432777,0.284629
893,366534129,0.631027,-0.470380,-0.326060,0.523701,-0.524476,0.774407,0.368389
894,366567463,0.637275,-0.472470,-0.320250,0.517807,-0.276479,0.247351,-0.051956
895,366600797,0.642882,-0.476723,-0.311339,0.512383,-0.201781,-0.117373,-0.636022
896,366634131,0.646383,-0.481371,-0.302232,0.509076,0.083557,-0.088173,-0.679898
897,366667465,0.647278,-0.483610,-0.296594,0.509131,0.314600,-0.261804,-0.521235
898,366700799,0.645430,-0.481685,-0.296859,0.513132,-0.025151,0.087216,-0.391798
899,366734133,0.643298,-0.479051,-0.298807,0.517130,-0.183463,0.640681,-0.248216
900,366767467,0.643310,-0.478115,-0.298535,0.518137,-0.081367,0.655266,0.134033
901,366800801,0.644654,-0.479042,-0.295828,0.517162,-0.565470,0.818132,0.050038
902,366834135,0.645314,-0.482690,-0.290725,0.515839,-0.545924,0.336012,-0.076034
903,366867469,0.643442,-0.487146,-0.286349,0.516436,-0.636829,-0.103721,-0.212514
904,366900803,0.638301,-0.490358,-0.285561,0.520198,-0.660768,-0.088415,-0.272979
905,366934137,0.631096,-0.491774,-0.288267,0.526126,-0.837252,0.306083,-0.348125
906,366967471,0.623590,-0.492740,-0.292666,0.531714,-0.890135,0.448738,-0.257763
907,367000805,0.616879,-0.493791,-0.298320,0.535413,-0.855352,0.372080,-0.048005
908,367034139,0.611275,-0.494857,-0.305367,0.536881,-0.718721,0.190993,0.197853
909,367067473,0.606230,-0.495487,-0.313819,0.537146,-0.560660,0.154231,0.509984
910,367100807,0.601101,-0.495208,-0.322960,0.537749,-0.490967,0.007714,0.387578
911,367134141,0.595515,-0.494343,-0.332010,0.539246,-0.533108,-0.120544,0.299030
912,367167475,0.589746,-0.493237,-0.340382,0.541375,-0.489868,-0.220912,0.339779
913,367200809,0.584257,-0.491587,-0.348223,0.543836,-0.379103,-0.258932,0.376421
914,367234143,0.579434,-0.489227,-0.355558,0.546372,-0.333940,-0.309952,0.295171
915,367267477,0.575609,-0.486479,-0.361874,0.548717,-0.291722,-0.322168,0.134857
916,367300811,0.573171,-0.484259,-0.366086,0.550436,-0.249340,-0.256210,-0.152894
917,367334145,0.572369,-0.483800,-0.367175,0.550949,-0.144956,-0.183487,-0.422085
918,367367479,0.572950,-0.485160,-0.365612,0.550187,0.071023,-0.280406,-0.597252
919,367400813,0.574197,-0.487256,-0.363166,0.548654,0.312554,-0.244232,-0.631223
920,367434147,0.575792,-0.489444,-0.361063,0.546418,0.468744,-0.197640,-0.412889
921,367467481,0.577505,-0.491177,-0.360217,0.543606,0.695465,-0.185204,-0.085110
922,367500815,0.578857,-0.491405,-0.361991,0.540777,0.912135,-0.286297,0.450273
923,367534149,0.579638,-0.489056,-0.366888,0.538765,0.991608,-0.139249,0.945059
924,367567483,0.580907,-0.485818,-0.372189,0.536688,0.831133,-0.037513,0.721853
925,367600817,0.583328,-0.483968,-0.375116,0.533687,0.846297,-0.187331,0.647533
926,367634151,0.586691,-0.483945,-0.374764,0.530258,1.022906,-0.270318,0.502767
927,367667485,0.590386,-0.484774,-0.372017,0.527326,1.138569,-0.332389,0.539836
928,367700819,0.594039,-0.486153,-0.367408,0.525180,1.210061,-0.188508,0.481545
929,367734153,0.597410,-0.488451,-0.361279,0.523474,1.255752,-0.058414,0.523842
930,367767487,0.600223,-0.491474,-0.354401,0.522126,1.292110,-0.031970,0.352349
931,367800821,0.601983,-0.494548,-0.348106,0.521431,1.281259,-0.090079,0.181679
932,367834155,0.602148,-0.496760,-0.343686,0.522071,1.230968,-0.154027,0.014922
933,367867489,0.600635,-0.497411,-0.341743,0.524464,1.043267,-0.132334,-0.138260
934,367900823,0.598138,-0.496904,-0.341604,0.527878,0.844984,0.039305,-0.074590
935,367934157,0.595834,-0.496019,-0.341880,0.531127,0.608238,0.190826,0.014988
936,367967491,0.594565,-0.495423,-0.341558,0.533308,0.507998,0.266414,0.149957
937,368000825,0.594829,-0.495624,-0.339821,0.533936,0.494731,0.471521,0.307830
938,368034159,0.596714,-0.497207,-0.336091,0.532720,0.570969,0.689986,0.596505
939,368067493,0.599711,-0.500219,-0.330513,0.530018,0.620232,0.657249,0.401802
940,368100827,0.602482,-0.504550,-0.324232,0.526639,0.699278,0.499699,0.150600
941,368134161,0.603882,-0.509316,-0.318762,0.523779,0.630258,0.358237,0.090757
942,368167495,0.603420,-0.513643,-0.315115,0.522291,0.478493,0.181941,-0.147622
943,368200829,0.600980,-0.517072,-0.313995,0.522397,0.246337,0.035470,-0.277822
944,368234163,0.596870,-0.519171,-0.315700,0.523997,-0.042493,-0.017660,-0.238220
945,368267497,0.592040,-0.519967,-0.319629,0.526299,-0.377572,-0.043843,-0.062777
946,368300831,0.587578,-0.519635,-0.324700,0.528518,-0.763700,-0.199255,0.291451
947,368334165,0.583896,-0.517528,-0.330389,0.531135,-1.097094,-0.586358,0.442899
948,368367499,0.581128,-0.513793,-0.335598,0.534521,-1.477576,-0.509138,0.169911
949,368400833,0.580296,-0.510673,-0.337784,0.537031,-1.621496,-0.188427,0.105065
950,368434167,0.582653,-0.509549,-0.335459,0.537004,-1.733071,-0.169659,0.156457
951,368467501,0.588011,-0.509696,-0.329965,0.534422,-1.504667,-0.342421,0.113826
952,368500835,0.595318,-0.509167,-0.324128,0.530393,-1.124922,-0.430360,0.006239
953,368534169,0.603627,-0.507317,-0.319528,0.525544,-0.845793,-0.437619,-0.123242
954,368567503,0.612133,-0.504407,-0.316816,0.520120,-0.568447,-0.415524,-0.191077
955,368600837,0.620062,-0.500917,-0.316219,0.514433,-0.277581,-0.519997,-0.203637
956,368634171,0.626792,-0.497023,-0.317860,0.509015,0.040473,-0.657253,-0.163836
957,368667505,0.631671,-0.492370,-0.321764,0.505038,0.320832,-0.709862,-0.071503
958,368700839,0.634501,-0.487002,-0.327271,0.503151,0.499256,-0.756277,0.019966
959,368734173,0.635478,-0.481406,-0.333173,0.503430,0.587827,-0.688383,0.019039
960,368767507,0.635129,-0.476518,-0.337775,0.505452,0.646298,-0.627005,0.016257
961,368800841,0.633648,-0.472542,-0.340384,0.509278,0.534878,-0.753163,0.105595
962,368834175,0.631000,-0.469032,-0.341261,0.515189,0.547992,-0.881327,0.197379
963,368867509,0.627395,-0.465071,-0.340728,0.523469,0.276160,-0.558833,0.052706
964,368900843,0.624307,-0.462424,-0.336592,0.532110,0.144682,-0.129566,0.079938
965,368934177,0.621827,-0.461923,-0.329005,0.540134,0.318180,0.055475,0.103340
966,368967511,0.619025,-0.462562,-0.320385,0.547932,0.381527,0.395918,0.250315
967,369000845,0.615818,-0.464033,-0.311883,0.555159,0.278457,0.422442,0.334906
968,369034179,0.611559,-0.465449,-0.305100,0.562404,0.148304,0.594108,0.315439
969,369067513,0.605876,-0.466666,-0.300561,0.569939,0.082384,0.771036,0.187800
970,369100847,0.598476,-0.466612,-0.299278,0.578415,0.005007,0.679547,0.264486
971,369134181,0.589180,-0.463442,-0.302169,0.588908,-0.354339,0.504282,0.155275
972,369167515,0.578862,-0.456792,-0.307750,0.601316,-0.746485,0.711651,0.035110
973,369200849,0.569754,-0.450112,-0.311280,0.613120,-1.182266,1.596969,-0.310428
974,369234183,0.564340,-0.448632,-0.308233,0.620703,-1.377877,2.107596,-0.455772
975,369267517,0.562832,-0.452494,-0.299887,0.623351,-1.016730,2.089501,-0.376478
976,369300851,0.564497,-0.458846,-0.290283,0.621747,-0.881103,1.979893,-0.621486
977,369334185,0.568310,-0.466483,-0.281769,0.616486,-0.590331,1.768394,-1.085885
978,369367519,0.572161,-0.473683,-0.277484,0.609335,-0.158739,1.345468,-0.662268
979,369400853,0.573818,-0.475652,-0.281178,0.604531,-0.118108,1.076524,-0.378227
980,369434187,0.573716,-0.473996,-0.290554,0.601488,-0.624984,1.501512,-0.722698
981,369467521,0.574033,-0.474221,-0.300398,0.596148,-0.831562,1.347595,-0.341579
982,369500855,0.575522,-0.476082,-0.310360,0.588071,-0.613796,0.920357,0.273562
983,369534189,0.577946,-0.476304,-0.322144,0.579108,-0.440002,0.479602,0.436711
984,369567523,0.581128,-0.474994,-0.334257,0.570065,-0.313838,0.385690,0.254577
985,369600857,0.584122,-0.473709,-0.344633,0.561836,-0.148055,0.244742,0.550065
986,369634191,0.587465,-0.474528,-0.350484,0.553985,-0.315552,0.813311,0.588129
987,369667525,0.592815,-0.480964,-0.348902,0.543638,-0.200477,0.243712,0.653996
988,369700859,0.598770,-0.490043,-0.343372,0.532408,-0.004691,-0.489614,0.221934
989,369734193,0.603857,-0.497994,-0.337861,0.522723,0.020614,-0.740857,-0.155648
990,369767527,0.608150,-0.503243,-0.333570,0.515424,0.115680,-0.720757,-0.367639
991,369800861,0.611360,-0.505865,-0.330979,0.510708,0.251698,-0.465386,-0.338778
992,369834195,0.614099,-0.508552,-0.328692,0.506210,0.133242,0.439230,0.374800
993,369867529,0.618204,-0.514655,-0.323401,0.498393,0.010439,0.060698,0.549264
994,369900863,0.622459,-0.522626,-0.316864,0.488912,0.009027,-0.647951,-0.366443
995,369934197,0.625301,-0.530407,-0.311389,0.480349,-0.114033,-0.917953,-0.574746
996,369967531,0.626399,-0.536690,-0.307796,0.474216,-0.018976,-1.058042,-0.187273
997,370000865,0.624650,-0.539295,-0.308804,0.472911,0.222355,-1.278658,-0.157808
998,370034199,0.619443,-0.538013,-0.316003,0.476450,-0.049296,-0.928211,0.259610
999,370067533,0.612395,-0.535479,-0.326331,0.481429,-0.359601,-0.674334,0.855371
1000,370100867,0.605649,-0.533425,-0.336128,0.485485,-0.647738,-0.705161,0.818338
1001,370134201,0.600702,-0.532542,-0.342597,0.488072,-0.851876,-0.789662,0.240443
1002,370167535,0.597823,-0.533138,-0.344879,0.489347,-0.721384,-1.009905,-0.024345
1003,370200869,0.595519,-0.533011,-0.346216,0.491348,-0.378742,-1.376805,0.155650
1004,370234203,0.591832,-0.528936,-0.351407,0.496493,-0.063248,-1.612888,0.401626
1005,370267537,0.586578,-0.520233,-0.361432,0.504660,-0.242765,-1.155664,0.547659
1006,370300871,0.581976,-0.509984,-0.371540,0.513039,-0.399125,-0.828702,0.518098
1007,370334205,0.580447,-0.501678,-0.376741,0.519131,-0.408020,-0.569186,0.441279
1008,370367539,0.582971,-0.496833,-0.375017,0.522202,-0.152025,-0.452773,0.345674
1009,370400873,0.588264,-0.494562,-0.367988,0.523420,0.289382,-0.388352,0.134892
1010,370434207,0.594450,-0.493552,-0.358614,0.523892,0.699435,-0.313045,0.021912
1011,370467541,0.599769,-0.492122,-0.350102,0.524931,1.030161,-0.246833,-0.035851
1012,370500875,0.603308,-0.489078,-0.344565,0.527378,1.200582,-0.095307,0.001458
1013,370534209,0.605110,-0.484304,-0.342242,0.531218,1.259642,0.253092,0.051536
1014,370567543,0.606006,-0.479274,-0.341239,0.535387,1.193747,0.573748,0.024219
1015,370600877,0.606681,-0.475702,-0.339521,0.538889,1.200698,0.743350,0.022319
1016,370634211,0.607136,-0.473879,-0.336693,0.541749,1.276273,0.778588,-0.140379
1017,370667545,0.606819,-0.473314,-0.333659,0.544470,1.262173,0.771875,-0.282387
1018,370700879,0.605513,-0.473644,-0.331194,0.547134,1.160446,0.842293,-0.372723
1019,370734213,0.603146,-0.474471,-0.329952,0.549776,1.104493,0.805485,-0.341007
1020,370767547,0.599784,-0.475484,-0.330375,0.552321,0.901455,0.728921,-0.342873
1021,370800881,0.595841,-0.476779,-0.332216,0.554363,0.715483,0.686229,-0.282331
1022,370834215,0.591638,-0.478296,-0.335247,0.555732,0.574794,0.554218,-0.235159
1023,370867549,0.587263,-0.479489,-0.339623,0.556685,0.346741,0.332778,-0.129051
1024,370900883,0.582803,-0.480777,-0.344622,0.557190,0.200784,0.217527,0.038966
1025,370934217,0.578605,-0.482019,-0.349676,0.557343,-0.010012,0.167338,0.318999
1026,370967551,0.575282,-0.484283,-0.353497,0.556410,-0.161566,0.258023,0.450774
1027,371000885,0.573052,-0.487256,-0.356225,0.554372,-0.128313,-0.301401,0.392167
1028,371034219,0.570628,-0.489057,-0.359805,0.552972,-0.225950,-0.572368,0.408895
1029,371067553,0.567922,-0.489534,-0.363941,0.552629,-0.421128,-0.682242,0.435728
1030,371100887,0.565134,-0.489144,-0.367599,0.553410,-0.421365,-0.708333,0.380449
1031,371134221,0.562486,-0.487915,-0.370284,0.555400,-0.566179,-0.370070,0.424441
1032,371167555,0.561450,-0.487296,-0.370773,0.556664,-0.727297,-0.297139,0.381627
1033,371200889,0.562634,-0.487608,-0.369401,0.556107,-0.624995,-0.511086,0.189941
1034,371234223,0.565378,-0.487669,-0.367656,0.554424,-0.524517,-0.568087,0.027058
1035,371267557,0.569492,-0.487080,-0.365527,0.552135,-0.445007,-0.502769,-0.223687
1036,371300891,0.574489,-0.485958,-0.362988,0.549616,-0.170880,-0.468906,-0.100763
1037,371334225,0.580045,-0.484581,-0.360114,0.546880,-0.213817,-0.145354,0.128553
1038,371367559,0.586887,-0.484887,-0.355470,0.542329,-0.218664,-0.167666,0.191084
1039,371400893,0.594570,-0.486837,-0.349022,0.536368,-0.143178,-0.541426,0.037613
1040,371434227,0.602216,-0.489025,-0.341729,0.530510,-0.151757,-0.636495,0.019525
1041,371467561,0.609150,-0.490040,-0.334816,0.526047,0.046530,-0.772343,-0.184589
1042,371500895,0.614161,-0.488904,-0.330288,0.524137,0.153943,-0.796939,0.043449
1043,371534229,0.617549,-0.486440,-0.328029,0.523868,-0.012529,-0.156769,0.350775
1044,371567563,0.620939,-0.485581,-0.325032,0.522523,-0.093488,-0.080456,0.404407
1045,371600897,0.624180,-0.485869,-0.321381,0.520648,-0.019191,-0.587340,0.183195
1046,371634231,0.626257,-0.485420,-0.318442,0.520379,-0.288175,-0.847871,-0.002094
1047,371667565,0.627150,-0.483290,-0.316131,0.522690,-0.141317,-0.795574,-0.041266
1048,371700899,0.626660,-0.478229,-0.315792,0.528109,-0.007118,-0.545384,0.476564
1049,371734233,0.625553,-0.471229,-0.316411,0.535295,-0.262166,0.328442,0.405352
1050,371767567,0.625263,-0.466261,-0.314503,0.541078,-0.557263,0.142715,0.183774
1051,371800901,0.626274,-0.464942,-0.308364,0.544566,-0.774303,0.110283,-0.166426
1052,371834235,0.628133,-0.466117,-0.298981,0.546648,-0.356382,0.164655,-0.434072
1053,371867569,0.629719,-0.466775,-0.289167,0.549534,-0.025700,0.120400,-0.781158
1054,371900903,0.629265,-0.464924,-0.283112,0.554752,0.240745,0.350774,-0.245701
1055,371934237,0.626815,-0.460641,-0.281713,0.561766,0.123324,1.189232,-0.245737
1056,371967571,0.623773,-0.458285,-0.281930,0.566947,-0.203929,1.002083,-0.146551
1057,372000905,0.619995,-0.457577,-0.284219,0.570508,-0.428131,0.560912,0.053459
1058,372034239,0.615997,-0.456788,-0.287890,0.573622,-0.627666,0.658129,-0.276890
1059,372067573,0.612608,-0.456245,-0.290901,0.576158,-0.332212,0.835035,-0.428693
1060,372100907,0.609110,-0.454476,-0.294208,0.579576,-0.238842,0.543211,-0.193537
1061,372134241,0.604470,-0.450671,-0.299720,0.584560,-0.512286,0.622741,-0.093804
1062,372167575,0.600230,-0.447538,-0.305058,0.588561,-0.698700,1.127635,-0.248681
1063,372200909,0.598126,-0.447958,-0.307152,0.589294,-0.742638,1.054512,-0.223044
1064,372234243,0.597831,-0.450398,-0.307462,0.587569,-0.412436,0.676320,-0.059172
1065,372267577,0.598429,-0.451363,-0.309299,0.585252,-0.188392,0.630818,-0.025008
1066,372300911,0.599597,-0.450928,-0.313188,0.582316,-0.002156,0.686922,-0.052526
1067,372334245,0.600564,-0.449933,-0.318887,0.578987,0.277069,0.690676,0.068447
1068,372367579,0.600932,-0.448708,-0.325905,0.575637,0.352952,0.736259,0.159854
1069,372400913,0.601166,-0.448251,-0.332738,0.571827,0.367848,0.781768,0.358030
1070,372434247,0.601574,-0.449354,-0.337957,0.567455,0.506487,0.663145,0.415505
1071,372467581,0.601334,-0.451855,-0.341387,0.563658,0.657051,0.494547,0.212574
1072,372500915,0.599436,-0.455282,-0.343644,0.561546,0.659673,0.261712,-0.000438
1073,372534249,0.595155,-0.458603,-0.346033,0.561931,0.544569,-0.016209,-0.167534
1074,372567583,0.589049,-0.461402,-0.348814,0.564348,0.143422,0.218078,-0.148994
1075,372600917,0.583318,-0.465321,-0.349657,0.566557,-0.245721,0.386118,-0.160732
1076,372634251,0.579152,-0.471108,-0.348083,0.567017,-0.351428,0.252983,-0.005803
1077,372667585,0.576652,-0.477554,-0.345480,0.565764,-0.481533,0.218842,-0.086223
1078,372700919,0.575607,-0.484244,-0.342842,0.562738,-0.444406,0.053649,-0.166610
1079,372734253,0.574652,-0.489826,-0.342001,0.559385,-0.358358,-0.310542,-0.017055
1080,372767587,0.572156,-0.492565,-0.344810,0.557811,-0.394414,-0.403728,0.392036
1081,372800921,0.568423,-0.492584,-0.350284,0.558201,-0.625561,-0.198318,0.621622
1082,372834255,0.565113,-0.492439,-0.355136,0.558623,-0.913586,-0.168250,0.530710
1083,372867589,0.562760,-0.492582,-0.358430,0.558770,-0.686069,-0.261998,0.681837
1084,372900923,0.561631,-0.491861,-0.360542,0.559181,-0.692402,-0.285366,0.429177
1085,372934257,0.562052,-0.490977,-0.360946,0.559275,-0.734924,-0.113837,0.173178
1086,372967591,0.564477,-0.491464,-0.358568,0.557933,-0.490805,0.060401,0.019063
1087,373000925,0.568364,-0.493040,-0.354439,0.555228,-0.292186,0.031453,-0.168498
1088,373034259,0.572937,-0.494938,-0.350349,0.551422,-0.116883,-0.097605,-0.156399
1089,373067593,0.577619,-0.496568,-0.347366,0.546942,0.070753,0.038466,-0.000645
1090,373100927,0.581931,-0.497477,-0.345716,0.542572,0.287921,-0.075485,0.204122
1091,373134261,0.584730,-0.496837,-0.346155,0.539862,0.512564,-0.208377,0.337398
1092,373167595,0.585352,-0.494299,-0.348831,0.539796,0.341517,-0.103446,0.364281
1093,373200929,0.585100,-0.491917,-0.351133,0.540751,0.163242,0.076353,0.122276
1094,373234263,0.585054,-0.490864,-0.351603,0.541452,0.160490,-0.042295,0.032063
1095,373267597,0.585270,-0.490319,-0.351162,0.541997,0.190186,-0.027178,-0.005998
1096,373300931,0.585861,-0.489896,-0.350308,0.542295,0.238493,-0.118615,-0.004797
1097,373334265,0.586027,-0.488813,-0.349970,0.543311,0.403325,-0.153316,-0.117974
1098,373367599,0.585101,-0.486856,-0.350483,0.545728,0.248757,0.098687,-0.166954
1099,373400933,0.584330,-0.486248,-0.349855,0.547497,0.164281,0.519734,-0.130764
1100,373434267,0.584594,-0.487817,-0.347789,0.547135,0.255757,0.289056,-0.293344
1101,373467601,0.585242,-0.489673,-0.346744,0.545446,0.394974,0.103897,-0.566262
1102,373500935,0.585911,-0.490884,-0.347984,0.542843,0.471374,-0.077990,-0.520824
1103,373534269,0.585931,-0.490977,-0.351859,0.540233,0.643025,-0.373008,-0.364274
1104,373567603,0.584055,-0.489106,-0.359125,0.539181,0.768996,-0.552626,0.305600
1105,373600937,0.580329,-0.485262,-0.368860,0.540103,0.592617,-0.282992,0.578788
1106,373634271,0.576031,-0.481817,-0.378016,0.541456,0.375435,-0.419423,1.058676
1107,373667605,0.571993,-0.480409,-0.383568,0.543082,0.050075,-0.536174,0.761531
1108,373700939,0.568503,-0.481632,-0.384270,0.545162,0.006151,-0.812487,0.106550
1109,373734273,0.564549,-0.483167,-0.382304,0.549281,0.248842,-0.819113,-0.714630
1110,373767607,0.559335,-0.483255,-0.380908,0.555472,0.260220,-0.543953,-0.611894
1111,373800941,0.553767,-0.481250,-0.382319,0.561786,0.279170,-0.286342,0.113400
1112,373834275,0.549397,-0.476602,-0.387598,0.566402,0.274937,-0.297722,0.545058
1113,373867609,0.547347,-0.470456,-0.395382,0.568143,0.104087,-0.296278,0.386149
1114,373900943,0.548088,-0.464839,-0.402110,0.567329,0.132270,-0.500927,0.568882
1115,373934277,0.551356,-0.460527,-0.404879,0.565707,0.130957,-0.526674,0.752916
1116,373967611,0.555750,-0.458161,-0.402733,0.564860,0.482868,-0.317782,0.897875
1117,374000945,0.560361,-0.457873,-0.395827,0.565419,0.451527,0.066805,0.932167
1118,374034279,0.564954,-0.460406,-0.384410,0.566668,0.210797,0.379732,0.560883
1119,374067613,0.569180,-0.466014,-0.369215,0.567958,0.368767,0.293896,-0.054047
1120,374100947,0.571694,-0.472194,-0.354284,0.569835,0.573062,0.347039,-0.447701
1121,374134281,0.572801,-0.476467,-0.343218,0.571936,0.510779,0.500489,-0.708748
1122,374167615,0.573021,-0.477704,-0.337633,0.574004,0.401666,0.581318,-1.024361
1123,374200949,0.573479,-0.477351,-0.336533,0.574486,0.147410,0.799942,-1.234155
1124,374234283,0.575501,-0.478256,-0.337322,0.571240,0.062008,0.902738,-1.134021
1125,374267617,0.578889,-0.480901,-0.339256,0.564409,0.339488,0.689782,-0.616532
1126,374300951,0.582595,-0.483070,-0.343506,0.556112,0.493273,0.404970,-0.092834
1127,374334285,0.586032,-0.483528,-0.350032,0.547974,0.568422,0.241574,0.537095
1128,374367619,0.589173,-0.483122,-0.356774,0.540565,0.328521,0.335525,0.669909
1129,374400953,0.591955,-0.484594,-0.360716,0.533547,0.502102,0.013660,0.846811
1130,374434287,0.594134,-0.487807,-0.361238,0.527814,0.243434,-0.029773,0.678059
1131,374467621,0.595534,-0.493429,-0.357891,0.523270,0.248955,-0.297957,0.448719
1132,374500955,0.595352,-0.499890,-0.353071,0.520613,0.147348,-0.532548,0.488750
1133,374534289,0.593373,-0.505487,-0.349176,0.520095,-0.124973,-0.496087,0.303939
1134,374567623,0.590218,-0.510270,-0.346419,0.520856,-0.370988,-0.487004,-0.155105
1135,374600957,0.586361,-0.514414,-0.344878,0.522159,-0.558594,-0.648046,-0.142039
1136,374634291,0.581129,-0.516954,-0.345782,0.524894,-1.174315,-0.447460,-0.074180
1137,374667625,0.576060,-0.516766,-0.349670,0.528081,-2.435493,-0.373892,0.408422
1138,374700959,0.574652,-0.513680,-0.353004,0.530403,-4.093704,-0.083741,0.633021
1139,374734293,0.579261,-0.511979,-0.351917,0.527750,-2.700776,-0.009786,-0.166981
1140,374767627,0.586922,-0.514364,-0.346354,0.520598,-1.480567,-0.302072,-0.284784
1141,374800961,0.593445,-0.517730,-0.339788,0.514153,-0.388438,-0.556682,-0.175408
1142,374834295,0.597764,-0.517425,-0.336249,0.511778,0.082538,-0.467862,0.006115
1143,374867629,0.599129,-0.512404,-0.336812,0.514854,-0.096359,-0.228584,-0.219120
1144,374900963,0.599585,-0.507532,-0.337917,0.518412,-0.317731,-0.047111,-0.345103
1145,374934297,0.599734,-0.505271,-0.337789,0.520528,-0.208583,-0.058678,-0.392272
1146,374967631,0.598967,-0.503932,-0.337885,0.522643,0.080935,-0.254070,-0.184198
1147,375000965,0.596778,-0.501329,-0.339602,0.526522,-0.018025,-0.180115,-0.047671
1148,375034299,0.593852,-0.498353,-0.341422,0.531455,-0.236325,-0.003337,-0.004981
1149,375067633,0.590801,-0.495928,-0.342169,0.536620,-0.223059,0.006837,0.081202
1150,375100967,0.587635,-0.494144,-0.341616,0.542066,-0.248926,0.201982,0.162305
1151,375134301,0.584618,-0.493240,-0.339495,0.547457,-0.290057,0.463019,0.143025
1152,375167635,0.581753,-0.493208,-0.335938,0.552707,-0.271745,0.512497,0.108098
1153,375200969,0.578626,-0.493409,-0.332179,0.558057,-0.380430,0.509761,-0.040068
1154,375234303,0.575002,-0.493824,-0.329240,0.563154,-0.420679,0.464415,-0.226167
1155,375267637,0.570720,-0.494040,-0.328405,0.567789,-0.494397,0.436760,-0.186203
1156,375300971,0.565973,-0.493382,-0.330586,0.571833,-0.447476,0.371433,-0.255037
1157,375334305,0.560787,-0.490921,-0.336607,0.575535,-0.436333,0.229423,-0.150107
1158,375367639,0.555620,-0.486658,-0.345735,0.578747,-0.572657,0.166466,0.065704
1159,375400973,0.551195,-0.481308,-0.356103,0.581161,-0.569548,0.048054,0.193882
1160,375434307,0.548160,-0.475498,-0.365958,0.582689,-0.545022,-0.012809,0.251600
1161,375467641,0.547172,-0.470487,-0.373473,0.582919,-0.570646,0.065531,0.295697
1162,375500975,0.548559,-0.467648,-0.377444,0.581339,-0.330463,0.240904,0.489806
1163,375534309,0.551845,-0.466519,-0.378520,0.578429,0.011021,0.066333,0.375465
1164,375567643,0.555744,-0.465632,-0.378862,0.575177,0.305359,-0.140664,0.198197
1165,375600977,0.559445,-0.463587,-0.380442,0.572191,0.542495,-0.275115,0.062273
1166,375634311,0.562412,-0.459430,-0.384467,0.569941,0.766971,-0.354049,0.095996
1167,375667645,0.564658,-0.453496,-0.390491,0.568375,0.804380,-0.362066,0.210259
1168,375700979,0.566816,-0.447248,-0.396497,0.567018,0.844693,-0.319373,0.273281
1169,375734313,0.569575,-0.442307,-0.400063,0.565623,0.871315,-0.214922,0.167388
1170,375767647,0.573163,-0.439953,-0.399565,0.564185,1.027422,-0.090650,0.008953
1171,375800981,0.576894,-0.440517,-0.395069,0.563108,1.130141,0.014902,-0.056999
1172,375834315,0.580477,-0.444318,-0.387302,0.561832,1.243686,-0.067028,-0.081096
1173,375867649,0.583098,-0.449132,-0.378978,0.560966,1.469664,-0.095157,-0.135494
1174,375900983,0.583870,-0.451920,-0.373023,0.561914,1.579621,-0.018377,-0.072921
1175,375934317,0.583247,-0.452399,-0.369647,0.564402,1.268537,0.336084,-0.111267
1176,375967651,0.582677,-0.453512,-0.366114,0.566397,1.002482,0.578444,-0.224485
1177,376000985,0.582601,-0.456576,-0.361324,0.567089,1.029477,0.603225,-0.412521
1178,376034319,0.582335,-0.460995,-0.356326,0.566950,1.021629,0.530390,-0.437342
1179,376067653,0.581016,-0.465548,-0.352825,0.566772,1.012857,0.357526,-0.389029
1180,376100987,0.578085,-0.468934,-0.352273,0.567321,0.893176,0.299691,-0.278749
1181,376134321,0.573609,-0.470814,-0.354884,0.568678,0.626074,0.151877,-0.019499
1182,376167655,0.568083,-0.471468,-0.359556,0.570745,0.256263,0.082551,0.319887
1183,376200989,0.563412,-0.472105,-0.363506,0.572343,-0.211726,0.203787,0.184414
1184,376234323,0.560482,-0.474942,-0.364229,0.572414,-0.493706,0.215714,0.170120
1185,376267657,0.559152,-0.480085,-0.361901,0.570899,-0.412441,-0.105333,0.448674
1186,376300991,0.558260,-0.484456,-0.359613,0.569523,-0.321878,-0.372694,0.384472
1187,376334325,0.557109,-0.486711,-0.359050,0.569083,-0.508791,-0.376062,0.097692
1188,376367659,0.555938,-0.488245,-0.359318,0.568745,-0.560485,-0.325815,0.018069
1189,376400993,0.554789,-0.488854,-0.360623,0.568518,-0.457669,-0.393279,0.106087
1190,376434327,0.553617,-0.487875,-0.363427,0.568716,-0.457395,-0.398845,-0.027544
1191,376467661,0.553037,-0.486353,-0.366454,0.568641,-0.479301,-0.328739,-0.216144
1192,376500995,0.553351,-0.485346,-0.368467,0.567895,-0.319297,-0.309486,-0.312744
1193,376534329,0.554163,-0.484309,-0.370241,0.566833,-0.065321,-0.356262,0.107838
1194,376567663,0.554994,-0.482014,-0.373089,0.566109,0.048148,-0.366393,0.668581
1195,376600997,0.556025,-0.478362,-0.376738,0.565778,0.057768,-0.274715,0.882421
1196,376634331,0.557890,-0.475217,-0.378425,0.565467,-0.033973,-0.023368,0.612220
1197,376667665,0.560472,-0.475066,-0.375470,0.565010,0.024843,0.118584,0.305780
1198,376700999,0.562419,-0.477824,-0.368723,0.565194,0.239184,0.003837,0.259228
1199,376734333,0.562369,-0.480837,-0.361760,0.567184,0.349242,0.010636,0.324979
1200,376767667,0.560396,-0.481832,-0.357237,0.571145,0.204149,0.143574,0.092598
1201,376801001,0.557652,-0.481428,-0.354758,0.575699,-0.085971,0.436635,-0.201790
1202,376834335,0.555497,-0.481611,-0.352574,0.578961,-0.286438,0.539168,-0.298964
1203,376867669,0.554122,-0.482750,-0.350446,0.580620,-0.265970,0.487845,-0.282215
1204,376901003,0.553028,-0.483782,-0.349257,0.581520,-0.147631,0.466085,-0.253776
1205,376934337,0.551634,-0.483560,-0.350033,0.582561,-0.179484,0.457225,-0.075139
1206,376967671,0.549767,-0.482124,-0.352529,0.584010,-0.380437,0.547402,0.028069
1207,377001005,0.548006,-0.481415,-0.354833,0.584853,-0.159802,0.584555,-0.029726
1208,377034339,0.546453,-0.479687,-0.357742,0.585953,0.098504,0.340316,0.072193
1209,377067673,0.544241,-0.474822,-0.362425,0.589088,-0.848749,0.420017,-0.181746
1210,377101007,0.542997,-0.471790,-0.365483,0.590780,-1.049384,0.371563,-0.242067
1211,377134341,0.543543,-0.472040,-0.366356,0.589536,-0.696477,0.114024,-0.041772
1212,377167675,0.544965,-0.472363,-0.367627,0.587168,-0.500727,0.018979,0.128894
1213,377201009,0.547035,-0.472070,-0.369307,0.584420,-0.580692,0.138858,0.197856
1214,377234343,0.550269,-0.472739,-0.369729,0.580562,-0.543480,0.216200,0.214614
1215,377267677,0.554594,-0.474937,-0.368313,0.575532,-0.328582,0.111438,0.130496
1216,377301011,0.559143,-0.478220,-0.365752,0.570018,-0.208048,0.087152,-0.016663
1217,377334345,0.563343,-0.482300,-0.362741,0.564341,0.103594,-0.061182,-0.063824
1218,377367679,0.566463,-0.485262,-0.361156,0.559676,0.276033,-0.190593,0.014119
1219,377401013,0.568168,-0.486235,-0.361981,0.556561,0.193935,-0.221417,0.035924
1220,377434347,0.569081,-0.486369,-0.364169,0.554080,0.078804,-0.228675,0.005993
1221,377467681,0.569874,-0.486756,-0.366477,0.551396,0.090892,-0.276880,0.025739
1222,377501015,0.570721,-0.487539,-0.368408,0.548534,0.107906,-0.397778,0.086976
1223,377534349,0.571462,-0.488425,-0.369844,0.546002,0.140191,-0.523030,-0.026349
1224,377567683,0.571856,-0.489302,-0.370845,0.544122,0.133329,-0.617682,-0.112207
1225,377601017,0.571617,-0.489919,-0.371841,0.543137,0.155812,-0.714803,0.069672
1226,377634351,0.570677,-0.489750,-0.373137,0.543390,0.076095,-0.745407,0.067806
1227,377667685,0.569510,-0.489326,-0.373999,0.544403,-0.008196,-0.641430,0.044542
1228,377701019,0.568669,-0.489384,-0.373530,0.545551,-0.056239,-0.485952,0.213161
1229,377734353,0.568556,-0.489874,-0.371632,0.546523,-0.051252,-0.481266,0.263631
1230,377767687,0.568919,-0.490458,-0.368867,0.547494,-0.013535,-0.446934,0.185623
1231,377801021,0.569343,-0.490954,-0.365712,0.548724,-0.038383,-0.433698,0.118484
1232,377834355,0.569381,-0.491070,-0.362744,0.550549,-0.006874,-0.366461,0.166173
1233,377867689,0.568948,-0.490463,-0.360438,0.553045,-0.040004,-0.195143,0.287827
1234,377901023,0.568431,-0.489372,-0.358620,0.555719,-0.115809,-0.044499,0.278107
1235,377934357,0.568308,-0.488451,-0.356521,0.558002,-0.181240,-0.105315,0.174939
1236,377967691,0.568411,-0.487790,-0.354386,0.559832,-0.256463,-0.018673,-0.014324
1237,378001025,0.568524,-0.487677,-0.352030,0.561299,-0.049663,0.262720,-0.093255
1238,378034359,0.568346,-0.487350,-0.350568,0.562678,0.185615,0.084098,0.075300
1239,378067693,0.568416,-0.486735,-0.349708,0.563673,-0.058586,0.201364,-0.059557
1240,378101027,0.568755,-0.486744,-0.348317,0.564185,0.145444,0.154133,-0.224804
1241,378134361,0.568988,-0.486230,-0.347522,0.564883,0.300515,0.276102,-0.265889
1242,378167695,0.568842,-0.484209,-0.348286,0.566293,0.369882,0.343746,0.049067
1243,378201029,0.568733,-0.480533,-0.350101,0.568412,0.201290,0.400925,0.057285
1244,378234363,0.569529,-0.475581,-0.350760,0.571365,-0.102534,-0.195894,0.730025
1245,378267697,0.572443,-0.470607,-0.347966,0.574271,-0.506823,-0.569937,0.472513
1246,378301031,0.576035,-0.468374,-0.342230,0.575950,-0.763064,-0.047541,-0.061181
1247,378334365,0.580845,-0.472320,-0.332705,0.573473,-0.126274,-0.209720,0.013947
1248,378367699,0.585247,-0.477651,-0.324553,0.569238,-0.047492,-0.108885,-0.145617
1249,378401033,0.588845,-0.482817,-0.319477,0.564016,0.243233,0.051587,-0.366122
1250,378434367,0.590902,-0.486309,-0.319088,0.559064,0.622293,0.509286,-0.468015
1251,378467701,0.591471,-0.487534,-0.322730,0.555292,0.687371,0.682906,-0.216447
1252,378501035,0.591056,-0.486688,-0.328621,0.553016,0.547902,0.699498,-0.117733
1253,378534369,0.590366,-0.485414,-0.333912,0.551702,0.179721,0.665291,-0.057327
1254,378567703,0.590483,-0.486297,-0.335614,0.549763,-0.156991,0.493645,-0.040272
1255,378601037,0.591588,-0.490303,-0.333737,0.546148,-0.079877,0.161960,-0.157372
1256,378634371,0.592799,-0.495214,-0.331568,0.541706,0.082769,-0.132376,-0.253343
1257,378667705,0.592968,-0.498667,-0.332183,0.537965,0.165974,-0.404709,-0.195994
1258,378701039,0.591686,-0.499674,-0.336610,0.535685,0.090838,-0.528674,-0.113146
1259,378734373,0.589375,-0.498925,-0.343498,0.534556,-0.090620,-0.586015,-0.017491
1260,378767707,0.586504,-0.497237,-0.351261,0.534242,-0.130863,-0.767203,0.348228
1261,378801041,0.583345,-0.494699,-0.358902,0.534978,-0.344493,-0.851973,0.661018
1262,378834375,0.580652,-0.492268,-0.364610,0.536290,-0.353340,-0.904593,0.767190
1263,378867709,0.578819,-0.490070,-0.367743,0.538141,-0.386302,-0.712280,0.960317
1264,378901043,0.578269,-0.487576,-0.368341,0.540583,-0.264019,-0.721218,0.908165
1265,378934377,0.578356,-0.484393,-0.367366,0.544004,-0.184791,-0.633050,0.608543
1266,378967711,0.579439,-0.481950,-0.364463,0.546966,-0.054332,-0.437031,0.295056
1267,379001045,0.580933,-0.480011,-0.360251,0.549869,0.091205,-0.239291,0.094995
1268,379034379,0.582243,-0.478379,-0.355363,0.553077,0.213389,-0.110468,-0.092712
1269,379067713,0.583076,-0.476926,-0.350405,0.556607,0.245097,0.084907,-0.212777
1270,379101047,0.583393,-0.475570,-0.345795,0.560306,0.353376,0.246794,-0.267346
1271,379134381,0.583019,-0.473895,-0.342241,0.564282,0.425511,0.390323,-0.330553
1272,379167715,0.581840,-0.471916,-0.340034,0.568475,0.416031,0.561377,-0.317503
1273,379201049,0.579916,-0.469918,-0.339017,0.572689,0.375045,0.691042,-0.212708
1274,379234383,0.577544,-0.468098,-0.338751,0.576720,0.324026,0.839205,-0.080146
1275,379267717,0.575192,-0.466872,-0.338357,0.580284,0.206470,0.954697,-0.094449
1276,379301051,0.573097,-0.466867,-0.337024,0.583130,0.140978,1.020465,-0.151666
1277,379334385,0.571107,-0.468202,-0.334744,0.585321,0.124182,1.000423,-0.140442
1278,379367719,0.568665,-0.470057,-0.332566,0.587449,0.109984,0.966034,-0.156760
1279,379401053,0.565469,-0.471783,-0.331389,0.589812,0.017039,0.982985,-0.157675
1280,379434387,0.561694,-0.473264,-0.331492,0.592170,-0.128995,0.955152,-0.100461
1281,379467721,0.557734,-0.474307,-0.332995,0.594231,-0.271867,0.880621,-0.110284
1282,379501055,0.554023,-0.474957,-0.335657,0.595684,-0.413141,0.830459,-0.154676
1283,379534389,0.551037,-0.475519,-0.338997,0.596113,-0.530534,0.756721,-0.014590
1284,379567723,0.549096,-0.475967,-0.342615,0.595478,-0.571882,0.653390,0.120538
1285,379601057,0.548370,-0.476434,-0.346017,0.593804,-0.588991,0.595973,0.168042
1286,379634391,0.548991,-0.477321,-0.348518,0.591049,-0.600158,0.480057,0.199667
1287,379667725,0.550869,-0.478862,-0.349708,0.587340,-0.567593,0.361189,0.182130
1288,379701059,0.553607,-0.480913,-0.349870,0.582978,-0.450163,0.191670,0.213416
1289,379734393,0.556719,-0.482663,-0.349643,0.578690,-0.365176,0.091645,0.067314
1290,379767727,0.560089,-0.484238,-0.348967,0.574514,-0.369132,0.090141,-0.178882
1291,379801061,0.563890,-0.486354,-0.347291,0.570006,-0.285850,0.078638,-0.341265
1292,379834395,0.567970,-0.489142,-0.345043,0.564913,-0.137002,0.127444,-0.146537
1293,379867729,0.572169,-0.492257,-0.343161,0.559085,-0.036274,0.176950,0.112922
1294,379901063,0.576228,-0.495390,-0.342654,0.552422,0.126906,0.032325,0.352448
1295,379934397,0.579269,-0.497342,-0.345085,0.545935,0.263854,-0.400698,0.345908
1296,379967731,0.580351,-0.497100,-0.351285,0.541031,0.236455,-0.731041,0.263815
1297,380001065,0.579562,-0.495030,-0.359813,0.538163,0.106974,-0.880048,0.194814
1298,380034399,0.577631,-0.492090,-0.368453,0.537088,-0.017951,-0.941398,0.185394
1299,380067733,0.575670,-0.489318,-0.375226,0.537036,-0.114843,-0.920415,0.101411
1300,380101067,0.574808,-0.487676,-0.378953,0.536837,-0.121208,-0.939129,0.115932
1301,380134401,0.575412,-0.487141,-0.379791,0.536083,0.027770,-0.955725,0.258107
1302,380167735,0.577087,-0.486987,-0.378644,0.535233,0.220805,-0.871152,0.279239
1303,380201069,0.579322,-0.486776,-0.376200,0.534733,0.359606,-0.767119,0.350502
1304,380234403,0.581642,-0.486408,-0.372882,0.534874,0.427347,-0.623193,0.344127
1305,380267737,0.583757,-0.485875,-0.368866,0.535838,0.481945,-0.524405,0.187799
1306,380301071,0.585490,-0.485343,-0.364003,0.537752,0.455458,-0.291732,-0.003523
1307,380334405,0.587101,-0.485407,-0.357648,0.540195,0.425886,0.010594,-0.065717
1308,380367739,0.588892,-0.486413,-0.349707,0.542536,0.473429,0.307657,0.025281
1309,380401073,0.591000,-0.488178,-0.340714,0.544377,0.463327,0.568596,0.008712
1310,380434407,0.593572,-0.490943,-0.330824,0.545190,0.429591,0.779109,-0.201002
1311,380467741,0.596523,-0.495089,-0.320302,0.544503,0.483321,0.968602,-0.312361
1312,380501075,0.599221,-0.500114,-0.310414,0.542673,0.570186,0.967845,-0.282066
1313,380534409,0.601049,-0.504778,-0.303076,0.540476,0.537808,0.903904,-0.277941
1314,380567743,0.601851,-0.508673,-0.299093,0.538146,0.348196,0.926585,-0.277493
1315,380601077,0.602065,-0.512140,-0.297901,0.535271,0.167829,0.895288,-0.277715
1316,380634411,0.602066,-0.515537,-0.298596,0.531610,-0.001768,0.795850,-0.256239
1317,380667745,0.602155,-0.519007,-0.300377,0.527111,-0.156998,0.672501,-0.040614
1318,380701079,0.602771,-0.522555,-0.302462,0.521681,-0.301161,0.511580,0.129739
1319,380734413,0.604210,-0.526287,-0.304055,0.515299,-0.445335,0.362488,0.087756
1320,380767747,0.606687,-0.530628,-0.304419,0.507665,-0.525700,0.214224,0.145379
1321,380801081,0.610266,-0.535327,-0.303579,0.498870,-0.595371,0.032499,0.307638
1322,380834415,0.615667,-0.540685,-0.300730,0.488064,-0.619500,-0.362283,0.262829
1323,380867749,0.621962,-0.545331,-0.297239,0.476923,-0.648646,-0.451882,0.175154
1324,380901083,0.628728,-0.548656,-0.294106,0.466058,-0.583340,-0.613742,0.521103
1325,380934417,0.635766,-0.550274,-0.291867,0.455900,-0.456754,-0.673621,0.497348
1326,380967751,0.643181,-0.551349,-0.289243,0.445760,-0.580413,-0.556401,0.170259
1327,381001085,0.651223,-0.553418,-0.284152,0.434655,-0.342530,-0.710179,-0.063478
1328,381034419,0.659095,-0.555468,-0.278114,0.423949,-0.102618,-1.042103,0.005769
1329,381067753,0.665794,-0.556220,-0.273822,0.415199,0.050692,-1.162363,0.181064
1330,381101087,0.671174,-0.555609,-0.271825,0.408615,0.117999,-1.108131,0.289904
1331,381134421,0.675585,-0.554337,-0.270579,0.403872,0.175387,-0.935736,0.160434
1332,381167755,0.679452,-0.553535,-0.267741,0.400361,0.235598,-0.838024,0.115207
1333,381201089,0.682686,-0.553551,-0.262561,0.398262,0.317542,-0.761728,0.117062
1334,381234423,0.684964,-0.554096,-0.255739,0.398031,0.401188,-0.649420,0.129938
1335,381267757,0.686147,-0.554906,-0.248249,0.399606,0.460454,-0.444654,0.025334
1336,381301091,0.686136,-0.555967,-0.241029,0.402559,0.406727,-0.264762,-0.074133
1337,381334425,0.684979,-0.557281,-0.234751,0.406404,0.370127,-0.130541,-0.169528
1338,381367759,0.682635,-0.558667,-0.230230,0.411006,0.276812,-0.041958,-0.200467
1339,381401093,0.679070,-0.559762,-0.228260,0.416483,0.110270,0.012360,-0.251163
1340,381434427,0.674374,-0.560438,-0.229009,0.422746,-0.041628,0.124914,-0.274760
1341,381467761,0.668889,-0.560917,-0.231828,0.429238,-0.243335,0.250683,-0.163850
1342,381501095,0.663031,-0.561090,-0.236356,0.435584,-0.595051,0.279829,-0.054917
1343,381534429,0.656734,-0.560216,-0.243151,0.442456,-1.047545,0.638470,-0.078314
1344,381567763,0.651307,-0.559465,-0.250228,0.447454,-1.413154,0.683842,-0.014971
1345,381601097,0.648298,-0.561038,-0.253250,0.448152,-2.012701,0.673984,0.349216
1346,381634431,0.647790,-0.564008,-0.251402,0.446196,-1.026620,-0.638228,0.634475
1347,381667765,0.646736,-0.562745,-0.253658,0.448040,-0.653246,-0.968862,0.432844
1348,381701099,0.644116,-0.556770,-0.262659,0.454051,-0.628921,-0.364184,-0.037378
1349,381734433,0.641157,-0.550012,-0.272964,0.460355,-0.658656,-0.077707,-0.033472
1350,381767767,0.638834,-0.543185,-0.282294,0.466028,-0.217408,-0.391036,0.030573
1351,381801101,0.637016,-0.535807,-0.291449,0.471391,-0.336265,-0.212575,0.079848
1352,381834435,0.635952,-0.529265,-0.299092,0.475414,-0.023246,-0.189100,0.040483
1353,381867769,0.635302,-0.523394,-0.305398,0.478763,0.240614,-0.359574,0.179515
1354,381901103,0.634647,-0.517593,-0.310933,0.482361,0.361628,-0.348485,0.165181
1355,381934437,0.633705,-0.512418,-0.315259,0.486300,0.557487,-0.368389,0.092020
1356,381967771,0.631830,-0.507804,-0.318780,0.491259,0.756802,-0.420100,0.007556
1357,382001105,0.628220,-0.503307,-0.322551,0.498009,0.886723,-0.311651,-0.186473
1358,382034439,0.622251,-0.498813,-0.326797,0.507172,0.896928,-0.255146,-0.270047
1359,382067773,0.614190,-0.494495,-0.331113,0.518305,0.998879,-0.337970,-0.062281
1360,382101107,0.604414,-0.489520,-0.336731,0.530751,0.904961,-0.314749,0.102516
1361,382134441,0.593198,-0.483563,-0.344047,0.544009,0.711488,-0.139228,0.091727
1362,382167775,0.581444,-0.477666,-0.351628,0.556909,0.522333,0.011998,-0.072121
1363,382201109,0.569528,-0.472137,-0.358657,0.569316,0.472711,0.084385,-0.005925
1364,382234443,0.557371,-0.466197,-0.365524,0.581739,0.373912,0.151213,0.170665
1365,382267777,0.545169,-0.459620,-0.372348,0.594078,0.233209,0.266639,0.234230
1366,382301111,0.533386,-0.452880,-0.378563,0.605905,0.063352,0.394303,0.166532
1367,382334445,0.522324,-0.446570,-0.383602,0.616954,-0.015990,0.506504,0.132626
1368,382367779,0.512093,-0.440657,-0.387410,0.627318,-0.088573,0.585268,0.089873
1369,382401113,0.502827,-0.435180,-0.390066,0.636917,-0.188761,0.746709,-0.006434
1370,382434447,0.494802,-0.430526,-0.391507,0.645424,-0.299198,0.938029,-0.029655
1371,382467781,0.488389,-0.427167,-0.391777,0.652339,-0.363371,1.128228,-0.050297
1372,382501115,0.483829,-0.425595,-0.390932,0.657253,-0.420344,1.249204,-0.207387
1373,382534449,0.480991,-0.426305,-0.389336,0.659818,-0.367250,1.383272,-0.306691
1374,382567783,0.479134,-0.428383,-0.388502,0.660315,-0.150857,1.252203,-0.230636
1375,382601117,0.476795,-0.429076,-0.390976,0.660097,0.140186,0.968468,-0.224683
1376,382634451,0.472762,-0.426280,-0.398320,0.660419,0.135967,0.718933,-0.341690
1377,382667785,0.467452,-0.421090,-0.409037,0.660977,-0.072158,0.566361,-0.266202
1378,382701119,0.462225,-0.415430,-0.420553,0.661008,-0.176680,0.371133,-0.067449
1379,382734453,0.458412,-0.410459,-0.431016,0.660029,-0.274929,0.231095,0.034515
1380,382767787,0.457130,-0.407313,-0.439180,0.657480,-0.240635,0.105318,0.252481
1381,382801121,0.458571,-0.405931,-0.444886,0.653482,0.021930,-0.067190,0.504495
1382,382834455,0.461728,-0.405134,-0.448780,0.649077,0.245747,-0.261700,0.553451
1383,382867789,0.465903,-0.404951,-0.450665,0.644888,0.333626,-0.295217,0.423300
1384,382901123,0.470643,-0.405935,-0.450052,0.641246,0.450042,-0.282369,0.460505
1385,382934457,0.475350,-0.407751,-0.447092,0.638687,0.529592,-0.264332,0.490241
1386,382967791,0.479987,-0.410150,-0.442083,0.637168,0.489612,-0.099336,0.507027
1387,383001125,0.484869,-0.413220,-0.435171,0.636245,0.389198,0.082223,0.453298
1388,383034459,0.490278,-0.417370,-0.426263,0.635421,0.275121,0.305692,0.188723
1389,383067793,0.496290,-0.423091,-0.415363,0.634188,0.229283,0.532321,0.006438
1390,383101127,0.502598,-0.429993,-0.403127,0.632472,0.264278,0.711421,-0.079633
1391,383134461,0.508739,-0.437370,-0.390622,0.630347,0.218058,0.888971,-0.179083
1392,383167795,0.514453,-0.444748,-0.378857,0.627722,0.198592,0.982036,-0.244175
1393,383201129,0.519527,-0.451633,-0.368732,0.624649,0.126559,1.026911,-0.334603
1394,383234463,0.524026,-0.457912,-0.360540,0.621091,-0.030905,1.049875,-0.417489
1395,383267797,0.528247,-0.463889,-0.354083,0.616780,-0.151865,1.065073,-0.473242
1396,383301131,0.532375,-0.469541,-0.349340,0.611638,-0.228295,1.002088,-0.310554
1397,383334465,0.536682,-0.474598,-0.346372,0.605628,-0.357280,0.910664,-0.171668
1398,383367799,0.541569,-0.479187,-0.344807,0.598516,-0.439213,0.809778,-0.053762
1399,383401133,0.547489,-0.483872,-0.343600,0.589995,-0.576602,0.776854,0.062428
1400,383434467,0.554973,-0.489688,-0.341324,0.579430,-0.814333,0.767665,0.149321
1401,383467801,0.565216,-0.498500,-0.335675,0.565139,-0.521969,0.304587,0.206656
1402,383501135,0.576392,-0.507173,-0.329179,0.549745,-0.492902,0.131712,0.118748
1403,383534469,0.588123,-0.515030,-0.322653,0.533649,-0.421444,-0.182415,-0.053414
1404,383567803,0.599403,-0.521603,-0.317700,0.517440,-0.091972,-0.478338,0.052830
1405,383601137,0.609460,-0.525617,-0.316090,0.502398,-0.062593,-0.728082,-0.083196
1406,383634471,0.617681,-0.527170,-0.318328,0.489141,0.165712,-0.933108,-0.054523
1407,383667805,0.624438,-0.527571,-0.322762,0.477075,0.058043,-1.010267,-0.010699
1408,383701139,0.630250,-0.528303,-0.326976,0.465617,0.117683,-1.198814,0.090805
1409,383734473,0.635155,-0.529610,-0.330026,0.455198,0.229910,-1.453163,0.306101
1410,383767807,0.639006,-0.530964,-0.331994,0.446720,0.232025,-1.670157,0.386899
1411,383801141,0.641767,-0.532379,-0.332717,0.440498,0.220253,-1.806551,0.344431
1412,383834475,0.643377,-0.533819,-0.332096,0.436858,0.186637,-1.880644,0.296452
1413,383867809,0.643905,-0.535324,-0.329911,0.435895,0.119133,-1.751211,0.184656
1414,383901143,0.643572,-0.537097,-0.325892,0.437227,0.077733,-1.543321,0.114406
1415,383934477,0.642528,-0.539155,-0.320308,0.440344,0.079089,-1.361276,0.063767
1416,383967811,0.640604,-0.541186,-0.314219,0.445018,0.044963,-1.202831,0.038230
1417,384001145,0.637651,-0.542830,-0.308651,0.451112,0.005267,-1.006451,0.098070
1418,384034479,0.633725,-0.543754,-0.304187,0.458503,-0.097055,-0.806302,0.019925
1419,384067813,0.628760,-0.543870,-0.301134,0.467135,-0.122389,-0.611397,-0.072922
1420,384101147,0.622685,-0.542865,-0.300141,0.476977,-0.185634,-0.472972,0.112947
1421,384134481,0.615564,-0.540008,-0.301958,0.488185,-0.295008,-0.270444,0.401967
1422,384167815,0.607989,-0.535028,-0.306582,0.500132,-0.389901,0.053999,0.647865
1423,384201149,0.601233,-0.528521,-0.312392,0.511494,-0.793482,0.455487,0.418905
1424,384234483,0.596789,-0.523184,-0.315780,0.520034,-0.862594,0.597466,-0.066563
1425,384267817,0.595011,-0.520508,-0.315022,0.525191,-0.582173,0.533692,-0.142524
1426,384301151,0.594977,-0.518992,-0.312156,0.528431,-0.263540,0.475947,-0.140825
1427,384334485,0.595771,-0.517050,-0.310109,0.530640,-0.084630,0.437944,-0.117518
1428,384367819,0.596770,-0.513905,-0.310461,0.532365,0.083005,0.443820,-0.183231
1429,384401153,0.597855,-0.510003,-0.312858,0.533495,0.104568,0.523567,-0.247299
1430,384434487,0.599186,-0.506639,-0.315630,0.533575,0.204190,0.541138,-0.230372
1431,384467821,0.600488,-0.504013,-0.318104,0.533129,0.376007,0.490859,-0.127950
1432,384501155,0.601437,-0.501865,-0.320483,0.532660,0.495247,0.466117,-0.046891
1433,384534489,0.601895,-0.500189,-0.322928,0.532242,0.528117,0.428157,0.080242
1434,384567823,0.601811,-0.499281,-0.325248,0.531777,0.527336,0.360146,0.105071
1435,384601157,0.601219,-0.499220,-0.327116,0.531358,0.502462,0.206607,0.039532
1436,384634491,0.599880,-0.499597,-0.328667,0.531560,0.463146,0.162462,0.018748
1437,384667825,0.597929,-0.499952,-0.330025,0.532581,0.341471,0.107324,0.003488
1438,384701159,0.595581,-0.500161,-0.331391,0.534166,0.261829,0.093487,-0.030186
1439,384734493,0.593122,-0.500220,-0.332975,0.535859,0.170058,0.103854,0.082070
1440,384767827,0.591001,-0.500174,-0.334439,0.537332,0.030955,0.130063,0.071609
1441,384801161,0.589490,-0.500373,-0.335055,0.538421,-0.013275,0.161673,0.132143
1442,384834495,0.588728,-0.500932,-0.334371,0.539160,-0.108843,0.205593,0.205879
1443,384867829,0.588766,-0.501969,-0.332231,0.539477,-0.150045,0.291130,0.240170
1444,384901163,0.589643,-0.503720,-0.328633,0.539090,-0.202229,0.334101,0.111012
1445,384934497,0.591159,-0.506209,-0.323938,0.537939,-0.170417,0.351830,-0.010022
1446,384967831,0.592891,-0.508943,-0.319195,0.536286,-0.138060,0.305452,-0.016172
1447,385001165,0.594483,-0.511234,-0.315516,0.534519,-0.159501,0.261058,-0.110102
1448,385034499,0.595841,-0.512843,-0.313324,0.532752,-0.175842,0.263896,-0.217572
1449,385067833,0.597139,-0.513932,-0.312454,0.530756,-0.261001,0.237109,-0.181218
1450,385101167,0.598611,-0.514552,-0.312642,0.528381,-0.263220,0.162207,-0.157442
1451,385134501,0.600320,-0.514619,-0.313775,0.525698,-0.203996,0.089239,0.053053
1452,385167835,0.602506,-0.513983,-0.315493,0.522784,-0.243903,0.067071,0.278066
1453,385201169,0.605641,-0.513141,-0.316544,0.519342,-0.271854,0.065660,0.307051
1454,385234503,0.610087,-0.513131,-0.315161,0.514971,-0.259288,0.137189,0.187161
1455,385267837,0.615720,-0.514639,-0.310500,0.509565,-0.084801,0.059077,0.158559
1456,385301171,0.621745,-0.516953,-0.303772,0.503930,0.123516,-0.012328,0.071956
1457,385334505,0.627467,-0.519177,-0.296666,0.498759,0.238183,0.011642,-0.120953
1458,385367839,0.632512,-0.521292,-0.289992,0.494083,0.279986,0.044038,-0.308613
1459,385401173,0.636778,-0.523435,-0.284125,0.489728,0.304519,0.075359,-0.319386
1460,385434507,0.640286,-0.525448,-0.279468,0.485661,0.380954,0.102399,-0.254966
1461,385467841,0.643033,-0.527294,-0.276280,0.481840,0.394826,0.078905,-0.149340
1462,385501175,0.645037,-0.529052,-0.274403,0.478293,0.343961,0.084969,-0.068979
1463,385534509,0.646392,-0.531121,-0.273084,0.474915,0.249708,0.078282,0.061746
1464,385567843,0.647141,-0.533688,-0.271672,0.471816,0.200013,-0.000152,0.066926
1465,385601177,0.647092,-0.536558,-0.270253,0.469438,0.081757,-0.134147,0.109625
1466,385634511,0.646263,-0.539433,-0.268980,0.468013,-0.164254,-0.104654,0.171171
1467,385667845,0.645252,-0.542408,-0.267314,0.466922,-0.343763,-0.083286,0.134089
1468,385701179,0.644722,-0.546023,-0.264549,0.465013,-0.636894,-0.100703,0.061543
1469,385734513,0.644242,-0.549311,-0.262082,0.463199,-0.638411,-0.271053,0.123900
1470,385767847,0.643449,-0.551683,-0.260838,0.462183,-0.728480,-0.350401,0.142794
1471,385801181,0.642351,-0.553151,-0.261147,0.461781,-0.811297,-0.006489,0.124671
1472,385834515,0.641185,-0.554661,-0.262436,0.460859,-0.633119,-0.482915,0.304749
1473,385867849,0.638840,-0.553813,-0.268264,0.461779,-0.464576,-0.904316,0.347982
1474,385901183,0.635092,-0.549162,-0.279613,0.465753,-0.584136,-0.950900,0.382326
1475,385934517,0.630688,-0.541981,-0.293128,0.471801,-0.542314,-0.729659,0.704247
1476,385967851,0.626912,-0.533760,-0.305167,0.478524,-0.554717,-0.543965,0.625636
1477,386001185,0.623600,-0.525453,-0.314400,0.486010,-0.419896,-0.509767,0.485903
1478,386034519,0.621523,-0.519232,-0.318538,0.492618,-0.350685,-0.361006,0.305691
1479,386067853,0.620844,-0.515218,-0.317900,0.498069,-0.065544,-0.069455,0.396161
1480,386101187,0.621342,-0.512134,-0.314618,0.502692,0.270404,-0.091653,0.440808
1481,386134521,0.621572,-0.508368,-0.311742,0.507994,0.473314,-0.119277,-0.188625
1482,386167855,0.620671,-0.504012,-0.310443,0.514194,0.589353,-0.045410,-0.575962
1483,386201189,0.618415,-0.499301,-0.311092,0.521070,0.766898,0.292739,-0.099368
