sep=,
DeviceTag:,2C_Leg
FirmwareVersion:,2.2.1
AppVersion:,2023.6.0
SyncStatus:,Synced
OutputRate:,30Hz
FilterProfile:,General
Measurement Mode:,Sensor fusion Mode - Complete(Quaternion)
StartTime: ,2026-05-27_15:29:23_391 AEST
© Movella Technologies B. V. 2005-2026

PacketCounter,SampleTimeFine,Quat_W,Quat_X,Quat_Y,Quat_Z,FreeAcc_X,FreeAcc_Y,FreeAcc_Z
1,336800201,-0.436173,0.553665,0.605111,-0.370209,0.125375,0.152766,-0.127007
2,336833535,-0.437027,0.554331,0.603793,-0.370356,0.250264,0.244381,-0.170612
3,336866869,-0.437969,0.555779,0.602100,-0.369830,0.106084,0.257160,-0.009904
4,336900203,-0.438938,0.557680,0.600160,-0.368970,0.065496,0.075096,0.033702
5,336933537,-0.439372,0.559530,0.598568,-0.368240,0.123710,0.057420,0.093935
6,336966871,-0.439307,0.561218,0.597388,-0.367664,0.154773,0.021411,0.184979
7,337000205,-0.438886,0.562449,0.596743,-0.367334,0.039738,0.116103,0.226664
8,337033539,-0.438369,0.563096,0.596561,-0.367254,-0.073997,0.220561,0.183105
9,337066873,-0.437881,0.563559,0.596546,-0.367151,-0.144466,0.293176,0.145686
10,337100207,-0.437363,0.563828,0.596523,-0.367392,-0.117607,0.323813,0.187853
11,337133541,-0.436903,0.563729,0.596503,-0.368122,-0.121993,0.421686,0.171088
12,337166875,-0.436630,0.563277,0.596878,-0.368531,-0.004835,0.519340,0.229835
13,337200209,-0.436686,0.562125,0.597862,-0.368629,0.111051,0.303882,0.076386
14,337233543,-0.436566,0.560081,0.599788,-0.368753,0.098977,0.327558,0.098774
15,337266877,-0.435750,0.557620,0.602815,-0.368511,-0.052217,0.200952,0.024843
16,337300211,-0.434602,0.555773,0.607126,-0.365570,0.704292,0.389798,0.543775
17,337333545,-0.432753,0.554030,0.611491,-0.363125,-0.735842,0.851281,-0.285571
18,337366879,-0.429175,0.550727,0.616561,-0.363823,0.175626,0.528889,-0.647994
19,337400213,-0.426718,0.550404,0.618665,-0.363628,-0.078948,-0.703443,-0.361162
20,337433547,-0.425123,0.553166,0.618076,-0.362306,0.279024,-0.383725,0.044243
21,337466881,-0.422015,0.556556,0.617580,-0.361592,-0.185787,-0.278021,-0.002296
22,337500215,-0.416660,0.559076,0.618224,-0.362814,-0.088694,-0.509702,-0.111423
23,337533549,-0.410448,0.561389,0.619350,-0.364398,1.166879,-0.843844,-0.084264
24,337566883,-0.405363,0.565871,0.617849,-0.365704,0.940385,0.038188,-0.004725
25,337600217,-0.400881,0.571548,0.615058,-0.366519,0.149624,0.496964,0.425467
26,337633551,-0.395043,0.574483,0.615284,-0.367888,0.379337,1.606744,0.345206
27,337666885,-0.388225,0.575103,0.618432,-0.368898,0.653268,1.381713,0.709572
28,337700219,-0.380996,0.575568,0.621476,-0.370589,-1.055569,-0.372896,1.228095
29,337733553,-0.375017,0.577576,0.621387,-0.373699,-0.698262,-0.749975,0.515355
30,337766887,-0.369401,0.579897,0.620100,-0.377814,0.252229,0.626213,-0.148479
31,337800221,-0.362562,0.582451,0.619818,-0.380960,0.589323,0.754792,0.087569
32,337833555,-0.352516,0.583030,0.623153,-0.384050,0.619281,-0.419040,0.279864
33,337866889,-0.341162,0.581487,0.627773,-0.389087,0.065249,-0.348985,-0.227073
34,337900223,-0.330777,0.581427,0.630804,-0.393219,-0.222597,-0.186387,-0.175576
35,337933557,-0.320416,0.582582,0.632926,-0.396663,0.100333,-0.046198,-0.033119
36,337966891,-0.308688,0.582453,0.636392,-0.400588,0.027957,-0.179157,-0.036602
37,338000225,-0.296029,0.579046,0.641836,-0.406356,-0.309497,-0.727540,0.067210
38,338033559,-0.284898,0.573951,0.647446,-0.412592,0.322175,-0.282757,0.283254
39,338066893,-0.274453,0.569403,0.652360,-0.418195,0.039941,0.301095,-0.209251
40,338100227,-0.265307,0.566297,0.656259,-0.422196,-0.202144,-0.110642,-0.054427
41,338133561,-0.256432,0.562667,0.659998,-0.426680,-0.517304,-0.481859,0.046502
42,338166895,-0.247846,0.557902,0.663725,-0.432195,-0.597152,-0.754512,0.102596
43,338200229,-0.239977,0.552143,0.667419,-0.438298,-0.670012,-0.444832,0.337675
44,338233563,-0.232441,0.546831,0.670969,-0.443569,-0.598300,-0.315698,0.187758
45,338266897,-0.225885,0.542249,0.673991,-0.447977,-0.594708,-0.327308,0.195072
46,338300231,-0.220213,0.537680,0.676898,-0.451907,-0.468004,-0.186169,0.295303
47,338333565,-0.215433,0.533253,0.679583,-0.455414,-0.260045,-0.048896,0.111092
48,338366899,-0.211665,0.529823,0.681658,-0.458077,-0.059099,0.014629,0.130828
49,338400233,-0.209195,0.526710,0.683434,-0.460149,-0.236366,0.570883,0.163788
50,338433567,-0.207621,0.524037,0.684972,-0.461625,-0.401607,0.365547,0.168246
51,338466901,-0.207197,0.522987,0.685259,-0.462579,-0.325452,0.028088,0.150747
52,338500235,-0.208406,0.524280,0.683724,-0.462844,-0.018634,-0.346006,0.016250
53,338533569,-0.210498,0.526120,0.681783,-0.462672,0.249026,-0.569209,0.215632
54,338566903,-0.212915,0.527265,0.680153,-0.462662,0.223278,-0.396091,0.124647
55,338600237,-0.215852,0.528240,0.678672,-0.462363,0.374372,-0.249208,0.032246
56,338633571,-0.219358,0.529960,0.676850,-0.461415,0.350436,-0.061488,0.019730
57,338666905,-0.222995,0.532190,0.674942,-0.459897,0.413869,-0.203059,0.044512
58,338700239,-0.226871,0.534143,0.673216,-0.458265,0.428730,-0.292111,-0.046987
59,338733573,-0.230520,0.536079,0.671811,-0.456239,0.331481,-1.058085,0.098445
60,338766907,-0.233498,0.536842,0.671339,-0.454520,0.226003,-0.892614,0.100242
61,338800241,-0.236115,0.536664,0.671658,-0.452905,0.139048,-0.313918,0.069098
62,338833575,-0.239214,0.536548,0.672008,-0.450891,-0.113098,-0.311541,0.126437
63,338866909,-0.243219,0.536355,0.671834,-0.449236,-0.545752,-0.052025,0.184789
64,338900243,-0.248417,0.536738,0.670749,-0.447551,-0.388881,0.083276,0.069546
65,338933577,-0.254561,0.537954,0.668874,-0.445441,-0.117272,0.024974,-0.005822
66,338966911,-0.260901,0.539528,0.666662,-0.443179,0.097745,-0.169517,0.104286
67,339000245,-0.267332,0.540795,0.664429,-0.441150,0.225429,-0.196455,0.025038
68,339033579,-0.273586,0.541941,0.662313,-0.439087,0.414231,0.105371,-0.025850
69,339066913,-0.279572,0.543410,0.660139,-0.436769,0.470764,0.264556,-0.066703
70,339100247,-0.285176,0.545417,0.657813,-0.434146,0.318517,0.139301,-0.017790
71,339133581,-0.290020,0.547540,0.655620,-0.431575,0.038577,0.102945,0.051333
72,339166915,-0.294018,0.549326,0.653922,-0.429168,-0.092337,0.164584,0.072017
73,339200249,-0.297114,0.550536,0.652918,-0.427010,-0.116692,0.189698,0.052910
74,339233583,-0.299432,0.551239,0.652498,-0.425120,-0.152248,0.490318,0.166355
75,339266917,-0.301143,0.551842,0.652498,-0.423125,-0.222363,0.472091,0.156139
76,339300251,-0.302431,0.551864,0.652919,-0.421525,-0.384722,0.367820,0.191988
77,339333585,-0.303216,0.551419,0.653670,-0.420379,-0.477044,0.290995,0.202771
78,339366919,-0.303638,0.551003,0.654455,-0.419397,-0.627085,0.281238,0.218349
79,339400253,-0.304201,0.550922,0.654946,-0.418327,-0.860214,0.350415,0.286016
80,339433587,-0.305214,0.551611,0.654680,-0.417096,-0.957291,0.529666,0.199860
81,339466921,-0.306261,0.553082,0.653814,-0.415738,-0.807722,0.307925,0.244788
82,339500255,-0.307314,0.554516,0.652749,-0.414721,-0.585043,0.365152,0.199100
83,339533589,-0.308217,0.555820,0.651978,-0.413517,-0.227415,0.306348,0.157007
84,339566923,-0.308640,0.556709,0.651716,-0.412418,-0.073339,0.032182,0.118419
85,339600257,-0.308478,0.557045,0.651816,-0.411926,-0.116931,-0.137178,0.151899
86,339633591,-0.307916,0.557251,0.652017,-0.411750,0.031334,0.258836,0.051141
87,339666925,-0.307395,0.557312,0.652477,-0.411328,-0.001764,0.386021,0.124055
88,339700259,-0.306717,0.556505,0.653496,-0.411309,-0.190666,0.232911,0.246562
89,339733593,-0.306250,0.555676,0.654262,-0.411561,-0.349110,0.146725,0.061814
90,339766927,-0.306188,0.554946,0.654839,-0.411674,-0.306590,0.102146,0.163520
91,339800261,-0.305934,0.553959,0.655578,-0.412015,0.209786,-0.035608,0.149424
92,339833595,-0.304823,0.553061,0.656572,-0.412462,0.658507,-0.530599,0.112592
93,339866929,-0.303271,0.551171,0.658196,-0.413546,0.508332,-0.374497,-0.043880
94,339900263,-0.301453,0.549169,0.660098,-0.414507,0.439921,-0.029676,-0.036201
95,339933597,-0.299819,0.547854,0.661656,-0.414947,0.244361,0.048107,0.136117
96,339966931,-0.298832,0.546900,0.662599,-0.415412,0.066283,0.055349,0.027182
97,340000265,-0.298577,0.546565,0.662936,-0.415498,0.053860,0.131444,0.066155
98,340033599,-0.299013,0.546703,0.662837,-0.415163,0.176624,0.045217,0.118238
99,340066933,-0.299922,0.546937,0.662531,-0.414686,0.135136,-0.061405,0.105160
100,340100267,-0.301164,0.547324,0.661941,-0.414217,0.016382,-0.069656,0.131942
101,340133601,-0.302778,0.547865,0.661031,-0.413778,0.150664,0.075872,0.047278
102,340166935,-0.304739,0.548735,0.659887,-0.413012,0.336061,0.010926,0.147612
103,340200269,-0.306833,0.549745,0.658656,-0.412082,0.451813,-0.149092,-0.009312
104,340233603,-0.308885,0.550787,0.657455,-0.411074,0.279678,-0.269046,0.083034
105,340266937,-0.310743,0.551554,0.656419,-0.410300,0.290975,-0.094568,0.033836
106,340300271,-0.312374,0.552229,0.655504,-0.409615,0.307186,-0.067935,0.067399
107,340333605,-0.314179,0.552908,0.654484,-0.408951,0.266391,0.029583,0.096359
108,340366939,-0.316377,0.553791,0.653206,-0.408103,0.257697,0.132630,0.156386
109,340400273,-0.319139,0.555234,0.651386,-0.406899,0.214435,0.163641,0.166018
110,340433607,-0.322167,0.557054,0.649119,-0.405646,0.102924,0.132762,0.049685
111,340466941,-0.325281,0.559066,0.646721,-0.404222,0.172001,0.169839,-0.023482
112,340500275,-0.328339,0.561011,0.644377,-0.402794,0.026906,-0.019096,0.004084
113,340533609,-0.330967,0.561914,0.642658,-0.402132,-0.347087,-0.194635,0.350634
114,340566943,-0.332930,0.561652,0.641717,-0.402379,0.006890,0.340177,0.387207
115,340600277,-0.334540,0.561926,0.640670,-0.402331,0.056665,0.223800,0.167152
116,340633611,-0.336516,0.562224,0.639497,-0.402132,0.109784,-0.033467,0.001891
117,340666945,-0.338555,0.562173,0.638373,-0.402278,0.277615,-0.038598,0.037303
118,340700279,-0.340115,0.562182,0.637327,-0.402608,0.399291,-0.031656,0.194473
119,340733613,-0.341600,0.562081,0.636197,-0.403277,0.543992,-0.015401,0.041157
120,340766947,-0.343567,0.562523,0.634464,-0.403720,0.649063,0.288566,-0.132400
121,340800281,-0.346054,0.564377,0.631956,-0.402943,0.608736,0.552220,-0.083722
122,340833615,-0.348278,0.566055,0.629975,-0.401771,0.348878,0.012938,0.138869
123,340866949,-0.350029,0.566655,0.628724,-0.401364,0.170206,-0.517036,0.205622
124,340900283,-0.350676,0.566980,0.627993,-0.401484,0.071414,-0.175211,0.081025
125,340933617,-0.349405,0.567035,0.628391,-0.401892,0.105405,-0.277007,-0.014384
126,340966951,-0.347318,0.567536,0.630058,-0.400381,0.892598,-0.152551,0.534772
127,341000285,-0.346553,0.568710,0.631270,-0.397459,-0.403185,0.250038,0.213361
128,341033619,-0.344998,0.569800,0.632748,-0.394893,-0.724100,0.121532,0.287368
129,341066953,-0.343781,0.567740,0.634843,-0.395558,-0.622792,0.088745,0.312814
130,341100287,-0.344399,0.565532,0.635880,-0.396516,-1.152880,0.627409,-0.199720
131,341133621,-0.345576,0.563775,0.636281,-0.397349,-0.187220,0.034640,0.058268
132,341166955,-0.345235,0.561875,0.637151,-0.398938,-0.341587,-0.143494,0.097938
133,341200289,-0.344393,0.558841,0.638752,-0.401361,-0.468221,0.056642,0.414398
134,341233623,-0.344278,0.554729,0.640386,-0.404548,-0.726397,0.264278,0.407189
135,341266957,-0.344827,0.550622,0.641448,-0.407994,-0.967869,0.335478,0.545663
136,341300291,-0.346148,0.548129,0.641288,-0.410478,-0.442175,0.349050,0.121873
137,341333625,-0.347807,0.547936,0.639943,-0.411431,0.087666,-0.229129,-0.347066
138,341366959,-0.348626,0.548171,0.639137,-0.411675,0.388026,-0.432875,-0.265471
139,341400293,-0.347908,0.547312,0.639730,-0.412505,0.185287,-0.364495,0.001446
140,341433627,-0.346076,0.545434,0.641527,-0.413741,-0.019818,-0.159859,0.006190
141,341466961,-0.343948,0.543095,0.643802,-0.415056,-0.400205,0.096625,0.134638
142,341500295,-0.342648,0.541903,0.645121,-0.415641,-0.388155,-0.033686,0.044558
143,341533629,-0.342005,0.541331,0.645720,-0.415986,-0.205347,-0.068790,0.074326
144,341566963,-0.341665,0.540679,0.646205,-0.416360,-0.209450,0.118109,0.028903
145,341600297,-0.341676,0.540062,0.646738,-0.416325,-0.111163,0.071375,0.118120
146,341633631,-0.341761,0.539282,0.647266,-0.416444,-0.318681,-0.032102,0.189118
147,341666965,-0.342394,0.538677,0.647419,-0.416470,-0.464277,0.222365,-0.047260
148,341700299,-0.343816,0.538366,0.647138,-0.416137,-0.437284,0.252490,0.106751
149,341733633,-0.345975,0.538222,0.646509,-0.415511,-0.540972,0.233398,0.067530
150,341766967,-0.348335,0.538169,0.645666,-0.414919,-0.198968,0.460860,0.015505
151,341800301,-0.351555,0.539089,0.644097,-0.413445,-0.335217,0.648417,0.065767
152,341833635,-0.355656,0.542163,0.641531,-0.409893,0.293165,-0.881777,0.121531
153,341866969,-0.358711,0.544636,0.639458,-0.407183,0.428893,-0.543727,0.067885
154,341900303,-0.361932,0.546975,0.637476,-0.404294,0.430967,0.048230,-0.053686
155,341933637,-0.366242,0.549989,0.635381,-0.399593,0.273620,-1.047969,0.005093
156,341966971,-0.369210,0.552271,0.634346,-0.395337,0.409951,-1.892883,0.415527
157,342000305,-0.370784,0.552980,0.634112,-0.393242,-0.156137,-0.708571,0.117823
158,342033639,-0.373720,0.554387,0.632855,-0.390498,-0.122449,-0.255722,0.285925
159,342066973,-0.377448,0.556432,0.631009,-0.386975,0.062913,0.582670,0.325841
160,342100307,-0.382378,0.557698,0.629284,-0.383102,-0.126261,0.328098,0.540433
161,342133641,-0.388729,0.559486,0.626772,-0.378189,0.497167,0.299826,0.364315
162,342166975,-0.396066,0.562960,0.622816,-0.371905,0.532141,-0.555162,0.345794
163,342200309,-0.402643,0.566006,0.618970,-0.366602,0.557848,-0.546508,0.000914
164,342233643,-0.408879,0.568809,0.615047,-0.361936,0.490530,-0.228926,-0.036195
165,342266977,-0.414760,0.570621,0.611475,-0.358427,0.485711,-0.061542,0.173793
166,342300311,-0.419150,0.570210,0.609438,-0.357442,0.613474,-0.042537,0.241079
167,342333645,-0.423024,0.569194,0.607856,-0.357192,0.738259,-0.154365,-0.062279
168,342366979,-0.426305,0.569178,0.606027,-0.356424,0.492986,-0.035232,0.055538
169,342400313,-0.430036,0.571156,0.602847,-0.354163,0.295243,0.500155,-0.148908
170,342433647,-0.433301,0.575081,0.598691,-0.350866,-0.131136,-0.221332,-0.177298
171,342466981,-0.435710,0.579447,0.594762,-0.347363,-0.573925,-0.237067,0.071022
172,342500315,-0.437701,0.584632,0.589963,-0.344344,-1.239792,0.191095,0.001306
173,342533649,-0.438336,0.590149,0.585005,-0.342579,-1.398570,0.120841,0.163799
174,342566983,-0.437874,0.593978,0.581267,-0.342916,-1.223611,-0.043026,0.113129
175,342600317,-0.437413,0.596726,0.578526,-0.343367,-0.379448,-0.063745,0.397120
176,342633651,-0.436606,0.599689,0.574967,-0.345206,0.095360,0.262361,0.347589
177,342666985,-0.435475,0.603912,0.570440,-0.346777,0.287574,0.951955,0.442662
178,342700319,-0.435558,0.608825,0.565351,-0.346418,-0.169744,0.751839,-0.067542
179,342733653,-0.435892,0.610857,0.562803,-0.346569,0.037476,0.152880,0.033414
180,342766987,-0.437456,0.608480,0.563674,-0.347364,0.206017,1.440006,0.107004
181,342800321,-0.438688,0.603735,0.567891,-0.347219,0.586463,1.506831,0.313489
182,342833655,-0.439692,0.597833,0.573999,-0.346118,0.363039,0.636950,0.386422
183,342866989,-0.438560,0.590402,0.581783,-0.347311,-0.099763,-0.129482,-0.201712
184,342900323,-0.436809,0.584687,0.589054,-0.346928,-0.212403,-1.160989,-0.286923
185,342933657,-0.434583,0.579259,0.595794,-0.347320,-0.088886,-0.734302,-0.037131
186,342966991,-0.430708,0.572878,0.603418,-0.349562,-0.104379,-0.145522,0.083779
187,343000325,-0.427227,0.567469,0.609699,-0.351750,0.297937,0.635499,0.100564
188,343033659,-0.424777,0.564693,0.613366,-0.352808,-0.122421,0.420759,0.172111
189,343066993,-0.422006,0.562995,0.616146,-0.354000,0.270910,-0.175685,-0.137079
190,343100327,-0.419576,0.562092,0.618101,-0.354914,0.349602,-0.227885,-0.069284
191,343133661,-0.417277,0.561897,0.619163,-0.356081,0.409744,-0.273374,-0.165660
192,343166995,-0.414314,0.561359,0.620895,-0.357371,0.421864,-0.253930,0.027827
193,343200329,-0.411139,0.560509,0.622930,-0.358830,0.660411,0.006145,0.167949
194,343233663,-0.408250,0.560904,0.623880,-0.359857,0.332490,0.523750,0.041574
195,343266997,-0.405951,0.563722,0.623109,-0.359391,0.225521,0.055034,0.003023
196,343300331,-0.403765,0.568001,0.621376,-0.358114,0.666532,0.010601,0.098603
197,343333665,-0.401160,0.572393,0.619792,-0.356792,0.692550,-0.302337,0.080591
198,343366999,-0.396415,0.575390,0.620307,-0.356379,0.483750,-0.249500,-0.063599
199,343400333,-0.390230,0.577530,0.622186,-0.356468,0.458010,-0.068149,-0.280457
200,343433667,-0.383322,0.580610,0.623681,-0.356348,0.488468,0.106330,0.144646
201,343467001,-0.375536,0.584194,0.624666,-0.357053,0.409712,-0.066242,-0.070751
202,343500335,-0.367459,0.586493,0.626323,-0.358783,-0.450450,0.282649,0.295348
203,343533669,-0.360527,0.586081,0.628887,-0.361990,-1.016459,0.716957,0.721248
204,343567003,-0.353784,0.584814,0.632040,-0.365186,-1.174645,0.644193,0.916425
205,343600337,-0.347791,0.583244,0.634824,-0.368608,-1.314660,0.555531,0.461721
206,343633671,-0.343148,0.581985,0.636757,-0.371602,-0.926064,0.313977,0.253172
207,343667005,-0.338910,0.581737,0.637872,-0.373961,-0.222829,-0.071236,0.022291
208,343700339,-0.334354,0.581782,0.638968,-0.376115,0.016727,-0.595818,-0.021426
209,343733673,-0.328390,0.580449,0.641425,-0.379235,-0.015029,-0.819613,0.043487
210,343767007,-0.320674,0.577342,0.645625,-0.383429,0.100834,-0.458338,0.112966
211,343800341,-0.312626,0.573996,0.650027,-0.387639,-0.057435,0.247465,0.043863
212,343833675,-0.305464,0.571180,0.653883,-0.391007,-0.298268,0.283774,0.130318
213,343867009,-0.299730,0.568775,0.656676,-0.394258,-0.896057,0.124634,0.237931
214,343900343,-0.295471,0.566724,0.658402,-0.397534,-1.037350,0.153020,0.253823
215,343933677,-0.292711,0.565357,0.659023,-0.400482,-0.871235,0.287199,0.188866
216,343967011,-0.291348,0.564578,0.658937,-0.402710,-0.087237,0.127500,0.033444
217,344000345,-0.289928,0.564464,0.658726,-0.404237,0.433284,-0.365980,-0.055553
218,344033679,-0.288393,0.564033,0.658902,-0.405647,0.487923,-0.709711,-0.011888
219,344067013,-0.286012,0.562647,0.659884,-0.407656,0.501324,-0.506113,0.000554
220,344100347,-0.283123,0.561528,0.661043,-0.409335,0.621544,-0.256745,0.009126
221,344133681,-0.280355,0.560674,0.662134,-0.410645,0.285957,-0.316719,0.053713
222,344167015,-0.278019,0.559362,0.663266,-0.412193,-0.133374,-0.176475,0.163384
223,344200349,-0.276325,0.558030,0.664126,-0.413750,-0.154240,0.132349,0.151112
224,344233683,-0.275636,0.557126,0.664492,-0.414839,0.030505,0.135822,0.079762
225,344267017,-0.275586,0.556580,0.664595,-0.415440,0.150884,-0.221990,0.094796
226,344300351,-0.275679,0.556062,0.664653,-0.415978,0.222513,-0.242113,0.062674
227,344333685,-0.275905,0.555480,0.664808,-0.416358,0.273955,-0.116651,0.064667
228,344367019,-0.276229,0.554935,0.664975,-0.416604,0.194265,-0.085205,0.109035
229,344400353,-0.276849,0.554668,0.664981,-0.416538,0.276987,-0.100318,-0.000351
230,344433687,-0.277470,0.554661,0.664960,-0.416167,0.430796,-0.292749,0.055385
231,344467021,-0.277745,0.554584,0.665137,-0.415804,0.473319,-0.365899,0.032365
232,344500355,-0.277713,0.554326,0.665542,-0.415520,0.413912,-0.259375,0.005439
233,344533689,-0.277344,0.553610,0.666369,-0.415396,0.335218,-0.239105,0.064638
234,344567023,-0.276528,0.552039,0.667775,-0.415773,0.275486,-0.117032,0.100945
235,344600357,-0.275801,0.550366,0.669182,-0.416211,0.065708,-0.037188,0.041001
236,344633691,-0.275517,0.549162,0.670197,-0.416355,-0.014487,0.037406,0.061283
237,344667025,-0.275879,0.547612,0.670998,-0.416868,0.349738,-0.154829,0.475205
238,344700359,-0.276673,0.546620,0.671740,-0.416449,-0.400193,0.544501,0.150602
239,344733693,-0.278480,0.546772,0.671737,-0.415047,-0.426581,0.282803,0.060735
240,344767027,-0.281010,0.546817,0.671175,-0.414190,-0.389142,0.170441,0.170758
241,344800361,-0.283686,0.546946,0.670235,-0.413717,-0.185161,0.237709,-0.039766
242,344833695,-0.285739,0.546993,0.669443,-0.413525,0.035591,-0.081675,0.004016
243,344867029,-0.286972,0.546252,0.669318,-0.413854,0.202355,-0.124109,0.048394
244,344900363,-0.287213,0.544814,0.669940,-0.414573,0.429874,-0.058967,0.028830
245,344933697,-0.286767,0.543141,0.671143,-0.415132,0.368347,-0.083110,-0.035394
246,344967031,-0.285902,0.541258,0.672828,-0.415461,0.138588,0.063456,0.089942
247,345000365,-0.284774,0.539158,0.674647,-0.416016,-0.195822,0.191702,0.178552
248,345033699,-0.284425,0.537085,0.676042,-0.416670,-0.473941,0.376408,0.210846
249,345067033,-0.285221,0.535651,0.676545,-0.417156,-0.659199,0.322532,0.218834
250,345100367,-0.286842,0.534915,0.676228,-0.417503,-0.494866,0.126633,0.123448
251,345133701,-0.288834,0.534269,0.675607,-0.417962,-0.313644,0.025319,0.135663
252,345167035,-0.290617,0.533395,0.675212,-0.418480,-0.090626,-0.058322,0.111361
253,345200369,-0.292478,0.533127,0.675240,-0.417478,0.537277,0.113343,0.373075
254,345233703,-0.296267,0.534780,0.674178,-0.414399,0.210631,0.252279,0.364949
255,345267037,-0.301509,0.537073,0.672095,-0.411021,-1.165831,0.121773,0.494139
256,345300371,-0.308511,0.536222,0.669198,-0.411663,-0.852788,0.547461,0.082434
257,345333705,-0.314783,0.534722,0.666486,-0.413262,-0.775853,-0.043746,-0.155984
258,345367039,-0.319184,0.533904,0.663849,-0.415183,-0.324676,-0.160373,0.126782
259,345400373,-0.321971,0.532616,0.662003,-0.417626,-0.246358,0.252700,0.074772
260,345433707,-0.324065,0.531037,0.660968,-0.419652,-0.251908,0.268888,-0.169662
261,345467041,-0.325739,0.529741,0.660454,-0.420802,0.013230,0.015263,-0.007491
262,345500375,-0.326917,0.528917,0.660031,-0.421588,0.309356,-0.030323,-0.030166
263,345533709,-0.327947,0.528497,0.659489,-0.422162,0.390631,-0.030136,0.158674
264,345567043,-0.328461,0.528370,0.659123,-0.422492,0.401432,0.050564,0.090005
265,345600377,-0.329041,0.528805,0.658511,-0.422452,0.297407,0.037104,0.033700
266,345633711,-0.329704,0.529641,0.657679,-0.422183,0.199604,-0.017105,0.034321
267,345667045,-0.330130,0.530560,0.656925,-0.421872,0.129320,-0.014319,0.108150
268,345700379,-0.330352,0.531580,0.656284,-0.421411,0.000363,0.051215,0.043635
269,345733713,-0.330517,0.532539,0.655751,-0.420900,-0.154585,0.016239,0.105992
270,345767047,-0.330681,0.533376,0.655305,-0.420406,-0.224023,0.039474,0.165513
271,345800381,-0.330803,0.534201,0.654906,-0.419883,-0.246371,0.062031,0.092078
272,345833715,-0.330989,0.534983,0.654516,-0.419349,-0.220705,-0.002620,0.133102
273,345867049,-0.331072,0.535435,0.654296,-0.419051,-0.257226,-0.050233,0.136821
274,345900383,-0.331047,0.535563,0.654248,-0.418982,-0.210036,0.013658,0.116155
275,345933717,-0.330911,0.535464,0.654332,-0.419084,-0.242914,0.083354,0.134107
276,345967051,-0.330951,0.535501,0.654316,-0.419029,-0.225738,0.082824,0.106965
277,346000385,-0.331558,0.536308,0.653754,-0.418396,-0.050182,0.111181,0.095804
278,346033719,-0.331891,0.537427,0.653229,-0.417513,0.071482,-0.034895,0.093887
279,346067053,-0.331830,0.538141,0.653042,-0.416935,0.082524,-0.056523,0.100883
280,346100387,-0.331596,0.538662,0.653047,-0.416439,0.292167,-0.100455,0.029602
281,346133721,-0.330860,0.539249,0.653299,-0.415870,0.214061,-0.132460,0.045847
282,346167055,-0.329766,0.539722,0.653834,-0.415284,-0.057808,-0.010993,0.087850
283,346200389,-0.328571,0.540139,0.654537,-0.414581,-0.105252,0.062609,0.081514
284,346233723,-0.327291,0.541085,0.655173,-0.413352,0.002283,0.020500,0.088974
285,346267057,-0.325771,0.542292,0.655873,-0.411860,0.138509,0.048149,0.110007
286,346300391,-0.324313,0.543874,0.656447,-0.410006,0.102246,-0.026622,0.042583
287,346333725,-0.322733,0.545835,0.656865,-0.407972,-0.143652,-0.111676,0.146147
288,346367059,-0.320791,0.547656,0.657362,-0.406259,-0.326101,-0.052259,0.139764
289,346400393,-0.319333,0.549176,0.657737,-0.404746,-0.206391,0.114877,0.078716
290,346433727,-0.318469,0.550812,0.657850,-0.403016,-0.158138,0.006849,0.090686
291,346467061,-0.317001,0.552230,0.658252,-0.401575,-0.280966,-0.086193,0.124353
292,346500395,-0.315471,0.553015,0.658929,-0.400588,-0.181457,0.007660,0.111964
293,346533729,-0.314295,0.553709,0.659540,-0.399545,-0.309593,0.019756,0.122047
294,346567063,-0.312570,0.553949,0.660394,-0.399156,-0.592405,-0.204374,0.221232
295,346600397,-0.310911,0.553234,0.661452,-0.399691,-0.560827,0.253184,0.143440
296,346633731,-0.310482,0.552549,0.662065,-0.399958,-0.258750,0.408312,0.301489
297,346667065,-0.311188,0.551993,0.662196,-0.399959,-0.102317,0.303226,0.154407
298,346700399,-0.311922,0.551620,0.662128,-0.400015,-0.173296,-0.005040,0.146070
299,346733733,-0.313013,0.550767,0.662049,-0.400469,-0.270843,0.078027,0.138512
300,346767067,-0.314404,0.549244,0.662229,-0.401174,0.284256,0.068584,-0.087235
301,346800401,-0.316318,0.549033,0.661777,-0.400702,0.688978,0.088569,-0.113726
302,346833735,-0.317690,0.549453,0.661459,-0.399564,0.656294,-0.268575,-0.004705
303,346867069,-0.318410,0.549601,0.661616,-0.398526,0.400624,-0.405046,0.310173
304,346900403,-0.318031,0.548932,0.662463,-0.398344,0.202882,-0.366789,0.203109
305,346933737,-0.317445,0.547953,0.663460,-0.398500,-0.034115,0.027662,0.144648
306,346967071,-0.317617,0.546863,0.664211,-0.398608,-0.422866,0.369169,0.270359
307,347000405,-0.319104,0.546191,0.664290,-0.398211,-0.424148,0.547309,0.175161
308,347033739,-0.321065,0.545932,0.664049,-0.397392,-0.247338,0.329977,0.214528
309,347067073,-0.322884,0.545222,0.663995,-0.396982,0.040564,0.147311,0.152595
310,347100407,-0.324681,0.544650,0.663957,-0.396365,0.412869,-0.183804,-0.019947
311,347133741,-0.325809,0.544513,0.664076,-0.395426,0.577987,-0.429948,-0.111435
312,347167075,-0.325484,0.544572,0.664698,-0.394568,0.708916,-0.592093,-0.232972
313,347200409,-0.324483,0.544888,0.665473,-0.393649,0.607535,-0.404027,0.080305
314,347233743,-0.323309,0.545003,0.666404,-0.392879,0.267094,-0.070540,0.316922
315,347267077,-0.321878,0.544952,0.667465,-0.392322,-0.075468,0.301098,0.206791
316,347300411,-0.320906,0.544951,0.668201,-0.391868,-0.254003,0.390565,0.195855
317,347333745,-0.320935,0.545467,0.668176,-0.391168,-0.180506,0.395625,0.317232
318,347367079,-0.321852,0.546114,0.667622,-0.390458,-0.252091,0.386024,0.221034
319,347400413,-0.323148,0.546556,0.666927,-0.389956,-0.225061,0.254468,0.198382
320,347433747,-0.324690,0.547164,0.665998,-0.389410,0.015745,0.096737,0.181209
321,347467081,-0.326249,0.547596,0.665109,-0.389018,0.049653,-0.137556,-0.045749
322,347500415,-0.327488,0.547400,0.664654,-0.389031,0.116274,-0.107445,-0.196925
323,347533749,-0.328399,0.547298,0.664272,-0.389061,0.458866,-0.147945,-0.324724
324,347567083,-0.328999,0.547708,0.663773,-0.388828,0.686344,-0.283621,-0.196984
325,347600417,-0.328640,0.548292,0.663639,-0.388536,0.655229,-0.260842,-0.130832
326,347633751,-0.327617,0.549126,0.663691,-0.388133,0.517809,-0.232559,0.295274
327,347667085,-0.326351,0.549740,0.663911,-0.387955,0.403088,-0.172606,0.340746
328,347700419,-0.325070,0.550267,0.664070,-0.388011,0.158284,-0.076644,0.278713
329,347733753,-0.323916,0.551090,0.663927,-0.388053,0.018498,0.046527,0.309805
330,347767087,-0.323244,0.552066,0.663409,-0.388113,0.006694,0.141511,0.175243
331,347800421,-0.323297,0.552957,0.662624,-0.388141,-0.069945,0.198716,0.045142
332,347833755,-0.323647,0.553893,0.661721,-0.388055,-0.100193,0.071335,0.056443
333,347867089,-0.324038,0.554878,0.660698,-0.388064,0.055959,-0.010712,0.073607
334,347900423,-0.324468,0.555840,0.659664,-0.388085,0.169384,0.001104,0.208486
335,347933757,-0.324565,0.556475,0.658919,-0.388361,0.295608,-0.094093,0.141858
336,347967091,-0.324573,0.557395,0.658089,-0.388442,0.321550,-0.121273,0.129128
337,348000425,-0.324281,0.558344,0.657391,-0.388504,0.295470,-0.053657,0.084586
338,348033759,-0.323994,0.559354,0.656663,-0.388523,0.250124,-0.073878,-0.030385
339,348067093,-0.323928,0.560574,0.655738,-0.388382,0.141083,0.027792,-0.050778
340,348100427,-0.323905,0.561852,0.654728,-0.388258,0.115580,0.049577,0.111675
341,348133761,-0.323927,0.563169,0.653663,-0.388126,0.176201,0.011749,0.178878
342,348167095,-0.323877,0.564743,0.652494,-0.387848,0.170031,-0.094532,0.166556
343,348200429,-0.323487,0.566108,0.651524,-0.387814,0.150313,-0.138129,0.085161
344,348233763,-0.322871,0.567041,0.650818,-0.388150,0.156913,0.004226,0.039760
345,348267097,-0.322199,0.567970,0.650217,-0.388357,0.122441,-0.018162,0.035995
346,348300431,-0.321063,0.568921,0.649862,-0.388500,0.162119,-0.183705,0.123118
347,348333765,-0.320120,0.569942,0.649256,-0.388794,-0.007861,0.015620,-0.036007
348,348367099,-0.319352,0.570902,0.648810,-0.388762,-0.067333,0.078096,0.139416
349,348400433,-0.319473,0.571573,0.648310,-0.388511,-0.450031,0.335861,0.285765
350,348433767,-0.320660,0.571808,0.647696,-0.388211,-1.018053,0.476146,0.208649
351,348467101,-0.322978,0.571581,0.646827,-0.388072,-0.996615,0.469251,0.277440
352,348500435,-0.325935,0.571031,0.645701,-0.388286,-0.658692,0.274879,0.257179
353,348533769,-0.328786,0.570433,0.644592,-0.388604,0.068125,-0.053979,0.202588
354,348567103,-0.330442,0.569867,0.643856,-0.389248,0.208320,-0.532920,-0.095716
355,348600437,-0.331145,0.568724,0.643956,-0.390155,0.351952,-0.572769,0.004449
356,348633771,-0.330950,0.567015,0.644760,-0.391478,0.378002,-0.276099,0.046300
357,348667105,-0.330126,0.565774,0.645645,-0.392510,0.357876,-0.025753,-0.026472
358,348700439,-0.328982,0.565529,0.646198,-0.392913,0.359742,-0.024867,0.042821
359,348733773,-0.327539,0.565757,0.646649,-0.393049,0.293057,-0.080631,0.092632
360,348767107,-0.325913,0.565914,0.647163,-0.393329,-0.077614,0.032886,0.088869
361,348800441,-0.324471,0.565499,0.647862,-0.393966,-0.553648,0.282760,0.178405
362,348833775,-0.323907,0.564662,0.648451,-0.394662,-0.691992,0.387027,0.302671
363,348867109,-0.324625,0.563867,0.648376,-0.395331,-0.797880,0.409321,0.196145
364,348900443,-0.326335,0.563228,0.647683,-0.395969,-0.591598,0.324917,0.191545
365,348933777,-0.328654,0.562449,0.646811,-0.396584,-0.285101,0.072277,0.178505
366,348967111,-0.330939,0.561008,0.646348,-0.397479,-0.027468,-0.079959,0.067025
367,349000445,-0.332321,0.559021,0.646588,-0.398732,-0.004382,-0.176871,0.024727
368,349033779,-0.332916,0.556423,0.647586,-0.400247,0.036185,-0.165285,0.159040
369,349067113,-0.333053,0.553318,0.649012,-0.402125,-0.007837,-0.050837,0.097452
370,349100447,-0.333131,0.549944,0.650671,-0.404003,0.039857,-0.050289,0.137067
371,349133781,-0.333671,0.546171,0.652221,-0.406170,-0.182155,-0.133640,0.186070
372,349167115,-0.334324,0.541395,0.653926,-0.409275,-0.276121,-0.100217,0.285017
373,349200449,-0.334793,0.536811,0.655328,-0.412672,0.054119,0.289429,0.029150
374,349233783,-0.334916,0.533985,0.656289,-0.414706,0.170133,-0.012093,-0.074056
375,349267117,-0.334285,0.531938,0.657539,-0.415865,0.309650,-0.234880,-0.048322
376,349300451,-0.332726,0.529646,0.659230,-0.417361,-0.184600,-0.146841,0.081798
377,349333785,-0.331133,0.527404,0.660849,-0.418903,-0.389968,0.291780,0.181726
378,349367119,-0.330033,0.525248,0.662183,-0.420371,-0.557680,0.454176,0.166993
379,349400453,-0.329690,0.523054,0.663221,-0.421737,-0.575529,0.306012,0.122869
380,349433787,-0.330287,0.521400,0.663674,-0.422605,-0.148353,-0.008033,0.068193
381,349467121,-0.330846,0.520288,0.663830,-0.423293,0.180740,-0.202468,0.074025
382,349500455,-0.330815,0.518865,0.664379,-0.424201,0.332951,-0.044839,0.068515
383,349533789,-0.329881,0.517343,0.665512,-0.425010,0.313671,0.051941,0.078227
384,349567123,-0.328927,0.516310,0.666551,-0.425377,0.227231,0.064953,0.081763
385,349600457,-0.328044,0.515905,0.667267,-0.425429,0.058888,-0.066359,0.137218
386,349633791,-0.327386,0.515871,0.667602,-0.425450,0.049714,0.145549,0.127356
387,349667125,-0.326938,0.516238,0.667669,-0.425245,-0.001340,0.196508,0.109422
388,349700459,-0.326772,0.517132,0.667434,-0.424656,0.042220,-0.035081,0.168180
389,349733793,-0.326770,0.518001,0.666934,-0.424382,-0.046810,-0.016013,0.134166
390,349767127,-0.327138,0.519151,0.666027,-0.424118,-0.079980,0.070939,0.138432
391,349800461,-0.327874,0.520610,0.664799,-0.423687,-0.074489,0.184028,0.156105
392,349833795,-0.328881,0.522500,0.663234,-0.423032,-0.035364,0.081166,0.086688
393,349867129,-0.330098,0.524513,0.661544,-0.422240,0.070908,-0.016288,0.161809
394,349900463,-0.331073,0.526427,0.659942,-0.421600,0.040315,0.010056,0.136463
395,349933797,-0.332009,0.528418,0.658311,-0.420922,0.053800,0.072705,0.125217
396,349967131,-0.333022,0.530633,0.656469,-0.420212,0.085039,0.184311,0.118272
397,350000465,-0.334322,0.533316,0.654257,-0.419232,0.080808,0.184053,0.104979
398,350033799,-0.335955,0.536281,0.651708,-0.418114,0.044771,0.172914,0.117729
399,350067133,-0.338100,0.539659,0.648693,-0.416724,0.073926,0.081097,0.136121
400,350100467,-0.340365,0.543439,0.645301,-0.415232,0.013211,-0.003139,0.148237
401,350133801,-0.342645,0.547403,0.641719,-0.413698,0.032950,0.027456,0.073967
402,350167135,-0.344954,0.551373,0.638077,-0.412138,0.065247,-0.017247,0.069735
403,350200469,-0.346909,0.555029,0.634758,-0.410711,-0.042348,-0.058536,0.104076
404,350233803,-0.348463,0.557979,0.631967,-0.409702,-0.148215,-0.039343,0.112358
405,350267137,-0.349900,0.560303,0.629528,-0.409060,-0.131617,0.024313,0.115123
406,350300471,-0.351219,0.562704,0.627096,-0.408368,0.000414,0.056106,0.156297
407,350333805,-0.352600,0.565482,0.624386,-0.407494,0.015175,0.073216,0.072764
408,350367139,-0.353773,0.568523,0.621697,-0.406354,0.041683,0.022041,0.115267
409,350400473,-0.354633,0.571401,0.619299,-0.405228,-0.039480,-0.125874,0.123826
410,350433807,-0.355011,0.573552,0.617453,-0.404675,-0.166883,-0.048585,0.088756
411,350467141,-0.354905,0.575370,0.616044,-0.404335,-0.136966,0.109820,0.124964
412,350500475,-0.354769,0.577316,0.614607,-0.403868,-0.126021,0.104692,0.077784
413,350533809,-0.354469,0.579420,0.613133,-0.403357,-0.158765,0.037997,0.136225
414,350567143,-0.353450,0.581367,0.612044,-0.403103,-0.112682,-0.187278,0.113278
415,350600477,-0.351484,0.582307,0.611912,-0.403666,-0.081377,-0.171435,0.101085
416,350633811,-0.348518,0.581957,0.612915,-0.405217,-0.005505,0.126099,0.078022
417,350667145,-0.345121,0.581248,0.614346,-0.406973,0.020940,0.241145,0.105316
418,350700479,-0.341430,0.580594,0.615690,-0.408983,-0.110595,0.289550,0.161281
419,350733813,-0.337712,0.579723,0.616935,-0.411422,-0.257660,0.438793,0.105627
420,350767147,-0.334448,0.578631,0.618014,-0.414000,-0.022984,0.409146,0.143750
421,350800481,-0.331649,0.577665,0.618661,-0.416625,0.126428,0.193322,0.060697
422,350833815,-0.328855,0.576912,0.619051,-0.419296,0.356616,0.001436,0.070048
423,350867149,-0.325782,0.576236,0.619411,-0.422082,0.429092,-0.073997,0.076130
424,350900483,-0.322121,0.575478,0.620066,-0.424954,0.369988,0.192413,0.039631
425,350933817,-0.318601,0.575107,0.620543,-0.427407,0.307740,0.336066,0.033618
426,350967151,-0.315391,0.575829,0.620478,-0.428908,0.243920,0.077247,0.092417
427,351000485,-0.312122,0.577327,0.620143,-0.429769,0.314754,-0.252279,0.045528
428,351033819,-0.308444,0.578528,0.620263,-0.430636,0.423967,-0.419775,0.030728
429,351067153,-0.303733,0.578790,0.621392,-0.432003,0.310311,-0.306347,-0.048727
430,351100487,-0.298460,0.578379,0.623292,-0.433488,0.055863,-0.462951,0.103174
431,351133821,-0.292665,0.577244,0.625979,-0.435077,0.075945,-0.706082,0.117763
432,351167155,-0.286033,0.575512,0.629364,-0.436895,0.154236,-0.666871,0.057856
433,351200489,-0.278355,0.573437,0.633564,-0.438510,0.252471,-0.773967,0.088489
434,351233823,-0.269576,0.570072,0.638833,-0.440731,0.164051,-0.431433,0.043479
435,351267157,-0.260280,0.565985,0.644538,-0.443273,0.139489,-0.175027,-0.039871
436,351300491,-0.250816,0.561982,0.649871,-0.446027,-0.259711,-0.136168,-0.075197
437,351333825,-0.242200,0.556872,0.654803,-0.449967,-0.547206,-0.184694,0.121088
438,351367159,-0.234919,0.550711,0.659250,-0.454890,-0.627464,0.278617,0.244853
439,351400493,-0.228892,0.545374,0.662869,-0.459114,-0.495104,0.555301,0.222042
440,351433827,-0.224217,0.540625,0.665803,-0.462777,-0.442681,0.322623,0.241676
441,351467161,-0.220194,0.536418,0.668389,-0.465866,-0.364602,0.017141,0.262093
442,351500495,-0.216966,0.532513,0.670741,-0.468473,-0.250240,0.136847,0.184134
443,351533829,-0.214356,0.529100,0.673148,-0.470088,-0.031623,0.003546,0.117591
444,351567163,-0.211626,0.525362,0.675805,-0.471702,-0.050076,-0.237087,0.194183
445,351600497,-0.209222,0.521500,0.678438,-0.473277,0.065329,-0.148379,0.050450
446,351633831,-0.207100,0.518250,0.680866,-0.474292,0.065743,0.180917,0.045772
447,351667165,-0.205415,0.515813,0.682928,-0.474717,-0.213211,-0.130320,0.130944
448,351700499,-0.204069,0.513480,0.684920,-0.474957,-0.373850,-0.459991,0.187688
449,351733833,-0.202642,0.510947,0.686959,-0.475355,-0.295151,-0.223195,0.185696
450,351767167,-0.201766,0.508554,0.688793,-0.475639,-0.208775,-0.007166,0.077227
451,351800501,-0.201174,0.506367,0.690713,-0.475440,0.084921,-0.065509,0.097546
452,351833835,-0.200686,0.504087,0.692799,-0.475033,0.322638,-0.188636,0.076686
453,351867169,-0.200367,0.501680,0.694945,-0.474580,0.286015,-0.278595,0.007245
454,351900503,-0.200296,0.499695,0.696980,-0.473719,0.228237,-0.250576,0.094469
455,351933837,-0.200650,0.497956,0.698859,-0.472633,0.015400,-0.131686,0.113343
456,351967171,-0.201782,0.496469,0.700541,-0.471223,-0.167979,-0.145720,0.174288
457,352000505,-0.203726,0.495308,0.701866,-0.469632,-0.214948,-0.227241,0.150141
458,352033839,-0.206490,0.494618,0.702708,-0.467890,-0.113145,-0.145054,0.053071
459,352067173,-0.210276,0.494728,0.702994,-0.465654,0.045218,-0.426764,0.103457
460,352100507,-0.214470,0.494962,0.703162,-0.463231,0.126573,-0.561314,0.065975
461,352133841,-0.219089,0.495207,0.703317,-0.460565,0.136726,-0.493659,0.051799
462,352167175,-0.224170,0.495616,0.703285,-0.457721,-0.056322,-0.375856,0.199433
463,352200509,-0.229646,0.495637,0.703098,-0.455264,-0.119280,-0.054628,0.093318
464,352233843,-0.236468,0.496215,0.702122,-0.452641,-0.260660,0.072662,0.007929
465,352267177,-0.244718,0.498165,0.699972,-0.449431,-0.176239,0.054252,-0.065210
466,352300511,-0.254364,0.501485,0.696743,-0.445382,-0.004998,-0.088329,0.055948
467,352333845,-0.264785,0.505081,0.692938,-0.441162,-0.032009,-0.020131,0.081898
468,352367179,-0.275685,0.508422,0.688761,-0.437171,-0.085444,0.227729,0.080342
469,352400513,-0.287234,0.511704,0.683978,-0.433399,-0.107116,0.288470,0.126729
470,352433847,-0.299668,0.514909,0.678686,-0.429487,0.523378,-0.334400,0.321579
471,352467181,-0.314486,0.520549,0.672884,-0.421141,0.730061,0.864792,1.158943
472,352500515,-0.332663,0.526242,0.663627,-0.414739,-1.739740,0.317490,-0.054956
473,352533849,-0.349096,0.526684,0.655513,-0.413573,-0.445937,0.989492,-0.457787
474,352567183,-0.362570,0.527715,0.648698,-0.411408,0.865063,-0.224997,0.176620
475,352600517,-0.372082,0.531213,0.641837,-0.409167,1.420466,-1.040897,-0.124836
476,352633851,-0.377373,0.532291,0.638219,-0.408581,1.220168,-0.732782,-0.028849
477,352667185,-0.380542,0.531632,0.637204,-0.408083,0.645539,0.030784,0.263111
478,352700519,-0.384092,0.530685,0.636817,-0.406592,0.224407,0.481096,0.307753
479,352733853,-0.387907,0.530908,0.635589,-0.404595,-0.463105,0.812412,0.447905
480,352767187,-0.391891,0.532660,0.632966,-0.402560,-0.960549,0.925384,0.766105
481,352800521,-0.396364,0.535070,0.628893,-0.401367,-1.108824,0.803954,0.632227
482,352833855,-0.401322,0.537550,0.624234,-0.400398,-0.886345,0.934636,0.336781
483,352867189,-0.406147,0.540269,0.619902,-0.398599,-0.323758,0.744247,0.194345
484,352900523,-0.410209,0.542453,0.616095,-0.397374,0.497694,0.645727,-0.186002
485,352933857,-0.413691,0.544365,0.613689,-0.394864,1.011652,0.117841,-0.327155
486,352967191,-0.416342,0.544331,0.614180,-0.391346,0.985412,-0.471263,-0.622853
487,353000525,-0.418629,0.542011,0.616539,-0.388405,0.534366,-0.623262,-0.488744
488,353033859,-0.417968,0.537445,0.621705,-0.387224,-0.362380,-0.395589,-0.174070
489,353067193,-0.414547,0.532310,0.628341,-0.387286,-0.857667,-0.500437,0.253202
490,353100527,-0.410201,0.528378,0.634288,-0.387603,-0.461863,0.209367,0.009374
491,353133861,-0.406095,0.526771,0.638485,-0.387224,-0.255609,0.421733,0.127521
492,353167195,-0.401864,0.527655,0.641149,-0.386029,0.586799,0.324819,-0.301221
493,353200529,-0.397626,0.530272,0.643049,-0.383664,0.768594,-0.538947,-0.387489
494,353233863,-0.393390,0.532839,0.645045,-0.381115,1.092898,-0.986237,-0.189711
495,353267197,-0.386848,0.534751,0.647768,-0.380515,0.075485,-0.534371,-0.123019
496,353300531,-0.381224,0.537331,0.648751,-0.380882,-0.803995,0.573443,0.242176
497,353333865,-0.378310,0.540606,0.647739,-0.380876,-1.586941,1.370155,0.672075
498,353367199,-0.377521,0.543630,0.645942,-0.380407,-1.141557,2.542031,0.515173
499,353400533,-0.377864,0.546945,0.643862,-0.378837,-0.701589,1.252259,0.337943
500,353433867,-0.377667,0.549101,0.642699,-0.377888,-0.874521,-0.563057,0.442895
501,353467201,-0.375949,0.549330,0.643062,-0.378650,-0.240751,-1.413392,0.231114
502,353500535,-0.370725,0.547172,0.645719,-0.382386,0.134671,-1.392227,0.094332
503,353533869,-0.361582,0.542094,0.651136,-0.389127,0.709572,0.074108,-0.085347
504,353567203,-0.352030,0.536745,0.657390,-0.394745,0.574655,1.179101,0.477595
505,353600537,-0.345270,0.533438,0.661757,-0.397890,0.283769,0.327051,0.004094
506,353633871,-0.338407,0.531954,0.664813,-0.400667,-0.304799,-0.266201,0.051146
507,353667205,-0.331919,0.530787,0.667058,-0.403899,-0.336633,-0.011402,0.235393
508,353700539,-0.325924,0.527402,0.670223,-0.407955,-0.098412,0.460726,0.578168
509,353733873,-0.319898,0.523401,0.673707,-0.412117,-0.128462,0.091390,0.070287
510,353767207,-0.315157,0.520885,0.675740,-0.415614,-0.228142,0.195348,-0.249710
511,353800541,-0.312987,0.519968,0.676075,-0.417851,-0.109219,-0.048110,-0.007751
512,353833875,-0.310208,0.519047,0.676530,-0.420326,0.013709,-0.216422,0.182231
513,353867209,-0.306735,0.517022,0.677922,-0.423119,0.108898,-0.546727,-0.006418
514,353900543,-0.302753,0.513261,0.680493,-0.426425,0.050474,-0.561766,0.189046
515,353933877,-0.297476,0.508941,0.683975,-0.429733,0.647737,-0.905755,0.079966
516,353967211,-0.290902,0.503989,0.688103,-0.433464,0.418513,-0.625500,-0.077460
517,354000545,-0.283640,0.498539,0.692842,-0.437015,0.074965,-0.656132,0.116074
518,354033879,-0.275479,0.491553,0.698391,-0.441296,-0.168670,-0.713505,0.300330
519,354067213,-0.266917,0.482919,0.704297,-0.446673,0.149103,-0.102798,0.404458
520,354100547,-0.259418,0.474472,0.709408,-0.452022,0.255100,0.619661,-0.200395
521,354133881,-0.253720,0.468958,0.713289,-0.454894,0.303654,0.095368,0.128995
522,354167215,-0.249211,0.464409,0.716222,-0.457439,0.280127,-0.108274,0.285403
523,354200549,-0.245916,0.460556,0.718280,-0.459883,0.080411,0.358941,0.002192
524,354233883,-0.244338,0.458597,0.719363,-0.460988,0.083399,0.231431,0.206112
525,354267217,-0.244456,0.457738,0.719402,-0.461718,0.133602,-0.007819,0.102725
526,354300551,-0.245256,0.457690,0.719027,-0.461924,0.340641,-0.082466,0.195630
527,354333885,-0.246352,0.458034,0.718461,-0.461882,0.260418,0.065474,0.131331
528,354367219,-0.248407,0.459407,0.717334,-0.461168,0.111134,0.086105,0.138551
529,354400553,-0.251527,0.461951,0.715456,-0.459851,0.003197,0.071136,0.102122
530,354433887,-0.255514,0.465446,0.713033,-0.457889,-0.009476,0.134668,0.088158
531,354467221,-0.260149,0.469697,0.710141,-0.455425,0.084399,-0.083746,0.091108
532,354500555,-0.265248,0.474482,0.706870,-0.452604,0.318842,-0.113323,0.064515
533,354533889,-0.270663,0.479899,0.703200,-0.449391,0.453749,-0.002923,0.058917
534,354567223,-0.276087,0.486023,0.699281,-0.445611,0.390836,-0.038074,0.042600
535,354600557,-0.281729,0.492524,0.695124,-0.441425,0.072684,-0.119051,0.060355
536,354633891,-0.287166,0.498610,0.690988,-0.437567,-0.258361,-0.246953,0.183338
537,354667225,-0.292366,0.503766,0.687102,-0.434325,-0.218720,-0.034512,0.181799
538,354700559,-0.297718,0.508387,0.683153,-0.431526,-0.301483,-0.120583,0.142065
539,354733893,-0.302861,0.512307,0.679308,-0.429376,-0.289033,0.142381,0.161789
540,354767227,-0.309037,0.516183,0.674817,-0.427409,-0.375558,0.472356,0.149567
541,354800561,-0.316286,0.520816,0.669428,-0.424952,-0.223516,0.240994,0.161581
542,354833895,-0.323849,0.525674,0.663502,-0.422563,-0.137821,0.166699,0.119951
543,354867229,-0.332012,0.531197,0.656846,-0.419709,0.134374,0.021088,0.057330
544,354900563,-0.340211,0.536894,0.649909,-0.416683,0.338123,-0.191662,0.023458
545,354933897,-0.347804,0.541998,0.643466,-0.413796,0.487527,-0.199640,0.066567
546,354967231,-0.354708,0.546608,0.637651,-0.410864,0.467376,-0.188127,0.001984
547,355000565,-0.360719,0.550745,0.632486,-0.408078,0.133512,-0.046062,0.048573
548,355033899,-0.366582,0.554116,0.627736,-0.405617,-0.249227,0.087273,0.298683
549,355067233,-0.372217,0.556883,0.623158,-0.403752,-0.469979,-0.544045,0.407917
550,355100567,-0.377249,0.558914,0.618539,-0.403377,0.014907,0.373607,0.059895
551,355133901,-0.382587,0.563496,0.612314,-0.401466,0.236060,0.660542,-0.060751
552,355167235,-0.387828,0.569202,0.605867,-0.398157,0.045435,0.028090,0.265516
553,355200569,-0.392061,0.573733,0.600652,-0.395401,-0.525094,0.029724,0.096912
554,355233903,-0.395480,0.577011,0.596498,-0.393508,-0.825986,0.031983,0.083871
555,355267237,-0.398335,0.579028,0.593240,-0.392590,-0.820907,0.059428,0.208750
556,355300571,-0.400419,0.579868,0.591033,-0.392561,-0.558319,0.197070,0.082838
557,355333905,-0.401989,0.580160,0.589561,-0.392737,-0.056667,0.106328,0.023445
558,355367239,-0.402850,0.580412,0.588708,-0.392763,-0.071867,-0.231804,0.133539
559,355400573,-0.402291,0.580070,0.589124,-0.393216,-0.122028,-0.118426,0.052228
560,355433907,-0.400812,0.578947,0.590697,-0.394021,-0.140969,-0.074504,-0.030704
561,355467241,-0.398485,0.577149,0.593250,-0.395181,-0.386964,-0.020382,0.107329
562,355500575,-0.395685,0.574805,0.596339,-0.396759,-0.415324,0.143797,0.172785
563,355533909,-0.392977,0.572299,0.599384,-0.398481,-0.398498,0.159430,0.070237
564,355567243,-0.390246,0.569814,0.602486,-0.400044,-0.220025,-0.003551,0.030418
565,355600577,-0.386971,0.566844,0.606128,-0.401939,-0.153012,0.011232,0.127223
566,355633911,-0.383320,0.563568,0.610130,-0.403986,-0.174677,0.038316,0.194298
567,355667245,-0.379437,0.560419,0.614111,-0.405994,-0.130975,0.125342,0.140616
568,355700579,-0.375498,0.557601,0.617880,-0.407813,-0.211663,0.222307,0.083803
569,355733913,-0.371922,0.555121,0.621286,-0.409297,-0.317616,0.291970,0.123670
570,355767247,-0.368694,0.553159,0.624213,-0.410419,-0.327328,0.031657,0.201641
571,355800581,-0.365418,0.551398,0.626904,-0.411615,-0.302305,0.067786,0.159522
572,355833915,-0.362382,0.549976,0.629249,-0.412622,-0.190404,-0.009408,-0.003226
573,355867249,-0.359061,0.548186,0.631995,-0.413709,-0.211617,-0.134083,0.139591
574,355900583,-0.355212,0.545967,0.635291,-0.414916,-0.162160,-0.153717,0.006396
575,355933917,-0.351130,0.543825,0.638678,-0.416003,-0.062160,-0.174861,-0.005024
576,355967251,-0.346517,0.541608,0.642382,-0.417058,-0.233527,-0.253726,0.170010
577,356000585,-0.341496,0.539092,0.646480,-0.418125,0.166592,-0.126338,0.223687
578,356033919,-0.336450,0.536919,0.650478,-0.418811,0.564424,-0.386443,0.127542
579,356067253,-0.331066,0.534979,0.654448,-0.419399,0.731089,-0.166488,0.049869
580,356100587,-0.325893,0.533952,0.658049,-0.419125,0.569628,-0.000163,-0.034486
581,356133921,-0.320662,0.532921,0.661888,-0.418426,0.188191,-0.267916,0.135564
582,356167255,-0.315017,0.530756,0.666364,-0.418362,-0.279635,-0.085901,0.120794
583,356200589,-0.309778,0.528344,0.670564,-0.418617,-0.482206,0.190827,0.078732
584,356233923,-0.305558,0.526596,0.673910,-0.418548,-0.577550,0.159750,0.056830
585,356267257,-0.302342,0.524962,0.676782,-0.418301,-0.337747,-0.023063,0.086167
586,356300591,-0.299494,0.522821,0.679738,-0.418238,-0.009165,-0.132003,-0.038661
587,356333925,-0.296525,0.520944,0.682690,-0.417888,0.173125,-0.160896,0.014246
588,356367259,-0.293445,0.519472,0.685580,-0.417162,0.244031,-0.102582,0.017205
589,356400593,-0.290089,0.518390,0.688512,-0.416025,0.134232,-0.202973,0.085402
590,356433927,-0.286362,0.517276,0.691547,-0.414959,0.060893,-0.159719,0.219062
591,356467261,-0.282400,0.516645,0.694381,-0.413725,-0.331484,-0.288243,0.531652
592,356500595,-0.277764,0.515611,0.697255,-0.413320,-0.018989,0.212604,-0.007596
593,356533929,-0.273721,0.514800,0.699783,-0.412755,-0.775295,0.300484,0.478455
594,356567263,-0.270177,0.513578,0.702129,-0.412628,-0.556060,0.182734,0.452682
595,356600597,-0.268092,0.513063,0.703229,-0.412757,-0.409842,0.503802,0.223475
596,356633931,-0.267695,0.513074,0.703538,-0.412473,0.327102,0.257797,0.280095
597,356667265,-0.267880,0.513558,0.703361,-0.412052,0.743228,0.435161,0.092670
598,356700599,-0.268294,0.514965,0.703033,-0.410584,0.576806,0.159620,0.080434
599,356733933,-0.268496,0.516415,0.702878,-0.408893,0.249249,-0.207153,0.049380
600,356767267,-0.268633,0.517650,0.702665,-0.407606,-0.011154,-0.190717,0.072435
601,356800601,-0.268896,0.518441,0.702484,-0.406739,0.091790,0.187578,0.040969
602,356833935,-0.269312,0.519238,0.702345,-0.405684,0.378616,0.207094,-0.101017
603,356867269,-0.270159,0.520610,0.701908,-0.404118,0.479155,0.157067,-0.264154
604,356900603,-0.270648,0.522309,0.701520,-0.402266,0.379189,-0.504338,0.076824
605,356933937,-0.270331,0.523587,0.701325,-0.401157,0.185854,-0.163978,0.393517
606,356967271,-0.269771,0.524424,0.701294,-0.400493,0.107894,0.193474,0.245068
607,357000605,-0.269471,0.525022,0.701287,-0.399925,-0.100660,0.329857,0.018913
608,357033939,-0.269684,0.525744,0.701079,-0.399197,-0.144756,0.083739,0.017280
609,357067273,-0.270098,0.526684,0.700535,-0.398633,0.105913,0.103841,0.084756
610,357100607,-0.270568,0.528026,0.699756,-0.397905,0.106054,-0.001914,-0.119381
611,357133941,-0.270798,0.528820,0.699323,-0.397455,0.121239,0.029637,-0.007995
612,357167275,-0.270697,0.529384,0.699105,-0.397156,0.290463,0.033344,0.149067
613,357200609,-0.270279,0.529837,0.698981,-0.397055,0.187723,-0.056907,0.216748
614,357233943,-0.269853,0.529889,0.698941,-0.397344,0.029421,-0.053464,0.226461
615,357267277,-0.269416,0.529785,0.698963,-0.397742,0.004978,0.202615,0.388125
616,357300611,-0.269517,0.529783,0.698824,-0.397921,-0.206960,0.153798,0.337059
617,357333945,-0.270458,0.529618,0.698425,-0.398203,-0.272338,0.421556,0.101214
618,357367279,-0.272096,0.529856,0.697971,-0.397564,-0.212988,0.315942,0.648018
619,357400613,-0.274288,0.529681,0.697400,-0.397295,-0.420783,0.059114,0.368608
620,357433947,-0.277256,0.529427,0.696545,-0.397073,-0.439604,0.205467,0.190659
621,357467281,-0.280805,0.529716,0.695420,-0.396163,0.294588,-0.162681,0.022049
622,357500615,-0.283179,0.530209,0.694552,-0.395337,0.764493,-0.117685,-0.178733
623,357533949,-0.285133,0.530508,0.693936,-0.394612,0.485196,-0.085455,-0.864649
624,357567283,-0.287683,0.531021,0.693446,-0.392930,0.794008,0.569067,-1.182285
625,357600617,-0.288493,0.532447,0.693575,-0.390168,1.338705,-1.078501,-0.320712
626,357633951,-0.286872,0.533256,0.694218,-0.389114,0.925039,-1.043442,-0.430613
627,357667285,-0.286501,0.534753,0.694112,-0.387518,0.319951,-0.073776,-0.021667
628,357700619,-0.285722,0.536038,0.694407,-0.385785,0.315795,-0.196292,1.117290
629,357733953,-0.284093,0.535925,0.694918,-0.386225,-0.218089,0.080414,0.686022
630,357767287,-0.285824,0.536725,0.693949,-0.385578,-0.561008,0.862238,0.173368
631,357800621,-0.287411,0.536765,0.693447,-0.385245,-0.190448,-0.306632,0.559870
632,357833955,-0.288656,0.535237,0.693073,-0.387111,-0.480697,0.030439,-0.118248
633,357867289,-0.291040,0.534781,0.691591,-0.388603,0.217113,0.086234,-0.648774
634,357900623,-0.292356,0.536499,0.689612,-0.388764,1.002152,0.326374,-0.471637
635,357933957,-0.292897,0.538553,0.687849,-0.388640,0.760452,0.195391,-0.440831
636,357967291,-0.293029,0.538679,0.687342,-0.389263,0.158432,-0.420048,-0.852327
637,358000625,-0.292526,0.537556,0.687749,-0.390472,-0.421322,-0.076422,0.335132
638,358033959,-0.291863,0.537870,0.687438,-0.391082,-0.135479,-0.826049,0.776683
639,358067293,-0.289307,0.538631,0.686853,-0.392958,-0.928768,-0.467354,3.087836
640,358100627,-0.288497,0.538023,0.684981,-0.397626,-0.879633,1.581899,0.198383
641,358133961,-0.290776,0.536715,0.683630,-0.400053,-0.498260,0.771751,-0.684559
642,358167295,-0.293170,0.534480,0.683434,-0.401629,-0.169463,0.298656,0.305543
643,358200629,-0.295078,0.532685,0.683189,-0.403030,0.141279,-0.350148,0.532539
644,358233963,-0.299415,0.533850,0.681795,-0.400645,0.638713,0.334376,0.597496
645,358267297,-0.306584,0.538896,0.676419,-0.397568,-1.019930,-0.009312,-0.428609
646,358300631,-0.313357,0.542828,0.670752,-0.396538,-0.046615,0.232753,0.313165
647,358333965,-0.321792,0.546226,0.664559,-0.395541,-0.445214,0.144915,0.075462
648,358367299,-0.328585,0.549180,0.659272,-0.394714,0.072072,-0.069740,-0.243897
649,358400633,-0.333543,0.552312,0.654256,-0.394532,0.150929,-0.160820,0.067249
650,358433967,-0.338843,0.555106,0.649229,-0.394399,0.002040,-0.031493,0.253089
651,358467301,-0.344671,0.557027,0.644388,-0.394578,-0.367084,0.049039,0.146398
652,358500635,-0.348999,0.558010,0.640573,-0.395594,-0.635050,-0.294206,0.393809
653,358533969,-0.352737,0.557478,0.637561,-0.397890,-0.580305,0.169269,0.254913
654,358567303,-0.356820,0.556383,0.634707,-0.400337,-0.222941,0.047258,0.138656
655,358600637,-0.360092,0.555464,0.632222,-0.402608,0.088029,-0.050410,-0.299663
656,358633971,-0.362745,0.555289,0.629944,-0.404037,0.167655,-0.254445,0.026102
657,358667305,-0.364442,0.555163,0.628170,-0.405443,0.163638,-0.245656,0.010194
658,358700639,-0.364971,0.554446,0.627420,-0.407106,0.191992,-0.303184,0.047273
659,358733973,-0.364556,0.552431,0.627963,-0.409373,0.374721,-0.121964,0.163474
660,358767307,-0.363581,0.550869,0.628700,-0.411210,0.336851,0.230021,-0.070101
661,358800641,-0.362485,0.550685,0.628985,-0.411987,-0.202725,0.005754,0.094503
662,358833975,-0.361143,0.550288,0.629531,-0.412862,-0.570207,0.162905,0.135423
663,358867309,-0.359901,0.549396,0.630310,-0.413945,-0.626315,0.179968,0.245047
664,358900643,-0.358470,0.548395,0.631099,-0.415309,-0.543425,0.092837,0.072916
665,358933977,-0.357169,0.547160,0.631923,-0.416803,-0.497398,0.127677,0.061313
666,358967311,-0.356025,0.545804,0.632780,-0.418258,-0.285103,0.123627,0.136186
667,359000645,-0.354849,0.544729,0.633559,-0.419477,-0.137930,0.057400,-0.040121
668,359033979,-0.353361,0.543448,0.634753,-0.420586,-0.417286,0.159004,-0.094936
669,359067313,-0.351769,0.541943,0.636173,-0.421717,-0.612270,-0.036923,0.146224
670,359100647,-0.350095,0.540983,0.637396,-0.422495,0.110649,-0.493224,0.039504
671,359133981,-0.347766,0.539457,0.638858,-0.424159,0.020203,0.140021,0.590749
672,359167315,-0.345746,0.538717,0.640125,-0.424839,0.343013,0.674199,-0.002941
673,359200649,-0.344741,0.538527,0.640928,-0.424686,0.000823,-0.028305,0.111792
674,359233983,-0.343565,0.538105,0.641873,-0.424746,-0.038177,-0.343110,0.073228
675,359267317,-0.341999,0.537696,0.642779,-0.425158,-0.184657,-0.198676,0.180941
676,359300651,-0.340689,0.537445,0.643451,-0.425511,0.024075,-0.032901,0.021381
677,359333985,-0.339652,0.537708,0.643941,-0.425267,0.235530,-0.151692,-0.049685
678,359367319,-0.337823,0.537335,0.645256,-0.425203,0.041218,-0.288785,0.172256
679,359400653,-0.335523,0.536198,0.647242,-0.425440,-0.010030,-0.055065,0.091693
680,359433987,-0.333352,0.535491,0.649005,-0.425353,-0.050513,-0.061514,0.015915
681,359467321,-0.330935,0.534963,0.650819,-0.425131,-0.145473,-0.075701,0.098322
682,359500655,-0.328381,0.533857,0.653009,-0.425144,-0.173267,-0.035709,0.138111
683,359533989,-0.326034,0.532242,0.655431,-0.425248,-0.057798,-0.168231,0.098605
684,359567323,-0.323232,0.530077,0.658300,-0.425660,-0.095805,-0.232328,0.084676
685,359600657,-0.320292,0.527333,0.661500,-0.426327,-0.051704,-0.063804,0.052465
686,359633991,-0.317383,0.524259,0.664829,-0.427116,-0.078896,0.044656,0.064802
687,359667325,-0.314495,0.521122,0.668182,-0.427858,-0.173818,0.091997,0.168603
688,359700659,-0.312012,0.517833,0.671430,-0.428584,-0.246648,-0.206004,0.128403
689,359733993,-0.309271,0.514282,0.674771,-0.429599,-0.127381,-0.374949,0.087595
690,359767327,-0.306095,0.510200,0.678352,-0.431098,-0.068880,-0.033054,0.022421
691,359800661,-0.303102,0.506271,0.681866,-0.432299,0.095624,0.079763,0.023451
692,359833995,-0.300084,0.502552,0.685451,-0.433075,0.195848,-0.035718,0.131170
693,359867329,-0.297078,0.498972,0.688871,-0.433859,0.121358,0.031646,0.081713
694,359900663,-0.294680,0.495988,0.691795,-0.434263,0.191933,0.213767,0.062893
695,359933997,-0.292738,0.493953,0.694145,-0.434147,0.217985,0.203526,0.099521
696,359967331,-0.291148,0.492822,0.696021,-0.433497,0.267284,0.213300,0.187938
697,360000665,-0.289733,0.492260,0.697696,-0.432390,0.140547,-0.094648,0.123835
698,360033999,-0.288106,0.491858,0.699492,-0.431030,0.109899,-0.224279,0.047541
699,360067333,-0.286110,0.491049,0.701470,-0.430066,-0.130581,-0.120958,0.074986
700,360100667,-0.284092,0.489883,0.703474,-0.429460,-0.491171,0.075948,0.239377
701,360134001,-0.282285,0.488645,0.705417,-0.428874,-0.613840,0.241684,0.129972
702,360167335,-0.281649,0.487875,0.706706,-0.428047,-0.743583,0.151516,0.188107
703,360200669,-0.282217,0.486839,0.707473,-0.427584,-0.753683,0.168502,0.284094
704,360234003,-0.283792,0.485928,0.707743,-0.427132,-0.387086,0.256790,0.221052
705,360267337,-0.285626,0.485522,0.707772,-0.426321,0.381076,0.087813,0.063516
706,360300671,-0.287684,0.486039,0.707381,-0.424995,0.769094,0.003517,-0.011210
707,360334005,-0.289479,0.486847,0.706910,-0.423633,0.378300,-0.211215,0.204908
708,360367339,-0.290842,0.486819,0.706858,-0.422818,0.190900,-0.170933,0.253044
709,360400673,-0.291905,0.486545,0.706994,-0.422173,0.570778,0.177242,0.207191
710,360434007,-0.293916,0.487625,0.706164,-0.420920,0.499031,0.266938,0.196981
711,360467341,-0.296476,0.489622,0.704652,-0.419337,0.270370,0.175386,0.142889
712,360500675,-0.300294,0.492514,0.702241,-0.417272,0.102056,0.299895,0.028098
713,360534009,-0.305202,0.495984,0.699178,-0.414737,0.096029,0.065155,0.219617
714,360567343,-0.310318,0.499242,0.695919,-0.412508,0.075368,0.075570,0.249238
715,360600677,-0.315427,0.502315,0.692566,-0.410540,0.238594,0.135546,0.049191
716,360634011,-0.320659,0.505957,0.689011,-0.407988,0.556128,0.042290,0.094988
717,360667345,-0.326467,0.510572,0.684668,-0.404934,0.755937,-0.182887,0.108815
718,360700679,-0.332300,0.515634,0.679814,-0.401941,0.531895,-0.398692,-0.000168
719,360734013,-0.337899,0.520724,0.674839,-0.399085,0.438052,-0.303340,-0.026729
720,360767347,-0.343434,0.525669,0.669745,-0.396449,0.227755,-0.002160,-0.062849
721,360800681,-0.349506,0.530542,0.664505,-0.393458,-0.082854,0.274112,-0.053693
722,360834015,-0.355831,0.535612,0.659037,-0.390101,-0.109217,0.052169,0.183428
723,360867349,-0.361771,0.540577,0.653478,-0.387131,-0.079365,0.381448,0.244288
724,360900683,-0.368323,0.545774,0.647729,-0.383302,-0.075162,0.314575,0.221077
725,360934017,-0.374370,0.550161,0.642627,-0.379746,0.097170,-0.397156,0.268353
726,360967351,-0.379166,0.553963,0.637959,-0.377322,0.158845,-0.523027,0.029853
727,361000685,-0.382926,0.558111,0.633515,-0.374891,0.469770,-0.430577,-0.152111
728,361034019,-0.385529,0.562381,0.629740,-0.372192,0.617892,-0.313230,-0.141639
729,361067353,-0.386801,0.566384,0.626837,-0.369696,0.461960,-0.346513,-0.083671
730,361100687,-0.387204,0.570044,0.624467,-0.367652,0.240226,-0.405075,-0.212695
731,361134021,-0.387070,0.573781,0.622154,-0.365899,0.132076,-0.159321,0.140303
732,361167355,-0.386772,0.577872,0.619589,-0.364124,0.083991,0.237095,0.436159
733,361200689,-0.386763,0.581836,0.616884,-0.362409,-0.048748,0.255026,0.357911
734,361234023,-0.386858,0.585245,0.614367,-0.361093,-0.213161,0.147296,0.243114
735,361267357,-0.387223,0.587798,0.612159,-0.360303,-0.442154,0.184501,0.181808
736,361300691,-0.387899,0.589314,0.610339,-0.360187,-0.598224,0.389833,0.008221
737,361334025,-0.388698,0.590080,0.608831,-0.360623,-0.779460,0.380234,-0.004281
738,361367359,-0.389804,0.589989,0.607604,-0.361647,-0.981459,0.619408,0.123888
739,361400693,-0.391431,0.589074,0.606567,-0.363118,-0.887039,0.630868,0.124370
740,361434027,-0.392429,0.588833,0.605563,-0.364107,0.012285,0.419240,0.736527
741,361467361,-0.392443,0.588634,0.605097,-0.365187,0.118260,0.141778,0.405629
742,361500695,-0.391737,0.587533,0.605774,-0.366592,-0.172014,-0.178582,-0.142944
743,361534029,-0.390549,0.585824,0.607185,-0.368258,-0.290292,0.030386,0.040833
744,361567363,-0.388908,0.583890,0.608802,-0.370389,-0.338234,0.282321,0.127237
745,361600697,-0.387316,0.581776,0.610361,-0.372810,-0.493691,0.458044,0.225554
746,361634031,-0.386203,0.579018,0.612178,-0.375272,-0.802194,0.615347,0.194490
747,361667365,-0.386041,0.576457,0.613705,-0.376884,-0.912387,0.703715,0.538065
748,361700699,-0.384043,0.571821,0.617084,-0.380454,-0.859099,0.222282,0.345086
749,361734033,-0.382170,0.566100,0.620407,-0.385458,0.011708,0.189542,-0.412565
750,361767367,-0.381691,0.561621,0.622050,-0.389813,0.674741,-0.570263,0.140873
751,361800701,-0.381063,0.559382,0.622543,-0.392846,1.351909,-0.350751,-0.135196
752,361834035,-0.379004,0.557212,0.624261,-0.395188,0.874829,-0.510651,-0.170409
753,361867369,-0.375927,0.554897,0.627107,-0.396876,0.578804,-0.625616,0.168372
754,361900703,-0.372308,0.552591,0.629753,-0.399308,0.414372,-0.159380,0.122171
755,361934037,-0.367799,0.549862,0.632726,-0.402540,0.018127,-0.489360,0.099085
756,361967371,-0.363517,0.547171,0.635607,-0.405547,-0.148811,-0.445986,0.158649
757,362000705,-0.359416,0.544826,0.637653,-0.409133,-0.062464,-0.184548,0.098676
758,362034039,-0.355354,0.542079,0.639618,-0.413241,0.019607,-0.175782,0.136989
759,362067373,-0.351679,0.538814,0.641902,-0.417095,0.141096,-0.277293,0.126700
760,362100707,-0.347745,0.535253,0.644443,-0.421042,0.294279,-0.112448,0.201352
761,362134041,-0.343895,0.532003,0.646641,-0.424936,0.523706,-0.201613,0.035667
762,362167375,-0.340480,0.529446,0.648492,-0.428047,0.574859,-0.105474,0.081227
763,362200709,-0.337155,0.527661,0.650066,-0.430489,0.523299,0.001797,-0.002840
764,362234043,-0.334251,0.526629,0.651383,-0.432022,0.298966,-0.078456,0.217260
765,362267377,-0.331293,0.525465,0.652897,-0.433431,0.213718,-0.149784,0.100404
766,362300711,-0.328454,0.524054,0.654461,-0.434940,-0.023518,-0.096857,0.058703
767,362334045,-0.326114,0.522681,0.655695,-0.436490,-0.244070,0.017872,0.167043
768,362367379,-0.324310,0.521480,0.656429,-0.438164,-0.271446,-0.208509,0.121174
769,362400713,-0.322420,0.520035,0.657366,-0.439869,-0.116821,-0.689125,0.082979
770,362434047,-0.319641,0.517442,0.659207,-0.442193,0.179591,-0.986734,0.241010
771,362467381,-0.315934,0.513762,0.662095,-0.444826,0.528144,-0.430405,0.101069
772,362500715,-0.312155,0.510263,0.665168,-0.446931,0.509655,-0.222919,-0.002532
773,362534049,-0.308482,0.506980,0.668368,-0.448441,0.135475,-0.073961,0.058637
774,362567383,-0.305167,0.503776,0.671513,-0.449621,-0.002607,0.158078,0.020826
775,362600717,-0.302650,0.501393,0.674221,-0.449932,0.008867,-0.012855,0.098575
776,362634051,-0.300413,0.499331,0.676802,-0.449850,0.152282,-0.211487,0.070369
777,362667385,-0.298569,0.497184,0.679209,-0.449829,0.125902,-0.137102,0.036897
778,362700719,-0.297216,0.496019,0.681036,-0.449247,0.185080,-0.058493,0.054708
779,362734053,-0.296582,0.495861,0.682175,-0.448112,0.164865,-0.236195,0.059883
780,362767387,-0.296357,0.496099,0.682898,-0.446893,-0.208085,-0.068416,0.002626
781,362800721,-0.296877,0.496920,0.683156,-0.445241,-0.574471,0.181786,0.011029
782,362834055,-0.298556,0.498518,0.682657,-0.443090,-0.784411,0.177548,0.021332
783,362867389,-0.301690,0.500567,0.681392,-0.440597,-0.789343,-0.000558,0.230610
784,362900723,-0.306019,0.502831,0.679343,-0.438190,-0.738356,-0.006337,0.146544
785,362934057,-0.310956,0.505077,0.676866,-0.435960,-0.604501,-0.037342,0.138465
786,362967391,-0.316681,0.507562,0.673838,-0.433638,-0.147880,0.024115,0.080902
787,363000725,-0.322574,0.510403,0.670571,-0.431015,0.005032,-0.000056,0.094723
788,363034059,-0.327973,0.513056,0.667663,-0.428297,-0.053660,-0.047120,0.067444
789,363067393,-0.333070,0.515265,0.665197,-0.425541,-0.176017,-0.019738,0.108285
790,363100727,-0.338045,0.517210,0.662888,-0.422854,-0.412020,0.023850,0.169901
791,363134061,-0.342956,0.519048,0.660566,-0.420272,-0.550380,0.109864,0.237490
792,363167395,-0.348280,0.521260,0.657777,-0.417522,-0.356249,0.196743,0.097845
793,363200729,-0.353668,0.524131,0.654584,-0.414404,-0.197548,0.148834,0.048391
794,363234063,-0.358782,0.526920,0.651545,-0.411248,-0.107134,0.062140,0.129904
795,363267397,-0.363659,0.529307,0.648781,-0.408257,0.126462,-0.003221,-0.007350
796,363300731,-0.367692,0.531475,0.646625,-0.405238,0.077648,0.021835,0.086242
797,363334065,-0.370957,0.533345,0.644977,-0.402422,-0.210622,0.168742,0.172627
798,363367399,-0.373876,0.534921,0.643566,-0.399880,-0.352558,0.303950,0.204237
799,363400733,-0.376512,0.536273,0.642187,-0.397808,-0.471442,0.453293,0.216455
800,363434067,-0.378793,0.537229,0.640962,-0.396325,-0.331535,0.592711,0.394761
801,363467401,-0.380964,0.538555,0.639490,-0.394819,-0.070530,0.399827,0.113482
802,363500735,-0.382710,0.539944,0.638324,-0.393118,0.126486,0.082458,0.060744
803,363534069,-0.383767,0.541217,0.637498,-0.391674,-0.077917,0.048737,0.048982
804,363567403,-0.384365,0.542059,0.637034,-0.390677,-0.315322,0.227600,0.010172
805,363600737,-0.385244,0.542533,0.636572,-0.389905,-0.606208,0.286200,0.127687
806,363634071,-0.386971,0.542567,0.635868,-0.389297,-0.526547,0.446809,0.187515
807,363667405,-0.389193,0.542130,0.634963,-0.389168,-0.426317,0.518779,0.236350
808,363700739,-0.391156,0.542002,0.633946,-0.389034,-0.112760,0.476044,0.158711
809,363734073,-0.392434,0.542380,0.633098,-0.388602,0.030600,0.181832,0.314137
810,363767407,-0.393421,0.542860,0.632388,-0.388089,0.171988,0.102608,0.296134
811,363800741,-0.393708,0.542604,0.632493,-0.387986,0.160908,0.078243,0.200817
812,363834075,-0.393230,0.540904,0.633856,-0.388618,0.017791,0.010112,0.095955
813,363867409,-0.392119,0.538017,0.636146,-0.390006,0.080143,-0.044448,-0.032699
814,363900743,-0.391015,0.536250,0.637730,-0.390959,0.239546,-0.065083,0.179137
815,363934077,-0.390686,0.533661,0.638846,-0.393003,-0.667765,0.751754,0.472433
816,363967411,-0.388847,0.529934,0.640559,-0.397063,-0.451613,0.420768,-0.052378
817,364000745,-0.388162,0.528071,0.641365,-0.398909,0.305046,-0.346271,0.266301
818,364034079,-0.387839,0.526518,0.642116,-0.400065,0.720952,-0.373386,-0.164195
819,364067413,-0.388355,0.526702,0.641661,-0.400052,0.705533,-0.214774,-0.430911
820,364100747,-0.386370,0.526863,0.642170,-0.400946,0.456577,-0.900326,0.049799
821,364134081,-0.383179,0.526762,0.643682,-0.401715,0.654045,-0.657440,0.174154
822,364167415,-0.379501,0.525739,0.645755,-0.403216,0.437053,-0.034591,-0.173629
823,364200749,-0.375342,0.524162,0.648379,-0.404948,-0.037013,-0.014492,0.048791
824,364234083,-0.371696,0.522739,0.650593,-0.406595,-0.185358,0.047123,0.465359
825,364267417,-0.368796,0.521559,0.652168,-0.408225,-0.386481,0.046233,0.303751
826,364300751,-0.366415,0.520287,0.653337,-0.410119,-0.388830,0.058389,0.250735
827,364334085,-0.365157,0.520101,0.653196,-0.411698,0.057015,-0.150673,0.295506
828,364367419,-0.364436,0.520732,0.652188,-0.413135,0.567124,-0.129704,-0.030956
829,364400753,-0.363769,0.521402,0.651398,-0.414125,0.864017,-0.057499,0.021070
830,364434087,-0.362978,0.521589,0.651041,-0.415142,0.523432,-0.171664,0.508861
831,364467421,-0.362055,0.522764,0.650418,-0.415447,0.655706,-0.489861,0.114845
832,364500755,-0.360390,0.524041,0.650045,-0.415870,0.413963,-0.532349,0.135180
833,364534089,-0.358590,0.525303,0.649583,-0.416553,0.169032,-0.398748,0.185046
834,364567423,-0.356945,0.526784,0.648981,-0.417035,0.297499,-0.111471,0.055239
835,364600757,-0.355406,0.528401,0.648284,-0.417387,0.134862,0.001532,0.066656
836,364634091,-0.354087,0.529914,0.647687,-0.417517,0.123253,0.109326,-0.063519
837,364667425,-0.352986,0.531433,0.647122,-0.417395,0.040027,0.077443,-0.097032
838,364700759,-0.352122,0.533247,0.646327,-0.417043,-0.027650,-0.043396,0.186702
839,364734093,-0.351377,0.535156,0.645370,-0.416708,-0.064778,-0.083867,0.182937
840,364767427,-0.350914,0.536589,0.644482,-0.416628,-0.135731,0.330235,0.065166
841,364800761,-0.351198,0.537789,0.643625,-0.416167,-0.188448,0.275114,0.199161
842,364834095,-0.352093,0.539325,0.642347,-0.415397,-0.146264,0.009905,0.056450
843,364867429,-0.353428,0.540595,0.640946,-0.414777,-0.154915,0.109097,0.158686
844,364900763,-0.355441,0.542069,0.639159,-0.413889,-0.062582,-0.111825,0.227571
845,364934097,-0.357388,0.543710,0.637347,-0.412852,0.193768,-0.259790,0.180802
846,364967431,-0.359358,0.545283,0.635522,-0.411880,0.173688,-0.196592,0.153389
847,365000765,-0.361384,0.546567,0.633827,-0.411017,0.143586,-0.147829,0.215274
848,365034099,-0.363313,0.548237,0.631983,-0.409930,0.371194,-0.278197,-0.027700
849,365067433,-0.365042,0.550116,0.630065,-0.408828,0.235863,-0.324201,0.050777
850,365100767,-0.366631,0.551631,0.628325,-0.408041,0.114171,-0.157206,-0.031320
851,365134101,-0.368242,0.552724,0.626774,-0.407498,-0.049671,0.111521,0.232950
852,365167435,-0.370191,0.553397,0.625224,-0.407199,-0.164567,0.258958,0.335959
853,365200769,-0.372680,0.554385,0.623355,-0.406449,-0.008607,0.086703,0.051603
854,365234103,-0.375089,0.555612,0.621361,-0.405610,0.284865,-0.145120,-0.071924
855,365267437,-0.377094,0.556496,0.619652,-0.405153,0.414325,-0.481239,0.295867
856,365300771,-0.378351,0.556588,0.618734,-0.405257,0.485014,-0.564358,0.187793
857,365334105,-0.378462,0.556833,0.618458,-0.405239,0.700389,-0.326197,0.070207
858,365367439,-0.377705,0.557644,0.618311,-0.405055,0.686552,-0.297835,-0.310433
859,365400773,-0.376721,0.559062,0.617886,-0.404664,0.328537,-0.289266,-0.107800
860,365434107,-0.375757,0.560431,0.617448,-0.404336,0.037502,0.052279,-0.003084
861,365467441,-0.375207,0.561386,0.617167,-0.403949,-0.081434,0.461101,0.150241
862,365500775,-0.375189,0.561706,0.617223,-0.403436,-0.359045,0.553854,0.041950
863,365534109,-0.374263,0.561595,0.618008,-0.403249,-0.485435,0.423081,0.241150
864,365567443,-0.372235,0.562431,0.619002,-0.402437,0.478504,0.232325,-0.174253
865,365600777,-0.371938,0.564862,0.618791,-0.399621,0.564493,0.310719,0.293146
866,365634111,-0.371422,0.566532,0.619354,-0.396855,-0.211942,-0.535093,0.018164
867,365667445,-0.369531,0.566437,0.621134,-0.395972,-1.023755,-1.176010,0.171715
868,365700779,-0.367410,0.563617,0.624289,-0.397006,-1.718134,0.036830,0.303226
869,365734113,-0.365792,0.558700,0.628921,-0.398138,-1.640812,0.524193,0.540358
870,365767447,-0.364693,0.552624,0.633702,-0.400042,-0.873149,0.560918,0.098646
871,365800781,-0.367415,0.548443,0.635583,-0.400321,-0.328603,0.078842,0.318984
872,365834115,-0.371664,0.547826,0.635109,-0.397987,0.759599,-1.124858,-0.181132
873,365867449,-0.373456,0.547875,0.635406,-0.395762,1.024912,-1.989910,0.143628
874,365900783,-0.373412,0.545327,0.637870,-0.395360,0.798046,-1.358078,-0.522319
875,365934117,-0.372576,0.540998,0.641918,-0.395545,0.212453,-0.387613,0.209568
876,365967451,-0.371460,0.537081,0.645669,-0.395826,-0.100423,0.391654,0.324824
877,366000785,-0.371525,0.533482,0.648496,-0.396012,-0.625922,0.760825,0.146711
878,366034119,-0.374001,0.530490,0.649781,-0.395592,-1.026814,0.949061,0.445535
879,366067453,-0.378380,0.528583,0.649398,-0.394609,-0.675019,0.861495,0.963467
880,366100787,-0.384320,0.527697,0.647573,-0.393051,0.048976,0.371673,0.614076
881,366134121,-0.390959,0.527280,0.645093,-0.391135,0.604885,-0.203209,-0.002083
882,366167455,-0.395965,0.526905,0.643180,-0.389753,0.633891,-0.367499,0.261094
883,366200789,-0.398960,0.526742,0.641937,-0.388967,0.591483,-0.394254,-0.130783
884,366234123,-0.401547,0.526748,0.640954,-0.387917,0.732621,-0.039855,-0.296032
885,366267457,-0.402941,0.525574,0.641373,-0.387371,0.619984,0.228015,0.008095
886,366300791,-0.404181,0.524108,0.641912,-0.387173,0.159627,0.937074,0.629132
887,366334125,-0.403975,0.523473,0.643177,-0.386146,0.226431,0.232753,0.093537
888,366367459,-0.404882,0.526460,0.642000,-0.383082,0.268543,-0.475993,-0.317336
889,366400793,-0.403445,0.528851,0.641239,-0.382579,-0.922001,-0.200904,-0.098652
890,366434127,-0.400651,0.528556,0.642413,-0.383950,-1.093434,0.721174,-0.094679
891,366467461,-0.400035,0.528594,0.642874,-0.383768,0.132279,0.824007,-0.176034
892,366500795,-0.400735,0.529171,0.642419,-0.383004,0.162682,0.356482,0.372809
893,366534129,-0.401116,0.530488,0.641670,-0.382039,0.031152,-0.063800,0.518364
894,366567463,-0.401359,0.531591,0.641108,-0.381192,-0.014199,0.049163,0.202606
895,366600797,-0.401664,0.531774,0.640799,-0.381135,0.137888,0.067820,-0.204159
896,366634131,-0.401712,0.532567,0.640304,-0.380810,-0.072816,0.453340,-0.611207
897,366667465,-0.401159,0.534062,0.639870,-0.380026,-0.230409,0.080359,-0.569655
898,366700799,-0.400196,0.534776,0.639977,-0.379858,-0.439865,-0.103795,-0.236348
899,366734133,-0.398464,0.534392,0.640990,-0.380511,-0.272059,-0.285361,-0.006208
900,366767467,-0.395506,0.534039,0.642495,-0.381554,-0.085029,-0.010037,0.216399
901,366800801,-0.391878,0.533948,0.643842,-0.383150,-0.257767,0.237436,0.160174
902,366834135,-0.388224,0.534685,0.644246,-0.385158,-0.725220,0.235300,-0.066335
903,366867469,-0.383906,0.535842,0.644169,-0.387996,-0.584591,0.012888,-0.257042
904,366900803,-0.379493,0.537009,0.644206,-0.390655,0.346941,1.850302,0.741753
905,366934137,-0.376815,0.536860,0.644596,-0.392802,-0.151836,1.322214,0.295656
906,366967471,-0.372894,0.535114,0.647188,-0.394659,0.076610,-0.100638,0.738425
907,367000805,-0.367487,0.532586,0.650077,-0.398386,-0.027209,-0.695821,0.992024
908,367034139,-0.362855,0.531176,0.650691,-0.403478,0.448618,0.306568,0.048985
909,367067473,-0.358351,0.532296,0.650428,-0.406442,0.834792,0.578761,-0.125058
910,367100807,-0.352799,0.533289,0.651199,-0.408755,0.586694,0.024695,0.296623
911,367134141,-0.345768,0.531963,0.653521,-0.412766,-0.092734,-0.397638,0.281662
912,367167475,-0.338261,0.529946,0.655942,-0.417711,-0.368573,-0.258991,0.025219
913,367200809,-0.331504,0.528969,0.657391,-0.422065,-0.294519,0.202284,0.075339
914,367234143,-0.326133,0.529083,0.657767,-0.425507,-0.156535,0.256611,0.033339
915,367267477,-0.321090,0.529323,0.658117,-0.428492,-0.198432,-0.144348,0.052400
916,367300811,-0.315780,0.528651,0.659166,-0.431643,-0.041445,-0.670920,0.189173
917,367334145,-0.310097,0.527030,0.660582,-0.435564,0.310915,-0.485314,-0.046831
918,367367479,-0.304750,0.525906,0.661948,-0.438611,0.559089,-0.251276,-0.068586
919,367400813,-0.299911,0.525193,0.663199,-0.440906,0.276883,-0.151426,-0.105379
920,367434147,-0.295537,0.524711,0.664458,-0.442535,-0.075517,-0.709840,0.082743
921,367467481,-0.291119,0.523026,0.666049,-0.445059,-0.299125,-0.868704,0.171683
922,367500815,-0.286385,0.520257,0.668089,-0.448306,-0.151791,-1.038022,0.113954
923,367534149,-0.281184,0.516042,0.670762,-0.452460,-0.044789,-0.580966,0.223576
924,367567483,-0.276016,0.511194,0.673779,-0.456643,0.002264,0.051234,0.028164
925,367600817,-0.271341,0.507059,0.676554,-0.459940,-0.268637,-0.006314,0.209201
926,367634151,-0.267631,0.503671,0.678801,-0.462519,-0.192280,-0.002650,0.066383
927,367667485,-0.264539,0.500721,0.680704,-0.464699,0.146806,-0.082921,0.104947
928,367700819,-0.261924,0.498067,0.682582,-0.466275,0.121821,-0.018064,0.066710
929,367734153,-0.260014,0.496257,0.684282,-0.466781,0.384184,-0.499348,0.106304
930,367767487,-0.258118,0.494350,0.686037,-0.467281,0.387658,-0.527297,0.188502
931,367800821,-0.256561,0.492732,0.687678,-0.467436,0.063051,0.078153,0.066209
932,367834155,-0.256242,0.492188,0.688754,-0.466599,-0.144793,0.117950,0.134156
933,367867489,-0.257157,0.492427,0.689284,-0.465058,-0.536826,-0.111542,0.112241
934,367900823,-0.259158,0.492772,0.689412,-0.463390,-0.675225,-0.094123,0.270247
935,367934157,-0.262735,0.492756,0.688935,-0.462100,-0.543577,0.359957,0.005806
936,367967491,-0.267538,0.493230,0.687889,-0.460393,-0.289454,0.075061,-0.024379
937,368000825,-0.273521,0.494251,0.686161,-0.458357,-0.198538,-0.721439,0.158496
938,368034159,-0.279536,0.495037,0.684349,-0.456585,0.269482,-0.873236,0.254336
939,368067493,-0.285711,0.496416,0.682451,-0.454100,1.200587,-0.160755,-0.016761
940,368100827,-0.291750,0.499581,0.680207,-0.450139,1.166755,0.019088,0.062702
941,368134161,-0.297491,0.503484,0.677757,-0.445705,0.528073,0.141065,0.127666
942,368167495,-0.303628,0.508067,0.674878,-0.440707,0.091953,-0.045659,-0.047588
943,368200829,-0.310203,0.512954,0.671617,-0.435418,-0.250387,-0.257036,0.064425
944,368234163,-0.316691,0.517784,0.668087,-0.430432,-0.452114,0.007612,0.103359
945,368267497,-0.323492,0.522740,0.664181,-0.425400,-0.674255,0.397468,-0.034199
946,368300831,-0.331035,0.527801,0.660009,-0.419804,-0.775725,0.456044,0.068919
947,368334165,-0.339035,0.532459,0.655804,-0.414088,-0.878583,0.347243,0.086956
948,368367499,-0.346815,0.536563,0.651888,-0.408493,-0.789110,0.101880,0.135289
949,368400833,-0.354083,0.540632,0.648264,-0.402619,0.006383,-0.259858,0.232160
950,368434167,-0.359808,0.544198,0.645427,-0.397261,0.220806,-0.509674,0.106244
951,368467501,-0.363553,0.546783,0.643906,-0.392743,0.136095,-0.430316,-0.011008
952,368500835,-0.365594,0.547619,0.644167,-0.389241,-0.208515,-0.154492,0.133739
953,368534169,-0.366663,0.546560,0.645778,-0.387048,-0.586175,0.171764,0.502217
954,368567503,-0.367784,0.544292,0.647849,-0.385718,-0.669340,0.468866,0.684608
955,368600837,-0.369679,0.542221,0.649275,-0.384422,-0.215915,0.983022,0.506933
956,368634171,-0.373174,0.542112,0.648906,-0.381815,0.138372,0.207796,0.166762
957,368667505,-0.376883,0.542907,0.647813,-0.378886,0.284991,-0.213427,0.284487
958,368700839,-0.380186,0.542659,0.647124,-0.377117,0.161101,-0.345919,0.050343
959,368734173,-0.382387,0.540824,0.647819,-0.376332,0.225949,-0.480146,-0.106728
960,368767507,-0.382766,0.537602,0.650190,-0.376474,0.445192,-0.376498,0.076152
961,368800841,-0.382288,0.534236,0.652990,-0.376904,0.462045,-0.076006,-0.012614
962,368834175,-0.381421,0.531677,0.655618,-0.376839,0.636164,-0.152941,-0.011570
963,368867509,-0.379668,0.529589,0.658500,-0.376523,0.777515,-0.191911,-0.076967
964,368900843,-0.377722,0.527607,0.661388,-0.376201,0.693307,-0.225334,-0.441656
965,368934177,-0.375460,0.525683,0.664506,-0.375665,0.615327,-0.126877,-0.415648
966,368967511,-0.372442,0.524158,0.667741,-0.375063,0.407146,-0.095177,0.404696
967,369000845,-0.369093,0.522896,0.670412,-0.375370,0.105778,0.177085,0.291334
968,369034179,-0.366971,0.522163,0.671955,-0.375711,-0.221537,0.694597,0.069642
969,369067513,-0.366542,0.521891,0.672567,-0.375414,-0.313319,0.843733,0.329752
970,369100847,-0.366776,0.521325,0.672849,-0.375466,-0.397774,0.308817,0.374487
971,369134181,-0.368038,0.520657,0.672325,-0.376097,-0.432091,0.060604,0.157149
972,369167515,-0.370362,0.520281,0.670879,-0.376917,-0.062362,0.404458,-0.178404
973,369200849,-0.373081,0.520575,0.669055,-0.377073,0.634355,0.400140,-0.038645
974,369234183,-0.374655,0.520895,0.667759,-0.377365,0.906767,-0.242758,0.413781
975,369267517,-0.374983,0.520963,0.666796,-0.378647,0.698319,-0.294122,-0.211640
976,369300851,-0.374980,0.521947,0.665778,-0.379087,0.474508,-0.084060,0.150021
977,369334185,-0.374174,0.522894,0.665178,-0.379630,0.164647,0.193243,0.160407
978,369367519,-0.372971,0.523516,0.664750,-0.380705,0.077094,-0.019533,-0.261809
979,369400853,-0.372792,0.524500,0.663614,-0.381506,0.019665,0.256794,-0.196898
980,369434187,-0.372968,0.526349,0.661882,-0.381798,0.210123,0.428002,0.303461
981,369467521,-0.373285,0.529222,0.659288,-0.382003,0.349079,0.277095,0.247689
982,369500855,-0.373465,0.533462,0.656299,-0.381078,0.378619,0.133532,0.181038
983,369534189,-0.372700,0.538602,0.653261,-0.379814,0.023398,-0.177662,-0.070724
984,369567523,-0.370625,0.543173,0.650678,-0.379769,-0.453176,-0.252999,0.042167
985,369600857,-0.369629,0.546532,0.647909,-0.380652,-0.231467,0.161880,-0.281417
986,369634191,-0.369653,0.549459,0.645081,-0.381218,-0.097902,0.176910,1.137214
987,369667525,-0.369774,0.551690,0.642172,-0.382787,-0.053802,0.355305,0.626469
988,369700859,-0.370634,0.554477,0.639149,-0.382987,0.112693,-0.414410,0.104489
989,369734193,-0.373709,0.558667,0.634957,-0.380877,-0.878445,0.471854,0.674965
990,369767527,-0.376128,0.557871,0.631838,-0.384829,-1.593205,0.246416,-0.493116
991,369800861,-0.377669,0.556661,0.630038,-0.388010,-0.210856,0.311061,-0.279078
992,369834195,-0.378550,0.555597,0.628355,-0.391391,0.719485,-0.003034,0.842203
993,369867529,-0.376864,0.555871,0.627055,-0.394700,0.921745,0.145912,-0.047437
994,369900863,-0.376013,0.557553,0.624855,-0.396623,0.311815,0.092025,-0.069024
995,369934197,-0.374988,0.559311,0.622625,-0.398621,-0.602915,-0.128612,0.108525
996,369967531,-0.372922,0.559753,0.621268,-0.402041,-0.973835,-0.086694,0.252167
997,370000865,-0.371473,0.558529,0.620440,-0.406340,-0.319510,0.099081,-0.054371
998,370034199,-0.370888,0.556754,0.619456,-0.410787,0.232512,0.023766,-0.003761
999,370067533,-0.369361,0.555614,0.618653,-0.414896,0.463000,-0.144179,0.276093
1000,370100867,-0.367357,0.554652,0.617934,-0.419014,0.595451,-0.196900,-0.194457
1001,370134201,-0.365050,0.553405,0.617764,-0.422911,0.325857,-0.272035,0.114635
1002,370167535,-0.361783,0.552910,0.618124,-0.425831,0.581004,-0.294235,-0.126159
1003,370200869,-0.357959,0.553106,0.618861,-0.427733,0.541004,-0.751857,0.053583
1004,370234203,-0.352363,0.552493,0.621094,-0.429930,0.053060,-0.685671,-0.027745
1005,370267537,-0.346051,0.550085,0.624665,-0.432960,-0.434796,0.093374,0.072295
1006,370300871,-0.340135,0.546780,0.628609,-0.436115,-0.594324,0.354916,0.193463
1007,370334205,-0.335142,0.544056,0.631906,-0.438615,-0.503202,0.361894,0.152782
1008,370367539,-0.331221,0.542539,0.634042,-0.440386,-0.596746,-0.029453,0.189070
1009,370400873,-0.328238,0.541315,0.635413,-0.442147,-0.498674,0.019104,0.071620
1010,370434207,-0.325854,0.540066,0.636446,-0.443948,-0.689566,0.002964,0.162064
1011,370467541,-0.323966,0.538432,0.637579,-0.445685,-0.506932,-0.308218,0.200556
1012,370500875,-0.322689,0.536452,0.638470,-0.447720,-0.253827,-0.405487,0.110374
1013,370534209,-0.321817,0.534948,0.639084,-0.449268,0.104557,-0.464931,0.081368
1014,370567543,-0.320890,0.533450,0.639879,-0.450578,0.276857,-0.332075,0.052644
1015,370600877,-0.320097,0.532120,0.640954,-0.451187,0.345179,-0.499549,0.102432
1016,370634211,-0.319126,0.530610,0.642370,-0.451639,0.215720,-0.522012,0.055979
1017,370667545,-0.318122,0.528954,0.644017,-0.451944,-0.054017,-0.221555,0.097111
1018,370700879,-0.317714,0.527670,0.645437,-0.451706,-0.055557,-0.153607,0.072567
1019,370734213,-0.317573,0.526611,0.646732,-0.451189,-0.050001,-0.308123,0.121353
1020,370767547,-0.317857,0.525465,0.647922,-0.450617,-0.138390,-0.185675,0.122393
1021,370800881,-0.318768,0.524490,0.648756,-0.449909,-0.005179,-0.068253,0.124113
1022,370834215,-0.320199,0.524096,0.649151,-0.448781,0.211979,-0.084820,0.083855
1023,370867549,-0.321670,0.524249,0.649419,-0.447159,0.218137,-0.160768,0.065857
1024,370900883,-0.323382,0.524742,0.649543,-0.445162,0.155988,-0.032013,0.025156
1025,370934217,-0.325303,0.525064,0.649627,-0.443256,-0.016851,-0.026490,0.160628
1026,370967551,-0.327559,0.525839,0.649311,-0.441134,0.052991,0.209998,0.122414
1027,371000885,-0.330412,0.527827,0.648241,-0.438196,0.075425,-0.051542,-0.036421
1028,371034219,-0.333245,0.529816,0.647342,-0.434967,-0.354134,-0.190740,0.211887
1029,371067553,-0.336097,0.531258,0.646706,-0.431951,-0.432923,-0.082952,-0.020709
1030,371100887,-0.339268,0.532722,0.645944,-0.428796,-0.514632,-0.123295,-0.183979
1031,371134221,-0.342784,0.533817,0.645129,-0.425855,-0.581713,0.083555,0.394494
1032,371167555,-0.346684,0.535048,0.643872,-0.423046,-0.560909,0.112729,0.068192
1033,371200889,-0.351148,0.536604,0.642333,-0.419719,-0.405763,0.054389,0.197330
1034,371234223,-0.355994,0.538461,0.640662,-0.415795,-0.202823,-0.312377,0.007078
1035,371267557,-0.359956,0.539367,0.639746,-0.412608,-0.302515,-0.310976,-0.106888
1036,371300891,-0.363262,0.539272,0.639793,-0.409752,-0.093431,-0.039828,-0.053893
1037,371334225,-0.366035,0.538731,0.640543,-0.406813,-0.004848,-0.049192,0.288640
1038,371367559,-0.368289,0.538560,0.641483,-0.403512,0.292833,-0.377998,0.032547
1039,371400893,-0.369168,0.538249,0.643044,-0.400628,-0.042409,0.021268,0.073610
1040,371434227,-0.369416,0.538205,0.644688,-0.397806,-0.032400,0.484280,0.005237
1041,371467561,-0.370361,0.539477,0.645473,-0.393914,-0.117794,0.281784,0.064276
1042,371500895,-0.371725,0.540741,0.646165,-0.389738,-0.190726,0.112446,0.255738
1043,371534229,-0.374355,0.541867,0.646146,-0.385668,-0.333843,0.125198,0.576773
1044,371567563,-0.378135,0.541081,0.646160,-0.383051,-0.771651,0.367591,0.971983
1045,371600897,-0.382786,0.538418,0.646345,-0.381868,-0.117390,0.049801,0.633575
1046,371634231,-0.386707,0.536532,0.646280,-0.380683,0.177275,0.186794,0.618876
1047,371667565,-0.390452,0.535004,0.645970,-0.379534,0.488549,0.261075,0.045693
1048,371700899,-0.392888,0.532931,0.646625,-0.378820,0.313042,0.150119,-0.036872
1049,371734233,-0.394945,0.530144,0.648138,-0.378006,0.351771,-0.220987,0.044633
1050,371767567,-0.396487,0.526886,0.650308,-0.377218,0.521936,-0.430478,0.229010
1051,371800901,-0.397816,0.524448,0.652064,-0.376184,0.506266,-0.276415,-0.261115
1052,371834235,-0.397432,0.523609,0.653794,-0.374753,0.295783,-0.089944,-0.471370
1053,371867569,-0.395455,0.523717,0.655771,-0.373236,-0.031859,0.218735,-0.548289
1054,371900903,-0.393621,0.523796,0.657692,-0.371681,-0.133625,0.069180,-0.299393
1055,371934237,-0.392632,0.523447,0.659458,-0.370087,-0.154414,0.085767,0.043210
1056,371967571,-0.391259,0.523281,0.661283,-0.368514,-0.062291,-0.196215,0.497293
1057,372000905,-0.389332,0.524135,0.662543,-0.367077,-0.144158,0.115442,0.474948
1058,372034239,-0.387674,0.525375,0.663268,-0.365747,-0.321399,0.298214,0.205138
1059,372067573,-0.386204,0.526234,0.664020,-0.364701,-0.326505,0.536221,0.038716
1060,372100907,-0.385251,0.526176,0.665074,-0.363872,-0.429805,0.459283,-0.117193
1061,372134241,-0.384753,0.525307,0.666742,-0.362600,0.080496,0.130279,-0.354821
1062,372167575,-0.383756,0.523815,0.668876,-0.361883,0.108747,0.192156,0.315713
1063,372200909,-0.382443,0.521805,0.671376,-0.361548,0.545325,-0.079256,0.468289
1064,372234243,-0.381611,0.519328,0.673610,-0.361838,0.581727,-0.086769,-0.122672
1065,372267577,-0.380644,0.518837,0.674838,-0.361273,0.534315,0.246844,0.122057
1066,372300911,-0.379586,0.520015,0.675115,-0.360173,0.282914,0.004869,0.078825
1067,372334245,-0.378609,0.521661,0.674761,-0.359482,-0.030984,-0.514680,0.056789
1068,372367579,-0.377470,0.523080,0.674385,-0.359324,0.250025,0.017888,0.436598
1069,372400913,-0.377198,0.525057,0.673353,-0.358661,0.452828,0.105095,0.354190
1070,372434247,-0.377003,0.527537,0.671987,-0.357788,0.348110,-0.186402,0.157670
1071,372467581,-0.376183,0.530245,0.670612,-0.357226,0.243740,-0.141068,-0.104051
1072,372500915,-0.375823,0.533074,0.668915,-0.356577,0.180598,0.041233,0.055541
1073,372534249,-0.375547,0.534971,0.667578,-0.356531,0.192686,0.080754,-0.109730
1074,372567583,-0.374819,0.536514,0.666642,-0.356731,0.389767,0.049883,-0.014839
1075,372600917,-0.374209,0.538504,0.665398,-0.356695,0.402981,0.012800,0.157139
1076,372634251,-0.373801,0.540460,0.663882,-0.356990,0.211742,-0.053432,-0.173755
1077,372667585,-0.373415,0.542366,0.662381,-0.357291,0.133030,-0.132170,-0.016541
1078,372700919,-0.372861,0.544440,0.660727,-0.357778,0.057289,-0.017112,0.547401
1079,372734253,-0.372602,0.546146,0.658775,-0.359044,-0.287443,-0.010401,-0.030702
1080,372767587,-0.372483,0.547756,0.656866,-0.360211,-0.021582,0.284618,-0.155958
1081,372800921,-0.371945,0.550191,0.655085,-0.360299,0.423423,0.449850,0.485324
1082,372834255,-0.370751,0.552102,0.653865,-0.360822,0.476013,-0.210011,0.272943
1083,372867589,-0.369851,0.553926,0.652310,-0.361764,-0.013238,-0.225088,0.009433
1084,372900923,-0.368602,0.556581,0.650307,-0.362570,0.082914,0.016958,0.147701
1085,372934257,-0.366617,0.559622,0.648325,-0.363449,0.183995,-0.006565,0.020992
1086,372967591,-0.364185,0.561481,0.647346,-0.364770,-0.031620,-0.097501,-0.020199
1087,373000925,-0.361691,0.562047,0.647096,-0.366816,-0.129933,0.020677,0.125758
1088,373034259,-0.359278,0.562998,0.646639,-0.368531,-0.057346,0.108556,0.398995
1089,373067593,-0.356848,0.564445,0.645732,-0.370265,-0.219284,-0.047745,0.018921
1090,373100927,-0.354720,0.565827,0.644739,-0.371929,-0.312750,0.104702,0.280682
1091,373134261,-0.352818,0.566697,0.643925,-0.373818,-0.198523,0.140410,0.282107
1092,373167595,-0.350798,0.566592,0.643784,-0.376114,-0.103748,-0.157045,-0.183785
1093,373200929,-0.348282,0.566122,0.644078,-0.378647,0.212984,-0.250512,0.012555
1094,373234263,-0.345237,0.566566,0.644197,-0.380564,0.367640,-0.439510,0.359241
1095,373267597,-0.341489,0.566398,0.644800,-0.383166,0.013287,-0.483951,0.006139
1096,373300931,-0.336833,0.564878,0.646643,-0.386412,-0.383155,-0.091500,0.009034
1097,373334265,-0.332506,0.562696,0.648864,-0.389607,-0.579333,0.241303,0.388597
1098,373367599,-0.328871,0.560475,0.650784,-0.392680,-0.572720,0.328346,0.084487
1099,373400933,-0.326192,0.558529,0.652202,-0.395324,-0.360045,0.262983,0.972454
1100,373434267,-0.326389,0.557705,0.652092,-0.396507,-0.111107,0.698979,0.453064
1101,373467601,-0.327794,0.555970,0.651958,-0.398000,-1.416946,-0.244052,-0.300179
1102,373500935,-0.331092,0.552025,0.651942,-0.400779,0.852004,0.286359,-0.606868
1103,373534269,-0.335097,0.551002,0.650144,-0.401777,1.673936,-1.071084,0.027381
1104,373567603,-0.335498,0.550302,0.649601,-0.403278,1.226355,-1.783686,0.038659
1105,373600937,-0.332876,0.546524,0.652150,-0.406462,0.206757,-0.795518,0.281989
1106,373634271,-0.329655,0.542202,0.655648,-0.409238,0.150530,-0.217265,0.012840
1107,373667605,-0.327037,0.538565,0.658423,-0.411678,-0.058784,-0.060615,0.074548
1108,373700939,-0.325088,0.536138,0.660457,-0.413130,-0.070257,0.062362,-0.106036
1109,373734273,-0.323947,0.533320,0.662400,-0.414560,-0.342055,-0.034897,-0.047021
1110,373767607,-0.322422,0.529541,0.664943,-0.416517,-0.548152,0.106910,0.406207
1111,373800941,-0.320809,0.525830,0.667321,-0.418655,-0.636421,0.171535,0.219161
1112,373834275,-0.320690,0.523609,0.668446,-0.419734,-0.366239,0.274856,0.170783
1113,373867609,-0.321639,0.523092,0.668367,-0.419778,0.099304,-0.081923,0.080680
1114,373900943,-0.322624,0.522816,0.668221,-0.419599,0.106717,-0.156139,-0.024442
1115,373934277,-0.323894,0.522497,0.668160,-0.419114,-0.104447,-0.181311,-0.022494
1116,373967611,-0.325580,0.522236,0.668040,-0.418324,-0.407741,-0.355770,0.082922
1117,374000945,-0.327381,0.521558,0.668090,-0.417685,-0.569021,-0.429622,0.095686
1118,374034279,-0.329795,0.520223,0.668155,-0.417345,-0.428241,-0.315888,0.096527
1119,374067613,-0.333124,0.519036,0.667863,-0.416646,0.091163,-0.147471,0.105531
1120,374100947,-0.336877,0.518877,0.667167,-0.414939,0.513282,-0.184363,-0.021951
1121,374134281,-0.340448,0.519307,0.666499,-0.412553,0.316505,-0.228440,0.015108
1122,374167615,-0.344293,0.519584,0.665785,-0.410159,-0.048182,-0.172422,-0.031754
1123,374200949,-0.348958,0.519963,0.664634,-0.407595,-0.163991,-0.047798,0.226064
1124,374234283,-0.354433,0.520806,0.662785,-0.404796,0.210122,-0.103116,0.108123
1125,374267617,-0.360442,0.522947,0.659998,-0.401267,0.528537,-0.337904,-0.082921
1126,374300951,-0.366307,0.526376,0.656510,-0.397175,0.396146,-0.543992,-0.150031
1127,374334285,-0.371469,0.530350,0.652969,-0.392908,0.102199,-0.300309,0.246419
1128,374367619,-0.376042,0.533858,0.649876,-0.388915,-0.202836,0.076707,0.350832
1129,374400953,-0.380482,0.537040,0.647017,-0.384963,-0.166057,0.206970,0.301041
1130,374434287,-0.385489,0.540787,0.643314,-0.380919,-0.080581,0.237868,0.219598
1131,374467621,-0.390853,0.545615,0.638534,-0.376587,-0.282651,0.176743,0.304873
1132,374500955,-0.395821,0.550522,0.633602,-0.372566,-0.491059,0.175427,0.377450
1133,374534289,-0.399808,0.554077,0.629576,-0.369853,-0.436369,0.171402,0.403735
1134,374567623,-0.403146,0.556192,0.626454,-0.368355,-0.394431,0.505133,0.533388
1135,374600957,-0.406003,0.558000,0.623555,-0.367399,-0.432047,0.771421,0.701573
1136,374634291,-0.408914,0.560144,0.620046,-0.366847,-0.403015,1.141557,0.351012
1137,374667625,-0.412966,0.563638,0.615513,-0.364582,-0.132933,0.961279,-0.249786
1138,374700959,-0.417244,0.566708,0.611467,-0.361750,-0.385830,-0.004539,-0.213588
1139,374734293,-0.418650,0.566991,0.610395,-0.361493,0.096868,-0.544207,-0.134489
1140,374767627,-0.416890,0.566405,0.611676,-0.362279,1.112662,-0.815398,-0.677491
1141,374800961,-0.414395,0.566054,0.613243,-0.363041,0.389672,-0.042466,-0.709427
1142,374834295,-0.411909,0.565123,0.615747,-0.363081,0.077444,-0.036253,-0.137680
1143,374867629,-0.409170,0.562952,0.619330,-0.363457,0.035720,0.546718,-0.056458
1144,374900963,-0.405346,0.561275,0.622838,-0.364339,-0.321549,0.450472,0.190726
1145,374934297,-0.400811,0.560335,0.626059,-0.365282,-0.682022,0.470734,0.192733
1146,374967631,-0.397657,0.560262,0.627791,-0.365868,-0.658048,0.665013,0.229151
1147,375000965,-0.395237,0.560768,0.628556,-0.366401,-0.461194,0.451487,0.359223
1148,375034299,-0.391736,0.561137,0.629854,-0.367366,-0.257532,0.156904,0.256926
1149,375067633,-0.386945,0.560778,0.632116,-0.369103,-0.248236,-0.083018,0.332164
1150,375100967,-0.381750,0.559487,0.634868,-0.371738,-0.329995,0.363860,0.398604
1151,375134301,-0.377092,0.558230,0.637235,-0.374323,-0.327182,0.737903,0.358423
1152,375167635,-0.373655,0.558035,0.638608,-0.375718,-0.015154,0.983263,0.201764
1153,375200969,-0.371046,0.560100,0.638127,-0.376047,0.353262,0.676156,-0.237557
1154,375234303,-0.368696,0.564424,0.636588,-0.374500,0.297189,-0.496100,0.325978
1155,375267637,-0.365081,0.566496,0.636685,-0.374746,0.138300,-0.895647,0.086296
1156,375300971,-0.359163,0.565227,0.639169,-0.378139,-0.389787,-0.381847,0.035750
1157,375334305,-0.352503,0.562580,0.642736,-0.382283,-0.379892,0.202732,0.163393
1158,375367639,-0.347147,0.560422,0.645166,-0.386242,-0.522806,0.349811,0.270350
1159,375400973,-0.343044,0.559103,0.646434,-0.389683,-0.301614,0.147644,-0.039065
1160,375434307,-0.339501,0.557798,0.647507,-0.392862,-0.013383,-0.121144,-0.021955
1161,375467641,-0.336091,0.556600,0.648714,-0.395493,0.558635,-0.433643,-0.002621
1162,375500975,-0.332618,0.556086,0.649621,-0.397658,0.655883,-0.538127,-0.049196
1163,375534309,-0.328040,0.555177,0.651192,-0.400152,0.621456,-0.595860,0.182702
1164,375567643,-0.322321,0.553252,0.653774,-0.403243,0.487811,-0.446725,0.156364
1165,375600977,-0.316316,0.551117,0.656450,-0.406562,0.378975,-0.362168,0.035135
1166,375634311,-0.310640,0.549156,0.658898,-0.409621,0.288312,0.035505,0.301400
1167,375667645,-0.305425,0.547905,0.660732,-0.412256,0.168320,-0.184662,0.092437
1168,375700979,-0.300884,0.546746,0.662194,-0.414780,0.063354,-0.015684,0.071669
1169,375734313,-0.297946,0.546082,0.662924,-0.416606,0.368710,0.244781,0.161036
1170,375767647,-0.295675,0.545966,0.663207,-0.417922,0.191037,-0.100327,-0.002079
1171,375800981,-0.294290,0.545244,0.663484,-0.419400,-0.347054,-0.238344,0.112578
1172,375834315,-0.293992,0.544438,0.663596,-0.420476,-0.098754,-0.410673,0.105566
1173,375867649,-0.293917,0.544218,0.663386,-0.421146,0.120748,-0.794794,0.219314
1174,375900983,-0.293829,0.544283,0.663122,-0.421538,0.239458,-0.653981,0.185873
1175,375934317,-0.293586,0.543770,0.663290,-0.422106,0.410499,-0.397589,0.083982
1176,375967651,-0.293468,0.543051,0.663673,-0.422511,0.328433,0.041470,0.063107
1177,376000985,-0.294226,0.542799,0.663651,-0.422343,0.096566,0.200744,0.118320
1178,376034319,-0.296149,0.543328,0.662936,-0.421441,0.182738,0.056554,0.060526
1179,376067653,-0.298690,0.544414,0.661760,-0.420090,0.116381,-0.127303,0.083395
1180,376100987,-0.301856,0.545409,0.660595,-0.418368,0.192914,0.297738,0.086929
1181,376134321,-0.305635,0.546808,0.659506,-0.415505,0.315519,0.485569,0.079392
1182,376167655,-0.309426,0.548773,0.658558,-0.411595,0.115936,-0.382163,0.013316
1183,376200989,-0.313000,0.550023,0.657942,-0.408194,0.113226,-0.874593,0.015101
1184,376234323,-0.315996,0.550573,0.657604,-0.405682,0.169472,-0.926436,0.102717
1185,376267657,-0.317690,0.550401,0.657807,-0.404261,0.156282,-0.521536,0.097824
1186,376300991,-0.318832,0.549798,0.658398,-0.403218,0.185512,-0.187050,-0.028466
1187,376334325,-0.319902,0.549101,0.659195,-0.402016,0.004244,-0.229570,0.011375
1188,376367659,-0.320568,0.547559,0.660467,-0.401503,-0.263077,-0.035520,0.254277
1189,376400993,-0.321725,0.545078,0.661754,-0.401832,-0.543479,0.519786,0.114989
1190,376434327,-0.324265,0.543231,0.662140,-0.401657,-0.647640,0.666010,0.003221
1191,376467661,-0.327983,0.542788,0.661560,-0.400191,-0.353846,0.512472,0.352234
1192,376500995,-0.332218,0.542888,0.660532,-0.398255,0.071884,-0.151566,0.073777
1193,376534329,-0.335809,0.542765,0.659734,-0.396730,0.031405,-0.307632,0.131950
1194,376567663,-0.338118,0.541687,0.659753,-0.396211,0.047313,-0.231049,0.164729
1195,376600997,-0.340056,0.540468,0.659899,-0.395972,0.091437,0.093083,-0.011786
1196,376634331,-0.342151,0.540365,0.659493,-0.394984,-0.132719,0.133410,0.048832
1197,376667665,-0.344298,0.540728,0.658926,-0.393567,-0.186145,0.092454,0.147593
1198,376700999,-0.346592,0.540857,0.658254,-0.392497,-0.146590,0.236504,0.225101
1199,376734333,-0.348922,0.541119,0.657320,-0.391636,-0.090362,0.300134,0.086539
1200,376767667,-0.351290,0.541485,0.656266,-0.390781,-0.170513,0.303098,0.152310
1201,376801001,-0.353867,0.541812,0.655003,-0.390121,-0.152122,0.237349,0.211689
1202,376834335,-0.356480,0.541907,0.653820,-0.389593,-0.010747,0.265727,0.208176
1203,376867669,-0.358622,0.541334,0.653074,-0.389676,0.015637,0.223596,0.157032
1204,376901003,-0.360686,0.540820,0.652171,-0.389997,0.350837,0.183544,0.147079
1205,376934337,-0.362838,0.541586,0.650596,-0.389568,0.618841,0.185348,0.199556
1206,376967671,-0.364596,0.542879,0.648930,-0.388905,0.605554,-0.202914,-0.032342
1207,377001005,-0.366184,0.544128,0.647335,-0.388326,0.465164,-0.109610,0.065471
1208,377034339,-0.367644,0.545378,0.645638,-0.388019,0.311040,-0.102112,0.178447
1209,377067673,-0.368707,0.546532,0.643877,-0.388311,0.431846,-0.134220,0.385952
1210,377101007,-0.370274,0.548001,0.641522,-0.388648,0.451367,-0.175669,0.002474
1211,377134341,-0.372263,0.550015,0.638614,-0.388691,0.008532,-0.019490,-0.120826
1212,377167675,-0.373587,0.551115,0.636735,-0.388946,-0.220720,-0.152206,0.362104
1213,377201009,-0.373548,0.550335,0.636501,-0.390469,-0.329317,0.263194,0.334846
1214,377234343,-0.373256,0.549161,0.636706,-0.392062,-0.387471,0.364249,0.144571
1215,377267677,-0.373438,0.548904,0.636361,-0.392809,-0.271180,0.232050,-0.061485
1216,377301011,-0.373628,0.549401,0.635527,-0.393283,-0.414209,0.031288,0.112726
1217,377334345,-0.373772,0.549814,0.634678,-0.393940,-0.502610,-0.047739,0.185046
1218,377367679,-0.373760,0.549553,0.634202,-0.395079,-0.277068,0.107734,0.117218
1219,377401013,-0.373508,0.549027,0.634007,-0.396361,-0.050797,0.016046,0.084805
1220,377434347,-0.373176,0.548695,0.633858,-0.397370,0.023299,-0.191407,0.096611
1221,377467681,-0.372325,0.548216,0.634024,-0.398563,-0.089474,-0.253323,0.109569
1222,377501015,-0.370734,0.547255,0.634762,-0.400189,-0.191566,-0.149282,0.164798
1223,377534349,-0.369031,0.545614,0.635912,-0.402172,-0.239226,0.110721,0.068167
1224,377567683,-0.367650,0.544136,0.637011,-0.403698,0.073878,0.033144,0.076173
1225,377601017,-0.366291,0.543307,0.637854,-0.404717,0.003550,0.139139,0.063346
1226,377634351,-0.365028,0.543180,0.638345,-0.405255,-0.294515,-0.018291,-0.003751
1227,377667685,-0.363748,0.542673,0.639077,-0.405930,-0.417145,0.064770,0.079916
1228,377701019,-0.362564,0.541826,0.639910,-0.406808,-0.671858,0.136174,0.180222
1229,377734353,-0.361815,0.541244,0.640435,-0.407423,-0.361291,0.061328,0.093328
1230,377767687,-0.361121,0.540697,0.640894,-0.408043,-0.329420,0.062340,0.023265
1231,377801021,-0.360723,0.540381,0.641247,-0.408259,-0.180407,0.017548,0.144944
1232,377834355,-0.360271,0.540469,0.641446,-0.408228,-0.138318,-0.119250,0.043004
1233,377867689,-0.359416,0.540172,0.642096,-0.408353,-0.215663,-0.181447,0.195986
1234,377901023,-0.358252,0.539418,0.643164,-0.408692,-0.253167,0.065050,0.085909
1235,377934357,-0.357503,0.539102,0.643936,-0.408548,0.271800,-0.040441,-0.091997
1236,377967691,-0.356742,0.538982,0.644654,-0.408241,-0.514353,-0.166441,0.212388
1237,378001025,-0.355346,0.538200,0.645990,-0.408378,0.526048,0.352885,0.209523
1238,378034359,-0.354098,0.538539,0.646660,-0.407954,-0.029988,-0.095488,0.075907
1239,378067693,-0.353507,0.539031,0.647079,-0.407152,0.088175,-0.086399,0.133487
1240,378101027,-0.352763,0.539779,0.647383,-0.406322,-0.022029,-0.309958,0.120777
1241,378134361,-0.352085,0.540420,0.647612,-0.405692,0.106096,-0.070413,0.024879
1242,378167695,-0.351710,0.541659,0.647343,-0.404795,0.069231,-0.016705,0.145620
1243,378201029,-0.351399,0.542917,0.647087,-0.403786,0.096297,-0.005980,0.086454
1244,378234363,-0.351228,0.544151,0.646921,-0.402538,-0.014060,-0.021247,0.086123
1245,378267697,-0.351287,0.545420,0.646773,-0.401004,0.191995,-0.117868,0.131349
1246,378301031,-0.351412,0.546844,0.646484,-0.399419,0.100816,-0.120407,0.097977
1247,378334365,-0.351750,0.548684,0.645838,-0.397637,-0.166145,0.015035,0.079371
1248,378367699,-0.352342,0.550732,0.644910,-0.395786,-0.331948,-0.043134,0.187805
1249,378401033,-0.353405,0.552704,0.643712,-0.394035,-0.060169,-0.147385,0.101555
1250,378434367,-0.354640,0.554533,0.642409,-0.392479,0.011515,-0.142505,-0.011471
1251,378467701,-0.355790,0.556265,0.641288,-0.390816,0.056304,-0.037832,0.101942
1252,378501035,-0.356656,0.557754,0.640512,-0.389173,0.037163,-0.147766,0.047027
1253,378534369,-0.357296,0.558944,0.640083,-0.387582,-0.137247,-0.176465,0.048256
1254,378567703,-0.357468,0.559672,0.640093,-0.386354,-0.252247,-0.031405,0.124084
1255,378601037,-0.357484,0.559928,0.640531,-0.385243,-0.038681,0.033489,0.073408
1256,378634371,-0.357630,0.559889,0.641190,-0.384065,-0.195322,0.008226,0.083041
1257,378667705,-0.357405,0.559519,0.642098,-0.383295,-0.667338,-0.119413,0.200352
1258,378701039,-0.356943,0.557999,0.643339,-0.383861,-0.867254,0.259819,0.150228
1259,378734373,-0.356449,0.556140,0.644806,-0.384554,-0.464688,0.472275,0.167117
1260,378767707,-0.356101,0.554859,0.646172,-0.384436,-0.147070,-0.080894,0.061629
1261,378801041,-0.355081,0.552902,0.648188,-0.384804,-0.173886,-0.453736,0.100951
1262,378834375,-0.353631,0.550476,0.650559,-0.385616,0.377709,-0.226814,0.239594
1263,378867709,-0.351607,0.548333,0.653175,-0.386098,0.739552,-0.294587,0.375295
1264,378901043,-0.348947,0.546234,0.655982,-0.386726,0.791349,-0.256489,-0.019595
1265,378934377,-0.346247,0.544159,0.658745,-0.387382,0.611697,-0.193851,0.001538
1266,378967711,-0.344076,0.542225,0.661271,-0.387724,0.540004,-0.104202,0.176595
1267,379001045,-0.342511,0.540682,0.663333,-0.387742,0.553850,0.155156,0.253467
1268,379034379,-0.341705,0.539873,0.664512,-0.387561,0.294662,0.148519,0.081146
1269,379067713,-0.341443,0.539517,0.665055,-0.387357,0.214092,0.136659,0.117189
1270,379101047,-0.342058,0.539299,0.665100,-0.387040,0.185179,0.321983,0.266118
1271,379134381,-0.343261,0.538867,0.665029,-0.386700,-0.112020,0.247063,0.064867
1272,379167715,-0.344522,0.538262,0.664907,-0.386630,-0.131014,0.205303,0.272930
1273,379201049,-0.346629,0.538175,0.664041,-0.386356,0.151895,0.285573,0.300112
1274,379234383,-0.349610,0.538290,0.662605,-0.385973,0.226931,0.260485,0.104862
1275,379267717,-0.352293,0.538827,0.661178,-0.385232,0.439572,0.054525,-0.024542
1276,379301051,-0.353945,0.539835,0.660053,-0.384234,0.496714,-0.569077,0.070573
1277,379334385,-0.354423,0.540261,0.659540,-0.384077,0.463398,-0.581760,0.003358
1278,379367719,-0.354055,0.540286,0.659467,-0.384506,0.425721,-0.271600,-0.046507
1279,379401053,-0.353058,0.540444,0.659589,-0.384990,0.366095,0.032582,0.132664
1280,379434387,-0.351843,0.540739,0.659666,-0.385556,0.254830,0.234263,0.088854
1281,379467721,-0.350441,0.541041,0.659804,-0.386175,0.163977,0.274803,0.136469
1282,379501055,-0.349519,0.541585,0.659508,-0.386751,-0.034601,0.176138,0.133526
1283,379534389,-0.348826,0.541752,0.659133,-0.387780,-0.274388,0.230814,0.146004
1284,379567723,-0.347680,0.540777,0.659408,-0.389699,0.078548,0.250816,0.313423
1285,379601057,-0.347528,0.540143,0.659025,-0.391359,0.055353,0.171126,0.021309
1286,379634391,-0.347861,0.539634,0.658183,-0.393178,-0.326771,-0.030655,-0.057872
1287,379667725,-0.348497,0.538794,0.657253,-0.395316,-0.150669,0.113936,0.584497
1288,379701059,-0.349632,0.537442,0.656128,-0.398014,0.150186,0.266479,0.252164
1289,379734393,-0.350737,0.536417,0.654995,-0.400283,0.314454,0.205678,-0.084441
1290,379767727,-0.351702,0.536107,0.653650,-0.402047,0.288677,-0.266954,0.276703
1291,379801061,-0.352590,0.536210,0.652108,-0.403633,0.484749,-0.041731,0.121009
1292,379834395,-0.352535,0.536372,0.651041,-0.405186,0.354142,-0.309864,0.172497
1293,379867729,-0.351392,0.536359,0.650639,-0.406838,0.031839,-0.106885,0.060106
1294,379901063,-0.349711,0.535327,0.650979,-0.409095,-0.186609,0.368032,0.069655
1295,379934397,-0.348237,0.534851,0.651239,-0.410560,-0.315795,-0.114313,0.205989
1296,379967731,-0.346283,0.534459,0.651540,-0.412241,-0.113538,-0.378864,0.128423
1297,380001065,-0.343383,0.533023,0.652464,-0.415054,0.020037,-0.311999,0.075222
1298,380034399,-0.339793,0.530270,0.654578,-0.418196,0.233251,0.044255,0.121927
1299,380067733,-0.335754,0.526621,0.657434,-0.421574,0.095149,0.221526,-0.005133
1300,380101067,-0.332224,0.523040,0.660039,-0.424747,-0.240407,0.254978,0.181683
1301,380134401,-0.329950,0.520326,0.661570,-0.427463,-0.209629,0.175109,0.097255
1302,380167735,-0.329249,0.519329,0.661478,-0.429353,-0.129168,0.177201,0.044483
1303,380201069,-0.329469,0.519535,0.660427,-0.430551,-0.274842,0.017709,0.104396
1304,380234403,-0.330238,0.519681,0.659069,-0.431866,-0.587646,-0.080918,0.149589
1305,380267737,-0.331724,0.519544,0.657442,-0.433369,-0.249336,-0.235113,0.169833
1306,380301071,-0.334012,0.519639,0.655393,-0.434599,0.141704,-0.193103,0.062791
1307,380334405,-0.336510,0.520443,0.653059,-0.435225,0.440595,-0.160590,-0.016143
1308,380367739,-0.339092,0.522506,0.650321,-0.434847,0.433905,-0.311125,0.030101
1309,380401073,-0.341681,0.524239,0.647745,-0.434579,-0.142869,-0.296289,0.107710
1310,380434407,-0.344616,0.525351,0.645388,-0.434426,0.024105,0.038867,0.169785
1311,380467741,-0.347617,0.527138,0.642755,-0.433774,0.281827,0.027042,0.098844
1312,380501075,-0.350601,0.530213,0.639673,-0.432176,0.169649,-0.102363,0.027498
1313,380534409,-0.353603,0.533893,0.636367,-0.430075,-0.097896,-0.113270,0.136933
1314,380567743,-0.356322,0.537288,0.633286,-0.428147,-0.487151,0.004774,0.237225
1315,380601077,-0.359073,0.540136,0.630342,-0.426607,-0.701053,0.139362,0.172927
1316,380634411,-0.362344,0.543160,0.627087,-0.424795,-0.456303,0.047021,0.007112
1317,380667745,-0.365657,0.546296,0.623698,-0.422921,-0.436390,-0.038351,0.105048
1318,380701079,-0.368633,0.549322,0.620615,-0.420949,-0.405109,0.256337,0.107187
1319,380734413,-0.371766,0.552392,0.617496,-0.418757,-0.574239,0.286232,-0.100689
1320,380767747,-0.375249,0.555532,0.614281,-0.416215,-0.715391,-0.102031,0.189800
1321,380801081,-0.378000,0.558772,0.611170,-0.413965,-0.327630,0.096563,0.021766
1322,380834415,-0.381482,0.563296,0.607379,-0.410201,0.910684,-0.158680,-0.570753
1323,380867749,-0.384402,0.568555,0.603612,-0.405757,0.444181,-1.698670,0.900505
1324,380901083,-0.383717,0.573030,0.601868,-0.402689,1.491828,-0.382832,-0.189525
1325,380934417,-0.383036,0.578276,0.599685,-0.399079,0.338170,0.383768,-0.096723
1326,380967751,-0.382838,0.583763,0.597579,-0.394410,0.030592,0.297695,0.058540
1327,381001085,-0.382888,0.588926,0.595282,-0.390138,-0.854854,0.378957,0.234156
1328,381034419,-0.384306,0.594094,0.591976,-0.385916,-1.208168,0.486098,0.403886
1329,381067753,-0.386931,0.598716,0.587921,-0.382331,-0.803846,0.243480,0.224839
1330,381101087,-0.389749,0.601669,0.584702,-0.379762,-0.555771,-0.010821,0.337556
1331,381134421,-0.392371,0.602261,0.583053,-0.378656,-0.237061,0.187686,0.184207
1332,381167755,-0.395120,0.601987,0.581993,-0.377864,-0.032894,0.021299,0.094788
1333,381201089,-0.397829,0.602481,0.580535,-0.376476,0.241787,-0.230556,-0.054200
1334,381234423,-0.399757,0.603408,0.579084,-0.375180,-0.011289,-0.275078,0.106712
1335,381267757,-0.400965,0.603524,0.578496,-0.374611,-0.170140,0.187248,0.162524
1336,381301091,-0.401836,0.603202,0.578539,-0.374130,-0.342879,0.287871,0.097305
1337,381334425,-0.402699,0.602861,0.578695,-0.373509,-0.374348,0.148302,0.087646
1338,381367759,-0.403440,0.602085,0.579078,-0.373369,-0.608387,0.155283,0.182412
1339,381401093,-0.404126,0.600556,0.579908,-0.373801,-0.511517,0.337277,0.194884
1340,381434427,-0.404704,0.598400,0.581335,-0.374416,-0.468503,0.376755,0.156017
1341,381467761,-0.405621,0.595627,0.582963,-0.375312,-0.302278,0.141681,0.099926
1342,381501095,-0.406265,0.591934,0.585136,-0.377072,-0.194158,0.014578,0.172076
1343,381534429,-0.406222,0.588157,0.587785,-0.378906,0.077594,-0.163824,0.039777
1344,381567763,-0.405411,0.585040,0.590661,-0.380126,0.458075,-0.466585,-0.069163
1345,381601097,-0.404234,0.581506,0.593766,-0.381958,0.285417,-0.293550,0.079165
1346,381634431,-0.402684,0.577823,0.597124,-0.383946,0.254703,0.009640,0.072129
1347,381667765,-0.400119,0.575824,0.600085,-0.385013,0.384688,-0.023745,0.009877
1348,381701099,-0.397245,0.574966,0.602620,-0.385312,0.190785,-0.338912,0.060441
1349,381734433,-0.394337,0.573362,0.605517,-0.386147,0.060345,-0.189546,0.166192
1350,381767767,-0.391496,0.571278,0.608729,-0.387076,0.001201,0.064836,0.131123
1351,381801101,-0.388537,0.569156,0.611997,-0.388028,-0.182876,-0.055206,0.037391
1352,381834435,-0.384443,0.566776,0.615970,-0.389301,-0.097621,-0.181006,0.173211
1353,381867769,-0.380282,0.563975,0.620188,-0.390755,0.138892,0.037257,0.153680
1354,381901103,-0.376629,0.560700,0.624358,-0.392363,-0.004285,0.059994,-0.074896
1355,381934437,-0.372822,0.556974,0.628819,-0.394178,-0.256977,0.068027,0.036400
1356,381967771,-0.369411,0.552261,0.633476,-0.396557,-0.628506,0.370883,0.053082
1357,382001105,-0.365721,0.546473,0.638857,-0.399352,-0.519964,0.256283,-0.178596
1358,382034439,-0.362304,0.541054,0.643955,-0.401651,-0.255113,0.217094,-0.038296
1359,382067773,-0.359701,0.536315,0.647968,-0.403887,0.036503,-0.379424,0.786759
1360,382101107,-0.356064,0.531293,0.652726,-0.406079,0.606098,-0.508529,0.234565
1361,382134441,-0.351473,0.526045,0.658004,-0.408386,0.805349,-0.265626,-0.042032
1362,382167775,-0.346465,0.520428,0.663500,-0.410963,0.824039,-0.534445,0.142274
1363,382201109,-0.340786,0.513924,0.669574,-0.414033,0.711426,-0.282074,0.401591
1364,382234443,-0.334996,0.507993,0.675275,-0.416809,0.475243,0.171731,0.151991
1365,382267777,-0.329360,0.503375,0.680151,-0.418970,0.415311,-0.035517,0.000411
1366,382301111,-0.324329,0.499313,0.684271,-0.421040,0.249504,0.012386,0.078487
1367,382334445,-0.320062,0.495943,0.687525,-0.422983,0.132459,-0.004614,0.086985
1368,382367779,-0.316211,0.492970,0.690161,-0.425057,0.066489,0.018839,0.033870
1369,382401113,-0.313091,0.490576,0.692212,-0.426799,0.090542,0.249971,0.022482
1370,382434447,-0.310736,0.488680,0.693763,-0.428174,0.109848,0.160834,0.275267
1371,382467781,-0.308593,0.486901,0.695111,-0.429562,0.027290,-0.011280,0.200201
1372,382501115,-0.306749,0.485537,0.696230,-0.430613,0.055766,-0.029636,0.212245
1373,382534449,-0.304841,0.483631,0.697642,-0.431826,0.100531,-0.333185,0.421422
1374,382567783,-0.302464,0.480885,0.699482,-0.433586,0.235499,-0.243512,0.062135
1375,382601117,-0.299751,0.478196,0.701466,-0.435234,0.404623,-0.492729,-0.005962
1376,382634451,-0.296744,0.474533,0.703891,-0.437384,0.210126,-0.616186,0.210092
1377,382667785,-0.293051,0.469678,0.706492,-0.440905,-0.234777,-0.466177,-0.013278
1378,382701119,-0.289152,0.464936,0.709088,-0.444325,0.506427,0.239525,-0.115823
1379,382734453,-0.285995,0.460750,0.711742,-0.446481,0.501506,0.470452,0.367833
1380,382767787,-0.283751,0.457842,0.713758,-0.447683,0.382856,0.414438,0.339557
1381,382801121,-0.282218,0.456092,0.715155,-0.448210,0.344075,0.064352,0.184496
1382,382834455,-0.281457,0.454851,0.715914,-0.448738,0.181941,0.120161,0.185390
1383,382867789,-0.281703,0.454473,0.715830,-0.449101,0.113999,0.254450,0.193301
1384,382901123,-0.283080,0.455187,0.714913,-0.448971,0.082430,0.388873,0.112758
1385,382934457,-0.285591,0.456807,0.713289,-0.448318,0.067422,0.259027,0.186269
1386,382967791,-0.289058,0.458962,0.711118,-0.447343,0.117774,0.084147,0.233026
1387,383001125,-0.292791,0.461289,0.708707,-0.446348,0.156439,-0.052723,0.100616
1388,383034459,-0.297022,0.464028,0.705912,-0.445140,0.527882,0.039970,0.140873
1389,383067793,-0.301859,0.467912,0.702489,-0.443231,0.738267,0.150546,0.083643
1390,383101127,-0.306424,0.472571,0.698924,-0.440785,0.482551,-0.057394,0.220234
1391,383134461,-0.310921,0.477057,0.695392,-0.438383,0.114031,0.146798,0.202229
1392,383167795,-0.316027,0.482013,0.691329,-0.435730,0.019390,0.289733,0.071403
1393,383201129,-0.322081,0.487939,0.686298,-0.432643,-0.191554,0.353229,-0.009671
1394,383234463,-0.329111,0.495028,0.680163,-0.428971,-0.342259,0.295002,0.073146
1395,383267797,-0.336941,0.502768,0.673111,-0.424997,-0.390185,0.021516,0.128045
1396,383301131,-0.344733,0.509946,0.666031,-0.421334,-0.204978,-0.149737,0.272906
1397,383334465,-0.351924,0.516807,0.659180,-0.417789,0.044590,-0.117738,0.078725
1398,383367799,-0.358118,0.523335,0.652804,-0.414397,-0.023489,-0.373213,0.092359
1399,383401133,-0.362917,0.528475,0.647470,-0.412059,-0.185591,-0.395173,0.149341
1400,383434467,-0.366935,0.532424,0.642895,-0.410579,-0.096252,-0.270388,0.049648
1401,383467801,-0.369831,0.534660,0.639512,-0.410358,-0.335904,0.028225,-0.006226
1402,383501135,-0.372586,0.535817,0.636951,-0.410340,-0.034804,0.050802,0.166790
1403,383534469,-0.375211,0.537177,0.634468,-0.410017,0.161675,0.046539,0.023493
1404,383567803,-0.377398,0.539023,0.631978,-0.409432,-0.030504,-0.268497,0.078249
1405,383601137,-0.378958,0.540829,0.629842,-0.408900,0.238910,-0.396357,0.149782
1406,383634471,-0.379918,0.542959,0.627852,-0.408247,0.490593,-0.159047,-0.050800
1407,383667805,-0.379875,0.544866,0.626580,-0.407699,0.228348,-0.220322,0.099339
1408,383701139,-0.379222,0.545476,0.626213,-0.408055,-0.163590,0.054941,0.204611
1409,383734473,-0.378519,0.546233,0.625969,-0.408071,-0.045811,0.140736,0.029163
1410,383767807,-0.378024,0.547516,0.625346,-0.407765,-0.222714,0.148474,0.119738
1411,383801141,-0.377640,0.548895,0.624641,-0.407347,-0.358824,0.218341,0.094119
1412,383834475,-0.377469,0.550725,0.623674,-0.406516,-0.308502,0.133190,0.040969
1413,383867809,-0.376805,0.551568,0.623439,-0.406349,-0.581997,-0.040061,0.209349
1414,383901143,-0.375510,0.551593,0.623895,-0.406814,-0.755811,0.061235,0.106514
1415,383934477,-0.374179,0.551100,0.624681,-0.407503,-0.574385,0.063618,0.045217
1416,383967811,-0.372729,0.550111,0.625639,-0.408695,-0.755039,0.195016,0.105373
1417,384001145,-0.371141,0.548687,0.626743,-0.410361,-1.075528,0.382356,0.132347
1418,384034479,-0.370028,0.546907,0.627729,-0.412230,-0.842403,0.276317,-0.005150
1419,384067813,-0.369677,0.545871,0.628142,-0.413287,-0.326668,-0.419837,0.118573
1420,384101147,-0.368555,0.545194,0.628577,-0.414520,0.184578,-0.223034,0.338183
1421,384134481,-0.366646,0.545182,0.629145,-0.415367,0.463053,0.428695,-0.039467
1422,384167815,-0.365246,0.545677,0.629701,-0.415107,0.172141,0.293580,0.158910
1423,384201149,-0.364112,0.546233,0.630374,-0.414350,0.360500,-0.418599,0.094284
1424,384234483,-0.362189,0.546406,0.631458,-0.414158,0.258315,-0.664195,-0.032619
1425,384267817,-0.359654,0.545899,0.633190,-0.414390,0.151309,-0.276644,0.125628
1426,384301151,-0.357032,0.544734,0.635281,-0.414989,-0.084044,0.052933,0.102263
1427,384334485,-0.354676,0.543530,0.637405,-0.415332,-0.346882,0.071576,0.084472
1428,384367819,-0.352569,0.542610,0.639202,-0.415567,-0.539584,-0.136023,0.225149
1429,384401153,-0.350587,0.541259,0.640988,-0.416254,-0.344266,-0.138064,0.092648
1430,384434487,-0.348935,0.539626,0.642724,-0.417085,-0.081199,-0.192320,0.094199
1431,384467821,-0.347007,0.537756,0.644686,-0.418078,0.055769,-0.452843,0.130382
1432,384501155,-0.344414,0.535377,0.647182,-0.419417,0.393155,-0.312140,0.022134
1433,384534489,-0.341807,0.533201,0.649709,-0.420414,0.644342,-0.043601,0.036607
1434,384567823,-0.338926,0.531710,0.652156,-0.420846,0.531265,-0.080525,0.198222
1435,384601157,-0.335944,0.530356,0.654488,-0.421326,0.010716,0.175767,0.166736
1436,384634491,-0.333665,0.529272,0.656455,-0.421439,-0.243725,0.307977,0.101407
1437,384667825,-0.332222,0.529002,0.657624,-0.421096,-0.199989,0.137041,0.148927
1438,384701159,-0.331233,0.528959,0.658289,-0.420890,-0.343767,0.203471,0.186452
1439,384734493,-0.331010,0.529315,0.658439,-0.420383,-0.041919,0.220200,0.090369
1440,384767827,-0.331447,0.530153,0.657985,-0.419693,0.035488,-0.008941,0.107020
1441,384801161,-0.331943,0.531098,0.657360,-0.419084,0.094385,-0.052863,0.104731
1442,384834495,-0.332463,0.532380,0.656700,-0.418079,0.300247,-0.050596,0.053294
1443,384867829,-0.332773,0.533571,0.656151,-0.417175,0.104637,-0.163090,0.086130
1444,384901163,-0.332814,0.534163,0.655875,-0.416819,-0.230795,-0.043189,0.032446
1445,384934497,-0.332914,0.534784,0.655674,-0.416260,-0.005865,0.053219,0.204315
1446,384967831,-0.333001,0.535614,0.655413,-0.415531,0.010971,0.027725,0.112265
1447,385001165,-0.333261,0.536313,0.655082,-0.414945,-0.103486,0.126493,0.031547
1448,385034499,-0.334208,0.537002,0.654401,-0.414366,-0.204203,0.382379,0.097841
1449,385067833,-0.335556,0.538341,0.653564,-0.412857,0.116743,0.635832,0.134995
1450,385101167,-0.337901,0.540995,0.651945,-0.410025,0.244150,0.091936,0.133286
1451,385134501,-0.340764,0.544186,0.649660,-0.407050,0.076779,-0.437039,0.191211
1452,385167835,-0.342761,0.546936,0.647737,-0.404745,0.020634,-0.194297,0.068316
1453,385201169,-0.344559,0.549000,0.646259,-0.402781,0.037107,-0.045316,0.118535
1454,385234503,-0.346387,0.551004,0.644729,-0.400923,0.079123,-0.044757,0.122947
1455,385267837,-0.348530,0.553298,0.642808,-0.398988,-0.122027,0.081702,0.062792
1456,385301171,-0.351117,0.555246,0.640818,-0.397210,-0.248946,0.347177,0.063545
1457,385334505,-0.354263,0.557377,0.638576,-0.395036,-0.129036,0.937920,-0.005511
1458,385367839,-0.358652,0.560523,0.635619,-0.391378,-0.240674,0.490501,0.163690
1459,385401173,-0.363393,0.563100,0.632624,-0.388144,-0.476142,-0.963265,0.386572
1460,385434507,-0.366511,0.564532,0.630340,-0.386847,-0.050655,-0.420693,0.093924
1461,385467841,-0.368775,0.565168,0.629063,-0.385843,0.315718,-0.143224,0.041747
1462,385501175,-0.370240,0.564942,0.628685,-0.385387,0.226525,-0.223567,0.158743
1463,385534509,-0.371704,0.564742,0.628214,-0.385039,0.037945,0.110403,0.080618
1464,385567843,-0.373434,0.564925,0.627476,-0.384300,-0.245268,0.051775,0.130262
1465,385601177,-0.374440,0.565006,0.627095,-0.383824,-0.164567,-0.027712,0.168730
1466,385634511,-0.375171,0.564842,0.626896,-0.383675,0.067718,0.056124,0.143500
1467,385667845,-0.375783,0.564218,0.627070,-0.383710,0.115310,0.066937,0.148470
1468,385701179,-0.376195,0.563398,0.627483,-0.383836,0.121317,0.105577,0.037068
1469,385734513,-0.376387,0.562766,0.627866,-0.383948,0.185758,0.097721,0.204312
1470,385767847,-0.376465,0.562179,0.628277,-0.384061,0.167212,0.126015,-0.162018
1471,385801181,-0.376645,0.561544,0.628555,-0.384357,-0.071727,0.167122,0.006286
1472,385834515,-0.376922,0.560366,0.629027,-0.385033,0.051933,0.277893,0.442452
1473,385867849,-0.377273,0.558924,0.629598,-0.385850,0.249316,0.274910,0.450575
1474,385901183,-0.377256,0.557474,0.630363,-0.386714,0.070935,-0.016318,0.201274
1475,385934517,-0.375368,0.555603,0.632293,-0.388091,0.081556,-0.273076,-0.187561
1476,385967851,-0.372907,0.553652,0.634614,-0.389462,0.549689,-0.370592,-0.087481
1477,386001185,-0.371175,0.551722,0.636315,-0.391077,0.253212,-0.306795,-0.125103
1478,386034519,-0.368217,0.549431,0.638738,-0.393142,0.002319,-0.198730,0.151273
1479,386067853,-0.364250,0.546922,0.641709,-0.395490,-0.039495,0.104879,0.366335
1480,386101187,-0.361111,0.543787,0.644550,-0.398064,-0.096044,0.327588,0.172729
1481,386134521,-0.358979,0.540725,0.646855,-0.400419,-0.016884,0.227626,0.129006
1482,386167855,-0.357299,0.538653,0.648665,-0.401783,0.477977,-0.179178,-0.144489
1483,386201189,-0.355834,0.536850,0.649977,-0.403371,0.524481,-0.394553,0.233350
1484,386234523,-0.353648,0.534071,0.651831,-0.405984,0.257571,-0.305994,0.310548
1485,386267857,-0.351626,0.531198,0.653708,-0.408484,0.344385,-0.021734,0.137206
1486,386301191,-0.349777,0.529091,0.655168,-0.410461,0.472977,-0.046438,-0.296044
1487,386334525,-0.347755,0.527218,0.656382,-0.412644,0.188958,-0.271760,0.328176
