SampleTimeFine,D_Leg_Acc_X,D_Leg_Acc_Y,D_Leg_Acc_Z,D_Upper_Arm_Acc_X,D_Upper_Arm_Acc_Y,D_Upper_Arm_Acc_Z,L_Wrist_Acc_X,L_Wrist_Acc_Y,L_Wrist_Acc_Z,R_Wrist_Acc_X,R_Wrist_Acc_Y,R_Wrist_Acc_Z,Activity
2163588388,0.23925,-0.052408,0.290418,-0.772412,0.072927,0.083599,-0.667421,-0.018359,0.038674,0.433441,1.139994,0.531866,1
2163621722,0.143232,-0.969444,0.209791,-0.849463,0.175702,0.401558,-0.633936,0.377413,0.22998,0.15302,0.965757,0.743465,1
2163655056,0.573796,-0.979708,0.280036,-0.695489,0.280156,0.549014,-0.618794,1.186906,-0.04118,-0.188388,0.739155,0.947257,1
2163688390,0.344756,-0.611323,0.311586,-0.574523,0.256949,0.607199,-0.334693,1.894158,-0.636655,-0.456149,0.565729,0.953071,1
2163721724,0.537155,-0.476823,0.26762,-0.453098,0.097178,0.551208,0.078105,1.963861,-0.980961,-0.620839,0.398577,0.772469,1
2163755058,0.02572,-0.008831,0.195889,-0.366724,0.014245,0.415301,0.489594,1.592401,-1.087234,-0.689206,0.179439,0.567423,1
2163788392,-0.197251,0.362779,0.161012,-0.243669,-0.02578,0.221223,0.803571,1.136288,-0.813281,-0.729547,-0.064455,0.382483,1
2163821726,-0.21103,0.11643,0.052913,-0.09755,0.026001,0.191612,1.031609,0.852812,-0.412308,-0.883335,-0.309538,0.226175,1
2163855060,-0.216175,0.004745,0.109368,0.079329,0.155273,0.16565,1.041066,0.750937,-0.052395,-1.01814,-0.593358,0.045292,1
2163888394,-0.08857,-0.066081,0.08574,0.173947,0.273948,0.193339,1.128099,0.468462,0.599862,-1.087769,-0.791674,-0.074145,1
2163921728,0.08391,-0.041093,0.179027,0.190695,0.326178,0.184969,1.080287,0.493751,0.48084,-1.028854,-0.918912,-0.158057,1
2163955062,0.138171,0.058968,0.129425,0.1387,0.31972,0.201363,0.761192,0.151177,0.322905,-0.928241,-0.977876,-0.099605,1
2163988396,-0.101568,0.359327,0.206046,-0.032683,0.399917,0.314363,0.51623,-0.300451,0.364635,-0.822037,-0.97453,0.169412,1
2164021730,-0.104732,0.085874,0.145463,-0.211574,0.293493,0.356747,0.340808,-0.569614,0.223649,-0.713014,-0.906446,0.403124,1
2164055064,0.003245,-0.245373,0.072092,-0.324953,0.116277,0.305451,0.145157,-0.330667,-0.181226,-0.648006,-0.736703,0.485646,1
2164088398,0.149743,-0.136634,0.167124,-0.310799,0.161179,0.219266,-0.053057,-0.10785,-0.590745,-0.502083,-0.421685,0.522847,1
2164121732,0.338213,-0.03709,0.11659,-0.333669,0.259317,0.38625,-0.112136,-0.161764,-0.672104,-0.275734,-0.157569,0.660964,1
2164155066,0.150263,0.182658,0.159464,-0.35033,0.299705,0.364381,-0.060716,-0.142589,-0.522083,-0.09511,0.070655,0.685609,1
2164188400,0.176751,0.371055,0.127147,-0.200709,0.388401,0.250715,-0.016231,-0.048169,-0.429778,-0.034485,0.289236,0.565882,1
2164221734,0.244671,0.306001,0.08897,-0.1969,0.534117,0.159435,-0.000386,0.139421,-0.196959,0.091287,0.524342,0.432073,1
2164255068,0.148035,0.371996,0.159118,-0.109649,0.709358,0.14887,0.050612,0.416239,-0.008778,0.213783,0.695568,0.350569,1
2164288402,0.290052,0.448112,0.056739,0.03937,0.859544,0.07699,0.140652,0.695293,0.171206,0.312204,0.862263,0.250622,1
2164321736,0.162121,0.503474,0.1484,0.11652,1.019827,0.095228,0.151679,0.9162,0.308453,0.3972,1.041942,0.113799,1
2164355070,0.184086,0.519173,0.096302,0.090345,1.088571,-0.014259,0.174145,1.161419,0.155295,0.56066,1.173161,0.007742,1
2164388404,0.07214,0.56846,0.089338,0.011151,1.206348,-0.184162,0.333827,1.334358,-0.121106,0.750671,1.27576,-0.126439,1
2164421738,0.317703,0.541405,0.0306,-0.195873,1.318423,-0.351796,0.498256,1.366269,-0.407839,0.893183,1.336289,-0.230184,1
2164455072,0.438114,0.513845,0.02751,-0.347886,1.429373,-0.257627,0.611021,1.365245,-0.456362,0.86924,1.426304,-0.121522,1
2164488406,0.634484,0.409771,0.013413,-0.478527,1.38404,-0.019289,0.744255,1.475005,-0.365982,0.73651,1.52686,0.152755,1
2164521740,0.652974,0.472122,0.049981,-0.52308,1.136427,0.245121,0.814092,1.480501,-0.027685,0.560997,1.736525,0.358,1
2164555074,0.51025,0.693439,0.003363,-0.420563,0.704023,0.260957,0.743143,1.384997,0.297538,0.46404,1.919535,0.292779,1
2164588408,0.104865,0.763948,0.082622,-0.194304,0.492699,0.238812,0.562507,1.402138,0.483669,0.389264,2.092275,0.172739,1
2164621742,0.228099,0.352522,0.338025,0.207164,0.25045,0.45525,0.467058,1.406587,0.56128,0.303335,2.030104,0.219273,1
2164655076,-0.111018,-0.386092,0.507781,-0.061761,-0.484562,-0.394333,0.432467,0.854867,-0.313216,0.557696,1.591152,-0.511358,1
2164688410,-0.322712,-0.75535,0.313986,-0.072196,-0.566694,-1.216836,0.177052,0.548689,-1.328976,0.636652,1.169929,-1.234417,1
2164721744,-0.255916,-0.498631,0.255092,-0.155771,-0.099701,-1.119407,0.040366,0.512545,-1.406968,0.501032,0.840544,-0.933817,1
2164755078,-0.694294,-0.658438,0.227715,-0.271431,0.008537,-0.016734,-0.013886,0.30393,-0.702072,0.000407,0.416509,0.131787,1
2164788412,-2.376892,-1.467739,0.924797,-0.295551,-0.851274,1.173313,0.146593,0.056511,0.134904,-0.732434,-0.006497,1.077851,1
2164821746,-1.778154,-0.223611,0.673321,-0.34365,-1.90557,1.590056,-0.204735,-0.004216,0.501222,-1.579305,-0.686868,1.486183,1
2164855080,-0.440536,0.735013,0.569654,-0.525696,-2.406767,1.304024,-0.4099,-0.360638,0.592054,-1.84504,-1.277313,1.707605,1
2164888414,-0.203144,1.09031,-0.070539,-0.549763,-2.277705,0.680472,-0.262221,-1.28531,0.912616,-1.925396,-2.221103,1.596482,1
2164921748,-0.295063,-0.149114,-0.155433,-0.289973,-1.775642,-0.039469,-0.131726,-2.325135,0.562172,-1.414711,-2.580935,1.090518,1
2164955082,-0.375241,-1.398865,-0.466944,0.024971,-1.220554,-0.235826,0.161775,-3.000488,0.09259,-1.334256,-3.326163,0.121552,1
2164988416,0.628881,-1.150438,-0.707016,0.398225,-0.870597,-0.260377,0.321674,-3.203527,-0.340519,-1.532221,-4.049163,-0.777915,1
2165021750,2.242536,-0.030914,-0.920864,0.63658,-0.538385,-0.078113,0.28322,-2.996128,-0.438409,-1.837445,-5.728632,-2.18357,1
2165055084,1.026654,1.625197,-1.075878,0.667501,-0.439097,0.035132,0.138629,-2.661263,-0.424717,-1.607863,-4.507498,-1.275424,1
2165088418,-1.845637,2.78822,-0.416443,0.148138,-0.644834,0.02746,-0.057775,-2.529238,-0.241419,-1.377575,-3.830628,-0.137606,1
2165121752,-3.204891,-1.047452,3.168303,-0.059749,-0.750339,0.116683,-0.286393,-2.612777,0.181815,-1.27291,-2.598179,0.596581,1
2165155086,0.427059,-4.787669,-0.724282,0.013179,-1.054353,-0.52449,-0.302895,-3.046196,-0.279421,-1.165118,-1.587651,0.118184,1
2165188420,0.729806,-0.229867,-0.064999,0.276157,-0.179006,-0.316058,-0.629864,-3.021311,0.083528,-1.408598,-1.127891,-0.269151,1
2165221754,0.126786,-1.504503,0.77312,0.460073,-0.0524,-0.10428,-0.587564,-2.884877,0.410544,-0.914132,-0.3436,0.164941,1
2165255088,0.394115,-0.74159,0.443316,0.331826,-0.274293,0.108803,-0.622818,-2.451376,0.665792,-0.38558,0.308445,0.342303,1
2165288422,-0.764105,0.051948,-0.384361,0.386754,-0.430705,0.182846,-0.651044,-1.829745,0.842471,-0.150443,0.940834,0.408409,1
2165321756,0.525309,1.211223,-0.459289,0.286795,-0.621784,0.180473,-0.603417,-1.231003,0.869741,0.129685,1.351518,0.338021,1
2165355090,0.680943,0.446552,-0.020833,0.026236,-0.846356,0.155412,-0.541757,-0.586383,0.823718,0.676884,1.545125,0.123012,1
2165388424,0.724623,-1.291162,-0.006596,-0.034814,-0.753272,-0.142396,-0.444171,0.091764,0.581635,1.366529,1.443816,-0.164643,1
2165421758,0.271362,-0.864736,-0.049068,0.101956,-0.462942,-0.389249,-0.377345,0.853773,0.295009,1.80213,1.312567,-0.481294,1
2165455092,-0.084547,-0.815072,0.213909,0.302325,-0.11205,-0.316032,-0.22972,1.462928,0.097058,1.809299,1.114321,-0.477546,1
2165488426,-0.043519,-0.667016,0.345216,0.405061,-0.030804,-0.066854,-0.182175,1.986816,-0.138962,1.499012,0.819392,-0.312951,1
2165521760,-0.721644,-0.642382,0.444333,0.37391,-0.128149,0.084562,-0.126076,2.20818,-0.406703,1.402516,0.546891,-0.153033,1
2165555094,-0.474151,-0.482085,0.169463,0.285939,-0.349867,0.037311,-0.056007,2.176366,-0.66726,1.492225,0.298481,0.002772,1
2165588428,1.837956,-0.269365,-0.298499,0.200995,-0.56855,8e-06,-0.011629,2.005967,-0.75679,1.577506,0.003732,0.120084,1
2165621762,2.389799,0.788314,-0.675763,0.194803,-0.759164,0.037511,0.166229,1.990007,-0.861278,1.501061,-0.294995,0.334721,1
2165655096,-0.379956,2.606457,-0.392359,0.412862,-0.696732,0.232509,0.307582,2.055938,-0.913721,1.216557,-0.564195,0.59825,1
2165688430,-4.822419,-3.687886,1.91463,0.322983,-0.608535,0.205969,0.433213,1.753532,-0.616838,1.064772,-0.986479,0.820834,1
2165721764,-2.847384,-3.675211,-1.486225,0.364785,-0.742258,-0.505672,0.369083,1.278047,-0.852358,0.670953,-1.286375,0.181396,1
2165755098,0.779977,1.239291,0.352423,0.692803,-0.200229,-0.198111,0.285533,1.062636,-0.513125,-0.100208,-1.469164,0.029908,1
2165788432,1.668983,-0.164232,0.867862,0.590454,-0.099073,0.221438,0.220906,0.698125,0.21908,-0.470421,-1.660362,0.41554,1
2165821766,-0.800342,0.07185,0.148983,0.45031,-0.441824,0.473603,0.050797,0.242584,0.619532,-0.873212,-1.720265,0.487444,1
2165855100,-0.523012,0.159874,0.013977,0.411676,-0.422182,0.406027,-0.092825,-0.074435,0.679582,-1.434976,-1.640057,0.357059,1
2165888434,0.851501,-0.034293,-0.135001,0.179839,-0.450553,0.209528,-0.179464,-0.414393,0.575503,-1.370091,-1.398138,0.252104,1
2165921768,1.201187,0.051652,-0.04416,-0.063986,-0.616943,0.010642,-0.291052,-0.745456,0.241923,-1.035262,-1.123384,0.095888,1
2165955102,-0.504325,-0.187492,0.329252,-0.01631,-0.487446,-0.076303,-0.457552,-0.915979,0.090036,-0.903825,-0.918152,-0.107759,1
2165988436,-1.464851,-0.692995,0.150922,0.182085,-0.303081,0.069559,-0.423751,-1.062834,0.164392,-0.996797,-0.724688,-0.182348,1
2166021770,-0.473408,-0.357399,0.206968,0.247936,-0.197387,0.156469,-0.260884,-1.772948,0.158427,-0.877282,-0.553281,-0.127372,1
2166055104,0.177851,-0.18407,0.203683,0.134281,-0.033754,0.080448,-0.512523,-2.176523,0.049992,-0.656212,-0.388414,-0.101321,1
2166088438,0.294203,-0.195215,0.015095,-0.011117,-0.05324,0.030118,-0.501198,-2.033005,-0.049839,-0.328535,-0.163072,-0.018309,1
2166121772,0.016516,-0.045247,0.080061,-0.225289,-0.202438,0.052653,-0.4017,-1.696684,-0.114852,-0.132717,-0.006688,0.108915,1
2166155106,-0.202499,-0.205192,0.028789,-0.370619,-0.318367,0.03514,-0.349946,-1.5645,0.050606,-0.054164,0.093629,0.265541,1
2166188440,-0.107641,-0.233764,0.201988,-0.386634,-0.260808,0.183634,-0.278503,-1.467076,0.070618,-0.137066,0.180491,0.372688,1
2166221774,-0.787879,-0.185729,0.034088,-0.441997,-0.182922,0.239927,-0.254418,-1.118454,-0.064908,-0.01586,0.264225,0.368507,1
2166255108,-0.149559,-0.206804,0.045321,-0.454172,-0.13658,0.181433,-0.138678,-0.700888,-0.025241,0.145866,0.30399,0.390932,1
2166288442,-0.046651,-0.02861,-0.009889,-0.41394,-0.153686,0.026928,0.012446,-0.458903,-0.027694,0.194827,0.323396,0.246582,1
2166321776,-0.395542,-0.090183,0.100412,-0.390647,-0.087096,-0.059038,0.089626,-0.088809,-0.083372,0.124886,0.30524,0.088626,1
2166355110,0.14101,-0.046014,-0.072001,-0.288428,0.085937,-0.104716,0.223153,0.298644,-0.112284,0.042655,0.275037,0.071959,1
2166388444,-0.652847,0.097429,0.032351,-0.221946,0.103473,-0.227883,0.300972,0.555053,-0.241093,-0.036974,0.270383,-0.109707,1
2166421778,0.145203,0.363633,0.08276,-0.150396,0.282175,-0.310428,0.283462,0.795205,-0.317526,-0.119902,0.216986,-0.178816,1
2166455112,0.37194,0.716346,0.232097,-0.029577,0.593473,-0.31949,0.186395,0.908857,-0.356705,-0.270157,0.229475,-0.317017,1
2166488446,1.017416,0.876806,0.340905,0.179567,0.97802,0.298465,0.103006,1.214167,-0.023828,-0.47763,0.294752,0.080835,1
2166521780,0.670693,0.595631,0.221674,-0.036116,1.039558,0.84174,0.462859,1.443546,0.382147,-0.473415,0.367849,0.730323,1
2166555114,0.388066,-0.08346,0.305555,-0.286974,0.265841,0.833628,0.794785,1.41912,0.429667,-0.518445,0.506425,0.751902,1
2166588448,0.254083,-0.993093,0.472016,-0.447815,-0.228746,0.306403,1.129929,1.22685,0.190028,-0.490029,0.578024,0.386766,1
2166621782,0.407002,-0.634022,0.206964,-0.51786,-0.07544,-0.112664,1.474,0.901848,-0.057125,-0.190469,0.586327,0.104529,1
2166655116,0.164163,0.066042,0.024563,-0.487461,0.320312,-0.358569,1.582232,0.606308,-0.145276,0.073477,0.491017,-0.040042,1
2166688450,0.024693,0.566918,-0.126655,-0.388598,0.511054,-0.441102,1.300945,-0.059264,-0.051773,0.018182,0.346068,-0.247484,1
2166721784,0.038939,0.765379,-0.031527,-0.204265,0.62797,-0.326407,0.52182,-0.189116,-0.25052,-0.346273,0.271694,-0.299388,1
2166755118,0.109649,0.381639,0.139287,-0.056132,0.684531,0.062798,0.138474,0.184652,-0.431026,-0.489928,0.300567,-0.119192,1
2166788452,0.11038,-0.221442,0.244891,0.033145,0.496365,0.209052,-0.057543,0.316189,-0.284876,-0.524834,0.390748,0.06302,1
2166821786,0.031598,-0.285375,0.165779,0.125633,0.362235,0.233266,-0.33675,0.124039,-0.205048,-0.407914,0.542513,0.105951,1
2166855120,-0.185453,-0.159779,0.169825,0.20339,0.346819,0.298536,-0.521492,-0.03736,-0.195388,-0.147513,0.604292,0.239651,1
2166888454,0.176491,-0.325981,0.17517,0.146273,0.339074,0.370931,-0.535515,-0.216104,-0.219321,0.166985,0.498302,0.422208,1
2166921788,0.313291,-0.390895,0.129687,0.103621,0.116551,0.342825,-0.43244,-0.271447,-0.292226,0.304029,0.349506,0.471728,1
2166955122,0.518284,-0.252578,0.197259,0.151366,0.07924,0.324669,-0.29119,-0.36813,-0.261764,0.128682,0.110723,0.395017,1
2166988456,-0.143536,-0.181248,0.058895,0.2172,0.086499,0.229252,-0.223864,-0.249593,-0.266617,0.056996,-0.0738,0.331662,1
2167021790,-0.079186,0.026393,0.146296,0.328616,0.074037,0.142282,-0.127838,0.062024,-0.215715,0.148389,-0.259761,0.296627,1
2167055124,-0.12039,0.247544,0.066496,0.491232,0.119823,0.132832,-0.015365,0.344155,-0.153816,0.278652,-0.40843,0.234601,1
2167088458,-0.115892,0.089197,0.075068,0.640183,0.151976,0.135486,0.089547,0.55846,-0.119306,0.413505,-0.5216,0.243842,1
2167121792,-0.020166,-0.103406,0.158749,0.786971,0.160736,0.139837,0.202285,0.760699,-0.152875,0.564105,-0.587359,0.248665,1
2167155126,-0.027825,0.018724,0.132564,0.79828,0.124722,0.229502,0.239348,0.875791,-0.155192,0.708884,-0.626931,0.370978,1
2167188460,0.061129,0.153914,0.096972,0.747143,0.184062,0.296721,0.273707,0.877117,-0.162819,0.836587,-0.678383,0.451941,1
2167221794,0.087343,-0.165202,0.160376,0.639256,0.127511,0.30214,0.306822,0.791308,-0.157227,0.97238,-0.601111,0.454929,1
2167255128,0.225927,-0.238528,0.122957,0.424604,0.117549,0.149815,0.438813,0.608206,-0.170964,1.010453,-0.558876,0.427391,1
2167288462,0.065755,-0.141927,0.140255,0.319688,0.11697,0.298423,0.404984,0.310985,-0.157617,0.884551,-0.422294,0.556696,1
2167321796,0.17175,-0.194988,0.113156,0.213349,0.104662,0.297219,0.295161,0.115823,-0.145895,0.895444,-0.357876,0.569447,1
2167355130,0.031734,-0.078415,0.174466,0.196648,0.133848,0.256698,0.178762,-0.081692,-0.05093,0.811784,-0.207852,0.508215,1
2167388464,0.08916,0.123567,0.045092,0.269124,0.184757,0.2017,0.097839,-0.122344,-0.0536,0.675943,-0.069933,0.405243,1
2167421798,0.167801,0.213329,0.121957,0.319851,0.289555,0.174383,-0.021717,-0.147737,-0.070802,0.548662,0.071266,0.316895,1
2167455132,0.171985,-0.136998,0.13064,0.355951,0.323987,0.101039,0.027258,-0.004052,-0.105468,0.452753,0.178416,0.214659,1
2167488466,0.289767,-0.063756,0.148895,0.405992,0.294481,0.114356,-0.001315,0.098293,-0.09482,0.33601,0.320262,0.123067,1
2167521800,0.194405,0.221597,0.128297,0.381223,0.389742,0.113816,0.02388,0.069468,0.019607,0.246522,0.374727,0.050969,1
2167555134,0.12367,0.201544,0.105072,0.327228,0.37282,-0.015464,0.206767,0.281723,-0.02821,0.190765,0.398062,-0.040973,1
2167588468,0.209536,0.218754,0.110453,0.270143,0.393245,-0.172409,0.383804,0.378543,-0.120624,0.0719,0.406031,-0.200986,1
2167621802,0.286118,0.146593,0.092202,0.263848,0.534234,-0.23804,0.546828,0.418368,-0.226418,0.030665,0.406188,-0.281351,1
2167655136,0.297335,-0.157796,0.136876,0.225447,0.714597,-0.111128,0.764347,0.511697,-0.229226,0.045608,0.388429,-0.19007,1
2167688470,0.454017,-0.344161,0.162728,0.096093,0.763195,0.065999,0.861656,0.390101,-0.131599,0.018426,0.390937,0.003355,1
2167721804,0.660965,-0.531887,0.202086,0.029597,0.629996,0.31329,0.875777,0.314754,0.121994,-0.076001,0.501687,0.271765,1
2167755138,0.458999,-0.422082,0.205889,0.0185,0.425664,0.324965,0.774877,0.19617,0.32342,-0.056345,0.621997,0.401634,1
2167788472,0.352726,-0.08556,0.200077,-0.027136,0.285157,0.173359,0.670843,0.149418,0.129243,0.14199,0.696834,0.292979,1
2167821806,0.578753,0.247768,-0.020255,0.081057,0.422196,-0.063456,0.496389,0.207994,-0.182783,0.405846,0.690953,0.035084,1
2167855140,0.582279,0.221177,0.088454,0.078277,0.663598,0.158138,0.500503,0.321906,-0.213082,0.428017,0.481934,0.139244,1
2167888474,0.336634,-0.341032,0.1457,-0.077279,0.727264,0.190722,0.59967,0.400334,-0.037766,0.232708,0.176147,0.296114,1
2167921808,0.3496,-0.755499,0.304015,-0.086348,0.590539,0.29631,0.683106,0.471911,0.033201,0.021874,0.146114,0.354998,1
2167955142,0.322557,-0.973632,0.221532,-0.126559,0.340884,0.445917,0.780926,0.228015,0.338975,0.013622,0.149716,0.58988,1
2167988476,0.278212,-0.940077,0.180422,-0.218548,0.013972,0.293469,0.793063,-0.095845,0.215855,0.296209,0.218618,0.542465,1
2168021810,0.221255,-1.030218,0.156432,-0.228896,-0.088662,0.03709,0.72542,-0.22158,-0.081712,0.492082,0.247049,0.25961,1
2168055144,0.170747,-1.178029,0.106714,-0.238382,-0.05134,-0.076287,0.632784,-0.199246,-0.264958,0.464935,0.145513,0.210655,1
2168088478,0.093087,-1.138743,0.137915,-0.262833,0.001423,-0.108459,0.44976,-0.048867,-0.292677,0.199767,-0.003235,0.181551,1
2168121812,0.098025,-1.275208,0.301854,-0.255682,-0.027312,-0.170174,0.183455,0.052723,-0.332898,-0.102035,-0.061426,0.08839,1
2168155146,-0.108494,-1.640948,0.502689,-0.274685,-0.040006,-0.224393,-0.068059,-0.029111,-0.399388,-0.370937,-0.032658,-0.050998,1
2168188480,-0.662133,-1.760034,0.569656,-0.329166,-0.097366,-0.13059,-0.342404,-0.044677,-0.667652,-0.430432,0.056316,-0.033217,1
2168221814,-0.435863,-0.712941,0.53634,-0.537242,-0.275166,0.068982,-0.457396,-0.17105,-0.620575,-0.559627,0.028071,0.119734,1
2168255148,0.97005,1.299963,1.030928,-0.779463,-0.424038,0.286613,-0.700291,-0.08287,-0.286485,-0.857872,-0.014442,0.41997,1
2168288482,0.333004,1.179764,1.325875,-0.877514,-0.699802,0.53511,-0.926206,-0.20004,0.116799,-1.256092,-0.112925,0.568193,1
2168321816,-1.077799,1.721882,0.374456,-1.12232,-1.062229,0.458798,-0.987578,-0.383316,0.230836,-1.471288,-0.587686,0.77346,1
2168355150,-0.801595,2.403333,-0.320739,-1.341833,-1.621444,0.021049,-0.873667,-0.607264,0.246094,-2.355992,-0.773272,0.593244,1
2168388484,-0.888621,2.428269,-0.860594,-0.762273,-1.204171,0.054988,-0.849973,-1.000961,0.26524,-2.928456,-0.747161,-0.268987,1
2168421818,-0.967633,2.38903,-1.258781,-0.313714,-0.896371,0.02267,-0.75802,-1.202337,0.121384,-2.202294,-0.897082,-0.441211,1
2168455152,-0.870925,1.557366,-0.753723,0.015308,-0.755308,-0.101145,-0.68395,-1.161265,-0.04254,-1.524621,-0.95199,-0.550176,1
2168488486,-1.298789,0.296191,-0.368357,0.589761,-0.384937,-0.009148,-0.568218,-1.050926,-0.085433,-1.302389,-0.998825,-0.73076,1
2168521820,-1.236778,-0.059159,-0.07275,0.739893,-0.164638,-0.02321,-0.518503,-1.070301,-0.148255,-1.300796,-1.054629,-0.903264,1
2168555154,-0.698025,-0.296518,0.341114,0.542894,-0.168489,-0.082075,-0.459259,-0.969915,-0.159989,-1.246643,-0.886293,-0.728595,1
2168588488,-0.561554,-0.584151,0.479938,0.201465,-0.162665,-0.10052,-0.485564,-0.884809,-0.044611,-0.998788,-0.718295,-0.205808,1
2168621822,-0.584066,-0.464753,0.423469,-0.216672,-0.266982,-0.100178,-0.408791,-0.878862,0.117786,-0.854078,-0.56733,0.158961,1
2168655156,-0.54915,0.136559,0.006969,-0.449291,-0.419863,-0.029059,-0.48599,-0.795458,0.169298,-0.939054,-0.341598,0.39183,1
2168688490,0.12841,0.295126,3.3e-05,-0.57397,-0.490528,0.088717,-0.411103,-0.640862,0.261762,-0.276287,-0.159487,0.752905,1
2168721824,0.5098,-0.10822,0.032064,-0.382941,-0.487671,0.204329,-0.20006,-0.43274,0.335336,-0.330799,0.294824,0.376872,1
2168755158,0.269932,-0.143216,0.15624,-0.322859,-0.489295,0.118443,-0.057307,-0.185277,0.203588,0.207302,0.581616,0.357486,1
2168788492,0.341869,-0.16391,-0.064318,-0.308806,-0.234903,0.046969,0.100172,0.056064,0.047982,0.746745,0.593519,0.437031,1
2168821826,-0.026771,-0.021476,-0.198785,-0.186678,-0.217565,-0.022549,0.166375,0.275004,-0.083288,0.751474,0.436563,0.161741,1
2168855160,-0.16682,-0.028653,-0.058095,-0.054587,-0.210951,-0.086475,0.148512,0.381635,-0.180284,0.80533,0.296365,-0.026829,1
2168888494,-0.315066,-0.014756,0.075666,0.057414,-0.119905,-0.070108,0.064872,0.483812,-0.194776,0.819932,0.187148,-0.028469,1
2168921828,-0.126405,-0.01782,0.097017,0.068854,-0.158015,-0.116119,0.062043,0.616855,-0.166002,0.806531,0.015395,-0.026242,1
2168955162,-0.10177,0.04236,0.078052,0.218845,-0.207856,0.064404,-0.179941,0.4062,0.00216,0.694043,-0.102714,0.109874,1
2168988496,-0.191756,0.131215,0.024377,0.200163,-0.131713,0.141324,-0.19977,0.544984,-0.022283,0.635921,-0.466193,0.40346,1
2169021830,-0.195583,0.31596,-0.141925,0.225619,-0.176702,0.144143,-0.209559,0.393585,-0.047256,0.168353,-0.948179,0.43443,1
2169055164,-0.134272,0.596081,-0.278057,0.129948,-0.448208,0.150006,-0.148543,0.345365,-0.137926,-0.448734,-0.943214,0.187615,1
2169088498,0.009978,0.703574,-0.364581,0.018911,-0.475129,0.157861,-0.038798,0.297336,-0.165729,-0.690008,-0.77782,0.194983,1
2169121832,-0.266403,0.60606,-0.266021,-0.061884,-0.446875,0.098323,-0.020141,0.129637,-0.187962,-0.321482,-0.467926,0.333065,1
2169155166,-0.468878,0.368674,-0.049643,-0.00897,-0.432684,0.107209,-0.018788,0.08747,-0.219382,-0.203465,-0.260936,0.223315,1
2169188500,-0.462838,0.041504,0.203137,0.120535,-0.269331,0.102942,-0.081308,-0.032482,-0.177085,-0.24365,-0.244736,0.181708,1
2169221834,-0.49008,-0.38088,0.44844,0.094888,-0.168291,0.12409,-0.204971,-0.175928,-0.13812,-0.21577,-0.237763,0.19339,1
2169255168,-0.731237,-0.747726,0.636415,0.040379,-0.164313,0.147743,-0.305877,-0.254813,-0.127897,-0.294159,-0.212764,0.211226,1
2169288502,-0.403665,-1.628644,1.2396,-0.04241,-0.144917,0.187708,-0.397302,-0.417565,-0.070098,-0.51735,-0.16032,0.196312,1
2169321836,-0.627056,-1.451303,0.797938,-0.108188,-0.059359,0.210959,-0.443608,-0.623707,0.024884,-0.620725,-0.113794,0.28545,1
2169355170,-1.731164,-1.000335,1.083209,-0.233868,-0.207775,0.112533,-0.479312,-0.749397,-0.162758,-0.670685,-0.054014,0.174706,1
2169388504,-1.332708,-0.612311,0.318649,-0.439549,-0.326057,-0.023542,-0.428747,-0.768298,-0.019108,-0.663111,-0.075985,-0.04298,1
2169421838,-0.20419,-0.372535,0.454622,-0.441491,-0.381627,-0.244414,-0.220366,-0.750891,0.314108,-0.663133,-0.099486,-0.276073,1
2169455172,-2.217196,0.461015,-0.65024,-0.377416,-0.413555,-0.365445,-0.008411,-0.567739,0.423422,-0.662957,-0.111126,-0.425463,1
2169488506,-2.029902,0.920128,-0.768783,-0.39083,-0.624239,-0.638349,0.207538,-0.635178,0.538943,-0.608597,-0.087092,-0.651806,1
2169521840,1.023524,2.0939,-1.541533,-0.113031,-0.790752,-0.430764,0.269647,-0.662353,0.570059,-0.575705,-0.190951,-0.561172,1
2169555174,4.666761,0.867131,-0.996491,0.118317,-0.685865,-0.077994,0.344613,-0.479691,0.513192,-0.70569,-0.641175,-0.423026,1
2169588508,1.56865,0.192593,-0.113209,0.216931,-0.889689,0.184195,0.435168,-0.236085,0.409437,-0.071142,-0.527423,0.062121,1
2169621842,-2.393627,-0.27976,-0.069441,0.236491,-1.005176,0.251352,0.352119,-0.016611,0.21736,0.114746,-0.51257,0.180211,1
2169655176,-0.557169,0.196245,-0.726358,0.253214,-0.961025,0.296429,0.143528,-0.095407,0.224874,0.377803,-0.692365,0.469049,1
2169688510,1.051597,0.455693,0.042968,0.096505,-0.974889,0.21895,-0.205724,-0.125892,-0.114732,0.594371,-0.890968,0.564942,1
2169721844,1.512719,-0.127452,0.019775,0.131928,-0.589133,0.453819,-0.610936,0.068568,-0.107179,0.106429,-1.026378,0.656886,1
2169755178,-2.661277,-1.835019,2.04983,-0.156215,-0.701667,0.183559,-0.883354,-0.143847,-0.043316,-0.162676,-1.26156,0.576791,1
2169788512,-4.14027,-0.470667,-0.418935,-0.205237,-0.722735,0.010066,-1.277204,-0.317988,-0.228427,-0.321874,-1.295017,0.336748,1
2169821846,1.820877,-0.051341,0.743283,0.01377,-0.321585,0.312863,-1.656061,-0.40951,-0.240546,-0.3871,-1.220346,0.583799,1
2169855180,4.074816,-0.254177,0.878165,-0.064682,-0.276603,0.749277,-1.856265,-0.824486,-0.191024,-0.422879,-1.047899,0.933117,1
2169888514,0.335535,0.099859,0.42369,-0.229855,-0.463912,0.70888,-1.596411,-0.996339,-0.002408,-0.579296,-0.845075,0.939366,1
2169921848,-1.628932,-0.676916,-0.186096,-0.381576,-0.616352,0.199822,-1.369512,-0.572223,-0.489798,-0.589583,-0.50826,0.507282,1
2169955182,-0.6721,-1.268728,-0.437656,-0.446618,-0.549766,-0.420369,-0.975298,-0.419606,-0.818429,-0.485601,-0.342825,-0.114542,1
2169988516,0.429829,0.044247,0.564948,-0.260482,-0.247508,-0.494487,-0.621193,-0.333396,-0.761966,-0.576156,-0.291462,-0.388124,1
2170021850,0.212036,0.166413,0.326182,0.014566,0.115921,-0.177987,0.083681,-0.438611,-0.124539,-0.888491,-0.167239,-0.32467,1
2170055184,-1.012624,-0.097191,-0.086202,0.089495,0.28167,-0.005324,-0.536242,-0.211094,-0.011279,-1.022606,0.078088,-0.230797,1
2170088518,-0.558545,0.415591,-0.195971,0.205011,0.305277,-0.122917,-0.636336,0.080818,0.134557,-0.94205,0.291238,-0.286922,1
2170121852,0.374927,0.308276,0.321638,0.292517,0.419206,-0.039947,-0.445249,0.249206,0.071011,-0.768769,0.532406,-0.303787,1
2170155186,0.787317,-0.475146,0.236604,0.261017,0.502291,-0.080894,0.005551,0.593669,-0.075323,-0.425593,0.647497,-0.281384,1
2170188520,0.895571,-0.915211,0.029901,0.332973,0.622672,0.01222,0.707536,0.897105,0.021703,-0.234295,0.763517,-0.200416,1
2170221854,1.198084,-0.059903,0.408095,0.231812,0.867855,0.256841,1.470359,1.025186,0.207041,-0.11358,0.844004,0.053985,1
2170255188,0.399102,0.053248,0.226567,-0.017252,0.874056,0.335746,2.650656,1.502515,0.230952,0.039665,0.876415,0.330088,1
2170288522,0.419944,-0.041158,0.159222,-0.236215,0.702189,0.261928,3.074772,1.288087,0.389028,0.119568,0.918906,0.409354,1
2170321856,0.521296,-0.303215,0.232932,-0.335415,0.543844,0.181002,3.010044,0.906287,0.331485,0.208515,0.991744,0.399305,1
2170355190,0.425883,-0.472785,0.064158,-0.406137,0.447871,-0.006666,2.641163,0.876488,-0.480314,0.534562,1.002188,0.30197,1
2170388524,0.101415,0.061001,0.170794,-0.231058,0.50105,-0.05453,1.521034,0.63537,-0.727881,0.777223,0.967249,0.129394,1
2170421858,-0.063055,0.550734,0.042074,-0.067481,0.699209,0.020858,0.601526,-0.120309,-0.461347,0.982286,0.822882,0.145971,1
2170455192,0.078104,-0.156533,0.079037,0.079032,0.722189,-0.015945,0.035382,-0.439075,-0.238225,1.08456,0.694602,0.183585,1
2170488526,0.249355,-0.69541,0.177969,0.224343,0.619588,-0.058979,-0.270568,-0.258156,-0.173672,0.875608,0.542545,0.041365,1
2170521860,0.123186,-0.297745,0.105185,0.357799,0.568628,0.09539,-0.451311,-0.139138,-0.044286,0.71245,0.419566,0.122602,1
2170555194,0.194337,-0.157887,0.225615,0.343112,0.45129,0.207572,-0.513323,-0.059101,0.025266,0.779001,0.349275,0.306396,1
2170588528,0.255929,0.020358,0.123726,0.34384,0.225382,0.197898,-0.614468,-0.002442,-0.043262,0.78774,0.274269,0.312475,1
2170621862,0.283688,0.48892,0.114817,0.37815,0.054325,0.167317,-0.608063,-0.251579,0.150659,0.68559,0.126468,0.304973,1
2170655196,0.232502,0.364158,0.117912,0.424473,-0.045473,0.100795,-0.358665,-0.180864,0.229474,0.61104,-0.070891,0.274239,1
2170688530,0.239885,0.083534,0.144714,0.649176,0.04434,-0.09505,-0.207302,0.082391,0.03052,0.454828,-0.211651,0.090501,1
2170721864,0.026237,0.011112,0.08436,0.817608,0.205315,-0.067836,-0.036319,0.267149,-0.134608,0.369648,-0.405146,-0.023869,1
2170755198,0.011226,-0.13062,0.115397,0.850659,0.380981,0.018723,0.121937,0.362004,-0.108602,0.323835,-0.558773,-0.002528,1
2170788532,-0.001518,-0.140053,0.138484,0.688138,0.371381,0.205275,0.321358,0.393575,-0.090844,0.181908,-0.642738,0.197834,1
2170821866,0.13936,0.063694,0.200147,0.33702,0.171132,0.345661,0.477809,0.438302,-0.069897,0.092007,-0.580488,0.446038,1
2170855200,0.169545,-0.060451,0.131711,0.044136,-0.010815,0.318001,0.649535,0.449009,-0.111331,0.079308,-0.491768,0.575727,1
2170888534,0.203269,-0.126575,0.150263,-0.004247,-0.086125,0.158851,0.764492,0.457917,-0.206753,0.187307,-0.371292,0.514001,1
2170921868,0.023034,-0.101459,0.078331,0.083152,-0.025612,0.220895,0.69079,0.54888,-0.315967,0.22548,-0.251182,0.453025,1
2170955202,-0.084831,-0.159621,0.119603,0.200791,0.078306,0.268191,0.405932,0.474742,-0.368313,0.146436,-0.197908,0.404453,1
2170988536,0.11807,-0.101515,0.169146,0.286005,0.120496,0.282333,0.134247,0.239176,-0.260954,-0.024695,-0.103086,0.291466,1
2171021870,0.127739,-0.096248,0.116903,0.255989,0.14541,0.149571,-0.021743,0.114723,-0.141929,-0.059242,-0.050457,0.121642,1
2171055204,0.022696,-0.051686,0.129149,0.225544,0.115791,0.083606,-0.046994,0.053471,-0.084997,-0.079873,-0.013964,0.055204,1
2171088538,0.055281,-0.044707,0.141188,0.183908,0.201332,0.164322,0.005227,-0.133141,0.010509,0.001719,0.080184,0.231195,1
2171121872,-0.016128,-0.132165,0.11761,0.077273,0.204944,0.157232,0.022043,-0.206152,-0.008502,0.018352,0.127272,0.273578,1
2171155206,0.020515,0.021617,0.118915,0.110213,0.155861,0.070084,0.015073,-0.066524,-0.17936,-0.03721,0.180703,0.141365,1
2171188540,0.057981,0.0336,0.140168,0.079541,0.151028,0.079075,0.023296,-0.027381,-0.146627,0.01527,0.204973,0.158032,1
2171221874,0.081724,0.03347,0.108702,0.152524,0.166543,0.112581,0.064295,0.007144,-0.078014,0.029427,0.240817,0.129003,1
2171255208,0.040254,-0.021495,0.124446,0.198515,0.192851,0.061171,0.158346,0.193186,-0.135428,-0.00527,0.275357,0.079419,1
2171288542,-0.119395,-0.040651,0.14641,0.231826,0.191779,0.242819,0.198795,0.199153,-0.173998,0.000927,0.279459,0.164701,1
2171321876,-0.011773,0.027241,0.116506,0.089497,0.125851,0.161408,0.24951,0.180442,-0.196979,0.045077,0.210708,0.203949,1
2171355210,0.102015,0.056484,0.137112,0.040207,0.154316,0.082124,0.296329,0.09047,-0.180891,0.020653,0.170018,0.175873,1
2171388544,0.055546,0.024625,0.091145,-0.038342,0.153328,0.106472,0.281967,0.058008,-0.133218,-0.012239,0.064835,0.227365,1
2171421878,0.074775,0.003476,0.120057,-0.042383,0.138523,0.054289,0.27241,-0.004783,-0.137683,-0.092854,-0.014328,0.162326,1
2171455212,0.135784,0.036117,0.10575,0.040979,0.202153,0.091347,0.253904,-0.064751,-0.046717,-0.098074,-0.0054,0.175893,1
2171488546,0.050413,-0.047048,0.104527,0.076599,0.183139,0.070024,0.205469,-0.090362,-0.027973,-0.102541,0.030771,0.182862,1
2171521880,0.180648,0.064543,0.142803,0.159776,0.214668,0.093855,0.186013,0.020162,-0.143106,-0.121088,0.046513,0.137735,1
2171555214,0.136394,0.072514,0.127337,0.205142,0.256025,0.150531,0.196539,0.081708,-0.16729,-0.051805,0.087755,0.134275,1
2171588548,0.163837,-0.063228,0.135555,0.201696,0.246931,0.155811,0.247618,0.11315,-0.124057,-0.016726,0.104304,0.178987,1
2171621882,0.227689,-0.181387,0.138762,0.137,0.204042,0.168342,0.319632,0.135958,-0.060496,-0.00092,0.072584,0.222016,1
2171655216,-0.015714,-0.208644,0.082538,0.109573,0.209084,0.100882,0.337933,0.0533,-0.096623,0.086181,0.057559,0.226746,1
2171688550,0.15229,-0.084588,0.100438,0.110805,0.24343,0.046884,0.390721,0.095329,-0.230659,0.134741,0.050979,0.1666,1
2171721884,0.224433,-0.021944,0.103691,0.159724,0.316476,0.030444,0.473419,0.137331,-0.317827,0.195603,-0.008547,0.148197,1
2171755218,0.366117,0.029327,0.085614,0.221481,0.434995,0.016028,0.549946,0.155108,-0.258479,0.23357,-0.037735,0.149282,1
2171788552,0.509527,-0.03113,0.114335,0.279955,0.504257,0.131445,0.626174,0.252127,-0.145828,0.243671,0.02396,0.231977,1
2171821886,0.554883,-0.008654,0.27887,0.358792,0.477133,0.253277,0.717672,0.171964,0.249665,0.334271,0.13232,0.321684,1
2171855220,0.468696,-0.345175,0.221352,0.488811,0.378919,0.575654,0.811605,0.236887,0.523204,0.432569,0.312761,0.578726,1
2171888554,0.42619,-0.344648,0.159207,0.382286,0.14293,0.450389,0.74854,0.235856,0.5108,0.619417,0.364367,0.532416,1
2171921888,0.394298,-0.151264,0.108983,0.29321,0.063547,0.066482,0.711781,0.246721,0.334309,0.73623,0.337942,0.22937,1
2171955222,0.393415,0.043405,0.081529,0.292168,0.15151,-0.318053,0.640775,0.232128,0.067011,0.800536,0.164985,-0.134912,1
2171988556,0.154368,0.070547,0.067569,0.346883,0.394512,-0.406851,0.485721,0.366392,-0.08989,0.657049,0.021219,-0.297147,1
2172021890,-0.06371,-0.014055,0.099995,0.359225,0.583341,-0.220107,0.35416,0.460664,-0.030767,0.516084,0.030665,-0.200221,1
2172055224,-0.230104,-0.249755,0.059199,0.23979,0.410819,0.050779,0.255053,0.526429,0.048792,0.44484,0.229871,0.08722,1
2172088558,-0.176392,-0.380161,0.109387,0.000948,0.053684,0.228873,0.153971,0.423862,-0.04092,0.47031,0.419863,0.2735,1
2172121892,-0.144924,-0.27292,0.058107,-0.156615,-0.236478,0.17162,0.088795,0.262355,-0.148223,0.539608,0.480658,0.302416,1
2172155226,-0.172358,-0.229093,0.081953,-0.16037,-0.291624,0.012539,0.038192,0.150201,-0.193353,0.438541,0.384912,0.229875,1
2172188560,-0.018078,-0.388127,0.145196,-0.11763,-0.273751,-0.06285,-0.03065,0.118738,-0.255984,0.162818,0.1633,0.130751,1
2172221894,-0.014543,-0.306681,0.118267,-0.006598,-0.139992,-0.05644,-0.137576,0.151216,-0.201989,-0.04439,0.001595,0.1053,1
2172255228,0.023081,-0.279235,0.185332,0.064048,-0.090927,0.032347,-0.272687,0.152389,-0.089016,-0.188832,-0.111854,0.079997,1
2172288562,0.11671,-0.222321,0.114241,0.040152,-0.127564,0.067745,-0.40265,0.094935,-0.008304,-0.24144,-0.217186,0.072286,1
2172321896,0.025063,-0.134483,0.083072,-0.006097,-0.203696,-0.013869,-0.48994,0.048181,-0.044777,-0.346007,-0.286768,0.040706,1
2172355230,-0.124721,-0.037762,0.185256,-0.026044,-0.234698,0.02701,-0.495244,0.081026,-0.012376,-0.490366,-0.353556,0.054766,1
2172388564,-0.089135,-0.056564,0.296665,-0.050366,-0.254265,0.107191,-0.456462,0.05297,0.060342,-0.612122,-0.438206,0.100692,1
2172421898,-0.013319,-0.117834,0.245264,0.007576,-0.200601,0.300676,-0.482395,0.182312,-0.007097,-0.735451,-0.473591,0.281817,1
2172455232,-0.119488,-0.347616,0.279373,-0.128341,-0.205249,0.273996,-0.492413,0.21833,-0.147025,-0.716235,-0.498857,0.344673,1
2172488566,-0.147346,-0.374338,0.191419,-0.204289,-0.364752,0.14764,-0.52139,0.18794,-0.312263,-0.734419,-0.440388,0.272096,1
2172521900,0.421213,-0.385307,0.309782,-0.267686,-0.339247,0.289363,-0.556004,0.110386,-0.378688,-0.803319,-0.400938,0.313967,1
2172555234,-0.130044,-0.454304,0.396603,-0.466288,-0.274368,0.489085,-0.567531,-0.01091,-0.293057,-0.724155,-0.441459,0.571496,1
2172588568,-0.514273,-0.888726,0.482844,-0.674742,-0.458975,0.354963,-0.575515,-0.162746,-0.433231,-0.77956,-0.422823,0.650371,1
2172621902,-0.447455,-1.02337,0.295,-0.695269,-0.532355,0.286917,-0.553907,-0.334345,-0.514478,-1.075322,-0.411335,0.54694,1
2172655236,-0.099113,-0.93921,0.099047,-0.660143,-0.828822,0.184848,-0.424082,-0.579719,-0.590409,-1.136468,-0.422443,0.371387,1
2172688570,-0.233048,-1.99103,1.628367,-0.626377,-0.881658,0.211313,-0.312442,-0.763185,-0.463816,-1.152727,-0.224628,0.254426,1
2172721904,-0.752449,-1.996205,1.015763,-0.379769,-0.362274,0.302703,-0.197979,-0.7153,-0.002604,-1.204861,-0.214408,0.324501,1
2172755238,0.370623,-0.946637,0.776774,-0.306709,-0.368238,0.084105,-0.162181,-0.687411,0.037063,-1.143028,-0.192763,0.133512,1
2172788572,-0.440463,1.349151,0.305184,-0.329186,-0.748955,-0.111525,-0.217852,-0.771946,-0.129734,-1.216569,-0.138093,-0.270271,1
2172821906,-1.037641,1.705373,0.108504,-0.336648,-0.838115,-0.195402,-0.186322,-0.993237,-0.113223,-1.375808,-0.171988,-0.254156,1
2172855240,-2.101715,2.437382,-0.757088,-0.268529,-0.944839,-0.313029,-0.113577,-1.231152,-0.076236,-0.965356,-0.828154,-0.00528,1
2172888574,-1.736549,4.466072,-1.468325,0.00654,-0.991356,-0.246336,-0.038755,-1.349835,0.047841,-1.168525,-1.034255,-0.390456,1
2172921908,1.75904,3.920131,-2.189943,0.36233,-0.785894,-0.083632,-0.040796,-1.207582,0.243421,-0.838122,-0.715133,-0.405637,1
2172955242,0.020031,3.818655,-1.669127,0.617513,-0.501091,-0.151653,0.062164,-1.130195,0.34274,-0.616075,-0.258669,-0.75305,1
2172988576,0.029802,2.342731,-1.590806,0.67657,-0.56485,-0.386974,0.207981,-1.339252,0.418377,0.150618,0.05946,-0.810314,1
2173021910,1.008782,0.491013,-0.556782,0.441302,-0.646656,-0.442871,0.452996,-1.429693,0.602169,0.301013,-0.075436,-0.867528,1
2173055244,-0.61024,-1.868698,-0.615515,0.394497,-0.628743,-0.373161,0.561868,-1.096935,0.628495,-0.193593,-0.169591,-0.891614,1
2173088578,-1.370358,-1.461839,-1.036397,0.216105,-0.69106,-0.331079,0.566236,-0.712514,0.690529,-0.129931,-0.275459,-0.22853,1
2173121912,0.609573,-1.824179,0.0168,0.055858,-0.7889,-0.177743,0.500148,-0.437526,0.729956,0.085015,-0.518093,0.159706,1
2173155246,1.368086,-2.452809,3.090493,0.039891,-0.874996,-0.205028,0.314096,-0.261084,0.688737,0.256415,-0.909082,0.223332,1
2173188580,0.004409,-4.776733,1.566191,0.112508,-0.839214,-0.254235,-0.010901,-0.101375,0.504521,0.596291,-1.137649,0.183226,1
2173221914,1.361008,-1.903899,-0.122273,0.21208,-0.520561,0.130826,-0.266816,0.070677,0.382452,0.964614,-0.940093,0.420069,1
2173255248,0.227528,2.144656,0.094152,0.314233,-0.259805,0.756226,-0.498863,0.352887,0.407356,1.027372,-0.923843,0.927608,1
2173288582,-1.116705,-3.329184,2.463773,0.028465,-0.573576,0.676019,-0.331446,0.362178,0.396262,0.88179,-1.153268,1.143517,1
2173321916,-2.577493,-1.51648,-1.309809,0.063348,-1.005214,0.20346,-0.373154,0.230792,-0.560855,0.40429,-0.841575,0.539008,1
2173355250,-0.36005,1.611603,0.131555,0.341655,-0.576531,0.33939,-0.056347,0.142785,-0.527418,0.324972,-0.458114,0.707669,1
2173388584,-0.282688,0.778135,0.118366,0.461359,-0.523938,0.248285,0.216476,-0.095573,-0.473697,0.570393,-0.708911,0.609607,1
2173421918,-1.88695,0.1891,-0.150803,0.695249,-0.576726,0.36868,0.362974,-0.044442,-0.520286,-0.145101,-0.952557,0.099321,1
2173455252,-1.986657,0.240509,-0.105043,0.696603,-0.73985,0.364103,0.409266,0.031646,-0.482254,-0.492145,-0.659825,0.191882,1
2173488586,-0.729361,-0.022281,0.149703,0.334339,-0.613038,0.152057,0.43559,-0.056476,-0.35334,-0.001064,-0.417893,0.317876,1
2173521920,1.035137,0.309381,0.027282,0.203975,-0.312059,-0.095879,0.276641,-0.31333,-0.328614,-0.12851,-0.566176,0.263461,1
2173555254,0.976539,0.330336,0.4605,0.08737,-0.117006,-0.013666,0.080459,-0.575432,-0.221037,-0.655642,-0.756698,0.018629,1
2173588588,-0.121337,-0.67704,0.176291,-0.214942,-0.008473,-0.102947,-0.234333,-0.838991,-0.224463,-0.798021,-0.700531,-0.113967,1
2173621922,-0.504673,-0.586743,-0.18371,-0.410099,0.127254,-0.004395,-0.492963,-1.128615,0.036425,-0.740083,-0.423138,0.086409,1
2173655256,-0.344455,0.020576,0.018198,-0.701539,0.107865,0.049868,-0.580662,-1.329858,0.120605,-0.971207,-0.188719,0.073788,1
2173688590,0.278588,0.275611,0.381822,-0.808525,0.13721,0.111628,-0.671524,-1.076624,0.176236,-1.165998,0.03711,0.1523,1
2173721924,0.276336,0.587616,0.215018,-0.750801,0.302552,0.227877,-0.534751,-0.692653,0.397903,-1.265743,0.238902,0.21479,1
2173755258,0.822405,0.777006,0.099085,-0.59893,0.376725,0.288327,-0.284894,-0.113853,0.41486,-1.155111,0.505645,0.183755,1
2173788592,0.647113,0.59684,0.219666,-0.43511,0.412,0.18308,-0.069107,0.525109,0.216386,-0.967342,0.661474,0.133482,1
2173821926,0.144064,0.170765,0.185466,-0.297126,0.376017,0.002396,0.167413,0.886683,-0.087514,-0.627537,0.719907,-0.025252,1
2173855260,-0.147114,-0.083985,0.234157,-0.191859,0.40013,-0.228578,0.351208,1.048955,-0.291907,-0.344835,0.678517,-0.225256,1
2173888594,0.025805,0.409382,0.078794,-0.061213,0.601937,-0.23668,0.522112,1.218245,-0.171614,-0.20677,0.556003,-0.252449,1
2173921928,0.149447,0.491114,0.122002,0.004939,0.715032,-0.158058,0.690581,1.392741,-0.161515,-0.079178,0.332628,-0.162393,1
2173955262,-0.03013,0.425843,0.127015,0.041513,0.70773,-0.043895,0.926531,1.738305,-0.183294,0.019573,0.231297,-0.035718,1
2173988596,0.073441,0.401311,0.111522,0.072695,0.674468,0.12121,1.021715,1.891348,-0.345246,0.093024,0.275602,0.145522,1
2174021930,0.086229,0.143046,0.214666,0.006089,0.518075,0.160363,0.820461,1.763714,-0.5126,0.211489,0.418133,0.28464,1
2174055264,0.151356,-0.078996,0.241717,-0.085824,0.335926,0.211166,0.550711,1.52336,-0.371745,0.405603,0.617665,0.457248,1
2174088598,-0.127853,0.090571,0.12999,-0.09593,0.281614,0.130629,0.224231,1.199915,-0.178216,0.584609,0.782345,0.449332,1
2174121932,-0.041713,0.233567,0.137428,-0.078815,0.377329,0.227791,-0.005087,0.880658,-0.214128,0.730366,0.839878,0.437139,1
2174155266,-0.018353,0.180077,0.108001,-0.052724,0.438027,0.212302,-0.107984,0.633614,-0.25183,0.778454,0.777289,0.375327,1
2174188600,-0.145043,0.040836,0.125337,-0.05356,0.490492,0.204561,-0.145418,0.316471,-0.317797,0.612621,0.661497,0.387815,1
2174221934,-0.023971,0.018124,0.122436,-0.079161,0.309233,0.179118,-0.172241,0.051992,-0.426095,0.32025,0.625543,0.287251,1
2174255268,-0.001388,-0.012625,0.031101,0.014059,0.293162,0.185222,-0.247841,-0.266187,-0.545608,0.175195,0.582126,0.268581,1
2174288602,0.142401,0.065833,0.180178,0.085841,0.329548,0.22771,-0.321066,-0.456265,-0.522224,0.164283,0.536451,0.33928,1
2174321936,0.248087,0.057364,0.161272,0.221072,0.226752,0.374263,-0.301095,-0.565226,-0.298358,0.107841,0.434431,0.418211,1
2174355270,0.099914,0.012294,0.219246,0.280391,0.097669,0.417256,-0.285755,-0.556343,-0.088956,-0.022313,0.20359,0.380011,1
2174388604,-0.089567,-0.155718,0.11085,0.333584,0.089616,0.320135,-0.202363,-0.519706,-0.031674,-0.11499,-0.059418,0.321844,1
2174421938,-0.065058,-0.106492,0.10944,0.343168,0.148153,0.214063,0.100085,-0.452046,0.044144,-0.108546,-0.306601,0.253411,1
2174455272,-0.016358,0.015105,0.062701,0.340472,0.152135,0.145235,0.734999,-0.396082,0.11797,-0.167517,-0.522067,0.190581,1
2174488606,0.117125,0.161465,0.087032,0.272265,0.067429,0.139983,0.806292,-0.386803,-0.043074,-0.231648,-0.670166,0.191771,1
2174521940,0.200143,0.013891,0.140875,0.205862,0.047693,0.123005,0.814377,0.006068,-0.116621,-0.195289,-0.728748,0.257636,1
2174555274,0.188653,-0.175967,0.106779,0.215066,0.040359,0.134226,0.800432,0.126434,-0.150784,-0.113299,-0.712942,0.267431,1
2174588608,0.175027,-0.11898,0.115345,0.209112,0.159578,0.126492,0.512486,0.23609,-0.191357,-0.038068,-0.667401,0.261776,1
2174621942,0.188092,-0.137807,0.156937,0.29184,0.20549,0.069955,0.481684,0.19395,-0.056664,0.070422,-0.588345,0.224243,1
2174655276,0.14498,-0.187294,0.155253,0.384923,0.390342,0.158558,0.377058,0.246754,-0.153571,0.080685,-0.404094,0.253365,1
2174688610,0.446319,-0.225578,0.107303,0.377253,0.368593,0.296704,0.267525,0.041799,-0.174087,0.19459,-0.212719,0.320749,1
2174721944,0.570783,-0.148612,0.247318,0.455642,0.256275,0.514558,0.305822,-0.046855,0.31491,0.18119,-0.00564,0.55579,1
2174755278,0.36994,-0.137847,0.127101,0.447853,0.055625,0.434158,0.489833,0.258018,0.493661,0.216206,0.17218,0.533806,1
2174788612,0.116817,0.035876,0.099966,0.444555,-0.039683,0.10603,0.440869,0.478867,0.283746,0.447079,0.328548,0.2644,1
2174821946,-0.200004,0.306817,0.015936,0.456493,0.186425,-0.049942,0.41454,0.472751,0.0979,0.749806,0.347274,0.126758,1
2174855280,-0.181035,0.223758,0.071283,0.310484,0.163416,-0.164697,0.486806,0.613407,-0.179621,0.849091,0.217434,0.04851,1
2174888614,0.072601,-0.212963,0.129796,-0.074328,0.167751,0.016726,0.502231,0.885074,0.071382,0.569276,0.245554,1.042625,1
2174921948,0.283916,-0.42949,0.161215,-0.41961,-0.108061,0.34693,0.570256,0.852537,-0.137503,0.918299,0.790767,0.998081,1
2174955282,0.530065,-0.451651,0.250555,-0.706437,-0.588434,0.771642,0.551813,0.79025,-0.192757,1.028865,1.053957,0.762759,1
2174988616,0.308579,-0.630658,0.159567,-0.262317,-0.159651,0.434896,0.475643,0.815464,-0.082797,0.882915,0.81035,1.490458,1
2175021950,0.154819,-0.89556,0.100924,-0.381456,0.284509,0.441865,0.337277,0.61834,-0.505714,-0.021723,0.564856,0.718085,1
2175055284,0.406898,-0.782746,0.204007,-0.106936,0.491487,0.306523,0.205006,0.511923,-0.196641,-0.556926,0.112419,0.463858,1
2175088618,0.343258,-0.704679,0.308376,-0.321204,0.578847,-0.008317,0.130404,0.313712,-0.539599,-0.78684,-0.349933,-0.236234,1
2175121952,-0.254895,-0.966442,0.321111,-0.161796,0.484449,-0.158011,0.084701,0.310985,-0.410297,-1.264104,-0.521587,-0.458933,1
2175155286,-0.444,-1.288153,0.2727,-0.35567,0.395846,-0.105589,-0.075268,0.311299,-0.11366,-1.441045,-0.589969,-0.385003,1
2175188620,-0.266842,-1.739981,0.301976,-0.536246,-0.095489,0.051333,-0.171478,0.272405,-0.079826,-1.414927,-0.535507,0.050708,1
2175221954,0.057229,-2.357845,0.220518,-0.566947,-0.713079,0.036939,-0.242421,-0.064275,0.183974,-1.419735,-0.450462,0.179505,1
2175255288,-0.012274,-2.781435,0.256879,-0.628384,-0.852833,-0.004992,-0.319008,-0.073303,0.412795,-1.347325,-0.462144,0.338192,1
2175288622,-0.176099,-2.339668,0.735363,-0.56041,-0.840915,0.032928,-0.534592,0.089208,0.536918,-1.288719,-0.432162,0.472301,1
2175321956,-0.260122,-0.712267,0.499937,-0.672655,-0.737663,0.311004,-0.631819,0.096192,1.025276,-1.222994,-0.347776,0.777407,1
2175355290,0.146052,1.995188,0.695775,-0.655004,-0.960977,0.278303,-0.78586,0.052689,0.876128,-1.122299,-0.257233,0.699964,1
2175388624,0.374445,3.272497,0.223851,-0.312954,-0.904831,0.189615,-1.018548,0.096314,0.604447,-1.256602,-0.184618,0.361136,1
2175421958,0.389047,3.485463,-0.275267,-0.133944,-0.398726,0.251183,-0.767947,0.07373,0.923157,-1.147613,-0.484811,0.361121,1
2175455292,0.121398,3.368117,-0.48476,-0.079706,-0.363771,0.238536,-0.672629,-0.049771,0.67526,-0.614823,-0.65499,0.504483,1
2175488626,0.251797,2.756878,-0.320108,0.043291,-0.677367,0.352687,-0.563908,0.086492,0.380051,-0.177678,-0.344937,0.416908,1
2175521960,0.277792,1.598566,-0.129685,0.487457,-0.432184,0.311671,-0.511441,0.002922,0.025442,-0.690837,-0.160333,0.816187,1
2175555294,-1.147078,0.499325,-0.352088,-0.170709,-0.473148,0.613333,-0.165081,-0.416382,0.446291,-1.471106,-0.051698,0.757767,1
2175588628,-1.431842,-0.598531,-0.018401,-0.044395,-1.443661,0.711538,-0.097195,-0.575555,0.727068,-0.767785,-0.317636,0.337154,1
2175621962,-0.960253,-0.982971,-0.006509,0.610771,-0.44091,0.468093,-0.496447,-0.877775,1.419066,-0.808659,-0.534208,0.30815,1
2175655296,-0.618875,-1.104241,0.564127,0.470819,0.432218,0.413895,-0.534579,-0.146373,1.63645,-0.683585,-0.776126,-0.019352,1
2175688630,-0.732459,-0.848837,0.582817,0.602212,-0.46875,0.206217,-0.711443,-0.003913,1.066826,-0.407975,-0.74379,-0.142739,1
2175721964,-0.596287,-0.365202,0.612406,0.559938,-0.516546,-0.101999,-0.39782,0.341383,0.238207,1.635999,-1.088995,0.74171,1
2175755298,-0.205501,-0.072727,0.200532,0.966984,-0.07129,-0.455132,0.128581,0.21069,0.124985,1.919477,-0.902489,0.172493,1
2175788632,-0.047953,0.23542,-0.289359,1.349375,-0.218246,-0.375576,0.570124,-0.116041,0.322371,0.717747,0.502652,-1.222293,1
2175821966,-0.265378,0.340016,-0.504654,1.118949,-0.526788,-0.773256,0.368114,-0.313465,-0.188352,0.171667,0.790507,-1.817706,1
2175855300,-0.343422,0.244186,-0.759369,0.662856,-0.259604,-1.040874,0.302899,-0.71186,-0.287944,1.067913,0.823361,-1.161052,1
2175888634,-0.207412,0.351924,-0.744752,0.575,-0.622624,-0.675472,0.194399,-0.640652,-0.673658,1.70369,-0.203138,-0.664378,1
2175921968,0.332818,0.424853,-0.655411,0.209931,-0.40499,-0.837015,0.413591,-0.710309,-0.87457,1.731759,-1.502129,0.017406,1
2175955302,0.319322,0.605981,-0.743329,0.517126,-0.626023,-0.339518,-0.358342,-2.008939,0.584514,2.000615,-1.952099,0.057413,1
2175988636,0.120815,0.552868,-0.582648,0.894772,-0.702096,-0.38915,-0.736688,-1.542419,-0.485264,1.759706,-1.469103,-0.225534,1
2176021970,-0.166071,0.444116,-0.206152,1.019402,-1.022726,-0.422235,-0.113954,-1.125338,-0.740932,1.365418,-0.780513,-0.383445,1
2176055304,-0.618585,0.749993,0.009102,1.072061,-0.701891,-0.947174,-0.00285,-0.601475,-1.925998,1.269602,-0.509259,-1.177894,1
2176088638,-2.214711,1.29393,0.665196,1.069687,-0.136109,-0.425625,-0.082415,-1.251002,-1.748196,-0.090194,-1.07516,-0.507312,1
2176121972,-1.454315,-2.335453,2.275487,0.277756,-0.564714,-0.114121,0.566086,-2.098232,-0.512456,-2.908487,-0.496017,-1.674026,1
2176155306,-0.729388,-2.308939,-0.287155,0.012118,-0.465013,0.289268,0.213709,-1.51024,-0.774378,-1.81664,-0.348681,-0.69201,1
2176188640,-0.172995,-0.45294,0.350526,-0.288123,-0.339746,0.350932,0.443808,-1.138934,-0.865708,0.361157,-0.913492,1.652984,1
2176221974,0.713,-0.464178,0.248384,-0.323967,-0.485105,-0.048977,0.68768,-1.127016,-0.700387,0.19593,0.184231,0.679895,1
2176255308,-0.2474,-0.437493,-0.001182,-0.173806,-0.252479,0.294549,1.251799,-0.381553,-0.433023,-0.672524,0.676284,0.309722,1
2176288642,0.171117,-0.723112,0.025633,-0.528553,-0.205507,0.023769,0.207331,1.886461,-1.706188,-0.862515,-0.206699,0.067897,1
2176321976,0.149199,-0.263438,0.337494,-0.481831,-0.549909,0.238093,-0.254123,2.153571,-1.116591,-1.36712,1.601367,0.211611,1
2176355310,0.561624,0.727462,-0.098742,-0.430235,-0.31632,0.14522,0.117845,-0.547566,1.261353,-0.471832,1.732669,1.053322,1
2176388644,-0.348301,0.79104,0.218935,-0.133804,0.139886,-0.043407,-0.05504,-1.528772,1.02001,0.593927,0.507493,0.864971,1
2176421978,-0.399297,0.140106,-0.075051,0.333651,0.042528,-0.525157,0.767899,-2.042485,0.312411,0.308505,1.2443,-0.050308,1
2176455312,-0.411147,0.211428,-0.1541,0.601975,0.235518,-0.702674,-1.083945,-0.698502,0.269051,-0.065572,0.620506,-0.871903,1
2176488646,-0.254014,0.490604,0.350489,0.187425,0.266825,-0.67961,-1.246387,2.162223,-1.155063,-0.054937,-0.753346,-0.377181,1
2176521980,0.276416,0.414819,0.548077,0.067089,0.37341,-0.378367,-0.998836,3.208999,-1.04879,0.031492,-1.173893,-0.557626,1
2176555314,0.436692,0.029329,0.36065,0.243516,0.339309,-0.02813,-0.874503,1.477456,-0.008715,-0.038664,-0.753982,-0.406343,1
2176588648,0.219963,-0.077224,0.233142,0.085821,0.58261,0.482513,0.072196,1.783988,-0.718875,-0.448796,-0.198884,0.110603,1
2176621982,0.347541,0.10386,0.27801,-0.319409,0.384402,0.898185,1.494272,-1.149102,2.744061,0.393655,-0.372742,1.595072,1
2176655316,0.497632,0.163151,0.287316,-0.451841,0.211757,0.94974,-0.25492,2.412638,-0.808203,-0.898206,0.006358,0.630559,1
2176688650,0.810672,0.282071,0.281182,-0.415627,0.266522,0.667839,-0.738945,3.934001,-2.39621,-1.786241,0.650189,0.047339,1
2176721984,0.379922,0.088381,0.119687,-0.525368,0.281222,0.423061,0.415039,2.150034,-0.999446,-0.869557,-0.289006,0.127011,1
2176755318,0.092278,0.214541,0.038774,-0.21153,0.44855,0.134637,1.342963,-0.831989,1.419188,-0.258121,0.205929,0.437737,1
2176788652,-0.207156,0.455364,0.090936,-0.036386,0.530281,-0.19569,1.107323,-1.151293,1.061946,0.401832,0.453692,0.397679,1
2176821986,-0.319283,0.476328,0.056977,0.142941,0.710482,-0.403077,1.058822,-0.581192,0.836464,1.235939,-0.229809,-0.155963,1
2176855320,-0.310163,0.379888,0.042866,0.191472,0.730709,-0.763123,0.908657,0.075833,-0.26508,1.171997,1.292633,-0.259945,1
2176888654,-0.029347,0.327991,0.181047,0.361737,0.462236,-0.637932,1.058835,0.695446,-0.350298,0.276541,0.760829,-0.755629,1
2176921988,0.041738,0.313474,0.182075,0.196989,0.596781,-0.257389,0.429843,0.366973,-0.132914,0.414942,0.100279,-0.443176,1
2176955322,0.109693,0.292155,0.270025,0.332752,0.25218,0.228638,-1.671448,1.5937,-1.515615,-0.219719,0.562171,0.170573,1
2176988656,-0.043173,0.042881,0.071734,0.227919,0.03394,0.150989,-0.89721,-0.905961,-0.551936,-0.539944,0.769476,0.292038,1
2177021990,-0.07018,-0.16979,0.131154,-0.037202,0.249857,0.789536,0.473653,-1.837405,1.455379,-0.071834,0.193551,1.055145,1
2177055324,-0.263361,-0.322776,0.186584,-0.404776,0.288999,0.847252,-0.077335,-2.466256,0.32305,-0.07529,-0.339328,0.926392,1
2177088658,0.054469,-0.281115,0.21489,-0.463211,0.342216,0.577368,0.05929,-1.631957,-0.742281,-0.278554,-0.076783,0.641753,1
2177121992,0.254552,-0.210075,0.096292,-0.471205,0.371295,0.770317,1.375265,0.058845,-0.26423,-0.845082,-0.046593,0.202736,1
2177155326,0.1315,-0.324157,0.147936,-0.518775,0.198544,0.512451,0.916521,2.575213,-1.743312,-0.652397,-0.244122,0.407203,1
2177188660,0.188134,-0.305633,0.181679,-0.488585,0.367631,0.403133,1.116354,3.736458,-2.113031,-0.090039,-0.20648,0.39314,1
2177221994,0.102907,-0.184285,0.073516,-0.144885,0.54636,0.411962,0.859961,2.350177,-1.491239,0.160711,0.219024,0.403975,1
2177255328,0.109972,-0.230074,0.064754,0.174454,0.34067,0.23953,1.018098,0.501246,-0.557849,0.321626,0.65173,0.436309,1
2177288662,0.387735,0.076603,0.13851,0.217661,0.377369,0.117518,1.66489,-4.746273,1.789772,0.003789,0.706229,0.209263,1
2177321996,0.55616,0.27436,0.148132,0.358813,0.288028,0.332558,1.355029,-4.614712,2.607284,0.255676,-0.040745,0.133075,1
2177355330,0.285161,0.218849,0.074247,0.598892,0.292101,0.25454,1.605973,0.294303,0.984982,0.406806,-0.205098,0.398855,1
2177388664,0.115215,0.17501,0.170634,0.696191,-0.19456,0.011394,-0.438646,1.812874,-0.381138,0.853295,-0.430051,0.306961,1
2177421998,0.142737,-0.049411,0.110473,0.889659,-0.103958,-0.573137,-2.181761,-1.77759,-0.975161,0.886995,-0.096921,0.112559,1
2177455332,-0.077209,-0.151054,0.026698,0.594752,0.325665,-0.337937,-0.948897,1.006107,-0.958967,0.624286,-0.318752,-0.475721,1
2177488666,0.104973,-0.348338,0.150239,0.307515,0.181154,-0.528082,0.88937,2.225433,-0.044919,0.773976,-0.661009,-0.469907,1
2177522000,0.448423,-0.483721,0.166945,0.328583,0.625274,-0.467846,0.640712,3.318213,-0.333905,0.433859,-0.165961,-0.435723,1
2177555334,0.463792,-0.668171,0.273966,0.13919,0.453456,-0.340599,-0.549646,1.706348,-0.525434,0.553781,0.276234,-0.448788,1
2177588668,0.333645,-0.828193,0.293839,0.038669,0.178999,-0.328982,-2.610927,-0.70293,-0.050411,0.493954,-0.058293,0.00207,1
2177622002,0.000227,-0.986815,0.156706,0.035589,0.312246,-0.365778,-1.524195,-1.979841,1.010099,0.445315,0.788561,0.032966,1
2177655336,-0.152128,-1.152813,0.145795,0.11367,0.397095,0.018956,0.44219,-2.554143,1.459083,-0.688456,1.636842,-0.195755,1
2177688670,-0.300305,-1.407688,0.312466,0.023163,0.116719,0.251137,0.831031,-1.66622,1.768198,-0.833771,0.886055,0.242651,1
2177722004,-0.237284,-1.637145,0.414048,-0.322795,-0.040738,-0.135368,0.739254,-0.478534,-0.027738,-0.545091,-0.555862,0.180289,1
2177755338,-0.029324,-2.114408,0.370211,-0.205847,-0.304493,-0.126591,0.406352,0.225183,-0.639566,-0.895483,-0.671229,-0.062078,1
2177788672,-0.482952,-2.396987,0.392342,0.035843,-0.469769,0.014771,-0.144389,0.803002,-1.740854,-0.83424,-0.746838,-0.09539,1
2177822006,-1.754226,-1.554604,0.881884,0.080623,-0.542835,0.565465,0.71988,0.705513,-1.306354,-1.281791,-0.349171,0.60142,1
2177855340,-0.071818,-0.582958,1.520833,-0.198229,-0.869396,0.798941,1.394894,1.485278,-1.140457,-1.629833,0.468379,0.802675,1
2177888674,-0.435127,1.149869,0.973714,-0.392679,-1.370155,0.578824,0.87959,0.25507,0.293895,-1.52113,0.103974,0.604288,1
2177922008,-1.321486,2.196436,0.232222,-0.385508,-1.185398,0.206115,0.379458,0.245582,-0.252555,-0.836337,-0.495602,0.330987,1
2177955342,-0.885225,3.614327,-0.709984,-0.463284,-1.034038,0.247184,0.185918,-2.478733,2.207816,-1.109654,-1.128518,0.324979,1
2177988676,-0.1729,4.937985,-1.281215,-0.270405,-1.217928,-0.20503,-2.268108,-1.292055,-0.446183,-0.740947,-0.414784,-0.342717,1
2178022010,-0.09086,5.172776,-1.65285,0.36265,-0.636104,-0.308464,-2.646817,-0.450645,-0.255867,-0.424316,-1.089836,0.098758,1
2178055344,0.302802,4.431157,-1.664232,0.191114,-0.329806,-0.043585,-0.616826,0.449811,-0.129138,-0.114579,-0.360187,0.317099,1
2178088678,0.191368,3.349513,-1.379097,0.305927,-1.080452,-0.158787,0.205435,0.148758,0.104521,-0.53705,0.275629,-0.4685,1
2178122012,-0.267567,1.993402,-0.918822,0.385484,-0.901257,-0.447287,2.019156,1.33179,-0.368716,-0.627456,-0.392276,-0.677319,1
2178155346,-1.266958,-0.240172,-0.643517,0.102804,-0.562699,0.093135,0.394918,0.318691,1.060455,-0.686405,-0.522869,-0.347106,1
2178188680,0.446508,-5.207669,3.317026,-0.239394,-1.392388,-0.364185,-1.087411,-0.357492,-1.016901,-0.333224,-0.43749,-0.11179,1
2178222014,-0.826297,-3.152111,-0.312799,0.253087,-0.378538,0.137307,-0.437228,-1.390603,-1.590046,-0.748977,-0.050727,0.070541,1
2178255348,-6.557663,-2.328292,-0.073269,0.054029,-0.283858,0.16821,-0.074562,-0.634305,-0.01878,-0.411719,0.276551,0.273591,1
2178288682,0.945327,-0.944181,2.495036,0.072122,-0.236036,0.201831,-0.502036,-0.411454,0.880509,0.0192,-0.136671,0.201444,1
2178322016,2.08225,-0.581113,-0.537487,0.017334,-0.127347,0.021978,-1.160721,0.619436,0.213459,0.082557,-0.852802,0.466329,1
2178355350,2.444034,1.686901,0.034504,-0.499051,-0.105033,0.168636,-1.043611,0.763766,1.827966,-0.255206,-0.932625,0.892789,1
2178388684,1.61184,1.235209,-0.402789,-0.417452,-0.677179,0.317846,0.075686,1.017817,1.340515,-0.864627,-0.041646,0.393353,1
2178422018,0.075225,0.074385,-0.669566,0.08195,-0.734552,0.558414,0.322649,1.685547,-0.825484,-1.026712,0.503978,0.419482,1
2178455352,-1.060405,0.075888,0.218648,-0.057358,-0.557782,0.394843,0.463242,1.276535,-0.496669,-0.421175,0.207013,0.813271,1
2178488686,-1.169156,0.310354,0.358815,0.13499,-0.564758,-0.0229,-0.315381,0.562985,-0.50977,0.258406,-0.418882,0.532317,1
2178522020,-0.875836,0.266606,0.299836,0.529692,-0.263714,-0.177361,-0.579293,-0.840657,0.202955,-0.013973,-0.44671,-0.314098,1
2178555354,-0.552562,0.00216,-0.037476,0.497861,-0.129351,-0.23804,-0.748948,-1.007091,0.10399,-0.182498,0.119115,-0.491023,1
2178588688,-0.438543,0.07003,0.055308,0.440004,-0.276189,-0.203762,-0.435358,-0.510324,-0.210792,-0.340817,0.361015,-0.402219,1
2178622022,-0.012029,-0.03505,-0.041886,0.337466,-0.3367,-0.079949,-0.182394,0.46133,-0.352941,-0.352083,-0.099072,-0.053795,1
2178655356,0.507365,-0.076027,-0.003963,0.1351,-0.260177,0.149257,-0.594033,0.667405,-0.764551,-0.324391,-0.068599,0.066727,1
2178688690,0.265202,-0.019129,0.128894,0.210514,-0.262212,0.260563,-0.180464,0.800172,-0.931031,-0.036641,0.465022,0.165208,1
2178722024,0.118031,-0.227363,0.150946,0.441754,-0.057311,0.121345,0.413529,0.51415,0.612594,0.21711,0.103579,0.277886,1
2178755358,0.184511,-0.411591,0.376517,0.247215,0.001375,0.009995,0.473484,-0.436266,2.2057,0.388207,-0.297114,0.220084,1
2178788692,-0.133336,-0.749825,0.400184,0.437461,0.086179,-0.027081,-0.348792,-0.619904,1.273333,0.025094,0.02382,0.146612,1
2178822026,-0.156209,-1.001325,0.314755,0.45441,0.019652,0.084718,-0.648836,-0.834385,0.676264,-0.165198,0.081407,0.174301,1
2178855360,0.003541,-0.771412,0.28095,0.330047,-0.082782,0.059854,0.159915,-0.551911,-0.263232,-0.152531,-0.032801,0.292258,1
2178888694,0.219993,-0.317652,0.219868,0.421732,0.022892,0.113394,0.442613,-0.305508,-0.438029,-0.023588,-0.03816,0.269451,1
2178922028,0.178862,0.020671,0.069002,0.332021,-0.011703,0.232319,0.262461,0.276704,-0.935016,-0.140654,0.070193,0.085382,1
2178955362,0.098762,0.326124,0.078688,0.302954,-0.032284,0.206722,-0.381138,0.010133,-0.421396,-0.05931,0.003578,0.10535,1
2178988696,-0.076856,0.316425,0.047678,0.308733,0.102564,0.123375,0.570224,0.649541,-0.451539,0.229858,-0.109705,0.280316,1
2179022030,-0.216536,0.071086,0.147618,0.166405,0.261624,0.01437,0.631413,0.670779,-0.427483,0.009674,0.026848,0.057203,1
2179055364,-0.226306,-0.212478,0.198561,0.144994,0.077586,-0.069004,0.697869,0.088631,0.087148,0.029253,-0.317677,-0.173964,1
2179088698,-0.035837,-0.401845,0.168224,0.087371,0.132257,-0.146225,0.518574,-0.712925,-0.408306,-0.017868,-0.107744,-0.324275,1
2179122032,0.150501,-0.396857,0.151592,0.218835,0.116221,-0.12574,0.267698,-0.695803,-0.631306,-0.008089,0.083965,-0.575662,1
2179155366,0.136917,-0.322496,0.106227,0.450058,0.290993,0.115499,-0.28333,-0.628464,-0.550674,-0.120274,-0.32123,-0.085343,1
2179188700,0.044069,-0.225129,0.19186,-0.342351,0.231654,0.514492,-0.148162,-0.365873,0.495706,-0.12393,-0.193283,0.990361,1
2179222034,-0.054654,-0.270206,0.16967,-0.779293,-0.144137,0.742873,0.32273,-0.29205,1.920371,-0.329761,-0.467983,1.320196,1
2179255368,-0.175606,-0.371984,0.267314,-0.979065,-0.514181,0.469934,-0.060079,0.515765,1.170506,-1.124231,0.045325,1.337071,1
2179288702,-0.188094,-0.520109,0.223762,-0.928625,-0.471605,0.465766,0.644294,1.17236,0.520835,-1.193594,0.49577,1.141425,1
2179322036,-0.050082,-0.496592,0.131891,-0.595014,0.03377,-0.099649,0.346341,0.797319,-0.414816,-1.357391,0.210262,-0.283229,1
2179355370,-6e-05,-0.460485,0.06989,-0.055291,0.459486,-0.327627,0.032851,-0.159941,-0.68982,-1.131991,0.401688,-0.855229,1
2179388704,0.008269,-0.322404,0.068334,0.027324,0.268196,-0.308722,0.161851,-0.649284,-1.011066,-0.240783,0.113644,-0.459239,1
2179422038,0.127951,0.016548,0.061105,-0.095399,-0.003317,-0.063404,0.234955,-0.998063,-0.338982,0.877163,-0.484505,0.654092,1
2179455372,0.038879,0.238821,0.155025,0.065104,-0.042847,0.238889,0.33034,-1.069051,0.453016,0.26456,-0.122123,0.407724,1
2179488706,-0.150633,0.309129,0.089595,0.400959,-0.224183,0.261239,0.130879,-0.396806,0.334682,0.013904,-0.365248,0.121741,1
2179522040,-0.341968,0.36485,0.071572,0.195253,-0.115695,0.279884,0.300139,0.354382,0.168213,-0.421144,-0.015943,0.227962,1
2179555374,-0.414861,0.350859,0.0606,0.357832,-0.230238,0.124825,0.157924,0.399983,-0.055844,-0.609592,0.406308,0.056916,1
2179588708,-0.322863,0.373491,0.022769,0.186668,-0.101268,0.050829,-0.048099,0.056136,-0.051608,-0.59561,0.137459,-0.050723,1
2179622042,-0.204459,0.299812,0.132536,-0.061165,0.103046,0.030627,-0.035018,-0.072861,-0.052476,-0.148079,-0.061586,0.13293,1
2179655376,-0.125421,0.257151,0.096478,0.006842,0.067675,0.052623,-0.272716,0.018317,-0.190907,-0.131492,0.241641,0.187482,1
2179688710,0.013766,0.112164,0.106456,-0.044456,0.048087,0.044712,-0.328585,0.045839,-0.001623,-0.267578,0.221783,0.135259,1
2179722044,0.196911,-0.080857,0.11626,-0.020829,0.057384,-0.002807,-0.135649,0.42077,-0.216881,-0.241614,0.008417,0.071185,1
2179755378,0.108567,-0.008924,0.191607,0.095463,-0.058123,0.078072,-0.325739,0.189912,0.118896,-0.21453,-0.06873,0.107161,1
2179788712,-0.056264,0.008243,0.143933,0.14333,-0.056777,0.144451,-0.018897,0.618434,-0.059236,-0.084969,-0.04795,0.209406,1
2179822046,-0.241429,-0.069339,0.089541,0.251233,-0.091329,0.12457,-0.359223,-0.036501,0.456118,-0.019864,-0.040474,0.255013,1
2179855380,-0.171898,-0.050663,0.201112,0.256072,-0.190085,-0.008667,-0.228102,0.019464,0.152082,-0.036895,-0.000788,0.105373,1
2179888714,-0.177528,-0.006798,0.114038,0.277955,-0.170195,0.033501,-0.208784,0.237522,0.002977,-0.132818,-0.053485,0.041891,1
2179922048,-0.114564,0.037873,0.161705,0.260551,-0.244015,-0.030825,0.086521,0.382399,-0.097845,-0.181788,-0.038246,0.04132,1
2179955382,-0.037536,0.195323,0.406119,0.221532,-0.19983,0.156987,-0.355961,0.219504,-0.016747,-0.156019,0.000601,0.057446,1
2179988716,-0.201056,-0.163019,0.245038,0.23669,-0.229752,0.049096,-0.279002,0.476843,-0.134975,-0.082953,-0.045603,0.185116,1
2180022050,-0.257739,0.307215,-0.258441,0.221432,-0.230122,0.076599,-0.382992,0.291146,0.050491,-0.112212,-0.008188,0.10467,1
2180055384,-0.387797,0.841887,0.057372,0.28197,-0.225056,0.055067,-0.012941,0.45554,0.024789,-0.05716,-0.045849,0.034469,1
2180088718,-0.378611,1.017292,0.019945,0.323502,-0.194312,0.028762,-0.194478,0.244013,0.114552,-0.016498,-0.029682,0.047644,1
2180122052,-0.340382,1.037586,0.038605,0.30192,-0.139481,0.093737,-0.244162,0.244364,0.010525,0.011007,-0.013627,0.145882,1
2180155386,-0.413765,1.043679,0.04587,0.301362,-0.144346,0.10239,-0.212058,0.169412,0.087535,-0.090137,0.032861,0.075532,1
2180188720,-0.515585,1.025897,-0.037043,0.276876,-0.116307,0.131054,-0.067774,0.344404,-0.263847,-0.104643,0.020074,0.068264,1
2180222054,-0.649236,0.957504,-0.144778,0.180428,-0.081532,0.09397,-0.170882,0.149446,-0.007335,-0.14973,0.065176,0.117359,1
2180255388,-0.575793,0.815646,-0.291042,0.183812,-0.141908,-0.035967,-0.124212,0.048836,0.238646,-0.233442,0.127466,-0.058037,1
2180288722,-0.318588,0.576283,-0.32993,0.237666,-0.114751,-0.177422,0.079734,0.049145,0.001849,-0.144404,0.019857,-0.174271,1
2180322056,0.142275,0.789957,-0.128489,0.258083,-0.062042,-0.265248,0.040841,0.124653,-0.194903,-0.085689,0.08543,-0.27351,1
2180355390,0.286109,0.017251,0.488896,0.312508,-0.058488,-0.2274,1.1e-05,0.071839,-0.293587,-0.113928,0.071429,-0.29225,1
2180388724,0.583494,-1.658637,0.498686,0.257292,-0.062152,-0.04251,-0.182375,0.036408,-0.263484,-0.065354,0.012864,0.035544,1
2180422058,0.921781,-3.361834,0.574088,0.078041,-0.047427,0.274406,-0.213876,0.008751,0.041817,-0.1301,0.011339,0.507499,1
2180455392,0.735047,-3.282654,0.436802,-0.104599,-0.076905,0.549184,-0.152046,0.033122,0.344466,-0.320439,-0.06434,0.912519,1
2180488726,0.095864,-1.597431,0.396843,-0.268834,-0.157543,0.62065,-0.033122,-0.072168,0.506594,-0.458344,-0.276198,0.952679,1
2180522060,-0.144291,-0.161457,0.217365,-0.172363,-0.093472,0.233415,0.212843,-0.074912,0.248599,-0.326616,-0.424705,0.464263,1
2180555394,-0.168907,0.720306,0.045045,-0.087803,0.123341,0.06397,0.450307,-0.100694,-0.162222,0.040117,-0.334962,-0.000988,1
2180588728,-0.013211,1.016525,-0.102864,0.027137,0.251189,-0.17282,0.587375,-0.141867,-0.429164,0.228544,-0.08976,-0.125866,1
2180622062,-0.242697,1.145699,-0.069067,0.113023,0.17683,-0.097606,0.428092,-0.564641,-0.173599,0.077362,0.14387,-0.020803,1
2180655396,-0.52483,0.905441,0.026429,-0.015448,-0.122243,0.055481,0.253544,-0.652534,0.116609,-0.417624,0.012304,0.040031,1
2180688730,-0.546486,0.309185,0.118012,-0.115461,-0.356909,0.182492,0.318337,-0.453745,-0.010568,-0.902617,-0.108397,0.021904,1
2180722064,-0.365732,-0.191545,0.082101,-0.160421,-0.440574,0.234105,0.351269,-0.240144,0.104539,-0.892565,-0.137415,0.042139,1
2180755398,-0.10354,-0.338009,0.130372,-0.081459,-0.192782,0.090495,0.24392,-0.19017,0.056707,-0.476888,-0.059954,0.161276,1
2180788732,0.043265,-0.424112,0.219641,-0.124218,0.000734,0.007272,0.115759,-0.099864,-0.176646,-0.17441,0.0577,0.213816,1
2180822066,0.155038,-0.371094,0.166305,-0.158582,0.032693,-0.015524,0.063806,-0.183454,-0.066176,-0.250448,-0.010418,0.197792,1
2180855400,0.011871,-0.245396,0.138975,-0.306135,-0.07602,0.046008,0.100693,-0.214168,-0.011222,-0.492061,0.022817,0.169456,1
2180888734,-0.196279,-0.064942,0.145582,-0.281621,-0.109751,0.048402,0.145707,-0.176312,-0.006894,-0.556249,-0.05099,0.134323,1
2180922068,-0.263376,0.070584,0.099387,-0.15859,-0.052606,0.062797,0.140419,-0.110915,-0.056799,-0.396447,-0.099724,0.1101,1
2180955402,-0.243804,0.170442,0.074554,-0.022274,-0.044052,0.027909,0.106816,-0.116883,-0.074491,-0.283235,-0.021607,0.055482,1
2180988736,-0.154028,0.213847,0.073267,0.113254,0.004762,0.003467,0.151706,-0.161441,-0.04058,-0.171172,-0.134421,0.062325,1
2181022070,-0.16186,0.163126,0.083751,0.099495,-0.060153,0.093097,0.144208,-0.099698,-0.125179,-0.283039,0.005546,0.029715,1
2181055404,-0.303849,0.067568,0.093981,0.218837,-0.16549,0.166602,0.105154,-0.080278,-0.147003,-0.39636,0.081039,0.04757,1
2181088738,-0.18656,0.005144,0.053429,0.165046,-0.188256,0.136845,0.069325,-0.06214,0.041308,-0.346068,-0.079592,0.126115,1
2181122072,-0.178362,0.069662,0.143473,0.184836,-0.157564,0.061352,0.01309,0.014519,0.044061,-0.140275,-0.089817,0.146421,1
2181155406,-0.076863,-0.085235,0.124317,0.247971,-0.14974,0.138822,-0.01878,0.098104,0.00357,0.003558,0.103732,0.276092,1
2181188740,0.084721,-0.105356,0.122647,0.308817,-0.12745,0.104773,0.003008,0.187297,-0.025088,0.085641,-0.104379,0.256844,1
2181222074,0.276425,-0.278793,0.189528,0.366884,-0.019872,0.030311,0.009741,0.175943,0.029662,0.118426,-0.078288,0.087972,1
2181255408,0.233728,-0.222343,0.150002,0.398346,-0.078851,0.057262,-0.076325,0.204544,0.039746,0.172091,-0.079794,0.130375,1
2181288742,0.083674,-0.263754,0.145267,0.363392,-0.043768,0.083228,-0.082302,0.117812,0.321902,0.110641,-0.007104,0.130061,1
2181322076,-0.043828,-0.170616,0.123178,0.311185,-0.041558,0.048301,-0.0137,0.256417,0.015893,0.085798,-0.081909,0.099783,1
2181355410,0.062194,0.01075,0.105563,0.343994,-0.055564,0.039378,0.01178,0.231646,-0.042346,0.084432,-0.061749,0.036893,1
2181388744,-0.071301,0.139099,0.068783,0.358203,-0.044294,0.063234,-0.01004,0.190038,-0.101775,0.069088,-0.030128,0.078153,1
2181422078,-0.07272,0.198475,0.041129,0.338769,-0.048812,0.127545,0.024289,0.138107,-0.052573,-0.016451,-0.077971,0.20353,1
2181455412,-0.046329,0.302088,0.089434,0.252387,-0.078428,0.141717,0.046501,0.104379,0.00752,-0.116465,0.012066,0.218387,1
2181488746,-0.15432,0.223629,0.066153,0.265459,-0.128643,0.096925,-0.00624,0.136027,0.089458,-0.202046,-0.016116,0.164893,1
2181522080,-0.126509,-0.014629,0.118328,0.250458,-0.008068,0.111176,0.029915,0.148245,0.06225,-0.257759,-0.077673,0.15292,1
2181555414,-0.146006,-0.168786,0.196415,0.167867,-0.118015,0.088999,0.027835,0.122978,0.075751,-0.104044,-0.129912,0.000734,1
2181588748,0.058151,-0.271928,0.101115,0.230591,0.059747,0.025963,-0.00475,0.201148,-0.028645,0.026273,0.035859,0.075667,1
2181622082,0.036169,-0.138481,0.125621,0.160006,0.11371,0.118677,0.044931,0.19815,-0.064411,-0.005709,0.128877,0.152071,1
2181655416,0.059389,-0.094549,0.133933,0.090519,0.038475,0.072953,0.065347,0.089863,-0.06708,0.03111,0.083934,0.135244,1
2181688750,0.139706,-0.009666,0.093505,0.111414,0.060059,0.011945,0.111604,0.075427,-0.049039,-0.019804,0.038634,0.123395,1
2181722084,-0.005301,0.199835,0.09483,0.145928,0.143811,0.138473,0.13354,0.118215,-0.045179,-0.022238,0.014964,0.191188,1
2181755418,-0.085643,0.190621,0.082283,0.115511,0.022035,0.127095,0.1421,0.122327,-0.022389,0.022841,0.050292,0.243975,1
2181788752,-0.012643,0.205722,0.086472,0.159849,-0.001501,0.085275,0.212232,0.099039,0.044473,-0.051959,0.012791,0.156981,1
2181822086,0.062652,0.218646,0.10195,0.13836,0.02848,0.055427,0.201059,0.024473,0.030952,-0.095202,0.036587,0.094869,1
2181855420,0.022084,0.084626,0.099858,0.140978,-0.008077,0.059939,0.142172,0.003439,0.007888,-0.092104,0.0387,0.105792,1
2181888754,-0.003362,0.004013,0.113813,0.086741,-0.00132,0.073731,0.168532,0.006743,0.020562,-0.128324,0.033511,0.133783,1
2181922088,-0.01031,-0.068488,0.137984,0.049237,-0.030074,0.052913,0.147164,0.031685,0.005742,-0.107763,-0.01044,0.135898,1
2181955422,-0.097163,-0.135031,0.152151,0.059378,-0.005519,0.047559,0.125687,0.074847,-0.015773,-0.132713,0.013179,0.166344,1
2181988756,-0.09754,-0.200534,0.101338,0.063246,-0.005639,0.061647,0.073789,0.083675,-0.046049,-0.146299,0.042896,0.141932,1
2182022090,-0.06486,-0.188882,0.175552,0.093369,0.003737,0.053282,0.078007,0.075391,-0.047677,-0.134022,0.014493,0.133388,1
2182055424,-0.014743,-0.129484,0.140126,0.089732,-0.005056,0.076667,0.05097,0.051829,-0.018521,-0.145768,0.021435,0.15221,1
2182088758,-0.02858,-0.102362,0.193841,0.113459,-0.023816,0.081401,0.066049,0.060323,0.010032,-0.175987,-0.002956,0.149412,1
2182122092,-0.009779,-0.11896,0.152613,0.119008,-0.013183,0.052395,0.064567,0.093318,-0.047277,-0.124654,-0.042499,0.16269,1
2182155426,-0.007231,-0.09963,0.150265,0.09064,0.003255,0.08198,0.03614,0.056279,-0.089444,-0.126892,-0.043344,0.159371,1
2182188760,-0.105652,-0.092899,0.157638,0.070432,-0.000341,0.08021,0.015943,0.012224,-0.094784,-0.159311,-0.022877,0.170196,1
2182222094,-0.115369,-0.123754,0.133374,0.033488,-0.022204,0.08948,0.015167,-0.023691,-0.102799,-0.263411,0.001616,0.188385,1
2182255428,-0.027698,-0.032086,0.169632,-0.045448,-0.079504,0.108405,0.03585,-0.051943,-0.051586,-0.328056,-0.019252,0.20317,1
2182288762,-0.121766,-0.063734,0.190416,0.06345,-0.05324,0.098094,0.026007,-0.076106,-0.02597,-0.395505,0.003134,0.110394,1
2182322096,-0.132347,-0.148287,0.184736,0.011795,-0.042318,0.203732,0.079915,-0.091078,-0.040373,-0.273121,-0.074489,0.23802,1
2182355430,-0.130687,-0.154329,0.223211,-0.031393,-0.148033,0.190482,0.202231,-0.201606,0.00564,-0.237641,-0.177238,0.31321,1
2182388764,-0.142433,-0.238279,0.175925,-0.059712,-0.190701,0.16313,0.199369,-0.348026,-0.005136,-0.375838,-0.193155,0.249098,1
2182422098,-0.030314,-0.277526,0.118762,-0.133906,-0.227956,0.115874,0.118306,-0.415983,-0.048409,-0.493565,-0.253491,0.170473,1
2182455432,-0.110412,-0.330924,0.15274,-0.116739,-0.246839,0.051424,0.103,-0.387925,-0.059061,-0.487604,-0.159441,0.102697,1
2182488766,-0.035341,-0.449005,0.156437,-0.07919,-0.22837,-0.00438,0.070015,-0.286541,-0.023853,-0.362724,-0.122196,0.093252,1
2182522100,0.062865,-0.434916,0.165627,-0.082275,-0.229049,-0.030262,0.081336,-0.235074,-0.010374,-0.284544,-0.13921,0.099739,1
2182555434,0.01954,-0.34716,0.273593,-0.083074,-0.220429,0.006944,0.055443,-0.204485,-0.011128,-0.324332,-0.171492,0.0883,1
2182588768,0.119238,-0.251408,0.201249,-0.091681,-0.300624,0.078668,-0.00797,-0.350483,0.082623,-0.296717,-0.246608,0.221124,1
2182622102,0.095982,-0.147906,0.080684,-0.0864,-0.366519,0.057109,0.006752,-0.420148,0.12604,-0.341028,-0.219317,0.251429,1
2182655436,-0.034498,-0.052216,0.129285,-0.015642,-0.404288,-0.026303,0.007323,-0.321182,-0.176194,-0.414784,-0.199606,-0.006516,1
2182688770,-0.25226,0.166983,0.14535,0.091742,-0.440927,-0.079277,-0.015476,-0.332952,0.094752,-0.316103,-0.254968,-0.083054,1
2182722104,-0.564489,0.399337,0.055984,0.151242,-0.394075,-0.051676,0.020005,-0.219948,0.200776,-0.12989,-0.178067,-0.027787,1
2182755438,-0.595751,0.570891,-0.077741,0.23904,-0.294576,-0.030334,-0.068288,-0.037993,0.197784,-0.124768,-0.165445,0.088281,1
2182788772,-0.358012,0.727817,-0.069739,0.207227,-0.337625,0.024656,-0.206404,0.057884,0.164669,-0.159875,-0.105213,0.136125,1
2182822106,-0.395053,0.770716,-0.14305,0.154304,-0.35844,0.105859,-0.149887,0.029507,0.018313,-0.302562,-0.126291,0.11157,1
2182855440,-0.333086,0.656039,0.002594,0.145078,-0.334776,0.065699,-0.104202,-0.063221,-0.062327,-0.449619,-0.163646,0.022088,1
2182888774,-0.266931,0.317928,0.057199,0.165372,-0.207279,0.215967,-0.134585,-0.135926,-0.065127,-0.292989,-0.105912,0.158061,1
2182922108,-0.308794,-0.088866,0.190537,0.146457,-0.162469,0.208558,-0.236622,-0.071266,-0.130939,-0.149283,-0.128963,0.319138,1
2182955442,-0.232804,-0.251358,0.170815,0.117581,-0.145895,0.205597,-0.303438,-0.027015,-0.147656,-0.26078,-0.082079,0.254469,1
2182988776,-0.115582,-0.173186,0.256477,0.123731,-0.119775,0.236079,-0.256393,-0.01993,-0.104264,-0.4226,-0.0188,0.148241,1
2183022110,-0.011022,-0.038037,0.140521,0.113927,-0.112975,0.25392,-0.237228,-0.034552,-0.130179,-0.48842,-2.9e-05,0.2255,1
2183055444,-0.057385,0.032095,0.21329,0.074142,-0.088636,0.291044,-0.243276,-0.027386,-0.221107,-0.475669,0.001129,0.242019,1
2183088778,-0.108785,0.038604,0.020802,0.134199,-0.083055,0.266227,-0.265332,-0.022567,-0.267284,-0.417957,0.007276,0.220242,1
2183122112,-0.296485,0.108921,0.046455,0.179679,-0.048782,0.201241,-0.246688,0.04805,-0.398291,-0.392958,0.157382,0.067443,1
2183155446,-0.415434,0.155631,0.081216,0.19082,0.081659,0.199136,-0.208669,0.144387,-0.529124,-0.388755,0.158446,-0.010897,1
2183188780,-0.684479,0.180061,0.194412,0.148655,0.010428,0.206384,-0.249218,0.168096,-0.642113,-0.335874,0.25036,0.021977,1
2183222114,-0.638256,0.228361,0.165329,0.256034,0.068569,0.192875,-0.401201,0.034848,-0.673782,-0.617212,0.236961,0.37656,1
2183255448,-0.639904,0.441203,0.173381,-0.01699,-0.133657,0.248926,-0.430453,-0.172058,-0.449502,-0.730393,0.262936,0.22731,1
2183288782,-0.572384,0.651295,0.183359,0.071477,-0.251939,0.278791,-0.314148,-0.268852,-0.179057,-0.763944,0.064395,0.267533,1
2183322116,-0.655736,0.796122,0.267807,0.006363,-0.243274,0.30623,-0.148792,-0.352543,0.102861,-0.686945,-0.134468,0.384315,1
2183355450,-0.700662,0.288146,0.143463,-0.036009,-0.361488,0.214217,0.031926,-0.404288,0.299494,-0.446619,-0.168934,0.310637,1
2183388784,-0.618986,-0.208017,-0.016109,0.049974,-0.407724,-0.026184,0.215044,-0.290821,0.364099,-0.075344,-0.153155,0.139078,1
2183422118,0.024086,-0.352981,-0.078915,0.07342,-0.423384,-0.350571,0.313814,-0.11724,0.28911,0.239356,-0.185431,-0.100778,1
2183455452,-0.411499,-0.896889,0.410281,0.117101,-0.365497,-0.356681,0.373156,-0.044954,0.249656,0.357459,-0.298622,-0.126319,1
2183488786,0.426373,-1.453047,0.253778,-0.037892,-0.369635,-0.233029,0.282632,-0.022205,0.298154,0.428452,-0.376768,0.172351,1
2183522120,1.0564,-0.964971,0.43531,-0.05617,-0.400505,-0.030301,0.077867,0.011902,0.381211,0.331735,-0.319491,0.375953,1
2183555454,1.074531,-1.201573,0.535918,-0.190385,-0.454885,0.062603,-0.233146,-0.043865,0.555116,0.093665,-0.397765,0.381158,1
2183588788,0.698571,-1.300002,0.323762,-0.295488,-0.635693,-0.004612,-0.450875,0.003119,0.634186,-0.05621,-0.475748,0.262653,1
2183622122,0.380925,-1.012812,-0.068248,-0.139445,-0.694772,-0.284289,-0.291216,0.142619,0.537269,-0.014264,-0.487591,-0.117986,1
2183655456,0.42874,-0.614364,-0.415569,0.075136,-0.683105,-0.606114,0.062095,0.27372,0.371261,0.303362,-0.586084,-0.40027,1
2183688790,-1.137941,0.132057,-0.084619,0.293152,-0.65713,-0.641165,0.328289,0.328377,0.370503,0.672523,-0.657169,-0.423922,1
2183722124,-0.930997,0.286055,-0.15206,0.514226,-0.585914,-0.369983,0.146609,0.299973,0.514356,0.730072,-0.527216,-0.118768,1
2183755458,-0.375089,0.995989,-0.294232,0.495838,-0.651175,0.029147,-0.156927,0.072699,0.594105,0.351968,-0.255405,0.092333,1
2183788792,-0.594022,1.079227,-0.295273,0.323865,-0.83635,0.192108,-0.389616,-0.165969,0.456931,-0.332373,-0.493813,0.114295,1
2183822126,-0.188396,0.937173,-0.439844,0.139298,-0.966695,0.264436,-0.318105,-0.307216,0.20908,-0.59164,-0.746289,0.192202,1
2183855460,0.16228,0.885466,-0.487908,0.095541,-0.971036,0.104733,-0.415719,-0.29639,-0.170835,-0.617457,-0.550731,0.023873,1
2183888794,0.453316,0.786382,-0.30724,0.151884,-0.808743,-0.180338,-0.699995,-0.327458,-0.448613,-0.664209,-0.291195,-0.26433,1
2183922128,0.155679,0.019056,0.251462,0.025029,-0.783242,-0.205769,-0.842049,-0.48704,-0.407056,-0.716407,-0.229745,-0.29957,1
2183955462,-0.108107,-0.404159,-0.28494,-0.162601,-0.759638,0.004104,-0.997187,-0.541214,-0.311569,-0.967848,-0.357885,-0.061425,1
2183988796,-0.362138,2.903554,-1.001436,-0.328355,-0.861805,0.27086,-1.115865,-0.549409,-0.053573,-1.082843,-0.298723,0.22294,1
2184022130,-2.020561,2.839679,1.269791,-0.369453,-0.96523,0.305204,-1.103052,-0.494466,0.087351,-1.14715,-0.419549,0.301251,1
2184055464,0.126014,-2.057708,0.79087,-0.291351,-0.875261,0.326979,-0.901873,-0.368594,0.094865,-1.092227,-0.406134,0.308245,1
2184088798,-1.177059,1.191828,0.047959,-0.301464,-0.668827,0.383413,-0.687193,-0.359387,0.102183,-1.052931,-0.311388,0.451154,1
2184122132,0.453967,-0.268811,0.546399,-0.500834,-0.648719,0.198882,-0.68505,-0.43987,0.032293,-0.924049,-0.086026,0.397118,1
2184155466,-3.105348,-0.527272,0.723352,-0.41181,-0.505853,-0.035991,-0.721335,-0.259987,-0.180643,-0.622203,-0.25232,0.401594,1
2184188800,0.049683,-2.139053,0.656834,-0.447069,-0.256205,-0.105618,-0.666671,-0.079042,-0.411299,-0.455987,-0.33565,0.271401,1
2184222134,2.794887,-0.833625,-0.605815,-0.343565,-0.203842,-0.141742,-0.626717,0.021531,-0.10487,-0.431685,-0.138026,0.105067,1
2184255468,-0.437522,0.029658,0.386456,-0.224989,-0.177521,-0.258956,-0.467135,0.227053,-0.333338,-0.509864,0.120671,-0.131472,1
2184288802,-0.421881,-0.178541,-0.035695,-0.06094,-0.195522,-0.366165,-0.136107,0.232838,-0.342656,-0.22708,0.147894,-0.338438,1
2184322136,0.101568,-0.078349,0.309383,0.215158,0.061589,-0.30228,0.393668,0.275303,-0.267365,0.281855,0.108468,-0.13706,1
2184355470,-0.243695,-0.534817,0.096889,0.249346,0.147244,-0.180765,0.811713,0.12641,0.236341,0.439952,0.057666,-0.073203,1
2184388804,0.190943,-0.262036,0.067615,0.415598,0.149698,-0.073326,1.012614,0.062231,0.513506,0.406253,0.157445,-0.036526,1
2184422138,0.655524,-0.058115,0.002717,0.592011,0.365002,0.206623,0.720593,0.158113,0.474514,0.090789,0.61728,-0.129649,1
2184455472,1.080805,-0.295825,0.361293,0.559743,0.639473,0.317335,0.611262,0.505502,0.257397,0.354147,0.414886,0.184031,1
2184488806,0.977114,-0.895629,0.273911,0.517453,0.776558,0.397153,0.913279,0.627203,0.393818,0.999289,0.290363,0.654969,1
2184522140,1.11693,-0.643685,0.33526,0.588529,0.973869,0.487789,1.391758,0.563018,0.503882,0.950734,0.292199,0.766128,1
2184555474,0.835089,-0.237313,0.313773,0.326711,0.725382,0.44185,1.299099,0.19328,0.689241,0.896585,0.435693,0.720504,1
2184588808,0.605082,-0.043586,0.09971,0.494717,0.606085,-0.032263,0.687548,0.207676,0.02943,0.694651,0.349809,0.234555,1
2184622142,0.458294,0.118842,0.056949,0.495226,0.56737,-0.241391,0.467443,0.206205,-0.516245,0.456449,0.225319,-0.237738,1
2184655476,-0.092689,0.058567,-0.027591,0.509538,0.399664,-0.339249,0.548071,0.194559,-0.636432,0.510668,0.043105,-0.239152,1
2184688810,-0.192937,-0.071056,0.096453,0.526938,0.419224,-0.153257,0.547901,0.06297,-0.490705,0.421614,-0.053576,-0.066065,1
2184722144,-0.107192,-0.049638,0.030781,0.384147,0.367536,0.124526,0.237299,-0.117051,-0.423879,0.09624,-0.153723,0.099078,1
2184755478,-0.021518,0.21495,0.046089,0.37699,0.239206,0.338939,-0.162806,-0.244829,-0.339236,-0.179685,-0.078114,0.202219,1
2184788812,0.159594,0.254575,0.222401,0.464231,0.134759,0.390244,-0.044489,0.189619,-0.160017,-0.204681,0.168113,0.257722,1
2184822146,0.335852,0.444034,0.160981,0.514218,0.046937,0.210752,0.604299,0.722858,0.227882,-0.042585,0.391309,0.149171,1
2184855480,0.14454,0.274732,0.166451,0.547357,0.215278,0.223143,1.058767,0.812127,0.641314,0.15579,0.387698,0.108926,1
2184888814,0.066827,0.015097,0.16898,0.376454,0.189429,0.178068,0.811285,0.343411,0.615433,0.308105,0.109124,0.257161,1
2184922148,0.268688,-0.069142,0.122166,0.152386,0.035387,0.017218,0.338254,-0.043553,0.086922,0.311736,-0.075797,0.284373,1
2184955482,0.256618,-0.183542,0.151621,0.108652,0.112531,0.037961,0.141529,-0.312429,-0.313416,0.092136,-0.133173,0.066277,1
2184988816,0.104971,-0.17514,0.077541,0.038695,0.18824,-0.045875,0.154939,-0.277758,-0.421492,0.092006,-0.153385,0.018453,1
2185022150,0.184535,0.043871,0.015663,0.016066,0.257824,-0.069247,0.2215,-0.100717,-0.369602,0.112844,-0.12257,0.093342,1
2185055484,-0.114596,-0.04601,0.071498,0.104423,0.301686,0.003837,0.270112,0.262599,-0.397431,0.036392,-0.015813,0.027137,1
2185088818,-0.02957,0.103912,0.088887,0.227338,0.287665,0.162838,0.132886,0.38381,-0.354377,0.049413,0.019995,0.188366,1
2185122152,0.146845,0.177236,0.187263,0.20918,0.15388,0.25284,0.101993,0.19953,-0.113921,0.103007,-0.008334,0.264973,1
2185155486,-0.020778,-0.101592,0.17285,0.404103,0.079409,0.334602,0.175883,0.035648,0.175204,0.152561,-0.122813,0.305475,1
2185188820,0.076865,-0.067055,0.145201,0.413375,0.085011,0.396646,0.3588,0.018529,0.262755,0.312152,-0.173904,0.426231,1
2185222154,0.144967,-0.119522,0.149343,0.410183,0.059753,0.398063,0.492715,0.06135,0.235056,0.227188,-0.203443,0.42596,1
2185255488,0.123595,-0.184833,0.142787,0.229571,-0.047974,0.33792,0.317524,0.214237,-0.038384,0.085584,-0.141354,0.296228,1
2185288822,0.015124,-0.08068,0.113836,0.189953,-0.015304,0.216166,0.141843,0.267895,-0.158869,0.035963,-0.120621,0.211317,1
2185322156,0.085512,0.01706,0.134039,0.070752,0.164388,0.131392,0.132604,0.091306,-0.05498,0.109456,-0.117593,0.169743,1
2185355490,0.0209,0.107387,0.087056,0.031675,0.202275,-0.016764,0.086464,0.200479,-0.156364,0.236145,-0.096532,0.147375,1
2185388824,0.115031,0.196527,0.078813,0.103365,0.259855,0.000813,-0.011018,0.378545,-0.22261,0.163724,0.050686,0.126108,1
2185422158,0.080164,0.208122,0.075918,0.21835,0.277064,0.022103,-0.14079,0.465672,-0.200647,0.128905,0.159429,0.095866,1
2185455492,0.003645,0.307685,0.06843,0.326115,0.241813,0.106563,-0.119741,0.573601,-0.151738,0.106884,0.207244,0.133251,1
2185488826,-0.005263,0.327738,0.157086,0.4401,0.289994,0.249818,-0.05742,0.597899,-0.067481,0.073468,0.198529,0.141212,1
2185522160,-0.169332,0.384103,0.093265,0.469152,0.215761,0.361629,-0.021029,0.56242,0.011956,0.109948,0.064853,0.291958,1
2185555494,-0.051853,0.408024,0.136398,0.412598,0.108419,0.292315,-0.030195,0.582554,-0.063517,0.139144,0.049501,0.266509,1
2185588828,0.129875,0.262368,0.092979,0.466545,0.205661,0.205314,-0.05313,0.655835,-0.221346,0.04363,0.196022,0.106806,1
2185622162,-0.003309,0.245552,0.073394,0.443012,0.322315,0.22635,-0.016188,0.61471,-0.239652,0.008645,0.240141,0.021602,1
2185655496,0.095602,0.156037,0.127169,0.297617,0.337313,0.228631,0.028507,0.457391,-0.121102,0.078624,0.215272,0.167187,1
2185688830,0.179391,0.050379,0.192601,0.146565,0.376545,0.199805,0.116505,0.43239,0.02285,0.111247,0.205009,0.270477,1
2185722164,0.165682,0.047259,0.193486,0.096474,0.489259,0.261843,0.197058,0.454774,-0.012126,0.001906,0.181617,0.243218,1
2185755498,0.113514,0.204523,0.132825,-0.04968,0.4204,0.296516,0.182392,0.510015,-0.135034,-0.001122,0.305588,0.275466,1
2185788832,0.167479,0.290756,0.162913,0.037467,0.408136,0.142258,0.204878,0.394249,-0.215783,0.147813,0.280251,0.219869,1
2185822166,-0.015479,0.240268,0.131989,-0.066888,0.620163,0.072799,0.354499,0.269052,-0.259181,0.167442,0.332653,0.122016,1
2185855500,0.124491,0.378235,0.079615,-0.124098,0.655302,0.028527,0.31505,0.220771,-0.355069,0.127525,0.335502,0.159009,1
2185888834,0.148588,0.150737,0.340092,-0.203555,0.685595,0.244388,0.502043,0.392731,-0.173178,-0.006977,0.366423,0.242805,1
2185922168,-0.04306,-0.421395,0.067314,-0.416255,0.570766,0.350411,1.019971,0.155959,0.473344,-0.074004,0.083685,0.553179,1
2185955502,-0.242545,-0.369878,0.157447,-0.554106,0.311457,0.480848,1.191042,-0.564762,0.154642,-0.532315,-0.019103,0.482309,1
2185988836,0.694344,0.100091,0.261626,-0.638533,0.063236,0.706882,0.908714,-0.525903,-0.137795,-0.966795,-0.098358,0.194176,1
2186022170,0.989943,0.411644,0.162337,-0.539397,0.000956,0.571894,0.323245,0.25795,0.094663,-0.424594,0.487485,0.511987,1
2186055504,0.167546,0.101809,0.056992,-0.239744,0.152449,-0.140397,0.343978,0.17089,0.918392,-0.148908,0.860283,0.325637,1
2186088838,-0.72899,-0.15151,-0.005964,-0.218772,0.287144,-0.482213,0.479628,0.106246,0.386247,-0.450336,0.621787,-0.430929,1
2186122172,-0.930211,0.274325,-0.01032,-0.313939,0.105427,-0.595496,0.878287,0.328043,-0.301641,-0.520728,-0.133578,-0.692554,1
2186155506,-0.537301,0.515813,0.014808,-0.413797,-0.188998,-0.427118,0.600983,0.127403,-0.572172,-0.352865,-0.4611,-0.291353,1
2186188840,0.044855,0.327689,0.034763,-0.441849,-0.237222,-0.027371,0.083981,-0.284092,-0.409432,-0.383404,-0.165903,0.04288,1
2186222174,0.272185,0.078313,0.135272,-0.399321,-0.148564,0.051994,0.190243,-0.589761,0.082026,-0.542179,0.169933,0.144026,1
2186255508,0.28996,-0.492868,0.431936,-0.382911,-0.132905,-0.010599,0.420201,-0.449059,0.253437,-0.694797,0.190863,0.082412,1
2186288842,0.355425,-1.080492,1.159816,-0.405352,-0.316226,-0.198698,0.405573,-0.224203,0.105266,-0.536178,-0.188324,0.202702,1
2186322176,-0.213559,-1.609629,1.24474,-0.358526,-0.293313,-0.041321,0.025974,-0.135456,-0.155363,-0.386693,-0.60695,0.241025,1
2186355510,0.101771,-1.954797,0.203176,-0.213648,-0.464953,-0.004693,-0.338434,-0.061722,-0.45198,-0.233755,-0.468849,0.430543,1
2186388844,0.674688,-2.133396,0.065681,-0.067201,-0.443912,0.001705,-0.509007,-0.394052,-0.39939,-0.320877,-0.454535,0.427594,1
2186422178,0.07213,0.778902,-0.817807,0.018864,-0.35774,0.290635,-0.298441,-0.749317,-0.148897,-0.589644,-0.400451,0.169921,1
2186455512,-0.813316,2.002406,0.017284,0.18506,-0.65323,0.254406,0.016957,-0.890887,0.033517,-0.307346,-0.492583,0.439442,1
2186488846,-1.104972,1.672841,-0.025421,0.22713,-0.721337,0.287991,0.152823,-1.040564,0.173425,-0.313834,-1.072515,0.215264,1
2186522180,-0.560976,1.854772,-0.242365,0.470133,-0.680103,0.640985,0.184075,-0.964765,0.415344,-0.240466,-1.053757,0.158669,1
2186555514,-0.466787,0.88474,0.033011,0.604301,-0.688614,0.585043,0.030026,-0.903829,0.674875,-0.056848,-0.419029,0.4309,1
2186588848,-0.597474,0.25035,-0.088949,0.554402,-0.71375,0.207936,-0.146306,-0.653948,0.255058,-0.347176,-0.516267,0.158075,1
2186622182,-0.431463,-0.446343,0.161114,0.502192,-0.705298,-0.069445,-0.331697,-0.201872,-0.401927,-0.691979,-0.770935,-0.2526,1
2186655516,-0.927215,-0.099251,-0.163074,0.377027,-0.692233,-0.238835,-0.378771,-0.130621,-0.464658,-0.789987,-0.55444,-0.460044,1
2186688850,-0.601873,-0.844521,0.140363,0.300585,-0.650816,-0.281347,-0.310541,-0.160698,-0.189999,-0.379306,-0.186863,-0.328473,1
2186722184,-0.354915,-0.696742,0.137189,0.15541,-0.55364,-0.249567,-0.032604,-0.172379,0.184522,-0.040841,0.067052,-0.090075,1
2186755518,0.004004,-0.144927,0.146625,0.063201,-0.496092,-0.224786,0.120044,-0.199817,0.406641,0.013046,-0.108299,-0.004513,1
2186788852,0.124192,-0.197308,0.177003,0.019661,-0.511768,-0.208844,-0.005848,-0.189673,0.301517,-0.19792,-0.259838,-0.003619,1
2186822186,-0.164967,0.116729,-0.108958,0.03614,-0.457017,-0.082532,-0.043538,-0.100391,0.093754,-0.310428,-0.301724,0.024014,1
2186855520,-0.039748,0.019008,0.057087,0.141657,-0.396413,-0.049655,-0.041182,-0.111193,0.028417,-0.120452,-0.288525,0.106097,1
2186888854,0.181889,0.040074,-0.084887,0.297465,-0.298753,0.005247,0.008953,-0.140795,0.071427,-0.124034,-0.236832,-0.013946,1
2186922188,0.229572,-0.177187,0.214132,0.33015,-0.287082,0.144247,-0.004566,-0.092793,-0.067397,-0.011656,-0.195214,0.09143,1
2186955522,-0.020985,-0.21921,0.055696,0.350767,-0.287106,0.172813,-0.055259,-0.171234,0.021123,0.047669,-0.274152,0.24278,1
2186988856,0.020454,-0.391277,0.119393,0.303114,-0.31345,0.216509,-0.135556,-0.157529,0.0342,0.041757,-0.375968,0.275213,1
2187022190,-0.116853,-0.301706,0.219625,0.339414,-0.317111,0.198545,-0.168108,0.006775,-0.008367,0.022995,-0.335945,0.206513,1
2187055524,-0.006061,-0.269748,0.223202,0.391935,-0.277256,0.181191,-0.083919,-0.035892,0.085588,0.015092,-0.268082,0.227285,1
2187088858,0.102325,-0.005614,0.017141,0.355399,-0.284986,0.127833,0.032793,0.007483,-0.06781,0.036231,-0.230219,0.149124,1
2187122192,0.27061,0.049463,-0.024781,0.471565,-0.363284,0.08919,-0.023264,-0.112889,-0.066167,0.028127,-0.346209,0.069193,1
2187155526,0.264826,-0.174063,0.069493,0.515095,-0.333767,0.197944,-0.132838,-0.157139,0.026158,0.08038,-0.328099,0.121736,1
2187188860,0.056511,-0.012944,0.007749,0.528723,-0.384426,0.164676,-0.131856,0.014995,0.007814,0.153629,-0.227431,0.102286,1
2187222194,-0.071151,-0.055688,0.060218,0.604235,-0.395214,0.013138,-0.006283,0.228387,-0.105178,0.194421,-0.179279,-0.058214,1
2187255528,-0.114275,0.02372,0.003099,0.587902,-0.307114,-0.023989,0.016723,0.257179,-0.016747,0.170431,-0.299587,-0.070903,1
2187288862,-0.007658,-0.12693,0.060526,0.482373,-0.309338,0.027683,-0.009897,0.092496,0.198357,0.103647,-0.259025,0.026082,1
2187322196,-0.028945,-0.129058,0.091562,0.343191,-0.366189,0.027696,-0.021541,0.074074,0.13678,0.037933,-0.176914,0.065928,1
2187355530,-0.038119,-0.055091,0.122831,0.217614,-0.358454,-0.059944,0.007634,0.01013,0.0071,-0.059019,-0.174994,0.029282,1
2187388864,0.034897,0.009629,0.098886,0.138808,-0.199164,-0.044868,0.125866,-0.070354,0.097647,-0.092807,-0.161494,0.06445,1
2187422198,-0.052729,-0.015747,0.10106,0.036263,-0.17846,-0.086434,0.000316,-0.136633,0.032299,-0.09829,-0.130096,0.135524,1
2187455532,-0.070578,-0.025854,0.046515,-0.042159,-0.248858,-0.082626,-0.090979,-0.156111,-0.046583,-0.28398,-0.113693,0.074281,1
2187488866,-0.042076,-0.031837,0.089899,-0.076855,-0.216504,0.038311,-0.049805,-0.135445,-0.052017,-0.413345,-0.059229,-0.014249,1
2187522200,-0.263327,-0.201528,0.214516,-0.096748,-0.337152,-0.01845,-0.073078,-0.167707,-0.119542,-0.418063,-0.075534,0.034805,1
2187555534,-0.483626,-0.063879,0.135603,-0.043288,-0.288589,-0.038516,-0.106332,-0.233729,-0.075588,-0.431521,-0.05929,0.058016,1
2187588868,-0.6778,-0.179177,0.206194,-0.029527,-0.294266,0.01579,0.018781,-0.180831,0.000212,-0.420644,-0.091956,0.044128,1
2187622202,-0.370162,0.115591,0.015447,-0.008845,-0.363525,0.025645,0.125874,-0.203072,0.099138,-0.396947,-0.158028,0.107909,1
2187655536,-0.246906,0.132561,0.01093,-0.140667,-0.361771,0.044622,0.160873,-0.329718,0.124322,-0.422245,-0.255697,0.127778,1
2187688870,-0.127055,0.094361,0.077357,-0.101568,-0.405826,0.067785,0.105113,-0.417347,0.018824,-0.457586,-0.270108,0.080069,1
2187722204,0.033873,0.134389,-0.044681,-0.031126,-0.373762,0.144062,0.103252,-0.562207,0.101828,-0.357806,-0.257337,0.186839,1
2187755538,0.040999,-0.002173,-0.022387,-0.086956,-0.37527,0.118604,0.203891,-0.559843,0.044814,-0.371021,-0.222176,0.19496,1
2187788872,-0.025501,-0.013663,-0.061189,-0.048215,-0.437946,-0.006499,0.089592,-0.472541,-0.114926,-0.447551,-0.330335,0.02308,1
2187822206,-0.172963,-0.040833,-0.031513,-0.111044,-0.461098,-0.010404,0.054542,-0.499898,-0.088128,-0.420245,-0.39447,0.024519,1
2187855540,-0.23239,-0.138904,-0.081098,-0.123298,-0.527889,-0.047599,0.117692,-0.555426,0.05528,-0.36599,-0.357193,0.061517,1
2187888874,-0.338175,-0.100325,-0.039982,-0.060793,-0.541401,-0.079741,-0.001393,-0.517001,-0.065816,-0.385288,-0.381214,0.008622,1
2187922208,-0.718365,0.015975,0.052045,0.041163,-0.562499,0.003788,-0.052655,-0.501718,-0.014884,-0.411935,-0.42771,0.017325,1
2187955542,-0.389513,-0.176994,-0.302758,0.153947,-0.551133,0.170336,-0.013905,-0.514912,0.082726,-0.377729,-0.428135,0.181436,1
2187988876,-0.410403,0.177398,-0.187614,0.209126,-0.675063,0.184675,-0.024442,-0.563956,0.232882,-0.22981,-0.506349,0.248962,1
2188022210,-0.233068,-0.125503,0.402841,0.25706,-0.66856,0.091427,-0.052216,-0.526892,0.110989,-0.22095,-0.620569,0.194056,1
2188055544,0.033613,-0.610624,0.477937,0.274053,-0.644519,0.076855,-0.079837,-0.565546,-0.040507,-0.406815,-0.744508,0.061649,1
2188088878,1.056434,-0.812474,0.639729,0.167129,-0.620077,0.451087,-0.177114,-0.637886,0.069319,-0.524488,-0.740643,0.237106,1
2188122212,0.675121,-1.180745,0.561111,-0.012258,-0.749432,0.472137,-0.327775,-0.5934,0.297868,-0.151627,-0.449843,0.807662,1
2188155546,0.008806,-1.267328,0.429796,-0.023551,-0.598452,0.192402,-0.273014,-0.317475,0.181527,0.003216,-0.550025,0.635215,1
2188188880,-0.371666,-0.881306,0.183816,0.067083,-0.438593,-0.145819,-0.109076,-0.012992,0.018832,0.049418,-0.669688,0.097319,1
2188222214,-0.042737,-0.033493,0.089285,0.233704,-0.320645,-0.293399,0.089274,0.134441,-0.031223,0.122256,-0.393328,-0.128228,1
2188255548,0.074194,0.561838,-0.029281,0.256214,-0.234713,-0.111092,0.076467,-0.001678,0.117059,0.075632,-0.208533,-0.099993,1
2188288882,0.051249,0.731436,-0.174507,0.250285,-0.351973,-0.00645,0.002531,-0.261395,0.199576,-0.064672,-0.279055,0.028063,1
2188322216,-0.616039,1.02902,-0.159765,0.102212,-0.385464,0.05807,-0.053803,-0.135131,0.026285,-0.077145,-0.235555,0.09927,1
2188355550,-0.392377,0.632594,0.12518,0.170158,-0.267703,-0.024592,0.002408,0.133087,-0.142924,-0.020588,-0.162693,0.02589,1
2188388884,-0.169569,0.350913,0.125759,0.148757,-0.159229,-0.063153,0.126504,0.234177,-0.032737,-0.000453,0.069333,0.004985,1
2188422218,-0.689985,-0.104788,0.226126,0.054758,-0.045936,-0.119066,0.018122,0.37853,-0.013655,-0.234699,0.311416,-0.197924,1
2188455552,-0.539534,-0.161705,0.046335,0.034021,0.072043,-0.14035,-0.086689,0.469134,-0.064293,-0.407155,0.370358,-0.265802,1
2188488886,-0.203298,-0.128816,0.046676,-0.035069,0.164159,-0.054007,-0.169003,0.492785,-0.122087,-0.330276,0.288937,-0.0911,1
2188522220,0.229048,0.173292,0.069158,-0.102312,0.2601,0.084123,-0.169553,0.538161,-0.185307,-0.26344,0.318677,0.083699,1
2188555554,0.142899,0.769075,0.109813,-0.098165,0.315764,0.167005,-0.109803,0.52218,-0.150127,-0.187059,0.450027,0.244416,1
2188588888,0.181073,0.976746,0.114521,-0.075486,0.375069,0.168072,0.02521,0.454757,0.087676,-0.090942,0.483904,0.205315,1
2188622222,-0.008831,0.940984,0.178373,-0.041973,0.348169,-0.011684,0.161298,0.564823,0.178875,0.031609,0.542989,0.094481,1
2188655556,0.024547,0.006271,0.256227,0.079954,0.482422,-0.019868,0.196716,0.711031,0.002928,-0.117998,0.613824,-0.103729,1
2188688890,0.186563,-0.511707,0.102041,-0.050005,0.383432,0.00979,0.207935,0.673195,-0.193428,-0.196051,0.540514,-0.072698,1
2188722224,0.365974,-0.392392,0.24523,-0.088178,0.391635,0.143343,0.196839,0.458333,-0.093203,-0.183659,0.439531,0.141322,1
2188755558,0.489375,-0.169767,0.374771,-0.194413,0.472201,0.250378,0.252005,0.211753,0.066391,-0.025498,0.234721,0.380974,1
2188788892,0.541322,0.088622,0.136102,-0.213941,0.438068,0.282357,0.381851,0.222122,0.113478,0.109409,0.249479,0.438676,1
2188822226,0.177461,0.279246,0.196669,-0.128941,0.469005,0.145182,0.52503,0.11652,0.166744,0.152502,0.355161,0.314966,1
2188855560,0.001741,0.204473,0.098714,-0.14862,0.481904,-0.000708,0.477215,0.150519,-0.022074,0.137206,0.299733,0.13776,1
2188888894,-0.102124,0.166202,0.116026,-0.100279,0.421403,-0.001412,0.266137,0.263717,-0.296961,0.010771,0.251427,0.062225,1
2188922228,-0.0494,0.09489,0.066127,-0.066707,0.376332,0.141614,0.134895,0.272295,-0.385137,-0.143527,0.155207,0.10832,1
2188955562,-0.108881,0.198478,0.130298,-0.077107,0.254836,0.258842,0.136858,0.157024,-0.207185,-0.024275,0.088162,0.334325,1
2188988896,0.020831,0.215443,0.132549,-0.086081,0.223372,0.286009,0.161752,0.092916,-0.116537,-0.123404,0.05986,0.223006,1
2189022230,0.005164,0.178361,0.130971,0.032673,0.208254,0.236065,0.193218,0.29719,-0.121898,-0.089572,0.156615,0.156283,1
2189055564,-0.013636,0.266467,0.146177,0.091452,0.299202,0.200919,0.209355,0.360773,0.021989,-0.046561,0.198843,0.169558,1
2189088898,-0.044981,0.076782,0.137082,0.098415,0.192712,0.219785,0.178119,0.298447,0.073703,-0.050437,0.117549,0.218042,1
2189122232,-0.04945,0.138168,0.103267,0.117832,0.10287,0.195436,0.091373,0.287478,-0.036176,-0.054162,0.066813,0.173875,1
2189155566,-0.032054,0.201488,0.112798,0.135753,0.135725,0.144632,0.133428,0.288939,-0.098665,0.034232,0.082936,0.146557,1
2189188900,0.027399,0.211652,0.101128,0.139134,0.21696,0.124426,0.180041,0.292937,-0.039228,0.061971,0.115583,0.128408,1
2189222234,0.021046,0.26654,0.064481,0.106622,0.089886,0.003931,0.169442,0.272084,-0.019551,0.078778,0.080763,0.085232,1
2189255568,-0.124307,0.228975,0.064554,0.128847,0.202893,0.167603,0.153916,0.311318,-0.057693,0.053684,0.10422,0.108876,1
2189288902,0.115146,0.008401,0.132973,0.093194,0.094842,0.065561,0.15567,0.33353,-0.107755,0.120986,0.029185,0.182097,1
2189322236,0.107116,-0.163575,0.165155,0.113865,0.080493,0.029234,0.128613,0.191382,-0.085696,0.008258,-0.011382,0.080503,1
2189355570,0.034596,-0.006562,0.158336,0.136156,0.128152,0.161316,0.081595,0.137279,-0.04817,0.046778,-0.034663,0.191799,1
2189388904,0.083083,-0.09572,0.202378,0.118556,0.024701,0.16643,0.13899,0.168238,0.064407,0.157803,-0.108342,0.325178,1
2189422238,0.152276,-0.201022,0.126431,0.188045,0.029064,0.149807,0.203809,0.203303,0.089149,0.060824,-0.084576,0.179529,1
2189455572,0.072364,0.084496,0.133581,0.214288,0.001079,0.094235,0.148006,0.236354,0.00019,0.037114,-0.038858,0.092357,1
2189488906,-0.120015,0.258959,0.105513,0.222503,-0.040213,0.078555,0.180145,0.146087,0.053933,0.094622,-0.017452,0.118771,1
2189522240,-0.050138,0.252856,0.133619,0.272199,-0.020625,0.055657,0.15584,0.145067,0.125111,0.122394,-0.012363,0.075135,1
2189555574,-0.010594,0.140491,0.089335,0.3113,-0.030458,0.049633,0.158331,0.290436,-0.016603,0.069414,0.026609,0.010134,1
2189588908,0.081086,-0.005841,0.136678,0.302881,0.028338,0.044222,0.140219,0.274254,-0.076228,0.146359,-0.02795,0.099141,1
2189622242,0.04664,-0.097523,0.146899,0.237654,0.116391,0.115582,0.10529,0.211233,-0.093167,0.130605,-0.111787,0.112803,1
2189655576,0.047349,-0.109618,0.129616,0.217035,0.125321,0.160507,0.119807,0.200849,-0.120829,0.100014,-0.127511,0.161548,1
2189688910,0.077473,0.074945,0.16145,0.150347,0.158254,0.194468,0.163056,0.17858,-0.135445,0.082163,-0.070513,0.239886,1
2189722244,0.025815,0.14628,0.144204,0.104475,0.203649,0.254624,0.241236,0.141118,-0.021255,0.111021,-0.028765,0.335749,1
2189755578,-0.019777,0.085013,0.133505,0.094634,0.144186,0.250053,0.240391,0.118853,-0.009287,0.006848,0.015648,0.262307,1
2189788912,0.008706,-0.000731,0.116423,0.128258,0.148055,0.181287,0.199141,0.165075,-0.114816,-0.099486,0.039527,0.13178,1
2189822246,-0.063601,0.009186,0.113387,0.14507,0.131288,0.071276,0.19698,0.140765,-0.137462,-0.079321,-0.005646,0.087441,1
2189855580,-0.03606,-0.013468,0.126101,0.101631,0.229344,0.254376,0.268926,0.092559,-0.081888,0.012549,-0.005312,0.218861,1
2189888914,0.093157,0.004597,0.128374,0.080226,0.108799,0.205301,0.306447,0.179226,-0.082972,0.007443,0.012556,0.253178,1
2189922248,0.096244,0.202946,0.150537,0.089083,0.180018,0.171399,0.356588,0.149051,0.000494,-0.055822,0.04677,0.172564,1
2189955582,-0.02444,0.19176,0.117047,0.054454,0.245038,0.161358,0.36037,0.191499,0.0349,0.072936,0.127864,0.178187,1
2189988916,0.062376,0.123276,0.125297,0.080444,0.258902,0.044084,0.33617,0.241672,-0.0061,0.10703,0.186312,0.150924,1
2190022250,0.107381,0.133767,0.111885,0.037969,0.274918,0.029201,0.296473,0.252023,-0.104669,0.047355,0.185332,0.072962,1
2190055584,0.087682,0.161407,0.094955,0.036439,0.330189,0.061352,0.220321,0.279447,-0.169702,0.030491,0.174726,0.082412,1
2190088918,0.0744,0.141304,0.125063,0.022545,0.366897,0.124083,0.3079,0.317771,-0.138231,0.098945,0.196237,0.165298,1
2190122252,0.155622,0.163294,0.153033,0.034038,0.392955,0.147703,0.314152,0.354447,-0.07172,0.132747,0.187415,0.22732,1
2190155586,0.161112,0.12159,0.134787,0.011404,0.385452,0.163278,0.354143,0.342021,-0.028258,0.038258,0.237034,0.160099,1
2190188920,0.235512,0.068528,0.184162,0.015033,0.382661,0.188309,0.356217,0.289878,0.026156,0.00885,0.260986,0.193335,1
2190222254,0.246201,0.136648,0.158076,0.040028,0.337235,0.223943,0.386375,0.286288,0.114027,0.039398,0.243869,0.276073,1
2190255588,0.169269,0.139103,0.152786,0.10236,0.309482,0.244662,0.383157,0.308887,0.170729,0.013985,0.24118,0.24248,1
2190288922,0.242521,0.180363,0.135282,0.091601,0.266358,0.194549,0.324248,0.314273,0.175548,0.025501,0.279016,0.191541,1
2190322256,0.186541,0.187575,0.128345,0.097021,0.179682,0.093789,0.289003,0.347127,0.136556,0.042627,0.305656,0.110866,1
2190355590,0.037661,0.138913,0.08245,0.091215,0.157085,-0.06321,0.278994,0.46941,0.026323,0.063355,0.274575,0.013905,1
2190388924,-0.037961,0.159409,0.006354,0.031255,0.234164,-0.106701,0.272689,0.479742,0.022471,0.031314,0.270454,-0.061946,1
2190422258,-0.114078,0.199152,0.05719,0.02652,0.182796,-0.122643,0.169518,0.335138,0.035898,-0.007053,0.258771,-0.058006,1
2190455592,-0.181879,0.179119,0.078691,-0.049552,0.121932,0.097406,0.076266,0.206371,0.010606,-0.062797,0.168177,0.081214,1
2190488926,-0.134037,0.188294,0.015687,-0.073445,-0.105384,0.022788,0.058628,0.176651,-0.012466,-0.164936,0.054306,0.114885,1
2190522260,-0.078146,0.227838,0.044644,-0.003702,-0.103083,-0.07509,0.148065,0.116524,-0.041736,-0.273795,0.052671,-0.013034,1
2190555594,-0.211634,0.165067,0.103947,-0.03395,-0.099219,-0.115369,0.141562,0.050851,-0.100924,-0.291135,-0.040236,-0.100484,1
2190588928,-0.169016,0.011575,0.118044,-0.039879,-0.141047,-0.128287,0.086588,0.035333,-0.136759,-0.27254,-0.087372,-0.063589,1
2190622262,-0.120941,-0.060059,0.066563,-0.09335,-0.187979,-0.092236,0.049236,-0.093111,-0.047215,-0.26004,-0.133648,0.01664,1
2190655596,-0.108486,-0.155858,0.163012,-0.102488,-0.208989,-0.043675,0.017804,-0.083969,-0.028173,-0.250634,-0.250377,0.088349,1
2190688930,-0.068934,-0.332763,0.145821,-0.123211,-0.269175,0.047833,-0.041999,-0.156729,-0.037458,-0.21856,-0.249233,0.199023,1
2190722264,0.051369,-0.334513,0.2905,-0.129119,-0.371924,0.02017,-0.094217,-0.168448,-0.098308,-0.32095,-0.264416,0.173048,1
2190755598,-0.004761,-0.340171,0.214806,-0.132132,-0.38682,-0.014542,-0.048301,-0.255837,-0.077372,-0.397547,-0.329578,0.126054,1
2190788932,0.150914,-0.345503,0.226506,-0.130329,-0.417175,-0.018607,-0.016229,-0.373426,-0.046902,-0.427026,-0.444286,0.100519,1
2190822266,0.154882,-0.054181,0.169155,-0.061801,-0.4252,0.118403,-0.073998,-0.523503,0.017259,-0.323592,-0.584523,0.213849,1
2190855600,-0.004297,0.134548,0.056834,-0.027988,-0.4754,0.348616,-0.107264,-0.647898,0.148757,-0.248218,-0.560912,0.524541,1
2190888934,-0.563004,-0.291883,0.436949,-0.032831,-0.661529,0.34454,-0.078401,-0.621875,0.03231,-0.462968,-0.561842,0.459071,1
2190922268,-0.904321,-0.412493,0.264297,0.062014,-0.719787,0.258975,-0.044619,-0.530045,-0.113584,-0.61195,-0.677494,0.170869,1
2190955602,-0.579382,-0.092989,0.177477,0.155664,-0.642216,0.247711,-0.016965,-0.618646,0.021223,-0.47062,-0.698878,0.197041,1
2190988936,-0.48859,0.043314,0.027662,0.174489,-0.637848,0.255321,0.013952,-0.638665,0.138843,-0.265677,-0.570131,0.314094,1
2191022270,-0.440368,0.135822,0.119653,0.290838,-0.562456,0.143303,-0.128346,-0.526232,-0.004123,-0.420215,-0.554823,0.114428,1
2191055604,-0.149087,0.279494,-0.011559,0.196853,-0.598221,0.224442,-0.063871,-0.48746,0.000441,-0.50607,-0.446131,0.06625,1
2191088938,-0.266676,0.00913,-0.071362,0.102021,-0.650214,0.089886,0.143865,-0.371397,0.023242,-0.337718,-0.40556,0.132744,1
2191122272,-0.51263,-0.103389,-0.002517,0.095188,-0.47982,-0.095083,0.034935,-0.413214,-0.053457,-0.244503,-0.42034,-0.010764,1
2191155606,-0.46794,-0.165889,-0.050635,0.031627,-0.429497,-0.106041,-0.022155,-0.36078,-0.010531,-0.255432,-0.371185,-0.066765,1
2191188940,-0.317842,-0.259412,0.03637,0.012093,-0.453475,-0.155097,-0.006905,-0.232761,0.009856,-0.293227,-0.306997,-0.053369,1
2191222274,-0.284227,-0.236128,0.054733,0.02145,-0.485283,-0.087901,-0.02142,-0.154333,0.015178,-0.371768,-0.268172,-0.018578,1
2191255608,-0.162156,-0.190545,0.070255,0.05399,-0.457791,-0.017375,-0.02722,-0.137212,0.055388,-0.276476,-0.279465,0.066279,1
2191288942,0.025613,-0.051832,0.051956,0.160023,-0.422808,-0.010159,-0.060516,-0.124114,0.048129,-0.111454,-0.30175,0.098393,1
2191322276,0.002893,-0.031128,0.082366,0.192413,-0.428181,0.010575,-0.064645,-0.19274,0.078634,-0.062711,-0.341111,0.093451,1
2191355610,-0.01857,-0.000476,0.084515,0.23418,-0.434543,0.030504,-0.027183,-0.167379,0.090602,-0.17236,-0.306455,0.067047,1
2191388944,-0.122367,-0.146002,0.081411,0.1557,-0.456312,0.03979,-0.053751,-0.110079,0.067231,-0.171929,-0.267939,0.066067,1
2191422278,-0.221871,-0.248997,0.122844,0.185239,-0.427567,0.01282,-0.064161,-0.103469,0.078389,-0.184031,-0.31784,0.080302,1
2191455612,-0.174982,-0.288579,0.084404,0.175028,-0.433391,-0.013462,-0.026316,-0.03403,0.038917,-0.126569,-0.306833,0.090259,1
2191488946,-0.066088,-0.274686,0.086094,0.188472,-0.419615,-0.040689,-0.00744,-0.103954,0.019073,-0.146012,-0.328986,0.04789,1
2191522280,-0.035027,-0.299177,0.002623,0.163429,-0.430782,-0.021892,-0.010933,-0.177969,0.041808,-0.136351,-0.351808,0.027459,1
2191555614,-0.056361,-0.246568,0.078783,0.17995,-0.436415,0.024901,-0.088652,-0.244364,0.025282,-0.107909,-0.386603,0.061548,1
2191588948,-0.042507,-0.217941,0.04811,0.146688,-0.510981,-0.00162,-0.082631,-0.208295,0.032516,-0.099565,-0.37027,0.131553,1
2191622282,-0.121023,-0.172703,0.125056,0.24525,-0.409843,0.088143,-0.065395,-0.14618,0.041937,-0.140775,-0.379086,0.08655,1
2191655616,-0.198526,-0.197989,0.091703,0.233906,-0.505243,0.060631,-0.071538,-0.128955,0.049307,-0.079365,-0.375998,0.159599,1
2191688950,-0.176075,-0.181913,-0.003066,0.260915,-0.513342,0.015557,-0.060203,-0.207479,0.075068,-0.160091,-0.409741,0.090137,1
2191722284,-0.335088,-0.117821,0.02142,0.245976,-0.529148,-0.041316,-0.094184,-0.280198,-0.018172,-0.167892,-0.489836,0.003137,1
2191755618,-0.301366,-0.19191,-0.006546,0.232336,-0.584466,-0.022063,-0.068384,-0.303555,0.003451,-0.184482,-0.447671,0.014626,1
2191788952,-0.187041,-0.236499,0.05929,0.19666,-0.629624,-0.011033,-0.027328,-0.34094,0.05198,-0.231339,-0.473274,0.052209,1
2191822286,-0.376889,-0.297226,0.103994,0.121807,-0.67406,0.025997,-0.055344,-0.378513,0.091034,-0.263127,-0.522005,0.06038,1
2191855620,-0.383948,-0.258918,-0.022373,0.197165,-0.672014,0.124774,-0.066084,-0.462013,0.14504,-0.255411,-0.527294,0.145924,1
2191888954,-0.403808,-0.096175,0.099388,0.217697,-0.695501,0.132887,-0.076684,-0.465734,0.010119,-0.259807,-0.5807,0.145658,1
2191922288,-0.242146,-0.107645,0.146611,0.239226,-0.6894,0.149984,-0.097108,-0.51862,-0.065613,-0.310379,-0.651993,0.139302,1
2191955622,0.180949,-0.134592,0.297879,0.246973,-0.614013,0.335616,-0.146785,-0.628709,0.046634,-0.329869,-0.687689,0.247188,1
2191988956,-0.053352,-0.412287,0.299871,0.162271,-0.602526,0.379486,-0.243386,-0.649403,0.190417,-0.171208,-0.610224,0.536376,1
2192022290,-0.085894,-0.701456,0.242482,0.148973,-0.522545,0.277083,-0.253502,-0.390114,0.037173,-0.157568,-0.602733,0.425085,1
2192055624,-0.111015,-0.752596,0.171158,0.15857,-0.424557,0.09934,-0.141304,-0.228108,-0.099872,-0.187337,-0.587935,0.196838,1
2192088958,0.111107,-0.727999,0.063968,0.115711,-0.382216,-0.006151,0.030747,-0.18665,-0.100001,-0.111348,-0.53164,0.092245,1
2192122292,0.022693,-0.355524,0.234345,0.202412,-0.35794,0.042902,0.111973,-0.20739,-0.021674,-0.051777,-0.470655,0.140369,1
2192155626,-0.049017,-0.099744,0.094626,0.064197,-0.311245,0.226737,0.145046,-0.289332,0.239457,0.076967,-0.348812,0.305135,1
2192188960,0.096466,0.170391,0.148008,0.307541,-0.389394,0.055126,0.200977,-0.118935,0.288651,0.076585,-0.269181,0.26071,1
2192222294,0.017835,0.248667,0.078773,0.170749,-0.146891,0.002151,0.161247,0.203102,0.05129,-0.085151,-0.12186,-0.013467,1
2192255628,-0.317586,0.180675,0.123693,0.193922,-0.136012,-0.24095,0.083234,0.371885,-0.247564,-0.139587,-0.044334,-0.212379,1
2192288962,-0.427703,0.068265,0.085412,0.116707,0.03995,-0.159109,0.038523,0.2203,-0.131885,-0.137405,0.063816,-0.268395,1
2192322296,-0.282521,0.013136,0.104172,-0.067823,0.084641,-0.03434,0.075745,0.101843,0.031165,0.003249,0.117576,-0.004207,1
2192355630,-0.158891,-0.2402,0.285599,-0.241022,0.117189,-0.011558,0.012714,0.166438,-0.011617,-0.178191,0.110412,0.102933,1
2192388964,0.1089,-0.022993,-0.087372,-0.385229,0.080244,0.009105,0.117322,0.217438,-0.096411,-0.372919,0.109539,0.149143,1
2192422298,0.074218,0.359692,0.124151,-0.456039,0.066724,0.064054,0.197112,0.119011,-0.004217,-0.408738,0.068196,0.1594,1
2192455632,0.12957,0.252768,0.071537,-0.469163,0.132557,-0.066391,0.268107,0.041843,0.068213,-0.286362,0.146301,0.133376,1
2192488966,-0.056974,0.156243,-0.005756,-0.484893,0.237208,-0.104697,0.231439,0.112601,0.040521,-0.322938,0.329044,-0.005779,1
2192522300,0.053924,0.376436,0.071113,-0.48312,0.245981,-0.110307,0.248663,0.212936,0.088593,-0.369649,0.462799,-0.090504,1
2192555634,-0.091668,0.567664,0.110978,-0.55211,0.18071,-0.057534,0.29885,0.207469,0.314074,-0.304462,0.495,0.08437,1
2192588968,-0.183324,0.381127,0.121119,-0.580324,0.17939,-0.188163,0.381892,0.265574,0.271384,-0.406703,0.417274,0.00791,1
2192622302,-0.098768,0.367214,0.055097,-0.442882,0.41679,-0.056603,0.33658,0.451304,-0.05731,-0.532282,0.436792,-0.179684,1
2192655636,-0.043249,0.639122,0.194162,-0.464021,0.563891,0.09909,0.296678,0.135031,0.20609,-0.267414,0.447319,0.115471,1
2192688970,-0.131827,0.372624,0.10454,-0.487014,0.579717,0.148066,0.524385,-0.010455,0.233036,-0.025413,0.462037,0.369375,1
2192722304,0.149888,0.332277,0.161237,-0.378792,0.736185,0.287414,0.664122,0.062477,0.002418,-0.107643,0.472935,0.280695,1
2192755638,0.131795,0.370485,0.132867,-0.363542,0.653266,0.251134,0.518862,-0.050649,-0.12696,-0.086854,0.430188,0.283107,1
2192788972,0.116011,0.168583,0.142576,-0.261646,0.666462,0.289418,0.493957,-0.016785,-0.267109,-0.126986,0.446126,0.262105,1
2192822306,0.159214,0.198736,0.120112,-0.213165,0.64825,0.255591,0.356862,-0.020801,-0.320444,-0.090913,0.351831,0.275,1
2192855640,-0.009119,0.098554,0.145359,-0.118283,0.647978,0.29821,0.252902,0.008461,-0.287352,-0.103967,0.271849,0.203289,1
2192888974,0.081619,0.101533,0.151826,-0.08773,0.597526,0.272826,0.093354,0.130321,-0.207995,0.055746,0.245114,0.325944,1
2192922308,0.057959,0.13432,0.124942,-0.013102,0.541348,0.218177,0.021282,0.44804,-0.192218,0.113402,0.253924,0.281551,1
2192955642,0.213527,0.171461,0.160575,0.074052,0.550714,0.036926,-0.023834,0.775748,-0.118959,0.174757,0.242432,0.17452,1
2192988976,0.072592,0.097149,0.148441,0.188317,0.394806,-0.19493,-0.143556,1.063004,-0.123955,0.206899,0.36042,-0.035077,1
2193022310,0.158757,0.092741,0.134891,0.348981,0.408915,-0.121495,-0.200103,1.000891,-0.183137,0.170259,0.510655,-0.160046,1
2193055644,0.147654,0.268938,0.115092,0.457763,0.306881,0.040068,-0.002895,0.683357,-0.023582,0.206466,0.494079,-0.100784,1
2193088978,-0.001995,0.468365,0.091947,0.626619,0.153101,0.450252,0.217559,0.40369,0.221863,0.198228,0.34666,-0.006774,1
2193122312,0.227322,0.231485,0.275146,0.828087,-0.100457,0.722275,0.227123,0.264568,0.318073,0.477506,-0.021841,0.471664,1
2193155646,0.441937,0.03467,0.222613,0.935126,-0.068119,0.611487,0.202371,0.429448,0.2518,0.714905,-0.195656,0.617105,1
2193188980,0.354641,0.039805,0.103763,0.77833,0.020663,0.14236,0.079799,0.748595,0.007389,0.859216,-0.182413,0.267224,1
2193222314,0.181324,0.018066,0.042918,0.768344,0.050905,-0.040289,0.108464,1.038272,-0.358383,0.704217,-0.222471,-0.212354,1
2193255648,0.115016,0.285056,0.040148,0.58752,0.177472,-0.217547,0.127858,1.174113,-0.618679,0.728591,-0.115272,-0.262148,1
2193288982,0.180184,0.441871,0.02739,0.435895,0.501233,-0.12291,0.145812,0.913771,-0.399762,0.623499,-0.017898,-0.098667,1
2193322316,0.417818,0.275047,0.197989,0.423247,0.513535,-0.013048,0.159432,0.765935,0.010207,0.686899,0.047385,0.255362,1
2193355650,0.485335,0.013524,0.166785,0.362432,0.616578,0.26104,0.032239,0.87651,0.086319,0.721143,0.14686,0.397771,1
2193388984,0.289162,-0.136904,0.153269,0.405738,0.454807,0.1994,0.055228,1.019258,0.129744,0.581484,0.176347,0.348507,1
2193422318,0.028748,-0.15523,0.219592,0.441069,0.195423,0.217908,0.06119,1.033616,0.064431,0.405875,0.156324,0.244511,1
2193455652,-0.169505,-0.107231,-0.108735,0.361628,0.029523,0.200954,0.143498,0.691918,0.020016,0.149972,-0.099679,0.146879,1
2193488986,-0.126251,0.342167,-0.037384,0.295829,0.031112,0.299896,0.391946,0.385097,-0.092041,-0.149527,-0.237775,0.083412,1
2193522320,0.519255,0.64483,0.074205,0.274505,0.146506,0.220458,0.73282,0.258272,-0.227182,0.307393,-0.242541,0.095135,1
2193555654,0.924728,0.767003,0.148237,0.565627,0.703638,-0.07208,1.194245,0.344925,-0.244987,0.852539,-0.068258,-0.011844,1
2193588988,0.534968,-0.136117,0.16885,0.543687,1.344182,0.132872,1.498355,0.375034,-0.392027,1.262063,0.50697,-0.011336,1
2193622322,0.486767,-0.683993,0.189389,0.138738,1.479651,0.399789,0.336527,-0.289279,-0.628547,1.179829,0.660763,0.455642,1
2193655656,0.561142,-0.742377,0.130613,-0.371905,0.974427,0.296295,-0.043065,-0.510352,-0.685107,0.939065,0.406637,0.919174,1
2193688990,0.789346,-0.222125,0.07088,-0.339852,1.090397,-0.119433,0.338155,0.149448,-0.983814,0.219535,0.247672,0.254848,1
2193722324,0.817842,0.270153,0.272918,-0.108698,1.777994,0.295261,1.066624,1.241537,-0.707601,0.076846,0.589802,-0.082738,1
2193755658,0.617065,0.079668,0.341325,-0.144412,1.499336,0.922138,0.985914,0.805324,1.298278,0.424105,1.111454,0.725226,1
2193788992,0.201892,0.187151,0.117869,-0.21892,0.198018,0.889759,0.285207,-0.148229,2.530293,0.09002,1.467368,1.047359,1
2193822326,-0.150022,0.307129,0.015836,-0.281213,-0.381038,0.703835,-0.464377,1.0243,1.350305,-0.907233,1.124517,0.442755,1
2193855660,-0.587348,0.031933,-0.015845,-0.322681,-0.849308,-0.01405,-0.742223,1.209827,0.00103,-1.381804,0.516136,-0.280764,1
2193888994,-0.749308,-0.166141,0.046437,-0.401066,-1.055143,-1.05909,0.274563,0.486505,-0.771534,-1.302916,0.113501,-0.983159,1
2193922328,-0.760491,-0.165303,0.217486,-0.205143,-0.537917,-1.503542,-0.055885,-0.120029,-1.818684,-1.126846,-0.193767,-1.703971,1
2193955662,-0.395709,0.20842,0.387131,-0.021486,-0.002065,-1.233319,-0.091379,-0.728337,-1.244654,-0.703225,-0.270602,-1.538798,1
2193988996,0.203371,0.420889,0.37392,-0.262076,0.143006,-0.397981,-0.387055,-0.99036,-0.146098,0.126972,-0.092707,-0.213972,1
2194022330,0.451,0.740608,0.2574,-0.583235,-0.106297,0.188879,-0.360598,-0.725267,0.864461,0.582825,-0.209924,1.142096,1
2194055664,0.038713,1.05493,-0.192717,-0.809534,-0.470738,0.521013,-0.353005,-0.369,1.092302,-0.092481,-0.505794,1.294766,1
2194088998,0.067266,1.131668,-0.083246,-0.748296,-0.825996,0.39714,-0.329559,0.029704,0.140319,-0.993693,-0.763322,0.659645,1
2194122332,-0.503914,0.580168,0.148456,-0.443312,-0.963413,0.320032,-0.352823,-0.360108,-0.279375,-1.257187,-1.082626,0.30786,1
2194155666,-1.288923,-0.419822,0.112293,-0.105962,-1.003085,0.295393,-0.521771,-1.149246,-0.133294,-0.788588,-1.003385,0.292585,1
2194189000,-1.111369,-0.796406,0.289687,0.339948,-0.920481,0.334201,-0.534561,-1.660232,0.137109,-0.408473,-0.890958,0.237827,1
2194222334,-0.949114,-0.776804,0.387931,0.381035,-0.960754,0.41879,-0.317547,-1.55301,0.175111,-0.485947,-0.720058,0.268438,1
2194255668,-0.672575,-0.786924,0.180044,0.195882,-1.085961,0.373012,-0.054167,-0.823787,-0.051588,-0.662637,-0.524802,0.235641,1
2194289002,-0.66552,-0.60238,0.090673,0.167163,-0.991978,0.207552,0.019691,-0.414206,-0.045059,-0.853377,-0.722408,0.032761,1
2194322336,-0.589413,-0.353231,0.071424,0.120635,-0.860637,0.14979,0.013662,-0.614713,0.239485,-0.632475,-0.856347,0.083291,1
2194355670,-0.179937,-0.144801,-0.225376,-0.150992,-0.759897,0.126318,0.098385,-0.852633,0.360983,-0.283481,-0.613344,0.214303,1
2194389004,0.072543,0.193474,-0.222672,-0.209854,-0.643482,-0.055527,0.010225,-0.828333,0.126879,-0.352829,-0.500009,0.035936,1
2194422338,-0.240644,0.225396,-0.031705,-0.202313,-0.579777,-0.148622,-0.154375,-0.761281,0.024084,-0.446287,-0.545805,-0.099443,1
2194455672,-0.219972,0.161229,-0.107903,-0.189286,-0.477867,0.020523,-0.118191,-0.680362,0.151482,-0.287745,-0.427391,0.066897,1
2194489006,-0.196328,-0.228791,0.034988,-0.154864,-0.573042,0.039974,0.024483,-0.341858,0.132718,-0.059867,-0.369729,0.231183,1
2194522340,-0.150249,-0.589316,-0.08955,0.035514,-0.645129,-0.068044,-0.159172,-0.221246,0.086271,-0.08065,-0.500779,0.094877,1
2194555674,-0.141947,-0.576899,0.10125,0.206662,-0.579362,-0.113176,-0.264122,-0.233304,0.016667,-0.194375,-0.543894,-0.083188,1
2194589008,-0.41609,-0.708638,0.366022,0.22523,-0.617586,-0.023282,-0.246885,-0.173773,0.05747,-0.190099,-0.523273,0.017818,1
2194622342,-0.499597,-0.977686,0.252076,0.104951,-0.717319,0.015921,-0.116574,-0.114274,0.109577,-0.150013,-0.415805,0.123028,1
2194655676,-0.072493,-0.720343,0.181952,0.154491,-0.701266,-0.005042,-0.10381,-0.056032,0.02906,-0.242647,-0.388044,-0.007082,1
2194689010,0.192467,-0.39645,0.044116,0.096236,-0.596775,0.034761,-0.188657,-0.118851,0.061153,-0.192273,-0.46571,0.070607,1
2194722344,0.174751,-0.114987,-0.017843,0.014979,-0.6476,-0.101456,-0.224485,-0.143282,0.01609,-0.084479,-0.460748,0.074915,1
2194755678,0.150006,0.036274,-0.100148,0.141291,-0.547814,-0.187846,-0.240269,-0.122809,-0.017477,-0.118182,-0.482191,-0.078037,1
2194789012,-0.037991,-0.105518,-0.05558,0.13699,-0.574617,-0.169215,-0.229496,-0.210855,0.075237,-0.050933,-0.491121,-0.106574,1
2194822346,-0.274306,-0.222599,-0.04882,0.147222,-0.631585,-0.173273,-0.18557,-0.159797,0.040295,-0.05367,-0.508217,-0.00341,1
2194855680,-0.446776,-0.356332,-0.028009,0.208852,-0.693124,-0.085545,-0.121466,-0.174639,0.053694,-0.185846,-0.503043,-0.053578,1
2194889014,-0.574511,-0.342448,-0.00555,0.273581,-0.737475,-0.077113,-0.195569,-0.156982,-0.042758,-0.244056,-0.571208,-0.072516,1
2194922348,-0.606565,-0.245929,0.004308,0.299695,-0.746452,0.036306,-0.231208,-0.288141,-0.063241,-0.296234,-0.623797,-0.004671,1
2194955682,-0.486207,-0.252419,-0.037765,0.26893,-0.81473,0.091128,-0.264129,-0.450279,-0.030573,-0.199774,-0.650211,0.12602,1
2194989016,-0.481889,-0.227562,-0.005509,0.254925,-0.813581,0.133262,-0.319426,-0.456804,-0.01346,-0.240929,-0.700359,0.096626,1
2195022350,-0.589153,0.220178,-0.101818,0.182491,-0.822971,0.194055,-0.331309,-0.399019,0.018384,-0.292978,-0.622131,0.104844,1
2195055684,0.042474,0.130822,0.445107,0.200147,-0.806579,0.197793,-0.287669,-0.389112,0.027109,-0.396228,-0.651891,0.118543,1
2195089018,0.826844,0.024567,0.5194,0.163808,-0.604298,0.601919,-0.456619,-0.517717,0.305414,-0.406761,-0.724258,0.524874,1
2195122352,0.133511,-0.487629,0.516796,-0.09556,-0.692789,0.567636,-0.494426,-0.516944,0.504037,-0.101142,-0.470623,0.923311,1
2195155686,-0.134054,-0.627264,0.23561,0.007133,-0.549017,0.132293,-0.290198,-0.229317,0.18239,-0.079246,-0.399015,0.480219,1
2195189020,-0.258478,-0.549014,0.051558,0.105845,-0.277787,-0.293089,-0.03294,0.08832,-0.283184,-0.234159,-0.480082,-0.204623,1
2195222354,-0.151964,-0.41398,0.106879,0.136584,-0.189798,-0.318376,0.126913,0.09277,-0.330178,-0.094437,-0.449023,-0.287197,1
2195255688,-0.030463,-0.286166,0.156375,0.056972,-0.16821,-0.068756,0.09254,-0.096467,-0.116999,0.084434,-0.3442,0.047663,1
2195289022,0.006163,-0.109265,0.219666,0.007667,-0.153788,0.169881,-0.05024,-0.256588,0.0922,0.030108,-0.202923,0.311375,1
2195322356,0.01504,-0.006744,0.204984,-0.052652,-0.143165,0.239147,-0.092116,-0.284182,0.121881,-0.125353,-0.142045,0.341152,1
2195355690,-0.025508,-0.171976,0.05551,-0.066045,-0.097914,0.106882,-0.01408,-0.178694,-0.038664,-0.288453,-0.130758,0.16088,1
2195389024,-0.264297,-0.156451,0.120294,-0.023078,0.024996,0.007448,0.118334,0.025753,-0.245025,-0.26099,-0.094741,-0.013977,1
2195422358,-0.428817,-0.244292,0.170028,-0.011808,0.159083,-0.012762,0.25544,0.15978,-0.264647,-0.087092,0.025025,-0.003346,1
2195455692,-0.241803,-0.105776,0.071034,-0.019156,0.222923,0.01561,0.282671,0.202012,-0.122656,0.081246,0.163493,0.08263,1
2195489026,-0.228048,0.19647,0.005832,-0.062172,0.279299,0.097437,0.33785,0.252974,0.114864,0.078375,0.272011,0.125874,1
