sep=,
DeviceTag:,23_Right
FirmwareVersion:,2.2.1
AppVersion:,2023.6.0
SyncStatus:,Synced
OutputRate:,30Hz
FilterProfile:,General
Measurement Mode:,Sensor fusion Mode - Complete(Quaternion)
StartTime: ,2026-05-01_14:56:40_435 AEST
© Movella Technologies B. V. 2005-2026

PacketCounter,SampleTimeFine,Quat_W,Quat_X,Quat_Y,Quat_Z,FreeAcc_X,FreeAcc_Y,FreeAcc_Z
1,3222830624,-0.050119,0.616439,-0.227721,-0.752086,0.095406,0.376490,-0.066442
2,3222863958,-0.048348,0.617061,-0.224831,-0.752561,0.068753,0.497676,-0.206393
3,3222897292,-0.045715,0.618624,-0.221079,-0.752554,0.063662,0.705041,-0.471066
4,3222930626,-0.042055,0.622029,-0.215283,-0.751640,0.559343,0.615468,-0.924428
5,3222963960,-0.036966,0.627306,-0.204675,-0.750485,0.374312,0.821407,-0.662384
6,3222997294,-0.034004,0.625797,-0.189498,-0.755851,0.037744,1.707772,0.197236
7,3223030628,-0.032824,0.615993,-0.172265,-0.767983,-0.857858,1.131112,0.225480
8,3223063962,-0.033383,0.601947,-0.155639,-0.782509,-0.825892,-0.357981,1.368994
9,3223097296,-0.034805,0.590871,-0.142110,-0.793388,-0.130467,-3.199222,0.662760
10,3223130630,-0.033640,0.580281,-0.133191,-0.802746,0.099519,-3.356101,2.217115
11,3223163964,-0.029478,0.568033,-0.133420,-0.811583,-0.924629,-3.359477,2.940142
12,3223197298,-0.022948,0.560936,-0.144668,-0.814797,-0.713902,-2.711509,2.005027
13,3223230632,-0.013704,0.560266,-0.162615,-0.812078,0.173832,-2.135728,0.738004
14,3223263966,-0.001987,0.568869,-0.182970,-0.801814,-0.887805,-1.551068,-0.511167
15,3223297300,0.009003,0.586650,-0.201633,-0.784286,-0.126027,-0.426329,-1.156219
16,3223330634,0.018712,0.609213,-0.214631,-0.763179,1.161782,0.357899,-0.846827
17,3223363968,0.020794,0.618482,-0.221787,-0.753563,0.618292,2.552540,0.185748
18,3223397302,0.015942,0.611919,-0.224896,-0.758104,0.931100,1.995048,-1.785072
19,3223430636,0.014677,0.612578,-0.222347,-0.758349,1.075484,1.281353,-3.482003
20,3223463970,0.016326,0.623164,-0.215220,-0.751718,1.053355,3.559165,-1.168772
21,3223497304,0.014022,0.619843,-0.205678,-0.757161,1.737590,3.670824,-1.883407
22,3223530638,0.009852,0.607556,-0.192186,-0.770611,0.587491,3.433230,-3.352021
23,3223563972,0.005193,0.594743,-0.174343,-0.784766,0.292400,3.123084,-3.309137
24,3223597306,0.000809,0.594687,-0.152716,-0.789318,1.026881,1.882429,-4.384267
25,3223630640,-0.008545,0.602545,-0.129705,-0.787428,0.108674,2.209148,-0.425924
26,3223663974,-0.025485,0.611347,-0.113418,-0.782777,-0.400150,0.828125,0.515813
27,3223697308,-0.046975,0.621943,-0.105426,-0.774509,-1.085196,-0.485949,1.041273
28,3223730642,-0.070196,0.634908,-0.106603,-0.761971,-1.625287,-0.182869,2.125516
29,3223763976,-0.093223,0.649917,-0.116608,-0.745197,-1.060830,-0.036879,1.205106
30,3223797310,-0.114840,0.671405,-0.136671,-0.719269,-2.906357,0.403814,2.101340
31,3223830644,-0.138578,0.691521,-0.168194,-0.688698,-2.486033,1.786241,2.137710
32,3223863978,-0.163906,0.705078,-0.208418,-0.657693,-2.529802,2.234372,2.088415
33,3223897312,-0.190423,0.711293,-0.255335,-0.626582,-2.372562,2.495773,1.029269
34,3223930646,-0.215830,0.714613,-0.308326,-0.589644,-1.363880,2.421010,0.043226
35,3223963980,-0.240265,0.712701,-0.364999,-0.548731,-0.784706,2.590683,-0.034781
36,3223997314,-0.275627,0.692814,-0.414414,-0.521823,1.151548,2.068945,0.952063
37,3224030648,-0.327144,0.655967,-0.443397,-0.515832,2.235974,0.260039,-0.878400
38,3224063982,-0.381814,0.619334,-0.452539,-0.515608,2.959507,0.203357,-1.774866
39,3224097316,-0.422679,0.598859,-0.453709,-0.506810,2.830312,-1.136017,-2.462532
40,3224130650,-0.449140,0.596183,-0.449941,-0.490297,3.290273,-2.682202,-0.795711
41,3224163984,-0.475536,0.596226,-0.432136,-0.481287,2.252212,-2.636176,0.325795
42,3224197318,-0.504472,0.593388,-0.404118,-0.479673,0.924313,-1.760090,0.081833
43,3224230652,-0.526956,0.594677,-0.381525,-0.472350,-0.051067,-1.378210,0.137144
44,3224263986,-0.542451,0.599624,-0.368471,-0.458722,-0.787200,-2.029129,0.007903
45,3224297320,-0.554269,0.602004,-0.362795,-0.445821,-2.534440,-0.423102,1.043129
46,3224330654,-0.564073,0.601307,-0.365202,-0.432294,-3.138142,-0.124326,1.363935
47,3224363988,-0.573509,0.595932,-0.372128,-0.421275,-3.254159,0.175299,1.123440
48,3224397322,-0.582557,0.586795,-0.383283,-0.411572,-3.103092,1.044590,0.858250
49,3224430656,-0.591595,0.575106,-0.397237,-0.401834,-2.564781,1.194731,0.765381
50,3224463990,-0.603472,0.559829,-0.408419,-0.394469,-2.120839,1.222158,0.411909
51,3224497324,-0.621315,0.539475,-0.411615,-0.391799,-1.728246,1.714687,0.043512
52,3224530658,-0.644357,0.516235,-0.405073,-0.392708,-0.774564,1.231153,-1.087787
53,3224563992,-0.667833,0.495174,-0.391361,-0.394510,-0.015028,-0.038507,-0.492612
54,3224597326,-0.691519,0.477418,-0.370130,-0.396077,0.876910,1.901828,-0.258554
55,3224630660,-0.707086,0.467985,-0.352895,-0.395581,0.299712,-0.926261,-3.447428
56,3224663994,-0.714464,0.473815,-0.342854,-0.384045,-0.690277,-0.439693,-3.409043
57,3224697328,-0.722264,0.485585,-0.326797,-0.368436,1.235918,-2.208886,-2.209148
58,3224730662,-0.729875,0.494678,-0.302807,-0.361777,1.193199,-2.506603,3.051789
59,3224763996,-0.735929,0.498149,-0.278051,-0.364614,1.529811,-2.396843,1.027903
60,3224797330,-0.736228,0.503461,-0.262644,-0.368121,0.830971,-1.729837,0.312794
61,3224830664,-0.735588,0.508756,-0.247854,-0.372350,0.041872,-1.097036,0.200549
62,3224863998,-0.733988,0.513984,-0.232965,-0.377901,0.227339,-0.881723,0.043133
63,3224897332,-0.729741,0.520994,-0.220705,-0.383838,-0.297106,-1.021951,0.577594
64,3224930666,-0.723863,0.527691,-0.207334,-0.393163,-0.978967,-1.687872,1.771461
65,3224964000,-0.715510,0.531759,-0.192635,-0.410084,-1.401753,-2.319477,3.149323
66,3224997334,-0.702141,0.533371,-0.181214,-0.435517,-1.592743,-2.768570,3.500793
67,3225030668,-0.681920,0.531927,-0.175530,-0.470348,-1.302264,-3.407052,5.242051
68,3225064002,-0.653664,0.526126,-0.177518,-0.514199,-0.146604,-3.144088,4.972795
69,3225097336,-0.612217,0.520689,-0.193071,-0.562846,1.946993,-3.382756,6.021687
70,3225130670,-0.555521,0.516940,-0.217437,-0.613914,2.926010,-1.847010,3.488898
71,3225164004,-0.484621,0.518615,-0.247389,-0.659529,2.633288,0.483828,2.181467
72,3225197338,-0.399542,0.532141,-0.282738,-0.690833,1.635414,-0.015890,0.117770
73,3225230672,-0.307413,0.550667,-0.314000,-0.709695,0.458119,-0.036163,1.099855
74,3225264006,-0.221402,0.555795,-0.335859,-0.727510,-0.343949,1.097703,1.736794
75,3225297340,-0.153755,0.537735,-0.351180,-0.750915,0.583229,1.577306,0.472518
76,3225330674,-0.104146,0.502928,-0.366677,-0.775735,0.289625,2.150052,-2.040977
77,3225364008,-0.065517,0.474298,-0.384958,-0.789022,-0.966941,0.804001,-4.361779
78,3225397342,-0.036027,0.462058,-0.402855,-0.789248,0.211382,1.163676,-4.731866
79,3225430676,-0.025483,0.452767,-0.420523,-0.785820,-1.035958,4.163409,-5.136880
80,3225464010,-0.025137,0.449159,-0.435467,-0.779739,0.535886,1.093476,-6.912421
81,3225497344,-0.028126,0.459430,-0.440307,-0.770884,3.267353,2.983976,-5.551531
82,3225530678,-0.049661,0.457190,-0.430689,-0.776542,3.368462,1.341499,-7.036233
83,3225564012,-0.076181,0.455147,-0.403850,-0.789900,2.722786,0.770600,-6.851180
84,3225597346,-0.093462,0.471905,-0.364988,-0.797091,1.160812,1.882385,-5.231335
85,3225630680,-0.100322,0.509639,-0.325474,-0.790107,-0.206238,2.038799,-0.338027
86,3225664014,-0.102636,0.552454,-0.296328,-0.772301,0.290216,1.316318,3.505167
87,3225697348,-0.096676,0.590593,-0.283941,-0.749153,-1.744517,0.762172,8.997665
88,3225730682,-0.085238,0.613451,-0.290876,-0.729249,-2.950134,-0.618747,9.650658
89,3225764016,-0.068270,0.620473,-0.313058,-0.715783,-3.365703,-0.328367,9.135962
90,3225797350,-0.051595,0.608163,-0.345135,-0.712992,-2.786254,1.196179,6.422953
91,3225830684,-0.038157,0.580932,-0.383895,-0.716719,-2.397575,1.635181,3.437208
92,3225864018,-0.032052,0.543353,-0.424514,-0.723552,-0.783949,0.609384,0.750691
93,3225897352,-0.030316,0.506444,-0.461921,-0.727477,-0.274719,0.679007,-2.037283
94,3225930686,-0.038641,0.470791,-0.492219,-0.731151,-0.407969,-0.237122,-3.789804
95,3225964020,-0.048897,0.448361,-0.515641,-0.728488,0.335448,-0.045651,-5.841610
96,3225997354,-0.057800,0.441532,-0.532389,-0.719909,1.607426,0.664361,-5.297081
97,3226030688,-0.073728,0.440980,-0.540841,-0.712454,0.358452,2.237345,-6.998838
98,3226064022,-0.088449,0.446866,-0.539422,-0.708174,2.413426,1.477378,-4.379624
99,3226097356,-0.107019,0.452461,-0.526382,-0.711862,2.318321,0.041024,-3.260392
100,3226130690,-0.124458,0.462303,-0.505376,-0.717900,0.607157,-1.611193,-1.118496
101,3226164024,-0.138897,0.467534,-0.489066,-0.723141,0.355058,0.167692,3.052356
102,3226197358,-0.146810,0.462155,-0.488070,-0.725704,-1.695401,0.706936,4.745590
103,3226230692,-0.144423,0.460864,-0.503695,-0.716265,-3.983217,3.239259,4.627645
104,3226264026,-0.139041,0.460096,-0.527090,-0.700825,-2.305344,-0.034786,2.198161
105,3226297360,-0.121405,0.471393,-0.550403,-0.678310,-0.743976,1.244756,0.373054
106,3226330694,-0.112328,0.475053,-0.571048,-0.660008,0.837202,2.198217,-1.506267
107,3226364028,-0.123283,0.462288,-0.584606,-0.655230,1.172606,1.195322,-3.424367
108,3226397362,-0.150645,0.441236,-0.587207,-0.661668,0.639314,0.098667,-5.928701
109,3226430696,-0.179185,0.428481,-0.580945,-0.668431,1.022855,1.695351,-6.459556
110,3226464030,-0.205242,0.426721,-0.569909,-0.671556,2.444930,3.368326,-6.031916
111,3226497364,-0.232676,0.431084,-0.554930,-0.672369,1.496470,1.007564,-6.410519
112,3226530698,-0.265867,0.437827,-0.535766,-0.671250,2.794568,1.532605,-4.331328
113,3226564032,-0.304622,0.443720,-0.515180,-0.667013,2.314342,3.257382,-2.612315
114,3226597366,-0.348134,0.452354,-0.496982,-0.653595,1.369294,1.985823,-2.431528
115,3226630700,-0.385810,0.476953,-0.486177,-0.622332,1.286405,0.713875,-1.417899
116,3226664034,-0.426017,0.504343,-0.476210,-0.580836,1.927251,0.597459,2.160250
117,3226697368,-0.489027,0.508128,-0.446243,-0.550931,-0.718860,0.357374,4.487466
118,3226730702,-0.565639,0.495753,-0.394250,-0.528060,-1.570835,-1.052609,0.211474
119,3226764036,-0.632447,0.492178,-0.334844,-0.495631,-3.021770,1.236695,-0.016109
120,3226797370,-0.688088,0.498711,-0.276093,-0.448993,-1.018240,2.767512,2.412043
121,3226830704,-0.731658,0.508319,-0.232527,-0.390153,-0.163335,1.736840,5.195012
122,3226864038,-0.761236,0.519468,-0.201525,-0.331754,-0.693393,-2.220337,5.892982
123,3226897372,-0.780284,0.525843,-0.174778,-0.289996,-2.018543,-3.373023,6.720226
124,3226930706,-0.792308,0.523430,-0.154444,-0.272791,-2.652818,-2.873465,4.909421
125,3226964040,-0.796376,0.519227,-0.150270,-0.271307,-2.546332,-2.231265,3.671283
126,3226997374,-0.796756,0.512356,-0.156675,-0.279504,-3.069844,-1.869358,3.564232
127,3227030708,-0.796227,0.500380,-0.166893,-0.296292,-1.970061,-1.023616,3.126546
128,3227064042,-0.793540,0.484628,-0.187272,-0.316795,-1.242960,-2.095738,2.648005
129,3227097376,-0.791295,0.460161,-0.202046,-0.348254,-1.548461,-2.497286,1.700459
130,3227130710,-0.787204,0.431469,-0.213792,-0.385275,-1.960453,-1.590554,1.040802
131,3227164044,-0.776252,0.407224,-0.235610,-0.419630,-1.968543,-2.134163,2.041576
132,3227197378,-0.754416,0.388321,-0.269969,-0.455169,-2.568012,-3.858708,3.611617
133,3227230712,-0.720843,0.371703,-0.308705,-0.496914,-2.201482,-4.181997,3.750655
134,3227264046,-0.673446,0.356208,-0.349263,-0.545529,0.469145,-4.503475,4.570971
135,3227297380,-0.609490,0.344749,-0.392706,-0.596197,-0.511211,-2.782814,1.600322
136,3227330714,-0.525309,0.350386,-0.442093,-0.637050,-0.009304,-2.631944,1.061167
137,3227364048,-0.430125,0.368007,-0.483597,-0.667606,1.490061,-1.940487,1.424703
138,3227397382,-0.341670,0.380673,-0.509991,-0.691562,3.283250,1.059806,0.566597
139,3227430716,-0.269950,0.384489,-0.526625,-0.708492,2.082629,0.753663,-3.591286
140,3227464050,-0.214310,0.387067,-0.537626,-0.717780,1.856658,1.168929,-4.555947
141,3227497384,-0.171420,0.392943,-0.548054,-0.718225,1.409415,0.451285,-5.057837
142,3227530718,-0.134861,0.409725,-0.556402,-0.710179,2.101887,-0.023541,-5.693058
143,3227564052,-0.103509,0.434443,-0.559855,-0.697931,3.122844,1.427364,-5.086214
144,3227597386,-0.089521,0.453560,-0.557309,-0.689692,1.114136,7.515847,-5.405431
145,3227630720,-0.098641,0.451828,-0.549551,-0.695783,1.830151,3.302542,-4.305608
146,3227664054,-0.101924,0.459563,-0.534553,-0.701901,3.111880,0.540076,-3.349627
147,3227697388,-0.111468,0.466248,-0.509376,-0.714649,2.726811,-1.784492,-0.718522
148,3227730722,-0.130303,0.451011,-0.482971,-0.739154,0.964170,1.529303,0.151869
149,3227764056,-0.146502,0.433427,-0.463251,-0.758997,-1.062056,1.181088,-0.238792
150,3227797390,-0.155451,0.426003,-0.448818,-0.770012,-1.413766,-0.123791,-1.094016
151,3227830724,-0.153080,0.436372,-0.438976,-0.770354,-1.634591,0.480321,0.933567
152,3227864058,-0.149101,0.450244,-0.433169,-0.766429,-0.574000,0.608266,2.504318
153,3227897392,-0.147723,0.456837,-0.430375,-0.764365,-0.037003,0.045000,2.743215
154,3227930726,-0.144363,0.461242,-0.430060,-0.762537,0.026011,-0.373909,2.571170
155,3227964060,-0.134871,0.467135,-0.432251,-0.759442,0.280334,-0.438423,2.762429
156,3227997394,-0.121269,0.472596,-0.437508,-0.755336,-0.502217,0.944077,2.362960
157,3228030728,-0.108490,0.472988,-0.446813,-0.751578,-0.231182,0.754693,1.662307
158,3228064062,-0.092592,0.475594,-0.456590,-0.746164,0.849900,0.370880,0.136354
159,3228097396,-0.076131,0.477837,-0.465064,-0.741344,0.417766,1.010084,-0.324982
160,3228130730,-0.066402,0.473472,-0.473023,-0.740043,0.201069,1.685463,-1.555091
161,3228164064,-0.065797,0.462455,-0.478152,-0.743758,0.585419,0.703782,-2.589932
162,3228197398,-0.073559,0.448992,-0.477198,-0.751849,0.060964,1.435645,-3.517733
163,3228230732,-0.086835,0.437930,-0.471939,-0.760230,-0.381677,2.704891,-4.354570
164,3228264066,-0.095931,0.435266,-0.459942,-0.767980,0.815079,-0.345594,-3.914333
165,3228297400,-0.110204,0.427889,-0.441360,-0.781003,1.100407,1.390082,-1.254337
166,3228330734,-0.126175,0.412939,-0.424250,-0.795973,-0.633851,0.227508,-0.316267
167,3228364068,-0.135191,0.406147,-0.415525,-0.802563,-1.330226,0.814803,1.725639
168,3228397402,-0.135362,0.409594,-0.418268,-0.799351,-0.459020,0.197167,3.626554
169,3228430736,-0.128052,0.414822,-0.427685,-0.792850,-0.188687,0.107371,4.236875
170,3228464070,-0.114635,0.418464,-0.440654,-0.785856,0.182465,-0.792099,3.748958
171,3228497404,-0.097805,0.420671,-0.453807,-0.779441,0.377746,-1.294851,2.630115
172,3228530738,-0.080159,0.420426,-0.466155,-0.774284,-0.105080,-1.480362,1.415916
173,3228564072,-0.065196,0.417057,-0.477527,-0.770571,0.188954,-1.544062,0.267858
174,3228597406,-0.055075,0.410146,-0.485852,-0.769866,0.214771,-1.328956,-0.614102
175,3228630740,-0.052575,0.397780,-0.490930,-0.773301,-0.319346,-1.041142,-2.230164
176,3228664074,-0.055100,0.385476,-0.490256,-0.779757,0.495566,-1.121561,-3.779871
177,3228697408,-0.059484,0.378083,-0.482740,-0.787703,-0.382555,-0.172613,-3.934436
178,3228730742,-0.069105,0.372135,-0.469023,-0.797970,-0.037768,0.880152,-4.050484
179,3228764076,-0.085138,0.362974,-0.448416,-0.812357,-0.789521,0.091809,-5.221028
180,3228797410,-0.097752,0.359290,-0.426203,-0.824443,-0.782660,1.432277,-2.961087
181,3228830744,-0.105841,0.363847,-0.405993,-0.831614,0.285905,1.578011,-0.292923
182,3228864078,-0.115864,0.365023,-0.388001,-0.838324,-0.216325,2.420667,-0.506550
183,3228897412,-0.123276,0.372135,-0.372745,-0.841058,-0.058786,1.715187,-0.001132
184,3228930746,-0.129085,0.380525,-0.356721,-0.843378,0.476594,2.294725,-0.406809
185,3228964080,-0.135193,0.386473,-0.341636,-0.845958,0.288610,3.918968,-1.216691
186,3228997414,-0.140832,0.393848,-0.329640,-0.846396,0.125739,4.035887,-2.684396
187,3229030748,-0.146788,0.406721,-0.320235,-0.842900,-0.727640,3.805757,-3.778303
188,3229064082,-0.154193,0.431350,-0.311371,-0.832592,-0.510199,4.306249,-3.076632
189,3229097416,-0.169786,0.460752,-0.303085,-0.816712,0.001355,4.173728,-3.780632
190,3229130750,-0.195077,0.496694,-0.295299,-0.792488,-0.266121,3.572489,-2.294724
191,3229164084,-0.231452,0.537042,-0.287250,-0.758619,0.670200,4.213430,-1.974351
192,3229197418,-0.277647,0.581184,-0.284261,-0.710164,0.896113,4.128238,0.005432
193,3229230752,-0.336816,0.610753,-0.280387,-0.659483,1.888555,3.377765,4.361629
194,3229264086,-0.410376,0.613986,-0.269059,-0.618239,0.870856,2.410313,5.099401
195,3229297420,-0.483240,0.608768,-0.257624,-0.574030,0.655703,0.090204,4.211680
196,3229330754,-0.550267,0.599143,-0.247039,-0.526502,-0.403389,-0.930498,3.628116
197,3229364088,-0.602798,0.598143,-0.254510,-0.462691,0.322518,-1.722824,1.649143
198,3229397422,-0.633100,0.608510,-0.292899,-0.378297,0.378278,-3.724836,2.434228
199,3229430756,-0.652473,0.608105,-0.339877,-0.298280,-1.910360,-3.913679,5.400295
200,3229464090,-0.679000,0.590443,-0.359357,-0.247383,-1.541399,-3.820165,1.654884
201,3229497424,-0.700490,0.574992,-0.370155,-0.204163,-0.059665,-1.084965,1.333457
202,3229530758,-0.704977,0.568904,-0.391761,-0.160867,-0.913209,-4.182041,-0.695199
203,3229564092,-0.700424,0.572979,-0.406630,-0.125505,-1.892176,-3.242177,1.828606
204,3229597426,-0.702349,0.577082,-0.401143,-0.112983,-0.827726,-2.291395,1.137377
205,3229630760,-0.705609,0.579137,-0.392799,-0.111462,-0.091495,-1.676965,0.077125
206,3229664094,-0.703325,0.582185,-0.392683,-0.110425,-0.798872,-1.806929,0.089291
207,3229697428,-0.697737,0.588420,-0.392337,-0.113997,-1.492499,-1.716427,0.168705
208,3229730762,-0.693746,0.597182,-0.382253,-0.126380,-1.638167,-2.031958,0.864842
209,3229764096,-0.691202,0.606739,-0.362996,-0.149466,-1.547574,-2.345344,1.515663
210,3229797430,-0.686507,0.614554,-0.344249,-0.180340,-1.590485,-2.301636,1.992724
211,3229830764,-0.676961,0.620112,-0.332613,-0.215760,-1.571859,-2.895477,1.825741
212,3229864098,-0.660346,0.625188,-0.328335,-0.255494,-1.454534,-3.045358,2.469910
213,3229897432,-0.637609,0.629225,-0.325761,-0.302341,-1.629714,-2.324972,1.967380
214,3229930766,-0.608162,0.631628,-0.322900,-0.356257,-0.987682,-2.647786,2.925297
215,3229964100,-0.568520,0.634264,-0.324605,-0.411247,-0.635853,-2.398806,1.490725
216,3229997434,-0.515951,0.641721,-0.336414,-0.456961,-0.880122,-1.068824,0.256148
217,3230030768,-0.455080,0.654596,-0.359458,-0.484969,-1.280913,-1.180431,-1.632107
218,3230064102,-0.391608,0.672960,-0.387292,-0.493733,-0.142725,-2.007330,-0.513565
219,3230097436,-0.337539,0.684900,-0.407412,-0.500993,0.489069,-0.672361,-1.901308
220,3230130770,-0.291678,0.696796,-0.424443,-0.499246,2.028301,0.209686,-2.478101
221,3230164104,-0.262821,0.703421,-0.429929,-0.501283,3.460126,2.490411,0.439798
222,3230197438,-0.268385,0.688655,-0.412521,-0.532493,3.583195,5.331262,-0.268352
223,3230230772,-0.285160,0.663975,-0.380440,-0.577136,5.954211,2.017454,-2.783683
224,3230264106,-0.281380,0.662197,-0.351792,-0.598800,4.993622,2.021432,-2.064422
225,3230297440,-0.270554,0.666239,-0.325982,-0.613726,3.114788,-0.325211,-1.008859
226,3230330774,-0.255591,0.669478,-0.310251,-0.624673,0.434423,-0.825306,0.810489
227,3230364108,-0.241527,0.668867,-0.310549,-0.630746,-1.868768,-1.129174,1.584908
228,3230397442,-0.223672,0.671847,-0.321024,-0.628915,-0.522217,-2.047752,0.670622
229,3230430776,-0.204138,0.677202,-0.331597,-0.624314,-0.943879,0.544444,1.430382
230,3230464110,-0.197468,0.665902,-0.334470,-0.636954,0.298130,1.037864,0.154045
231,3230497444,-0.195686,0.648864,-0.329353,-0.657425,0.636009,0.796839,-2.071013
232,3230530778,-0.198870,0.633230,-0.317858,-0.677079,0.211677,1.830015,-2.582365
233,3230564112,-0.198268,0.627989,-0.303058,-0.688821,1.949514,-0.176731,-2.961854
234,3230597446,-0.197898,0.627354,-0.278961,-0.699602,1.593604,1.022124,-2.647113
235,3230630780,-0.197131,0.627133,-0.254488,-0.709280,0.400327,0.347004,-1.582267
236,3230664114,-0.192005,0.635895,-0.238450,-0.708458,0.159669,-0.124880,0.281042
237,3230697448,-0.184824,0.644888,-0.232733,-0.704126,-0.407705,-1.107127,2.878076
238,3230730782,-0.177558,0.646815,-0.234377,-0.703683,-0.439583,-1.260767,2.504095
239,3230764116,-0.165613,0.648596,-0.239063,-0.703380,-0.109229,-0.938776,2.164642
240,3230797450,-0.150595,0.649661,-0.243396,-0.704286,0.064522,-0.094971,1.583741
241,3230830784,-0.134795,0.649214,-0.244949,-0.707355,0.099696,0.608502,-0.163651
242,3230864118,-0.121908,0.645647,-0.242285,-0.713846,-0.714818,1.503800,-0.852716
243,3230897452,-0.121116,0.624915,-0.232252,-0.735439,-1.138041,2.529899,-0.021113
244,3230930786,-0.131528,0.586321,-0.215246,-0.769803,0.305108,1.580877,-1.965834
245,3230964120,-0.148506,0.528622,-0.187179,-0.814535,1.987703,0.520059,-1.929355
246,3230997454,-0.161960,0.465770,-0.150888,-0.856772,0.361999,0.626210,-4.598448
247,3231030788,-0.164363,0.432340,-0.118027,-0.878713,-1.728710,1.740944,-4.493518
248,3231064122,-0.161695,0.430969,-0.094990,-0.882665,-1.327777,2.304970,-2.445467
249,3231097456,-0.158375,0.450331,-0.081504,-0.874915,-0.790225,2.540549,-1.607781
250,3231130790,-0.156117,0.479887,-0.075158,-0.860050,-0.659636,3.470618,-1.469978
251,3231164124,-0.155744,0.515529,-0.071912,-0.839525,-1.260175,3.855622,-1.209498
252,3231197458,-0.161461,0.545058,-0.066911,-0.819978,-1.341974,3.701349,-1.178202
253,3231230792,-0.175296,0.563201,-0.058576,-0.805385,-1.071215,4.506708,-1.354259
254,3231264126,-0.196074,0.576605,-0.048797,-0.791644,-1.893422,4.594177,-0.921216
255,3231297460,-0.224293,0.591963,-0.040362,-0.773073,-1.770001,4.794842,-0.365395
256,3231330794,-0.260227,0.608446,-0.035381,-0.748881,-1.440438,4.514156,1.053873
257,3231364128,-0.303249,0.619970,-0.033189,-0.722893,-2.003440,3.161252,2.462407
258,3231397462,-0.353487,0.623793,-0.034293,-0.696241,-1.210861,2.993325,3.288470
259,3231430796,-0.407741,0.621421,-0.043712,-0.667587,-0.087681,2.067393,4.554427
260,3231464130,-0.461132,0.618829,-0.065319,-0.632567,0.640355,0.020784,4.511488
261,3231497464,-0.509254,0.612323,-0.095901,-0.597095,1.272483,-1.515068,4.896305
262,3231530798,-0.551389,0.596095,-0.128037,-0.569427,0.930147,-2.571548,3.077958
263,3231564132,-0.586304,0.576190,-0.159384,-0.546671,0.395268,-2.763110,1.531996
264,3231597466,-0.616106,0.553545,-0.187484,-0.528062,0.526880,-2.887448,0.610289
265,3231630800,-0.645176,0.524988,-0.206015,-0.515453,0.319657,-2.703561,-0.955958
266,3231664134,-0.673206,0.496584,-0.215926,-0.503561,0.157223,-2.410112,-3.204786
267,3231697468,-0.697481,0.476692,-0.220187,-0.487650,-0.705589,-2.018432,-3.708928
268,3231730802,-0.719950,0.463222,-0.213827,-0.470504,-0.395624,-1.722089,-2.555267
269,3231764136,-0.738586,0.458625,-0.202807,-0.450580,-0.409454,-1.521446,-3.101750
270,3231797470,-0.751900,0.464372,-0.191837,-0.426852,-0.221267,-1.615923,-1.347596
271,3231830804,-0.764451,0.470132,-0.170873,-0.406685,0.292967,-2.626315,1.081963
272,3231864138,-0.771022,0.478878,-0.154840,-0.390161,0.853531,-1.686006,0.754246
273,3231897472,-0.773586,0.488508,-0.143978,-0.377086,-0.147672,-3.012950,1.925322
274,3231930806,-0.772701,0.496378,-0.132877,-0.372671,0.398904,-2.932161,1.135684
275,3231964140,-0.768552,0.502868,-0.124933,-0.375290,-0.171091,-1.882062,1.351469
276,3231997474,-0.762318,0.507844,-0.122042,-0.382192,-0.357765,-1.806053,1.579373
277,3232030808,-0.754435,0.510395,-0.120597,-0.394690,-0.583558,-1.966423,1.679945
278,3232064142,-0.744150,0.510691,-0.119502,-0.413708,-0.619709,-2.228785,1.969054
279,3232097476,-0.731069,0.508205,-0.118966,-0.439446,-0.392480,-2.954559,2.140817
280,3232130810,-0.714681,0.502698,-0.118679,-0.471635,-0.467255,-3.105187,1.444655
281,3232164144,-0.693810,0.497174,-0.119179,-0.507190,-0.103520,-2.849442,0.174220
282,3232197478,-0.667695,0.493863,-0.121184,-0.543688,-0.039977,-2.791319,0.545906
283,3232230812,-0.636668,0.492312,-0.123464,-0.580550,-0.178576,-2.163201,-0.179071
284,3232264146,-0.600246,0.495504,-0.127676,-0.614718,0.113834,-2.552773,-1.117925
285,3232297480,-0.562124,0.497185,-0.126744,-0.648659,0.328644,-3.900457,-1.092814
286,3232330814,-0.522627,0.497038,-0.118598,-0.682458,1.182218,-3.730118,0.171367
287,3232364148,-0.479481,0.500653,-0.110969,-0.712130,1.803392,-3.239551,1.397656
288,3232397482,-0.430468,0.506698,-0.106628,-0.739313,2.685306,-3.422540,2.733816
289,3232430816,-0.371888,0.517512,-0.110426,-0.762684,3.174783,-1.943226,6.055932
290,3232464150,-0.306929,0.521737,-0.121317,-0.786681,2.651505,-0.830993,5.874035
291,3232497484,-0.235791,0.521558,-0.140201,-0.807912,2.001955,0.804158,5.518743
292,3232530818,-0.164465,0.515040,-0.165188,-0.824862,1.673513,3.103547,3.479881
293,3232564152,-0.095267,0.506586,-0.192355,-0.835041,2.165899,3.666233,1.648600
294,3232597486,-0.030745,0.496501,-0.217340,-0.839824,0.596921,4.975403,0.618711
295,3232630820,0.027081,0.485599,-0.241297,-0.839783,-0.192304,3.557992,-1.591081
296,3232664154,0.081793,0.487370,-0.260439,-0.829428,-2.055694,2.864937,-1.506002
297,3232697488,0.128208,0.496343,-0.276461,-0.812880,-1.806138,2.031060,-2.499187
298,3232730822,0.166145,0.508444,-0.289016,-0.793945,-0.787791,1.456192,-2.410722
299,3232764156,0.191985,0.517450,-0.297937,-0.778859,-0.594933,2.598988,-2.817182
300,3232797490,0.198052,0.510784,-0.307277,-0.778110,-1.890977,2.392224,-4.591196
301,3232830824,0.184682,0.484132,-0.317732,-0.794075,-0.187870,3.600705,-4.868169
302,3232864158,0.178711,0.474386,-0.313102,-0.803111,-1.694906,1.439748,-6.738492
303,3232897492,0.174619,0.478294,-0.293435,-0.809097,2.982666,-0.018517,-6.249354
304,3232930826,0.167191,0.464183,-0.274193,-0.825469,1.312889,2.319600,-2.719121
305,3232964160,0.161829,0.451774,-0.261147,-0.837564,-1.589687,0.606030,0.448637
306,3232997494,0.160295,0.451017,-0.254507,-0.840306,-0.815118,-1.491026,1.540440
307,3233030828,0.165948,0.465320,-0.248929,-0.833050,-0.158814,-0.629300,4.025642
308,3233064162,0.173738,0.478562,-0.247029,-0.824481,0.172405,-0.175547,4.341912
309,3233097496,0.182572,0.487573,-0.251105,-0.816018,-0.616377,0.224491,3.976524
310,3233130830,0.193462,0.497464,-0.257692,-0.805417,-0.131895,-0.299553,2.749448
311,3233164164,0.203906,0.504633,-0.265010,-0.795950,-0.251174,0.077209,1.192061
312,3233197498,0.209848,0.504516,-0.274685,-0.791186,0.014654,0.125641,-0.157713
313,3233230832,0.212764,0.503509,-0.285127,-0.787345,-0.282235,-0.575258,-2.161127
314,3233264166,0.215564,0.508997,-0.292266,-0.780406,-0.171226,-0.526457,-3.406979
315,3233297500,0.219170,0.519023,-0.292910,-0.772517,-1.191487,0.302545,-3.886430
316,3233330834,0.210722,0.512810,-0.294747,-0.778296,-5.241747,4.172580,-0.594990
317,3233364168,0.196658,0.490770,-0.290769,-0.797448,1.008185,-2.364869,-3.248254
318,3233397502,0.193351,0.496220,-0.266791,-0.803245,1.998296,0.329589,0.310023
319,3233430836,0.189456,0.481835,-0.257141,-0.815978,1.516226,0.448312,2.513958
320,3233464170,0.192171,0.478495,-0.258926,-0.816743,-1.277172,-1.816828,2.308503
321,3233497504,0.202425,0.500522,-0.263271,-0.799493,-0.190538,-0.821394,2.417684
322,3233530838,0.215099,0.528563,-0.267083,-0.776543,1.002287,0.036462,1.427138
323,3233564172,0.221191,0.543846,-0.272148,-0.762391,-0.824247,0.202429,-0.166803
324,3233597506,0.214406,0.540564,-0.279768,-0.763904,-1.576154,0.953780,-1.870576
325,3233630840,0.197318,0.519061,-0.284196,-0.781584,-2.689086,2.572066,-1.717164
326,3233664174,0.182855,0.499518,-0.281405,-0.798659,-0.874812,0.602261,-2.619401
327,3233697508,0.178996,0.495295,-0.265317,-0.807620,0.935641,-0.493837,-2.921872
328,3233730842,0.177948,0.475803,-0.260380,-0.821065,0.444332,1.380079,-3.029960
329,3233764176,0.194563,0.489710,-0.263345,-0.808071,-2.263408,-0.744238,-0.645288
330,3233797510,0.213409,0.521639,-0.269943,-0.780691,-2.144702,-0.048337,0.811542
331,3233830844,0.220339,0.542015,-0.282288,-0.760252,-3.547026,0.909515,1.886827
332,3233864178,0.200995,0.527370,-0.304987,-0.767114,-1.984847,0.218646,-0.956504
333,3233897512,0.172985,0.505614,-0.320577,-0.782087,-0.209807,0.338307,-2.323543
334,3233930846,0.149613,0.488094,-0.322837,-0.796966,-0.306751,2.214053,-1.598530
335,3233964180,0.123759,0.453698,-0.318834,-0.822913,-1.009193,3.553864,-2.834054
336,3233997514,0.106197,0.423158,-0.309234,-0.845005,-0.715008,0.759878,-5.067397
337,3234030848,0.100186,0.414844,-0.291038,-0.856249,-0.243564,3.031724,-4.726331
338,3234064182,0.091977,0.402415,-0.278954,-0.867056,-0.717655,5.635389,-5.110487
339,3234097516,0.078708,0.399197,-0.276292,-0.870694,-0.835074,3.852319,-5.358685
340,3234130850,0.055667,0.406019,-0.278674,-0.868556,-0.748610,4.390358,-5.778797
341,3234164184,0.018349,0.426441,-0.284404,-0.858443,0.348463,3.508127,-5.094533
342,3234197518,-0.034381,0.463987,-0.288585,-0.836811,1.058450,4.484655,-3.402570
343,3234230852,-0.106385,0.503832,-0.290234,-0.806597,2.235659,4.916496,-0.264933
344,3234264186,-0.197878,0.532801,-0.284765,-0.771930,3.135848,3.759737,2.447528
345,3234297520,-0.300986,0.539659,-0.265234,-0.740152,3.596574,3.124112,6.167137
346,3234330854,-0.394370,0.557610,-0.247758,-0.687138,2.558667,1.377726,1.005024
347,3234364188,-0.456707,0.617192,-0.266602,-0.582594,2.328998,-3.866897,6.692696
348,3234397522,-0.528082,0.630821,-0.272036,-0.499189,0.653829,-5.684500,9.043108
349,3234430856,-0.609672,0.600742,-0.245564,-0.455090,0.259419,-2.756670,7.093452
350,3234464190,-0.673914,0.569396,-0.210858,-0.420912,-0.106684,-4.480372,2.061172
351,3234497524,-0.710455,0.561890,-0.199165,-0.373986,-0.783674,-6.139237,2.989708
352,3234530858,-0.736045,0.557434,-0.190338,-0.333580,-1.039924,-6.327418,2.677284
353,3234564192,-0.752441,0.552850,-0.182171,-0.308223,-0.868660,-6.482387,3.304747
354,3234597526,-0.757553,0.551208,-0.184217,-0.297231,-1.480451,-5.746476,1.937350
355,3234630860,-0.755654,0.551315,-0.185210,-0.301224,-1.070703,-4.691251,0.944473
356,3234664194,-0.747485,0.555310,-0.183452,-0.315027,-0.110151,-4.560282,-0.022074
357,3234697528,-0.732209,0.564748,-0.181321,-0.334742,0.747196,-4.918623,-0.101584
358,3234730862,-0.712413,0.576950,-0.175071,-0.359091,1.269788,-3.106013,0.372614
359,3234764196,-0.686224,0.593572,-0.179421,-0.380232,1.871474,-1.385606,0.391350
360,3234797530,-0.652151,0.617384,-0.199840,-0.391919,0.826201,-0.812777,0.778076
361,3234830864,-0.614316,0.643228,-0.223903,-0.398423,-0.148345,-0.651361,0.502834
362,3234864198,-0.576847,0.666661,-0.245328,-0.403268,0.242073,-0.847863,-0.137902
363,3234897532,-0.540077,0.688803,-0.264222,-0.405035,-0.082313,-0.206166,-0.138986
364,3234930866,-0.505266,0.709260,-0.279142,-0.404641,0.253602,0.203626,-0.115208
365,3234964200,-0.472227,0.728031,-0.292098,-0.402059,-0.026176,0.616831,0.254349
366,3234997534,-0.446747,0.739794,-0.296907,-0.406161,-0.115834,0.923628,0.367792
367,3235030868,-0.426163,0.747006,-0.297411,-0.414625,0.424394,1.151468,0.257441
368,3235064202,-0.407476,0.753102,-0.298051,-0.421860,0.349188,1.499398,-0.295180
369,3235097536,-0.391578,0.757877,-0.299460,-0.427332,0.498066,1.320024,-0.572984
370,3235130870,-0.375371,0.764516,-0.304754,-0.426305,0.615204,1.051598,-0.355843
371,3235164204,-0.361950,0.770090,-0.310163,-0.423972,0.118496,1.018373,-0.192987
372,3235197538,-0.354753,0.770536,-0.312196,-0.427735,0.250366,0.964416,-0.213503
373,3235230872,-0.350096,0.768951,-0.313397,-0.433507,0.538080,0.834841,-0.455966
374,3235264206,-0.345202,0.768822,-0.315344,-0.436241,0.371939,0.880570,-0.673970
375,3235297540,-0.340880,0.769596,-0.317504,-0.436707,0.238395,0.954774,-0.481258
376,3235330874,-0.335626,0.772583,-0.321498,-0.432561,0.617691,0.596328,-0.717962
377,3235364208,-0.327936,0.778736,-0.328706,-0.421876,-0.166758,1.053859,-0.457666
378,3235397542,-0.325016,0.780284,-0.334390,-0.416779,-0.217934,0.978115,-0.018740
379,3235430876,-0.326435,0.776988,-0.338973,-0.418123,0.082102,0.865607,-0.423728
380,3235464210,-0.328649,0.773501,-0.345298,-0.417679,0.097161,0.916913,-0.758280
381,3235497544,-0.331162,0.771063,-0.352571,-0.414110,0.021922,0.805274,-0.611809
382,3235530878,-0.334222,0.769027,-0.358630,-0.410216,-0.135032,0.865986,-0.265841
383,3235564212,-0.337514,0.767243,-0.363127,-0.406891,-0.297345,1.011970,-0.123617
384,3235597546,-0.341370,0.765246,-0.366736,-0.404189,-0.347065,1.034688,0.045998
385,3235630880,-0.346261,0.761926,-0.370714,-0.402668,-0.274402,1.230846,-0.116928
386,3235664214,-0.352007,0.757283,-0.376733,-0.400855,-0.196958,1.299754,-0.240849
387,3235697548,-0.358007,0.752325,-0.385000,-0.397005,-0.032120,1.323661,-0.265245
388,3235730882,-0.364269,0.747380,-0.394383,-0.391398,-0.121071,1.428977,-0.390047
389,3235764216,-0.370584,0.742555,-0.404368,-0.384403,-0.304516,1.345254,-0.249488
390,3235797550,-0.378112,0.736604,-0.413548,-0.378713,-0.327151,1.286239,-0.165470
391,3235830884,-0.386651,0.729308,-0.422979,-0.373763,-0.183471,1.307028,-0.155646
392,3235864218,-0.394207,0.721641,-0.434751,-0.367187,0.029640,1.205136,-0.054797
393,3235897552,-0.401490,0.713121,-0.447733,-0.360276,-0.097898,1.460222,-0.065454
394,3235930886,-0.409283,0.703547,-0.461178,-0.353303,-0.039527,1.129244,-0.447078
395,3235964220,-0.416777,0.694018,-0.475032,-0.344933,0.054676,0.991117,-0.723718
396,3235997554,-0.424247,0.684913,-0.488583,-0.334955,0.138514,0.792796,-0.690200
397,3236030888,-0.432611,0.675929,-0.500723,-0.324412,0.257073,0.465290,-0.433963
398,3236064222,-0.439359,0.668003,-0.513322,-0.311828,0.267081,0.341689,-0.146959
399,3236097556,-0.445214,0.659738,-0.526647,-0.298616,0.163867,0.213557,0.271294
400,3236130890,-0.452464,0.649415,-0.539086,-0.287962,0.130058,0.013213,0.117225
401,3236164224,-0.462198,0.637081,-0.549495,-0.280278,0.140057,-0.148497,-0.247859
402,3236197558,-0.475752,0.623552,-0.556245,-0.274653,0.209325,-0.214242,-1.225046
403,3236230892,-0.493397,0.611028,-0.558370,-0.267256,0.270887,0.194377,-2.979028
404,3236264226,-0.522392,0.598313,-0.549757,-0.258641,0.451984,0.302098,-2.952399
405,3236297560,-0.560661,0.587184,-0.528170,-0.248818,1.197045,-1.131128,-2.629577
406,3236330894,-0.591992,0.584670,-0.505365,-0.228719,1.780355,-0.504826,-0.865567
407,3236364228,-0.611463,0.589374,-0.487643,-0.202372,1.006535,-3.118062,1.771524
408,3236397562,-0.625978,0.596172,-0.466609,-0.187097,-0.829790,-3.187279,4.057044
409,3236430896,-0.644743,0.599088,-0.433564,-0.193444,-0.817979,-2.754048,2.320469
410,3236464230,-0.653281,0.602354,-0.409677,-0.206293,-1.817114,-3.241303,2.751226
411,3236497564,-0.655872,0.603170,-0.391643,-0.229419,-2.774646,-2.246982,4.067223
412,3236530898,-0.656397,0.597468,-0.375707,-0.266493,-3.209048,-3.158347,4.546048
413,3236564232,-0.647385,0.587873,-0.369946,-0.313747,-2.919546,-2.626230,3.890378
414,3236597566,-0.623666,0.579699,-0.379158,-0.362255,-2.645240,-2.437808,0.750151
415,3236630900,-0.580216,0.581531,-0.402794,-0.403642,-2.217280,-2.478758,0.557304
416,3236664234,-0.526011,0.589557,-0.426145,-0.440608,-2.061660,-2.368305,-0.278452
417,3236697568,-0.466290,0.603073,-0.445859,-0.469133,-1.412280,-1.845029,0.299309
418,3236730902,-0.413415,0.612809,-0.458028,-0.493723,-0.657738,-0.672000,1.439506
419,3236764236,-0.375855,0.612385,-0.462490,-0.519442,0.352142,-0.739157,-0.732290
420,3236797570,-0.341131,0.614533,-0.469898,-0.534017,2.054268,1.063836,-1.300017
421,3236830904,-0.326159,0.607746,-0.465796,-0.554345,3.222133,1.922655,-1.530152
422,3236864238,-0.347965,0.574433,-0.432803,-0.601355,4.098311,3.931614,0.080923
423,3236897572,-0.371986,0.540765,-0.387275,-0.647470,4.891251,1.784725,-6.087456
424,3236930906,-0.371117,0.545777,-0.355194,-0.661994,4.372818,0.401605,-5.896292
425,3236964240,-0.366890,0.553584,-0.329177,-0.671251,2.362935,1.159479,1.096435
426,3236997574,-0.366245,0.551450,-0.313875,-0.680624,-0.430197,0.730893,0.419450
427,3237030908,-0.361141,0.552738,-0.317118,-0.680804,-0.652481,0.033070,1.347790
428,3237064242,-0.352550,0.555931,-0.333654,-0.674777,-0.617707,0.172484,1.268477
429,3237097576,-0.343913,0.557684,-0.352444,-0.668203,0.672017,-0.841568,-0.379381
430,3237130910,-0.342633,0.552423,-0.359519,-0.669461,0.836798,1.077242,-0.400373
431,3237164244,-0.356902,0.531617,-0.346383,-0.685582,0.925598,0.323220,-1.080595
432,3237197578,-0.369394,0.519563,-0.323435,-0.699279,0.619973,1.464715,-2.615139
433,3237230912,-0.372852,0.523110,-0.305958,-0.702657,0.533867,0.427543,-1.291970
434,3237264246,-0.369157,0.534393,-0.296335,-0.700237,1.319136,-0.792580,1.739212
435,3237297580,-0.361593,0.534553,-0.300388,-0.702332,0.078471,0.257230,3.892739
436,3237330914,-0.347583,0.534964,-0.324296,-0.698449,-0.550448,1.032959,1.984227
437,3237364248,-0.331977,0.533074,-0.356263,-0.691882,-0.246347,1.525038,0.487576
438,3237397582,-0.325085,0.518555,-0.378544,-0.694351,1.000229,1.782265,-1.125594
439,3237430916,-0.329612,0.493286,-0.387430,-0.705636,0.817723,2.868809,-3.749657
440,3237464250,-0.340507,0.467940,-0.388790,-0.716888,1.098266,3.264655,-4.706159
441,3237497584,-0.355260,0.446506,-0.385882,-0.724925,1.182131,3.601253,-5.809577
442,3237530918,-0.372316,0.432601,-0.381560,-0.727083,1.475153,3.742622,-5.443920
443,3237564252,-0.391507,0.426695,-0.378214,-0.722224,2.379626,3.889250,-4.896218
444,3237597586,-0.412035,0.429523,-0.375474,-0.710462,2.043727,2.638176,-3.634776
445,3237630920,-0.438914,0.437801,-0.370961,-0.691428,2.502537,2.858944,-2.883108
446,3237664254,-0.473153,0.449633,-0.364110,-0.664364,0.935435,0.929205,-1.729711
447,3237697588,-0.516489,0.461857,-0.351020,-0.629851,0.947214,0.820525,-0.967525
448,3237730922,-0.566099,0.474976,-0.331427,-0.586588,0.325626,-1.969591,-0.302759
449,3237764256,-0.614384,0.493203,-0.301034,-0.537271,-1.267944,-1.644922,-1.735765
450,3237797590,-0.658132,0.517235,-0.263041,-0.479727,-1.181020,-1.281312,0.219439
451,3237830924,-0.692168,0.544799,-0.226672,-0.415592,0.177689,-1.442334,4.953097
452,3237864258,-0.717969,0.564189,-0.194986,-0.358038,-1.440691,-4.081421,8.223291
453,3237897592,-0.739446,0.566117,-0.148856,-0.332525,-4.594133,-6.135668,8.432211
454,3237930926,-0.751681,0.559005,-0.097688,-0.336074,-3.303426,-2.935436,4.974357
455,3237964260,-0.751844,0.557731,-0.077394,-0.343039,-2.906804,-1.609256,2.766200
456,3237997594,-0.744971,0.560760,-0.083189,-0.351632,-4.107655,-2.780501,3.196185
457,3238030928,-0.736496,0.557330,-0.091345,-0.372307,-3.937389,-2.929760,3.352901
458,3238064262,-0.727850,0.544704,-0.097134,-0.405088,-2.305378,-2.629615,2.728185
459,3238097596,-0.716492,0.525545,-0.102159,-0.447218,-0.635680,-2.529451,3.256982
460,3238130930,-0.699400,0.504898,-0.113326,-0.493026,0.628962,-1.491682,1.974117
461,3238164264,-0.673276,0.493318,-0.138473,-0.533068,1.124053,-1.749865,0.734988
462,3238197598,-0.637902,0.491549,-0.169864,-0.567985,0.809842,-2.605401,-0.021249
463,3238230932,-0.596999,0.493861,-0.193672,-0.601817,0.416709,-1.951882,-1.589417
464,3238264266,-0.552564,0.504387,-0.212363,-0.628624,0.182238,-1.839089,-3.080723
465,3238297600,-0.507077,0.527737,-0.226926,-0.642550,0.012567,-1.607780,-4.501472
466,3238330934,-0.465310,0.561994,-0.235994,-0.641837,1.486823,-2.224119,-4.691100
467,3238364268,-0.431013,0.601533,-0.236731,-0.629558,1.591864,-0.967719,-3.674193
468,3238397602,-0.413504,0.630268,-0.221671,-0.618577,1.869918,1.431806,-2.928958
469,3238430936,-0.411962,0.642598,-0.188139,-0.618027,0.453482,3.059528,1.608611
470,3238464270,-0.424091,0.622538,-0.129757,-0.644791,1.633875,4.187612,-0.160242
471,3238497604,-0.421270,0.626098,-0.086249,-0.650456,3.547077,2.385843,-3.681135
472,3238530938,-0.413780,0.638310,-0.055482,-0.646736,2.236393,0.946577,2.575739
473,3238564272,-0.404747,0.639459,-0.040744,-0.652389,0.195362,1.056215,0.139903
474,3238597606,-0.399278,0.652263,-0.045949,-0.642664,-1.336018,1.948949,-1.073656
475,3238630940,-0.398781,0.669634,-0.057112,-0.623940,-1.415592,1.378032,2.058264
476,3238664274,-0.403308,0.669535,-0.054151,-0.621396,0.177943,1.279637,1.204043
477,3238697608,-0.411757,0.658353,-0.038739,-0.628908,0.076524,2.895187,0.181795
478,3238730942,-0.418173,0.649315,-0.020926,-0.634888,0.989992,2.919905,-0.550078
479,3238764276,-0.419051,0.641089,-0.001165,-0.642962,0.800153,2.887517,0.030458
480,3238797610,-0.416974,0.632596,0.012676,-0.652528,-0.534418,3.991510,0.753011
481,3238830944,-0.413330,0.631971,0.013561,-0.655428,-0.841026,4.307786,0.092965
482,3238864278,-0.408854,0.640429,0.002859,-0.650139,-0.610334,4.096560,0.710649
483,3238897612,-0.405639,0.646700,-0.013730,-0.645791,-0.368575,4.145205,1.317024
484,3238930946,-0.405501,0.646434,-0.036003,-0.645287,0.105873,4.843463,1.306615
485,3238964280,-0.409060,0.641515,-0.064993,-0.645681,0.979526,5.390635,0.816322
486,3238997614,-0.417989,0.637191,-0.097900,-0.640068,0.947954,4.306374,-1.276060
487,3239030948,-0.434980,0.637916,-0.130632,-0.621925,0.144052,2.847341,-2.121835
488,3239064282,-0.462519,0.641503,-0.159588,-0.590831,0.160910,1.303716,-1.934389
489,3239097616,-0.500555,0.642860,-0.182483,-0.550342,0.556898,-0.072815,-1.065491
490,3239130950,-0.546934,0.636617,-0.195430,-0.507335,-0.196559,-1.977525,-1.091227
491,3239164284,-0.597337,0.620730,-0.188389,-0.471584,-0.254845,-4.401929,-0.487069
492,3239197618,-0.647841,0.595139,-0.151293,-0.450800,-1.957266,-8.112473,4.241613
493,3239230952,-0.690683,0.545638,-0.073706,-0.468832,-1.589898,-9.589706,1.481171
494,3239264286,-0.706122,0.513838,-0.012571,-0.487036,-0.182927,-5.779101,1.051879
495,3239297620,-0.702808,0.500271,0.016107,-0.505499,-1.143090,-5.440331,1.212680
496,3239330954,-0.688422,0.497512,0.020880,-0.527371,-2.110089,-6.159525,1.022898
497,3239364288,-0.669079,0.489052,0.023879,-0.559098,-1.277820,-5.244654,1.042529
498,3239397622,-0.644606,0.478080,0.023996,-0.596109,-0.896507,-4.046287,0.510561
499,3239430956,-0.611207,0.475332,0.015202,-0.632656,0.380304,-4.037055,1.393816
500,3239464290,-0.564985,0.481554,0.002001,-0.669995,1.759124,-4.105203,1.502010
501,3239497624,-0.505584,0.491921,-0.009902,-0.708731,1.770041,-2.930425,3.108304
502,3239530958,-0.437003,0.499864,-0.021823,-0.747454,1.153686,-1.946992,2.673269
503,3239564292,-0.361103,0.519065,-0.040724,-0.773638,1.326619,-2.800699,2.063567
504,3239597626,-0.276291,0.551958,-0.064025,-0.784159,2.751187,-3.762883,4.916029
505,3239630960,-0.184565,0.568267,-0.081869,-0.797687,3.783741,-2.350182,6.215973
506,3239664294,-0.088904,0.571370,-0.098660,-0.809875,3.446226,0.643784,4.780982
507,3239697628,0.006174,0.572332,-0.117330,-0.811561,1.411720,3.529899,2.695683
508,3239730962,0.092344,0.573943,-0.136250,-0.802183,0.730923,5.252388,0.014740
509,3239764296,0.162165,0.571589,-0.153731,-0.789528,-0.822580,5.629599,-1.867577
510,3239797630,0.213852,0.567867,-0.169766,-0.776513,-2.510757,4.716757,-3.484170
511,3239830964,0.248811,0.565534,-0.184122,-0.764436,-2.296438,3.477472,-5.037944
512,3239864298,0.270637,0.566720,-0.192770,-0.753938,-2.331581,2.802690,-5.868209
513,3239897632,0.277223,0.559214,-0.197016,-0.756050,-2.687542,2.776406,-4.950147
514,3239930966,0.268352,0.535900,-0.201333,-0.774766,-2.465418,2.310033,-5.800957
515,3239964300,0.259294,0.520939,-0.195596,-0.789386,0.234448,-0.474609,-5.786440
516,3239997634,0.253100,0.518560,-0.182065,-0.796171,-1.117878,1.507597,-1.330791
517,3240030968,0.245218,0.517505,-0.176109,-0.800650,0.138402,0.225886,0.442802
518,3240064302,0.241560,0.521639,-0.175648,-0.799180,0.455030,0.123210,2.098012
519,3240097636,0.242838,0.529913,-0.178728,-0.792639,0.199214,0.321894,2.834431
520,3240130970,0.246368,0.533822,-0.185685,-0.787310,-0.327909,0.843002,2.827903
521,3240164304,0.251767,0.533161,-0.194640,-0.783880,-0.446133,0.153384,1.788753
522,3240197638,0.256165,0.527723,-0.204406,-0.783649,-0.487536,0.012386,0.607174
523,3240230972,0.256773,0.516998,-0.215044,-0.787741,-0.086011,-1.051763,-0.397549
524,3240264306,0.251539,0.500762,-0.224339,-0.797269,-0.353155,-0.750393,-1.295342
525,3240297640,0.228326,0.456178,-0.239763,-0.826003,-0.661604,1.808285,-0.426429
526,3240330974,0.206087,0.415601,-0.247211,-0.850700,-1.444535,-2.437330,-4.940033
527,3240364308,0.199219,0.422178,-0.232453,-0.853254,0.787248,-2.221369,-4.082880
528,3240397642,0.191315,0.420781,-0.221112,-0.858750,-0.050513,2.127480,0.136142
529,3240430976,0.180535,0.414219,-0.224190,-0.863463,-2.339103,-0.267958,-0.381731
530,3240464310,0.174221,0.429994,-0.228988,-0.855754,-1.081975,-0.320642,-1.750356
531,3240497644,0.172251,0.456447,-0.228040,-0.842605,-0.422309,2.558399,-1.330489
532,3240530978,0.161679,0.456253,-0.226291,-0.845272,-0.824147,2.379248,-3.681088
533,3240564312,0.147362,0.444735,-0.219213,-0.855827,-2.108226,2.586103,-4.243533
534,3240597646,0.129693,0.434835,-0.209353,-0.866181,-2.182139,3.305827,-4.091969
535,3240630980,0.104508,0.425527,-0.200696,-0.876199,-1.885305,2.715539,-3.332562
536,3240664314,0.072567,0.425874,-0.196008,-0.880310,-2.189674,2.916377,-2.939847
537,3240697648,0.035267,0.444920,-0.194672,-0.873444,-1.422304,1.815505,-1.014065
538,3240730982,-0.006504,0.477750,-0.196868,-0.856128,0.273989,4.616399,-0.372539
539,3240764316,-0.048391,0.516510,-0.204556,-0.830079,0.995772,2.530513,1.054952
540,3240797650,-0.089245,0.559291,-0.213540,-0.796008,2.205644,3.047981,1.761236
541,3240830984,-0.130495,0.594483,-0.225131,-0.760839,1.280493,3.336578,2.084712
542,3240864318,-0.175910,0.620022,-0.240527,-0.725792,1.390514,1.796013,1.469208
543,3240897652,-0.224774,0.639355,-0.258170,-0.688512,2.273403,1.980561,0.634002
544,3240930986,-0.276845,0.650587,-0.275724,-0.651206,0.503280,0.270645,1.590250
545,3240964320,-0.338516,0.645597,-0.285810,-0.622031,0.154422,0.038246,1.453171
546,3240997654,-0.406326,0.630634,-0.288203,-0.595095,1.285623,-0.109024,-0.180885
547,3241030988,-0.467474,0.623282,-0.290862,-0.555324,0.080197,-1.403351,0.537100
548,3241064322,-0.526279,0.615938,-0.287650,-0.510791,-0.583758,-0.452056,1.743971
549,3241097656,-0.586453,0.601865,-0.273190,-0.468185,1.398094,-2.108027,0.822550
550,3241130990,-0.636303,0.591656,-0.260532,-0.420933,1.235197,-2.773532,1.696439
551,3241164324,-0.678558,0.582365,-0.243409,-0.375715,0.586142,-2.873055,1.437124
552,3241197658,-0.718393,0.571526,-0.211129,-0.335698,1.109497,-1.360960,1.282325
553,3241230992,-0.745488,0.568471,-0.180277,-0.297637,-0.100764,-4.600780,2.422975
554,3241264326,-0.759986,0.572943,-0.150962,-0.267147,-0.332160,-5.327769,3.322605
555,3241297660,-0.765685,0.574703,-0.126092,-0.259890,-0.473900,-5.078814,2.006177
556,3241330994,-0.761553,0.577078,-0.121833,-0.268653,-1.819559,-4.779381,2.012199
557,3241364328,-0.749543,0.580481,-0.127250,-0.291606,-3.330503,-5.707845,3.133167
558,3241397662,-0.731018,0.583217,-0.138858,-0.325866,-3.022636,-3.389384,3.864038
559,3241430996,-0.706692,0.582764,-0.163877,-0.366219,-2.950066,-3.210491,5.392732
560,3241464330,-0.677130,0.573999,-0.192949,-0.418080,-1.466162,-2.388519,5.263398
561,3241497664,-0.638872,0.559950,-0.231067,-0.474241,-1.304230,-1.609943,5.638644
562,3241530998,-0.592035,0.538657,-0.272249,-0.534063,0.196265,-1.485467,5.381552
563,3241564332,-0.536128,0.511878,-0.313098,-0.593731,1.483076,-0.645144,4.588574
564,3241597666,-0.472674,0.479103,-0.350911,-0.651076,1.798656,0.105754,2.701836
565,3241631000,-0.406404,0.438805,-0.381464,-0.704820,2.037651,0.703786,1.464752
566,3241664334,-0.342763,0.393086,-0.403069,-0.752018,2.246101,0.958518,-0.546216
567,3241697668,-0.286301,0.345367,-0.417263,-0.790344,2.337253,0.744227,-1.985960
568,3241731002,-0.237562,0.304074,-0.427543,-0.817502,2.052604,1.010095,-3.159372
569,3241764336,-0.194163,0.277799,-0.436122,-0.833622,0.490810,-0.096902,-4.001117
570,3241797670,-0.153926,0.271539,-0.443827,-0.839994,1.267640,0.036390,-3.762554
571,3241831004,-0.125321,0.268159,-0.447384,-0.843939,1.593815,0.931634,-2.345588
572,3241864338,-0.115495,0.251562,-0.447311,-0.850464,1.563144,0.153855,-3.169750
573,3241897672,-0.111965,0.233623,-0.445020,-0.857228,1.182258,0.065109,-3.375501
574,3241931006,-0.110272,0.222892,-0.443376,-0.861148,2.310219,1.166337,-3.210951
575,3241964340,-0.108736,0.218038,-0.440855,-0.863876,2.135791,1.107349,-3.386663
576,3241997674,-0.098420,0.226716,-0.438457,-0.864100,1.225758,1.457660,-1.932181
577,3242031008,-0.085451,0.235947,-0.432477,-0.866020,1.910084,-2.018648,-1.211430
578,3242064342,-0.078945,0.228762,-0.428671,-0.870446,1.216064,2.780296,2.335120
579,3242097676,-0.074593,0.215638,-0.436992,-0.870042,-1.364439,0.927624,1.297682
580,3242131010,-0.060829,0.222452,-0.451070,-0.862178,0.534747,0.120494,0.591155
581,3242164344,-0.054936,0.220340,-0.463498,-0.856505,0.383620,1.997102,-0.388540
582,3242197678,-0.054933,0.213550,-0.475214,-0.851792,-0.829246,0.414820,-2.869387
583,3242231012,-0.041773,0.227323,-0.482958,-0.844589,0.959852,-0.476955,-3.267845
584,3242264346,-0.032520,0.237837,-0.487805,-0.839298,1.069349,2.104614,-3.355559
585,3242297680,-0.037086,0.230383,-0.490979,-0.839337,-0.086515,0.757546,-3.572358
586,3242331014,-0.045380,0.221369,-0.491123,-0.841269,-0.402692,0.221121,-3.016913
587,3242364348,-0.054949,0.218843,-0.491222,-0.841302,-1.543505,-0.520010,-2.056646
588,3242397682,-0.060462,0.229866,-0.492024,-0.837507,-1.284147,-0.020248,-0.610031
589,3242431016,-0.066106,0.246606,-0.493597,-0.831370,-0.805220,0.039971,-0.293693
590,3242464350,-0.072146,0.263828,-0.497097,-0.823458,0.281794,0.995277,0.785026
591,3242497684,-0.079049,0.278337,-0.502002,-0.815030,0.325540,0.782804,0.451581
592,3242531018,-0.088852,0.286446,-0.504244,-0.809810,0.361314,0.899068,-0.088929
593,3242564352,-0.099483,0.294114,-0.505614,-0.804956,-0.321781,1.722318,-2.302680
594,3242597686,-0.111645,0.304792,-0.505838,-0.799227,0.103733,0.647012,-2.652469
595,3242631020,-0.127867,0.316234,-0.502195,-0.794635,-0.108520,1.314609,-2.985547
596,3242664354,-0.149218,0.329567,-0.496839,-0.788841,0.252163,1.351267,-4.207385
597,3242697688,-0.174933,0.348447,-0.490203,-0.779541,-0.437564,0.390259,-2.285112
598,3242731022,-0.204722,0.373860,-0.484154,-0.764141,0.233450,0.754240,-2.859061
599,3242764356,-0.239953,0.402939,-0.479696,-0.741589,0.800903,1.927333,-1.589367
600,3242797690,-0.294298,0.418060,-0.469479,-0.719864,-0.698226,2.155494,0.183945
601,3242831024,-0.367910,0.419504,-0.451166,-0.696497,0.654841,2.850649,0.572481
602,3242864358,-0.444057,0.423064,-0.427735,-0.663982,-2.118017,0.381774,-0.109430
603,3242897692,-0.511387,0.442488,-0.402795,-0.616800,-2.607362,1.510659,-0.340757
604,3242931026,-0.568274,0.471255,-0.379936,-0.557344,0.909152,0.912702,1.877260
605,3242964360,-0.608218,0.506663,-0.368127,-0.487694,0.352333,0.263104,4.169441
606,3242997694,-0.646659,0.527607,-0.353535,-0.422464,0.237284,-0.736506,6.852041
607,3243031028,-0.682249,0.533217,-0.331541,-0.374561,-1.014451,-2.338152,6.660189
608,3243064362,-0.706767,0.537228,-0.314201,-0.336368,-0.998495,-3.438507,3.869485
609,3243097696,-0.715773,0.544602,-0.311060,-0.307114,-0.620262,-4.094865,5.390927
610,3243131030,-0.719715,0.542799,-0.308303,-0.303854,-1.698049,-3.728296,4.386492
611,3243164364,-0.720018,0.534498,-0.304059,-0.321611,-2.144139,-2.950659,3.446198
612,3243197698,-0.713123,0.525303,-0.308484,-0.346914,-2.375626,-2.574448,2.825136
613,3243231032,-0.695054,0.519376,-0.327076,-0.374391,-2.541766,-3.056486,3.977103
614,3243264366,-0.669257,0.510168,-0.350038,-0.411457,-2.215632,-3.013087,5.110390
615,3243297700,-0.634841,0.495183,-0.376457,-0.458311,-1.303452,-1.944615,6.139256
616,3243331034,-0.589913,0.475293,-0.405097,-0.511853,-0.422777,-1.069462,5.270636
617,3243364368,-0.535193,0.452581,-0.432757,-0.566974,-0.207083,0.245573,2.781164
618,3243397702,-0.480196,0.425096,-0.452926,-0.619325,-0.533541,1.906484,0.566368
619,3243431036,-0.434150,0.391815,-0.464872,-0.664747,-0.607820,2.652312,-1.694737
620,3243464370,-0.397465,0.359696,-0.474074,-0.698494,-0.548527,2.044028,-3.600016
621,3243497704,-0.364981,0.342107,-0.489135,-0.714492,-1.387938,1.427154,-5.798128
622,3243531038,-0.334898,0.344662,-0.510852,-0.712797,-0.962085,1.012542,-5.785149
623,3243564372,-0.312224,0.358554,-0.533955,-0.699176,0.344629,1.587769,-5.750938
624,3243597706,-0.299919,0.377610,-0.551421,-0.680730,1.227239,2.193737,-5.337490
625,3243631040,-0.321427,0.377964,-0.546936,-0.674306,3.696106,4.569403,-3.297317
626,3243664374,-0.369535,0.354112,-0.517523,-0.685724,4.418601,0.931252,-4.043377
627,3243697708,-0.418981,0.326850,-0.471161,-0.704011,4.267129,1.179112,-2.833329
628,3243731042,-0.455105,0.306989,-0.426008,-0.719134,0.607896,-1.163494,-4.718049
629,3243764376,-0.475267,0.299961,-0.396945,-0.725657,-1.020327,1.608291,-2.704390
630,3243797710,-0.479247,0.314140,-0.401152,-0.714643,-2.919209,1.177137,-0.381403
631,3243831044,-0.461023,0.359085,-0.434067,-0.685639,-1.334466,-1.175828,0.160164
632,3243864378,-0.433953,0.412887,-0.469224,-0.648874,1.461648,2.183833,6.877857
633,3243897712,-0.452128,0.408759,-0.461373,-0.644694,1.663268,-0.213255,2.768760
634,3243931046,-0.464099,0.406280,-0.448498,-0.646836,1.234789,0.377221,-2.986675
635,3243964380,-0.463024,0.415877,-0.450571,-0.640031,2.148310,1.150666,-0.534319
636,3243997714,-0.463389,0.420662,-0.459775,-0.630016,1.965487,1.133595,-2.262028
637,3244031048,-0.475198,0.417179,-0.454693,-0.627217,1.262255,0.467908,-0.855102
638,3244064382,-0.498254,0.407216,-0.432436,-0.631598,1.077259,0.935483,-3.325830
639,3244097716,-0.518251,0.409138,-0.411228,-0.628421,1.498372,1.008949,-4.925507
640,3244131050,-0.533454,0.424880,-0.397621,-0.613841,1.905203,0.824944,-3.000651
641,3244164384,-0.549669,0.445790,-0.386580,-0.591347,2.014397,1.405404,-2.570335
642,3244197718,-0.567139,0.470474,-0.379700,-0.559317,1.828682,1.611327,-1.403867
643,3244231052,-0.583684,0.498572,-0.374989,-0.519732,1.643360,0.369255,-0.168586
644,3244264386,-0.600497,0.525264,-0.369009,-0.476794,1.240080,1.714351,2.095444
645,3244297720,-0.624112,0.541346,-0.358533,-0.434606,-0.790955,0.306502,1.422935
646,3244331054,-0.649851,0.553700,-0.343336,-0.391447,-0.847021,-0.654158,1.092235
647,3244364388,-0.673612,0.567071,-0.326559,-0.343565,-2.264026,-0.484421,2.137415
648,3244397722,-0.701206,0.574556,-0.297949,-0.299033,-2.273118,-0.613328,5.326553
649,3244431056,-0.724338,0.576915,-0.260716,-0.273002,-3.043949,-4.131393,4.571973
650,3244464390,-0.734659,0.581497,-0.233816,-0.259745,-2.159036,-3.149395,4.469920
651,3244497724,-0.730919,0.586565,-0.233078,-0.259563,-2.577845,-3.844711,3.911505
652,3244531058,-0.720530,0.587582,-0.241101,-0.278306,-3.366997,-3.193569,3.282640
653,3244564392,-0.707699,0.584060,-0.249061,-0.309846,-2.558757,-2.710230,3.727020
654,3244597726,-0.690700,0.577490,-0.261483,-0.347943,-1.519419,-1.562693,3.815195
655,3244631060,-0.669128,0.567585,-0.278978,-0.390238,-0.482611,-0.697100,3.619576
656,3244664394,-0.641652,0.554640,-0.301053,-0.435916,0.640669,-1.019639,3.609276
657,3244697728,-0.606503,0.539425,-0.326562,-0.484285,0.953318,-0.084355,3.235247
658,3244731062,-0.562854,0.524055,-0.356588,-0.530477,0.487578,0.072224,1.790448
659,3244764396,-0.512594,0.509317,-0.386602,-0.573046,0.329070,0.004434,2.970899
660,3244797730,-0.460592,0.490520,-0.415239,-0.612227,-0.059274,0.994245,0.296486
661,3244831064,-0.402631,0.478486,-0.447671,-0.639163,0.317746,-0.605254,-0.365518
662,3244864398,-0.342078,0.470538,-0.477515,-0.658449,1.570351,0.454798,0.694087
663,3244897732,-0.283362,0.463661,-0.501982,-0.672858,1.412376,0.771289,0.480439
664,3244931066,-0.242420,0.443451,-0.515102,-0.692281,2.540227,1.894114,-0.255385
665,3244964400,-0.218829,0.411704,-0.519634,-0.715956,2.209014,0.309514,-2.604339
666,3244997734,-0.195600,0.389328,-0.520704,-0.734187,1.361242,0.248557,-4.479220
667,3245031068,-0.171780,0.384368,-0.518681,-0.744126,1.433873,0.271267,-4.450478
668,3245064402,-0.171730,0.369175,-0.506785,-0.759860,3.576795,1.960931,-2.787271
669,3245097736,-0.191677,0.340382,-0.484487,-0.782733,0.349208,-0.561240,-5.669526
670,3245131070,-0.205189,0.329745,-0.457514,-0.799904,-0.598663,-0.670270,-4.439423
671,3245164404,-0.207341,0.335637,-0.434506,-0.809668,1.389971,-0.685737,-1.401434
672,3245197738,-0.202373,0.337021,-0.421326,-0.817279,1.624035,0.264806,2.465207
673,3245231072,-0.187690,0.336540,-0.422800,-0.820216,0.082714,-0.025575,2.809913
674,3245264406,-0.162047,0.342092,-0.434021,-0.817520,-0.228622,-0.388954,2.195928
675,3245297740,-0.130315,0.351672,-0.447025,-0.812104,-0.525744,0.626083,2.126067
676,3245331074,-0.103326,0.354631,-0.457593,-0.808807,0.379900,0.560937,0.655054
677,3245364408,-0.086114,0.347874,-0.464461,-0.809842,-0.332465,0.953827,-0.798347
678,3245397742,-0.080427,0.332838,-0.468320,-0.814510,-0.252502,0.422283,-2.098620
679,3245431076,-0.090195,0.305840,-0.467233,-0.824633,-0.117906,1.045644,-2.650567
680,3245464410,-0.121194,0.258395,-0.460487,-0.840533,-0.121315,1.516777,-2.918609
681,3245497744,-0.149242,0.220954,-0.452195,-0.851132,-2.364719,1.439445,-4.961449
682,3245531078,-0.150518,0.231885,-0.449938,-0.849194,-1.946139,0.882252,-5.978777
683,3245564412,-0.134112,0.274592,-0.451433,-0.838344,2.506160,2.137381,-5.018826
684,3245597746,-0.132835,0.291537,-0.452834,-0.832047,2.997048,3.791564,-3.031002
685,3245631080,-0.153993,0.279037,-0.455003,-0.831502,0.510210,3.692995,-4.448462
686,3245664414,-0.180038,0.270004,-0.459458,-0.826790,0.407840,2.533016,-5.044366
687,3245697748,-0.209475,0.276608,-0.466390,-0.813688,0.704478,2.133282,-5.093575
688,3245731082,-0.248656,0.293100,-0.472071,-0.793354,0.482807,1.509398,-2.801719
689,3245764416,-0.302885,0.316812,-0.474789,-0.763194,2.256703,1.203232,-3.461456
690,3245797750,-0.372561,0.340136,-0.467979,-0.725604,1.272006,-0.234299,-0.219258
691,3245831084,-0.455055,0.357436,-0.443189,-0.684651,2.263026,-0.215375,1.683987
692,3245864418,-0.544198,0.366485,-0.399188,-0.640457,0.672658,-1.068603,1.099355
693,3245897752,-0.622626,0.375551,-0.341329,-0.595645,1.060852,-2.018957,5.394966
694,3245931086,-0.680595,0.390541,-0.282467,-0.551796,0.270103,-1.390325,5.265930
695,3245964420,-0.717097,0.410058,-0.239835,-0.510003,-2.356655,-2.467854,6.679512
696,3245997754,-0.737921,0.428893,-0.208835,-0.477400,-1.952666,-3.752403,5.239265
697,3246031088,-0.750666,0.439033,-0.178694,-0.460237,-3.255061,-3.026811,5.260097
698,3246064422,-0.759463,0.438594,-0.151972,-0.455801,-2.571904,-1.988960,4.378008
699,3246097756,-0.763599,0.433953,-0.135294,-0.458582,-2.376678,-1.261044,3.140227
700,3246131090,-0.764082,0.428090,-0.130213,-0.464716,-2.159944,-1.225004,2.840735
701,3246164424,-0.763154,0.418903,-0.128180,-0.475063,-2.094499,-1.351707,2.445474
702,3246197758,-0.760174,0.406070,-0.126090,-0.491266,-1.842154,-0.985573,2.869550
703,3246231092,-0.753507,0.392319,-0.129578,-0.511393,-1.233200,-1.201163,2.203172
704,3246264426,-0.740421,0.380934,-0.141417,-0.535412,-0.783422,-3.007638,3.252169
705,3246297760,-0.718399,0.369222,-0.161029,-0.567138,0.194241,-2.944355,3.616312
706,3246331094,-0.685744,0.357791,-0.190167,-0.604629,0.171091,-2.649740,2.118456
707,3246364428,-0.641771,0.349909,-0.225547,-0.644067,0.758863,-3.094080,2.761497
708,3246397762,-0.590359,0.338903,-0.256206,-0.686279,1.282649,-2.403053,2.142389
709,3246431096,-0.531537,0.330135,-0.284271,-0.726408,1.180726,-1.863004,1.281699
710,3246464430,-0.465454,0.325501,-0.306271,-0.763937,1.141764,-1.605069,-0.335931
711,3246497764,-0.391391,0.332989,-0.323920,-0.794359,1.456749,-1.582229,-0.912569
712,3246531098,-0.311635,0.352828,-0.334282,-0.816487,1.348345,-1.843323,-1.071057
713,3246564432,-0.233619,0.378316,-0.335380,-0.830554,1.007337,-0.392996,-0.914054
714,3246597766,-0.165686,0.400686,-0.329667,-0.838640,0.344028,-0.977493,-0.106407
715,3246631100,-0.111622,0.415278,-0.319968,-0.844218,0.488886,0.761191,-0.467110
716,3246664434,-0.073043,0.421659,-0.311434,-0.848456,-0.457044,0.648071,-0.553017
717,3246697768,-0.047745,0.427723,-0.304549,-0.849719,-0.531968,1.612072,-2.249590
718,3246731102,-0.032900,0.437231,-0.299090,-0.847521,0.182480,3.218320,-2.689108
719,3246764436,-0.036794,0.427261,-0.292756,-0.854627,0.417963,4.583030,-2.682405
720,3246797770,-0.059590,0.392143,-0.283565,-0.873077,-1.737235,5.411271,-3.709504
721,3246831104,-0.080421,0.360200,-0.267019,-0.890218,-1.842462,1.805783,-5.281093
722,3246864438,-0.088436,0.364591,-0.246076,-0.893699,-0.546448,1.805821,-3.129757
723,3246897772,-0.096796,0.369396,-0.223880,-0.896691,2.433719,1.870918,-0.193212
724,3246931106,-0.102931,0.358939,-0.209540,-0.903693,1.310149,1.276471,1.455427
725,3246964440,-0.097254,0.366845,-0.209539,-0.901143,-0.175734,0.112607,1.840396
726,3246997774,-0.079733,0.395552,-0.221162,-0.887845,0.727499,0.410531,3.841861
727,3247031108,-0.061182,0.414397,-0.236217,-0.876774,0.552162,0.502590,3.432710
728,3247064442,-0.047352,0.415167,-0.251283,-0.873069,-0.444672,0.514377,1.526395
729,3247097776,-0.038843,0.407201,-0.265397,-0.873065,-1.429469,0.301601,-0.703129
730,3247131110,-0.036202,0.395798,-0.277209,-0.874750,-1.709405,0.119092,-1.666543
731,3247164444,-0.042064,0.379039,-0.284977,-0.879402,-1.228433,0.319364,-1.910847
732,3247197778,-0.057921,0.356967,-0.286580,-0.887182,-1.916577,1.424590,-1.963013
733,3247231112,-0.073759,0.347151,-0.283446,-0.890900,-1.982797,0.147012,-2.742438
734,3247264446,-0.081010,0.362854,-0.278312,-0.885616,0.941413,-0.074352,-3.787791
735,3247297780,-0.087890,0.374535,-0.271828,-0.882104,1.318531,1.875620,-1.244020
736,3247331114,-0.094981,0.373396,-0.270499,-0.882260,-0.477464,1.828584,-0.360793
737,3247364448,-0.099971,0.375497,-0.270489,-0.880819,-0.606327,1.605757,-1.232933
738,3247397782,-0.103787,0.381467,-0.269783,-0.878025,-0.488689,2.644216,-1.941166
739,3247431116,-0.108961,0.385095,-0.269385,-0.875934,-0.475277,2.759654,-2.471038
740,3247464450,-0.117452,0.386010,-0.267969,-0.874867,0.590168,2.169106,-2.822465
741,3247497784,-0.130714,0.384580,-0.266518,-0.874059,0.124279,3.729607,-3.208938
742,3247531118,-0.149205,0.385586,-0.266880,-0.870537,0.106880,2.699570,-3.588676
743,3247564452,-0.173698,0.399259,-0.268288,-0.859326,1.338285,2.831187,-3.996460
744,3247597786,-0.206925,0.420485,-0.267751,-0.841833,0.640810,1.947984,-2.598110
745,3247631120,-0.250350,0.448822,-0.261646,-0.816961,0.980552,1.772846,-1.358399
746,3247664454,-0.305076,0.478796,-0.252917,-0.783400,1.014997,2.738547,0.451756
747,3247697788,-0.372673,0.496883,-0.237111,-0.746993,2.713408,-0.552026,4.086760
748,3247731122,-0.452437,0.484018,-0.202557,-0.721108,2.340218,-1.595132,5.290790
749,3247764456,-0.529617,0.457105,-0.155685,-0.697369,0.495769,-2.187770,3.463375
750,3247797790,-0.592566,0.437951,-0.110328,-0.667002,-1.550248,-2.067047,2.594143
751,3247831124,-0.641532,0.434081,-0.077470,-0.627701,-1.327448,-2.131292,3.210662
752,3247864458,-0.680570,0.441592,-0.060137,-0.581553,-0.798125,-2.681332,3.197400
753,3247897792,-0.711639,0.451833,-0.053085,-0.535348,-0.373255,-2.635947,2.097256
754,3247931126,-0.735133,0.462000,-0.052225,-0.493363,0.818315,-4.866911,4.474555
755,3247964460,-0.752413,0.457869,-0.044486,-0.471435,-1.120050,-5.028840,3.618269
756,3247997794,-0.762223,0.443800,-0.028434,-0.470371,-1.278293,-4.514943,2.485526
757,3248031128,-0.765200,0.431103,-0.019650,-0.477737,-1.371137,-1.919233,1.711736
758,3248064462,-0.762682,0.428677,-0.031595,-0.483273,-1.340475,-1.982290,0.477036
759,3248097796,-0.755753,0.431639,-0.051509,-0.489766,-1.500804,-3.523883,0.633799
760,3248131130,-0.746830,0.429039,-0.061073,-0.504420,-1.415428,-3.605907,0.382788
761,3248164464,-0.736550,0.418972,-0.059127,-0.527693,-0.439029,-3.376124,1.438589
762,3248197798,-0.722753,0.406516,-0.055706,-0.556119,-0.208843,-2.333898,0.538528
763,3248231132,-0.703923,0.397095,-0.058221,-0.586018,0.768854,-2.568448,1.485299
764,3248264466,-0.678099,0.392325,-0.068860,-0.617673,1.208314,-2.659596,0.544222
765,3248297800,-0.645836,0.392166,-0.084117,-0.649635,1.210593,-2.569138,0.439627
766,3248331134,-0.608160,0.393495,-0.100880,-0.682001,1.502382,-2.562838,0.671295
767,3248364468,-0.564807,0.396225,-0.117782,-0.714231,1.431080,-2.095345,0.549387
768,3248397802,-0.515105,0.403181,-0.134942,-0.744245,1.431435,-1.094991,-0.167657
769,3248431136,-0.460930,0.414273,-0.150238,-0.770292,2.337574,-1.029173,0.165298
770,3248464470,-0.404397,0.420933,-0.157638,-0.796510,2.523360,-0.480657,0.263772
771,3248497804,-0.346457,0.427578,-0.160856,-0.819310,1.905469,0.350323,-0.172468
772,3248531138,-0.287607,0.438833,-0.161710,-0.835797,1.750274,0.773931,0.508339
773,3248564472,-0.230320,0.446885,-0.158763,-0.849729,1.482321,1.422486,1.160707
774,3248597806,-0.175407,0.452168,-0.155006,-0.860668,0.984432,1.299606,0.658869
775,3248631140,-0.123173,0.458373,-0.150379,-0.867242,0.570557,1.206727,-0.003599
776,3248664474,-0.073032,0.466459,-0.146407,-0.869279,0.583939,1.996465,0.796389
777,3248697808,-0.026653,0.474579,-0.145807,-0.867643,-0.346610,2.175758,0.590998
778,3248731142,0.014535,0.484159,-0.149507,-0.861989,-0.535250,2.028446,-0.288763
779,3248764476,0.050455,0.495993,-0.156991,-0.852525,-0.853742,1.979190,-0.687888
780,3248797810,0.080156,0.507698,-0.166326,-0.841518,-1.292238,1.795995,-1.013337
781,3248831144,0.102026,0.514690,-0.175794,-0.832935,-1.719882,1.593624,-1.602290
782,3248864478,0.115640,0.517828,-0.183459,-0.827540,-1.628801,1.255260,-2.330201
783,3248897812,0.122864,0.520412,-0.186716,-0.824143,-2.265213,1.403624,-2.968208
784,3248931146,0.124533,0.526050,-0.185253,-0.820636,-2.243940,1.541991,-3.031226
785,3248964480,0.118145,0.523151,-0.179814,-0.824634,-1.021402,2.277096,-2.186359
786,3248997814,0.104486,0.503599,-0.170119,-0.840553,-0.841437,1.920979,-2.612046
787,3249031148,0.090270,0.488020,-0.155816,-0.854054,-1.359635,-0.029810,-2.302409
788,3249064482,0.079091,0.491196,-0.139336,-0.856187,-0.353549,-0.352234,-0.179388
789,3249097816,0.071397,0.504604,-0.126627,-0.851024,1.040361,-0.173400,3.317520
790,3249131150,0.067852,0.515680,-0.121760,-0.845366,0.710934,-1.214282,4.269569
791,3249164484,0.070033,0.528480,-0.123813,-0.836944,-0.095538,-1.165964,3.625100
792,3249197818,0.075612,0.538832,-0.130299,-0.828834,0.024757,-0.510485,2.720397
793,3249231152,0.080716,0.537736,-0.138639,-0.827710,-0.415513,0.048278,0.954719
794,3249264486,0.083681,0.529433,-0.146542,-0.831398,-0.951230,0.264854,-1.056600
795,3249297820,0.083186,0.519242,-0.152264,-0.836829,-0.931401,0.315264,-2.743152
796,3249331154,0.078432,0.511100,-0.153953,-0.841976,-0.829740,0.576552,-3.549252
797,3249364488,0.070629,0.508743,-0.150372,-0.844737,-1.319539,1.726480,-4.138203
798,3249397822,0.061160,0.515630,-0.142423,-0.842674,-1.484341,2.471078,-4.124135
799,3249431156,0.049161,0.526571,-0.131740,-0.838421,-1.374552,2.271917,-2.868224
800,3249464490,0.034652,0.539577,-0.120021,-0.832616,-1.517392,2.518976,-2.100579
801,3249497824,0.016631,0.551467,-0.109635,-0.826793,-0.896691,2.809276,-1.167090
802,3249531158,-0.007575,0.550267,-0.098300,-0.829147,-0.610589,1.990335,0.079777
803,3249564492,-0.036914,0.538046,-0.084018,-0.837904,-1.402280,2.246317,-0.739412
804,3249597826,-0.068494,0.532828,-0.068936,-0.840625,-1.541460,2.691327,-0.545178
805,3249631160,-0.103281,0.535788,-0.054597,-0.836231,-0.577623,2.543990,0.596905
806,3249664494,-0.142726,0.539448,-0.041082,-0.828817,-0.948390,2.668828,1.403727
807,3249697828,-0.188156,0.541070,-0.032009,-0.819033,-0.720711,2.422563,1.466753
808,3249731162,-0.236986,0.547956,-0.028773,-0.801719,0.376556,1.578268,1.409360
809,3249764496,-0.287463,0.559299,-0.031622,-0.776884,1.153479,1.411906,2.791192
810,3249797830,-0.339953,0.563542,-0.040475,-0.751806,1.325296,0.983449,2.840650
811,3249831164,-0.392001,0.562468,-0.055326,-0.725881,1.695861,0.248018,1.853735
812,3249864498,-0.441302,0.561452,-0.075697,-0.695912,1.839132,-0.072042,1.628501
813,3249897832,-0.486949,0.559276,-0.101324,-0.663192,2.409861,-0.410853,2.052339
814,3249931166,-0.528623,0.552246,-0.128744,-0.631670,2.314171,-0.942562,1.342366
815,3249964500,-0.565881,0.542812,-0.156158,-0.600623,1.397635,-0.568907,0.933656
816,3249997834,-0.597776,0.535185,-0.185388,-0.567337,0.832597,-0.897417,0.799987
817,3250031168,-0.626292,0.524306,-0.210396,-0.537209,0.300377,-2.028162,0.503275
818,3250064502,-0.653779,0.507018,-0.224923,-0.514699,-0.124396,-2.081397,0.278159
819,3250097836,-0.677456,0.491295,-0.236711,-0.493609,-0.262533,-1.867903,-0.421639
820,3250131170,-0.695007,0.482044,-0.251595,-0.470423,-0.721189,-2.247487,-0.610563
821,3250164504,-0.708906,0.475090,-0.263668,-0.449689,-1.022412,-2.815452,-0.117337
822,3250197838,-0.722202,0.467080,-0.266419,-0.435064,-1.077821,-2.254027,-0.774566
823,3250231172,-0.733305,0.461499,-0.263427,-0.424133,-1.068362,-1.973490,-1.416194
824,3250264506,-0.741865,0.459422,-0.255739,-0.416130,-1.250909,-1.420976,-1.419893
825,3250297840,-0.749047,0.460791,-0.242422,-0.409672,-0.983480,-1.493791,-1.726754
826,3250331174,-0.755346,0.465541,-0.223628,-0.403378,-0.512054,-0.950548,-1.520463
827,3250364508,-0.760412,0.473332,-0.204875,-0.394660,-0.194971,-0.140591,-0.929239
828,3250397842,-0.764147,0.484135,-0.189147,-0.381989,-0.206166,-1.625279,0.452254
829,3250431176,-0.769521,0.491868,-0.170268,-0.370016,0.014303,-0.678312,0.568750
830,3250464510,-0.771388,0.503286,-0.164812,-0.352845,1.084843,-0.795793,0.429480
831,3250497844,-0.769055,0.515431,-0.166838,-0.339189,0.304654,-2.030578,3.139325
832,3250531178,-0.765088,0.521515,-0.162307,-0.341056,0.438763,-1.328425,2.648226
833,3250564512,-0.758027,0.525410,-0.156907,-0.353157,0.390115,-0.752548,1.720871
834,3250597846,-0.748421,0.529071,-0.152842,-0.369580,0.128272,-0.320881,0.644184
835,3250631180,-0.737038,0.533670,-0.150853,-0.386282,0.174058,-0.691182,0.240752
836,3250664514,-0.723437,0.539339,-0.149937,-0.404069,0.220790,-1.496868,0.499423
837,3250697848,-0.707457,0.544354,-0.146421,-0.426315,0.103730,-1.891718,0.661673
838,3250731182,-0.689337,0.546982,-0.137686,-0.454608,0.320357,-1.786030,0.270505
839,3250764516,-0.667251,0.549926,-0.126435,-0.486180,0.729756,-2.757259,-0.111529
840,3250797850,-0.640627,0.554232,-0.112417,-0.519409,0.835405,-2.957408,-0.044623
841,3250831184,-0.609591,0.559628,-0.096784,-0.553035,0.829502,-2.469692,-0.217248
842,3250864518,-0.573420,0.567007,-0.082249,-0.585599,0.703125,-2.689765,0.480049
843,3250897852,-0.531745,0.574073,-0.067736,-0.618949,0.940005,-2.336500,0.633494
844,3250931186,-0.484557,0.580989,-0.056985,-0.651466,1.223829,-2.203366,2.255425
845,3250964520,-0.435880,0.570286,-0.038681,-0.695188,1.713196,-1.635044,0.967121
846,3250997854,-0.382432,0.556190,-0.022265,-0.737497,1.686893,-0.275068,0.446733
847,3251031188,-0.327333,0.542810,-0.008894,-0.773389,0.897470,0.124017,-0.468338
848,3251064522,-0.275210,0.531522,0.002443,-0.801085,1.173108,0.153367,-0.929580
849,3251097856,-0.227282,0.519951,0.014028,-0.823284,1.569918,0.337233,-0.970658
850,3251131190,-0.184911,0.507431,0.025994,-0.841217,0.586412,0.187712,-1.337184
851,3251164524,-0.150630,0.500009,0.036167,-0.852052,-0.158503,0.496077,-1.263530
852,3251197858,-0.126271,0.493462,0.045630,-0.859341,-0.354166,0.852875,-1.229597
853,3251231192,-0.111812,0.483438,0.056069,-0.866396,-0.780779,1.630819,-1.887159
854,3251264526,-0.105291,0.479849,0.066552,-0.868464,-0.669783,2.764540,-0.532275
855,3251297860,-0.105686,0.468920,0.079127,-0.873317,-1.412423,3.394434,0.542962
856,3251331194,-0.109449,0.461126,0.090059,-0.875941,-1.909972,3.886524,-0.080299
857,3251364528,-0.112041,0.473294,0.097616,-0.868280,-1.491631,3.524571,-0.200151
858,3251397862,-0.113354,0.486838,0.103356,-0.859917,-0.295351,2.356398,0.603886
859,3251431196,-0.112770,0.490907,0.105012,-0.857476,-0.696631,0.650972,1.291487
860,3251464530,-0.114426,0.497813,0.101812,-0.853653,-0.165647,-0.250159,0.724685
861,3251497864,-0.118111,0.503323,0.094495,-0.850756,-0.968717,-0.635658,1.066839
862,3251531198,-0.123436,0.509925,0.082467,-0.847313,-1.252908,-0.341876,0.713906
863,3251564532,-0.129371,0.513420,0.070582,-0.845388,-0.537399,0.558496,-0.414147
864,3251597866,-0.136042,0.511784,0.062502,-0.845969,-0.761604,1.299320,-1.060324
865,3251631200,-0.144966,0.505502,0.059643,-0.848466,-1.412863,2.139120,-1.667450
866,3251664534,-0.157362,0.495415,0.061677,-0.852054,-1.452256,2.429170,-1.600784
867,3251697868,-0.173287,0.489487,0.067160,-0.851976,-1.222585,2.911436,-1.791544
868,3251731202,-0.192544,0.491810,0.074693,-0.845855,-1.075009,3.442344,-2.229563
869,3251764536,-0.213848,0.500747,0.082119,-0.834732,-0.417872,3.593864,-0.549273
870,3251797870,-0.237427,0.512963,0.085621,-0.820467,-0.851083,3.323488,0.975380
871,3251831204,-0.267127,0.522984,0.083141,-0.805120,-1.229803,2.815958,1.856708
872,3251864538,-0.302962,0.529262,0.074528,-0.789012,-0.934216,2.474010,1.837131
873,3251897872,-0.343591,0.533575,0.059325,-0.770534,-0.867134,1.937560,1.891158
874,3251931206,-0.388385,0.534437,0.039079,-0.749671,-0.428473,1.144579,1.278564
875,3251964540,-0.436055,0.531121,0.017096,-0.726274,-0.256342,0.444595,1.108005
876,3251997874,-0.485370,0.521625,-0.003741,-0.701648,0.200899,0.054199,0.802303
877,3252031208,-0.535932,0.504350,-0.021427,-0.676718,0.138494,-0.131146,0.650520
878,3252064542,-0.587187,0.479841,-0.034418,-0.650983,0.755586,-1.086774,0.998608
879,3252097876,-0.635753,0.450701,-0.039794,-0.625382,0.786559,-1.442931,-0.236047
880,3252131210,-0.678751,0.425545,-0.041773,-0.597045,0.234323,-1.377591,-1.152606
881,3252164544,-0.713587,0.414944,-0.050217,-0.562221,0.248885,-1.294645,-0.794360
882,3252197878,-0.739527,0.419604,-0.070556,-0.521587,0.602174,-1.510520,-0.843052
883,3252231212,-0.756939,0.433497,-0.100264,-0.478612,0.357891,-2.455071,-0.669364
884,3252264546,-0.770265,0.444540,-0.121437,-0.440828,-0.110745,-4.141556,0.526493
885,3252297880,-0.787767,0.435694,-0.110067,-0.421282,-0.636441,-2.461104,1.676898
886,3252331214,-0.802815,0.427655,-0.094055,-0.404663,0.266152,-1.223239,-1.239683
887,3252364548,-0.811573,0.429869,-0.091914,-0.384853,0.374119,-1.987765,1.883194
888,3252397882,-0.814758,0.432972,-0.095036,-0.373727,0.450251,-3.067087,1.165311
889,3252431216,-0.812268,0.434217,-0.095067,-0.377673,0.438242,-3.311887,0.697979
890,3252464550,-0.805085,0.432609,-0.089810,-0.395755,0.165748,-2.625491,0.455382
891,3252497884,-0.793594,0.429631,-0.083098,-0.422753,-0.127224,-2.420221,0.807546
892,3252531218,-0.776870,0.428295,-0.080444,-0.454493,-0.011300,-2.496103,1.106069
893,3252564552,-0.755396,0.428808,-0.084470,-0.488226,-0.407472,-1.923770,1.768930
894,3252597886,-0.730226,0.428262,-0.093424,-0.524054,0.206073,-2.324882,1.786291
895,3252631220,-0.700392,0.427996,-0.105025,-0.561462,0.079005,-0.881262,1.316098
896,3252664554,-0.664826,0.433152,-0.127185,-0.595154,0.011892,-0.613077,1.309201
897,3252697888,-0.623570,0.442625,-0.156003,-0.625225,0.321719,-0.936127,1.610529
898,3252731222,-0.579905,0.447496,-0.183172,-0.655672,0.518109,-0.221933,1.642888
899,3252764556,-0.534262,0.449606,-0.210132,-0.684297,0.006299,0.496208,0.166435
900,3252797890,-0.487258,0.451840,-0.237339,-0.708584,0.294456,0.744365,-0.250196
901,3252831224,-0.441258,0.451908,-0.261766,-0.729760,0.588120,0.783086,-1.192946
902,3252864558,-0.399065,0.448938,-0.281063,-0.748468,0.567505,0.832221,-1.294937
903,3252897892,-0.361480,0.444942,-0.295347,-0.764283,0.356366,0.744388,-1.219719
904,3252931226,-0.329213,0.439012,-0.305306,-0.778251,0.427958,0.725549,-0.974591
905,3252964560,-0.299836,0.434872,-0.312649,-0.789452,0.311962,0.364431,-1.190837
906,3252997894,-0.273124,0.431790,-0.318953,-0.798267,0.674480,0.865150,0.137272
907,3253031228,-0.250534,0.425659,-0.324540,-0.806673,0.410016,0.806349,0.133944
908,3253064562,-0.230500,0.418655,-0.329944,-0.814085,0.271978,0.546217,-0.582070
909,3253097896,-0.213033,0.410534,-0.335411,-0.820718,0.472888,1.244329,0.574612
910,3253131230,-0.200752,0.396266,-0.339962,-0.828913,-0.220638,0.972589,-0.363264
911,3253164564,-0.191341,0.383645,-0.343712,-0.835504,-0.925182,0.446570,-1.246964
912,3253197898,-0.184922,0.377946,-0.345857,-0.838655,-0.993440,0.374726,-1.520470
913,3253231232,-0.188405,0.368682,-0.343367,-0.843016,-1.187624,0.488748,-1.611663
914,3253264566,-0.199735,0.362993,-0.335980,-0.845848,-2.006700,0.793972,-2.713497
915,3253297900,-0.209240,0.373409,-0.329066,-0.841724,0.808316,3.203221,-0.433649
916,3253331234,-0.214692,0.388010,-0.325097,-0.835265,3.051415,4.025593,1.109700
917,3253364568,-0.217992,0.393865,-0.324783,-0.831784,2.420211,3.839415,1.608424
918,3253397902,-0.221028,0.393720,-0.329646,-0.829134,0.277885,2.183722,-0.025607
919,3253431236,-0.226575,0.393905,-0.335781,-0.825077,0.268185,0.895444,-1.305965
920,3253464570,-0.235519,0.396605,-0.339096,-0.819908,0.637265,1.057304,-1.787371
921,3253497904,-0.248538,0.402247,-0.337924,-0.813777,0.748929,1.295332,-2.252816
922,3253531238,-0.266993,0.408846,-0.331355,-0.807318,0.326294,1.452173,-2.394288
923,3253564572,-0.293228,0.413221,-0.319055,-0.800918,0.588398,1.583759,-2.000498
924,3253597906,-0.327799,0.412467,-0.302269,-0.794387,0.282011,2.110257,-0.834518
925,3253631240,-0.365332,0.413050,-0.286413,-0.783511,0.715089,1.473527,-0.614482
926,3253664574,-0.403134,0.418917,-0.274881,-0.765788,1.075341,1.949152,0.669015
927,3253697908,-0.443559,0.424379,-0.268161,-0.742460,0.864453,1.623232,1.827426
928,3253731242,-0.488463,0.422757,-0.263171,-0.716534,1.139025,0.478482,1.603468
929,3253764576,-0.535937,0.415668,-0.257598,-0.688211,0.714137,-0.175636,1.060818
930,3253797910,-0.582361,0.409012,-0.251310,-0.656055,0.720059,-1.083587,0.270712
931,3253831244,-0.629570,0.399042,-0.237405,-0.622933,0.287586,-1.694693,0.323036
932,3253864578,-0.679261,0.380168,-0.208838,-0.591999,-1.373490,-1.034483,-0.864246
933,3253897912,-0.721205,0.369953,-0.183460,-0.556184,-0.673391,-1.913775,1.395272
934,3253931246,-0.750970,0.374241,-0.175129,-0.515089,0.221704,-2.317279,1.049278
935,3253964580,-0.768168,0.384537,-0.184898,-0.477348,0.182028,-4.334632,3.352723
936,3253997914,-0.778049,0.388252,-0.199013,-0.451988,-1.455141,-3.825965,3.090653
937,3254031248,-0.784928,0.385505,-0.211700,-0.436412,-2.414985,-2.741013,0.371751
938,3254064582,-0.789123,0.382674,-0.224789,-0.424635,-2.803196,-1.457945,-0.614309
939,3254097916,-0.789859,0.383215,-0.239224,-0.414777,-3.296061,-1.183773,-0.614144
940,3254131250,-0.787174,0.386953,-0.251274,-0.409250,-3.076156,-1.253377,-0.406497
941,3254164584,-0.782500,0.390933,-0.258149,-0.410152,-2.594973,-1.069557,1.130629
942,3254197918,-0.775280,0.393848,-0.263325,-0.417714,-2.094684,-1.318496,1.807399
943,3254231252,-0.764907,0.394690,-0.268604,-0.432422,-1.724108,-1.353976,2.410604
944,3254264586,-0.752347,0.391697,-0.273811,-0.453404,-1.204893,-0.673580,2.476892
945,3254297920,-0.737397,0.385562,-0.282385,-0.477332,-0.693141,-0.243687,1.953566
946,3254331254,-0.718364,0.379368,-0.297760,-0.501370,-0.307663,-0.191621,1.590186
947,3254364588,-0.696147,0.372206,-0.319356,-0.524264,0.234281,-0.161113,1.342841
948,3254397922,-0.672176,0.362705,-0.343396,-0.546538,1.086365,-0.515750,0.757545
949,3254431256,-0.647273,0.351986,-0.365742,-0.568661,1.474316,-0.477381,0.250724
950,3254464590,-0.621368,0.342648,-0.385752,-0.589652,1.766605,-0.264326,0.648513
951,3254497924,-0.595213,0.333126,-0.402411,-0.610585,2.059649,-0.153363,0.727032
952,3254531258,-0.567451,0.325104,-0.416063,-0.631821,1.799569,-0.504064,0.266998
953,3254564592,-0.536671,0.319430,-0.426537,-0.654228,1.399787,-0.223680,0.419483
954,3254597926,-0.509041,0.309381,-0.430219,-0.678286,0.870470,-0.078481,-0.463862
955,3254631260,-0.485631,0.296408,-0.427448,-0.702562,0.214791,0.187187,-1.043772
956,3254664594,-0.464830,0.285111,-0.422190,-0.724154,-0.464239,0.711223,-1.768836
957,3254697928,-0.449629,0.275289,-0.415057,-0.741470,-1.189421,0.906188,-2.138896
958,3254731262,-0.445504,0.261869,-0.401983,-0.755884,-0.296933,1.506099,-1.406985
959,3254764596,-0.452669,0.243716,-0.384473,-0.766729,0.168301,3.005490,-1.406094
960,3254797930,-0.459710,0.233658,-0.372124,-0.771747,1.245001,2.706478,-1.465390
961,3254831264,-0.461708,0.235018,-0.365360,-0.773371,2.078376,1.117207,-1.770209
962,3254864598,-0.461896,0.238551,-0.358549,-0.775363,3.731834,0.394934,-1.050441
963,3254897932,-0.458916,0.239201,-0.355723,-0.778228,1.684128,1.017378,0.127089
964,3254931266,-0.453394,0.245698,-0.362759,-0.776190,0.461386,0.577247,-0.259101
965,3254964600,-0.447418,0.255840,-0.373995,-0.771032,0.220313,-0.045734,-1.066638
966,3254997934,-0.446136,0.263297,-0.380091,-0.766269,0.672601,-0.037305,-2.033891
967,3255031268,-0.451971,0.266430,-0.374897,-0.764323,0.109443,0.199231,-3.253635
968,3255064602,-0.460617,0.276692,-0.363433,-0.761045,-0.689798,0.514084,-2.782967
969,3255097936,-0.471155,0.296120,-0.349975,-0.753554,0.070170,0.798528,-1.906591
970,3255131270,-0.481948,0.318274,-0.337592,-0.743276,1.945370,1.061762,0.421355
971,3255164604,-0.490492,0.336230,-0.329826,-0.733199,2.144542,1.658095,1.426349
972,3255197938,-0.496408,0.353385,-0.330445,-0.720766,1.714208,1.806536,0.522345
973,3255231272,-0.502034,0.372551,-0.336249,-0.704346,1.377880,1.796629,-0.657038
974,3255264606,-0.510750,0.391460,-0.342403,-0.684583,1.203779,2.219509,-0.429731
975,3255297940,-0.526175,0.406533,-0.345157,-0.662373,0.797387,2.183582,-0.430058
976,3255331274,-0.547789,0.418478,-0.343451,-0.637844,0.249738,1.872035,0.621248
977,3255364608,-0.572565,0.428683,-0.340223,-0.610449,0.024376,1.732834,1.849186
978,3255397942,-0.597181,0.436472,-0.339818,-0.580853,-0.095197,1.095861,2.250874
979,3255431276,-0.617046,0.444499,-0.348335,-0.548030,-0.145272,0.259493,2.196165
980,3255464610,-0.631007,0.452210,-0.366508,-0.512843,-0.303983,-0.615913,1.895867
981,3255497944,-0.643577,0.454131,-0.386566,-0.479728,-0.818491,-1.490498,1.781552
982,3255531278,-0.659956,0.446642,-0.398990,-0.453624,-1.266038,-2.025161,1.019152
983,3255564612,-0.679872,0.432513,-0.401346,-0.435462,-1.396150,-2.051078,0.005280
984,3255597946,-0.700359,0.416910,-0.396793,-0.422183,-1.146775,-1.665827,-1.467866
985,3255631280,-0.719905,0.404125,-0.387643,-0.410063,-0.876705,-1.595522,-1.820218
986,3255664614,-0.738053,0.395487,-0.373984,-0.398751,-0.605823,-1.614009,-1.782156
987,3255697948,-0.753015,0.392990,-0.357888,-0.387869,-0.033676,-2.099741,-0.084073
988,3255731282,-0.766603,0.391564,-0.338485,-0.380032,0.140357,-0.888733,2.055252
989,3255764616,-0.776875,0.389767,-0.320783,-0.376358,-0.200604,-1.184841,1.979773
990,3255797950,-0.778620,0.392503,-0.314378,-0.375311,-0.386285,-1.262172,1.092485
991,3255831284,-0.771677,0.400548,-0.320461,-0.376005,-1.562432,-0.835563,1.498406
992,3255864618,-0.763233,0.406741,-0.325495,-0.382217,-2.075212,-0.327303,1.489938
993,3255897952,-0.755435,0.409333,-0.326373,-0.394010,-2.049451,-0.388541,1.341877
994,3255931286,-0.748358,0.407536,-0.322951,-0.411797,-1.933935,-0.237963,1.268810
995,3255964620,-0.739795,0.403073,-0.319972,-0.433420,-1.710364,-0.184855,1.364416
996,3255997954,-0.727296,0.398771,-0.321418,-0.456851,-1.487882,-0.117839,1.112954
997,3256031288,-0.710585,0.395025,-0.327284,-0.481569,-1.478766,-0.266529,1.543800
998,3256064622,-0.691872,0.388143,-0.334505,-0.508688,-1.080797,-0.279559,2.099097
999,3256097956,-0.671258,0.377813,-0.343281,-0.537427,-0.708982,-0.649378,2.282379
1000,3256131290,-0.646210,0.366593,-0.354704,-0.567633,-0.439905,-0.867445,1.927341
1001,3256164624,-0.616118,0.354880,-0.367382,-0.599574,0.248692,-1.047229,2.358896
1002,3256197958,-0.582570,0.340184,-0.377672,-0.634232,1.042177,-0.697295,2.205858
1003,3256231292,-0.547415,0.320583,-0.385497,-0.670041,1.461046,0.097644,1.340919
1004,3256264626,-0.510085,0.298253,-0.393498,-0.704285,1.349657,0.320978,0.741095
1005,3256297960,-0.471000,0.277480,-0.402624,-0.734205,0.967846,0.344746,0.143660
1006,3256331294,-0.434815,0.256384,-0.412165,-0.758500,0.956146,0.361191,-0.699596
1007,3256364628,-0.400815,0.237253,-0.422691,-0.777425,1.185291,0.214218,-0.800333
1008,3256397962,-0.371003,0.220251,-0.432706,-0.791588,0.585824,0.644890,-1.975434
1009,3256431296,-0.342389,0.213133,-0.442846,-0.800769,0.153740,-0.054793,-2.965429
1010,3256464630,-0.311283,0.222499,-0.451751,-0.805926,0.747892,0.071997,-3.152279
1011,3256497964,-0.288979,0.233253,-0.451281,-0.811436,1.309505,0.641487,-3.093392
1012,3256531298,-0.280879,0.236391,-0.440380,-0.819323,1.914965,1.907894,-2.629750
1013,3256564632,-0.282466,0.230490,-0.422335,-0.829892,2.116304,2.549074,-1.756089
1014,3256597966,-0.281823,0.230354,-0.403723,-0.839357,-0.819213,0.300145,-3.257535
1015,3256631300,-0.275060,0.238085,-0.390568,-0.845644,1.646740,0.625855,0.548483
1016,3256664634,-0.265551,0.242019,-0.385159,-0.850036,1.139308,0.581935,2.147884
1017,3256697968,-0.255451,0.240534,-0.389083,-0.851764,-0.165045,0.565817,2.110419
1018,3256731302,-0.240282,0.242470,-0.401164,-0.850023,-0.931072,0.106421,1.375000
1019,3256764636,-0.220297,0.251106,-0.414660,-0.846446,-0.004336,-0.210628,0.902217
1020,3256797970,-0.205351,0.252733,-0.422148,-0.846019,0.202043,0.333492,0.163874
1021,3256831304,-0.199818,0.244688,-0.422630,-0.849461,-0.041310,0.155434,-1.174907
1022,3256864638,-0.203028,0.230705,-0.415747,-0.855984,-0.276270,0.356823,-1.973724
1023,3256897972,-0.213942,0.212876,-0.402593,-0.864194,-0.437601,0.995782,-1.793766
1024,3256931306,-0.227050,0.198145,-0.385554,-0.872086,-0.809152,0.295174,-0.499069
1025,3256964640,-0.236162,0.197241,-0.366642,-0.878007,-1.518525,-0.790308,-0.518964
1026,3256997974,-0.246571,0.191897,-0.347355,-0.884150,1.423897,0.356845,0.533754
1027,3257031308,-0.250905,0.187536,-0.335394,-0.888474,1.322173,0.947600,1.047178
1028,3257064642,-0.252590,0.185013,-0.335276,-0.888571,-0.145561,1.610372,0.896403
1029,3257097976,-0.249041,0.194269,-0.344838,-0.883925,-0.261913,0.543477,-1.079762
1030,3257131310,-0.241304,0.214145,-0.354597,-0.877596,0.331825,0.581438,-1.645102
1031,3257164644,-0.238374,0.229648,-0.357982,-0.873091,0.549421,1.508109,-1.921416
1032,3257197978,-0.248475,0.230516,-0.353116,-0.872027,0.260650,1.945795,-2.707590
1033,3257231312,-0.268835,0.224872,-0.342161,-0.871829,0.147429,2.072905,-3.351240
1034,3257264646,-0.294944,0.221866,-0.327938,-0.869620,-0.232680,2.002699,-3.825867
1035,3257297980,-0.322209,0.231024,-0.313768,-0.862762,0.282570,1.903463,-3.387710
1036,3257331314,-0.349534,0.253600,-0.300897,-0.850278,0.916430,2.129853,-2.469352
1037,3257364648,-0.378625,0.284523,-0.290649,-0.831392,1.362893,1.706575,-0.639333
1038,3257397982,-0.412282,0.313041,-0.280695,-0.808232,2.509534,0.918412,1.012049
1039,3257431316,-0.451694,0.329654,-0.267599,-0.784659,2.419707,0.390589,1.758294
1040,3257464650,-0.494372,0.333255,-0.249028,-0.763231,1.134171,-0.097032,2.284841
1041,3257497984,-0.536368,0.334196,-0.230205,-0.740018,0.536656,0.607145,2.388391
1042,3257531318,-0.576718,0.336436,-0.216798,-0.712184,0.156248,0.135124,2.199527
1043,3257564652,-0.615090,0.338575,-0.206534,-0.681450,0.000896,-0.419722,2.059148
1044,3257597986,-0.651396,0.341777,-0.198906,-0.647540,-0.042001,-0.360614,1.584308
1045,3257631320,-0.685060,0.345285,-0.193443,-0.611597,-0.812002,-0.862139,1.557827
1046,3257664654,-0.715241,0.348329,-0.187637,-0.576098,-0.927685,-1.312024,1.240837
1047,3257697988,-0.741996,0.350875,-0.179703,-0.542250,-1.109940,-1.162952,0.323975
1048,3257731322,-0.764515,0.356962,-0.173053,-0.508081,-1.605658,-1.095880,-0.132966
1049,3257764656,-0.782501,0.366568,-0.165487,-0.475324,-0.963529,-2.802709,0.331230
1050,3257797990,-0.796769,0.374702,-0.154943,-0.448051,-1.435142,-1.252743,2.476261
1051,3257831324,-0.808406,0.373620,-0.138168,-0.433355,-1.975167,-2.894513,2.393245
1052,3257864658,-0.814667,0.370853,-0.121616,-0.428945,-1.688647,-2.372611,1.621869
1053,3257897992,-0.813565,0.375311,-0.117216,-0.428384,-1.630329,-2.043571,0.635925
1054,3257931326,-0.807606,0.382852,-0.117908,-0.432775,-1.677577,-2.354574,0.900667
1055,3257964660,-0.799091,0.388048,-0.116422,-0.444205,-1.984482,-2.731232,1.234764
1056,3257997994,-0.788357,0.389581,-0.111393,-0.462937,-1.566839,-2.441358,0.720387
1057,3258031328,-0.774490,0.389599,-0.106011,-0.486970,-1.252334,-2.383761,1.050275
1058,3258064662,-0.757260,0.387971,-0.101298,-0.515532,-0.892905,-2.037218,1.227993
1059,3258097996,-0.737133,0.384484,-0.098146,-0.546967,-0.259615,-1.992368,1.227002
1060,3258131330,-0.714500,0.378191,-0.095299,-0.580842,0.328367,-1.781025,1.291327
1061,3258164664,-0.688579,0.371527,-0.094487,-0.615547,0.740515,-1.422197,1.153216
1062,3258197998,-0.659297,0.365782,-0.095963,-0.649863,1.206236,-1.024330,0.988523
1063,3258231332,-0.627825,0.359014,-0.098404,-0.683565,1.350135,-0.564342,0.985703
1064,3258264666,-0.594330,0.353701,-0.102968,-0.714888,1.365233,-0.364634,0.517606
1065,3258298000,-0.559303,0.351237,-0.110067,-0.742763,1.333870,-0.043103,0.546118
1066,3258331334,-0.523513,0.349157,-0.118127,-0.768159,1.209764,0.239082,0.867732
1067,3258364668,-0.486960,0.348152,-0.127870,-0.790764,1.029591,0.422628,0.562160
1068,3258398002,-0.449538,0.349349,-0.139929,-0.810118,1.095889,0.515122,0.855113
1069,3258431336,-0.411924,0.351892,-0.153806,-0.826338,0.882235,0.660917,1.113420
1070,3258464670,-0.374066,0.355921,-0.169763,-0.839389,0.618391,0.564569,1.086668
1071,3258498004,-0.336023,0.360248,-0.187494,-0.849798,1.040236,0.599630,1.189401
1072,3258531338,-0.297261,0.362769,-0.206793,-0.858645,0.795810,0.501258,0.916410
1073,3258564672,-0.256865,0.366209,-0.226515,-0.865218,0.476465,0.389850,0.368606
1074,3258598006,-0.217395,0.368472,-0.245252,-0.869953,0.257085,0.695946,-0.004325
1075,3258631340,-0.181259,0.369198,-0.261729,-0.873118,0.170088,0.459443,-0.605843
1076,3258664674,-0.147948,0.372480,-0.274604,-0.874049,-0.071385,0.579180,-1.179983
1077,3258698008,-0.117331,0.378484,-0.284864,-0.872832,0.363717,1.758838,-0.454341
1078,3258731342,-0.090432,0.381297,-0.294359,-0.871657,0.312638,2.205282,-0.587249
1079,3258764676,-0.066885,0.378689,-0.304802,-0.871330,-0.355427,1.920776,-0.847178
1080,3258798010,-0.046090,0.376952,-0.317651,-0.868838,-1.273200,1.401337,-1.424294
1081,3258831344,-0.027053,0.382348,-0.332053,-0.861869,-0.924136,0.532002,-2.068863
1082,3258864678,-0.013465,0.388248,-0.345907,-0.854066,-0.982000,0.897004,-1.735676
1083,3258898012,-0.009602,0.388905,-0.358239,-0.848720,-0.772520,0.581460,-1.895234
1084,3258931346,-0.014563,0.383850,-0.366732,-0.847322,-0.948401,0.978140,-1.601350
1085,3258964680,-0.021620,0.380554,-0.371707,-0.846490,-0.739228,0.966847,-1.531506
1086,3258998014,-0.025768,0.384357,-0.373162,-0.844012,0.650210,0.480058,-1.596707
1087,3259031348,-0.022380,0.401104,-0.372838,-0.836424,0.476288,0.195481,-1.473787
1088,3259064682,-0.013121,0.429252,-0.369145,-0.824197,0.453189,0.401122,-0.633615
1089,3259098016,-0.014491,0.440266,-0.359788,-0.822501,0.463906,1.677749,-0.506293
1090,3259131350,-0.027807,0.428706,-0.345784,-0.834188,-0.089158,1.233243,-1.810511
1091,3259164684,-0.044849,0.414760,-0.327890,-0.847614,-1.307200,1.217273,-2.429229
1092,3259198018,-0.064724,0.406293,-0.308262,-0.857736,-0.876880,1.479057,-2.362011
1093,3259231352,-0.086831,0.405129,-0.287042,-0.863677,-0.272167,2.026438,-2.151780
1094,3259264686,-0.112543,0.406875,-0.264069,-0.867211,-0.232072,2.320591,-1.561701
1095,3259298020,-0.139850,0.413763,-0.239726,-0.867048,-0.127340,2.573232,-1.496827
1096,3259331354,-0.167254,0.432405,-0.215866,-0.859333,-0.695401,3.279944,-0.443511
1097,3259364688,-0.197823,0.453522,-0.193799,-0.847127,0.456582,2.843758,0.226118
1098,3259398022,-0.232266,0.471457,-0.171956,-0.833193,0.152404,2.758984,0.884443
1099,3259431356,-0.272420,0.483474,-0.151389,-0.817998,-0.323597,2.097992,2.165978
1100,3259464690,-0.317758,0.485872,-0.131493,-0.803534,-0.357721,1.234115,2.032660
1101,3259498024,-0.364954,0.485292,-0.114374,-0.786268,-0.904466,0.965315,2.449483
1102,3259531358,-0.412121,0.485486,-0.103989,-0.763967,-0.962973,0.417173,2.727950
1103,3259564692,-0.458534,0.482215,-0.099248,-0.739841,-0.669665,-0.144610,3.168100
1104,3259598026,-0.502936,0.473696,-0.098678,-0.716191,-0.827048,-0.487697,2.653898
1105,3259631360,-0.544039,0.462904,-0.102759,-0.692229,-0.942068,-0.339720,2.155528
1106,3259664694,-0.581268,0.451950,-0.111819,-0.667357,-0.649056,-0.374867,2.136529
1107,3259698028,-0.614252,0.439749,-0.123909,-0.643398,-0.511341,-0.455124,1.401091
1108,3259731362,-0.643506,0.428413,-0.138775,-0.618953,-0.391039,-0.421043,1.022058
1109,3259764696,-0.670209,0.417099,-0.153617,-0.594348,0.005086,-0.886103,0.696308
1110,3259798030,-0.695412,0.403787,-0.164369,-0.571262,0.096206,-1.062816,0.523458
1111,3259831364,-0.719342,0.390266,-0.170866,-0.548675,0.171048,-0.647158,-0.257495
1112,3259864698,-0.741675,0.379784,-0.175325,-0.524350,0.062562,-0.653043,-1.321448
1113,3259898032,-0.762203,0.374310,-0.177435,-0.497449,-0.110527,-0.621158,-2.233512
1114,3259931366,-0.781007,0.374832,-0.176399,-0.467346,0.009954,-1.536044,-1.567726
1115,3259964700,-0.799619,0.374463,-0.164132,-0.439827,0.945233,-3.148923,0.923710
1116,3259998034,-0.817889,0.363258,-0.136338,-0.424868,0.409256,-3.632053,2.015590
1117,3260031368,-0.828914,0.352429,-0.113873,-0.419200,1.554912,-2.686884,0.901813
1118,3260064702,-0.827888,0.356638,-0.121281,-0.415572,0.157597,-3.381451,0.204228
1119,3260098036,-0.818698,0.369038,-0.139321,-0.417292,-1.110862,-3.101871,-0.241753
1120,3260131370,-0.808119,0.378821,-0.146723,-0.426509,-1.238516,-2.798572,-0.578931
1121,3260164704,-0.796932,0.385428,-0.142395,-0.442794,-1.255428,-2.196265,-0.889885
1122,3260198038,-0.784443,0.390323,-0.132730,-0.463336,-1.021818,-1.682405,0.132921
1123,3260231372,-0.769538,0.395189,-0.124339,-0.485980,-0.569120,-1.695739,0.162180
1124,3260264706,-0.750958,0.401979,-0.119230,-0.510155,-0.356202,-2.236730,0.486112
1125,3260298040,-0.727928,0.410228,-0.115799,-0.537051,-0.182640,-2.288344,0.863195
1126,3260331374,-0.701695,0.416138,-0.110599,-0.567645,-0.000373,-1.886862,1.679607
1127,3260364708,-0.673202,0.417637,-0.103929,-0.601313,0.466316,-1.348670,0.917901
1128,3260398042,-0.640948,0.418658,-0.100740,-0.635423,0.955525,-1.875278,1.024129
1129,3260431376,-0.604808,0.421960,-0.100971,-0.667803,1.428579,-1.588242,1.372424
1130,3260464710,-0.565413,0.426300,-0.102934,-0.698556,1.550443,-0.737716,1.185813
1131,3260498044,-0.523744,0.429084,-0.105559,-0.728310,1.998286,-0.415468,1.586586
1132,3260531378,-0.481021,0.428340,-0.106991,-0.757427,1.814137,0.154344,1.178841
1133,3260564712,-0.438192,0.425371,-0.107810,-0.784489,1.559708,0.818892,0.748976
1134,3260598046,-0.395156,0.420950,-0.108525,-0.809243,1.819496,1.045422,0.649282
1135,3260631380,-0.351882,0.415808,-0.109472,-0.831443,1.148510,1.344373,0.346381
1136,3260664714,-0.310148,0.410434,-0.110861,-0.850330,0.736641,1.752368,0.167415
1137,3260698048,-0.271122,0.405243,-0.112686,-0.865779,0.630970,1.499683,-0.294916
1138,3260731382,-0.234876,0.400825,-0.114359,-0.878120,0.282809,1.218373,-0.350113
1139,3260764716,-0.200968,0.398649,-0.116383,-0.887212,0.040660,1.276304,-0.201027
1140,3260798050,-0.168732,0.398144,-0.118713,-0.893822,0.006681,1.131646,-0.362875
1141,3260831384,-0.138506,0.398137,-0.121220,-0.898670,-0.147171,0.957910,-0.455108
1142,3260864718,-0.110750,0.399459,-0.123924,-0.901559,-0.174588,0.794787,-0.267933
1143,3260898052,-0.085121,0.402563,-0.126806,-0.902562,-0.187108,0.355095,-0.165465
1144,3260931386,-0.060311,0.408161,-0.130339,-0.901542,-0.098019,-0.042227,0.874389
1145,3260964720,-0.034987,0.415049,-0.135849,-0.898919,-0.408945,0.180500,1.492126
1146,3260998054,-0.007164,0.427444,-0.144436,-0.892400,-0.493963,-0.109264,1.191001
1147,3261031388,0.022025,0.443252,-0.156966,-0.882272,-0.858271,-0.259109,1.883516
1148,3261064722,0.048572,0.455293,-0.174300,-0.871762,-0.806451,-0.412440,1.453161
1149,3261098056,0.071334,0.462620,-0.194747,-0.861956,-0.962958,-0.535771,0.672432
1150,3261131390,0.091550,0.471655,-0.214838,-0.850297,-1.129218,-0.075100,-0.676816
1151,3261164724,0.110010,0.486321,-0.231366,-0.835380,-0.866065,-0.236569,-1.731283
1152,3261198058,0.124326,0.503660,-0.242352,-0.819838,-0.857805,0.344002,-2.545919
1153,3261231392,0.128184,0.512843,-0.248557,-0.811652,-1.072465,1.280211,-2.921847
1154,3261264726,0.111476,0.493022,-0.251586,-0.825352,-0.207206,2.875146,-2.326585
1155,3261298060,0.084773,0.442945,-0.246585,-0.857793,1.425122,2.389651,-4.069873
1156,3261331394,0.068596,0.411168,-0.225027,-0.880680,-0.551091,0.552000,-5.412784
1157,3261364728,0.059939,0.403002,-0.198504,-0.891399,-1.361182,1.274304,-1.657029
1158,3261398062,0.053192,0.407140,-0.180096,-0.893853,-0.767719,0.908350,1.590507
1159,3261431396,0.044666,0.412474,-0.173974,-0.893086,-0.397638,-0.191445,2.821236
1160,3261464730,0.037116,0.418967,-0.177584,-0.889692,-0.592295,-0.831034,3.321877
1161,3261498064,0.034370,0.431467,-0.186364,-0.881999,-0.662453,-0.885908,2.655908
1162,3261531398,0.037683,0.448866,-0.196303,-0.870956,-0.502281,-0.577625,1.803290
1163,3261564732,0.043832,0.465190,-0.204945,-0.860043,-0.312571,0.116041,0.849360
1164,3261598066,0.048068,0.473333,-0.211356,-0.853800,-0.422400,0.284205,-0.260323
1165,3261631400,0.048141,0.474052,-0.214927,-0.852504,-0.713457,0.022373,-1.330005
1166,3261664734,0.041963,0.469154,-0.215144,-0.855480,-0.835005,0.182559,-2.069459
1167,3261698068,0.028452,0.455263,-0.210745,-0.864588,0.151318,0.189519,-2.171830
1168,3261731402,0.010666,0.436459,-0.199265,-0.877315,0.020578,0.213092,-2.068515
1169,3261764736,-0.005584,0.427689,-0.181484,-0.885502,-0.517699,-0.998603,-1.801064
1170,3261798070,-0.018920,0.430232,-0.162816,-0.887712,0.133970,0.135442,1.303533
1171,3261831404,-0.026752,0.434426,-0.152841,-0.887241,1.124765,1.017532,2.953282
1172,3261864738,-0.026006,0.449428,-0.157334,-0.878967,-0.258727,0.064493,3.591393
1173,3261898072,-0.018813,0.476295,-0.173069,-0.861879,-1.201375,-0.195642,1.864144
1174,3261931406,-0.009049,0.505980,-0.191998,-0.840856,-0.983099,0.861078,0.966666
1175,3261964740,-0.005220,0.519060,-0.207701,-0.829102,-0.843205,1.877187,-0.554440
1176,3261998074,-0.010147,0.515013,-0.216847,-0.829238,-1.109995,1.958552,-2.782146
1177,3262031408,-0.022538,0.505425,-0.218744,-0.834379,-1.660839,2.430462,-3.638629
1178,3262064742,-0.041607,0.497466,-0.215590,-0.839236,-1.527354,3.059187,-3.803476
1179,3262098076,-0.067576,0.490908,-0.208665,-0.843149,-0.682462,3.827730,-3.633729
1180,3262131410,-0.100478,0.482443,-0.197006,-0.847550,-0.241155,3.803984,-3.552682
1181,3262164744,-0.138950,0.479556,-0.180184,-0.847498,-0.273200,3.910444,-3.163745
1182,3262198078,-0.183441,0.484968,-0.156848,-0.840567,0.339790,3.837792,-2.792228
1183,3262231412,-0.234409,0.493119,-0.126479,-0.828184,1.474536,4.232208,-0.128950
1184,3262264746,-0.293687,0.491564,-0.089871,-0.814883,0.778318,3.402785,0.648538
1185,3262298080,-0.358996,0.483517,-0.049237,-0.796811,0.944637,1.890713,1.835686
1186,3262331414,-0.425038,0.475222,-0.007956,-0.770353,0.494305,1.347985,2.921144
1187,3262364748,-0.489251,0.469445,0.027177,-0.734517,0.380315,-0.200453,4.025120
1188,3262398082,-0.547820,0.466928,0.052538,-0.692178,0.528959,-1.615312,4.609758
1189,3262431416,-0.599509,0.467980,0.065696,-0.645962,0.335101,-2.640245,3.763150
1190,3262464750,-0.644460,0.471762,0.067672,-0.597939,0.282399,-3.425942,2.354583
1191,3262498084,-0.682540,0.475925,0.061772,-0.551197,0.342748,-3.820772,1.651522
1192,3262531418,-0.713827,0.479360,0.049780,-0.508121,0.215801,-3.716227,0.619015
1193,3262564752,-0.739057,0.484246,0.032552,-0.467162,0.306925,-3.585586,-0.566773
1194,3262598086,-0.758926,0.491148,0.012284,-0.427380,0.236707,-3.303942,-1.032530
1195,3262631420,-0.773421,0.499513,-0.004881,-0.390232,0.326836,-4.285220,-1.314075
1196,3262664754,-0.783836,0.502629,-0.004327,-0.364616,-0.763324,-4.766498,1.103044
1197,3262698088,-0.790421,0.495297,0.015697,-0.360097,-0.542951,-3.919989,2.153137
1198,3262731422,-0.790011,0.488498,0.033626,-0.368945,0.926365,-3.156767,1.066328
1199,3262764756,-0.783296,0.492209,0.028236,-0.378654,0.223266,-3.436143,1.105840
1200,3262798090,-0.773169,0.495364,0.020253,-0.395491,-0.953651,-3.458118,1.752852
1201,3262831424,-0.760880,0.493961,0.016132,-0.420479,-1.191709,-2.713106,1.189969
1202,3262864758,-0.745733,0.492454,0.007773,-0.448676,-1.370033,-2.533354,1.087226
1203,3262898092,-0.726351,0.493896,-0.007092,-0.477943,-1.452138,-2.401992,1.334068
1204,3262931426,-0.702490,0.495183,-0.024135,-0.510606,-1.775548,-2.590222,2.183418
1205,3262964760,-0.674684,0.490689,-0.036891,-0.550149,-1.495178,-3.014549,2.607787
1206,3262998094,-0.642067,0.479241,-0.046482,-0.596588,-0.923967,-2.873986,2.893792
1207,3263031428,-0.603470,0.465772,-0.059539,-0.644464,-0.378221,-2.216952,2.574123
1208,3263064762,-0.557670,0.453752,-0.079524,-0.690498,0.185150,-1.248745,2.881824
1209,3263098096,-0.503692,0.445861,-0.108213,-0.731978,0.169393,-0.909539,3.282034
1210,3263131430,-0.442941,0.439998,-0.142018,-0.768138,2.296994,-0.567475,4.570677
1211,3263164764,-0.378242,0.426725,-0.174205,-0.802802,3.321787,-0.072864,2.790697
1212,3263198098,-0.311676,0.406862,-0.201593,-0.834674,2.621332,0.684364,1.500451
1213,3263231432,-0.245353,0.387308,-0.226266,-0.859417,2.400371,1.902461,0.848169
1214,3263264766,-0.181679,0.367166,-0.250523,-0.877166,1.894687,1.654199,0.249135
1215,3263298100,-0.123904,0.340837,-0.273192,-0.890979,1.768589,1.971610,-0.110681
1216,3263331434,-0.073926,0.310555,-0.296691,-0.900036,0.766482,1.666462,-0.565217
1217,3263364768,-0.032333,0.281130,-0.320500,-0.903991,0.245137,0.478100,-2.039237
1218,3263398102,0.005471,0.265425,-0.341652,-0.901550,0.240081,1.305927,-2.530708
1219,3263431436,0.035393,0.257011,-0.359653,-0.896293,-0.164111,0.714160,-3.540218
1220,3263464770,0.059037,0.258496,-0.371622,-0.889714,-0.768344,-0.250769,-5.159624
1221,3263498104,0.084071,0.280293,-0.374414,-0.879875,-0.006160,0.365575,-4.753581
1222,3263531438,0.101867,0.302963,-0.368879,-0.872791,-0.231879,1.583863,-4.810213
1223,3263564772,0.105606,0.313634,-0.358434,-0.872929,-0.667389,2.164988,-4.579770
1224,3263598106,0.094057,0.307466,-0.344983,-0.881819,-0.580665,2.525017,-4.373643
1225,3263631440,0.079069,0.297412,-0.325834,-0.893938,-0.694721,-1.138225,-4.265244
1226,3263664774,0.069298,0.302536,-0.299333,-0.902258,0.478713,1.161344,-1.254663
1227,3263698108,0.061537,0.303422,-0.278582,-0.909143,0.173124,2.905029,2.213861
1228,3263731442,0.055800,0.300073,-0.270820,-0.912962,-0.446307,2.079916,3.133900
1229,3263764776,0.058362,0.304664,-0.274839,-0.910075,-0.652299,1.027487,3.624025
1230,3263798110,0.067921,0.316927,-0.285104,-0.902030,-0.647092,1.610880,3.420221
1231,3263831444,0.077718,0.324452,-0.301082,-0.893331,-0.926904,1.367262,1.905414
1232,3263864778,0.085429,0.326648,-0.318811,-0.885642,-1.053352,0.476047,0.439123
1233,3263898112,0.089526,0.328051,-0.333650,-0.879229,-1.131389,0.423097,-0.905350
1234,3263931446,0.086995,0.325584,-0.343192,-0.876724,-0.739811,-0.212306,-1.845568
1235,3263964780,0.074902,0.316080,-0.345559,-0.880381,-0.700790,-0.146286,-2.498873
1236,3263998114,0.052510,0.299591,-0.341210,-0.889417,-0.785100,-0.577434,-3.870046
1237,3264031448,0.026600,0.290556,-0.329038,-0.898111,-0.930575,-0.185803,-4.602190
1238,3264064782,0.002058,0.294421,-0.311023,-0.903646,-0.632177,0.918484,-3.881442
1239,3264098116,-0.022277,0.307222,-0.290594,-0.905910,0.134785,2.127272,-3.915900
1240,3264131450,-0.048163,0.318534,-0.272676,-0.906567,0.721852,3.126345,-2.930099
1241,3264164784,-0.072997,0.336700,-0.259219,-0.902280,-0.075378,3.104860,-2.402276
1242,3264198118,-0.098338,0.365224,-0.251550,-0.890877,0.376828,3.414883,-2.013008
1243,3264231452,-0.126673,0.399748,-0.249195,-0.872959,0.638297,3.322781,-1.597185
1244,3264264786,-0.162235,0.434506,-0.250090,-0.849905,0.509520,2.904579,-0.520225
1245,3264298120,-0.207113,0.463711,-0.251001,-0.824059,0.651053,2.371570,0.137968
1246,3264331454,-0.258140,0.491470,-0.251039,-0.792969,1.460450,2.196545,1.124477
1247,3264364788,-0.311456,0.516489,-0.250183,-0.757391,1.883646,2.074619,3.241317
1248,3264398122,-0.367693,0.531379,-0.247698,-0.721861,0.745817,2.205682,3.975775
1249,3264431456,-0.428027,0.533605,-0.245733,-0.686785,0.514703,1.323130,3.843902
1250,3264464790,-0.486821,0.528540,-0.244194,-0.651168,0.469635,-0.448434,3.772881
1251,3264498124,-0.539520,0.523417,-0.245854,-0.611970,-0.228910,-0.274075,3.152343
1252,3264531458,-0.581808,0.524302,-0.259299,-0.565128,-0.342767,-1.093206,2.941838
1253,3264564792,-0.612685,0.528191,-0.283890,-0.514817,-0.600834,-1.719963,2.678144
1254,3264598126,-0.634553,0.530009,-0.314244,-0.466565,-1.212049,-2.262123,2.510171
1255,3264631460,-0.653699,0.523721,-0.338166,-0.428996,-1.288966,-2.201965,2.048394
1256,3264664794,-0.672754,0.510290,-0.352921,-0.403054,-1.082582,-1.884344,1.246317
1257,3264698128,-0.688339,0.496503,-0.365701,-0.382015,-0.805411,-1.792932,0.397044
1258,3264731462,-0.699116,0.485157,-0.378958,-0.363662,-0.765738,-2.366462,0.358644
1259,3264764796,-0.708296,0.474329,-0.387382,-0.351090,-0.708983,-1.894500,0.067433
1260,3264798130,-0.716225,0.464027,-0.392777,-0.342675,-0.690897,-1.214196,-0.686226
1261,3264831464,-0.721084,0.456649,-0.399155,-0.334940,-0.321706,-1.601508,-0.837756
1262,3264864798,-0.726278,0.450452,-0.401583,-0.329156,0.541830,-1.030226,0.344345
1263,3264898132,-0.733190,0.443655,-0.397780,-0.327679,0.258951,-1.720252,0.309084
1264,3264931466,-0.736669,0.439879,-0.391502,-0.332494,-0.110368,-1.542640,0.232668
1265,3264964800,-0.739417,0.436899,-0.380264,-0.343192,-0.009115,-1.220269,0.066752
1266,3264998134,-0.740016,0.435397,-0.367860,-0.357048,-0.312620,-1.130577,-0.597561
1267,3265031468,-0.738937,0.435539,-0.354162,-0.372622,-0.667145,-1.472407,-0.176473
1268,3265064802,-0.737464,0.435908,-0.336676,-0.390870,-1.135436,-1.439158,0.427927
1269,3265098136,-0.734300,0.436098,-0.317952,-0.411737,-1.318760,-1.834286,0.479625
1270,3265131470,-0.727155,0.436898,-0.300783,-0.435770,-1.303939,-2.471089,1.293040
1271,3265164804,-0.715598,0.436523,-0.284618,-0.465144,-1.152923,-2.066799,1.554200
1272,3265198138,-0.698630,0.435299,-0.272703,-0.498060,-1.127044,-2.123140,1.572881
1273,3265231472,-0.676143,0.433230,-0.264569,-0.533989,-0.921880,-2.868703,2.352972
1274,3265264806,-0.647966,0.429630,-0.258425,-0.573389,-0.856274,-2.255258,1.975904
1275,3265298140,-0.612630,0.426602,-0.257268,-0.613603,-0.056537,-2.161342,2.038374
1276,3265331474,-0.571435,0.423360,-0.259601,-0.653326,0.778548,-2.237114,1.791203
1277,3265364808,-0.527603,0.416638,-0.262448,-0.692220,1.552289,-1.838180,1.651173
1278,3265398142,-0.484995,0.401948,-0.263941,-0.730447,2.216998,-1.527610,0.679758
1279,3265431476,-0.443696,0.380232,-0.262761,-0.767798,2.357336,-1.136255,0.488923
1280,3265464810,-0.402263,0.358667,-0.262444,-0.800416,1.996151,0.297644,0.013921
1281,3265498144,-0.359735,0.344930,-0.267299,-0.824721,1.604124,0.063855,-1.019580
1282,3265531478,-0.316560,0.342296,-0.275319,-0.840727,1.627142,0.040969,-1.755672
1283,3265564812,-0.274294,0.350998,-0.283723,-0.849155,1.859875,0.546255,-2.694395
1284,3265598146,-0.235762,0.370832,-0.289456,-0.850362,1.701140,0.495755,-4.239833
1285,3265631480,-0.204489,0.399217,-0.288564,-0.845896,1.488528,0.710957,-5.314606
1286,3265664814,-0.178108,0.441081,-0.278848,-0.834247,1.296175,1.029679,-5.807152
1287,3265698148,-0.159046,0.490101,-0.255697,-0.818000,0.516661,3.402658,-3.586953
1288,3265731482,-0.154187,0.518453,-0.218219,-0.812289,2.203321,3.826639,-0.390075
1289,3265764816,-0.155640,0.523988,-0.168600,-0.820235,1.168694,2.721508,-0.182134
1290,3265798150,-0.159703,0.515971,-0.119162,-0.833108,-0.175384,1.342271,0.570733
1291,3265831484,-0.158868,0.511414,-0.088725,-0.839847,-1.463773,0.665198,1.842683
1292,3265864818,-0.156727,0.532749,-0.082874,-0.827494,-2.208185,-0.994326,2.587574
1293,3265898152,-0.154034,0.568934,-0.091284,-0.802654,-1.532703,-1.577293,1.462832
1294,3265931486,-0.150860,0.610356,-0.103733,-0.770679,-1.033748,-0.276568,2.157979
1295,3265964820,-0.154304,0.631652,-0.112698,-0.751335,-0.975362,1.494483,1.985629
1296,3265998154,-0.166840,0.628673,-0.113638,-0.751013,-0.681785,2.418183,-1.002829
1297,3266031488,-0.179957,0.622555,-0.107257,-0.754013,-0.621146,3.097402,-2.272095
1298,3266064822,-0.191024,0.616653,-0.093436,-0.757970,-0.448814,4.020781,-1.229864
1299,3266098156,-0.199063,0.607752,-0.074346,-0.765169,-0.012381,3.783069,-1.411756
1300,3266131490,-0.205749,0.597540,-0.052750,-0.773195,0.297623,3.311373,-2.279894
1301,3266164824,-0.212793,0.583615,-0.031540,-0.783018,-0.049221,3.238726,-0.931887
1302,3266198158,-0.220399,0.576286,-0.016988,-0.786784,-1.301991,3.132447,-0.488021
1303,3266231492,-0.230781,0.574506,-0.008972,-0.785240,-0.506006,3.200010,0.344455
1304,3266264826,-0.243194,0.574681,-0.007998,-0.781367,-0.969497,2.998102,0.511438
1305,3266298160,-0.258395,0.583374,-0.015394,-0.769850,-1.340982,2.826575,0.916326
1306,3266331494,-0.278960,0.591946,-0.029783,-0.755575,-0.443760,3.133666,1.593437
1307,3266364828,-0.305278,0.599725,-0.051692,-0.737877,-0.331850,3.296967,0.577808
1308,3266398162,-0.336177,0.612491,-0.083483,-0.710543,0.331898,3.495526,1.191156
1309,3266431496,-0.373337,0.618197,-0.120397,-0.681143,0.455501,2.491635,1.070352
1310,3266464830,-0.420177,0.609413,-0.154271,-0.654421,0.816260,1.257616,0.389721
1311,3266498164,-0.473610,0.591127,-0.181940,-0.627024,0.931389,-0.027584,0.364401
1312,3266531498,-0.527971,0.570896,-0.204096,-0.594700,0.849740,-1.174892,0.197099
1313,3266564832,-0.580119,0.549678,-0.219870,-0.559440,0.700113,-2.875171,1.043659
1314,3266598166,-0.626187,0.526426,-0.221662,-0.530690,0.345437,-4.821912,0.188354
1315,3266631500,-0.666709,0.501122,-0.200978,-0.513793,-0.581416,-4.841851,1.228594
1316,3266664834,-0.704247,0.465143,-0.153805,-0.513831,-0.756463,-4.172507,-1.202238
1317,3266698168,-0.733663,0.430248,-0.096901,-0.516947,-2.201483,-4.509412,-0.193279
1318,3266731502,-0.752203,0.401299,-0.043057,-0.520859,-1.416007,-3.580019,0.110381
1319,3266764836,-0.758612,0.388963,-0.014496,-0.522498,-1.389565,-3.691994,1.409564
1320,3266798170,-0.755074,0.390338,-0.012666,-0.526629,-1.201939,-3.737962,2.001975
1321,3266831504,-0.743570,0.398116,-0.030696,-0.536344,-1.998027,-4.684710,2.870575
1322,3266864838,-0.725650,0.401701,-0.055106,-0.555906,-1.936953,-3.855355,3.630654
1323,3266898172,-0.700903,0.401465,-0.085783,-0.583268,-1.922919,-2.295249,3.707029
1324,3266931506,-0.666797,0.404598,-0.128033,-0.612609,-1.599278,-1.697601,3.642069
1325,3266964840,-0.620996,0.412491,-0.180405,-0.641614,-0.397341,-1.651445,4.866682
1326,3266998174,-0.563907,0.416154,-0.233202,-0.674122,-0.875085,-1.463525,4.740844
1327,3267031508,-0.498246,0.412911,-0.281087,-0.708693,0.442559,0.543000,6.491028
1328,3267064842,-0.432370,0.390589,-0.319160,-0.747417,0.778149,0.830937,4.523027
1329,3267098176,-0.366975,0.359051,-0.347952,-0.784436,2.017673,1.834359,2.762226
1330,3267131510,-0.309182,0.321230,-0.372315,-0.814002,2.649844,3.423894,0.489707
1331,3267164844,-0.260769,0.283191,-0.396051,-0.833634,1.443517,2.490202,-3.297576
1332,3267198178,-0.214835,0.267124,-0.422049,-0.839264,0.480598,2.048997,-5.571459
1333,3267231512,-0.168259,0.275225,-0.447216,-0.834229,1.086400,1.479083,-5.870639
1334,3267264846,-0.126705,0.295522,-0.467702,-0.823327,1.913769,1.930680,-6.151256
1335,3267298180,-0.107051,0.301955,-0.479191,-0.817153,1.920854,3.022649,-5.069890
1336,3267331514,-0.124470,0.273197,-0.479949,-0.824329,1.708700,3.443758,-4.719162
1337,3267364848,-0.140473,0.249700,-0.471141,-0.834232,-1.474235,-0.807413,-5.000145
1338,3267398182,-0.138122,0.267932,-0.456674,-0.837009,-0.880416,-1.933424,-4.200016
1339,3267431516,-0.145651,0.269854,-0.440562,-0.843724,1.340959,1.702344,0.692388
1340,3267464850,-0.156818,0.262287,-0.432781,-0.848124,-3.344100,0.158947,-0.478341
1341,3267498184,-0.158466,0.275344,-0.434196,-0.842939,-1.758544,-1.042754,0.900273
1342,3267531518,-0.153531,0.299408,-0.441652,-0.831701,0.056842,1.045886,2.504493
1343,3267564852,-0.155416,0.306838,-0.453602,-0.822156,1.247146,1.509996,1.318295
1344,3267598186,-0.157338,0.305355,-0.464856,-0.816034,0.374602,-0.140055,-0.156601
1345,3267631520,-0.159932,0.304343,-0.473411,-0.810974,0.392732,0.393404,-0.710021
1346,3267664854,-0.177553,0.288005,-0.475225,-0.812212,0.679285,2.339396,-1.568536
1347,3267698188,-0.198048,0.272049,-0.471357,-0.815223,-1.738192,-0.454189,-3.491828
1348,3267731522,-0.208548,0.281904,-0.464604,-0.813130,-0.338808,0.745868,-2.875013
1349,3267764856,-0.222622,0.293924,-0.452591,-0.811917,1.016905,-1.428782,-3.949051
1350,3267798190,-0.241247,0.297183,-0.438227,-0.813289,1.443307,1.774346,-1.799090
1351,3267831524,-0.264948,0.292281,-0.427973,-0.813150,0.368361,3.004132,-1.867987
1352,3267864858,-0.287555,0.292331,-0.420457,-0.809364,0.936502,2.587009,-2.408005
1353,3267898192,-0.309161,0.297861,-0.415887,-0.801708,1.652928,2.811868,-2.730181
1354,3267931526,-0.333435,0.308092,-0.412156,-0.789954,1.484700,1.329687,-2.614127
1355,3267964860,-0.363627,0.321589,-0.405184,-0.774714,1.522805,1.512023,-2.824743
1356,3267998194,-0.397826,0.341217,-0.400487,-0.751609,1.436801,1.882437,-2.556403
1357,3268031528,-0.439105,0.360351,-0.393039,-0.723086,1.551265,0.411527,-0.519932
1358,3268064862,-0.494003,0.369026,-0.372837,-0.693378,2.904670,-0.059687,-0.292364
1359,3268098196,-0.553545,0.373143,-0.339071,-0.662859,0.800004,-0.747182,0.412183
1360,3268131530,-0.608745,0.380974,-0.293848,-0.630826,1.020267,-0.485544,1.230250
1361,3268164864,-0.652673,0.400662,-0.247319,-0.593566,0.313932,-0.144143,1.707562
1362,3268198198,-0.679015,0.439592,-0.221387,-0.544688,0.168219,-1.064167,3.629686
1363,3268231532,-0.697086,0.475771,-0.206740,-0.494946,-0.570185,-2.835071,4.921702
1364,3268264866,-0.713805,0.496282,-0.188229,-0.456899,-1.896821,-3.005876,4.573552
1365,3268298200,-0.728212,0.508091,-0.169357,-0.427631,-2.056337,-1.624924,2.471498
1366,3268331534,-0.736605,0.522219,-0.163472,-0.397463,-2.105292,-1.526296,1.975208
1367,3268364868,-0.741450,0.534319,-0.161608,-0.372341,-2.916626,-2.411090,2.362451
1368,3268398202,-0.747078,0.538953,-0.148341,-0.359720,-2.524479,-1.892147,1.105947
1369,3268431536,-0.750154,0.542662,-0.130979,-0.354445,-1.817927,-1.278850,0.395825
1370,3268464870,-0.750419,0.546352,-0.112696,-0.354500,-1.533457,-1.076132,1.390038
1371,3268498204,-0.749890,0.545559,-0.090933,-0.362988,-1.671067,-1.269385,1.432038
1372,3268531538,-0.746101,0.546601,-0.073975,-0.372943,-0.451358,-2.047010,0.918789
1373,3268564872,-0.738145,0.550859,-0.063861,-0.384212,-0.517279,-2.266283,1.174855
1374,3268598206,-0.727058,0.553932,-0.054486,-0.401967,-0.493790,-2.616164,1.476330
1375,3268631540,-0.713374,0.553937,-0.043245,-0.427060,-0.437422,-2.462141,1.480381
1376,3268664874,-0.695873,0.553544,-0.035503,-0.456167,-0.124416,-2.175853,0.780261
1377,3268698208,-0.674505,0.555858,-0.034627,-0.484628,-0.018833,-1.977001,0.715186
1378,3268731542,-0.649940,0.560484,-0.038252,-0.511833,-0.010799,-2.261131,0.874714
1379,3268764876,-0.622679,0.565583,-0.042087,-0.539087,0.416404,-2.346497,0.794920
1380,3268798210,-0.592332,0.571391,-0.045673,-0.566187,1.250302,-2.330180,0.659698
1381,3268831544,-0.558570,0.577104,-0.047852,-0.593852,1.674373,-1.998979,0.785741
1382,3268864878,-0.520730,0.583940,-0.049902,-0.620776,1.984549,-1.358486,0.909842
1383,3268898212,-0.479360,0.591130,-0.051348,-0.646639,1.924281,-0.547485,0.679557
1384,3268931546,-0.436538,0.595450,-0.049790,-0.672603,1.825710,0.070496,0.125101
1385,3268964880,-0.392522,0.599934,-0.046514,-0.695587,1.453822,0.425600,0.145797
1386,3268998214,-0.348960,0.603751,-0.040867,-0.715570,0.671566,0.877504,0.076164
1387,3269031548,-0.308715,0.605005,-0.033308,-0.733181,-0.012969,0.313031,0.373225
1388,3269064882,-0.271876,0.605237,-0.025358,-0.747749,-0.327167,0.467187,0.463222
1389,3269098216,-0.239082,0.604659,-0.018908,-0.759519,-0.495060,0.328607,-0.206170
1390,3269131550,-0.210644,0.604430,-0.013938,-0.768179,0.031655,0.730738,-0.446193
1391,3269164884,-0.185342,0.605210,-0.012066,-0.774095,0.292123,1.396816,-0.407393
1392,3269198218,-0.163399,0.612213,-0.014636,-0.773486,0.293600,1.610081,-1.134122
1393,3269231552,-0.145630,0.621858,-0.019491,-0.769223,-0.069415,1.382187,-1.150350
1394,3269264886,-0.133471,0.631835,-0.024941,-0.763117,-1.025848,1.894249,-1.674095
1395,3269298220,-0.129598,0.638366,-0.027943,-0.758229,-0.680000,1.959336,-2.107865
1396,3269331554,-0.134024,0.629889,-0.022046,-0.764716,-0.472066,2.120651,-1.849888
1397,3269364888,-0.144613,0.608598,-0.006575,-0.780162,-1.290323,2.840131,-1.780104
1398,3269398222,-0.155962,0.584608,0.015300,-0.796037,0.469040,2.958460,-1.032284
1399,3269431556,-0.161384,0.566267,0.042925,-0.807127,1.512130,2.691807,-0.952518
1400,3269464890,-0.160617,0.545213,0.072812,-0.819538,0.860460,1.588422,-0.134572
1401,3269498224,-0.156779,0.522984,0.096506,-0.832223,-1.032286,-0.860680,0.902524
1402,3269531558,-0.156446,0.516911,0.106582,-0.834846,-1.607782,-2.521334,1.236647
1403,3269564892,-0.159807,0.527962,0.104755,-0.827493,-0.039353,-2.543664,1.583753
1404,3269598226,-0.162855,0.547409,0.094813,-0.815372,-0.063726,-2.352584,2.028711
1405,3269631560,-0.163860,0.572488,0.079524,-0.799426,-0.445423,-1.294808,0.853457
1406,3269664894,-0.163801,0.595194,0.063898,-0.784111,-0.262002,0.022527,0.804875
1407,3269698228,-0.164012,0.604739,0.052711,-0.777568,-0.345585,1.257051,-0.242281
1408,3269731562,-0.165440,0.603398,0.048144,-0.778602,-0.462421,2.003061,-1.537521
1409,3269764896,-0.167992,0.600836,0.049761,-0.779935,-0.401978,2.322450,-2.521896
1410,3269798230,-0.171968,0.596551,0.058046,-0.781783,-1.123083,2.322348,-0.894397
1411,3269831564,-0.175024,0.589974,0.070164,-0.785095,-0.337417,1.979670,-0.815578
1412,3269864898,-0.177857,0.588400,0.085265,-0.784144,-0.244565,0.583985,-1.350664
1413,3269898232,-0.181628,0.585189,0.099944,-0.783949,-0.074451,-0.184115,0.578910
1414,3269931566,-0.185529,0.584640,0.105332,-0.782738,-0.162186,-0.433027,1.047356
1415,3269964900,-0.192274,0.596055,0.099705,-0.773180,-0.925118,-1.143945,1.569261
1416,3269998234,-0.200118,0.614927,0.085967,-0.757910,-1.490950,-0.765092,1.305957
1417,3270031568,-0.207977,0.632229,0.069855,-0.743069,-1.214958,0.277097,1.015556
1418,3270064902,-0.215601,0.639363,0.057003,-0.735855,-0.759019,1.241404,0.111018
1419,3270098236,-0.223144,0.636001,0.051555,-0.736920,-0.525533,1.914929,-0.827501
1420,3270131570,-0.231897,0.623782,0.053927,-0.744453,-1.207954,2.652643,-1.162694
1421,3270164904,-0.242792,0.606419,0.060620,-0.754740,-1.677311,3.301760,-0.991007
1422,3270198238,-0.255079,0.587177,0.069409,-0.765075,-0.908338,3.562787,-1.510221
1423,3270231572,-0.267856,0.567013,0.078856,-0.774939,-0.218921,3.978442,-0.395602
1424,3270264906,-0.280102,0.544712,0.085057,-0.785873,-0.385052,4.212206,0.278584
1425,3270298240,-0.293335,0.525829,0.085107,-0.793860,0.701153,4.344822,0.894108
1426,3270331574,-0.306945,0.508168,0.079490,-0.800769,0.397765,3.687548,0.443918
1427,3270364908,-0.325065,0.502670,0.066012,-0.798309,-0.936181,2.934585,-0.525990
1428,3270398242,-0.351724,0.511252,0.045474,-0.782842,-0.452627,2.450863,-1.359871
1429,3270431576,-0.386993,0.527303,0.021164,-0.756134,1.069700,1.541482,-0.654023
1430,3270464910,-0.428764,0.537993,-0.001618,-0.725756,0.850244,0.280161,0.206904
1431,3270498244,-0.476125,0.538341,-0.019224,-0.695071,0.347130,-0.160512,0.276421
1432,3270531578,-0.527068,0.530268,-0.030526,-0.663387,0.950915,-0.847896,0.581840
1433,3270564912,-0.577711,0.515436,-0.035454,-0.631916,1.303981,-1.668924,1.576017
1434,3270598246,-0.624949,0.496790,-0.036249,-0.601102,0.700385,-1.680478,1.136962
1435,3270631580,-0.667105,0.478686,-0.036618,-0.569640,0.804276,-2.237973,1.122374
1436,3270664914,-0.702392,0.464817,-0.039888,-0.537586,0.876715,-2.747284,0.618019
1437,3270698248,-0.729782,0.459305,-0.050386,-0.503902,0.271712,-3.088523,-0.100700
1438,3270731582,-0.750063,0.459151,-0.063841,-0.471709,-0.168671,-3.840269,-0.482201
1439,3270764916,-0.764119,0.462304,-0.071528,-0.444163,-0.035095,-4.718434,-0.376542
1440,3270798250,-0.774693,0.460625,-0.068451,-0.427774,-1.683109,-4.327170,1.993436
1441,3270831584,-0.780900,0.454909,-0.056731,-0.424305,-0.936874,-3.705803,0.137471
1442,3270864918,-0.779937,0.458714,-0.059506,-0.421590,-0.594202,-3.411044,0.028337
1443,3270898252,-0.772275,0.467186,-0.073884,-0.424111,-1.402729,-4.500629,0.784131
1444,3270931586,-0.760601,0.471277,-0.082187,-0.438896,-1.589586,-4.444672,1.295569
1445,3270964920,-0.745175,0.471327,-0.085309,-0.463990,-1.374519,-3.401314,1.375887
1446,3270998254,-0.723891,0.472609,-0.092011,-0.494121,-1.180984,-2.295257,1.020419
1447,3271031588,-0.696602,0.476672,-0.104956,-0.525845,-1.005063,-1.998773,1.663556
1448,3271064922,-0.663929,0.480504,-0.119931,-0.560294,-1.017652,-2.084398,1.930703
1449,3271098256,-0.627596,0.480828,-0.130156,-0.598319,-1.455887,-1.101761,0.868718
1450,3271131590,-0.589015,0.480463,-0.139241,-0.634687,-2.253453,-0.163592,0.388237
