sep=,
DeviceTag:,R_Wrist
FirmwareVersion:,2.2.1
AppVersion:,2023.6.0
SyncStatus:,Synced
OutputRate:,30Hz
FilterProfile:,General
Measurement Mode:,Sensor fusion Mode - Complete(Quaternion)
StartTime: ,2026-08-21_19:20:22_545 AEST
© Movella Technologies B. V. 2005-2026

PacketCounter,SampleTimeFine,Quat_W,Quat_X,Quat_Y,Quat_Z,FreeAcc_X,FreeAcc_Y,FreeAcc_Z
1,466512233,0.630804,0.444150,0.399797,-0.494954,-0.049831,-0.576282,0.122074
2,466545567,0.633340,0.443360,0.398311,-0.493620,-0.258324,-0.563600,-0.001364
3,466578901,0.635911,0.442461,0.396223,-0.492802,-0.409303,-0.469434,0.018137
4,466612235,0.638048,0.441839,0.393183,-0.493033,-0.402706,-0.255223,0.076094
5,466645569,0.639799,0.441202,0.389672,-0.494120,-0.354491,-0.106114,-0.122594
6,466678903,0.641102,0.440809,0.386027,-0.495640,-0.332435,0.102209,-0.158965
7,466712237,0.641999,0.440724,0.382560,-0.497241,-0.387383,0.146427,-0.135511
8,466745571,0.642121,0.441186,0.379423,-0.499073,-0.451591,0.108405,-0.212520
9,466778905,0.641393,0.442243,0.376685,-0.501143,-0.445136,0.078053,-0.403974
10,466812239,0.639967,0.443618,0.374722,-0.503220,-0.374632,0.047826,-0.480659
11,466845573,0.638033,0.444899,0.374133,-0.504979,-0.320864,0.008752,-0.471914
12,466878907,0.635475,0.446171,0.375205,-0.506285,-0.195809,0.003002,-0.502151
13,466912241,0.632542,0.447394,0.378296,-0.506579,0.010846,-0.036921,-0.269073
14,466945575,0.629850,0.447704,0.383819,-0.505504,0.107352,-0.193428,-0.015270
15,466978909,0.627495,0.447281,0.390913,-0.503365,0.091227,-0.399798,0.159863
16,467012243,0.625518,0.446703,0.397995,-0.500785,0.103954,-0.742314,0.209491
17,467045577,0.624116,0.445962,0.404023,-0.498360,0.147273,-0.916937,0.156807
18,467078911,0.623342,0.445162,0.408283,-0.496569,0.166367,-0.953000,0.132819
19,467112245,0.623027,0.444574,0.410602,-0.495578,0.290404,-0.970051,0.104023
20,467145579,0.623317,0.443931,0.412086,-0.494558,0.492159,-0.935198,-0.043638
21,467178913,0.624589,0.442414,0.414374,-0.492395,0.651840,-0.856359,-0.140813
22,467212247,0.626985,0.439688,0.417944,-0.488761,0.642597,-0.766251,-0.121993
23,467245581,0.630225,0.436478,0.421841,-0.484101,0.664699,-0.729098,-0.025057
24,467278915,0.634190,0.433196,0.425388,-0.478737,0.601881,-0.647122,0.012728
25,467312249,0.638910,0.429859,0.428295,-0.472841,0.632467,-0.556506,-0.041975
26,467345583,0.644399,0.426310,0.430733,-0.466348,0.552931,-0.449677,0.011076
27,467378917,0.650471,0.422419,0.432900,-0.459400,0.471853,-0.360348,0.015033
28,467412251,0.656981,0.418224,0.435003,-0.451928,0.430317,-0.301506,0.035659
29,467445585,0.663939,0.413514,0.437078,-0.444021,0.306988,-0.278132,0.108953
30,467478919,0.671050,0.408754,0.438298,-0.436472,0.037490,-0.205591,0.224817
31,467512253,0.677812,0.404966,0.437615,-0.430195,-0.116133,-0.138085,0.126137
32,467545587,0.684056,0.402099,0.435507,-0.425109,-0.139625,-0.049752,-0.073126
33,467578921,0.689731,0.399496,0.433190,-0.420739,-0.241747,0.074062,-0.199520
34,467612255,0.694624,0.397216,0.430966,-0.417116,-0.357261,0.278283,-0.217842
35,467645589,0.698446,0.395673,0.428933,-0.414286,-0.344549,0.461813,-0.256932
36,467678923,0.701347,0.394417,0.428022,-0.411516,-0.278554,0.546561,-0.246158
37,467712257,0.703700,0.392451,0.429237,-0.408098,-0.222746,0.559012,-0.242032
38,467745591,0.705567,0.389839,0.432326,-0.404099,-0.323587,0.491355,-0.134871
39,467778925,0.706798,0.387612,0.435782,-0.400360,-0.390911,0.344812,-0.117682
40,467812259,0.707253,0.386632,0.438469,-0.397559,-0.391054,0.225556,-0.070669
41,467845593,0.706880,0.386796,0.440354,-0.395977,-0.388780,0.147409,0.047866
42,467878927,0.705651,0.387858,0.441700,-0.395632,-0.349522,0.053141,0.032264
43,467912261,0.703634,0.389573,0.443037,-0.396045,-0.184202,-0.107638,0.032209
44,467945595,0.701583,0.390486,0.445198,-0.396360,-0.024650,-0.254358,-0.013090
45,467978929,0.699890,0.390500,0.447647,-0.396581,-0.139663,-0.394756,-0.033616
46,468012263,0.697929,0.391140,0.448943,-0.397940,-0.129714,-0.387154,-0.161546
47,468045597,0.695474,0.392557,0.449337,-0.400390,0.080181,-0.223786,-0.200224
48,468078931,0.692931,0.393775,0.450076,-0.402765,0.196178,-0.034464,-0.186603
49,468112265,0.690233,0.395214,0.451296,-0.404619,0.257707,0.048814,-0.073434
50,468145599,0.687520,0.397336,0.452716,-0.405572,0.348758,0.080227,-0.074188
51,468178933,0.685106,0.399682,0.454761,-0.405063,0.454436,0.045610,-0.104020
52,468212267,0.683221,0.401383,0.458242,-0.402636,0.504347,-0.156253,-0.045341
53,468245601,0.681896,0.402297,0.463073,-0.398421,0.479566,-0.382910,-0.167015
54,468278935,0.681107,0.402348,0.469091,-0.392636,0.547778,-0.473951,0.087664
55,468312269,0.681146,0.400675,0.476163,-0.385706,0.559921,-0.551789,0.221850
56,468345603,0.681848,0.398604,0.482468,-0.378712,0.426889,-0.711214,-0.000532
57,468378937,0.682920,0.398132,0.485963,-0.372762,0.417461,-0.756001,0.129036
58,468412271,0.684841,0.398735,0.486230,-0.368218,0.351207,-0.676936,0.177267
59,468445605,0.687725,0.400111,0.483634,-0.364753,0.095137,-0.664233,0.085381
60,468478939,0.690866,0.402251,0.479215,-0.362287,-0.134086,-0.589468,0.194950
61,468512273,0.693984,0.403742,0.474866,-0.360391,-0.227475,-0.366972,0.076611
62,468545607,0.697109,0.403696,0.471869,-0.358343,-0.428408,-0.303549,-0.103024
63,468578941,0.699892,0.402784,0.469996,-0.356399,-0.668040,-0.459733,-0.305006
64,468612275,0.701575,0.402216,0.468447,-0.355772,-0.702697,-0.447642,-0.284013
65,468645609,0.702234,0.402029,0.466744,-0.356918,-0.683829,-0.240938,-0.177730
66,468678943,0.702034,0.402417,0.464587,-0.359678,-0.576453,-0.023071,-0.176751
67,468712277,0.700927,0.403649,0.462262,-0.363433,-0.387232,0.158547,-0.210283
68,468745611,0.699313,0.405087,0.460740,-0.366859,-0.161978,0.270273,-0.056003
69,468778945,0.697846,0.405553,0.460833,-0.369014,-0.070214,0.223318,0.139643
70,468812279,0.696720,0.405237,0.461820,-0.370253,-0.159525,0.137513,0.187354
71,468845613,0.695563,0.405530,0.462113,-0.371739,-0.205729,0.023388,0.171647
72,468878947,0.694111,0.406843,0.461264,-0.374067,-0.150773,-0.078707,0.050030
73,468912281,0.692449,0.408592,0.459827,-0.376997,-0.112272,-0.129907,-0.091154
74,468945615,0.690502,0.410590,0.458116,-0.380463,-0.174780,-0.251837,-0.090131
75,468978949,0.688139,0.412818,0.456237,-0.384569,-0.124863,-0.304535,-0.200602
76,469012283,0.685379,0.415043,0.454598,-0.389020,-0.049053,-0.345702,-0.056190
77,469045617,0.682417,0.416737,0.453583,-0.393573,-0.018796,-0.401839,0.042296
78,469078951,0.679380,0.418124,0.452967,-0.398041,0.099992,-0.408107,-0.153432
79,469112285,0.676547,0.419247,0.452675,-0.401998,0.231035,-0.434004,-0.148380
80,469145619,0.674262,0.419724,0.452811,-0.405172,0.267140,-0.470058,-0.112781
81,469178953,0.672463,0.419962,0.452792,-0.407929,0.205042,-0.482153,-0.108570
82,469212287,0.670595,0.420901,0.451861,-0.411056,0.113878,-0.458362,0.013306
83,469245621,0.668253,0.422281,0.450403,-0.415036,-0.131748,-0.427925,0.196393
84,469278955,0.665176,0.423762,0.449072,-0.419884,-0.172799,-0.441147,-0.045833
85,469312289,0.661817,0.425142,0.448217,-0.424681,-0.232163,-0.489014,-0.108930
86,469345623,0.658909,0.425795,0.447824,-0.428944,-0.286695,-0.553823,0.120265
87,469378957,0.656299,0.426209,0.446858,-0.433516,-0.484069,-0.461767,0.230644
88,469412291,0.653375,0.427278,0.444569,-0.439195,-0.451963,-0.401915,-0.004002
89,469445625,0.649723,0.428717,0.441984,-0.445773,-0.234369,-0.330648,-0.158060
90,469478959,0.645509,0.430017,0.439842,-0.452707,-0.056310,-0.141755,-0.370027
91,469512293,0.640800,0.431525,0.437931,-0.459760,0.185692,-0.063753,-0.492876
92,469545627,0.635878,0.433158,0.436485,-0.466385,0.427107,0.005221,-0.413548
93,469578961,0.630861,0.434921,0.435619,-0.472329,0.614946,0.105774,-0.302464
94,469612295,0.626096,0.436896,0.435368,-0.477055,0.779465,0.141841,-0.084139
95,469645629,0.622251,0.438527,0.436149,-0.479866,0.871155,0.054375,-0.092361
96,469678963,0.619548,0.439766,0.437912,-0.480624,0.762446,-0.141582,0.013033
97,469712297,0.617878,0.441000,0.439579,-0.480121,0.565905,-0.360951,0.162804
98,469745631,0.617009,0.442258,0.440192,-0.479520,0.405472,-0.515078,0.130195
99,469778965,0.616716,0.443525,0.439141,-0.479689,0.208434,-0.479488,0.007394
100,469812299,0.616546,0.445157,0.436322,-0.480967,0.095074,-0.402595,-0.019184
101,469845633,0.616350,0.446955,0.432520,-0.482981,0.087985,-0.154584,0.080683
102,469878967,0.616127,0.448742,0.428390,-0.485285,0.043947,0.036079,0.242532
103,469912301,0.616082,0.450616,0.423839,-0.487595,-0.052981,0.165875,0.276375
104,469945635,0.615998,0.453044,0.418170,-0.490340,-0.215627,0.274462,-0.053801
105,469978969,0.615190,0.456631,0.411113,-0.493980,-0.333761,0.366097,-0.243231
106,470012303,0.613318,0.461129,0.403400,-0.498469,-0.288451,0.371692,-0.299863
107,470045637,0.610645,0.465740,0.396291,-0.503144,-0.119536,0.312478,-0.322911
108,470078971,0.607576,0.469984,0.390480,-0.507438,-0.119663,0.211823,-0.167779
109,470112305,0.604136,0.473858,0.385668,-0.511604,-0.149768,0.167309,-0.098508
110,470145639,0.599948,0.477988,0.381201,-0.516020,-0.161465,0.074616,-0.112697
111,470178973,0.595273,0.482356,0.377124,-0.520347,-0.066443,0.012964,-0.052695
112,470212307,0.590601,0.486401,0.374027,-0.524127,-0.029854,-0.132184,-0.042489
113,470245641,0.586047,0.490097,0.371777,-0.527386,-0.055263,-0.308817,-0.092921
114,470278975,0.581437,0.493674,0.369815,-0.530522,-0.038448,-0.423714,-0.072370
115,470312309,0.576874,0.497043,0.367838,-0.533723,-0.021386,-0.520423,-0.047701
116,470345643,0.572549,0.500165,0.365885,-0.536797,0.074884,-0.560081,-0.012993
117,470378977,0.568772,0.502833,0.364361,-0.539351,0.088521,-0.668993,0.164469
118,470412311,0.565696,0.504944,0.363208,-0.541387,0.046671,-0.696178,0.253753
119,470445645,0.563254,0.506741,0.361765,-0.543217,-0.008150,-0.737992,0.069263
120,470478979,0.561329,0.508309,0.359921,-0.544968,-0.008472,-0.779333,0.010583
121,470512313,0.560034,0.509211,0.358485,-0.546402,0.000996,-0.803505,-0.039941
122,470545647,0.559445,0.509302,0.357710,-0.547428,0.036640,-0.697908,-0.149799
123,470578981,0.559468,0.508964,0.357251,-0.548017,0.088849,-0.606834,-0.102814
124,470612315,0.560189,0.508308,0.357135,-0.547966,0.127379,-0.527423,-0.073088
125,470645649,0.561628,0.507286,0.357660,-0.547096,0.146148,-0.453620,-0.013274
126,470678983,0.563685,0.505940,0.358811,-0.545471,0.087241,-0.426803,-0.032372
127,470712317,0.566246,0.504346,0.360384,-0.543254,0.067329,-0.469768,-0.108710
128,470745651,0.569343,0.502465,0.362126,-0.540595,-0.019631,-0.460150,-0.197803
129,470778985,0.572721,0.500410,0.363829,-0.537782,-0.020258,-0.425073,-0.206430
130,470812319,0.576302,0.497965,0.365926,-0.534795,0.012939,-0.332022,-0.166735
131,470845653,0.579934,0.495242,0.368519,-0.531608,0.036870,-0.280876,-0.249656
132,470878987,0.583477,0.492537,0.371533,-0.528134,0.148403,-0.168188,-0.198092
133,470912321,0.587179,0.489599,0.375110,-0.524220,0.221128,-0.064124,-0.051379
134,470945655,0.591108,0.486653,0.379077,-0.519674,0.253661,-0.051433,0.042718
135,470978989,0.595347,0.483897,0.383250,-0.514321,0.250590,-0.104724,0.016875
136,471012323,0.600070,0.480939,0.387735,-0.508208,0.235860,-0.159407,-0.082261
137,471045657,0.605348,0.477648,0.392385,-0.501438,0.099212,-0.226698,-0.013781
138,471078991,0.610795,0.474206,0.396730,-0.494636,-0.015777,-0.282396,0.026632
139,471112325,0.616039,0.470808,0.400614,-0.488205,-0.060635,-0.255888,0.061601
140,471145659,0.621082,0.467204,0.404298,-0.482204,-0.036737,-0.188786,0.118612
141,471178993,0.626070,0.463205,0.408014,-0.476448,-0.014081,-0.112762,0.036510
142,471212327,0.631036,0.459127,0.411441,-0.470864,-0.005073,-0.011857,-0.090936
143,471245661,0.635877,0.455252,0.414299,-0.465578,0.021088,0.111794,-0.167161
144,471278995,0.640463,0.451586,0.416715,-0.460680,-0.013837,0.253031,-0.163424
145,471312329,0.644541,0.448294,0.418834,-0.456265,-0.008836,0.339693,-0.054669
146,471345663,0.648095,0.445531,0.420606,-0.452291,-0.002527,0.428343,0.013522
147,471378997,0.651388,0.443383,0.421757,-0.448583,-0.055903,0.471418,0.078455
148,471412331,0.654478,0.442158,0.422041,-0.445015,-0.163703,0.450990,0.042068
149,471445665,0.657127,0.441748,0.421812,-0.441721,-0.218386,0.360069,-0.094179
150,471478999,0.659320,0.441412,0.421894,-0.438701,-0.236630,0.287763,-0.254532
151,471512333,0.661057,0.440865,0.422578,-0.435969,-0.328335,0.234583,-0.296879
152,471545667,0.662034,0.440508,0.423515,-0.433936,-0.329085,0.204500,-0.151863
153,471579001,0.662311,0.440458,0.424469,-0.432628,-0.321885,0.191696,-0.024726
154,471612335,0.662201,0.440537,0.425333,-0.431868,-0.313030,0.134065,0.058268
155,471645669,0.661634,0.440931,0.425713,-0.431960,-0.360809,0.030906,0.079465
156,471679003,0.660367,0.442057,0.425106,-0.433343,-0.325109,-0.050168,-0.002877
157,471712337,0.658526,0.443712,0.423724,-0.435801,-0.227093,-0.071593,-0.116484
158,471745671,0.656286,0.445305,0.422267,-0.438957,-0.143135,-0.075040,-0.132972
159,471779005,0.653713,0.446675,0.421144,-0.442469,-0.051409,-0.049961,-0.157432
160,471812339,0.650944,0.447888,0.420351,-0.446065,0.047696,0.023605,-0.103282
161,471845673,0.648164,0.449112,0.419672,-0.449508,0.115086,0.052916,0.013860
162,471879007,0.645376,0.450761,0.418693,-0.452771,0.134970,0.061830,0.063923
163,471912341,0.642691,0.452839,0.417507,-0.455603,0.178053,-0.012120,0.112232
164,471945675,0.640261,0.454841,0.416651,-0.457808,0.129373,-0.172210,0.080992
165,471979009,0.638131,0.456357,0.416430,-0.459471,0.100302,-0.373117,-0.017385
166,472012343,0.636314,0.457376,0.416562,-0.460856,0.036801,-0.572918,0.023220
167,472045677,0.634784,0.458013,0.416587,-0.462309,-0.028447,-0.709793,0.076219
168,472079011,0.633480,0.458213,0.416347,-0.464111,-0.013690,-0.739275,0.144447
169,472112345,0.632374,0.458057,0.415744,-0.466309,-0.013057,-0.678969,0.122895
170,472145679,0.631434,0.457778,0.414770,-0.468718,0.028246,-0.640538,0.022504
171,472179013,0.630655,0.457429,0.413825,-0.470937,0.117729,-0.537151,-0.264296
172,472212347,0.630029,0.456743,0.413714,-0.472536,0.261814,-0.463262,-0.381630
173,472245681,0.629569,0.455379,0.415185,-0.473175,0.340268,-0.436178,-0.353131
174,472279015,0.629252,0.453625,0.418157,-0.472664,0.425661,-0.455285,-0.267112
175,472312349,0.629278,0.451775,0.422186,-0.470816,0.526661,-0.502695,-0.120440
176,472345683,0.630037,0.449526,0.427197,-0.467422,0.570209,-0.631232,0.048400
177,472379017,0.631561,0.446849,0.432814,-0.462741,0.561595,-0.648616,0.039838
178,472412351,0.633667,0.444010,0.438538,-0.457172,0.650688,-0.674157,-0.081963
179,472445685,0.636563,0.440583,0.444779,-0.450385,0.771585,-0.660265,-0.138504
180,472479019,0.640482,0.436086,0.451844,-0.442096,0.756134,-0.568079,-0.089607
181,472512353,0.644967,0.431194,0.458660,-0.433268,0.646664,-0.404601,0.091884
182,472545687,0.649573,0.427066,0.463799,-0.424923,0.616303,-0.232744,-0.007613
183,472579021,0.654215,0.424053,0.467157,-0.417070,0.619511,-0.044347,0.043944
184,472612355,0.659221,0.421463,0.469532,-0.409068,0.584284,0.124016,0.045981
185,472645689,0.664938,0.418723,0.471609,-0.400142,0.483077,0.250269,0.076198
186,472679023,0.671623,0.415455,0.473776,-0.389689,0.271469,0.190670,0.120565
187,472712357,0.679198,0.411378,0.476275,-0.377651,0.004678,0.042577,0.175127
188,472745691,0.687211,0.406226,0.479131,-0.364906,-0.271854,-0.199113,0.225031
189,472779025,0.694986,0.400432,0.481529,-0.353240,-0.629889,-0.387171,0.198828
190,472812359,0.701811,0.395626,0.481930,-0.344507,-0.862638,-0.384243,0.116014
191,472845693,0.707540,0.392703,0.479770,-0.339107,-0.969300,-0.216321,0.073887
192,472879027,0.712331,0.391062,0.476068,-0.336176,-0.935704,0.038074,-0.095020
193,472912361,0.716427,0.389539,0.472359,-0.334470,-0.969276,0.256877,-0.234675
194,472945695,0.719692,0.387984,0.469306,-0.333562,-1.063827,0.443613,-0.410996
195,472979029,0.721733,0.386892,0.467190,-0.333393,-1.037359,0.516993,-0.485240
196,473012363,0.722490,0.386080,0.466542,-0.333602,-0.881039,0.604668,-0.598582
197,473045697,0.722212,0.384770,0.468261,-0.333309,-0.669871,0.541367,-0.600739
198,473079031,0.721220,0.382162,0.472827,-0.332007,-0.512855,0.366063,-0.488401
199,473112365,0.719615,0.378177,0.479727,-0.330149,-0.362328,0.118823,-0.330945
200,473145699,0.717382,0.373887,0.487384,-0.328677,-0.245029,-0.131184,-0.008085
201,473179033,0.714947,0.370229,0.494115,-0.328074,-0.040882,-0.274733,0.239495
202,473212367,0.712920,0.367521,0.498891,-0.328300,0.113714,-0.329450,0.338409
203,473245701,0.711658,0.365673,0.501350,-0.329356,0.239200,-0.345214,0.350324
204,473279035,0.711031,0.364680,0.501702,-0.331268,0.310160,-0.301887,0.241295
205,473312369,0.710864,0.364287,0.500676,-0.333606,0.409712,-0.184159,0.086980
206,473345703,0.711076,0.363992,0.498953,-0.336046,0.409928,-0.057501,-0.050462
207,473379037,0.711562,0.363766,0.496880,-0.338326,0.386763,0.039567,-0.000338
208,473412371,0.712422,0.363491,0.494567,-0.340195,0.363565,0.169965,-0.110567
209,473445705,0.713584,0.363512,0.491936,-0.341550,0.264783,0.264397,-0.093685
210,473479039,0.714951,0.364063,0.488932,-0.342416,0.150805,0.292512,-0.032548
211,473512373,0.716344,0.365070,0.485710,-0.343019,0.004531,0.320112,-0.123546
212,473545707,0.717488,0.366641,0.482468,-0.343528,-0.068438,0.263969,-0.189761
213,473579041,0.718359,0.368181,0.479800,-0.343795,-0.104988,0.158184,-0.215234
214,473612375,0.718956,0.369258,0.477989,-0.343915,-0.230393,0.062858,-0.229876
215,473645709,0.718932,0.370445,0.476572,-0.344656,-0.323381,-0.068692,-0.172307
216,473679043,0.718281,0.372006,0.475215,-0.346202,-0.277462,-0.109329,-0.113482
217,473712377,0.717241,0.373355,0.474240,-0.348236,-0.212996,-0.129943,-0.079295
218,473745711,0.715874,0.374419,0.473663,-0.350684,-0.224354,-0.186193,0.003684
219,473779045,0.714085,0.375642,0.473125,-0.353736,-0.115314,-0.253468,-0.044207
220,473812379,0.712003,0.376986,0.472633,-0.357145,-0.025434,-0.229572,0.013482
221,473845713,0.709775,0.378120,0.472367,-0.360714,0.068567,-0.231320,0.064838
222,473879047,0.707491,0.378887,0.472427,-0.364300,0.180949,-0.175298,-0.031561
223,473912381,0.705156,0.379674,0.472547,-0.367834,0.277167,-0.074873,-0.156898
224,473945715,0.702877,0.380720,0.472588,-0.371048,0.404468,0.062891,-0.195019
225,473979049,0.700906,0.381666,0.472884,-0.373422,0.512957,0.193528,-0.152298
226,474012383,0.699258,0.382446,0.473604,-0.374796,0.521283,0.148543,-0.084686
227,474045717,0.697933,0.383311,0.474539,-0.375199,0.514982,0.129703,0.135011
228,474079051,0.697084,0.384366,0.475178,-0.374890,0.432552,-0.061570,0.370578
229,474112385,0.696779,0.385751,0.475003,-0.374256,0.337713,-0.222139,0.266539
230,474145719,0.696946,0.387631,0.473577,-0.373810,0.164894,-0.159369,0.131495
231,474179053,0.697201,0.390297,0.470838,-0.374021,0.028899,0.005564,-0.057337
232,474212387,0.697323,0.393205,0.468168,-0.374099,0.122839,0.152079,-0.187118
233,474245721,0.697694,0.394842,0.467130,-0.372979,0.007838,0.197359,-0.269609
234,474279055,0.697978,0.395951,0.467019,-0.371408,-0.225563,0.058581,-0.145973
235,474312389,0.697815,0.397715,0.466405,-0.370599,-0.319129,-0.062825,-0.036518
236,474345723,0.697418,0.399921,0.464965,-0.370783,-0.359974,-0.095711,0.035494
237,474379057,0.696752,0.402661,0.462478,-0.372177,-0.557134,-0.124926,0.025082
238,474412391,0.695571,0.406219,0.459031,-0.374778,-0.541279,-0.044731,-0.083940
239,474445725,0.693988,0.409897,0.455479,-0.378026,-0.548575,0.046823,-0.200395
240,474479059,0.691905,0.413333,0.452414,-0.381766,-0.600122,0.037930,-0.268755
241,474512393,0.688915,0.416960,0.449748,-0.386353,-0.560046,-0.045332,-0.271777
242,474545727,0.685111,0.420536,0.447681,-0.391605,-0.380668,-0.000816,-0.247560
243,474579061,0.681007,0.423473,0.446465,-0.396951,-0.302754,-0.046588,-0.132015
244,474612395,0.676546,0.426315,0.445680,-0.402382,-0.218052,-0.140612,0.014452
245,474645729,0.671923,0.428973,0.445237,-0.407757,-0.058338,-0.211339,0.163441
246,474679063,0.667659,0.431017,0.444945,-0.412893,0.058665,-0.250608,0.156937
247,474712397,0.663895,0.432861,0.443945,-0.418078,0.074819,-0.267121,0.069953
248,474745731,0.660242,0.435265,0.441685,-0.423721,0.154381,-0.249912,-0.047949
249,474779065,0.656612,0.438085,0.438625,-0.429594,0.286181,-0.224626,-0.071834
250,474812399,0.653317,0.440534,0.435652,-0.435103,0.342027,-0.233932,0.013874
251,474845733,0.650546,0.442622,0.432671,-0.440081,0.306798,-0.245946,0.033231
252,474879067,0.648331,0.444601,0.429392,-0.444544,0.319655,-0.260282,0.124935
253,474912401,0.646861,0.446208,0.426019,-0.448305,0.290565,-0.265914,0.019263
254,474945735,0.646000,0.447598,0.422464,-0.451514,0.139061,-0.222734,0.008368
255,474979069,0.645183,0.449165,0.418405,-0.454893,0.074556,-0.146456,-0.041721
256,475012403,0.644372,0.450802,0.414161,-0.458295,0.087362,-0.067153,-0.100797
257,475045737,0.643783,0.452173,0.410244,-0.461285,0.006657,0.011220,-0.141416
258,475079071,0.643194,0.453514,0.406548,-0.464054,-0.101760,0.045139,-0.090335
259,475112405,0.642457,0.455056,0.402853,-0.466780,-0.169912,0.066447,-0.066791
260,475145739,0.641611,0.456558,0.399450,-0.469394,-0.225942,0.024454,-0.059784
261,475179073,0.640530,0.457999,0.396371,-0.472068,-0.327866,0.017265,-0.075790
262,475212407,0.639002,0.459625,0.393272,-0.475142,-0.372027,-0.023378,-0.186084
263,475245741,0.636931,0.461451,0.390281,-0.478606,-0.354005,-0.066838,-0.161942
264,475279075,0.634502,0.462934,0.388080,-0.482176,-0.318801,-0.075923,-0.151608
265,475312409,0.631800,0.463913,0.386698,-0.485879,-0.315614,-0.111412,-0.164015
266,475345743,0.628705,0.464916,0.385443,-0.489917,-0.204323,-0.147618,-0.172180
267,475379077,0.625466,0.465940,0.384179,-0.494064,-0.056357,-0.110738,-0.170472
268,475412411,0.622351,0.466742,0.383258,-0.497942,0.050257,-0.083758,-0.163618
269,475445745,0.619290,0.467462,0.382674,-0.501518,0.093175,-0.096385,-0.091674
270,475479079,0.616253,0.468337,0.382089,-0.504878,0.163877,-0.122328,-0.016504
271,475512413,0.613318,0.469498,0.381079,-0.508125,0.166733,-0.130088,0.035220
272,475545747,0.610432,0.471181,0.379055,-0.511546,0.094939,-0.129846,0.151261
273,475579081,0.607430,0.473703,0.375579,-0.515340,0.128299,-0.111416,0.049696
274,475612415,0.604627,0.476526,0.371714,-0.518825,0.204038,-0.127642,-0.030755
275,475645749,0.602529,0.478763,0.368813,-0.521271,0.191404,-0.139482,-0.129410
276,475679083,0.601028,0.480433,0.366987,-0.522753,0.066119,-0.175101,-0.148406
277,475712417,0.599807,0.481944,0.365638,-0.523709,-0.008001,-0.205660,-0.170829
278,475745751,0.598610,0.483425,0.364405,-0.524573,-0.033485,-0.177276,-0.151581
279,475779085,0.597397,0.484874,0.363291,-0.525390,-0.066998,-0.194512,-0.088259
280,475812419,0.596212,0.486349,0.362568,-0.525871,-0.062101,-0.236538,-0.054166
281,475845753,0.595364,0.487631,0.362421,-0.525746,-0.103440,-0.304195,0.087220
282,475879087,0.594913,0.488589,0.362578,-0.525260,-0.162803,-0.390159,0.161304
283,475912421,0.594779,0.489256,0.362724,-0.524689,-0.303384,-0.490589,0.139500
284,475945755,0.594604,0.489805,0.362799,-0.524323,-0.331869,-0.575091,0.056417
285,475979089,0.594401,0.490086,0.362935,-0.524196,-0.258364,-0.569038,-0.084777
286,476012423,0.594507,0.489919,0.363299,-0.523980,-0.166202,-0.538943,-0.094506
287,476045757,0.595122,0.489304,0.364120,-0.523285,-0.058490,-0.499844,-0.164854
288,476079091,0.596327,0.488206,0.365689,-0.521845,0.038612,-0.385653,-0.121088
289,476112425,0.598166,0.486655,0.368021,-0.519543,0.091026,-0.337425,-0.096517
290,476145759,0.600622,0.484883,0.370801,-0.516380,0.145889,-0.327272,-0.083850
291,476179093,0.603820,0.482908,0.373795,-0.512328,0.166662,-0.317083,-0.166183
292,476212427,0.607771,0.480785,0.376865,-0.507379,0.112817,-0.286707,-0.217196
293,476245761,0.612172,0.478626,0.380003,-0.501758,0.102637,-0.289110,-0.295126
294,476279095,0.617029,0.475987,0.383819,-0.495374,0.126350,-0.244071,-0.233166
295,476312429,0.622318,0.472861,0.388197,-0.488289,0.051282,-0.263055,-0.145391
296,476345763,0.627842,0.469666,0.392488,-0.480814,0.012344,-0.235394,-0.126186
297,476379097,0.633556,0.466433,0.396377,-0.473216,-0.011203,-0.214895,-0.105564
298,476412431,0.639214,0.463202,0.399877,-0.465777,-0.042294,-0.182851,-0.099298
299,476445765,0.644662,0.460043,0.403108,-0.458558,-0.062283,-0.187604,-0.185203
300,476479099,0.649884,0.456781,0.406357,-0.451527,-0.051169,-0.128077,-0.203668
301,476512433,0.654750,0.453194,0.409880,-0.444879,-0.057497,-0.083051,-0.052808
302,476545767,0.659122,0.449230,0.413811,-0.438761,-0.030843,-0.011692,0.041424
303,476579101,0.663047,0.445150,0.417777,-0.433212,0.001623,0.033582,0.026671
304,476612435,0.666515,0.441696,0.420844,-0.428430,0.019725,0.049474,-0.008919
305,476645769,0.669633,0.439138,0.422613,-0.424439,0.079118,0.061646,-0.085534
306,476679103,0.672619,0.437110,0.423507,-0.420904,0.112365,0.133019,-0.263949
307,476712437,0.675220,0.435484,0.424163,-0.417754,0.065612,0.107170,-0.365449
308,476745771,0.676933,0.434101,0.425438,-0.415116,0.085302,0.129699,-0.278312
309,476779105,0.677797,0.432408,0.427930,-0.412906,0.132612,0.155794,-0.177231
310,476812439,0.677776,0.430426,0.431600,-0.411187,0.172936,0.166865,0.008859
311,476845773,0.676849,0.428355,0.436142,-0.410084,0.352712,0.088179,-0.023522
312,476879107,0.675440,0.426104,0.441439,-0.409082,0.576405,0.085954,0.019205
313,476912441,0.674312,0.423092,0.447398,-0.407593,0.727495,0.053986,0.158608
314,476945775,0.673714,0.419597,0.453213,-0.405767,0.745456,0.024513,0.356959
315,476979109,0.673482,0.416413,0.457901,-0.404166,0.774943,0.006187,0.550825
316,477012443,0.673526,0.413995,0.460699,-0.403395,0.759382,0.023594,0.634842
317,477045777,0.673791,0.412884,0.460915,-0.403844,0.719384,0.114718,0.669931
318,477079111,0.674277,0.413332,0.458321,-0.405524,0.654094,0.182210,0.585431
319,477112445,0.675094,0.414796,0.453760,-0.407794,0.627807,0.277992,0.393250
320,477145779,0.676376,0.416324,0.448409,-0.410024,0.485953,0.378170,0.226771
321,477179113,0.677660,0.418000,0.442637,-0.412463,0.222108,0.363419,0.013565
322,477212447,0.678107,0.420295,0.436776,-0.415633,0.055629,0.363914,-0.112674
323,477245781,0.677139,0.422873,0.431645,-0.419934,-0.154235,0.316877,-0.148726
324,477279115,0.674233,0.425322,0.427763,-0.426064,-0.448515,0.330313,-0.440311
325,477312449,0.668994,0.428337,0.425097,-0.433898,-0.168743,0.289565,-0.397593
326,477345783,0.663280,0.430834,0.424257,-0.440964,0.198610,0.265310,-0.195087
327,477379117,0.658834,0.431685,0.425491,-0.445582,0.442694,0.124516,-0.137132
328,477412451,0.655913,0.431731,0.427309,-0.448100,0.341666,-0.075447,-0.132836
329,477445785,0.653916,0.431878,0.428547,-0.449693,0.329568,-0.247924,-0.057454
330,477479119,0.652338,0.432044,0.429037,-0.451355,0.192213,-0.285079,-0.017783
331,477512453,0.650284,0.432732,0.428349,-0.454303,-0.368317,-0.147303,0.017516
332,477545787,0.646362,0.434759,0.426540,-0.459636,-0.789873,-0.052746,-0.150864
333,477579121,0.640794,0.437675,0.424949,-0.466093,-0.548004,0.018715,-0.413137
334,477612455,0.635426,0.440166,0.424860,-0.471150,-0.252578,-0.040749,-0.280219
335,477645789,0.633019,0.440346,0.427200,-0.472105,-0.089945,-0.298496,0.089182
336,477679123,0.633866,0.438166,0.431085,-0.469459,-0.174974,-0.725288,-0.084432
337,477712457,0.635837,0.435214,0.434701,-0.466193,-0.222746,-0.978716,-0.247530
338,477745791,0.637682,0.432527,0.436865,-0.464147,0.002237,-1.062503,-0.169778
339,477779125,0.639843,0.429791,0.437760,-0.462868,0.214390,-1.066496,0.023927
340,477812459,0.642555,0.426925,0.437476,-0.462032,0.391430,-0.867586,0.340785
341,477845793,0.646553,0.424040,0.435738,-0.460752,0.375591,-0.654394,0.394163
342,477879127,0.652340,0.421042,0.432540,-0.458351,0.307115,-0.432615,0.377836
343,477912461,0.659760,0.417664,0.428482,-0.454618,0.070799,-0.232581,0.129673
344,477945795,0.667999,0.414101,0.423956,-0.450066,-0.173472,-0.044762,-0.154277
345,477979129,0.675995,0.410961,0.419203,-0.445433,-0.369508,0.173984,-0.351961
346,478012463,0.683251,0.408064,0.415176,-0.440773,-0.468934,0.352254,-0.483950
347,478045797,0.689405,0.405114,0.412750,-0.436166,-0.825983,0.535801,-0.432218
348,478079131,0.693669,0.402662,0.411893,-0.432473,-1.035362,0.577633,-0.412307
349,478112465,0.696125,0.400753,0.412597,-0.429617,-0.981776,0.594991,-0.437624
350,478145799,0.697702,0.398546,0.415039,-0.426752,-0.932136,0.549696,-0.326908
351,478179133,0.698773,0.395864,0.418518,-0.424089,-0.895230,0.414974,-0.200094
352,478212467,0.699279,0.393199,0.422104,-0.422174,-0.849448,0.223395,-0.103351
353,478245801,0.698802,0.391300,0.425051,-0.421773,-0.711952,0.122254,-0.085962
354,478279135,0.697105,0.390438,0.427135,-0.423272,-0.501672,0.113366,-0.089422
355,478312469,0.694479,0.390429,0.428486,-0.426222,-0.232312,0.182009,-0.056770
356,478345803,0.691280,0.390824,0.429625,-0.429896,0.028280,0.194005,-0.084807
357,478379137,0.687887,0.391255,0.431142,-0.433415,0.272686,0.230325,-0.017007
358,478412471,0.684701,0.391356,0.433389,-0.436119,0.435878,0.209149,0.096648
359,478445805,0.682059,0.391089,0.436190,-0.437703,0.533242,0.100783,0.202932
360,478479139,0.680067,0.390717,0.438958,-0.438368,0.553591,-0.112928,0.229528
361,478512473,0.678691,0.390497,0.440928,-0.438719,0.548936,-0.227848,0.217853
362,478545807,0.677900,0.390506,0.441642,-0.439214,0.521047,-0.303478,0.124341
363,478579141,0.677538,0.390814,0.441167,-0.439975,0.531724,-0.276845,0.014174
364,478612475,0.677507,0.391250,0.439986,-0.440818,0.531031,-0.204761,-0.092325
365,478645809,0.677752,0.391875,0.438401,-0.441464,0.449363,-0.046571,-0.139818
366,478679143,0.678224,0.392698,0.436716,-0.441680,0.454370,0.025927,-0.130305
367,478712477,0.678972,0.393417,0.435425,-0.441164,0.394584,0.031214,-0.169131
368,478745811,0.679955,0.394211,0.434487,-0.439865,0.287767,0.035115,-0.123903
369,478779145,0.681279,0.395050,0.433823,-0.437713,0.186013,-0.004377,-0.040576
370,478812479,0.682981,0.395642,0.433460,-0.434876,0.032061,-0.133933,-0.043569
371,478845813,0.684597,0.396495,0.432836,-0.432171,-0.221344,-0.231603,-0.078118
372,478879147,0.685566,0.398143,0.431548,-0.430405,-0.295253,-0.249980,-0.146858
373,478912481,0.685907,0.400041,0.430383,-0.429267,-0.249442,-0.212239,-0.156465
374,478945815,0.685891,0.401355,0.430321,-0.428125,-0.267874,-0.227436,-0.183171
375,478979149,0.685616,0.402100,0.431425,-0.426754,-0.269237,-0.266695,-0.155049
376,479012483,0.685242,0.402261,0.433476,-0.425122,-0.224413,-0.270237,-0.074801
377,479045817,0.684911,0.401817,0.436126,-0.423361,-0.193970,-0.350058,-0.041369
378,479079151,0.684552,0.401152,0.438793,-0.421814,-0.146072,-0.328645,0.000381
379,479112485,0.684111,0.400646,0.440882,-0.420831,-0.106334,-0.318449,0.009112
380,479145819,0.683575,0.400619,0.442130,-0.420418,-0.054058,-0.292655,0.069714
381,479179153,0.683089,0.400760,0.442958,-0.420203,0.018615,-0.313601,0.092187
382,479212487,0.682958,0.400490,0.443766,-0.419820,0.027699,-0.392378,0.008687
383,479245821,0.683038,0.400138,0.444232,-0.419533,-0.020845,-0.467125,0.001696
384,479279155,0.683271,0.399845,0.444195,-0.419471,0.010342,-0.412697,-0.045224
385,479312489,0.683711,0.399300,0.444063,-0.419414,0.063310,-0.355962,-0.069655
386,479345823,0.684297,0.398507,0.444074,-0.419200,0.069951,-0.259326,-0.028557
387,479379157,0.685017,0.397604,0.444159,-0.418791,0.066222,-0.219318,-0.018596
388,479412491,0.685909,0.396656,0.444165,-0.418223,0.060285,-0.170583,-0.093557
389,479445825,0.686931,0.395799,0.443920,-0.417618,0.010216,-0.136114,-0.121625
390,479479159,0.687890,0.395217,0.443425,-0.417116,-0.004545,-0.080275,-0.137557
391,479512493,0.688737,0.394731,0.443064,-0.416562,0.016464,0.006531,-0.116872
392,479545827,0.689501,0.394117,0.443078,-0.415863,0.031911,0.044543,-0.112158
393,479579161,0.690257,0.393515,0.443336,-0.414904,0.045315,0.061066,-0.069525
394,479612495,0.691082,0.392904,0.443637,-0.413785,0.027490,0.000155,-0.037511
395,479645829,0.691931,0.392463,0.443658,-0.412762,-0.043680,-0.018125,0.019478
396,479679163,0.692692,0.392193,0.443439,-0.411976,-0.096979,-0.140557,0.109017
397,479712497,0.693446,0.391661,0.443197,-0.411476,-0.166972,-0.223946,0.032583
398,479745831,0.694078,0.391126,0.442542,-0.411623,-0.243248,-0.295916,0.033322
399,479779165,0.694472,0.390916,0.441092,-0.412713,-0.256351,-0.237348,0.008632
400,479812499,0.694525,0.390937,0.439209,-0.414608,-0.209853,-0.078806,-0.004913
401,479845833,0.694326,0.390940,0.437484,-0.416756,-0.134032,0.092695,-0.048025
402,479879167,0.693956,0.390872,0.436206,-0.418771,-0.084045,0.212592,-0.083309
403,479912501,0.693443,0.390952,0.435273,-0.420513,-0.035930,0.303936,-0.180689
404,479945835,0.692804,0.391266,0.434592,-0.421976,-0.009042,0.331662,-0.224232
405,479979169,0.692000,0.391769,0.434216,-0.423215,0.043924,0.355287,-0.264833
406,480012503,0.691042,0.392454,0.434208,-0.424151,0.084563,0.351979,-0.243769
407,480045837,0.689942,0.393324,0.434471,-0.424868,0.122990,0.342066,-0.105501
408,480079171,0.688884,0.394285,0.434879,-0.425275,0.129657,0.271725,-0.013870
409,480112505,0.688040,0.395463,0.435047,-0.425376,0.093875,0.171835,0.002947
410,480145839,0.687354,0.396993,0.434719,-0.425395,0.094760,0.106500,-0.030272
411,480179173,0.686805,0.398526,0.434264,-0.425313,0.057237,0.079920,-0.035583
412,480212507,0.686279,0.399742,0.434210,-0.425077,0.025426,-0.000958,-0.038448
413,480245841,0.685876,0.400501,0.434592,-0.424621,0.006785,-0.056166,-0.031333
414,480279175,0.685654,0.401021,0.434919,-0.424154,0.001967,-0.107125,-0.022499
415,480312509,0.685569,0.401595,0.434757,-0.423915,-0.026773,-0.087995,-0.019894
416,480345843,0.685463,0.402266,0.434197,-0.424024,-0.043659,0.005237,0.016113
417,480379177,0.685304,0.402898,0.433606,-0.424285,-0.020239,0.033503,0.004790
418,480412511,0.685156,0.403365,0.433368,-0.424324,0.022904,0.057652,0.001193
419,480445845,0.685220,0.403410,0.433570,-0.423971,-0.011469,0.017198,0.019430
420,480479179,0.685380,0.403309,0.433822,-0.423549,-0.038466,-0.043432,-0.094852
421,480512513,0.685595,0.403071,0.434107,-0.423137,-0.016349,-0.030255,-0.131341
422,480545847,0.685837,0.402537,0.434630,-0.422716,0.022986,0.008308,-0.081541
423,480579181,0.686081,0.401885,0.435318,-0.422232,0.030487,-0.012836,-0.005854
424,480612515,0.686427,0.401211,0.435913,-0.421695,0.070257,-0.004289,-0.011591
425,480645849,0.686930,0.400643,0.436106,-0.421218,0.039006,0.002293,0.028705
426,480679183,0.687497,0.400374,0.435791,-0.420875,0.032259,0.045463,-0.059491
427,480712517,0.688033,0.400204,0.435473,-0.420489,0.054936,0.104088,-0.094111
428,480745851,0.688598,0.399746,0.435677,-0.419788,0.049172,0.086291,-0.124544
429,480779185,0.689172,0.399266,0.436065,-0.418900,-0.028227,0.084114,-0.186343
430,480812519,0.689626,0.399153,0.436247,-0.418070,-0.012770,0.058948,-0.127234
431,480845853,0.690025,0.399185,0.436349,-0.417274,-0.004548,0.074053,-0.233507
432,480879187,0.690325,0.399404,0.436492,-0.416417,-0.058596,0.136529,-0.231076
433,480912521,0.690366,0.399912,0.436830,-0.415507,-0.040045,0.145593,-0.169514
434,480945855,0.690176,0.400594,0.437676,-0.414273,0.007418,0.155071,-0.099592
435,480979189,0.689872,0.401276,0.439156,-0.412550,-0.003123,0.110446,-0.121392
436,481012523,0.689413,0.402026,0.441284,-0.410309,0.056376,0.064342,-0.143708
437,481045857,0.689027,0.402176,0.444675,-0.407138,0.125825,-0.097551,-0.053887
438,481079191,0.688950,0.401044,0.449518,-0.403046,0.154858,-0.297805,-0.010215
439,481112525,0.688791,0.399388,0.454503,-0.399355,0.097269,-0.461958,0.116304
440,481145859,0.688379,0.398355,0.458270,-0.396785,0.287036,-0.626572,0.123374
441,481179193,0.688353,0.397635,0.460588,-0.394862,0.335728,-0.613342,0.211349
442,481212527,0.689104,0.396954,0.461091,-0.393649,0.232147,-0.481294,0.236223
443,481245861,0.690391,0.397081,0.459506,-0.393118,0.059130,-0.204758,0.153429
444,481279195,0.691481,0.398183,0.457250,-0.392718,0.058486,-0.004158,0.023775
445,481312529,0.692490,0.398549,0.456873,-0.391004,0.176813,0.189334,-0.244433
446,481345863,0.693855,0.397081,0.459209,-0.387322,-0.080987,0.183364,-0.249751
447,481379197,0.694624,0.396075,0.462247,-0.383342,-0.131600,-0.002432,-0.374444
448,481412531,0.694902,0.395424,0.466028,-0.378905,0.060783,0.011270,-0.270863
449,481445865,0.695510,0.393324,0.471278,-0.373443,0.054650,-0.284793,-0.242985
450,481479199,0.695973,0.390855,0.476670,-0.368294,-0.011791,-0.498225,0.042697
451,481512533,0.696302,0.388908,0.480689,-0.364490,0.065872,-0.531487,0.176616
452,481545867,0.696754,0.387802,0.482789,-0.362021,0.085000,-0.516996,0.351564
453,481579201,0.697349,0.387514,0.483251,-0.360563,0.176040,-0.490399,0.215325
454,481612535,0.698367,0.387270,0.482988,-0.359206,0.180830,-0.253265,0.138838
455,481645869,0.699902,0.386508,0.482584,-0.357577,0.115495,-0.257042,0.123023
456,481679203,0.701788,0.385417,0.482011,-0.355828,0.040125,-0.244671,0.088067
457,481712537,0.704024,0.384465,0.480557,-0.354406,-0.207490,-0.093564,-0.132672
458,481745871,0.705733,0.385354,0.477247,-0.354513,-0.391456,0.033470,-0.207930
459,481779205,0.706401,0.387773,0.473241,-0.355913,-0.340339,0.253767,-0.161599
460,481812539,0.706340,0.389921,0.470627,-0.357152,-0.226785,0.346965,-0.360630
461,481845873,0.705872,0.390744,0.470618,-0.357189,-0.128481,0.308265,-0.317465
462,481879207,0.705452,0.389743,0.473111,-0.355816,-0.081091,0.086520,-0.180096
463,481912541,0.705080,0.387996,0.476438,-0.354018,-0.069601,-0.164859,-0.074255
464,481945875,0.704778,0.386543,0.478886,-0.352904,-0.025463,-0.330023,0.077872
465,481979209,0.704771,0.385642,0.479598,-0.352935,-0.024700,-0.283686,0.159668
466,482012543,0.705000,0.385689,0.478131,-0.354415,-0.103803,-0.224582,0.333950
467,482045877,0.705243,0.386869,0.474761,-0.357166,-0.083181,0.061048,0.302758
468,482079211,0.705687,0.388302,0.470704,-0.360092,-0.189589,0.176642,0.206163
469,482112545,0.706233,0.389906,0.466460,-0.362799,-0.261812,0.317022,0.009685
470,482145879,0.706676,0.391657,0.462280,-0.365392,-0.385800,0.335522,-0.097789
471,482179213,0.706763,0.393645,0.458310,-0.368079,-0.454739,0.292785,-0.273000
472,482212547,0.706197,0.395797,0.455034,-0.370912,-0.502861,0.291152,-0.261342
473,482245881,0.704876,0.397688,0.452757,-0.374174,-0.532302,0.181785,-0.263206
474,482279215,0.702806,0.399141,0.451336,-0.378215,-0.457347,0.088682,-0.297187
475,482312549,0.700137,0.400669,0.450086,-0.383009,-0.385446,0.101740,-0.252952
476,482345883,0.697069,0.402600,0.448448,-0.388462,-0.297902,0.147681,-0.137691
477,482379217,0.693653,0.405105,0.446165,-0.394553,-0.240836,0.227798,-0.128083
478,482412551,0.689776,0.408382,0.443260,-0.401191,-0.142351,0.315057,-0.172347
479,482445885,0.685411,0.412338,0.440237,-0.407899,0.002411,0.420940,-0.255378
480,482479219,0.680832,0.416393,0.437892,-0.413927,0.069121,0.389164,-0.192659
481,482512553,0.676087,0.420455,0.436277,-0.419271,0.152268,0.299703,-0.193418
482,482545887,0.671361,0.424490,0.435442,-0.423642,0.229741,0.130349,-0.144605
483,482579221,0.667062,0.428003,0.435560,-0.426766,0.275127,-0.039123,-0.058977
484,482612555,0.663228,0.431032,0.436085,-0.429151,0.234255,-0.228573,0.030270
485,482645889,0.659791,0.433977,0.436149,-0.431409,0.200305,-0.382187,0.127080
486,482679223,0.656695,0.437063,0.435203,-0.433967,0.207154,-0.404968,0.054060
487,482712557,0.653990,0.440312,0.433324,-0.436639,0.252623,-0.310898,0.031247
488,482745891,0.651653,0.443600,0.431141,-0.438959,0.237711,-0.209691,-0.021260
489,482779225,0.649556,0.446696,0.429485,-0.440550,0.303990,-0.125169,-0.077421
490,482812559,0.648319,0.448616,0.429403,-0.440500,0.404439,-0.288724,-0.121652
491,482845893,0.647891,0.449394,0.430713,-0.439054,0.223963,-0.458332,-0.119864
492,482879227,0.647789,0.450126,0.432056,-0.437131,0.183537,-0.418665,-0.103177
493,482912561,0.647956,0.450858,0.433310,-0.434883,0.206428,-0.332237,0.062298
494,482945895,0.648488,0.450969,0.435075,-0.432205,0.103475,-0.448052,0.117321
495,482979229,0.649032,0.450913,0.436851,-0.429648,0.021285,-0.542894,0.045428
496,483012563,0.649437,0.451143,0.437801,-0.427822,-0.022130,-0.576165,0.070199
497,483045897,0.650059,0.451038,0.438272,-0.426505,0.047425,-0.579855,-0.077330
498,483079231,0.650896,0.450338,0.438945,-0.425273,0.060306,-0.542325,-0.169105
499,483112565,0.651846,0.448982,0.440264,-0.423887,0.156632,-0.508863,-0.039812
500,483145899,0.653254,0.446551,0.442461,-0.421995,0.233069,-0.495802,0.016169
501,483179233,0.655064,0.443523,0.444809,-0.419910,0.180374,-0.445568,0.076658
502,483212567,0.656906,0.440724,0.446349,-0.418342,0.268042,-0.376824,0.119160
503,483245901,0.659046,0.437994,0.447116,-0.417024,0.332405,-0.186518,0.021807
504,483279235,0.661510,0.435455,0.447250,-0.415634,0.314432,0.018286,0.006047
505,483312569,0.664215,0.432945,0.447356,-0.413825,0.295953,0.210300,-0.036329
506,483345903,0.667094,0.430343,0.447851,-0.411364,0.265515,0.378869,-0.178525
507,483379237,0.669884,0.427961,0.448823,-0.408245,0.179048,0.426125,-0.147559
508,483412571,0.672473,0.425853,0.450335,-0.404509,0.149953,0.421304,-0.188869
509,483445905,0.674939,0.423895,0.452315,-0.400228,0.080008,0.370431,-0.161827
510,483479239,0.677189,0.422395,0.454179,-0.395878,0.003915,0.375050,-0.104136
511,483512573,0.679111,0.421637,0.455695,-0.391628,-0.092232,0.393727,-0.115200
512,483545907,0.680522,0.421791,0.457019,-0.387450,-0.116885,0.320060,-0.285241
513,483579241,0.681394,0.422423,0.458861,-0.383025,-0.136041,0.231970,-0.257233
514,483612575,0.681936,0.422492,0.461955,-0.378236,-0.147044,0.055541,-0.207979
515,483645909,0.682053,0.421962,0.466173,-0.373410,-0.139328,-0.114116,-0.167729
516,483679243,0.681855,0.421235,0.470823,-0.368730,-0.069435,-0.227746,-0.070593
517,483712577,0.681684,0.420197,0.475595,-0.364077,0.034187,-0.343455,0.024907
518,483745911,0.681896,0.418432,0.480376,-0.359406,0.072212,-0.495306,0.040466
519,483779245,0.682392,0.416297,0.484657,-0.355170,0.114428,-0.534920,0.134734
520,483812579,0.683347,0.413991,0.487938,-0.351519,0.283332,-0.551979,0.173285
521,483845913,0.684955,0.411498,0.489915,-0.348554,0.136528,-0.548031,0.193832
522,483879247,0.686890,0.409544,0.490250,-0.346571,0.126872,-0.284435,0.137808
523,483912581,0.688939,0.408347,0.489286,-0.345276,0.078181,-0.154313,0.138433
524,483945915,0.691110,0.407551,0.487589,-0.344277,0.016380,-0.014422,0.038649
525,483979249,0.693371,0.406793,0.485721,-0.343266,-0.064412,0.066865,-0.089355
526,484012583,0.695499,0.406154,0.484102,-0.342002,-0.120438,0.096885,-0.155527
527,484045917,0.697496,0.405276,0.483179,-0.340279,-0.143315,0.099399,-0.159788
528,484079251,0.699380,0.403781,0.483160,-0.338209,-0.215425,0.104793,-0.113191
529,484112585,0.700914,0.402434,0.483348,-0.336366,-0.321303,0.093822,-0.147989
530,484145919,0.702108,0.401826,0.483075,-0.334993,-0.308477,0.090433,-0.013597
531,484179253,0.703171,0.401328,0.482693,-0.333909,-0.317685,-0.001064,-0.032458
532,484212587,0.704015,0.400554,0.482787,-0.332920,-0.286096,-0.106947,-0.102560
533,484245921,0.704689,0.399528,0.483138,-0.332218,-0.311611,-0.188972,-0.075533
534,484279255,0.705177,0.398676,0.482953,-0.332474,-0.389191,-0.198178,0.018783
535,484312589,0.705134,0.398867,0.481555,-0.334360,-0.358669,-0.127889,-0.080996
536,484345923,0.704668,0.399725,0.479653,-0.337041,-0.219703,0.068086,-0.077485
537,484379257,0.704122,0.400313,0.478093,-0.339690,-0.201061,0.184448,-0.078838
538,484412591,0.703404,0.400943,0.476780,-0.342271,-0.232350,0.328637,-0.107500
539,484445925,0.702345,0.402127,0.475551,-0.344756,-0.142423,0.436317,-0.104675
540,484479259,0.701104,0.403505,0.474842,-0.346645,-0.094907,0.436611,-0.153149
541,484512593,0.699827,0.404864,0.474742,-0.347777,-0.086069,0.344365,-0.174045
542,484545927,0.698412,0.406592,0.474758,-0.348581,-0.115991,0.156700,-0.112723
543,484579261,0.696731,0.408728,0.474583,-0.349684,-0.122455,0.007874,-0.024387
544,484612595,0.694875,0.410996,0.474205,-0.351229,-0.112102,-0.092124,0.063691
545,484645929,0.692955,0.413307,0.473579,-0.353149,-0.100063,-0.219310,-0.002264
546,484679263,0.691019,0.415605,0.472752,-0.355347,-0.036436,-0.340922,0.026128
547,484712597,0.689424,0.417565,0.471666,-0.357581,-0.059145,-0.430490,0.179231
548,484745931,0.687909,0.419078,0.470248,-0.360586,0.117738,-0.305465,0.069659
549,484779265,0.686615,0.420329,0.468885,-0.363362,-0.132833,-0.466424,0.023163
550,484812599,0.685178,0.421581,0.467393,-0.366530,0.137158,-0.070339,0.064896
551,484845933,0.684041,0.422436,0.466109,-0.369296,0.046417,-0.077284,0.066178
552,484879267,0.682995,0.423662,0.463893,-0.372602,-0.024071,-0.146761,0.140406
553,484912601,0.682026,0.425135,0.460993,-0.376281,-0.085567,-0.044533,0.257028
554,484945935,0.680679,0.427107,0.457678,-0.380509,-0.127954,0.036935,0.208072
555,484979269,0.679209,0.428696,0.454955,-0.384593,-0.033540,-0.003613,0.096657
556,485012603,0.677736,0.429436,0.453309,-0.388291,-0.070059,-0.020489,0.008860
557,485045937,0.676144,0.429845,0.451993,-0.392128,-0.081520,-0.093900,-0.146496
558,485079271,0.674446,0.430471,0.450277,-0.396318,-0.009160,-0.008477,-0.384701
559,485112605,0.672606,0.431248,0.448445,-0.400654,0.065407,0.111867,-0.318501
560,485145939,0.670735,0.431549,0.447441,-0.404569,0.144786,0.100808,-0.260743
561,485179273,0.668885,0.431348,0.447255,-0.408038,0.205323,0.091026,-0.264485
562,485212607,0.667271,0.431218,0.447017,-0.411068,0.316041,0.045911,-0.196372
563,485245941,0.666201,0.431187,0.446482,-0.413410,0.344537,0.162995,0.010677
564,485279275,0.665630,0.431309,0.445759,-0.414980,0.365964,0.120783,0.055472
565,485312609,0.665612,0.431051,0.445611,-0.415437,0.385128,-0.020966,0.050970
566,485345943,0.666486,0.429815,0.446151,-0.414735,0.293871,-0.164797,0.002910
567,485379277,0.668034,0.428215,0.446375,-0.413657,0.127800,-0.272081,0.067654
568,485412611,0.669675,0.426990,0.445587,-0.413118,-0.002295,-0.276899,-0.070287
569,485445945,0.670966,0.426511,0.443767,-0.413478,-0.017048,-0.146711,-0.167568
570,485479279,0.672040,0.426132,0.441871,-0.414156,0.083228,-0.008295,-0.239524
571,485512613,0.673321,0.425172,0.440903,-0.414094,0.139650,0.093824,-0.225515
572,485545947,0.675104,0.423333,0.441197,-0.412758,0.023494,0.024263,-0.254279
573,485579281,0.677100,0.421221,0.442479,-0.410270,-0.054271,0.114671,-0.119470
574,485612615,0.679053,0.419193,0.443624,-0.407875,-0.099289,0.137699,-0.019352
575,485645949,0.680780,0.417761,0.443769,-0.406305,-0.088398,0.156834,-0.092946
576,485679283,0.682254,0.416859,0.443270,-0.405302,-0.102541,0.159525,-0.132030
577,485712617,0.683554,0.416098,0.442853,-0.404349,-0.039289,0.189592,-0.150381
578,485745951,0.684834,0.415288,0.442778,-0.403097,-0.120550,0.168915,0.005252
579,485779285,0.685727,0.414695,0.442920,-0.402032,-0.218332,0.031434,0.151130
580,485812619,0.686545,0.413645,0.444044,-0.400473,-0.035369,-0.089194,0.117359
581,485845953,0.687577,0.411760,0.446147,-0.398302,-0.036632,-0.344243,0.060651
582,485879287,0.688881,0.409379,0.448291,-0.396092,-0.085835,-0.534209,-0.003334
583,485912621,0.690113,0.407356,0.449243,-0.394951,-0.175000,-0.493332,-0.112833
584,485945955,0.691042,0.406200,0.448479,-0.395387,-0.113121,-0.227212,-0.143352
585,485979289,0.691762,0.405420,0.447075,-0.396516,0.043936,-0.023927,-0.168997
586,486012623,0.692606,0.404281,0.446533,-0.396815,0.147376,0.151882,-0.108889
587,486045957,0.693779,0.402697,0.447206,-0.395618,0.068188,0.171976,0.114734
588,486079291,0.695341,0.400753,0.448773,-0.393067,0.025806,0.136418,-0.124833
589,486112625,0.696821,0.399289,0.450290,-0.390191,-0.121250,0.158654,-0.215388
590,486145959,0.697776,0.398668,0.451407,-0.387820,-0.300248,0.068482,-0.263298
591,486179293,0.697776,0.398956,0.452655,-0.386065,-0.118780,0.185572,-0.275742
592,486212627,0.697343,0.398715,0.455210,-0.384088,0.012191,0.052581,-0.303864
593,486245961,0.696768,0.398076,0.458505,-0.381869,-0.007444,-0.094007,-0.088888
594,486279295,0.695991,0.398229,0.460666,-0.380523,-0.036985,-0.362047,0.113022
595,486312629,0.695248,0.399323,0.461048,-0.380272,-0.038506,-0.355110,0.097841
596,486345963,0.694629,0.400820,0.460094,-0.380984,-0.045172,-0.384581,0.130376
597,486379297,0.694094,0.402102,0.458760,-0.382214,-0.083231,-0.517487,0.025382
598,486412631,0.693535,0.403005,0.457674,-0.383577,0.002479,-0.378016,-0.036545
599,486445965,0.693137,0.403189,0.456992,-0.384914,-0.008940,-0.317037,-0.008269
600,486479299,0.692707,0.403388,0.455925,-0.386741,-0.059482,-0.230336,-0.077016
601,486512633,0.691973,0.404239,0.454210,-0.389175,0.021446,-0.086420,0.000866
602,486545967,0.691332,0.404803,0.452794,-0.391373,0.093358,0.029554,0.033360
603,486579301,0.690923,0.404804,0.452060,-0.392940,0.104462,0.051893,0.013357
604,486612635,0.690687,0.404753,0.451569,-0.393971,0.066600,0.020872,0.025833
605,486645969,0.690522,0.405117,0.450710,-0.394869,0.032919,-0.022183,-0.042626
606,486679303,0.690444,0.405740,0.449394,-0.395865,0.000280,-0.013889,-0.193445
607,486712637,0.690241,0.406580,0.447851,-0.397103,-0.019491,0.010568,-0.246904
608,486745971,0.689798,0.407419,0.446711,-0.398294,0.040450,0.055008,-0.192723
609,486779305,0.689352,0.407987,0.446301,-0.398945,0.030151,0.093042,-0.104057
610,486812639,0.688928,0.408648,0.446282,-0.399022,0.039795,0.039044,0.016106
611,486845973,0.688649,0.409292,0.446616,-0.398468,0.055044,-0.097589,0.031296
612,486879307,0.688647,0.409505,0.447311,-0.397471,-0.007940,-0.253905,-0.015307
613,486912641,0.688680,0.409612,0.447764,-0.396794,-0.104184,-0.304554,0.034094
614,486945975,0.688547,0.409956,0.447468,-0.397002,-0.151965,-0.301740,0.018073
615,486979309,0.688184,0.410727,0.446518,-0.397905,-0.134657,-0.198747,0.021563
616,487012643,0.687672,0.411476,0.445673,-0.398963,-0.101405,-0.108025,0.018794
617,487045977,0.687133,0.411745,0.445565,-0.399733,-0.060277,-0.099758,-0.144831
618,487079311,0.686619,0.411592,0.446322,-0.399929,0.019299,-0.142465,-0.208219
619,487112645,0.686268,0.410891,0.447878,-0.399514,0.109745,-0.206024,-0.116820
620,487145979,0.686370,0.409347,0.449977,-0.398562,0.111798,-0.250143,-0.009519
621,487179313,0.686652,0.407565,0.451866,-0.397766,0.084170,-0.366808,0.099811
622,487212647,0.686958,0.406062,0.452821,-0.397688,0.081283,-0.434697,0.172662
623,487245981,0.687454,0.404941,0.452382,-0.398473,0.096529,-0.352903,0.139710
624,487279315,0.688183,0.404580,0.449878,-0.400411,-0.049897,-0.101939,0.075583
625,487312649,0.688571,0.405923,0.445006,-0.403814,-0.127982,0.208070,0.013159
626,487345983,0.688283,0.408572,0.439411,-0.407742,-0.077985,0.521487,-0.186956
627,487379317,0.687718,0.410891,0.435609,-0.410436,0.044688,0.665539,-0.399443
628,487412651,0.687408,0.411840,0.434901,-0.410755,0.008007,0.599356,-0.461618
629,487445985,0.687231,0.412013,0.436668,-0.409000,-0.094263,0.308494,-0.418555
630,487479319,0.686888,0.412077,0.439652,-0.406305,-0.136874,0.082747,-0.295589
631,487512653,0.686389,0.411783,0.443170,-0.403616,-0.096105,-0.176394,-0.124689
632,487545987,0.685922,0.410881,0.446718,-0.401412,-0.086360,-0.406726,0.082754
633,487579321,0.685346,0.410139,0.448990,-0.400620,-0.119823,-0.456902,0.237032
634,487612655,0.684606,0.410386,0.449004,-0.401613,-0.056205,-0.437526,0.396873
635,487645989,0.684126,0.410741,0.447464,-0.403782,0.029788,-0.177777,0.326215
636,487679323,0.683905,0.411075,0.445275,-0.406228,-0.131776,-0.049441,0.219345
637,487712657,0.683670,0.411964,0.442278,-0.408988,-0.108676,0.038232,0.030348
638,487745991,0.683507,0.412756,0.439452,-0.411500,-0.112155,0.175924,-0.186067
639,487779325,0.683196,0.413139,0.437506,-0.413701,-0.145887,0.237021,-0.385186
640,487812659,0.682345,0.413518,0.436694,-0.415581,-0.051007,0.310906,-0.408172
641,487845993,0.681107,0.413720,0.437232,-0.416843,0.147670,0.350846,-0.255430
642,487879327,0.680081,0.413354,0.438960,-0.417065,0.227077,0.226000,-0.124550
643,487912661,0.679276,0.413037,0.440812,-0.416737,0.198128,0.055060,0.045383
644,487945995,0.678719,0.413163,0.441854,-0.416417,0.167137,-0.115752,0.192781
645,487979329,0.678467,0.413690,0.441721,-0.416445,0.132951,-0.165955,0.130847
646,488012663,0.678390,0.414481,0.440705,-0.416859,0.116587,-0.283890,0.088632
647,488045997,0.678581,0.415248,0.439386,-0.417178,0.066998,-0.358462,0.033722
648,488079331,0.679115,0.415617,0.438048,-0.417348,0.063458,-0.231152,-0.094525
649,488112665,0.679853,0.415549,0.436565,-0.417768,-0.017125,-0.094331,-0.210748
650,488145999,0.680530,0.415511,0.435050,-0.418285,-0.054623,0.052465,-0.249440
651,488179333,0.680781,0.415935,0.433896,-0.418653,0.001172,0.270299,-0.308560
652,488212667,0.681016,0.415893,0.434021,-0.418181,0.160270,0.351112,-0.278313
653,488246001,0.681430,0.415547,0.435178,-0.416647,0.031181,0.266982,-0.160686
654,488279335,0.681886,0.415532,0.436535,-0.414491,0.013846,0.086418,-0.017125
655,488312669,0.682463,0.415402,0.438174,-0.411934,-0.035118,-0.139070,0.066682
656,488346003,0.683096,0.415105,0.439818,-0.409424,-0.100807,-0.291482,0.037355
657,488379337,0.683744,0.414887,0.441095,-0.407184,-0.090697,-0.410630,-0.030324
658,488412671,0.684527,0.414309,0.442410,-0.405026,-0.064922,-0.478204,-0.062544
659,488446005,0.685445,0.413114,0.444040,-0.402903,-0.104967,-0.439262,-0.002311
660,488479339,0.686184,0.411710,0.445448,-0.401526,-0.128943,-0.366405,0.101112
661,488512673,0.686596,0.410407,0.446303,-0.401207,0.088482,-0.222105,0.153399
662,488546007,0.687313,0.408274,0.447382,-0.400952,0.005293,-0.138450,0.131333
663,488579341,0.688165,0.406286,0.447986,-0.400836,0.098982,-0.039480,0.147887
664,488612675,0.689209,0.404804,0.447846,-0.400699,0.120707,0.046881,0.095566
665,488646009,0.690487,0.403233,0.447554,-0.400409,-0.057416,0.060232,0.023694
666,488679343,0.691700,0.401649,0.447265,-0.400229,0.048857,0.249058,-0.182360
667,488712677,0.692277,0.401004,0.446814,-0.400381,0.078231,0.206542,-0.226137
668,488746011,0.692617,0.400144,0.447202,-0.400221,-0.025607,0.067708,-0.236819
669,488779345,0.692907,0.398771,0.448657,-0.399462,-0.065241,0.000118,-0.249572
670,488812679,0.692912,0.397671,0.450383,-0.398605,-0.031505,-0.042290,-0.209248
671,488846013,0.692752,0.396694,0.452205,-0.397793,0.010656,-0.048699,-0.080707
672,488879347,0.692618,0.395710,0.454091,-0.396858,0.064089,-0.069009,-0.059894
673,488912681,0.692473,0.394982,0.455798,-0.395877,0.046079,-0.060644,0.092850
674,488946015,0.692408,0.394452,0.457059,-0.395064,0.035204,-0.089729,0.010537
675,488979349,0.692243,0.394358,0.457727,-0.394674,0.027397,-0.080731,-0.063069
676,489012683,0.691979,0.394442,0.457896,-0.394858,-0.051678,-0.036104,-0.020304
677,489046017,0.691341,0.395282,0.457118,-0.396034,-0.054678,0.093142,-0.117879
678,489079351,0.690308,0.397207,0.455592,-0.397665,0.102829,0.100977,-0.180473
679,489112685,0.689931,0.398764,0.454656,-0.397833,0.138504,0.018712,-0.093196
680,489146019,0.690347,0.399025,0.454955,-0.396506,0.015130,-0.085100,-0.104248
681,489179353,0.691013,0.398733,0.455913,-0.394534,-0.127169,-0.291488,-0.192169
682,489212687,0.691855,0.397662,0.457408,-0.392403,-0.211557,-0.444599,-0.127431
683,489246021,0.692600,0.396162,0.458634,-0.391172,-0.181552,-0.409338,-0.001728
684,489279355,0.693478,0.394454,0.458811,-0.391135,-0.209213,-0.450542,0.106071
685,489312689,0.694996,0.392135,0.457784,-0.391977,-0.139229,-0.216847,0.143659
686,489346023,0.697133,0.389489,0.455366,-0.393632,-0.151353,-0.240526,0.116147
687,489379357,0.698928,0.388182,0.451140,-0.396596,-0.070000,-0.056479,-0.029071
688,489412691,0.700270,0.387891,0.446321,-0.399950,-0.019572,0.228584,-0.152060
689,489446025,0.701429,0.387990,0.442173,-0.402423,-0.036941,0.459506,-0.282556
690,489479359,0.702094,0.388415,0.439408,-0.403880,-0.129648,0.555150,-0.296181
691,489512693,0.701968,0.389356,0.438381,-0.404308,-0.122060,0.439027,-0.309870
692,489546027,0.701461,0.390021,0.439600,-0.403224,-0.076081,0.193542,-0.197598
693,489579361,0.700666,0.390417,0.442148,-0.401433,-0.144337,-0.136809,-0.116608
694,489612695,0.699726,0.390735,0.444611,-0.400039,-0.227976,-0.485585,0.084505
695,489646029,0.698519,0.391187,0.446397,-0.399718,-0.287096,-0.438542,0.100309
696,489679363,0.697335,0.391696,0.447049,-0.400557,-0.180799,-0.344717,0.143244
697,489712697,0.696496,0.391829,0.446840,-0.402116,-0.144416,-0.276136,0.047905
698,489746031,0.695825,0.391993,0.446093,-0.403945,0.165117,-0.056124,0.029821
699,489779365,0.695234,0.391880,0.445260,-0.405986,0.036970,-0.072214,-0.044867
700,489812699,0.694589,0.392491,0.443402,-0.408524,-0.155064,-0.045033,-0.040977
701,489846033,0.693509,0.394205,0.440564,-0.411766,0.037182,0.069464,-0.279421
702,489879367,0.692601,0.395759,0.438130,-0.414394,0.007252,0.179234,-0.201240
703,489912701,0.691708,0.396455,0.437215,-0.416182,0.004347,0.125712,-0.094682
704,489946035,0.690643,0.396540,0.437840,-0.417210,0.026252,0.020942,-0.090782
705,489979369,0.689505,0.396460,0.438966,-0.417986,0.054539,-0.103516,-0.031210
706,490012703,0.688498,0.396317,0.439869,-0.418830,0.101094,-0.138834,-0.013848
707,490046037,0.687588,0.396331,0.440212,-0.419951,0.116550,-0.129745,-0.099440
708,490079371,0.686534,0.396957,0.440049,-0.421252,0.304653,-0.055559,-0.110615
709,490112705,0.685830,0.397272,0.440304,-0.421835,0.320987,-0.007752,-0.109183
710,490146039,0.685292,0.397727,0.440413,-0.422167,0.257807,0.042686,-0.109589
711,490179373,0.684756,0.398930,0.439955,-0.422380,0.306647,0.053362,-0.159475
712,490212707,0.684569,0.400205,0.439799,-0.421639,0.384965,0.116414,-0.225280
713,490246041,0.684849,0.401059,0.440468,-0.419668,0.197567,0.017586,-0.221401
714,490279375,0.685098,0.402329,0.441304,-0.417161,0.095966,-0.020916,-0.109053
715,490312709,0.685221,0.403775,0.442084,-0.414729,0.052569,-0.079613,-0.063456
716,490346043,0.685391,0.405114,0.442802,-0.412370,0.034254,-0.127677,-0.021667
717,490379377,0.685792,0.406155,0.443470,-0.409956,-0.035469,-0.174518,0.033077
718,490412711,0.686471,0.406976,0.443936,-0.407493,-0.131844,-0.259461,0.057316
719,490446045,0.687076,0.407880,0.443918,-0.405585,-0.228696,-0.250581,0.062532
720,490479379,0.687371,0.409002,0.443258,-0.404675,-0.242824,-0.180610,0.013494
721,490512713,0.687382,0.410077,0.442386,-0.404522,-0.214284,-0.079984,0.000157
722,490546047,0.687098,0.411154,0.441478,-0.404904,-0.163940,-0.070718,0.035444
723,490579381,0.686883,0.411793,0.441114,-0.405016,-0.163567,-0.082856,0.024513
724,490612715,0.686749,0.412087,0.441206,-0.404842,-0.166654,-0.124316,-0.013680
725,490646049,0.686072,0.412628,0.441181,-0.405467,-0.092713,-0.139028,-0.056726
726,490679383,0.685361,0.412879,0.441536,-0.406026,-0.029695,-0.173079,-0.097462
727,490712717,0.684861,0.412745,0.442314,-0.406159,0.047036,-0.213283,-0.024305
728,490746051,0.684603,0.412314,0.443129,-0.406145,0.011810,-0.256128,0.058205
729,490779385,0.684647,0.411708,0.443744,-0.406014,0.030707,-0.220059,0.044487
730,490812719,0.684676,0.411384,0.443794,-0.406239,0.104866,-0.173696,0.028222
731,490846053,0.684833,0.411072,0.443601,-0.406501,0.140620,-0.128801,-0.014970
732,490879387,0.685206,0.410695,0.443347,-0.406531,0.121093,-0.163129,0.002489
733,490912721,0.685981,0.410092,0.443126,-0.406073,0.100685,-0.145561,-0.081976
734,490946055,0.687029,0.409292,0.442869,-0.405388,0.026212,-0.131360,-0.039109
735,490979389,0.687908,0.408695,0.442371,-0.405043,-0.011978,-0.098539,-0.063714
736,491012723,0.688967,0.407921,0.442110,-0.404307,0.015500,0.021345,-0.120454
737,491046057,0.690074,0.407210,0.441908,-0.403356,-0.062037,-0.014204,-0.182844
738,491079391,0.691202,0.406785,0.441653,-0.402131,-0.099725,0.056631,-0.234315
739,491112725,0.691556,0.407055,0.441483,-0.401435,-0.067479,0.169262,-0.122022
740,491146059,0.691498,0.407038,0.442517,-0.400412,0.010489,0.091967,-0.113344
741,491179393,0.691665,0.406241,0.445200,-0.397952,0.112914,-0.069496,-0.044394
742,491212727,0.692335,0.404412,0.449214,-0.394119,0.132785,-0.219352,0.032983
743,491246061,0.693587,0.401796,0.453457,-0.389710,0.078631,-0.330117,0.103322
744,491279395,0.695122,0.399091,0.456716,-0.385930,0.003000,-0.402313,0.139524
745,491312729,0.696512,0.397039,0.458234,-0.383736,-0.035453,-0.284767,0.085803
746,491346063,0.697630,0.395929,0.458042,-0.383081,0.006527,-0.113631,-0.001294
747,491379397,0.698746,0.395215,0.457021,-0.383002,0.017514,0.068503,-0.118454
748,491412731,0.699875,0.394675,0.455893,-0.382843,-0.032178,0.211884,-0.139238
749,491446065,0.700810,0.394256,0.455192,-0.382399,-0.054941,0.265740,-0.128228
750,491479399,0.701604,0.393684,0.455318,-0.381379,-0.032708,0.270009,-0.199067
751,491512733,0.702358,0.392847,0.456319,-0.379656,-0.090940,0.222106,-0.145358
752,491546067,0.702903,0.392142,0.457549,-0.377892,-0.167473,0.104980,-0.130626
753,491579401,0.703111,0.391892,0.458605,-0.376481,-0.131532,0.030708,-0.116448
754,491612735,0.703008,0.391902,0.459585,-0.375465,-0.122820,-0.004150,-0.012424
755,491646069,0.702708,0.391976,0.460591,-0.374716,-0.037781,-0.119399,0.006035
756,491679403,0.702496,0.391719,0.461923,-0.373743,0.017878,-0.117708,0.095932
757,491712737,0.702555,0.390954,0.463335,-0.372684,0.056784,-0.198052,-0.176301
758,491746071,0.702826,0.390165,0.464454,-0.371603,0.132104,-0.158943,-0.279609
759,491779405,0.703330,0.389337,0.465064,-0.370755,0.107285,-0.093124,-0.184518
760,491812739,0.703644,0.388850,0.465099,-0.370627,0.026100,0.043723,0.238781
761,491846073,0.703256,0.389313,0.464654,-0.371435,0.139073,0.091975,0.333791
762,491879407,0.703240,0.389871,0.464270,-0.371359,0.347450,0.185887,0.040628
763,491912741,0.704588,0.389796,0.463703,-0.369588,0.095937,0.171496,-0.165387
764,491946075,0.706158,0.389942,0.462649,-0.367753,-0.103500,0.089712,-0.111730
765,491979409,0.707290,0.390468,0.461759,-0.366135,-0.188149,0.026670,-0.373358
766,492012743,0.707842,0.391212,0.461431,-0.364685,-0.266878,0.073383,-0.311529
767,492046077,0.707868,0.392036,0.461401,-0.363785,-0.433265,0.120274,0.224030
768,492079411,0.706616,0.393823,0.461151,-0.364606,-0.410179,-0.066139,0.099006
769,492112745,0.704813,0.396059,0.461462,-0.365279,0.087835,-0.071825,-0.151808
770,492146079,0.704563,0.396410,0.462950,-0.363494,0.007110,-0.060314,-0.487227
771,492179413,0.704885,0.395813,0.464668,-0.361322,-0.271295,-0.216989,-0.422305
772,492212747,0.704036,0.395549,0.466667,-0.360689,-0.304446,-0.400991,-0.023041
773,492246081,0.701785,0.395917,0.468951,-0.361709,-0.010387,-0.279982,0.227169
774,492279415,0.699898,0.396171,0.470809,-0.362673,0.174593,-0.283939,0.562163
775,492312749,0.699312,0.396205,0.471258,-0.363182,0.113830,-0.350898,0.771155
776,492346083,0.700018,0.396697,0.469410,-0.363678,-0.045593,-0.350897,0.113763
777,492379417,0.701373,0.398069,0.465411,-0.364706,-0.252921,-0.054119,-0.584445
778,492412751,0.701716,0.400282,0.460929,-0.367308,-0.422587,0.200222,-0.681681
779,492446085,0.699562,0.403080,0.457948,-0.372053,-0.368709,0.384891,-0.612938
780,492479419,0.694403,0.407032,0.457477,-0.377948,-0.020401,0.428484,-0.138380
781,492512753,0.688517,0.410409,0.460509,-0.381368,0.958928,0.570160,-0.146720
782,492546087,0.686599,0.408749,0.468883,-0.376372,1.312980,0.207504,-0.166685
783,492579421,0.689993,0.400803,0.480720,-0.363559,0.816620,-0.439540,0.021610
784,492612755,0.694493,0.392849,0.489399,-0.351908,-0.160970,-0.854346,0.028081
785,492646089,0.696184,0.392577,0.489578,-0.348604,-0.537855,-1.064871,0.398749
786,492679423,0.694568,0.398888,0.483155,-0.353588,-0.267263,-0.535018,0.670048
787,492712757,0.691937,0.406851,0.474932,-0.360742,0.533449,0.043894,0.524085
788,492746091,0.691844,0.411931,0.468827,-0.363134,0.746758,0.079380,-0.110517
789,492779425,0.695507,0.412538,0.466469,-0.358454,0.649741,0.054495,-0.511379
790,492812759,0.701248,0.408429,0.467886,-0.350030,-0.063315,-0.300555,-0.658746
791,492846093,0.705988,0.403427,0.469847,-0.343616,-0.629088,-0.623258,-0.427145
792,492879427,0.707955,0.401644,0.468826,-0.343053,-0.723942,-0.129249,0.109645
793,492912761,0.708068,0.403295,0.464184,-0.347170,-0.554703,0.497344,0.301044
794,492946095,0.707414,0.406953,0.458286,-0.352035,-0.518294,0.571855,0.403507
795,492979429,0.706822,0.410345,0.454310,-0.354431,-0.170159,0.290476,0.079232
796,493012763,0.707713,0.410473,0.454233,-0.352601,-0.259767,0.227329,-0.379495
797,493046097,0.709166,0.408177,0.455854,-0.350247,-0.663042,0.060722,-0.730436
798,493079431,0.708623,0.407720,0.456196,-0.351431,-0.779896,-0.068099,-0.789773
799,493112765,0.705862,0.409381,0.455787,-0.355562,-0.414902,0.134986,-0.379444
800,493146099,0.701958,0.411010,0.456704,-0.360205,-0.200442,0.193193,0.300385
801,493179433,0.697991,0.411613,0.459294,-0.363914,0.043898,0.039896,0.617271
802,493212767,0.695178,0.411212,0.462347,-0.365879,0.254471,-0.138224,0.321100
803,493246101,0.693811,0.410650,0.464274,-0.366664,0.196462,-0.201271,0.044843
804,493279435,0.693448,0.410195,0.464686,-0.367337,0.189334,-0.503859,0.078752
805,493312769,0.693561,0.409533,0.463658,-0.369158,-0.044465,-0.455818,-0.139173
806,493346103,0.693152,0.410314,0.459683,-0.373999,-0.314286,-0.237335,-0.524487
807,493379437,0.690682,0.414762,0.451635,-0.383349,-0.410614,0.420866,-0.602836
808,493412771,0.685426,0.422184,0.442038,-0.395670,0.061126,1.069973,-0.365862
809,493446105,0.678802,0.429750,0.435765,-0.405772,0.756584,0.963762,0.022069
810,493479439,0.674545,0.432938,0.437572,-0.407536,1.220147,0.630030,0.204265
811,493512773,0.674881,0.429752,0.447244,-0.399778,1.121871,0.367697,-0.010251
812,493546107,0.678615,0.422758,0.459982,-0.386231,0.525266,-0.554723,-0.048694
813,493579441,0.683178,0.415613,0.470659,-0.372846,0.149918,-1.086808,0.093463
814,493612775,0.686855,0.410847,0.475938,-0.364581,-0.159692,-1.153105,0.254139
815,493646109,0.689048,0.410416,0.473876,-0.363612,-0.469957,-1.302702,0.540862
816,493679443,0.689473,0.414948,0.464721,-0.369433,-0.512424,-0.981904,0.497746
817,493712777,0.688377,0.422324,0.451790,-0.379033,-0.373062,-0.256003,0.641266
818,493746111,0.687282,0.428665,0.439829,-0.387868,0.051674,0.187084,0.178648
819,493779445,0.688484,0.430704,0.433049,-0.391092,0.109576,0.087712,-0.604585
820,493812779,0.691879,0.427505,0.432947,-0.388718,-0.099140,0.130119,-0.880043
821,493846113,0.695070,0.421656,0.436840,-0.385039,-0.440461,0.168466,-0.914488
822,493879447,0.696482,0.416570,0.441288,-0.382946,-0.541268,0.105009,-0.609621
823,493912781,0.695692,0.413645,0.444820,-0.383466,-0.429317,0.135530,-0.042589
824,493946115,0.692609,0.413375,0.446873,-0.386935,-0.239659,0.318967,0.549091
825,493979449,0.688977,0.414700,0.447867,-0.390832,0.330418,0.459893,0.463776
826,494012783,0.687055,0.415632,0.449356,-0.391518,0.469037,0.372783,0.125920
827,494046117,0.687132,0.414896,0.452545,-0.388478,0.510826,-0.024715,0.165984
828,494079451,0.688676,0.412383,0.456838,-0.383360,0.166212,-0.369952,-0.261024
829,494112785,0.690482,0.410174,0.459780,-0.378939,-0.161478,-0.557329,-0.636958
830,494146119,0.690620,0.410430,0.459859,-0.378315,-0.285296,-0.354473,-0.791750
831,494179453,0.688084,0.413060,0.458289,-0.381961,-0.069012,-0.067912,-0.556654
832,494212787,0.683524,0.416520,0.457759,-0.386994,0.554155,0.247056,0.030795
833,494246121,0.680194,0.417590,0.460716,-0.388195,1.211228,0.365713,0.329243
834,494279455,0.680931,0.414814,0.466947,-0.382391,1.021749,0.057432,0.362265
835,494312789,0.684926,0.410393,0.473069,-0.372372,0.467592,-0.399169,0.283404
836,494346123,0.689424,0.407502,0.475984,-0.363423,-0.020501,-0.740701,0.217530
837,494379457,0.692887,0.407049,0.475361,-0.358122,-0.188833,-0.841305,0.239417
838,494412791,0.695046,0.407863,0.472688,-0.356547,-0.161829,-0.556001,0.097756
839,494446125,0.696634,0.408600,0.469633,-0.356641,-0.013919,-0.376245,0.044882
840,494479459,0.698843,0.408323,0.467082,-0.355985,-0.057164,-0.100400,-0.001948
841,494512793,0.701888,0.407065,0.464929,-0.354248,-0.241534,-0.033257,-0.119062
842,494546127,0.704893,0.405881,0.462768,-0.352467,-0.538347,0.001566,-0.175205
843,494579461,0.706704,0.405369,0.460820,-0.351981,-0.582475,0.075435,-0.090548
844,494612795,0.707389,0.404769,0.459769,-0.352669,-0.477260,0.305056,-0.057647
845,494646129,0.707586,0.403894,0.459478,-0.353655,-0.535571,0.462144,0.010655
846,494679463,0.707350,0.403543,0.459367,-0.354671,-0.396231,0.472062,-0.043877
847,494712797,0.707211,0.403028,0.460055,-0.354642,-0.324637,0.291323,-0.258579
848,494746131,0.707141,0.401659,0.461931,-0.353895,-0.397838,-0.052989,-0.087550
849,494779465,0.706253,0.400207,0.463661,-0.355048,-0.510286,-0.302932,-0.103225
850,494812799,0.703985,0.400674,0.463106,-0.359720,-0.449142,-0.056203,-0.046726
851,494846133,0.700814,0.403431,0.460173,-0.366529,-0.097742,0.170993,-0.039501
852,494879467,0.698332,0.405791,0.457442,-0.372039,0.214193,0.417851,-0.436100
853,494912801,0.696578,0.406961,0.456516,-0.375175,0.078856,0.224628,-0.417679
854,494946135,0.694468,0.408190,0.456717,-0.377499,-0.038100,0.089019,-0.077926
855,494979469,0.691934,0.409577,0.457265,-0.379977,0.087666,0.107268,0.026773
856,495012803,0.689400,0.411169,0.457550,-0.382514,0.208649,0.066064,0.036824
857,495046137,0.687531,0.413108,0.457196,-0.384207,0.359270,0.018586,-0.138975
858,495079471,0.686951,0.414889,0.456338,-0.384346,0.201376,0.077667,-0.231826
859,495112805,0.686597,0.416823,0.455109,-0.384343,-0.061506,-0.172740,-0.038766
860,495146139,0.685171,0.419195,0.453946,-0.385681,-0.144610,-0.136524,0.004882
861,495179473,0.682544,0.422406,0.452638,-0.388364,0.086709,0.038672,-0.113171
862,495212807,0.680483,0.425414,0.451774,-0.389700,0.386657,-0.056578,-0.151767
863,495246141,0.680245,0.426602,0.452465,-0.388012,0.399718,-0.167799,-0.250475
864,495279475,0.681216,0.426170,0.454342,-0.384575,0.050804,-0.437558,-0.079947
865,495312809,0.681773,0.425443,0.456411,-0.381935,-0.168378,-0.745164,0.240327
866,495346143,0.681478,0.425300,0.457493,-0.381325,-0.031737,-0.610626,0.409290
867,495379477,0.681214,0.425632,0.457033,-0.381977,-0.005154,-0.450374,0.530970
868,495412811,0.681628,0.425829,0.455928,-0.382339,0.152114,-0.483442,0.309012
869,495446145,0.683262,0.424505,0.455915,-0.380907,0.127001,-0.315738,-0.105707
870,495479479,0.684697,0.423048,0.456128,-0.379696,-0.531001,-0.148134,-0.012720
871,495512813,0.683230,0.424838,0.455053,-0.381624,-0.100403,0.081628,-0.319933
872,495546147,0.681543,0.425386,0.457382,-0.381246,0.922095,0.294617,-0.488653
873,495579481,0.683417,0.418999,0.465968,-0.374507,0.741710,0.021222,-0.580166
874,495612815,0.687027,0.410189,0.475105,-0.366080,0.122261,-0.198987,-0.483728
875,495646149,0.689343,0.406282,0.478333,-0.361854,-0.461956,-0.095884,0.208282
876,495679483,0.688773,0.408830,0.475282,-0.364084,-0.143470,0.266070,0.132695
877,495712817,0.686440,0.414022,0.470551,-0.368738,0.379694,0.669360,0.077247
878,495746151,0.685072,0.417769,0.467553,-0.370863,0.548020,0.744626,-0.023984
879,495779485,0.685822,0.419303,0.466833,-0.368647,0.577835,0.531519,-0.036778
880,495812819,0.689508,0.417553,0.468348,-0.361773,0.310430,0.076677,-0.198828
881,495846153,0.694959,0.413900,0.469784,-0.353586,-0.467527,-0.200035,-0.201485
882,495879487,0.698950,0.413350,0.467168,-0.349808,-1.213585,-0.176625,-0.295543
883,495912821,0.698896,0.418395,0.460453,-0.352808,-1.256218,-0.033564,-0.147690
884,495946155,0.694711,0.426445,0.453529,-0.360324,-0.868268,0.031848,-0.095921
885,495979489,0.688299,0.433997,0.449794,-0.368209,-0.309220,0.136092,-0.088018
886,496012823,0.683110,0.437895,0.450587,-0.372265,0.215433,0.068750,-0.202557
887,496046157,0.680909,0.437229,0.455665,-0.370896,0.293892,-0.120351,-0.357058
888,496079491,0.680955,0.433437,0.463051,-0.366083,0.031673,-0.498254,-0.345236
889,496112825,0.680734,0.429366,0.470202,-0.362156,-0.243729,-0.680065,0.066287
890,496146159,0.678942,0.427208,0.474825,-0.362041,-0.257447,-0.783547,0.391581
891,496179493,0.675386,0.428167,0.475376,-0.366805,0.023592,-0.583249,0.470175
892,496212827,0.671376,0.431720,0.472073,-0.374192,0.443478,-0.271316,0.528919
893,496246161,0.668662,0.435567,0.467282,-0.380553,0.709921,-0.086370,0.262783
894,496279495,0.668259,0.437565,0.463795,-0.383225,0.817140,-0.165225,0.102819
895,496312829,0.670184,0.436531,0.462951,-0.382062,0.525084,-0.270577,0.143569
896,496346163,0.672877,0.433932,0.463092,-0.380112,0.035396,-0.517167,0.092090
897,496379497,0.674791,0.432428,0.461877,-0.379912,-0.026309,-0.481052,0.030979
898,496412831,0.676542,0.431701,0.459591,-0.380398,0.194954,-0.209939,0.029098
899,496446165,0.679020,0.430465,0.457363,-0.380067,0.165908,-0.119248,-0.138702
900,496479499,0.682153,0.428654,0.455752,-0.378437,0.023602,0.062717,-0.257913
901,496512833,0.685157,0.427025,0.454493,-0.376360,-0.153110,0.220712,-0.295267
902,496546167,0.687630,0.425949,0.453794,-0.373904,-0.191824,0.159076,-0.189572
903,496579501,0.689723,0.424664,0.454600,-0.370515,-0.220139,-0.057155,-0.055491
904,496612835,0.691527,0.422822,0.456774,-0.366564,-0.302820,-0.262693,-0.150908
905,496646169,0.692885,0.420740,0.459524,-0.362941,-0.338846,-0.419075,0.040093
906,496679503,0.693950,0.418217,0.462368,-0.360200,-0.210170,-0.384730,-0.026807
907,496712837,0.695115,0.415191,0.465137,-0.357883,-0.194636,-0.374199,0.197501
908,496746171,0.696459,0.411739,0.467825,-0.355749,-0.091481,-0.524540,0.177142
909,496779505,0.697994,0.408002,0.470032,-0.354132,-0.071375,-0.584837,0.032659
910,496812839,0.699534,0.404453,0.470839,-0.354093,-0.159193,-0.460152,-0.034728
911,496846173,0.700438,0.402003,0.469646,-0.356671,-0.136945,-0.197875,-0.130001
912,496879507,0.700547,0.400965,0.467047,-0.361010,0.036077,0.213139,-0.155630
913,496912841,0.700444,0.400213,0.464791,-0.364934,0.342030,0.512291,-0.231942
914,496946175,0.701135,0.398296,0.464332,-0.366288,0.430662,0.697968,-0.195727
915,496979509,0.702673,0.395323,0.465488,-0.365093,0.319189,0.546358,-0.146441
916,497012843,0.704354,0.392587,0.466956,-0.362923,0.157158,0.372903,-0.223187
917,497046177,0.705784,0.390710,0.467870,-0.360991,0.140673,0.287663,-0.155432
918,497079511,0.706994,0.389570,0.468127,-0.359516,0.115901,0.208225,0.044714
919,497112845,0.708240,0.388712,0.468015,-0.358135,0.137361,0.078892,0.099016
920,497146179,0.709628,0.387994,0.467602,-0.356704,0.050195,-0.043321,0.134266
921,497179513,0.711278,0.387342,0.466566,-0.355481,-0.055915,-0.165930,0.134144
922,497212847,0.713148,0.386610,0.464787,-0.354861,-0.165437,-0.205873,0.049917
923,497246181,0.714945,0.386133,0.462117,-0.355251,-0.323243,-0.180801,-0.032067
924,497279515,0.716173,0.386437,0.458658,-0.356927,-0.387566,-0.081560,-0.072911
925,497312849,0.716776,0.387085,0.455218,-0.359409,-0.342233,0.075861,-0.257957
926,497346183,0.716864,0.387702,0.452481,-0.362015,-0.354894,0.202553,-0.397972
927,497379517,0.716208,0.388683,0.450585,-0.364616,-0.302424,0.309880,-0.384029
928,497412851,0.714855,0.389834,0.449930,-0.366845,-0.178283,0.443688,-0.397941
929,497446185,0.713179,0.390618,0.450960,-0.368008,-0.009854,0.455491,-0.317131
930,497479519,0.711618,0.390817,0.453627,-0.367540,0.074325,0.314559,-0.325629
931,497512853,0.709933,0.390948,0.457664,-0.365649,0.092024,0.154855,0.190052
932,497546187,0.708708,0.389420,0.463635,-0.362117,0.519741,-0.236478,0.219925
933,497579521,0.709122,0.385383,0.470375,-0.356895,0.348466,-0.682659,0.152084
934,497612855,0.710346,0.382590,0.473572,-0.353220,0.020026,-1.032448,0.166836
935,497646189,0.711753,0.383251,0.470902,-0.353239,-0.055591,-0.991065,0.029561
936,497679523,0.713323,0.386001,0.463737,-0.356542,-0.243607,-0.509722,-0.141521
937,497712857,0.713831,0.390726,0.454161,-0.362653,-0.500515,-0.045426,0.077703
938,497746191,0.712223,0.397084,0.444843,-0.370374,-0.284013,0.271980,0.247933
939,497779525,0.710262,0.401813,0.439358,-0.375552,0.354455,0.561274,-0.218974
940,497812859,0.711056,0.401171,0.439884,-0.374116,0.304357,0.526689,-0.640001
941,497846193,0.713358,0.397418,0.443720,-0.369179,-0.142236,0.127668,-0.852563
942,497879527,0.714886,0.394310,0.447792,-0.364611,-0.296964,0.031676,-0.728321
943,497912861,0.715050,0.392091,0.451813,-0.361710,-0.321541,0.029676,-0.160211
944,497946195,0.713258,0.391456,0.455335,-0.361519,-0.386132,-0.095980,0.575922
945,497979529,0.709889,0.392878,0.457683,-0.363637,0.119758,0.040111,0.961928
946,498012863,0.707984,0.393685,0.459735,-0.363888,0.477368,-0.113682,0.700193
947,498046197,0.708718,0.392909,0.461400,-0.361180,0.239971,-0.401879,0.002777
948,498079531,0.710448,0.391804,0.461969,-0.358245,-0.013029,-0.553487,-0.259146
949,498112865,0.711983,0.390313,0.462097,-0.356655,-0.106648,-0.540743,-0.359461
950,498146199,0.712601,0.389061,0.461587,-0.357449,-0.328414,-0.264912,-0.462777
951,498179533,0.711260,0.390377,0.459082,-0.361884,-0.397503,0.156319,-0.051643
952,498212867,0.708255,0.393969,0.455566,-0.368272,-0.041478,0.456493,0.117872
953,498246201,0.705233,0.397188,0.453887,-0.372660,0.384945,0.659258,0.164265
954,498279535,0.703979,0.397421,0.455851,-0.372386,0.485804,0.460800,-0.001410
955,498312869,0.704112,0.395771,0.459788,-0.369034,0.163473,0.009356,-0.136374
956,498346203,0.704334,0.395031,0.462697,-0.365754,-0.008392,-0.126417,-0.220341
957,498379537,0.704227,0.395256,0.464308,-0.363669,0.028201,-0.162317,-0.344675
958,498412871,0.703615,0.395485,0.465931,-0.362527,0.035275,-0.181925,-0.364821
959,498446205,0.702329,0.395760,0.468007,-0.362046,0.124721,-0.181056,-0.044952
960,498479539,0.701064,0.395996,0.469898,-0.361791,0.305381,-0.173036,0.104903
961,498512873,0.700700,0.396280,0.470774,-0.361046,0.293758,-0.167576,0.237370
962,498546207,0.701322,0.396759,0.470371,-0.359836,0.157804,-0.262285,0.276115
963,498579541,0.702359,0.397604,0.468921,-0.358772,-0.014683,-0.305782,0.093502
964,498612875,0.703315,0.398745,0.466783,-0.358420,-0.147357,-0.282509,-0.051427
965,498646209,0.704009,0.399908,0.464447,-0.358795,-0.188182,-0.270414,-0.126163
966,498679543,0.704456,0.400646,0.462548,-0.359547,-0.188339,-0.230128,-0.114796
967,498712877,0.704788,0.400768,0.461245,-0.360433,-0.234179,-0.150095,-0.040209
968,498746211,0.705000,0.400747,0.460024,-0.361601,-0.246866,-0.117350,-0.026398
969,498779545,0.705085,0.400920,0.458624,-0.363018,-0.232088,-0.039103,-0.032220
970,498812879,0.705135,0.401057,0.457233,-0.364522,-0.206345,0.024619,-0.149257
971,498846213,0.704997,0.401200,0.455970,-0.366211,-0.247217,0.080854,-0.107653
972,498879547,0.704529,0.401446,0.454893,-0.368173,-0.204970,0.111561,-0.078529
973,498912881,0.703887,0.401788,0.453941,-0.370199,-0.188028,0.108598,-0.056939
974,498946215,0.703090,0.402582,0.452670,-0.372402,-0.151393,0.115677,-0.113923
975,498979549,0.702176,0.403850,0.451093,-0.374660,-0.119761,0.136806,-0.124074
976,499012883,0.701124,0.404932,0.450053,-0.376707,-0.093357,0.065332,-0.089559
977,499046217,0.699890,0.405477,0.449992,-0.378485,-0.101926,0.064083,0.034391
978,499079551,0.698561,0.405754,0.450391,-0.380163,0.011493,-0.094110,-0.001611
979,499112885,0.697544,0.405990,0.450593,-0.381540,0.051110,-0.135507,0.073556
980,499146219,0.696955,0.406185,0.449988,-0.383117,-0.036829,-0.229030,0.140915
981,499179553,0.696467,0.406843,0.448103,-0.385509,-0.113854,-0.263572,-0.046975
982,499212887,0.695682,0.408205,0.445208,-0.388825,-0.155342,-0.165725,0.039902
983,499246221,0.694406,0.409683,0.442169,-0.392999,-0.107767,-0.006897,0.140728
984,499279555,0.692925,0.410854,0.439900,-0.396916,0.062345,0.042604,-0.007988
985,499312889,0.692169,0.411074,0.438926,-0.399081,0.175880,-0.003201,-0.142249
986,499346223,0.692263,0.409993,0.439237,-0.399686,0.136096,-0.248730,-0.180118
987,499379557,0.693240,0.407482,0.440611,-0.399048,0.159241,-0.503714,-0.196500
988,499412891,0.695101,0.403780,0.441753,-0.398312,-0.079946,-0.529242,-0.434077
989,499446225,0.696337,0.401543,0.440236,-0.400087,-0.381400,-0.106995,-0.158953
990,499479559,0.695545,0.401343,0.437139,-0.405033,-0.246199,0.171486,0.580378
991,499512893,0.693312,0.401534,0.434660,-0.411292,0.173696,0.423939,-0.116439
992,499546227,0.691121,0.403058,0.432039,-0.416220,0.401142,0.572961,-0.271936
993,499579561,0.690483,0.405189,0.429026,-0.418320,0.483843,0.564498,-0.426661
994,499612895,0.691513,0.406097,0.427377,-0.417425,0.290247,0.441859,-0.737152
995,499646229,0.692933,0.406216,0.427391,-0.414933,-0.106937,0.309869,-0.867929
996,499679563,0.692801,0.407239,0.428587,-0.412913,-0.265326,0.346158,0.030544
997,499712897,0.691105,0.408215,0.431324,-0.411941,-0.139315,0.163764,0.034554
998,499746231,0.689134,0.409145,0.434819,-0.410644,0.284707,0.140717,0.091446
999,499779565,0.688974,0.409321,0.438064,-0.407274,0.185027,-0.041760,0.313652
1000,499812899,0.690163,0.409172,0.440319,-0.402957,-0.048639,-0.354407,0.261391
1001,499846233,0.691471,0.408900,0.442024,-0.399104,-0.206791,-0.513643,0.265479
1002,499879567,0.692025,0.408647,0.443219,-0.397072,-0.438365,-0.695569,0.322497
1003,499912901,0.691226,0.409561,0.442831,-0.397955,-0.409293,-0.585928,0.154130
1004,499946235,0.689790,0.411260,0.441259,-0.400432,-0.080493,-0.384453,0.028355
1005,499979569,0.689022,0.411915,0.440637,-0.401763,0.114005,-0.266345,-0.015244
1006,500012903,0.689516,0.410548,0.442194,-0.400602,0.086301,-0.346049,-0.056847
1007,500046237,0.690594,0.407977,0.444834,-0.398444,-0.108180,-0.478253,-0.101537
1008,500079571,0.691199,0.405729,0.446859,-0.397423,-0.114656,-0.525020,-0.079148
1009,500112905,0.691356,0.404001,0.448081,-0.397535,0.093439,-0.341150,0.011573
1010,500146239,0.691742,0.401977,0.449289,-0.397553,0.255776,-0.174835,0.056772
1011,500179573,0.692820,0.399306,0.450940,-0.396495,0.294163,-0.092790,0.046299
1012,500212907,0.694422,0.396367,0.452832,-0.394482,0.286359,-0.147420,-0.032967
1013,500246241,0.696335,0.393382,0.454590,-0.392066,0.240879,-0.159554,-0.049963
1014,500279575,0.698359,0.390535,0.455875,-0.389815,0.212828,-0.145322,-0.165945
1015,500312909,0.700215,0.388339,0.456430,-0.388027,0.197859,-0.049611,-0.308853
1016,500346243,0.701900,0.386928,0.456488,-0.386319,0.176113,0.086233,-0.280968
1017,500379577,0.703505,0.386096,0.456293,-0.384458,0.160314,0.240933,-0.339938
1018,500412911,0.704972,0.385771,0.456206,-0.382194,0.131133,0.378915,-0.341313
1019,500446245,0.706352,0.385654,0.456942,-0.378870,0.131885,0.488075,-0.304770
1020,500479579,0.707790,0.385041,0.459459,-0.373731,0.161010,0.387566,-0.240303
1021,500512913,0.709494,0.383352,0.463865,-0.366727,0.103758,0.239553,-0.139272
1022,500546247,0.711163,0.381072,0.469098,-0.359136,0.022044,-0.008519,-0.069325
1023,500579581,0.712690,0.378784,0.474200,-0.351753,0.062648,-0.204052,0.001085
1024,500612915,0.714212,0.376444,0.478782,-0.344904,0.051728,-0.366204,0.031816
1025,500646249,0.715671,0.374468,0.482200,-0.339223,0.008811,-0.450696,0.133426
1026,500679583,0.717064,0.373242,0.483927,-0.335150,-0.001534,-0.386766,0.070057
1027,500712917,0.718380,0.372578,0.484363,-0.332430,-0.018050,-0.261579,0.000715
1028,500746251,0.719675,0.372091,0.484226,-0.330366,-0.001506,-0.078214,-0.066271
1029,500779585,0.720943,0.371555,0.483964,-0.328584,-0.072712,0.075475,-0.106824
1030,500812919,0.722051,0.371229,0.483631,-0.327007,-0.133001,0.180211,-0.077984
1031,500846253,0.722906,0.371168,0.483440,-0.325466,-0.147249,0.246187,-0.053455
1032,500879587,0.723611,0.370847,0.483783,-0.323750,-0.144068,0.271165,-0.101780
1033,500912921,0.724129,0.370581,0.484306,-0.322111,-0.205013,0.170074,0.013109
1034,500946255,0.724356,0.370933,0.484440,-0.320992,-0.234530,0.072066,0.080151
1035,500979589,0.724408,0.371586,0.484333,-0.320279,-0.212032,-0.026527,0.075854
1036,501012923,0.724412,0.372105,0.484083,-0.320047,-0.265505,-0.151392,0.078318
1037,501046257,0.724213,0.372629,0.483525,-0.320730,-0.259871,-0.200899,0.094828
1038,501079591,0.723919,0.373160,0.482616,-0.322142,-0.270373,-0.144390,0.134370
1039,501112925,0.723603,0.373621,0.481365,-0.324183,-0.316640,-0.139184,0.154558
1040,501146259,0.723107,0.374267,0.479703,-0.326995,-0.296962,-0.088065,0.074404
1041,501179593,0.722416,0.375105,0.477552,-0.330690,-0.346102,-0.038729,0.025619
1042,501212927,0.721360,0.376457,0.474741,-0.335473,-0.357432,0.053382,-0.026277
1043,501246261,0.719990,0.378204,0.471563,-0.340887,-0.287752,0.171735,-0.102443
1044,501279595,0.718429,0.380001,0.468564,-0.346276,-0.283678,0.200713,-0.090844
1045,501312929,0.716627,0.381751,0.465938,-0.351589,-0.252351,0.196693,-0.073763
1046,501346263,0.714592,0.383448,0.463585,-0.356953,-0.219182,0.155276,-0.056963
1047,501379597,0.712337,0.385254,0.461298,-0.362438,-0.139097,0.077960,-0.078881
1048,501412931,0.709913,0.387453,0.458798,-0.367979,-0.097363,0.073845,-0.083732
1049,501446265,0.707451,0.389945,0.456032,-0.373484,-0.023377,0.061919,-0.150828
1050,501479599,0.704987,0.392474,0.453262,-0.378831,0.016998,0.058826,-0.260864
1051,501512933,0.702444,0.394936,0.450805,-0.383893,0.079636,0.072714,-0.227114
1052,501546267,0.699923,0.397246,0.448694,-0.388559,0.104455,0.112605,-0.258815
1053,501579601,0.697442,0.400020,0.446055,-0.393186,0.070673,0.236337,-0.412240
1054,501612935,0.694876,0.403745,0.442760,-0.397620,0.156854,0.456725,-0.483569
1055,501646269,0.692453,0.407285,0.440402,-0.400842,0.207762,0.508091,-0.372156
1056,501679603,0.690077,0.410362,0.439485,-0.402802,0.121760,0.358108,-0.244048
1057,501712937,0.687500,0.413813,0.438832,-0.404389,0.132103,0.145352,-0.101431
1058,501746271,0.685323,0.417293,0.437918,-0.405496,0.196321,-0.040917,-0.012620
1059,501779605,0.683785,0.420452,0.436718,-0.406123,0.063724,-0.286862,0.063600
1060,501812939,0.682558,0.423096,0.435571,-0.406673,0.031783,-0.544546,0.144967
1061,501846273,0.681695,0.424633,0.435034,-0.407092,-0.040846,-0.734261,0.394350
1062,501879607,0.681005,0.425344,0.434221,-0.408372,-0.241161,-0.935203,0.583975
1063,501912941,0.679925,0.426491,0.431933,-0.411391,-0.270180,-0.883213,0.686572
1064,501946275,0.678880,0.427012,0.429567,-0.415038,-0.114534,-0.556772,0.353869
1065,501979609,0.678077,0.426737,0.428041,-0.418197,0.014420,-0.397034,-0.046439
1066,502012943,0.677560,0.425577,0.427334,-0.420931,0.061588,-0.307237,-0.123559
1067,502046277,0.677114,0.424322,0.426228,-0.424024,-0.061536,-0.288483,-0.151718
1068,502079611,0.676370,0.424324,0.423691,-0.427737,0.019524,-0.172042,-0.223149
1069,502112945,0.675836,0.424522,0.420647,-0.431373,-0.004345,0.056277,-0.364292
1070,502146279,0.675045,0.425192,0.417150,-0.435330,-0.086834,0.359765,-0.418872
1071,502179613,0.673268,0.427259,0.413749,-0.439286,0.062142,0.603320,-0.291183
1072,502212947,0.670954,0.429529,0.413138,-0.441184,0.365633,0.580326,-0.042705
1073,502246281,0.669735,0.429305,0.418099,-0.438572,0.635798,0.110940,-0.113837
1074,502279615,0.670719,0.425067,0.427970,-0.431621,0.454956,-0.538159,0.084467
1075,502312949,0.672829,0.419457,0.437218,-0.424497,0.000213,-0.955849,0.129803
1076,502346283,0.674587,0.416581,0.440866,-0.420749,-0.134664,-1.111345,0.067438
1077,502379617,0.675901,0.416349,0.439385,-0.420419,-0.034886,-0.852961,0.023647
1078,502412951,0.676465,0.417371,0.435383,-0.422657,-0.221560,-0.381492,0.176093
1079,502446285,0.675179,0.420343,0.430032,-0.427220,-0.026793,0.111868,0.314907
1080,502479619,0.673954,0.422602,0.426933,-0.430026,0.731568,0.253644,-0.124374
1081,502512953,0.675966,0.419867,0.429638,-0.426841,0.726079,0.253195,-0.452359
1082,502546287,0.680066,0.414396,0.435060,-0.420129,0.195622,-0.027728,-0.541527
1083,502579621,0.684508,0.409590,0.439370,-0.413086,-0.096795,-0.177962,-0.579146
1084,502612955,0.688195,0.406146,0.442002,-0.407514,-0.402077,-0.072188,-0.095977
1085,502646289,0.689177,0.405636,0.442211,-0.406133,-0.829720,0.023852,0.408278
1086,502679623,0.686667,0.408715,0.440388,-0.409266,-0.062411,0.294375,0.411023
1087,502712957,0.684593,0.410828,0.440298,-0.410720,0.475141,0.481571,0.112199
1088,502746291,0.685194,0.409371,0.443755,-0.407438,0.395020,0.121705,-0.120981
1089,502779625,0.687448,0.406078,0.448780,-0.401388,-0.001348,-0.303754,-0.057602
1090,502812959,0.690202,0.402730,0.452407,-0.395926,-0.420992,-0.543595,-0.281022
1091,502846293,0.691724,0.402476,0.451375,-0.394706,-0.831174,-0.313737,-0.368299
1092,502879627,0.690267,0.407386,0.445140,-0.399274,-0.753311,0.164165,-0.371605
1093,502912961,0.685994,0.414819,0.438152,-0.406647,-0.140346,0.640991,-0.548878
1094,502946295,0.681611,0.419809,0.436459,-0.410695,0.574082,0.777044,-0.507711
1095,502979629,0.680072,0.419161,0.442809,-0.407096,0.627384,0.542724,-0.182076
1096,503012963,0.681271,0.414673,0.453817,-0.397451,0.254498,-0.047499,0.060538
1097,503046297,0.683330,0.409646,0.464521,-0.386615,-0.112271,-0.629115,0.334259
1098,503079631,0.684709,0.406422,0.471492,-0.379065,-0.335177,-1.079927,0.445785
1099,503112965,0.684441,0.406664,0.472975,-0.377438,-0.463532,-1.454286,0.517937
1100,503146299,0.683268,0.409269,0.469904,-0.380571,0.079476,-0.956495,0.410367
1101,503179633,0.683031,0.411401,0.465016,-0.384680,0.040408,-0.620338,0.136191
1102,503212967,0.683647,0.413221,0.458947,-0.388900,-0.129652,-0.343161,0.069027
1103,503246301,0.684254,0.415254,0.452037,-0.393732,-0.292794,0.032446,-0.142297
1104,503279635,0.684044,0.417949,0.444857,-0.399380,-0.273884,0.391149,-0.408298
1105,503312969,0.683172,0.420721,0.438681,-0.404759,-0.140789,0.694176,-0.565471
1106,503346303,0.682117,0.422622,0.434911,-0.408607,-0.070302,0.809824,-0.513575
1107,503379637,0.680978,0.423649,0.433871,-0.410545,-0.078928,0.718303,-0.284902
1108,503412971,0.679786,0.424215,0.434832,-0.410920,-0.094974,0.520079,-0.117831
1109,503446305,0.678356,0.425001,0.436348,-0.410863,-0.173433,0.191030,-0.073770
1110,503479639,0.676385,0.426814,0.437008,-0.411530,-0.205066,-0.036847,-0.027021
1111,503512973,0.674025,0.429541,0.436668,-0.412924,-0.107581,-0.114613,-0.008039
1112,503546307,0.671751,0.432151,0.436351,-0.414239,-0.032905,-0.223476,0.042576
1113,503579641,0.669631,0.433981,0.436871,-0.415210,-0.066405,-0.432387,0.170101
1114,503612975,0.667678,0.434954,0.437890,-0.416261,-0.098982,-0.550339,0.295444
1115,503646309,0.665847,0.435853,0.438085,-0.418046,-0.156254,-0.535007,0.226892
1116,503679643,0.664111,0.437242,0.436804,-0.420689,-0.163439,-0.465008,0.168837
1117,503712977,0.662386,0.438446,0.434921,-0.424092,-0.166280,-0.309665,-0.023639
1118,503746311,0.660376,0.439711,0.432942,-0.427925,-0.163056,-0.165536,-0.174915
1119,503779645,0.658321,0.440946,0.431511,-0.431253,-0.034883,-0.005991,-0.274796
1120,503812979,0.656484,0.441438,0.431702,-0.433353,0.111175,0.049202,-0.254451
1121,503846313,0.655182,0.440837,0.433778,-0.433862,0.157491,-0.014118,-0.149444
1122,503879647,0.654157,0.440028,0.436502,-0.433499,0.156094,-0.134703,-0.103000
1123,503912981,0.653141,0.439880,0.438502,-0.433162,0.139733,-0.283833,0.238628
1124,503946315,0.652178,0.440435,0.438839,-0.433706,0.036902,-0.364762,0.189591
1125,503979649,0.650918,0.442118,0.437116,-0.435623,0.059847,-0.343798,0.066942
1126,504012983,0.649722,0.443929,0.434558,-0.438118,0.090373,-0.304825,0.158108
1127,504046317,0.648992,0.444979,0.431941,-0.440715,0.003025,-0.290227,0.223410
1128,504079651,0.648491,0.445554,0.429061,-0.443676,-0.088831,-0.293155,0.121555
1129,504112985,0.647983,0.445794,0.425793,-0.447310,-0.085308,-0.264402,-0.040522
1130,504146319,0.647557,0.445712,0.422299,-0.451304,-0.117010,-0.181064,-0.056474
1131,504179653,0.647162,0.445571,0.418481,-0.455545,-0.075069,-0.038847,-0.201814
1132,504212987,0.646703,0.445419,0.414844,-0.459655,-0.003047,0.123022,-0.209828
1133,504246321,0.646049,0.445054,0.412255,-0.463243,0.079165,0.240708,-0.074000
1134,504279655,0.645310,0.444323,0.411168,-0.465932,0.202384,0.180191,-0.068448
1135,504312989,0.645186,0.442992,0.411222,-0.467323,0.304092,0.124430,-0.027659
1136,504346323,0.645667,0.441637,0.410848,-0.468268,0.118494,-0.002568,0.000914
1137,504379657,0.646251,0.441296,0.408637,-0.469716,0.041961,-0.053308,-0.059832
1138,504412991,0.646857,0.441524,0.405251,-0.471599,0.017200,0.058572,0.055374
1139,504446325,0.647614,0.441506,0.401918,-0.473425,-0.131804,0.047796,0.074762
1140,504479659,0.648209,0.441586,0.398721,-0.475236,-0.211873,0.082432,-0.052491
1141,504512993,0.648598,0.441746,0.395723,-0.477058,-0.212403,0.093532,-0.217589
1142,504546327,0.648914,0.441650,0.393470,-0.478579,-0.227141,0.118053,-0.314808
1143,504579661,0.648940,0.441413,0.392064,-0.479915,-0.224616,0.211577,-0.388993
1144,504612995,0.648503,0.441377,0.391272,-0.481182,-0.174248,0.284910,-0.307181
1145,504646329,0.647764,0.441593,0.390935,-0.482252,-0.102318,0.343212,-0.279867
1146,504679663,0.646833,0.442259,0.390895,-0.482924,-0.072125,0.369829,-0.180383
1147,504712997,0.645872,0.443155,0.391369,-0.483005,-0.050552,0.239821,-0.067729
1148,504746331,0.644938,0.443957,0.392460,-0.482633,-0.089574,0.083894,-0.095232
1149,504779665,0.643921,0.444838,0.393592,-0.482256,-0.111862,-0.077638,-0.043844
1150,504812999,0.643026,0.445571,0.394715,-0.481855,-0.091105,-0.199462,0.036896
1151,504846333,0.642348,0.445884,0.395863,-0.481529,-0.096734,-0.298819,0.022360
1152,504879667,0.641799,0.446038,0.396578,-0.481529,-0.104298,-0.374466,0.027269
1153,504913001,0.641287,0.446206,0.396502,-0.482119,-0.110189,-0.342982,0.030602
1154,504946335,0.640612,0.446500,0.395579,-0.483499,-0.051715,-0.222926,0.018710
1155,504979669,0.639894,0.446748,0.394566,-0.485047,0.077883,-0.160889,0.000302
1156,505013003,0.639527,0.446508,0.394308,-0.485961,0.144920,-0.115559,-0.041230
1157,505046337,0.639646,0.445687,0.394694,-0.486244,0.104910,-0.172208,0.002604
1158,505079671,0.639816,0.444978,0.394590,-0.486754,0.052683,-0.188349,-0.005975
1159,505113005,0.639886,0.444707,0.393739,-0.487597,0.155743,-0.111863,0.012426
1160,505146339,0.640381,0.444072,0.393171,-0.487985,0.196528,-0.071002,0.117529
1161,505179673,0.641365,0.442876,0.393045,-0.487882,0.077274,-0.123851,-0.027501
1162,505213007,0.642479,0.441795,0.392562,-0.487785,0.041716,-0.087036,-0.151529
1163,505246341,0.643689,0.440879,0.391504,-0.487868,0.018316,0.027171,-0.321691
1164,505279675,0.644734,0.440294,0.390181,-0.488077,0.047023,0.224824,-0.328192
1165,505313009,0.645612,0.440001,0.389343,-0.487849,0.079257,0.354927,-0.183010
1166,505346343,0.646518,0.439892,0.389278,-0.486799,0.026534,0.420979,-0.120298
1167,505379677,0.647198,0.440246,0.389484,-0.485409,0.040680,0.492682,-0.238851
1168,505413011,0.647816,0.440795,0.390306,-0.483422,0.118834,0.492659,-0.386615
1169,505446345,0.648583,0.441171,0.392277,-0.480445,0.069944,0.439056,-0.386834
1170,505479679,0.649275,0.441658,0.395092,-0.476743,-0.025894,0.409280,0.024035
1171,505513013,0.649705,0.442359,0.398034,-0.473044,-0.093886,0.171472,0.150442
1172,505546347,0.650297,0.442523,0.401123,-0.469455,-0.051138,-0.076117,0.185151
1173,505579681,0.650974,0.442708,0.403033,-0.466698,-0.740712,-0.220604,0.093324
1174,505613015,0.650544,0.444653,0.402529,-0.465884,-0.395516,-0.115100,-0.052483
1175,505646349,0.650018,0.446568,0.402338,-0.464950,-0.336470,-0.009778,-0.081334
1176,505679683,0.649784,0.447533,0.403714,-0.463153,-0.345785,-0.026734,-0.040191
1177,505713017,0.649460,0.447841,0.406116,-0.461205,-0.457809,-0.099728,-0.011379
1178,505746351,0.648463,0.448709,0.407591,-0.460464,-0.438484,-0.114454,0.021705
1179,505779685,0.646871,0.450538,0.407688,-0.460831,-0.267602,-0.082192,0.014851
1180,505813019,0.645366,0.452400,0.407761,-0.461052,-0.123194,-0.091603,0.034073
1181,505846353,0.644396,0.453295,0.408868,-0.460548,-0.087856,-0.178727,-0.020933
1182,505879687,0.643656,0.453486,0.410483,-0.459959,-0.145941,-0.284526,-0.048980
1183,505913021,0.642827,0.453609,0.411833,-0.459790,-0.106873,-0.370005,0.087645
1184,505946355,0.642186,0.453442,0.412977,-0.459824,0.025354,-0.398811,0.083449
1185,505979689,0.642188,0.452562,0.414159,-0.459625,0.106460,-0.327056,0.010633
1186,506013023,0.642649,0.451484,0.414838,-0.459429,0.040408,-0.280755,0.066752
1187,506046357,0.643256,0.450562,0.415013,-0.459326,0.100076,-0.225576,0.190805
1188,506079691,0.644249,0.449326,0.415057,-0.459105,0.049701,-0.221821,0.137223
1189,506113025,0.645478,0.448071,0.414513,-0.459096,-0.073629,-0.268409,0.015026
1190,506146359,0.646505,0.447326,0.413029,-0.459716,-0.135403,-0.178284,-0.049348
1191,506179693,0.647176,0.446781,0.411467,-0.460702,-0.074329,-0.054133,-0.162678
1192,506213027,0.647696,0.445872,0.411036,-0.461236,0.041498,0.029687,-0.269691
1193,506246361,0.648542,0.444065,0.412351,-0.460616,0.110253,0.156377,-0.216176
1194,506279695,0.649752,0.441802,0.414690,-0.458984,0.076797,0.104811,-0.205756
1195,506313029,0.651013,0.439862,0.417126,-0.456849,0.060940,0.112252,-0.093104
1196,506346363,0.652281,0.438148,0.419333,-0.454661,0.010645,0.092725,0.009994
1197,506379697,0.653233,0.436804,0.420984,-0.453059,-0.126072,0.000110,0.000304
1198,506413031,0.653504,0.436287,0.421785,-0.452421,-0.104331,-0.096439,-0.075608
1199,506446365,0.653461,0.436124,0.422248,-0.452207,-0.045826,-0.169930,-0.066380
1200,506479699,0.653452,0.435737,0.422964,-0.451925,-0.043112,-0.288941,-0.068871
1201,506513033,0.653539,0.434907,0.424133,-0.451503,0.027578,-0.334793,-0.058775
1202,506546367,0.653731,0.433536,0.425663,-0.451102,0.090598,-0.314519,-0.057864
1203,506579701,0.654050,0.432015,0.426958,-0.450876,0.140284,-0.240333,-0.078210
1204,506613035,0.654454,0.430829,0.427427,-0.450980,0.225982,-0.047936,-0.084116
1205,506646369,0.654991,0.430236,0.426942,-0.451226,0.270501,0.150963,-0.026000
1206,506679703,0.655794,0.430125,0.425898,-0.451152,0.320352,0.281561,-0.065657
1207,506713037,0.656950,0.429799,0.425360,-0.450287,0.247369,0.320936,-0.048038
1208,506746371,0.658350,0.429591,0.424925,-0.448850,-0.114475,0.012529,-0.027140
1209,506779705,0.659459,0.429941,0.424249,-0.447524,-0.136093,-0.192219,0.000310
1210,506813039,0.660465,0.430161,0.423891,-0.446166,-0.208699,-0.358859,-0.011724
1211,506846373,0.661409,0.429797,0.424125,-0.444895,-0.260109,-0.512608,0.098489
1212,506879707,0.662230,0.428699,0.424700,-0.444182,-0.286975,-0.586046,0.074553
1213,506913041,0.663036,0.427247,0.424782,-0.444302,-0.286892,-0.482851,0.022343
1214,506946375,0.663716,0.426078,0.423575,-0.445559,-0.270823,-0.260934,-0.057857
1215,506979709,0.664075,0.425284,0.421737,-0.447522,-0.158710,-0.013926,-0.113618
1216,507013043,0.664107,0.424531,0.420482,-0.449367,-0.040199,0.130951,-0.179577
1217,507046377,0.664069,0.423714,0.420194,-0.450462,0.085062,0.188022,-0.140326
1218,507079711,0.664490,0.422403,0.420908,-0.450406,0.111647,-0.018611,0.023794
1219,507113045,0.665334,0.420789,0.421877,-0.449764,-0.071233,-0.232185,0.004242
1220,507146379,0.666057,0.419886,0.421665,-0.449737,-0.129796,-0.334280,0.121416
1221,507179713,0.666797,0.419175,0.420581,-0.450319,-0.073246,-0.275682,-0.004001
1222,507213047,0.667580,0.417986,0.419689,-0.451094,-0.037830,-0.157896,-0.151389
1223,507246381,0.668248,0.416683,0.419176,-0.451788,-0.006381,0.008757,-0.182150
1224,507279715,0.668932,0.415564,0.419030,-0.451942,0.114898,0.166350,-0.171479
1225,507313049,0.670009,0.414178,0.419668,-0.451025,0.124077,0.113493,-0.211627
1226,507346383,0.671324,0.412537,0.420971,-0.449357,0.021340,-0.073237,-0.118176
1227,507379717,0.672555,0.411003,0.422112,-0.447849,-0.052103,-0.186974,0.000370
1228,507413051,0.673769,0.409521,0.422593,-0.446927,-0.111940,-0.218175,0.072485
1229,507446385,0.674786,0.408554,0.422004,-0.446835,-0.132057,-0.028680,0.096463
1230,507479719,0.675582,0.408040,0.421015,-0.447034,-0.077819,0.005565,0.080844
1231,507513053,0.676583,0.406995,0.420868,-0.446611,-0.026691,0.047218,-0.106842
1232,507546387,0.677730,0.405459,0.421393,-0.445774,-0.170676,-0.101527,-0.018679
1233,507579721,0.678953,0.403660,0.421944,-0.445023,-0.185502,-0.236847,0.089727
1234,507613055,0.680156,0.401730,0.421901,-0.444973,-0.302872,-0.239462,0.089142
1235,507646389,0.680903,0.400403,0.420468,-0.446381,-0.335182,-0.184527,0.101754
1236,507679723,0.681148,0.399592,0.418102,-0.448948,-0.182761,-0.062445,0.005129
1237,507713057,0.681435,0.398389,0.416063,-0.451469,-0.111263,-0.001607,-0.241686
1238,507746391,0.681772,0.397048,0.414392,-0.453674,-0.137890,0.020889,-0.342714
1239,507779725,0.681866,0.396016,0.412807,-0.455874,-0.125403,0.125572,-0.353498
1240,507813059,0.681503,0.395134,0.411779,-0.458107,-0.064987,0.218174,-0.276481
1241,507846393,0.680657,0.394536,0.411558,-0.460075,0.060803,0.221330,-0.078507
1242,507879727,0.679861,0.393938,0.412149,-0.461233,0.165787,0.195080,0.019432
1243,507913061,0.679469,0.393321,0.412951,-0.461618,0.154134,0.030706,-0.065771
1244,507946395,0.679169,0.393418,0.413086,-0.461857,0.083489,-0.053933,-0.238426
1245,507979729,0.678660,0.394259,0.412703,-0.462231,0.099470,-0.088430,-0.217369
1246,508013063,0.677967,0.395290,0.412421,-0.462619,0.106398,-0.095192,-0.110203
1247,508046397,0.677050,0.396486,0.412398,-0.462959,0.111964,-0.112687,0.088905
1248,508079731,0.676172,0.397703,0.412650,-0.462973,0.155367,-0.207900,0.085787
1249,508113065,0.675632,0.398881,0.412787,-0.462626,0.068695,-0.275133,-0.021726
1250,508146399,0.675293,0.400156,0.412479,-0.462295,0.048055,-0.290655,-0.113381
1251,508179733,0.675072,0.401100,0.412405,-0.461865,-0.012750,-0.349479,-0.140890
1252,508213067,0.674777,0.401866,0.412460,-0.461581,-0.040400,-0.329917,-0.084219
1253,508246401,0.674632,0.402483,0.412326,-0.461375,-0.034886,-0.231243,-0.014637
1254,508279735,0.674666,0.402984,0.411818,-0.461342,-0.090184,-0.103565,-0.074830
1255,508313069,0.674521,0.403879,0.410861,-0.461625,-0.093845,0.017917,-0.178324
1256,508346403,0.674206,0.405164,0.409908,-0.461806,-0.071744,0.117331,-0.323446
1257,508379737,0.673591,0.407058,0.409014,-0.461830,-0.138914,0.252823,-0.255532
1258,508413071,0.672399,0.409577,0.408551,-0.461749,-0.049473,0.301670,-0.070975
1259,508446405,0.671166,0.411420,0.409992,-0.460626,0.036294,0.104754,-0.047542
1260,508479739,0.670305,0.412272,0.413219,-0.458230,-0.028031,-0.304332,0.044914
1261,508513073,0.669852,0.412585,0.416356,-0.455763,-0.125529,-0.565460,0.083714
1262,508546407,0.669467,0.413207,0.417610,-0.454616,-0.210455,-0.648394,0.069866
1263,508579741,0.668659,0.414823,0.416565,-0.455292,-0.125756,-0.465645,0.034884
1264,508613075,0.667667,0.416799,0.414625,-0.456712,0.053141,-0.216724,-0.032311
1265,508646409,0.667088,0.418201,0.413357,-0.457426,0.146227,-0.093665,-0.045435
1266,508679743,0.666961,0.418980,0.412975,-0.457242,0.082205,-0.033742,0.000067
1267,508713077,0.667034,0.419631,0.412892,-0.456614,0.087568,-0.046631,-0.063897
1268,508746411,0.667394,0.420269,0.412792,-0.455590,0.078544,-0.025718,-0.121741
1269,508779745,0.667987,0.420937,0.412724,-0.454163,0.047184,-0.064499,-0.156808
1270,508813079,0.668689,0.421399,0.412942,-0.452502,-0.020441,-0.108589,-0.085520
1271,508846413,0.669348,0.421813,0.413110,-0.450986,-0.124918,-0.131650,0.099934
1272,508879747,0.669850,0.422455,0.412821,-0.449903,-0.132741,-0.185967,0.290245
1273,508913081,0.670406,0.422901,0.412356,-0.449080,-0.237912,-0.242368,0.082863
1274,508946415,0.670671,0.423680,0.411210,-0.449003,-0.258528,-0.150752,-0.114682
1275,508979749,0.670580,0.424807,0.409640,-0.449509,-0.171514,0.054184,-0.289232
1276,509013083,0.670156,0.425942,0.408638,-0.449978,-0.148625,0.209301,-0.336398
1277,509046417,0.669285,0.427122,0.408612,-0.450179,-0.103019,0.305313,-0.209038
1278,509079751,0.668158,0.428321,0.409428,-0.449973,-0.045834,0.248715,-0.140371
1279,509113085,0.667005,0.429650,0.410625,-0.449325,-0.009351,0.130644,-0.088393
1280,509146419,0.665914,0.431125,0.411685,-0.448559,-0.040144,0.035405,-0.088865
1281,509179753,0.664745,0.432878,0.412306,-0.448035,-0.039937,-0.086072,-0.011888
1282,509213087,0.663605,0.434645,0.412660,-0.447687,-0.031260,-0.145141,0.080279
1283,509246421,0.662533,0.436204,0.412900,-0.447538,-0.063251,-0.194351,0.159372
1284,509279755,0.661349,0.437884,0.412619,-0.447908,-0.123487,-0.195526,0.179026
1285,509313089,0.659972,0.439892,0.411685,-0.448829,-0.047260,-0.140268,0.067153
1286,509346423,0.658764,0.441522,0.410989,-0.449641,0.016006,-0.057276,0.003911
1287,509379757,0.657872,0.442403,0.411182,-0.449904,0.011377,-0.042019,0.012095
1288,509413091,0.657123,0.442978,0.411816,-0.449854,0.003097,-0.084479,-0.018743
1289,509446425,0.656523,0.443547,0.412058,-0.449948,0.019144,-0.109697,-0.082569
1290,509479759,0.656083,0.444097,0.411641,-0.450427,-0.040791,-0.076867,-0.077187
1291,509513093,0.655490,0.444946,0.410487,-0.451505,-0.019122,-0.019811,-0.105928
1292,509546427,0.654887,0.445858,0.409220,-0.452630,0.011577,0.074504,-0.074135
1293,509579761,0.654507,0.446375,0.408553,-0.453272,0.022272,0.074030,-0.033496
1294,509613095,0.654489,0.446284,0.408600,-0.453345,0.048271,0.110989,-0.038950
1295,509646429,0.654721,0.445883,0.408930,-0.453107,-0.003377,0.108583,-0.040592
1296,509679763,0.655006,0.445691,0.409052,-0.452774,-0.014816,0.142872,-0.089755
1297,509713097,0.655245,0.445673,0.408982,-0.452509,-0.048649,0.167457,-0.120052
1298,509746431,0.655324,0.445817,0.408787,-0.452428,-0.059967,0.186260,-0.088281
1299,509779765,0.655344,0.446086,0.408630,-0.452276,-0.047994,0.178782,0.017329
1300,509813099,0.655497,0.446302,0.408584,-0.451883,-0.119469,0.112122,0.019882
1301,509846433,0.655628,0.446645,0.408472,-0.451454,-0.209646,0.059706,0.006623
1302,509879767,0.655616,0.447061,0.408447,-0.451082,-0.229714,-0.031058,-0.052840
1303,509913101,0.655490,0.447206,0.409045,-0.450579,-0.223786,-0.101688,-0.013769
1304,509946435,0.655317,0.446838,0.410358,-0.450003,-0.216061,-0.113315,-0.128543
1305,509979769,0.654926,0.446451,0.411805,-0.449633,-0.149473,-0.024139,-0.255128
1306,510013103,0.654263,0.446337,0.413235,-0.449400,0.011794,0.061883,-0.287454
1307,510046437,0.653651,0.446127,0.415221,-0.448669,0.142412,0.100497,-0.250409
1308,510079771,0.653358,0.445484,0.417859,-0.447283,0.171349,0.060473,-0.092340
1309,510113105,0.653185,0.445144,0.419921,-0.445941,0.124486,-0.005253,0.032735
1310,510146439,0.653040,0.445816,0.420281,-0.445142,0.152673,-0.009476,0.038604
1311,510179773,0.653220,0.447106,0.419216,-0.444587,0.107496,-0.027455,-0.037264
1312,510213107,0.653491,0.448758,0.417371,-0.444261,-0.019404,-0.048033,-0.090687
1313,510246441,0.653655,0.450437,0.415514,-0.444062,-0.086380,-0.103494,-0.087961
1314,510279775,0.653793,0.451668,0.414155,-0.443877,-0.177068,-0.131197,-0.015821
1315,510313109,0.653755,0.452652,0.412914,-0.444087,-0.266504,-0.145632,0.028193
1316,510346443,0.653417,0.453737,0.411529,-0.444762,-0.246181,-0.153216,0.071637
1317,510379777,0.653091,0.454389,0.410581,-0.445451,-0.180874,-0.138905,0.004867
1318,510413111,0.652888,0.454431,0.410193,-0.446061,-0.214240,-0.112734,-0.005403
1319,510446445,0.652535,0.454441,0.409785,-0.446944,-0.173761,-0.091646,-0.013076
1320,510479779,0.652062,0.454420,0.409490,-0.447924,-0.130549,-0.073242,0.093832
1321,510513113,0.651588,0.454094,0.409547,-0.448891,-0.093087,-0.119883,0.095738
1322,510546447,0.651125,0.453549,0.409726,-0.449949,-0.046114,-0.173744,0.107068
1323,510579781,0.650803,0.452890,0.409669,-0.451130,-0.015845,-0.213065,0.074439
1324,510613115,0.650608,0.452371,0.409171,-0.452382,-0.001635,-0.148538,-0.019111
1325,510646449,0.650555,0.451859,0.408561,-0.453519,0.054663,-0.089757,-0.072307
1326,510679783,0.650676,0.451047,0.408404,-0.454294,0.053017,-0.073525,-0.175448
1327,510713117,0.650786,0.450211,0.408668,-0.454729,0.047617,-0.007597,-0.096190
1328,510746451,0.650898,0.449431,0.409132,-0.454923,0.034327,-0.006931,-0.090036
1329,510779785,0.651077,0.448749,0.409701,-0.454829,0.075867,0.000119,-0.096146
1330,510813119,0.651427,0.447958,0.410424,-0.454454,0.004423,-0.008432,-0.101673
1331,510846453,0.651662,0.447375,0.411210,-0.453981,0.013562,-0.104047,-0.077988
1332,510879787,0.652069,0.446518,0.412361,-0.453197,0.022403,-0.121977,-0.032121
1333,510913121,0.652622,0.445607,0.413157,-0.452572,-0.055219,-0.133219,-0.126945
1334,510946455,0.653003,0.445254,0.413245,-0.452287,0.014765,-0.032626,-0.105628
1335,510979789,0.653409,0.444780,0.413608,-0.451836,0.004317,-0.023571,-0.113676
1336,511013123,0.653901,0.444038,0.414434,-0.451098,-0.036054,-0.050108,-0.099841
1337,511046457,0.654116,0.443657,0.414905,-0.450727,-0.057996,-0.069892,-0.003362
1338,511079791,0.654184,0.443627,0.415046,-0.450529,-0.064000,-0.083242,-0.013511
1339,511113125,0.654343,0.443594,0.415293,-0.450102,-0.025337,-0.118023,-0.096856
1340,511146459,0.654740,0.443218,0.416011,-0.449232,-0.036316,-0.163467,-0.136359
1341,511179793,0.655153,0.442585,0.417077,-0.448264,-0.067179,-0.206551,-0.104555
1342,511213127,0.655532,0.441833,0.418121,-0.447478,-0.045882,-0.194972,-0.052593
1343,511246461,0.655918,0.441102,0.418804,-0.446995,-0.004842,-0.122527,-0.022058
1344,511279795,0.656340,0.440574,0.418996,-0.446716,0.007215,-0.079508,-0.024673
1345,511313129,0.656782,0.440249,0.418878,-0.446497,0.016397,0.001819,-0.047668
1346,511346463,0.657276,0.440042,0.418549,-0.446283,-0.027183,0.041952,-0.041718
1347,511379797,0.657761,0.440044,0.417993,-0.446088,-0.059323,0.050112,-0.151493
1348,511413131,0.658054,0.440391,0.417321,-0.445942,-0.101341,0.069380,-0.133716
1349,511446465,0.658210,0.440716,0.417000,-0.445692,-0.126004,0.007161,-0.095157
1350,511479799,0.658260,0.440861,0.417122,-0.445360,-0.158864,-0.066305,-0.111262
1351,511513133,0.658136,0.441061,0.417293,-0.445186,-0.163735,-0.112187,0.001800
1352,511546467,0.657950,0.441258,0.417403,-0.445162,-0.147360,-0.158456,0.019816
1353,511579801,0.657766,0.441369,0.417480,-0.445251,-0.148290,-0.170605,-0.015926
1354,511613135,0.657511,0.441500,0.417387,-0.445585,-0.104435,-0.150067,-0.051455
1355,511646469,0.657212,0.441480,0.417382,-0.446050,-0.033026,-0.155530,-0.068875
1356,511679803,0.656935,0.441268,0.417528,-0.446532,-0.006580,-0.077307,-0.084328
1357,511713137,0.656657,0.441247,0.417415,-0.447066,0.018502,0.010728,-0.018290
1358,511746471,0.656392,0.441459,0.417052,-0.447584,0.057888,0.029052,-0.029475
1359,511779805,0.656103,0.441848,0.416658,-0.447992,0.038005,0.021804,-0.042203
1360,511813139,0.655851,0.442372,0.416225,-0.448245,-0.019039,-0.026050,-0.049230
1361,511846473,0.655693,0.442902,0.415715,-0.448426,-0.079506,-0.089806,-0.144436
1362,511879807,0.655376,0.443541,0.415229,-0.448709,-0.085814,-0.053480,-0.079406
1363,511913141,0.654897,0.443929,0.415378,-0.448887,-0.046890,-0.122724,-0.028661
1364,511946475,0.654567,0.443791,0.416220,-0.448724,-0.067603,-0.162108,-0.040798
1365,511979809,0.654411,0.443562,0.416857,-0.448586,-0.050849,-0.293911,0.154823
1366,512013143,0.654554,0.443226,0.416805,-0.448760,-0.137430,-0.247292,0.058318
1367,512046477,0.654186,0.443500,0.415589,-0.450149,-0.158637,-0.186759,-0.108466
1368,512079811,0.653282,0.444315,0.413719,-0.452376,-0.025808,-0.048524,-0.196956
1369,512113145,0.652738,0.444636,0.412575,-0.453887,0.006974,0.058275,-0.207165
1370,512146479,0.651982,0.445128,0.411537,-0.455431,0.070766,0.122909,-0.085537
1371,512179813,0.651607,0.445483,0.410882,-0.456212,0.066011,0.208476,-0.114268
1372,512213147,0.651257,0.446171,0.410381,-0.456491,0.045900,0.203361,-0.075227
1373,512246481,0.651089,0.446682,0.410632,-0.456005,0.031081,0.036397,-0.057126
1374,512279815,0.650962,0.447086,0.411069,-0.455395,-0.118351,-0.125126,-0.104539
1375,512313149,0.650605,0.447784,0.410804,-0.455459,-0.200441,-0.214365,0.055668
1376,512346483,0.650036,0.448727,0.409862,-0.456191,-0.134956,-0.116253,0.027427
1377,512379817,0.649506,0.449506,0.409143,-0.456825,-0.106051,-0.022956,0.015151
1378,512413151,0.649171,0.449604,0.409547,-0.456843,-0.057200,-0.088907,0.007392
1379,512446485,0.649129,0.449099,0.410664,-0.456396,-0.144913,-0.175567,-0.089609
1380,512479819,0.648949,0.448940,0.411064,-0.456447,-0.155198,-0.168161,-0.007213
1381,512513153,0.648635,0.449024,0.410788,-0.457061,-0.104126,-0.086704,-0.049978
1382,512546487,0.648161,0.449088,0.410563,-0.457871,-0.013661,0.048090,-0.028697
1383,512579821,0.647804,0.449076,0.410693,-0.458272,0.038029,0.102381,-0.031134
1384,512613155,0.647656,0.449007,0.411291,-0.458012,0.036882,0.050019,-0.101091
1385,512646489,0.647710,0.448819,0.412365,-0.457154,0.030614,-0.027352,-0.114832
1386,512679823,0.648010,0.448347,0.413910,-0.455792,-0.006920,-0.127851,-0.112435
1387,512713157,0.648400,0.447630,0.415697,-0.454315,-0.031191,-0.204986,-0.086229
1388,512746491,0.648879,0.446736,0.417430,-0.452918,0.011525,-0.216759,-0.007744
1389,512779825,0.649614,0.445671,0.418899,-0.451556,0.049449,-0.219397,-0.020103
1390,512813159,0.650681,0.444460,0.420056,-0.450136,0.058028,-0.159558,0.009760
1391,512846493,0.651885,0.443305,0.420767,-0.448867,-0.007400,-0.056221,-0.005479
1392,512879827,0.652940,0.442411,0.421186,-0.447821,0.021051,0.029416,-0.041974
1393,512913161,0.654130,0.441210,0.422053,-0.446453,0.057032,0.097257,-0.083697
1394,512946495,0.655373,0.439945,0.423218,-0.444772,-0.033162,0.051970,-0.095692
1395,512979829,0.656507,0.438952,0.424372,-0.442976,-0.040669,0.008921,-0.042561
1396,513013163,0.657634,0.437749,0.425777,-0.441144,-0.060263,-0.053785,-0.004063
1397,513046497,0.658526,0.436555,0.427028,-0.439785,-0.132867,-0.065546,-0.009871
1398,513079831,0.659123,0.435745,0.427876,-0.438869,-0.029468,-0.022312,-0.070128
1399,513113165,0.659882,0.434600,0.429179,-0.437589,0.051619,0.032497,-0.184114
1400,513146499,0.660691,0.433195,0.431025,-0.435944,-0.015434,0.012079,-0.050920
1401,513179833,0.661359,0.431871,0.432968,-0.434316,0.025940,-0.097348,0.107591
1402,513213167,0.662274,0.430321,0.434566,-0.432863,0.025247,-0.146385,0.094446
1403,513246501,0.663274,0.429378,0.434499,-0.432335,-0.065383,-0.067843,0.022913
1404,513279835,0.664149,0.429277,0.433023,-0.432573,-0.015101,0.152452,-0.146474
1405,513313169,0.665063,0.428977,0.432067,-0.432421,-0.014784,0.366191,-0.247668
1406,513346503,0.665835,0.428414,0.432169,-0.431689,-0.089098,0.440817,-0.258316
1407,513379837,0.666176,0.428005,0.433201,-0.430533,-0.057203,0.317053,-0.150315
1408,513413171,0.666414,0.427331,0.435260,-0.428755,-0.000112,0.108057,-0.102646
1409,513446505,0.666769,0.426395,0.437677,-0.426669,-0.052785,-0.179931,0.030717
1410,513479839,0.667291,0.425279,0.439566,-0.425020,-0.072390,-0.341241,0.023165
1411,513513173,0.667831,0.424439,0.440074,-0.424487,-0.106576,-0.252317,-0.051424
1412,513546507,0.668042,0.424244,0.439357,-0.425091,-0.034404,-0.058386,0.030184
1413,513579841,0.668092,0.424055,0.438798,-0.425779,0.101719,0.008232,0.149755
1414,513613175,0.668318,0.423690,0.438530,-0.426063,0.055836,-0.056479,0.082720
1415,513646509,0.668753,0.423665,0.437627,-0.426333,0.020087,-0.172725,-0.004216
1416,513679843,0.669401,0.423445,0.436564,-0.426625,0.027209,-0.195833,-0.134309
1417,513713177,0.670124,0.422701,0.436013,-0.426791,0.060912,-0.215441,-0.142452
1418,513746511,0.671123,0.421431,0.435860,-0.426634,0.117263,-0.239270,0.070806
1419,513779845,0.672641,0.419894,0.435051,-0.426586,-0.032282,-0.215369,0.165836
1420,513813179,0.674132,0.419274,0.432293,-0.427643,-0.164935,-0.118290,0.068770
1421,513846513,0.675286,0.419554,0.428145,-0.429716,-0.184773,0.155920,-0.018203
1422,513879847,0.675897,0.420229,0.423932,-0.432265,-0.220297,0.333512,-0.183978
1423,513913181,0.676154,0.420847,0.420716,-0.434400,-0.149837,0.440284,-0.230009
1424,513946515,0.676346,0.421177,0.418763,-0.435666,-0.268298,0.418881,-0.315394
1425,513979849,0.676236,0.421797,0.417509,-0.436439,-0.317152,0.355170,-0.330636
1426,514013183,0.675639,0.422599,0.417034,-0.437041,-0.299416,0.248381,-0.269037
1427,514046517,0.674529,0.423224,0.417608,-0.437603,-0.290516,0.081311,-0.137527
1428,514079851,0.672844,0.424088,0.418459,-0.438547,-0.223804,-0.104148,-0.103921
1429,514113185,0.670972,0.425228,0.419077,-0.439720,-0.059205,-0.156015,-0.006062
1430,514146519,0.669394,0.425999,0.419714,-0.440769,-0.003600,-0.236887,0.028873
1431,514179853,0.668018,0.426491,0.420372,-0.441752,0.040530,-0.289864,0.013620
1432,514213187,0.666799,0.426754,0.420889,-0.442846,0.098585,-0.272465,0.078489
1433,514246521,0.665775,0.426955,0.420973,-0.444112,0.162298,-0.205963,0.045947
1434,514279855,0.665005,0.427186,0.420646,-0.445351,0.219236,-0.150537,0.131802
1435,514313189,0.664587,0.427460,0.419744,-0.446562,0.138327,-0.011533,0.011021
1436,514346523,0.664243,0.428423,0.417915,-0.447864,0.082056,0.071384,-0.054633
1437,514379857,0.663940,0.429464,0.416368,-0.448756,0.066829,0.044736,-0.089826
1438,514413191,0.663770,0.429870,0.415803,-0.449144,-0.081764,-0.088161,-0.141966
1439,514446525,0.663485,0.430316,0.415133,-0.449757,-0.167136,-0.242118,-0.072018
1440,514479859,0.663100,0.430895,0.413972,-0.450839,-0.185040,-0.306582,-0.041697
1441,514513193,0.662660,0.431199,0.412693,-0.452364,-0.200138,-0.258555,-0.028904
1442,514546527,0.661941,0.431510,0.411175,-0.454499,-0.159337,-0.147834,-0.072911
1443,514579861,0.661155,0.431738,0.409813,-0.456652,0.009106,-0.064806,-0.070863
1444,514613195,0.660605,0.431648,0.408791,-0.458444,-0.019449,-0.001276,-0.074740
1445,514646529,0.659945,0.431985,0.407350,-0.460355,-0.021166,0.047114,-0.124475
1446,514679863,0.659128,0.432675,0.405868,-0.462184,0.077867,0.091062,-0.202792
1447,514713197,0.658336,0.433275,0.405075,-0.463446,0.097096,0.130769,-0.167865
1448,514746531,0.657554,0.434000,0.404817,-0.464102,0.107453,0.114181,-0.108922
1449,514779865,0.656944,0.434743,0.405187,-0.463948,0.199414,0.039540,-0.129859
1450,514813199,0.656762,0.435025,0.406500,-0.462791,0.135240,-0.130437,-0.081700
1451,514846533,0.656773,0.435088,0.408126,-0.461283,0.068546,-0.250803,0.062377
1452,514879867,0.656910,0.435042,0.409483,-0.459925,0.069609,-0.322949,0.116386
1453,514913201,0.657274,0.435037,0.410103,-0.458858,0.043933,-0.299123,0.062958
1454,514946535,0.657824,0.435353,0.409822,-0.458019,-0.023325,-0.162257,0.071362
1455,514979869,0.658447,0.435735,0.409255,-0.457266,-0.051306,-0.076584,-0.082318
1456,515013203,0.658996,0.435834,0.409331,-0.456314,-0.092025,-0.057421,-0.185863
1457,515046537,0.659415,0.435534,0.410172,-0.455239,-0.113879,-0.099807,-0.166714
1458,515079871,0.659748,0.435179,0.411102,-0.454254,-0.068675,-0.111402,-0.043008
1459,515113205,0.660288,0.434699,0.411811,-0.453286,-0.036728,-0.095086,0.032079
1460,515146539,0.660988,0.434206,0.412212,-0.452374,-0.073367,-0.051263,-0.044766
1461,515179873,0.661603,0.433891,0.412370,-0.451632,-0.064342,0.023843,-0.066954
1462,515213207,0.662027,0.433635,0.412601,-0.451045,-0.062414,0.025331,-0.072368
1463,515246541,0.662298,0.433421,0.412955,-0.450530,-0.053800,-0.017341,-0.076147
1464,515279875,0.662546,0.433349,0.413016,-0.450178,-0.073113,-0.012898,-0.061273
1465,515313209,0.662787,0.433499,0.412699,-0.449970,-0.071158,-0.037457,-0.033175
1466,515346543,0.662948,0.433557,0.412545,-0.449816,-0.051251,-0.004127,-0.102306
1467,515379877,0.663107,0.433441,0.412787,-0.449472,-0.051258,0.007311,-0.171370
1468,515413211,0.663288,0.433258,0.413339,-0.448875,-0.009157,0.044768,-0.122142
1469,515446545,0.663467,0.432949,0.414214,-0.448100,-0.023746,0.064005,-0.089724
1470,515479879,0.663422,0.432968,0.414875,-0.447537,-0.006913,0.067956,-0.062510
1471,515513213,0.663358,0.433292,0.415270,-0.446951,0.043029,0.117637,-0.002692
1472,515546547,0.663419,0.433710,0.415560,-0.446185,0.017050,0.075625,-0.011147
1473,515579881,0.663540,0.434266,0.415830,-0.445212,-0.065696,-0.013946,0.002650
1474,515613215,0.663751,0.434556,0.416341,-0.444136,-0.118389,-0.113598,-0.050957
1475,515646549,0.663825,0.434637,0.416921,-0.443401,-0.176573,-0.239965,-0.077492
1476,515679883,0.663685,0.434616,0.417369,-0.443210,-0.121219,-0.221770,-0.029893
1477,515713217,0.663553,0.434314,0.417708,-0.443383,-0.079126,-0.196221,0.076814
1478,515746551,0.663546,0.433969,0.417610,-0.443824,-0.033911,-0.102889,0.006604
1479,515779885,0.663555,0.433880,0.416937,-0.444530,-0.027600,0.015219,-0.034583
1480,515813219,0.663588,0.433732,0.416400,-0.445128,0.026831,0.052325,-0.071587
1481,515846553,0.663671,0.433338,0.416244,-0.445533,0.001918,0.091355,-0.100235
1482,515879887,0.663695,0.433158,0.415860,-0.446032,-0.025301,0.096088,-0.011065
1483,515913221,0.663595,0.433442,0.415031,-0.446675,0.006954,0.134329,-0.110369
1484,515946555,0.663453,0.433807,0.414319,-0.447193,-0.019253,0.125018,-0.129285
1485,515979889,0.663307,0.434017,0.414037,-0.447467,-0.051753,0.082786,-0.124713
1486,516013223,0.662949,0.434258,0.413934,-0.447860,-0.040277,0.024523,-0.081719
1487,516046557,0.662452,0.434559,0.413794,-0.448431,-0.011107,-0.045350,-0.028520
1488,516079891,0.662120,0.434728,0.413445,-0.449079,-0.080108,-0.113652,0.031891
1489,516113225,0.661837,0.434934,0.412561,-0.450108,-0.116500,-0.167546,0.053976
1490,516146559,0.661094,0.435547,0.410803,-0.452212,-0.106494,-0.116587,0.084529
1491,516179893,0.660410,0.435991,0.408874,-0.454525,-0.095205,-0.092867,0.134671
1492,516213227,0.659781,0.436369,0.406791,-0.456939,-0.082939,-0.087276,0.038481
1493,516246561,0.659267,0.436628,0.404668,-0.459311,-0.107579,-0.049688,-0.009426
1494,516279895,0.658738,0.436757,0.402653,-0.461714,-0.134897,0.016625,-0.072598
