sep=,
DeviceTag:,D_Leg
FirmwareVersion:,2.2.1
AppVersion:,2023.6.0
SyncStatus:,Synced
OutputRate:,30Hz
FilterProfile:,General
Measurement Mode:,Sensor fusion Mode - Complete(Quaternion)
StartTime: ,2026-09-15_14:09:32_362 AEST
© Movella Technologies B. V. 2005-2026

PacketCounter,SampleTimeFine,Quat_W,Quat_X,Quat_Y,Quat_Z,FreeAcc_X,FreeAcc_Y,FreeAcc_Z
1,546365178,-0.568395,-0.355723,0.668689,-0.321365,0.358793,0.249848,0.024377
2,546398512,-0.568289,-0.356458,0.667173,-0.323877,0.376866,0.135559,0.026885
3,546431846,-0.568263,-0.357316,0.665338,-0.326741,0.150505,-0.167217,0.133700
4,546465180,-0.568280,-0.358527,0.663384,-0.329347,0.107822,0.096430,0.112182
5,546498514,-0.568679,-0.359965,0.660735,-0.332400,-0.011442,0.182911,0.072520
6,546531848,-0.568924,-0.361359,0.657909,-0.336054,-0.456140,-0.008055,0.115921
7,546565182,-0.570326,-0.362215,0.654228,-0.339919,-0.527536,0.284920,0.444577
8,546598516,-0.573082,-0.362411,0.649101,-0.344870,-0.835919,0.103355,0.232397
9,546631850,-0.576032,-0.363066,0.642532,-0.351503,-0.635092,0.440459,0.335808
10,546665184,-0.579279,-0.364032,0.635402,-0.358068,-0.712433,0.805693,0.387332
11,546698518,-0.586040,-0.361686,0.628462,-0.361674,-1.445338,0.491656,0.854326
12,546731852,-0.595116,-0.355143,0.623357,-0.362172,-1.029280,-0.428917,-0.862474
13,546765186,-0.601154,-0.349470,0.621105,-0.361586,-0.625922,-0.742504,0.444871
14,546798520,-0.607585,-0.341107,0.622369,-0.356615,-1.172233,-0.712713,0.740102
15,546831854,-0.613430,-0.330680,0.624614,-0.352481,-1.503185,-0.636464,-0.009971
16,546865188,-0.618449,-0.324193,0.621586,-0.355081,0.853804,-0.271174,-0.449436
17,546898522,-0.618945,-0.321989,0.622481,-0.354655,3.057172,-0.419254,-0.906740
18,546931856,-0.619486,-0.319692,0.624275,-0.352628,2.081306,0.409377,-0.795753
19,546965190,-0.619356,-0.317270,0.628578,-0.347361,1.426744,1.356446,-1.113798
20,546998524,-0.622109,-0.308639,0.635881,-0.336763,0.382018,-0.102558,-0.089465
21,547031858,-0.624974,-0.298315,0.644429,-0.324283,0.556546,-0.305887,0.182395
22,547065192,-0.626927,-0.288376,0.655182,-0.307522,0.223117,0.317669,1.324212
23,547098526,-0.629404,-0.276807,0.666082,-0.289128,-1.157477,-1.720216,0.730764
24,547131860,-0.629381,-0.269253,0.674239,-0.277156,-0.926313,-1.817136,-0.043437
25,547165194,-0.627093,-0.265239,0.681352,-0.268689,-0.157608,-0.601722,0.285136
26,547198528,-0.627209,-0.260547,0.686589,-0.259524,-0.467730,0.802838,0.246170
27,547231862,-0.629620,-0.255041,0.690220,-0.249322,-0.270435,-0.008786,0.176229
28,547265196,-0.629012,-0.252425,0.694615,-0.241179,0.077051,-0.491287,-0.079156
29,547298530,-0.628461,-0.250812,0.697799,-0.235029,0.156011,-0.240943,0.245083
30,547331864,-0.626882,-0.251349,0.700673,-0.230070,0.080726,-0.444211,0.160922
31,547365198,-0.623634,-0.254604,0.703423,-0.226902,0.578101,-0.369993,-0.124410
32,547398532,-0.618795,-0.259437,0.706530,-0.225018,0.387341,-0.635319,0.224274
33,547431866,-0.613691,-0.264305,0.709786,-0.223073,-0.147616,-0.177233,0.360401
34,547465200,-0.610141,-0.269185,0.711348,-0.221998,-0.341494,0.095114,0.273072
35,547498534,-0.606724,-0.275559,0.711647,-0.222586,-0.192159,-0.475626,0.038089
36,547531868,-0.603411,-0.282215,0.711462,-0.223840,-0.149213,-0.418886,0.135324
37,547565202,-0.601347,-0.290868,0.708463,-0.227792,-0.181424,-0.152728,-0.093720
38,547598536,-0.597597,-0.300749,0.705714,-0.233296,0.319724,0.769536,0.279817
39,547631870,-0.594881,-0.308108,0.703695,-0.236709,0.540996,1.031321,0.156348
40,547665204,-0.592124,-0.313536,0.702907,-0.238828,0.435524,1.412485,0.465667
41,547698538,-0.589392,-0.319809,0.701000,-0.242838,0.521610,1.027339,0.394623
42,547731872,-0.586289,-0.326641,0.698301,-0.248954,0.347148,0.340208,-0.053331
43,547765206,-0.581739,-0.333732,0.696750,-0.254506,-0.135292,0.294524,-0.206513
44,547798540,-0.578031,-0.340450,0.694112,-0.261180,-0.389483,0.161236,0.367622
45,547831874,-0.574810,-0.347609,0.690258,-0.268956,-0.732880,-0.223545,0.267548
46,547865208,-0.571847,-0.355843,0.684912,-0.278017,-0.721706,-0.270217,0.800943
47,547898542,-0.569885,-0.366358,0.676770,-0.288144,-1.230813,-0.464985,0.138865
48,547931876,-0.567941,-0.377165,0.666735,-0.301142,-0.997481,-0.054224,-0.037847
49,547965210,-0.565420,-0.385896,0.658545,-0.312624,0.020213,1.366967,-0.333297
50,547998544,-0.563915,-0.390590,0.653027,-0.320979,0.517449,2.230535,-0.150118
51,548031878,-0.565176,-0.388506,0.651997,-0.323376,0.342947,2.058758,-0.030629
52,548065212,-0.567769,-0.381563,0.655200,-0.320613,0.316236,1.264334,-0.209244
53,548098546,-0.570388,-0.371307,0.661600,-0.314812,0.181463,0.488562,-0.022282
54,548131880,-0.573162,-0.359299,0.669236,-0.307480,-0.226717,0.001971,0.138990
55,548165214,-0.575584,-0.347870,0.676287,-0.300594,-0.082295,-0.378677,0.059118
56,548198548,-0.576845,-0.337616,0.683039,-0.294542,0.079550,-0.346033,0.131007
57,548231882,-0.577403,-0.327980,0.689463,-0.289324,0.186036,0.141224,0.530083
58,548265216,-0.579914,-0.317305,0.694697,-0.283629,0.125196,0.659801,0.389759
59,548298550,-0.584092,-0.305599,0.699002,-0.277261,-0.057682,0.569204,0.106171
60,548331884,-0.588545,-0.291325,0.704636,-0.268822,-0.260708,0.708444,0.134060
61,548365218,-0.595286,-0.273430,0.710457,-0.257204,0.093340,0.842842,0.054504
62,548398552,-0.604665,-0.251863,0.715721,-0.242322,-0.432327,0.363988,0.322870
63,548431886,-0.617569,-0.226099,0.719093,-0.224553,-0.978052,-0.243286,0.349123
64,548465220,-0.629285,-0.200755,0.721794,-0.206746,-1.457773,-0.664958,0.201188
65,548498554,-0.638183,-0.182897,0.721392,-0.197220,-0.653970,-1.219268,0.205448
66,548531888,-0.641966,-0.174243,0.720701,-0.195299,0.798151,-0.834649,0.356363
67,548565222,-0.644580,-0.169905,0.719037,-0.196638,1.567590,-0.789529,0.371436
68,548598556,-0.646736,-0.164987,0.718524,-0.195620,1.816319,-0.656625,-0.241182
69,548631890,-0.648150,-0.157722,0.720165,-0.190841,1.795464,-0.639678,-0.431287
70,548665224,-0.648239,-0.150284,0.723305,-0.184562,1.270236,-0.899858,-0.089874
71,548698558,-0.646904,-0.144653,0.727004,-0.179132,0.428547,-0.938832,0.070815
72,548731892,-0.644902,-0.141233,0.730460,-0.174967,-0.427264,-0.865741,0.082608
73,548765226,-0.644583,-0.139283,0.731970,-0.171363,-0.784932,-1.091386,0.085609
74,548798560,-0.646221,-0.138361,0.731364,-0.168504,-1.192373,-2.014170,0.180019
75,548831894,-0.647535,-0.141182,0.728762,-0.172349,-0.962364,-2.949933,0.674257
76,548865228,-0.647907,-0.149179,0.723724,-0.184981,-0.931926,-2.701547,0.736883
77,548898562,-0.646626,-0.163639,0.716270,-0.205148,-0.181494,-1.087610,-0.038097
78,548931896,-0.644131,-0.185624,0.705251,-0.230851,1.255110,0.116969,0.575111
79,548965230,-0.641498,-0.209067,0.692886,-0.254386,1.256488,-0.017926,0.349051
80,548998564,-0.638531,-0.231444,0.680301,-0.275562,0.957425,0.060561,-0.251168
81,549031898,-0.632701,-0.255887,0.667119,-0.298656,1.678758,0.025332,-0.963080
82,549065232,-0.622394,-0.282648,0.655992,-0.320066,1.979312,1.298460,-1.616238
83,549098566,-0.612301,-0.308675,0.643843,-0.339567,-0.094653,2.028478,-0.702667
84,549131900,-0.601242,-0.333529,0.633902,-0.354213,0.317508,1.789187,0.939880
85,549165234,-0.593455,-0.345686,0.631065,-0.360695,-2.857870,-0.232317,3.052126
86,549198568,-0.595065,-0.344516,0.632327,-0.356932,-2.540220,1.432633,-0.897892
87,549231902,-0.590709,-0.350655,0.633436,-0.356222,0.633536,0.276789,-0.197221
88,549265236,-0.590173,-0.354123,0.632679,-0.355024,0.131445,-1.886367,0.403088
89,549298570,-0.588424,-0.360591,0.628327,-0.359123,-0.867562,-0.800252,-0.027236
90,549331904,-0.580741,-0.373453,0.622791,-0.368017,0.009813,1.435761,-0.011694
91,549365238,-0.575900,-0.381285,0.620787,-0.370968,-0.145631,1.056413,0.270458
92,549398572,-0.575674,-0.383748,0.620536,-0.369194,-0.927692,-0.191868,0.183245
93,549431906,-0.575481,-0.385745,0.619894,-0.368491,-0.150760,1.117069,0.077471
94,549465240,-0.575272,-0.385856,0.622644,-0.364038,0.376953,2.155669,-0.281533
95,549498574,-0.575656,-0.382787,0.629740,-0.354336,0.630855,-0.649735,0.201818
96,549531908,-0.577080,-0.376846,0.637795,-0.343825,-0.022678,-0.930508,-0.055898
97,549565242,-0.576897,-0.372395,0.644666,-0.336081,-0.357624,0.093858,0.084016
98,549598576,-0.575243,-0.369972,0.650879,-0.329553,-0.208508,0.082870,0.155864
99,549631910,-0.573968,-0.366507,0.656981,-0.323482,-0.603958,-0.221592,0.074449
100,549665244,-0.574137,-0.361623,0.662599,-0.317159,-0.423822,0.430630,0.248191
101,549698578,-0.576517,-0.354818,0.668267,-0.308518,-0.000355,0.177739,0.142394
102,549731912,-0.578296,-0.348961,0.673162,-0.301140,-0.383866,-0.140752,0.025517
103,549765246,-0.578820,-0.344424,0.677376,-0.295862,-0.001563,0.157862,0.234214
104,549798580,-0.579732,-0.339371,0.681665,-0.290004,-0.069787,0.418606,0.189541
105,549831914,-0.581280,-0.333332,0.686227,-0.283069,-0.269119,0.257594,0.035990
106,549865248,-0.583801,-0.325666,0.690916,-0.275290,-0.078415,0.143166,0.217693
107,549898582,-0.586611,-0.317490,0.695620,-0.266894,-0.142377,-0.053290,0.250745
108,549931916,-0.588517,-0.311218,0.699412,-0.260087,-0.066063,-0.328958,0.013478
109,549965250,-0.589163,-0.306936,0.702414,-0.255586,0.067458,-0.121656,0.124776
110,549998584,-0.589586,-0.303231,0.705141,-0.251492,0.197911,0.110742,0.110957
111,550031918,-0.590292,-0.299395,0.707666,-0.247303,0.083933,0.085929,0.233136
112,550065252,-0.591203,-0.295276,0.710163,-0.242880,-0.070949,-0.028253,0.060676
113,550098586,-0.592045,-0.291721,0.712093,-0.239450,0.056134,0.010460,0.247751
114,550131920,-0.592899,-0.288972,0.713327,-0.236986,0.080499,-0.171129,0.120147
115,550165254,-0.593353,-0.287501,0.713932,-0.235816,-0.138304,-0.235519,0.189782
116,550198588,-0.593549,-0.287288,0.713787,-0.236020,0.303988,-0.290721,0.160153
117,550231922,-0.593262,-0.287899,0.713588,-0.236595,0.263372,-0.064801,0.050878
118,550265256,-0.592849,-0.288886,0.713272,-0.237383,0.083510,-0.145768,0.120214
119,550298590,-0.592440,-0.290179,0.712743,-0.238412,-0.226364,-0.069380,0.128391
120,550331924,-0.592150,-0.291825,0.712105,-0.239028,-0.421465,0.126740,0.222228
121,550365258,-0.592130,-0.294444,0.710461,-0.240751,-0.503679,-0.185980,0.173558
122,550398592,-0.591827,-0.297981,0.708234,-0.243689,-0.284592,-0.309780,0.029456
123,550431926,-0.590500,-0.303216,0.705495,-0.248352,-0.032915,0.001805,0.121271
124,550465260,-0.588638,-0.309079,0.702556,-0.253817,0.102602,-0.040125,0.240590
125,550498594,-0.587126,-0.314072,0.699905,-0.258471,0.350094,-0.000222,0.015116
126,550531928,-0.585981,-0.318456,0.697193,-0.262994,0.166903,-0.073856,0.129310
127,550565262,-0.584207,-0.323860,0.694207,-0.268192,0.364276,0.016927,0.157055
128,550598596,-0.582297,-0.329498,0.691031,-0.273622,0.170230,-0.069601,0.166668
129,550631930,-0.580828,-0.334942,0.687488,-0.279006,-0.165275,-0.146796,0.214965
130,550665264,-0.579496,-0.341145,0.682889,-0.285481,-0.315926,0.113362,0.214830
131,550698598,-0.578248,-0.346755,0.678596,-0.291426,-0.040452,0.201140,-0.027737
132,550731932,-0.576484,-0.351490,0.675448,-0.296518,0.036013,0.506541,0.042437
133,550765266,-0.574714,-0.355091,0.673147,-0.300864,-0.116902,0.499689,0.036776
134,550798600,-0.574183,-0.356395,0.671627,-0.303719,-0.085325,0.281742,0.156035
135,550831934,-0.574300,-0.356415,0.670879,-0.305123,-0.078251,0.107000,0.132814
136,550865268,-0.574472,-0.356341,0.670019,-0.306772,-0.075016,0.137323,0.074247
137,550898602,-0.574539,-0.355945,0.669484,-0.308271,0.242597,0.193086,0.085411
138,550931936,-0.575200,-0.354049,0.669935,-0.308241,0.483133,0.445010,0.063460
139,550965270,-0.577111,-0.349402,0.671897,-0.305693,0.272037,-0.084833,0.028729
140,550998604,-0.578890,-0.344153,0.674504,-0.302526,-0.009041,0.307310,0.131649
141,551031938,-0.580229,-0.338476,0.677981,-0.298566,0.170407,0.569863,0.010835
142,551065272,-0.581369,-0.331399,0.682969,-0.292865,0.262332,0.409455,0.073066
143,551098606,-0.583097,-0.321894,0.689138,-0.285487,-0.414746,-0.225327,0.088692
144,551131940,-0.584060,-0.313110,0.694961,-0.279101,-0.700915,-0.139798,0.190363
145,551165274,-0.584596,-0.306194,0.699433,-0.274440,-0.813450,0.033409,0.314061
146,551198608,-0.586144,-0.300213,0.701787,-0.271725,-0.641697,-0.022734,0.105742
147,551231942,-0.587751,-0.294748,0.703466,-0.269889,-0.696520,0.299080,0.056966
148,551265276,-0.588182,-0.290082,0.705819,-0.267852,-0.516070,0.742447,-0.127233
149,551298610,-0.590869,-0.283055,0.707504,-0.264998,-0.195637,0.660102,0.211711
150,551331944,-0.595326,-0.274070,0.708938,-0.260598,-0.101613,0.342346,0.079017
151,551365278,-0.601258,-0.264207,0.709354,-0.255992,-0.073974,0.149503,0.317251
152,551398612,-0.608111,-0.255255,0.707825,-0.253103,-0.121878,-0.745415,0.105650
153,551431946,-0.612002,-0.249262,0.707203,-0.251431,0.096205,-0.353521,-0.039196
154,551465280,-0.614841,-0.244598,0.706787,-0.250252,0.239037,0.091137,0.288622
155,551498614,-0.621338,-0.237617,0.704334,-0.247835,-0.177762,-0.262452,0.320603
156,551531948,-0.626186,-0.232623,0.702285,-0.246181,0.373825,-0.130653,-0.071558
157,551565282,-0.627744,-0.229343,0.702353,-0.245095,0.628331,0.167529,-0.124801
158,551598616,-0.630056,-0.223406,0.703319,-0.241855,0.181440,0.122456,0.272865
159,551631950,-0.634116,-0.214722,0.704289,-0.236221,-0.022804,-0.426996,0.285056
160,551665284,-0.635761,-0.207677,0.706422,-0.231685,0.172813,-0.170266,0.126041
161,551698618,-0.636870,-0.200915,0.708652,-0.227759,0.204988,-0.048739,-0.001613
162,551731952,-0.638070,-0.193827,0.710873,-0.223584,0.045488,-0.038856,0.228241
163,551765286,-0.638586,-0.187465,0.713250,-0.219933,0.124380,-0.191011,0.185448
164,551798620,-0.638844,-0.181229,0.715759,-0.216230,0.155920,-0.230796,0.124191
165,551831954,-0.639784,-0.174402,0.717964,-0.211708,0.221944,-0.418523,0.122738
166,551865288,-0.639818,-0.168977,0.720299,-0.208041,0.115171,-0.355012,0.270737
167,551898622,-0.639309,-0.165205,0.722287,-0.205732,0.090143,-0.455782,0.074623
168,551931956,-0.638655,-0.163022,0.723624,-0.204801,-0.097581,-0.523013,0.172845
169,551965290,-0.638182,-0.161925,0.724295,-0.204774,-0.048562,-0.310742,0.109608
170,551998624,-0.637242,-0.162699,0.724567,-0.206122,-0.133175,-0.343605,-0.021567
171,552031958,-0.636503,-0.165314,0.723863,-0.208779,-0.101546,-0.642342,0.160923
172,552065292,-0.635434,-0.169925,0.722422,-0.213277,-0.047292,-0.889484,0.281217
173,552098626,-0.634226,-0.176476,0.719940,-0.219845,0.052276,-0.789895,0.313513
174,552131960,-0.632562,-0.185105,0.716555,-0.228435,0.126714,-0.523338,0.276569
175,552165294,-0.630331,-0.195472,0.712485,-0.238476,0.193061,-0.142417,0.078471
176,552198628,-0.628753,-0.205289,0.707871,-0.247943,0.146911,-0.076345,-0.011694
177,552231962,-0.626677,-0.215756,0.703062,-0.257800,0.073708,-0.142500,-0.071725
178,552265296,-0.624087,-0.227501,0.697490,-0.268882,0.092732,-0.032569,0.338321
179,552298630,-0.621379,-0.239486,0.691701,-0.279494,0.120711,-0.047480,-0.049879
180,552331964,-0.618310,-0.250860,0.686450,-0.289101,-0.010651,0.019922,-0.269241
181,552365298,-0.614849,-0.262157,0.681434,-0.298183,0.157917,0.275589,0.564556
182,552398632,-0.612437,-0.271494,0.677233,-0.304302,-0.057598,0.245883,0.612492
183,552431966,-0.611128,-0.278496,0.674201,-0.307324,-0.065939,-0.152817,-0.215792
184,552465300,-0.609509,-0.285796,0.671034,-0.310748,-0.119008,-0.535103,-0.062015
185,552498634,-0.607907,-0.293723,0.667063,-0.315014,-0.044174,-0.518208,0.188777
186,552531968,-0.606850,-0.302539,0.661690,-0.320002,-0.113175,-0.220316,0.451474
187,552565302,-0.605428,-0.312877,0.655022,-0.326409,-0.111702,-0.430463,0.403718
188,552598636,-0.601688,-0.326496,0.646966,-0.335915,0.049354,-0.254629,0.148252
189,552631970,-0.595884,-0.341780,0.638924,-0.346291,0.265913,0.509476,-0.290501
190,552665304,-0.590988,-0.354008,0.632986,-0.353232,0.206578,0.798330,-0.002430
191,552698638,-0.589132,-0.360791,0.629663,-0.355401,-0.115478,0.388643,-0.085148
192,552731972,-0.587460,-0.365204,0.629022,-0.354795,-0.304551,0.800751,-0.056216
193,552765306,-0.586839,-0.367319,0.629665,-0.352493,-0.496086,0.594051,0.019877
194,552798640,-0.585688,-0.369113,0.631298,-0.349598,-0.227733,0.215096,-0.058270
195,552831974,-0.584706,-0.369969,0.634018,-0.345391,-0.521218,0.182721,0.145074
196,552865308,-0.583480,-0.370378,0.637626,-0.340348,0.143816,0.318637,-0.053957
197,552898642,-0.583387,-0.367962,0.643072,-0.332798,-0.198645,-0.266007,-0.055730
198,552931976,-0.583057,-0.365231,0.648852,-0.325075,-0.459442,0.626179,0.070716
199,552965310,-0.581444,-0.362479,0.656239,-0.316092,-0.073427,0.279873,0.078179
200,552998644,-0.578343,-0.358690,0.666022,-0.305462,0.335575,-0.058903,-0.040053
201,553031978,-0.575742,-0.351922,0.677720,-0.292233,-0.137245,-0.448927,0.187982
202,553065312,-0.576956,-0.342989,0.687262,-0.277819,0.260631,0.165992,0.859480
203,553098646,-0.582193,-0.337443,0.688655,-0.270129,-0.383279,-1.440583,0.385305
204,553131980,-0.585041,-0.334822,0.689503,-0.265027,-1.330226,-0.083506,-0.535715
205,553165314,-0.587939,-0.333716,0.688880,-0.261605,-0.168012,0.191625,0.486829
206,553198648,-0.588766,-0.334553,0.688504,-0.259660,0.138933,0.658475,-0.395353
207,553231982,-0.590333,-0.330539,0.691020,-0.254510,0.545442,1.756335,0.409586
208,553265316,-0.595740,-0.322244,0.693122,-0.246711,0.632205,0.526751,-0.039068
209,553298650,-0.600406,-0.311843,0.697342,-0.236672,0.768656,-0.354428,-0.056910
210,553331984,-0.603106,-0.301069,0.703596,-0.224956,-0.178534,-0.282487,0.553768
211,553365318,-0.604239,-0.296851,0.706232,-0.219186,-0.170445,-0.396666,0.368287
212,553398652,-0.602216,-0.298188,0.707367,-0.219278,0.050899,0.556452,0.053453
213,553431986,-0.600724,-0.299558,0.707684,-0.220478,-0.112567,0.701083,0.056524
214,553465320,-0.601198,-0.301252,0.705639,-0.223415,0.515485,0.685411,0.265260
215,553498654,-0.602290,-0.302100,0.703621,-0.225682,1.132259,0.251757,0.279616
216,553531988,-0.602002,-0.302787,0.703224,-0.226762,0.676551,0.106532,0.255632
217,553565322,-0.600846,-0.304911,0.702486,-0.229254,-0.046276,-0.596105,0.095082
218,553598656,-0.599138,-0.309495,0.699818,-0.235653,-0.177085,-1.171000,-0.174392
219,553631990,-0.595512,-0.315961,0.697347,-0.243461,-0.016128,0.077574,0.051485
220,553665324,-0.592335,-0.322305,0.694716,-0.250320,0.151540,0.572842,0.290996
221,553698658,-0.590883,-0.327156,0.691134,-0.257280,-0.008119,0.238349,0.180935
222,553731992,-0.589734,-0.330721,0.688100,-0.263414,-0.505726,0.403086,0.088132
223,553765326,-0.588186,-0.334463,0.685457,-0.268983,-0.463333,0.096247,0.119565
224,553798660,-0.587166,-0.337175,0.683144,-0.273668,-0.576858,0.310117,0.270089
225,553831994,-0.586552,-0.338585,0.681533,-0.277239,-0.593766,-0.061661,-0.135354
226,553865328,-0.585575,-0.339087,0.680922,-0.280176,-0.536000,0.423135,0.075083
227,553898662,-0.583690,-0.339227,0.681695,-0.282054,-0.430318,0.151639,-0.043453
228,553931996,-0.579792,-0.339566,0.684530,-0.282818,-0.862858,-0.550921,0.005083
229,553965330,-0.577258,-0.339149,0.686627,-0.283418,0.081568,-0.392392,0.233090
230,553998664,-0.577148,-0.337806,0.687200,-0.283859,0.606933,0.034212,0.466184
231,554031998,-0.577853,-0.335801,0.687263,-0.284648,0.069965,0.582733,0.086210
232,554065332,-0.577750,-0.334009,0.687740,-0.285812,-0.120314,0.587832,0.021887
233,554098666,-0.578234,-0.331485,0.688243,-0.286559,-0.280458,0.454021,0.133624
234,554132000,-0.580056,-0.327242,0.689026,-0.285871,-0.130659,0.288143,0.177879
235,554165334,-0.581901,-0.322045,0.690332,-0.284871,-0.018572,0.235732,0.040388
236,554198668,-0.583961,-0.315687,0.692436,-0.282658,-0.250413,0.292272,0.143889
237,554232002,-0.586363,-0.308413,0.695106,-0.279140,-0.215092,0.132126,0.060605
238,554265336,-0.588539,-0.300963,0.698017,-0.275405,-0.081556,0.015619,0.022015
239,554298670,-0.590690,-0.293939,0.700513,-0.272027,-0.134275,-0.162532,0.068673
240,554332004,-0.592852,-0.288193,0.701582,-0.270714,-0.261964,0.009826,0.010348
241,554365338,-0.594596,-0.283306,0.702254,-0.270305,0.056807,0.098008,0.314020
242,554398672,-0.596060,-0.278438,0.703370,-0.269234,0.158551,0.176982,-0.024904
243,554432006,-0.597750,-0.272546,0.704975,-0.267311,0.278051,0.426035,-0.036156
244,554465340,-0.600479,-0.264413,0.707479,-0.262709,0.275611,0.472511,0.064364
245,554498674,-0.603923,-0.255199,0.710120,-0.256733,-0.013308,0.187730,0.155925
246,554532008,-0.607178,-0.246679,0.712263,-0.251392,-0.285666,-0.289938,0.127582
247,554565342,-0.610449,-0.238908,0.713630,-0.247061,-0.338699,-0.608115,0.376980
248,554598676,-0.613645,-0.233344,0.713293,-0.245429,-0.234515,-0.684476,0.178324
249,554632010,-0.614421,-0.230324,0.713431,-0.245939,0.354402,-0.013205,-0.038464
250,554665344,-0.615517,-0.226295,0.713995,-0.245302,0.537319,0.527392,0.049781
251,554698678,-0.618514,-0.219104,0.714941,-0.241506,0.472671,0.492309,0.136678
252,554732012,-0.622283,-0.209593,0.716558,-0.235396,0.229239,0.287487,0.292296
253,554765346,-0.627974,-0.197684,0.717694,-0.226973,-0.104085,-0.183865,0.401432
254,554798680,-0.633645,-0.185862,0.718402,-0.218816,-0.258974,-0.683953,0.247811
255,554832014,-0.637194,-0.176862,0.719059,-0.213751,0.041409,-0.846562,0.194719
256,554865348,-0.638221,-0.171353,0.720093,-0.211685,0.333271,-0.477597,0.159057
257,554898682,-0.638601,-0.167520,0.720860,-0.210995,0.378649,-0.049885,0.196983
258,554932016,-0.639059,-0.163070,0.722086,-0.208890,0.488502,0.169982,0.126159
259,554965350,-0.640250,-0.157025,0.723491,-0.204975,0.413683,-0.203890,0.363820
260,554998684,-0.641257,-0.150952,0.725073,-0.200759,-0.023681,-0.578180,0.132468
261,555032018,-0.641853,-0.147009,0.725815,-0.199093,-0.022911,-0.401740,-0.028708
262,555065352,-0.641968,-0.145423,0.725786,-0.199992,0.206193,-0.152509,-0.118045
263,555098686,-0.641911,-0.145627,0.725150,-0.202318,0.247265,-0.031986,0.110290
264,555132020,-0.642301,-0.145960,0.724257,-0.204031,0.229390,-0.194324,-0.133101
265,555165354,-0.642708,-0.147302,0.723265,-0.205298,0.259422,-0.880080,-0.436373
266,555198688,-0.642468,-0.152270,0.721395,-0.208974,0.260724,-0.710650,-0.059776
267,555232022,-0.640804,-0.161028,0.719324,-0.214581,0.382903,-0.742125,0.442823
268,555265356,-0.637548,-0.172933,0.716986,-0.222688,0.034364,-1.235430,0.308987
269,555298690,-0.632719,-0.187383,0.713793,-0.234703,-0.498748,-1.061409,0.618046
270,555332024,-0.627082,-0.202115,0.710189,-0.248157,-0.713457,-0.336485,0.431094
271,555365358,-0.623217,-0.214610,0.705356,-0.260859,-0.871379,0.448719,0.441292
272,555398692,-0.621727,-0.224339,0.699468,-0.271853,-0.892178,0.266230,0.602799
273,555432026,-0.624054,-0.231945,0.690431,-0.283010,-1.015839,-0.316586,0.539571
274,555465360,-0.625651,-0.239854,0.681446,-0.294439,-0.307686,-0.655292,0.146064
275,555498694,-0.627345,-0.248733,0.670922,-0.307354,0.104813,-0.475360,0.431393
276,555532028,-0.627400,-0.260890,0.659686,-0.321172,0.867034,0.457386,-0.332054
277,555565362,-0.625479,-0.274500,0.650215,-0.332683,1.699174,1.543499,-0.917912
278,555598696,-0.623034,-0.286201,0.643221,-0.340905,2.173628,1.084348,-0.464946
279,555632030,-0.622839,-0.292817,0.639731,-0.342208,1.083518,1.365344,-0.838083
280,555665364,-0.623556,-0.298669,0.637604,-0.339807,-0.514815,1.597661,0.210856
281,555698698,-0.623994,-0.301825,0.639157,-0.333230,-0.069135,-0.741316,0.595366
282,555732032,-0.624823,-0.299780,0.641638,-0.328725,-1.180201,-3.044697,0.191703
283,555765366,-0.622084,-0.304339,0.640621,-0.331702,-0.763869,-0.088740,0.044108
284,555798700,-0.617296,-0.313278,0.639007,-0.335417,-0.212844,0.534325,0.224177
285,555832034,-0.613280,-0.322649,0.636119,-0.339367,-0.321471,-0.078832,0.353522
286,555865368,-0.610379,-0.330392,0.633039,-0.342887,-0.453839,-0.055065,-0.071977
287,555898702,-0.608034,-0.336360,0.630683,-0.345584,-0.102934,1.151082,0.077147
288,555932036,-0.608733,-0.336955,0.631343,-0.342556,-0.336434,0.516215,0.230963
289,555965370,-0.610118,-0.335872,0.633340,-0.337428,-0.665657,-0.856004,0.111530
290,555998704,-0.609680,-0.337707,0.633615,-0.335869,-0.494313,0.074888,0.063593
291,556032038,-0.608700,-0.340155,0.634120,-0.334220,0.021715,0.288508,0.153569
292,556065372,-0.607690,-0.341979,0.635547,-0.331476,-0.275587,0.308547,-0.080006
293,556098706,-0.605837,-0.343266,0.638369,-0.328096,-0.003507,0.150026,0.110335
294,556132040,-0.604657,-0.342312,0.642547,-0.323076,0.106438,0.121878,0.105540
295,556165374,-0.603155,-0.341194,0.647215,-0.317704,0.749007,0.606621,0.200884
296,556198708,-0.602074,-0.338302,0.653454,-0.309984,0.932630,-0.612675,0.101426
297,556232042,-0.600678,-0.335239,0.660020,-0.302002,0.313729,-0.858657,0.128094
298,556265376,-0.597410,-0.334509,0.666340,-0.295342,0.114423,-0.540495,-0.041967
299,556298710,-0.592934,-0.334707,0.672888,-0.289232,-0.274329,-0.145458,0.016009
300,556332044,-0.588680,-0.334373,0.679315,-0.283219,-0.499635,-0.031746,0.005951
301,556365378,-0.583774,-0.333175,0.686758,-0.276763,-0.236156,0.408821,-0.330161
302,556398712,-0.579920,-0.330033,0.694094,-0.270253,0.606538,0.978874,0.276820
303,556432046,-0.579004,-0.324003,0.700986,-0.261588,0.286929,0.796864,0.479297
304,556465380,-0.579733,-0.317424,0.706596,-0.252796,-1.136899,0.547778,0.342442
305,556498714,-0.581131,-0.312825,0.709547,-0.246985,-1.662085,0.251787,0.292916
306,556532048,-0.581457,-0.310831,0.711310,-0.243643,-0.569462,-0.182452,0.046968
307,556565382,-0.579579,-0.310895,0.713543,-0.241496,0.604158,-0.383686,-0.008298
308,556598716,-0.577083,-0.312724,0.714900,-0.241099,0.486096,0.001577,0.179435
309,556632050,-0.575302,-0.315042,0.715058,-0.241868,0.463694,0.103685,0.196036
310,556665384,-0.574708,-0.315378,0.715607,-0.241217,0.456802,0.357032,0.238986
311,556698718,-0.575167,-0.312985,0.717449,-0.237743,0.243379,0.317697,0.183812
312,556732052,-0.575448,-0.310659,0.719378,-0.234259,-0.151884,0.073471,0.159719
313,556765386,-0.575560,-0.309369,0.720596,-0.231936,-0.199027,-0.059019,0.173249
314,556798720,-0.575752,-0.308731,0.720992,-0.231080,0.122128,-0.203059,0.030050
315,556832054,-0.575476,-0.308256,0.721520,-0.230753,0.486085,0.128248,0.165491
316,556865388,-0.575545,-0.306883,0.722565,-0.229135,0.318570,0.390313,0.176429
317,556898722,-0.575760,-0.305513,0.723257,-0.228240,0.044852,0.105676,0.103010
318,556932056,-0.575900,-0.303923,0.724055,-0.227479,0.072116,0.055466,0.129470
319,556965390,-0.576091,-0.302109,0.725008,-0.226371,0.146630,0.022378,0.231768
320,556998724,-0.576189,-0.300836,0.725589,-0.225959,0.052840,-0.331746,0.069510
321,557032058,-0.576093,-0.300265,0.725871,-0.226058,-0.104589,-0.131355,0.195976
322,557065392,-0.575959,-0.299703,0.726123,-0.226331,-0.049317,0.256915,0.148953
323,557098726,-0.575793,-0.298447,0.726769,-0.226344,-0.017537,0.447481,0.129212
324,557132060,-0.575997,-0.296153,0.727799,-0.225526,-0.275765,0.337423,0.107763
325,557165394,-0.576386,-0.293314,0.729038,-0.224236,-0.126293,0.392956,0.128305
326,557198728,-0.576780,-0.289966,0.730522,-0.222743,-0.006757,0.191391,0.040864
327,557232062,-0.576672,-0.287200,0.731922,-0.222009,-0.000653,0.097851,0.074107
328,557265396,-0.576485,-0.284557,0.733275,-0.221432,-0.014131,0.112895,0.267223
329,557298730,-0.576483,-0.282159,0.734230,-0.221344,0.069248,-0.004153,0.048450
330,557332064,-0.576476,-0.279860,0.735025,-0.221641,0.129716,0.010395,0.179687
331,557365398,-0.576712,-0.277588,0.735651,-0.221807,0.124481,-0.021982,0.262823
332,557398732,-0.576925,-0.276006,0.735723,-0.222986,-0.063120,0.065192,-0.036540
333,557432066,-0.577187,-0.273900,0.736019,-0.223925,-0.091367,0.207045,0.108333
334,557465400,-0.577604,-0.271336,0.736431,-0.224616,-0.019111,0.351396,0.169108
335,557498734,-0.578184,-0.268504,0.736757,-0.225454,0.034874,0.392325,0.092671
336,557532068,-0.579366,-0.264860,0.737140,-0.225480,0.068545,0.127424,0.216572
337,557565402,-0.581219,-0.260893,0.737131,-0.225366,-0.030921,-0.054515,0.159668
338,557598736,-0.583620,-0.257035,0.736559,-0.225465,-0.152149,-0.208833,0.178111
339,557632070,-0.586175,-0.253168,0.735750,-0.225854,0.017644,-0.192229,0.162966
340,557665404,-0.589288,-0.248763,0.734586,-0.226433,-0.066525,-0.001380,0.204361
341,557698738,-0.593095,-0.243626,0.733251,-0.226408,0.076092,0.520196,0.676923
342,557732072,-0.600426,-0.234950,0.730808,-0.224143,-0.596797,0.733549,0.017788
343,557765406,-0.606364,-0.226153,0.729245,-0.222287,-1.042642,1.316889,-0.176656
344,557798740,-0.611633,-0.219357,0.726751,-0.222830,0.087909,1.013330,-0.580014
345,557832074,-0.616020,-0.209775,0.726884,-0.219513,0.912339,0.433330,0.237940
346,557865408,-0.621523,-0.195710,0.728729,-0.210698,0.727406,0.037836,0.348597
347,557898742,-0.627024,-0.180111,0.730819,-0.200842,0.604804,-0.476724,0.262078
348,557932076,-0.631890,-0.165379,0.732598,-0.191564,0.530847,-1.100129,0.002591
349,557965410,-0.633685,-0.155537,0.734614,-0.186080,0.695197,-0.752680,0.133107
350,557998744,-0.634828,-0.148686,0.735853,-0.182862,0.412077,-1.177226,0.414890
351,558032078,-0.635888,-0.144408,0.736240,-0.181042,0.139123,-1.319853,0.020962
352,558065412,-0.636353,-0.142057,0.736220,-0.181345,0.370918,-0.846227,0.302828
353,558098746,-0.636013,-0.140308,0.736700,-0.181953,0.292410,-0.660608,0.160095
354,558132080,-0.635980,-0.139247,0.736799,-0.182480,-0.258806,-0.839188,-0.016860
355,558165414,-0.636210,-0.140968,0.735548,-0.185383,-0.530984,-1.135501,0.142696
356,558198748,-0.636443,-0.146709,0.732551,-0.191881,-0.362706,-1.081675,0.275225
357,558232082,-0.636673,-0.155161,0.728208,-0.200792,-0.371021,-0.999424,0.245159
358,558265416,-0.636473,-0.165688,0.722759,-0.212371,-0.385439,-1.220285,0.601919
359,558298750,-0.636360,-0.178001,0.715685,-0.226249,-0.440387,-1.021653,0.496494
360,558332084,-0.637480,-0.191437,0.706212,-0.241389,-0.133377,-0.332447,0.353982
361,558365418,-0.641014,-0.204656,0.694037,-0.256051,0.043750,-0.173166,0.145788
362,558398752,-0.643315,-0.219047,0.682147,-0.269949,0.628802,0.270621,-0.258070
363,558432086,-0.644250,-0.234318,0.671090,-0.282325,1.268731,0.834330,-0.122102
364,558465420,-0.644601,-0.248201,0.661499,-0.292126,1.687231,0.589922,-0.132933
365,558498754,-0.642200,-0.260461,0.656140,-0.298751,1.703095,0.203024,-0.505598
366,558532088,-0.640375,-0.270322,0.652544,-0.301770,0.784293,1.123342,-0.445270
367,558565422,-0.640035,-0.278694,0.649442,-0.301566,-0.291948,1.439470,0.150678
368,558598756,-0.638318,-0.287538,0.648308,-0.299335,0.184043,-0.029760,0.140741
369,558632090,-0.635840,-0.289573,0.650740,-0.297363,-1.603090,-3.128346,0.603242
370,558665424,-0.634384,-0.291868,0.651057,-0.297535,-1.282065,0.097270,-0.309562
371,558698758,-0.629814,-0.299850,0.651053,-0.299311,-0.503200,-0.355640,0.460722
372,558732092,-0.625800,-0.310574,0.648563,-0.302185,-0.734928,-0.957824,-0.063309
373,558765426,-0.619974,-0.323999,0.644248,-0.309247,-0.737693,-0.311035,0.041258
374,558798760,-0.613684,-0.336854,0.640091,-0.316601,-0.409055,1.496615,0.042290
375,558832094,-0.610670,-0.343419,0.639143,-0.317292,-0.653499,1.466034,0.114608
376,558865428,-0.609587,-0.346349,0.640323,-0.313791,-0.760249,0.673975,0.063832
377,558898762,-0.609788,-0.346319,0.643127,-0.307641,-0.228344,0.295810,-0.021101
378,558932096,-0.610080,-0.343660,0.647957,-0.299807,0.129222,1.795180,-0.373411
379,558965430,-0.613476,-0.334235,0.655648,-0.286516,-0.312268,0.390507,0.694507
380,558998764,-0.617830,-0.325087,0.661575,-0.273780,-0.590917,-0.820997,0.301557
381,559032098,-0.619357,-0.321589,0.664618,-0.267008,0.554877,-0.173410,0.038218
382,559065432,-0.621084,-0.318547,0.666944,-0.260769,0.546999,-0.803051,-0.004339
383,559098766,-0.620919,-0.317847,0.668931,-0.256899,0.564723,-0.196689,-0.060823
384,559132100,-0.621041,-0.314810,0.672658,-0.250532,0.765463,0.672559,0.166062
385,559165434,-0.621983,-0.307294,0.679088,-0.239959,0.613590,0.791944,0.095766
386,559198768,-0.622766,-0.298605,0.685814,-0.229540,-0.033189,1.103935,0.351450
387,559232102,-0.622330,-0.291166,0.692321,-0.220572,0.056199,0.677440,0.196966
388,559265436,-0.621062,-0.285059,0.698168,-0.213580,-0.083125,0.382102,-0.013312
389,559298770,-0.619598,-0.279841,0.703230,-0.208055,0.108074,0.103892,0.066040
390,559332104,-0.618886,-0.274618,0.707496,-0.202599,-0.017624,-0.124001,0.188417
391,559365438,-0.618088,-0.270187,0.711094,-0.198351,-0.078183,0.132380,0.336119
392,559398772,-0.616815,-0.268406,0.713331,-0.196694,-0.137645,0.240350,0.410477
393,559432106,-0.615087,-0.269910,0.713759,-0.198487,-0.605432,-0.323237,-0.190155
394,559465440,-0.613807,-0.271370,0.713467,-0.201484,-0.476457,0.970908,0.079464
395,559498774,-0.613601,-0.270359,0.713755,-0.202450,-0.394461,0.549301,0.105706
396,559532108,-0.614124,-0.269509,0.713174,-0.204039,-0.026124,-0.268318,0.287982
397,559565442,-0.615005,-0.271935,0.710133,-0.208719,-0.381131,-0.723731,0.191672
398,559598776,-0.613628,-0.278382,0.706441,-0.216651,0.138485,-0.389433,0.050964
399,559632110,-0.613195,-0.282906,0.702881,-0.223489,0.299163,0.326015,0.287613
400,559665444,-0.612411,-0.285866,0.701107,-0.227408,0.799161,-0.333580,-0.177770
401,559698778,-0.612337,-0.286793,0.699742,-0.230623,-0.047635,-0.133309,0.230417
402,559732112,-0.611424,-0.287654,0.699374,-0.233077,0.167575,0.229318,-0.010942
403,559765446,-0.610370,-0.287273,0.699750,-0.235170,-0.285420,0.345687,0.156732
404,559798780,-0.609008,-0.286317,0.700726,-0.236955,-0.126928,0.721150,0.074140
405,559832114,-0.607508,-0.284673,0.702583,-0.237288,0.003430,0.690455,0.131066
406,559865448,-0.606307,-0.281042,0.705551,-0.235877,0.144132,0.183365,0.171202
407,559898782,-0.606212,-0.274668,0.709359,-0.232181,-0.197281,-0.248036,0.253591
408,559932116,-0.606911,-0.268986,0.711910,-0.229176,-0.211393,-0.775596,0.013454
409,559965450,-0.606237,-0.266653,0.713423,-0.228985,-0.090467,-0.631222,0.036379
410,559998784,-0.604083,-0.266048,0.715132,-0.230046,-0.371726,-0.092774,0.031660
411,560032118,-0.602419,-0.264967,0.716715,-0.230729,-0.263534,0.195657,0.202286
412,560065452,-0.602047,-0.263207,0.717457,-0.231406,-0.016641,0.329248,0.139457
413,560098786,-0.601818,-0.259889,0.719166,-0.230449,0.068254,0.640747,0.032666
414,560132120,-0.603335,-0.253898,0.720966,-0.227515,0.121813,0.672280,0.200116
415,560165454,-0.605773,-0.248228,0.721541,-0.225462,-0.202034,0.073126,0.157755
416,560198788,-0.606877,-0.243732,0.722555,-0.224147,0.171252,0.131833,-0.110884
417,560232122,-0.607804,-0.239175,0.723575,-0.223251,0.153325,-0.244820,0.164915
418,560265456,-0.609234,-0.233836,0.724747,-0.221198,-0.035013,-0.435309,0.120506
419,560298790,-0.610229,-0.229344,0.725834,-0.219588,0.213850,-0.305093,0.197506
420,560332124,-0.611388,-0.224247,0.727270,-0.216860,0.456479,-0.051615,0.215714
421,560365458,-0.613392,-0.218936,0.727976,-0.214246,0.197013,-0.168644,0.072092
422,560398792,-0.614071,-0.214268,0.729441,-0.212022,-0.027022,-0.159207,0.051603
423,560432126,-0.614240,-0.209873,0.731317,-0.209453,0.072584,0.090161,0.041253
424,560465460,-0.614118,-0.205226,0.733588,-0.206454,0.075278,0.107480,0.226689
425,560498794,-0.615216,-0.199344,0.735293,-0.202850,0.056593,0.019171,0.132197
426,560532128,-0.616860,-0.193159,0.736565,-0.199196,-0.063591,-0.103128,0.134748
427,560565462,-0.617373,-0.188014,0.738279,-0.196159,-0.036215,0.027055,0.115770
428,560598796,-0.617614,-0.183597,0.739798,-0.193847,0.078779,0.074680,0.104732
429,560632130,-0.617540,-0.179087,0.741622,-0.191316,-0.021991,0.127275,0.181920
430,560665464,-0.618907,-0.173526,0.742588,-0.188253,-0.074642,-0.023465,0.138742
431,560698798,-0.619706,-0.168399,0.743815,-0.185412,-0.081614,-0.108702,0.189752
432,560732132,-0.620844,-0.163182,0.744757,-0.182463,0.121476,-0.205224,0.354717
433,560765466,-0.621843,-0.158584,0.745583,-0.179726,0.013807,-0.266005,0.001899
434,560798800,-0.622801,-0.155155,0.745790,-0.178536,0.133521,-0.191311,0.242395
435,560832134,-0.623732,-0.152540,0.745647,-0.178138,0.177151,-0.302353,0.270243
436,560865468,-0.625212,-0.150745,0.744713,-0.178387,0.237510,-0.554524,0.244000
437,560898802,-0.626580,-0.149876,0.743619,-0.178883,0.003950,-1.014550,0.151814
438,560932136,-0.627986,-0.151133,0.741597,-0.181272,-0.219530,-1.149775,0.106535
439,560965470,-0.629272,-0.155442,0.738233,-0.186811,-0.048403,-1.032577,0.374114
440,560998804,-0.630085,-0.162944,0.733686,-0.195396,0.019990,-0.457607,0.333323
441,561032138,-0.630421,-0.172305,0.728404,-0.205768,0.111624,0.095521,0.187428
442,561065472,-0.629954,-0.182481,0.723262,-0.216294,0.344464,0.354123,0.034948
443,561098806,-0.630125,-0.191627,0.717917,-0.225500,0.334573,-0.029685,-0.206070
444,561132140,-0.629999,-0.199898,0.713292,-0.233214,0.085208,-0.150141,-0.090672
445,561165474,-0.629974,-0.208057,0.708457,-0.240765,0.021413,-0.081091,0.220261
446,561198808,-0.629723,-0.216648,0.703474,-0.248333,-0.038005,-0.167119,0.095892
447,561232142,-0.629290,-0.226343,0.698031,-0.256022,-0.028190,-0.224302,-0.356462
448,561265476,-0.629149,-0.236231,0.691856,-0.264071,-0.040751,-0.379681,1.145390
449,561298810,-0.629276,-0.245222,0.686111,-0.270485,0.007504,-0.214081,0.139994
450,561332144,-0.627907,-0.255179,0.680992,-0.277307,0.358515,0.027231,-0.308056
451,561365478,-0.626022,-0.264289,0.676596,-0.283723,0.381047,-0.166314,0.140894
452,561398812,-0.623495,-0.273768,0.672520,-0.289921,0.197688,-0.009329,-0.204000
453,561432146,-0.620811,-0.282968,0.668892,-0.295194,0.105389,0.371411,-0.149001
454,561465480,-0.619192,-0.290430,0.665716,-0.298508,-0.371008,-0.287623,0.671687
455,561498814,-0.618147,-0.298536,0.661678,-0.301638,-0.693511,-0.459261,0.244042
456,561532148,-0.614188,-0.310913,0.656500,-0.308459,-0.282454,-0.329812,-0.009232
457,561565482,-0.610362,-0.321384,0.652138,-0.314514,-0.356970,-0.215423,-0.049680
458,561598816,-0.606725,-0.330588,0.648883,-0.318717,-0.275202,1.036198,-0.122800
459,561632150,-0.604003,-0.336784,0.647679,-0.319846,-0.002354,1.247042,-0.055867
460,561665484,-0.603602,-0.338084,0.648853,-0.316837,-0.377634,0.473176,-0.032643
461,561698818,-0.602915,-0.339019,0.650659,-0.313426,-0.173093,0.399752,0.031846
462,561732152,-0.601572,-0.339478,0.653697,-0.309160,-0.108661,0.004655,0.056538
463,561765486,-0.601042,-0.339071,0.656721,-0.304186,-0.933818,-0.081324,0.274852
464,561798820,-0.598504,-0.341319,0.659139,-0.301435,-0.065743,0.643138,0.002847
465,561832154,-0.596565,-0.341379,0.662705,-0.297364,-0.143959,0.059572,-0.090934
466,561865488,-0.594713,-0.340204,0.667275,-0.292155,-0.402194,0.428303,0.118896
467,561898822,-0.592214,-0.338390,0.672917,-0.286339,0.081361,0.374078,0.049465
468,561932156,-0.590391,-0.334061,0.680129,-0.278028,0.460453,-0.008976,0.012787
469,561965490,-0.588124,-0.329094,0.688087,-0.269028,0.230552,-0.440121,-0.064262
470,561998824,-0.585759,-0.324404,0.695511,-0.260666,1.164625,0.415576,0.366155
471,562032158,-0.583876,-0.321825,0.700536,-0.254557,1.078541,-0.811966,0.215482
472,562065492,-0.581539,-0.317903,0.706979,-0.246908,-0.204188,-0.013698,0.004107
473,562098826,-0.580142,-0.313822,0.712401,-0.239726,-1.320977,0.157962,0.550968
474,562132160,-0.580899,-0.309169,0.716097,-0.232829,-1.406300,0.108917,0.195901
475,562165494,-0.580746,-0.306138,0.719199,-0.227594,0.294820,-0.039477,0.079474
476,562198828,-0.579745,-0.304378,0.721995,-0.223618,1.001642,-0.178074,0.129781
477,562232162,-0.579828,-0.301781,0.724205,-0.219746,0.429340,0.232411,0.136566
478,562265496,-0.580702,-0.298173,0.726390,-0.215102,0.124449,0.418701,0.153751
479,562298830,-0.581823,-0.294079,0.728646,-0.210018,-0.076661,0.411826,0.220374
480,562332164,-0.582905,-0.290263,0.730655,-0.205294,-0.325437,0.169672,0.116185
481,562365498,-0.583330,-0.287340,0.732554,-0.201393,-0.141177,-0.120581,0.080129
482,562398832,-0.583542,-0.284830,0.734243,-0.198168,0.064187,-0.005495,0.228251
483,562432166,-0.583926,-0.282700,0.735512,-0.195361,0.147421,0.126516,0.076804
484,562465500,-0.584003,-0.281247,0.736486,-0.193550,0.236969,0.094183,0.137689
485,562498834,-0.584074,-0.279527,0.737663,-0.191333,0.232164,0.097014,0.181427
486,562532168,-0.584110,-0.278401,0.738442,-0.189854,0.047619,0.012237,0.094120
487,562565502,-0.583792,-0.278109,0.738947,-0.189298,0.069341,0.043171,0.173084
488,562598836,-0.583374,-0.278719,0.738978,-0.189566,0.170935,-0.102312,0.116889
489,562632170,-0.582891,-0.280053,0.738512,-0.190897,0.252334,-0.204349,0.149187
490,562665504,-0.582262,-0.281629,0.738068,-0.192212,0.379555,-0.085367,0.162726
491,562698838,-0.581554,-0.283629,0.737428,-0.193862,0.198211,-0.016694,0.150275
492,562732172,-0.580806,-0.285921,0.736589,-0.195917,0.075748,0.105734,0.150451
493,562765506,-0.580170,-0.288402,0.735457,-0.198400,0.050639,0.105644,0.138548
494,562798840,-0.579558,-0.290902,0.734240,-0.201030,0.084225,-0.043596,0.141014
495,562832174,-0.578755,-0.293580,0.733052,-0.203767,0.202649,0.114633,0.102402
496,562865508,-0.577942,-0.296204,0.731855,-0.206564,0.143642,0.048273,0.176928
497,562898842,-0.577428,-0.298372,0.730684,-0.209009,-0.083579,0.104443,0.092967
498,562932176,-0.576663,-0.300838,0.729403,-0.212040,-0.088332,0.001435,0.104747
499,562965510,-0.575996,-0.302985,0.728310,-0.214538,-0.080717,0.109353,0.126901
500,562998844,-0.575178,-0.305446,0.727065,-0.217446,-0.051630,0.055090,0.103529
501,563032178,-0.574159,-0.308038,0.725790,-0.220717,0.025876,0.062762,0.146936
502,563065512,-0.573225,-0.310501,0.724472,-0.223998,-0.215645,0.117847,0.100184
503,563098846,-0.572494,-0.312503,0.723328,-0.226764,-0.127394,0.271405,0.166794
504,563132180,-0.571670,-0.314241,0.722192,-0.230041,0.079594,-0.033592,0.068048
505,563165514,-0.571080,-0.314825,0.721786,-0.231971,0.106913,0.157214,0.053692
506,563198848,-0.570416,-0.315013,0.721635,-0.233814,0.155506,0.236444,0.088470
507,563232182,-0.569750,-0.314232,0.722003,-0.235349,0.192595,0.286548,0.130612
508,563265516,-0.569640,-0.311922,0.723080,-0.235381,-0.008356,0.498516,0.095258
509,563298850,-0.569849,-0.308387,0.724710,-0.234516,-0.002078,0.421977,0.170953
510,563332184,-0.570282,-0.304005,0.726709,-0.232995,0.124607,0.179960,0.094722
511,563365518,-0.571111,-0.298882,0.728879,-0.230805,0.077364,0.108346,0.117763
512,563398852,-0.571866,-0.293701,0.731016,-0.228817,0.097545,-0.088438,0.129444
513,563432186,-0.572245,-0.288585,0.733331,-0.226965,0.239801,-0.055881,0.123585
514,563465520,-0.573052,-0.282623,0.735877,-0.224173,0.089757,-0.003971,0.180742
515,563498854,-0.574326,-0.276409,0.738097,-0.221345,-0.118445,-0.115339,0.119822
516,563532188,-0.575298,-0.270616,0.740324,-0.218524,0.049308,-0.200911,0.179100
517,563565522,-0.576039,-0.265392,0.742354,-0.216079,0.039728,-0.214341,0.091700
518,563598856,-0.576894,-0.260830,0.743815,-0.214319,-0.210393,-0.121832,0.241202
519,563632190,-0.577706,-0.257142,0.744783,-0.213227,-0.226245,0.015883,0.025512
520,563665524,-0.578252,-0.254066,0.745468,-0.213040,-0.044971,0.076273,0.128513
521,563698858,-0.579185,-0.250474,0.746139,-0.212409,-0.078354,0.125790,0.186235
522,563732192,-0.580317,-0.246502,0.746913,-0.211241,0.104307,0.180782,0.059445
523,563765526,-0.581497,-0.242330,0.747753,-0.209848,0.177822,0.211895,0.066793
524,563798860,-0.582671,-0.237918,0.748694,-0.208279,0.178556,0.155445,-0.042776
525,563832194,-0.583614,-0.233480,0.749782,-0.206741,0.204192,0.110375,0.059801
526,563865528,-0.584579,-0.229227,0.750702,-0.205431,0.161257,0.056488,0.183388
527,563898862,-0.585748,-0.225097,0.751368,-0.204231,0.189341,-0.144608,0.037304
528,563932196,-0.587068,-0.220822,0.751994,-0.202795,0.220192,-0.270152,0.246067
529,563965530,-0.588484,-0.217360,0.752137,-0.201901,0.072241,-0.445447,0.135087
530,563998864,-0.589828,-0.214985,0.751723,-0.202065,0.017088,-0.449381,0.196339
531,564032198,-0.590884,-0.213783,0.750952,-0.203116,0.111047,-0.446439,0.234856
532,564065532,-0.591639,-0.213425,0.749937,-0.205037,0.229862,-0.301158,0.058702
533,564098866,-0.592147,-0.213026,0.749190,-0.206710,0.261968,0.071862,0.147037
534,564132200,-0.592905,-0.211766,0.748778,-0.207324,0.142407,0.195249,0.147584
535,564165534,-0.593815,-0.209863,0.748545,-0.207499,0.040574,0.221879,0.099866
536,564198868,-0.594792,-0.207175,0.748681,-0.206911,-0.077991,0.244361,0.110109
537,564232202,-0.596342,-0.203970,0.748529,-0.206178,-0.183284,0.192683,0.250382
538,564265536,-0.598128,-0.199860,0.748624,-0.204680,-0.333504,0.381880,-0.036787
539,564298870,-0.599074,-0.195731,0.749318,-0.203362,-0.219202,0.582553,0.018915
540,564332204,-0.600222,-0.190230,0.750470,-0.200932,-0.141890,0.608713,0.104644
541,564365538,-0.601710,-0.183728,0.751722,-0.197832,-0.157564,0.674239,0.124232
542,564398872,-0.604135,-0.176052,0.752526,-0.194328,-0.047289,0.452126,0.259091
543,564432206,-0.608605,-0.166517,0.752300,-0.189606,-0.028873,0.237480,0.292943
544,564465540,-0.615812,-0.155666,0.750101,-0.184188,-0.878889,-0.054906,0.380936
545,564498874,-0.622075,-0.145894,0.748190,-0.178835,-0.275477,-0.565578,-0.146977
546,564532208,-0.625167,-0.139895,0.747404,-0.176113,0.419210,-0.395980,0.252923
547,564565542,-0.628702,-0.135261,0.745531,-0.175087,0.351571,-0.956652,0.580385
548,564598876,-0.631000,-0.132806,0.743904,-0.175619,0.618971,-0.886101,0.002363
549,564632210,-0.632150,-0.131973,0.742712,-0.177146,0.823763,-0.537911,-0.036230
550,564665544,-0.633390,-0.130588,0.741758,-0.177740,0.636623,-0.566997,0.114018
551,564698878,-0.634534,-0.129201,0.741026,-0.177728,0.189695,-0.456964,0.004987
552,564732212,-0.635407,-0.128462,0.740370,-0.177880,-0.054399,-0.648298,-0.068115
553,564765546,-0.636166,-0.130039,0.738764,-0.180675,-0.304777,-0.590006,0.020405
554,564798880,-0.637186,-0.134610,0.735615,-0.186490,-0.293482,-0.609944,0.442903
555,564832214,-0.637731,-0.142650,0.731327,-0.195305,-0.010511,-0.236192,0.181473
556,564865548,-0.637492,-0.153038,0.726340,-0.206512,0.198485,-0.075266,0.136961
557,564898882,-0.636696,-0.163893,0.721410,-0.217621,0.353136,-0.075060,0.161460
558,564932216,-0.635768,-0.173794,0.717023,-0.226949,0.294239,-0.021074,0.103465
559,564965550,-0.635344,-0.182079,0.712946,-0.234364,-0.019522,-0.140214,0.187027
560,564998884,-0.634953,-0.191029,0.708244,-0.242420,-0.070957,-0.371062,0.071784
561,565032218,-0.633920,-0.201799,0.702795,-0.252063,-0.112423,-0.409862,0.106576
562,565065552,-0.632327,-0.214127,0.696487,-0.263155,-0.076139,-0.248802,0.245095
563,565098886,-0.630201,-0.227406,0.689697,-0.274743,0.060001,-0.050292,0.298403
564,565132220,-0.627953,-0.240043,0.683174,-0.285237,0.056083,0.064526,0.069668
565,565165554,-0.626251,-0.251111,0.676958,-0.294133,0.133716,0.029563,0.156601
566,565198888,-0.624858,-0.260811,0.671467,-0.301156,0.195525,0.014552,0.135796
567,565232222,-0.622744,-0.270790,0.666572,-0.307537,0.235613,-0.121301,-0.004636
568,565265556,-0.620929,-0.280079,0.661762,-0.313219,0.125417,0.078459,0.166614
569,565298890,-0.618830,-0.288974,0.657548,-0.318131,0.150356,0.061541,0.091173
570,565332224,-0.616474,-0.297782,0.653550,-0.322787,0.018083,-0.131862,0.152521
571,565365558,-0.614009,-0.306444,0.649541,-0.327436,-0.048431,0.275501,-0.062260
572,565398892,-0.611186,-0.315074,0.645912,-0.331679,-0.005078,0.343012,0.119979
573,565432226,-0.609389,-0.321842,0.642935,-0.334260,-0.239442,0.200466,0.190094
574,565465560,-0.607594,-0.328593,0.639942,-0.336694,-0.263169,0.530129,0.056328
575,565498894,-0.605300,-0.334740,0.637856,-0.338724,0.114490,0.364715,-0.056453
576,565532228,-0.603491,-0.339224,0.636797,-0.339481,-0.082693,0.043022,0.283143
577,565565562,-0.601697,-0.343389,0.636063,-0.339856,-0.329666,0.091643,-0.027553
578,565598896,-0.598410,-0.348398,0.635838,-0.340982,-0.105946,0.372533,0.074576
579,565632230,-0.596300,-0.351303,0.636472,-0.340512,0.030548,-0.021748,0.059646
580,565665564,-0.594497,-0.353285,0.637738,-0.339245,-0.394616,0.169592,0.031645
581,565698898,-0.592052,-0.355198,0.639901,-0.337442,-0.443894,0.319829,0.053271
582,565732232,-0.590827,-0.355923,0.641847,-0.335125,-0.345344,0.311820,0.242828
583,565765566,-0.589738,-0.357556,0.642215,-0.334597,-0.162500,-0.168504,0.120080
584,565798900,-0.588609,-0.359021,0.642762,-0.333968,-0.244555,0.166848,0.060859
585,565832234,-0.587418,-0.359407,0.644871,-0.331572,-0.113037,0.107980,0.009951
586,565865568,-0.586407,-0.358836,0.647860,-0.328137,-0.062257,0.189898,0.080908
587,565898902,-0.586373,-0.357917,0.649565,-0.325823,0.197474,0.453102,0.240838
588,565932236,-0.586672,-0.356698,0.651010,-0.323731,0.167556,0.044190,0.190781
589,565965570,-0.586549,-0.355296,0.653311,-0.320848,0.288766,0.094827,-0.084128
590,565998904,-0.586097,-0.353119,0.656622,-0.317298,0.427408,0.274394,0.104380
591,566032238,-0.585844,-0.349412,0.661080,-0.312577,0.497757,0.376306,-0.039606
592,566065572,-0.584788,-0.345388,0.666581,-0.307301,0.558592,0.290833,0.030292
593,566098906,-0.583126,-0.340952,0.673012,-0.301337,0.756223,0.182231,0.039570
594,566132240,-0.581928,-0.335581,0.679440,-0.295193,1.542019,0.400972,0.265303
595,566165574,-0.580391,-0.330290,0.686208,-0.288457,0.993483,-0.840344,0.189733
596,566198908,-0.577488,-0.324397,0.695329,-0.278972,-0.183369,-0.317076,-0.482521
597,566232242,-0.573642,-0.320518,0.703001,-0.272077,-0.334032,-0.568652,0.392289
598,566265576,-0.572357,-0.316480,0.707756,-0.267139,-2.420371,-0.116560,1.001097
599,566298910,-0.574014,-0.314567,0.707608,-0.266231,-2.720574,0.504464,0.376496
600,566332244,-0.572844,-0.315928,0.707404,-0.267678,-0.084154,0.055406,-0.091644
601,566365578,-0.570672,-0.316088,0.709515,-0.266540,1.324959,0.112514,0.050849
602,566398912,-0.571032,-0.312884,0.711901,-0.263165,0.580310,0.414700,0.023951
603,566432246,-0.572495,-0.307860,0.714462,-0.258940,-0.138386,0.421672,0.134643
604,566465580,-0.573271,-0.303373,0.717312,-0.254602,-0.236973,0.052874,0.272525
605,566498914,-0.573218,-0.301306,0.718989,-0.252436,-0.522826,-0.304239,0.136663
606,566532248,-0.572824,-0.300761,0.719785,-0.251710,0.128584,-0.354579,0.168677
607,566565582,-0.572310,-0.300784,0.720257,-0.251504,0.928162,-0.147773,0.085820
608,566598916,-0.572079,-0.300966,0.720307,-0.251667,0.586055,0.131070,-0.011900
609,566632250,-0.571845,-0.301230,0.720225,-0.252117,0.187170,-0.007975,0.244620
610,566665584,-0.572096,-0.301280,0.720074,-0.251917,0.057107,-0.203005,0.186522
611,566698918,-0.572281,-0.302128,0.719319,-0.252638,-0.056943,-0.262900,0.118548
612,566732252,-0.572017,-0.303941,0.718145,-0.254396,0.105138,-0.297964,0.131284
613,566765586,-0.571683,-0.305763,0.717114,-0.255868,0.251032,0.059153,0.096487
614,566798920,-0.571494,-0.307316,0.716136,-0.257165,0.099602,0.166649,0.141974
615,566832254,-0.571537,-0.308327,0.715363,-0.258011,-0.150876,0.060268,0.158383
616,566865588,-0.571592,-0.309276,0.714686,-0.258626,-0.144780,0.063390,0.184170
617,566898922,-0.571573,-0.310619,0.713700,-0.259778,-0.044529,-0.167655,0.157291
618,566932256,-0.571530,-0.312090,0.712588,-0.261161,0.070928,-0.131016,0.081225
619,566965590,-0.571503,-0.313775,0.711330,-0.262625,0.104988,0.023424,0.152957
620,566998924,-0.571349,-0.315659,0.709962,-0.264397,0.140358,0.083170,0.100618
621,567032258,-0.571288,-0.317181,0.708813,-0.265787,0.065996,0.059677,0.118669
622,567065592,-0.571268,-0.318431,0.707882,-0.266818,-0.060777,0.018345,0.156291
623,567098926,-0.571143,-0.319918,0.706780,-0.268222,-0.041356,-0.079172,0.062859
624,567132260,-0.570907,-0.321459,0.705774,-0.269529,0.034257,0.070431,0.130283
625,567165594,-0.570593,-0.322980,0.704764,-0.271014,-0.069572,0.140090,0.132452
626,567198928,-0.570283,-0.324206,0.704009,-0.272162,-0.035667,0.193419,0.094509
627,567232262,-0.570081,-0.325356,0.703162,-0.273399,-0.065960,-0.104845,0.152724
628,567265596,-0.569907,-0.326891,0.702028,-0.274840,-0.091989,-0.238508,0.070697
629,567298930,-0.569296,-0.329255,0.700629,-0.276849,0.150338,0.018766,0.162838
630,567332264,-0.568593,-0.331792,0.699037,-0.279279,-0.038798,-0.052269,0.027742
631,567365598,-0.567676,-0.334267,0.697629,-0.281703,-0.053722,0.276939,0.093906
632,567398932,-0.567096,-0.335693,0.696934,-0.282892,-0.015560,0.408085,0.160942
633,567432266,-0.566788,-0.336051,0.696779,-0.283464,-0.137082,0.129087,0.048219
634,567465600,-0.566407,-0.336162,0.696949,-0.283679,-0.262481,0.117569,0.127139
635,567498934,-0.566026,-0.336239,0.697103,-0.283969,-0.058464,0.156814,0.109463
636,567532268,-0.565362,-0.336385,0.697276,-0.284694,0.114732,0.046461,0.072735
637,567565602,-0.564372,-0.336295,0.697939,-0.285141,0.533594,0.252159,0.144678
638,567598936,-0.563706,-0.335096,0.699284,-0.284572,0.526640,0.494483,-0.025715
639,567632270,-0.563290,-0.332606,0.701413,-0.283072,0.193500,0.517814,-0.019481
640,567665604,-0.563266,-0.328316,0.704482,-0.280496,-0.120202,0.375329,0.223236
641,567698938,-0.564465,-0.321652,0.708527,-0.275576,-0.543507,0.196917,0.212249
642,567732272,-0.566153,-0.314501,0.712510,-0.270044,-0.531767,-0.416644,0.325216
643,567765606,-0.567706,-0.308175,0.715877,-0.265125,-0.202595,-0.582819,0.135862
644,567798940,-0.568367,-0.304375,0.718002,-0.262336,0.042321,-0.481439,0.050564
645,567832274,-0.568250,-0.302709,0.719145,-0.261386,0.190107,-0.386555,0.096499
646,567865608,-0.567855,-0.301882,0.719968,-0.260935,0.410958,-0.005006,0.106935
647,567898942,-0.567676,-0.300517,0.721049,-0.259914,0.205330,0.279263,0.148155
648,567932276,-0.568045,-0.297998,0.722450,-0.258111,-0.093051,0.330188,0.099613
649,567965610,-0.568637,-0.294945,0.724108,-0.255658,-0.087990,0.142446,0.223912
650,567998944,-0.568988,-0.292950,0.725110,-0.254327,-0.032378,-0.248564,0.087606
651,568032278,-0.568910,-0.292063,0.725610,-0.254095,0.119547,-0.331179,0.114907
652,568065612,-0.568589,-0.291872,0.725791,-0.254516,0.189385,-0.206544,0.163792
653,568098946,-0.568103,-0.292196,0.725710,-0.255457,0.230368,-0.074981,0.149337
654,568132280,-0.567783,-0.292373,0.725654,-0.256123,0.056475,0.174698,0.181961
655,568165614,-0.567802,-0.291762,0.725871,-0.256166,-0.010239,0.316431,0.063655
656,568198948,-0.567734,-0.290647,0.726429,-0.256000,0.012147,0.193067,0.170642
657,568232282,-0.567862,-0.289012,0.727240,-0.255264,-0.022614,0.182794,-0.014220
658,568265616,-0.567984,-0.287133,0.728212,-0.254340,-0.032655,0.086872,0.114137
659,568298950,-0.568023,-0.285275,0.729217,-0.253465,-0.000090,-0.064055,0.207659
660,568332284,-0.567891,-0.283898,0.729982,-0.253104,0.037868,-0.015758,0.124938
661,568365618,-0.567755,-0.282898,0.730496,-0.253047,0.010845,-0.080687,0.150852
662,568398952,-0.567561,-0.282187,0.730842,-0.253275,0.194297,-0.012531,0.059430
663,568432286,-0.567229,-0.281233,0.731431,-0.253379,0.164591,0.208412,0.146268
664,568465620,-0.567202,-0.279593,0.732251,-0.252886,-0.000769,0.317925,0.142392
665,568498954,-0.567410,-0.277262,0.733297,-0.251952,-0.131112,0.346172,0.019213
666,568532288,-0.567733,-0.274231,0.734749,-0.250309,-0.017922,0.314888,0.133915
667,568565622,-0.568135,-0.270952,0.736220,-0.248639,0.037546,0.074444,0.246491
668,568598956,-0.568774,-0.268182,0.737073,-0.247650,0.021227,-0.225373,0.177261
669,568632290,-0.569389,-0.266321,0.737471,-0.247061,0.231587,-0.526913,0.197027
670,568665624,-0.569690,-0.265466,0.737488,-0.247236,0.209215,-0.524434,0.149550
671,568698958,-0.569972,-0.265275,0.737034,-0.248144,0.002127,-0.246529,0.149210
672,568732292,-0.570308,-0.265884,0.736015,-0.249741,-0.032055,0.061357,0.176856
673,568765626,-0.570634,-0.266971,0.734651,-0.251841,0.042656,0.126917,0.168138
674,568798960,-0.570820,-0.267992,0.733368,-0.254064,0.002718,0.220335,0.121825
675,568832294,-0.571244,-0.268437,0.732232,-0.255913,-0.108160,0.245721,0.182874
676,568865628,-0.572160,-0.268193,0.731093,-0.257376,-0.354987,0.220832,0.269588
677,568898962,-0.573878,-0.267495,0.729499,-0.258796,-0.740664,0.165331,0.341280
678,568932296,-0.576051,-0.267431,0.726877,-0.261397,-0.686060,-0.031650,0.231066
679,568965630,-0.578086,-0.267816,0.723850,-0.264887,-0.241529,-0.089049,0.157284
680,568998964,-0.580428,-0.268124,0.720490,-0.268591,0.028419,-0.029082,0.200172
681,569032298,-0.583365,-0.268215,0.716692,-0.272270,0.137420,0.177206,0.055841
682,569065632,-0.586349,-0.268501,0.712604,-0.276281,0.171893,0.184539,0.044888
683,569098966,-0.588822,-0.268998,0.708748,-0.280423,0.214191,0.104881,0.067589
684,569132300,-0.590875,-0.269357,0.705291,-0.284449,0.169385,0.154870,0.098180
685,569165634,-0.593351,-0.268765,0.702103,-0.287722,-0.109745,-0.043647,0.106809
686,569198968,-0.595463,-0.268455,0.698742,-0.291803,-0.151153,0.000615,0.042586
687,569232302,-0.596973,-0.268661,0.695458,-0.296336,0.045862,0.315212,0.070317
688,569265636,-0.598635,-0.268241,0.692764,-0.299655,0.093665,0.630740,-0.130720
689,569298970,-0.600886,-0.266094,0.691115,-0.300870,0.060883,0.688480,0.109612
690,569332304,-0.604225,-0.261746,0.690346,-0.299762,-0.031691,0.744480,0.032104
691,569365638,-0.608740,-0.255577,0.689991,-0.296753,-0.007194,0.453513,0.160980
692,569398972,-0.614185,-0.247922,0.689482,-0.293188,-0.119937,0.008063,0.243445
693,569432306,-0.619421,-0.238927,0.690105,-0.288132,-0.030898,-0.018484,0.137752
694,569465640,-0.623289,-0.229778,0.692235,-0.282060,0.044623,0.058607,0.061550
695,569498974,-0.626662,-0.220760,0.694723,-0.275597,0.056683,0.164956,-0.015072
696,569532308,-0.629880,-0.211642,0.697357,-0.268674,-0.096685,0.184139,0.302801
697,569565642,-0.633367,-0.201710,0.700115,-0.260827,-0.286231,0.091774,0.042562
698,569598976,-0.637616,-0.191476,0.702045,-0.252882,-0.254861,0.234501,-0.088245
699,569632310,-0.641923,-0.182013,0.703251,-0.245515,-0.111581,0.097335,0.492705
700,569665644,-0.645701,-0.172207,0.704904,-0.237821,0.142837,0.292515,0.128029
701,569698978,-0.649206,-0.161110,0.707074,-0.229466,0.179832,0.437964,-0.091960
702,569732312,-0.653054,-0.148586,0.709318,-0.219872,0.342153,0.367974,0.081111
703,569765646,-0.658144,-0.134763,0.710726,-0.208773,0.544058,-0.023104,0.104095
704,569798980,-0.662802,-0.121230,0.712271,-0.196722,0.588279,-0.419439,-0.060313
705,569832314,-0.666351,-0.110057,0.713729,-0.185708,0.308498,-0.792254,0.114815
706,569865648,-0.668782,-0.102974,0.714562,-0.177654,0.396068,-1.118840,-0.131849
707,569898982,-0.669985,-0.098988,0.715431,-0.171791,0.605782,-0.860062,-0.044730
708,569932316,-0.670309,-0.096166,0.716766,-0.166486,0.515943,-1.166040,0.036294
709,569965650,-0.670447,-0.094183,0.717766,-0.162711,-0.062714,-1.397915,0.361740
710,569998984,-0.670327,-0.094060,0.718149,-0.161586,-0.140082,-1.285907,0.371112
711,570032318,-0.670451,-0.096238,0.717425,-0.163001,-0.166127,-1.119309,-0.050421
712,570065652,-0.669281,-0.101342,0.716818,-0.167326,0.130387,-0.761688,-0.019200
713,570098986,-0.667475,-0.108214,0.716129,-0.173088,0.476411,-0.616859,0.009040
714,570132320,-0.665802,-0.115917,0.714967,-0.179237,0.221957,-0.645863,0.244910
715,570165654,-0.664245,-0.124827,0.713157,-0.186108,0.088534,-0.807816,0.304282
716,570198988,-0.662479,-0.135270,0.710639,-0.194551,0.169175,-1.062487,0.161121
717,570232322,-0.659614,-0.148282,0.707575,-0.205651,0.083875,-1.018274,0.255984
718,570265656,-0.654957,-0.164957,0.703736,-0.220475,0.132181,-0.555080,0.081595
719,570298990,-0.648898,-0.184724,0.698535,-0.238517,0.281202,0.103204,0.109506
720,570332324,-0.641204,-0.205274,0.693542,-0.256422,0.421382,0.592817,0.257450
721,570365658,-0.634158,-0.224298,0.688180,-0.271984,0.446614,1.086758,0.058158
722,570398992,-0.627423,-0.241327,0.683510,-0.284514,0.158225,1.229058,-0.035057
723,570432326,-0.621126,-0.255159,0.680898,-0.292416,-0.052607,1.342479,0.352064
724,570465660,-0.617002,-0.264514,0.679471,-0.296131,-0.400989,0.782294,-0.119766
725,570498994,-0.613777,-0.272182,0.678128,-0.298948,-0.597623,0.268158,0.378506
726,570532328,-0.612022,-0.279361,0.675295,-0.302317,-0.790566,-0.275348,0.485525
727,570565662,-0.609836,-0.288255,0.671302,-0.307239,-0.715602,-0.299219,0.003106
728,570598996,-0.607173,-0.298814,0.665876,-0.314154,-0.386546,-0.177376,0.300079
729,570632330,-0.603308,-0.311013,0.659900,-0.322267,-0.100542,-0.129121,0.039797
730,570665664,-0.598478,-0.323783,0.654196,-0.330225,0.076687,0.521879,0.060220
731,570698998,-0.594981,-0.333254,0.650065,-0.335244,0.096048,0.815758,-0.111345
732,570732332,-0.592567,-0.338950,0.648507,-0.336822,-0.071113,0.512741,0.159252
733,570765666,-0.591044,-0.342519,0.648221,-0.336439,-0.220306,0.038283,0.245784
734,570799000,-0.589716,-0.346344,0.647379,-0.336474,-0.207959,-0.224761,0.193517
735,570832334,-0.587484,-0.351586,0.645961,-0.337666,-0.117025,-0.367669,-0.074902
736,570865668,-0.584422,-0.357860,0.644354,-0.339452,-0.187711,-0.161667,0.018240
737,570899002,-0.581710,-0.364634,0.641334,-0.342606,-0.008060,0.365287,0.383945
738,570932336,-0.579502,-0.370112,0.638989,-0.344848,-0.188545,0.395050,0.011770
739,570965670,-0.578057,-0.373551,0.638248,-0.344938,-0.280334,0.560896,-0.022102
740,570999004,-0.577480,-0.376247,0.636939,-0.345394,0.054955,0.359801,0.225934
741,571032338,-0.577516,-0.377155,0.637039,-0.344157,-0.068170,0.246583,-0.138490
742,571065672,-0.577603,-0.377149,0.638406,-0.341473,-0.031933,0.184605,0.051657
743,571099006,-0.577849,-0.377064,0.639126,-0.339800,0.322791,0.150602,0.258440
744,571132340,-0.578170,-0.376484,0.640393,-0.337504,-0.051793,-0.187241,-0.085907
745,571165674,-0.577537,-0.376391,0.642401,-0.334865,-0.189834,-0.309126,-0.108476
746,571199008,-0.575544,-0.376840,0.645418,-0.331978,0.266656,0.045948,0.156536
747,571232342,-0.572615,-0.376403,0.650488,-0.327613,0.557195,0.139388,-0.216474
748,571265676,-0.568768,-0.375295,0.657007,-0.322540,0.720634,0.355211,-0.197810
749,571299010,-0.565811,-0.372417,0.664070,-0.316558,0.468489,0.299809,0.045454
750,571332344,-0.564800,-0.367256,0.671142,-0.309396,-0.550812,0.315519,0.318188
751,571365678,-0.565367,-0.361102,0.677387,-0.301903,-1.377855,0.127457,0.651968
752,571399012,-0.566909,-0.355801,0.681619,-0.295718,-1.648588,-0.167986,0.454034
753,571432346,-0.568345,-0.352561,0.683853,-0.291655,-0.841211,-0.361026,0.202287
754,571465680,-0.568800,-0.350490,0.685866,-0.288521,0.673144,-0.233574,-0.088367
755,571499014,-0.568958,-0.347867,0.688632,-0.284772,1.052124,0.204043,-0.080391
756,571532348,-0.569476,-0.343830,0.692260,-0.279801,0.533504,0.456931,0.070697
758,571599016,-0.571996,-0.332259,0.700713,-0.267318,-0.440404,0.146919,0.253581
759,571632350,-0.573549,-0.326863,0.704163,-0.261515,-0.447999,-0.273447,0.138542
760,571665684,-0.573968,-0.323998,0.706496,-0.257843,-0.108456,-0.506664,0.053642
761,571699018,-0.573147,-0.323389,0.707960,-0.256414,0.236028,-0.327318,0.107725
762,571732352,-0.572691,-0.322842,0.709164,-0.254789,0.001822,0.131828,0.112937
763,571765686,-0.572077,-0.322608,0.710017,-0.254088,-0.112724,0.296282,0.202580
764,571799020,-0.571763,-0.321254,0.711589,-0.252105,0.074865,0.510071,0.175051
765,571832354,-0.572005,-0.318761,0.713530,-0.249219,0.037019,0.159142,0.164712
766,571865688,-0.572315,-0.316530,0.715176,-0.246618,-0.222893,-0.045727,0.093553
767,571899022,-0.571993,-0.315142,0.716529,-0.245211,0.068653,0.060438,0.110045
768,571932356,-0.571825,-0.312867,0.718302,-0.243321,0.138750,0.183865,0.127072
769,571965690,-0.571823,-0.310059,0.720364,-0.240814,0.019519,0.281800,0.140954
770,571999024,-0.572020,-0.307011,0.722345,-0.238304,0.084648,0.280407,0.149835
771,572032358,-0.572449,-0.303492,0.724345,-0.235697,0.197211,0.080010,0.110235
772,572065692,-0.572857,-0.299525,0.726619,-0.232763,0.120513,0.056368,0.133132
773,572099026,-0.573241,-0.295590,0.728822,-0.229942,0.078922,0.084358,0.166835
774,572132360,-0.573402,-0.292028,0.730795,-0.227820,0.100864,0.061560,0.107474
775,572165694,-0.573628,-0.288445,0.732726,-0.225601,0.207473,0.018181,0.210471
776,572199028,-0.573991,-0.284977,0.734373,-0.223723,0.226752,-0.144901,0.080220
777,572232362,-0.574287,-0.281917,0.735822,-0.222072,0.107332,-0.133472,0.201031
778,572265696,-0.574715,-0.279264,0.736879,-0.220809,0.090519,-0.279778,0.205083
779,572299030,-0.575207,-0.277233,0.737512,-0.219974,0.115966,-0.323490,0.066505
780,572332364,-0.575231,-0.276160,0.737889,-0.219997,0.132567,-0.132030,0.095777
781,572365698,-0.575113,-0.275394,0.738165,-0.220341,0.193601,-0.028483,0.193021
782,572399032,-0.574944,-0.274866,0.738300,-0.220987,0.107925,-0.015592,0.164531
783,572432366,-0.574989,-0.274276,0.738351,-0.221432,-0.004312,-0.090368,0.132307
784,572465700,-0.575229,-0.273442,0.738429,-0.221580,-0.021840,-0.142182,0.187860
785,572499034,-0.575382,-0.272961,0.738329,-0.222109,0.102836,-0.076046,0.153055
786,572532368,-0.575368,-0.273181,0.737843,-0.223484,0.124158,-0.019919,0.086351
787,572565702,-0.575239,-0.273690,0.737162,-0.225433,0.024672,0.075616,0.213570
788,572599036,-0.575640,-0.273696,0.736403,-0.226878,-0.147263,0.247165,0.132736
789,572632370,-0.577136,-0.273022,0.735122,-0.228042,-0.488130,0.275450,0.445524
790,572665704,-0.579503,-0.272998,0.732476,-0.230568,-0.777530,-0.295597,0.234698
791,572699038,-0.582424,-0.272798,0.729475,-0.232948,-0.071463,-0.372941,-0.047492
792,572732372,-0.585026,-0.272844,0.726598,-0.235350,0.444965,-0.159206,0.101241
793,572765706,-0.587204,-0.273264,0.723960,-0.237558,0.521777,-0.016908,0.082043
794,572799040,-0.589502,-0.273258,0.721642,-0.238921,0.437580,0.012217,0.078831
795,572832374,-0.591297,-0.273651,0.719422,-0.240725,0.319724,0.007876,0.051506
796,572865708,-0.591778,-0.275041,0.717579,-0.243445,0.353592,0.017772,-0.061504
797,572899042,-0.590764,-0.277774,0.716099,-0.247134,0.325978,-0.066935,0.012639
798,572932376,-0.589148,-0.281468,0.714487,-0.251440,0.241828,-0.214995,0.132062
799,572965710,-0.587750,-0.284861,0.712816,-0.255600,0.128621,0.051574,0.135627
800,572999044,-0.586387,-0.287745,0.711330,-0.259608,0.020740,0.333201,0.026943
801,573032378,-0.585042,-0.290172,0.710190,-0.263039,-0.086666,0.336936,0.121183
802,573065712,-0.583739,-0.292544,0.709067,-0.266314,-0.301466,0.061131,0.154428
803,573099046,-0.582535,-0.295322,0.707403,-0.270280,-0.376004,-0.216211,0.171694
804,573132380,-0.581562,-0.298550,0.705134,-0.274724,-0.383367,-0.132597,0.122396
805,573165714,-0.580317,-0.303023,0.702087,-0.280211,-0.281005,0.016100,0.193566
806,573199048,-0.578906,-0.307958,0.698687,-0.286181,-0.127809,0.088599,0.133990
807,573232382,-0.577730,-0.311726,0.695892,-0.291242,-0.035993,0.239596,0.062191
808,573265716,-0.577207,-0.313158,0.694582,-0.293859,-0.050232,0.481564,0.042244
809,573299050,-0.577331,-0.312677,0.694325,-0.294734,-0.206725,0.207148,0.254525
810,573332384,-0.577361,-0.312236,0.694063,-0.295758,-0.372284,-0.224200,0.030674
811,573365718,-0.576500,-0.313793,0.692796,-0.298744,-0.316311,-0.202452,0.226573
812,573399052,-0.575701,-0.315961,0.690891,-0.302391,-0.198504,-0.167435,0.141482
813,573432386,-0.574915,-0.318041,0.688849,-0.306338,-0.105709,0.101034,0.054978
814,573465720,-0.574361,-0.318885,0.687806,-0.308836,0.184755,0.407479,-0.047023
815,573499054,-0.574243,-0.318062,0.687883,-0.309730,0.252555,0.416492,0.094334
816,573532388,-0.574379,-0.315718,0.689223,-0.308896,0.436387,0.448395,-0.025702
817,573565722,-0.575270,-0.311336,0.691729,-0.306070,0.164972,0.362759,0.277969
818,573599056,-0.577041,-0.305973,0.694241,-0.302436,-0.193340,-0.183361,0.250344
819,573632390,-0.579007,-0.301191,0.695977,-0.299473,-0.166213,-0.713137,0.306485
820,573665724,-0.580915,-0.297723,0.696704,-0.297550,-0.044080,-0.654836,-0.062352
821,573699058,-0.581630,-0.296855,0.696359,-0.297828,0.183336,-0.422270,0.113154
822,573732392,-0.581410,-0.296874,0.696124,-0.298787,0.215888,0.112746,0.010747
823,573765726,-0.580738,-0.296308,0.696905,-0.298834,0.100635,0.467870,0.051369
824,573799060,-0.580356,-0.293910,0.698826,-0.297455,-0.113620,0.725324,0.131031
825,573832394,-0.581046,-0.289242,0.701615,-0.294099,-0.306301,0.545779,0.101579
826,573865728,-0.582285,-0.283914,0.704392,-0.290177,-0.293919,0.078543,0.182635
827,573899062,-0.583557,-0.279214,0.706504,-0.287030,-0.293964,-0.255186,0.202621
828,573932396,-0.584573,-0.275782,0.707817,-0.285040,-0.188193,-0.274907,0.051675
829,573965730,-0.585358,-0.273391,0.708471,-0.284107,0.099718,-0.279708,0.237468
830,573999064,-0.586034,-0.271476,0.708850,-0.283601,0.313979,-0.181236,0.020508
831,574032398,-0.586304,-0.269945,0.709371,-0.283204,0.397448,0.037893,0.072431
832,574065732,-0.586374,-0.268144,0.710348,-0.282320,0.300281,0.129281,0.082324
833,574099066,-0.586506,-0.265888,0.711644,-0.280910,0.198534,0.142349,0.077798
834,574132400,-0.586816,-0.263245,0.713159,-0.278904,-0.065351,0.009857,0.086917
835,574165734,-0.586994,-0.261195,0.714362,-0.277375,-0.247421,-0.025309,0.127870
836,574199068,-0.586839,-0.260232,0.714998,-0.276967,-0.254755,-0.029526,0.216561
837,574232402,-0.586247,-0.260312,0.715074,-0.277946,-0.360471,-0.129616,0.274548
838,574265736,-0.585540,-0.260948,0.714798,-0.279547,-0.344255,0.080476,0.197344
839,574299070,-0.585097,-0.261064,0.714680,-0.280665,-0.257354,0.265617,0.101593
840,574332404,-0.584790,-0.260989,0.714525,-0.281767,-0.099267,0.083041,0.203949
841,574365738,-0.585059,-0.261653,0.713325,-0.283627,-0.024738,-0.250786,0.101664
842,574399072,-0.586003,-0.264008,0.710380,-0.286871,0.013981,-0.810173,0.152880
843,574432406,-0.586477,-0.268507,0.706207,-0.291983,0.349370,-0.701883,0.263285
844,574465740,-0.586259,-0.273858,0.701876,-0.297835,0.593713,-0.152624,0.001614
845,574499074,-0.585233,-0.279379,0.698048,-0.303666,0.407699,0.235307,-0.008149
846,574532408,-0.584082,-0.284354,0.694863,-0.308529,0.135693,0.338286,0.109756
847,574565742,-0.583499,-0.288421,0.692024,-0.312215,0.116396,0.140671,0.088563
848,574599076,-0.583379,-0.291744,0.689481,-0.314967,-0.016123,-0.061530,0.060571
849,574632410,-0.583152,-0.294968,0.687101,-0.317575,-0.173195,0.059808,0.122701
850,574665744,-0.582106,-0.299064,0.684599,-0.321046,-0.254967,0.062832,0.039070
851,574699078,-0.580316,-0.304043,0.681882,-0.325364,-0.391089,0.128827,0.124484
852,574732412,-0.578718,-0.308466,0.679420,-0.329175,-0.284028,0.015623,0.108183
853,574765746,-0.577256,-0.312184,0.677293,-0.332604,-0.277443,-0.072266,0.073071
854,574799080,-0.575564,-0.315838,0.675345,-0.336027,-0.350251,0.340496,0.066366
855,574832414,-0.574074,-0.318756,0.673833,-0.338846,-0.249210,0.230592,0.148087
856,574865748,-0.573192,-0.320488,0.672653,-0.341042,-0.432443,0.079736,0.444831
857,574899082,-0.572979,-0.321621,0.671279,-0.343036,-0.328054,0.365679,0.007971
858,574932416,-0.573442,-0.321905,0.669975,-0.344541,0.004894,0.202781,0.108155
859,574965750,-0.573972,-0.321840,0.669122,-0.345377,0.194966,0.068870,0.148247
860,574999084,-0.574381,-0.320936,0.669325,-0.345144,0.346201,0.383145,-0.053157
861,575032418,-0.575370,-0.318125,0.670879,-0.343076,0.028860,0.765095,-0.297809
862,575065752,-0.576741,-0.313046,0.674172,-0.338964,-0.051898,0.779281,0.084952
863,575099086,-0.579102,-0.305109,0.679107,-0.332261,-0.193681,0.785689,-0.014353
864,575132420,-0.582414,-0.294547,0.685256,-0.323255,-0.343475,0.710882,0.164197
865,575165754,-0.585927,-0.282524,0.692156,-0.312769,-0.319556,0.515147,0.104104
866,575199088,-0.589414,-0.269218,0.699544,-0.301306,-0.216532,0.552682,0.029453
867,575232422,-0.593171,-0.254910,0.706776,-0.289258,-0.199482,0.707717,0.172590
868,575265756,-0.598356,-0.239275,0.712979,-0.276428,-0.150097,0.695017,0.385859
869,575299090,-0.605880,-0.222484,0.717296,-0.262548,-0.569136,0.343385,0.584655
870,575332424,-0.615663,-0.208796,0.716629,-0.252666,-0.721379,-0.338834,0.535174
871,575365758,-0.629709,-0.196136,0.709970,-0.246930,-1.341369,-1.090594,0.253280
872,575399092,-0.639080,-0.183240,0.707964,-0.238371,0.171033,-1.366386,0.092779
873,575432426,-0.645973,-0.171706,0.707314,-0.230166,0.935461,-0.706696,-0.147413
874,575465760,-0.649573,-0.163978,0.707538,-0.224921,1.309748,-0.364588,0.125295
875,575499094,-0.652176,-0.156437,0.708534,-0.219560,1.587999,0.067064,-0.211822
876,575532428,-0.654268,-0.147280,0.711107,-0.211193,1.278010,0.421120,-0.252875
877,575565762,-0.656152,-0.136785,0.714492,-0.200719,0.761119,-0.226659,0.056649
878,575599096,-0.657422,-0.126053,0.718333,-0.189576,0.111770,-1.719913,0.266786
879,575632430,-0.657524,-0.118462,0.721434,-0.182193,-0.361392,-1.707757,0.327993
880,575665764,-0.656579,-0.115311,0.723408,-0.179785,-0.520655,-1.251327,0.008347
881,575699098,-0.655103,-0.117833,0.723517,-0.183063,-0.536036,-0.715685,0.101701
882,575732432,-0.653368,-0.124372,0.722290,-0.189664,-0.071930,-0.214894,0.273587
883,575765766,-0.651948,-0.131184,0.720692,-0.195939,0.088989,0.025157,0.139714
884,575799100,-0.651115,-0.136873,0.718987,-0.201015,-0.071567,0.115439,-0.022477
885,575832434,-0.650213,-0.143512,0.716734,-0.207251,-0.189142,0.236388,-0.094458
886,575865768,-0.650158,-0.151083,0.713086,-0.214500,-0.178062,0.230184,0.443177
887,575899102,-0.650981,-0.158309,0.709016,-0.220207,-0.498249,0.018037,0.762065
888,575932436,-0.651518,-0.166846,0.704373,-0.227109,-0.662207,-0.614665,0.608739
889,575965770,-0.651385,-0.177737,0.698332,-0.237638,-0.628204,-1.188543,1.120274
890,575999104,-0.650199,-0.188524,0.692740,-0.248686,-0.377962,-1.542729,0.568843
891,576032438,-0.650937,-0.199177,0.684729,-0.260364,0.295663,-1.394407,-0.192946
892,576065772,-0.650078,-0.215089,0.674641,-0.275733,1.684317,0.428375,-0.494142
893,576099106,-0.645304,-0.233138,0.667086,-0.290273,2.680251,1.246745,-0.530794
894,576132440,-0.640516,-0.248280,0.662021,-0.299763,2.089499,0.467160,-0.921522
895,576165774,-0.636809,-0.263359,0.656531,-0.306786,0.255447,1.451600,-0.397634
896,576199108,-0.631904,-0.279220,0.651071,-0.314441,-0.376751,0.557568,0.211222
897,576232442,-0.627828,-0.289546,0.648929,-0.317680,-0.951058,-0.252025,0.389489
898,576265776,-0.627434,-0.293601,0.647876,-0.316884,-1.658802,-0.441068,0.349269
899,576299110,-0.624819,-0.300732,0.645923,-0.319341,-0.901501,-0.898598,0.217324
900,576332444,-0.619112,-0.313812,0.641224,-0.327242,-0.090081,0.126761,0.060161
901,576365778,-0.614141,-0.326311,0.635837,-0.334809,-0.502974,-0.145668,0.061877
902,576399112,-0.609559,-0.337984,0.630598,-0.341446,-0.550364,0.839224,0.243276
903,576432446,-0.605444,-0.346835,0.628218,-0.344265,0.076002,0.716778,-0.011256
904,576465780,-0.605353,-0.349999,0.627291,-0.342911,-0.409011,-0.350807,0.308540
905,576499114,-0.604598,-0.355075,0.624848,-0.343486,-0.228338,-0.085137,0.102352
906,576532448,-0.601911,-0.362249,0.621877,-0.346094,0.288644,-0.261471,-0.040650
907,576565782,-0.598876,-0.369706,0.618423,-0.349644,-0.143292,0.173094,-0.084515
908,576599116,-0.593595,-0.378618,0.616110,-0.353179,0.407740,1.119957,0.004874
909,576632450,-0.588921,-0.384488,0.617148,-0.352851,0.927738,0.758779,-0.143415
910,576665784,-0.586780,-0.386268,0.619730,-0.349935,0.081983,0.415533,0.176901
911,576699118,-0.584427,-0.387208,0.623205,-0.346648,-0.043403,0.109534,0.052207
912,576732452,-0.580942,-0.387870,0.628142,-0.342834,-0.055354,0.813962,-0.138716
913,576765786,-0.578313,-0.386270,0.634392,-0.337536,-0.604402,0.603485,0.091834
914,576799120,-0.576149,-0.382996,0.641162,-0.332130,-0.753176,0.572227,0.093431
915,576832454,-0.575225,-0.377540,0.649053,-0.324567,-0.842015,0.914674,0.220033
916,576865788,-0.575859,-0.370247,0.656913,-0.315916,-0.211714,0.472444,0.187602
917,576899122,-0.576325,-0.361613,0.665668,-0.306603,-0.121070,0.313165,-0.027519
918,576932456,-0.576214,-0.351794,0.675727,-0.296049,-0.271816,0.470813,-0.046524
919,576965790,-0.575714,-0.340522,0.687016,-0.283971,-0.095841,0.554479,0.114288
920,576999124,-0.576247,-0.328538,0.696577,-0.273525,0.988093,0.522270,0.535895
921,577032458,-0.577547,-0.316220,0.705160,-0.263113,0.348967,0.209532,0.070646
922,577065792,-0.578713,-0.304008,0.713146,-0.253234,-0.069220,0.521584,0.253263
923,577099126,-0.581678,-0.292035,0.718631,-0.244886,0.048043,-0.013266,0.489709
924,577132460,-0.584327,-0.280815,0.723504,-0.237235,-0.271195,-0.097682,0.024951
925,577165794,-0.586709,-0.270650,0.727408,-0.231155,-0.027018,0.049400,0.231637
926,577199128,-0.589309,-0.261606,0.730009,-0.226712,0.174889,-0.481791,0.288878
927,577232462,-0.591478,-0.253182,0.732440,-0.222751,0.329829,0.010127,0.143538
928,577265796,-0.595324,-0.242816,0.734430,-0.217431,0.108439,0.519707,0.111515
929,577299130,-0.598274,-0.231122,0.737746,-0.210752,0.173190,0.950499,-0.010402
930,577332464,-0.602232,-0.217532,0.740829,-0.202985,0.191060,0.700002,0.229117
931,577365798,-0.605465,-0.203153,0.744821,-0.193432,-0.483562,0.550681,-0.156012
932,577399132,-0.608346,-0.189257,0.748411,-0.184423,-0.110642,-0.088458,0.173269
933,577432466,-0.612945,-0.175400,0.750175,-0.175511,-0.347710,-0.817407,0.316219
934,577465800,-0.619100,-0.163122,0.749555,-0.168245,-0.370092,-1.581528,0.215592
935,577499134,-0.622739,-0.156555,0.748576,-0.165392,0.056881,-1.132047,0.107904
936,577532468,-0.624867,-0.155069,0.746660,-0.167413,0.798075,-1.286822,0.403701
937,577565802,-0.625204,-0.155189,0.745699,-0.170304,0.932392,-0.854578,0.096293
938,577599136,-0.625452,-0.155354,0.744768,-0.173288,0.783348,-0.494750,-0.008287
939,577632470,-0.626012,-0.155377,0.743762,-0.175552,0.063674,-0.341400,0.180953
940,577665804,-0.626700,-0.156088,0.742459,-0.177968,-0.080309,-0.454824,0.284662
941,577699138,-0.626521,-0.159373,0.740739,-0.182788,-0.149734,-0.453231,0.163340
942,577732472,-0.626685,-0.164759,0.737605,-0.189981,-0.206883,-0.431965,0.118155
943,577765806,-0.626176,-0.173082,0.733429,-0.200154,-0.156360,-0.335082,0.197567
944,577799140,-0.625501,-0.183144,0.728161,-0.212184,0.017008,-0.240731,0.374334
945,577832474,-0.625250,-0.192499,0.722731,-0.222937,0.111532,-0.125698,0.107152
946,577865808,-0.624891,-0.201185,0.717640,-0.232512,0.139726,0.049636,-0.221200
947,577899142,-0.624669,-0.209466,0.712419,-0.241673,0.292950,-0.171421,0.084273
948,577932476,-0.624248,-0.218272,0.706968,-0.250803,-0.040698,-0.241058,0.251273
949,577965810,-0.623561,-0.228140,0.700947,-0.260442,-0.138173,-0.346040,0.100910
950,577999144,-0.621792,-0.239865,0.694483,-0.271234,-0.130237,-0.268301,0.144150
951,578032478,-0.619593,-0.252695,0.687210,-0.282887,0.061827,-0.341572,0.093877
952,578065812,-0.616766,-0.265838,0.679984,-0.294254,0.039131,-0.158388,0.000227
953,578099146,-0.614618,-0.277721,0.672779,-0.304168,-0.032253,0.119826,0.302167
954,578132480,-0.612743,-0.288422,0.666484,-0.311757,0.009605,-0.006244,0.212768
955,578165814,-0.612106,-0.297161,0.660420,-0.317648,0.006454,0.210420,-0.033569
956,578199148,-0.611679,-0.304720,0.655186,-0.322118,0.182927,-0.017210,0.003539
957,578232482,-0.610927,-0.311647,0.650847,-0.325694,-0.000977,-0.152069,0.052429
958,578265816,-0.609202,-0.319772,0.646117,-0.330431,-0.116577,-0.232489,0.318249
959,578299150,-0.607197,-0.328156,0.641557,-0.334758,-0.321146,-0.565086,0.027705
960,578332484,-0.604537,-0.337844,0.636067,-0.340366,-0.777165,-0.183584,0.146499
961,578365818,-0.600583,-0.349367,0.629732,-0.347440,-0.467514,0.195100,0.120638
962,578399152,-0.597564,-0.358772,0.624799,-0.351936,-0.125784,0.294535,0.013824
963,578432486,-0.596517,-0.365249,0.620717,-0.354266,-0.300993,0.367366,0.314560
964,578465820,-0.594951,-0.370970,0.618464,-0.354894,0.113292,0.627885,-0.132839
965,578499154,-0.593900,-0.374732,0.617462,-0.354448,0.034077,0.356597,0.016927
966,578532488,-0.592653,-0.377460,0.617883,-0.352904,0.008876,0.190986,0.007986
967,578565822,-0.590413,-0.380189,0.619474,-0.350935,0.236440,0.396795,-0.063122
968,578599156,-0.588747,-0.380938,0.622854,-0.346915,0.174866,-0.149483,0.149187
969,578632490,-0.586968,-0.381119,0.626863,-0.342482,0.236463,0.373644,-0.107221
970,578665824,-0.583951,-0.380915,0.632751,-0.336994,0.540373,0.581999,0.050870
971,578699158,-0.581138,-0.378638,0.640724,-0.329269,0.402700,0.232429,-0.087887
972,578732492,-0.578120,-0.374986,0.649828,-0.320810,0.079132,-0.195567,0.041907
973,578765826,-0.574993,-0.369987,0.660234,-0.310833,-0.339044,-0.407936,-0.024638
974,578799160,-0.572654,-0.363306,0.671347,-0.299003,-0.126886,-0.070453,-0.039371
975,578832494,-0.571105,-0.356385,0.681040,-0.288177,0.615292,0.166501,0.342300
976,578865828,-0.570651,-0.350575,0.687729,-0.280208,0.114489,0.049573,0.408487
977,578899162,-0.570575,-0.346283,0.692263,-0.274477,-0.788600,0.085171,0.303238
978,578932496,-0.571536,-0.342243,0.695533,-0.269229,-1.191499,0.097436,0.420301
979,578965830,-0.573473,-0.337800,0.698371,-0.263309,-0.844000,0.158392,0.149187
980,578999164,-0.574702,-0.334233,0.701059,-0.257986,-0.279253,0.127265,0.110483
981,579032498,-0.574924,-0.331379,0.703864,-0.253495,0.285198,0.051355,-0.041602
982,579065832,-0.574716,-0.328827,0.706625,-0.249578,0.186147,-0.043746,0.183917
983,579099166,-0.574938,-0.326087,0.709060,-0.245727,-0.032907,0.015293,0.154158
984,579132500,-0.574932,-0.324109,0.711089,-0.242470,0.022975,-0.091658,0.085218
985,579165834,-0.575065,-0.322251,0.712954,-0.239133,-0.058025,-0.123944,0.292833
986,579199168,-0.575071,-0.321538,0.713981,-0.237004,0.058288,-0.200545,0.020064
987,579232502,-0.574089,-0.322972,0.714274,-0.236550,0.365406,-0.157725,0.091706
988,579265836,-0.572868,-0.325104,0.714167,-0.236915,0.350863,0.103555,0.242992
989,579299170,-0.572204,-0.326819,0.713612,-0.237833,0.000625,-0.055791,0.065895
990,579332504,-0.571946,-0.327830,0.713442,-0.237570,0.240581,-0.019812,0.219700
991,579365838,-0.571595,-0.329470,0.712921,-0.237708,0.319361,-0.216301,0.096955
992,579399172,-0.570821,-0.331944,0.712025,-0.238809,0.310103,0.161262,0.132152
993,579432506,-0.570183,-0.334477,0.710766,-0.240545,-0.036641,0.018486,0.110646
994,579465840,-0.569316,-0.337131,0.709495,-0.242635,-0.029249,0.174011,0.111104
995,579499174,-0.568353,-0.339664,0.708450,-0.244406,0.050735,0.263119,0.189128
996,579532508,-0.567796,-0.341497,0.707538,-0.245787,0.029202,0.046720,0.097561
997,579565842,-0.567260,-0.343008,0.706758,-0.247160,0.100231,0.077847,0.102727
998,579599176,-0.566676,-0.344458,0.706149,-0.248222,0.040300,0.220970,0.187521
999,579632510,-0.565963,-0.346105,0.705258,-0.250084,-0.089971,-0.109483,0.134070
1000,579665844,-0.565610,-0.347137,0.704607,-0.251284,-0.091838,0.202116,0.089372
1001,579699178,-0.565040,-0.348387,0.703987,-0.252571,-0.000249,0.261638,0.197284
1002,579732512,-0.564247,-0.349604,0.703294,-0.254586,0.068245,0.131512,0.036010
1003,579765846,-0.563864,-0.349827,0.703143,-0.255542,-0.134022,0.236211,0.171318
1004,579799180,-0.563462,-0.349663,0.703216,-0.256450,-0.078564,0.274129,0.114002
1005,579832514,-0.563002,-0.348842,0.703771,-0.257057,0.090212,0.249450,0.060217
1006,579865848,-0.562751,-0.347205,0.704772,-0.257081,-0.066473,0.266116,0.190050
1007,579899182,-0.562952,-0.344948,0.705806,-0.256839,-0.117359,0.297496,0.131882
1008,579932516,-0.563136,-0.342068,0.707330,-0.256096,0.205540,0.202397,0.099964
1009,579965850,-0.563402,-0.338616,0.709186,-0.254964,0.192631,-0.104167,0.101232
1010,579999184,-0.564041,-0.334357,0.711394,-0.253012,0.224336,0.057701,0.114003
1011,580032518,-0.564860,-0.329724,0.713748,-0.250624,0.281045,-0.055601,0.218548
1012,580065852,-0.565856,-0.325193,0.715808,-0.248413,0.069172,-0.241292,0.175073
1013,580099186,-0.566749,-0.322038,0.716879,-0.247396,-0.251678,-0.468401,0.158816
1014,580132520,-0.567452,-0.319882,0.717411,-0.247041,-0.129815,-0.288628,0.183490
1015,580165854,-0.567783,-0.318399,0.717703,-0.247347,0.134177,-0.183228,0.084743
1016,580199188,-0.568042,-0.317127,0.717878,-0.247878,0.165084,-0.076818,0.098352
1017,580232522,-0.568629,-0.315298,0.718280,-0.247699,0.189671,0.196671,0.155610
1018,580265856,-0.569283,-0.313118,0.718854,-0.247299,0.022122,0.204346,0.104211
1019,580299190,-0.569860,-0.310978,0.719441,-0.246963,-0.191448,0.145002,0.039610
1020,580332524,-0.570111,-0.308866,0.720168,-0.246916,-0.124630,0.178346,0.108919
1021,580365858,-0.570251,-0.306677,0.720965,-0.246995,-0.106357,0.212896,0.019309
1022,580399192,-0.570270,-0.304317,0.721903,-0.247131,0.077697,0.347293,0.120154
1023,580432526,-0.570388,-0.301247,0.723231,-0.246736,0.300155,0.125653,0.132232
1024,580465860,-0.570897,-0.298432,0.724161,-0.246249,0.175213,0.089753,0.044984
1025,580499194,-0.571416,-0.296352,0.724569,-0.246358,0.056678,0.016467,0.171842
1026,580532528,-0.571639,-0.295129,0.724362,-0.247912,0.048946,-0.147622,0.159708
1027,580565862,-0.572014,-0.293798,0.724119,-0.249334,0.127737,-0.042671,0.110260
1028,580599196,-0.572437,-0.292438,0.723881,-0.250651,-0.002580,0.000063,0.239645
1029,580632530,-0.573045,-0.290950,0.723531,-0.251999,-0.038419,0.297803,0.071156
1030,580665864,-0.574056,-0.288148,0.723639,-0.252608,-0.152364,0.314654,0.078660
1031,580699198,-0.575134,-0.284224,0.724421,-0.252361,-0.237667,0.400983,0.109817
1032,580732532,-0.576156,-0.279919,0.725456,-0.251868,-0.313570,0.371622,0.193466
1033,580765866,-0.577950,-0.274279,0.726698,-0.250378,-0.238302,0.276251,0.031802
1034,580799200,-0.580307,-0.267564,0.728077,-0.248176,-0.212891,0.339905,0.157399
1035,580832534,-0.582967,-0.259997,0.729691,-0.245226,-0.191880,0.188853,0.211946
1036,580865868,-0.586141,-0.251751,0.731028,-0.242264,-0.265592,0.126426,0.086528
1037,580899202,-0.589481,-0.243117,0.732251,-0.239268,-0.166978,0.059711,0.211060
1038,580932536,-0.592939,-0.234151,0.733534,-0.235710,-0.106700,0.090316,0.074962
1039,580965870,-0.596328,-0.225332,0.734579,-0.232477,0.026164,0.155344,0.191702
1040,580999204,-0.599804,-0.215777,0.735906,-0.228370,0.037314,0.302645,0.133609
1041,581032538,-0.603357,-0.205975,0.737219,-0.223776,-0.064449,0.378436,0.067654
1042,581065872,-0.607240,-0.195574,0.738340,-0.218857,-0.017793,0.253447,0.380864
1043,581099206,-0.613029,-0.183852,0.738247,-0.213120,0.007161,0.009716,0.667993
1044,581132540,-0.621461,-0.171289,0.735855,-0.207357,-1.032623,-0.386113,0.429410
1045,581165874,-0.629551,-0.160301,0.732691,-0.202897,-0.889772,-0.764536,0.057897
1046,581199208,-0.634993,-0.153490,0.729756,-0.201780,-0.236508,-1.109505,0.169774
1047,581232542,-0.639080,-0.149592,0.726530,-0.203438,0.455312,-0.343823,0.078453
1048,581265876,-0.643091,-0.145248,0.723526,-0.204649,0.987845,0.240561,0.030084
1049,581299210,-0.646277,-0.139071,0.722327,-0.203134,1.335240,0.313414,-0.357005
1050,581332544,-0.649477,-0.130526,0.722535,-0.197786,1.343827,-0.002046,-0.438381
1051,581365878,-0.652215,-0.120782,0.723880,-0.189893,1.294874,-0.704213,0.065901
1052,581399212,-0.653220,-0.112772,0.726316,-0.181895,0.797305,-1.039743,0.071430
1053,581432546,-0.652837,-0.108706,0.728641,-0.176361,0.351279,-0.877306,-0.204808
1054,581465880,-0.650829,-0.108285,0.731101,-0.173843,-0.025853,-0.924422,0.150755
1055,581499214,-0.649353,-0.108186,0.733073,-0.171097,-0.242903,-1.000610,0.250191
1056,581532548,-0.648966,-0.109670,0.733499,-0.169788,-0.590192,-1.199817,0.170382
1057,581565882,-0.649095,-0.115363,0.731699,-0.173259,-0.953545,-1.471569,0.419566
1058,581599216,-0.648594,-0.126699,0.727792,-0.183373,-0.712833,-1.647371,0.556683
1059,581632550,-0.647008,-0.142233,0.722279,-0.198738,-0.145256,-1.121517,0.242226
1060,581665884,-0.644485,-0.159694,0.715711,-0.216630,0.462694,-0.151665,0.090987
1061,581699218,-0.640968,-0.177216,0.709127,-0.234366,0.884939,0.373177,0.190696
1062,581732552,-0.637494,-0.191878,0.703382,-0.249143,0.450891,0.324230,-0.105382
1063,581765886,-0.634558,-0.204438,0.697922,-0.261687,0.053622,0.365066,0.099609
1064,581799220,-0.631729,-0.216662,0.692453,-0.272982,0.107427,0.375872,0.239608
1065,581832554,-0.629538,-0.228088,0.687108,-0.282090,-0.183184,0.555525,-0.098894
1066,581865888,-0.627260,-0.240392,0.681328,-0.290832,-0.178939,0.111997,0.283429
1067,581899222,-0.624722,-0.252950,0.675053,-0.300125,-0.504562,-0.525507,0.323462
1068,581932556,-0.621475,-0.266169,0.668107,-0.310789,-0.426670,-0.243196,0.047419
1069,581965890,-0.617467,-0.280225,0.660852,-0.321741,-0.083898,0.462525,0.364711
1070,581999224,-0.614408,-0.292646,0.654480,-0.329469,-0.024230,0.525014,0.073761
1071,582032558,-0.612398,-0.302769,0.649105,-0.334659,-0.045093,-0.100313,-0.168498
1072,582065892,-0.611158,-0.311617,0.643743,-0.339130,-0.100442,0.030367,0.151468
1073,582099226,-0.610340,-0.319218,0.639224,-0.342068,0.009150,0.374533,0.489067
1074,582132560,-0.608894,-0.326698,0.635875,-0.343821,0.344003,0.144972,-0.279658
1075,582165894,-0.607040,-0.333512,0.633196,-0.345497,0.029482,-0.128925,0.060098
1076,582199228,-0.604994,-0.340828,0.629416,-0.348837,-0.642892,-0.632742,0.459808
1077,582232562,-0.600300,-0.352183,0.624147,-0.355080,-0.123091,0.026994,-0.043142
1078,582265896,-0.595286,-0.363305,0.619609,-0.360225,0.087339,0.879048,-0.160366
1079,582299230,-0.594000,-0.369202,0.616725,-0.361301,-0.471379,0.124237,0.144156
1080,582332564,-0.593216,-0.373985,0.614199,-0.361971,-0.569104,0.546717,0.076013
1081,582365898,-0.592784,-0.377451,0.612844,-0.361378,-0.251203,0.748203,0.049223
1082,582399232,-0.593594,-0.378415,0.613148,-0.358515,-0.337447,-0.137553,0.069995
1083,582432566,-0.594679,-0.379070,0.613402,-0.355577,-0.344939,0.080316,0.059450
1084,582465900,-0.594703,-0.380429,0.614059,-0.352941,0.145877,0.106023,0.058183
1085,582499234,-0.595584,-0.379931,0.616183,-0.348260,-0.198524,-0.181859,0.037463
1086,582532568,-0.595230,-0.380808,0.617761,-0.345098,0.130088,0.252205,0.012207
1087,582565902,-0.594846,-0.380863,0.620220,-0.341267,0.296682,0.235810,0.044345
1088,582599236,-0.594437,-0.379556,0.624396,-0.335775,0.170546,0.322575,0.033164
1089,582632570,-0.593982,-0.377270,0.629756,-0.329081,0.244984,0.203788,0.084449
1090,582665904,-0.593700,-0.374163,0.635594,-0.321833,0.201835,-0.052851,0.147005
1091,582699238,-0.592272,-0.371769,0.641502,-0.315453,0.460613,-0.219335,-0.071631
1092,582732572,-0.589396,-0.369926,0.648287,-0.309070,0.380481,-0.133922,0.050938
1093,582765906,-0.585470,-0.368732,0.655425,-0.302842,0.053923,0.027585,0.046455
1094,582799240,-0.580706,-0.367217,0.663595,-0.295988,-0.033433,-0.045392,-0.156748
1095,582832574,-0.575945,-0.363658,0.673321,-0.287598,-0.363697,-0.074252,-0.157672
1096,582865908,-0.571085,-0.359013,0.683759,-0.278351,0.297795,0.156403,0.214916
1097,582899242,-0.568252,-0.354187,0.691816,-0.270308,0.651387,0.337039,0.536817
1098,582932576,-0.568298,-0.349209,0.696824,-0.263742,-0.916631,0.152835,0.665036
1099,582965910,-0.570169,-0.344122,0.700069,-0.257731,-1.589717,0.286344,0.263049
1100,582999244,-0.571747,-0.339820,0.702861,-0.252283,-0.741847,-0.080925,0.137132
1101,583032578,-0.572226,-0.336184,0.706002,-0.247252,0.539069,-0.208345,0.053382
1102,583065912,-0.572728,-0.332263,0.709260,-0.242009,0.640971,0.111224,0.026431
1103,583099246,-0.573669,-0.327995,0.712114,-0.237173,0.162435,0.210031,0.199711
1104,583132580,-0.575115,-0.322801,0.715129,-0.231661,0.104846,0.343117,0.241462
1105,583165914,-0.576413,-0.317672,0.718191,-0.225983,0.080284,0.167237,0.067940
1106,583199248,-0.577423,-0.313123,0.720909,-0.221043,-0.056303,-0.113943,0.182151
1107,583232582,-0.578666,-0.308420,0.723362,-0.216339,-0.192762,0.212981,0.086135
1108,583265916,-0.579177,-0.304646,0.725667,-0.212572,0.105473,0.333465,0.133818
1109,583299250,-0.579528,-0.301315,0.727596,-0.209750,0.048332,0.229784,0.202941
1110,583332584,-0.580202,-0.297735,0.729256,-0.207216,0.206371,-0.014670,0.240307
1111,583365918,-0.580879,-0.294526,0.730707,-0.204782,0.533132,-0.272229,0.132234
1112,583399252,-0.581375,-0.292955,0.731243,-0.203711,0.500710,-0.286023,0.162336
1113,583432586,-0.581531,-0.292917,0.730989,-0.204231,0.334386,-0.337989,0.074446
1114,583465920,-0.580637,-0.294898,0.730233,-0.206616,0.268100,-0.175799,0.105677
1115,583499254,-0.579392,-0.298218,0.728890,-0.210057,0.097397,-0.023241,0.091795
1116,583532588,-0.577645,-0.302993,0.726810,-0.215177,0.255067,0.150526,0.210223
1117,583565922,-0.576035,-0.307823,0.724409,-0.220670,-0.008590,-0.124069,0.060650
1118,583599256,-0.574479,-0.312313,0.721963,-0.226358,0.020864,0.299769,0.310868
1119,583632590,-0.573934,-0.315118,0.719799,-0.230703,-0.125442,0.253140,0.176884
1120,583665924,-0.573784,-0.316843,0.718199,-0.233680,0.236659,0.299561,0.115528
1121,583699258,-0.573635,-0.318231,0.716692,-0.236767,0.211151,-0.055066,0.137790
1122,583732592,-0.573634,-0.319361,0.715252,-0.239584,0.108662,0.440298,0.066402
1123,583765926,-0.573442,-0.320682,0.713594,-0.243199,-0.007309,0.263129,0.093135
1124,583799260,-0.573168,-0.321694,0.712056,-0.246987,-0.124731,-0.033352,0.173126
1125,583832594,-0.573132,-0.322324,0.710812,-0.249815,-0.107130,0.211459,0.204207
1126,583865928,-0.573316,-0.322934,0.709153,-0.253296,-0.164808,-0.066694,0.080628
1127,583899262,-0.573401,-0.323600,0.707552,-0.256706,-0.224795,0.252857,0.086139
1128,583932596,-0.573270,-0.323856,0.706291,-0.260125,-0.184421,0.362223,0.129502
1129,583965930,-0.573617,-0.323044,0.705270,-0.263126,-0.352640,0.325808,0.152480
1130,583999264,-0.574329,-0.321851,0.704407,-0.265337,-0.321177,0.220640,0.198839
1131,584032598,-0.574834,-0.321538,0.702825,-0.268794,-0.038294,-0.257780,0.185565
1132,584065932,-0.575374,-0.322367,0.700070,-0.273788,-0.419279,-0.305252,0.222817
1133,584099266,-0.575409,-0.324240,0.696734,-0.279945,-0.558128,0.433626,-0.027707
1134,584132600,-0.575329,-0.324195,0.694814,-0.284888,-0.106730,0.694785,0.061429
1135,584165934,-0.575767,-0.320310,0.695692,-0.286253,0.333234,0.709689,-0.048116
1136,584199268,-0.576671,-0.313680,0.698403,-0.285172,0.759131,0.697563,0.045611
1137,584232602,-0.579906,-0.304047,0.701650,-0.281045,0.263433,-0.307738,0.323371
1138,584265936,-0.583481,-0.294358,0.704691,-0.276313,-0.301203,-0.488283,0.010346
1139,584299270,-0.585551,-0.286873,0.707041,-0.273791,-0.378282,-0.396673,0.123614
1140,584332604,-0.586880,-0.281080,0.708719,-0.272614,-0.628159,-0.305440,0.147815
1141,584365938,-0.587947,-0.277620,0.708840,-0.273543,-0.582555,-0.057352,0.104474
1142,584399272,-0.589196,-0.275726,0.707372,-0.276555,-0.545656,0.246960,0.114176
1143,584432606,-0.590887,-0.273624,0.705516,-0.279757,-0.052527,0.426256,0.259108
1144,584465940,-0.593574,-0.269469,0.704398,-0.280917,0.288997,0.375705,0.025953
1145,584499274,-0.597198,-0.262664,0.704536,-0.279328,0.196486,0.256557,0.021055
1146,584532608,-0.603056,-0.255175,0.703172,-0.277113,-0.152552,-0.005733,0.292983
1147,584565942,-0.610616,-0.247198,0.700993,-0.273282,-0.414402,0.058870,0.439404
1148,584599276,-0.618695,-0.241615,0.696564,-0.271425,-0.532292,-0.779817,-0.168634
1149,584632610,-0.621734,-0.237878,0.695536,-0.270415,0.397940,-0.783750,-0.050542
1150,584665944,-0.624696,-0.230171,0.696874,-0.266789,0.833553,-0.340167,0.219404
1151,584699278,-0.628651,-0.217709,0.700306,-0.258858,0.933401,-0.016050,0.062357
1152,584732612,-0.630698,-0.206041,0.704912,-0.250802,1.172600,0.451921,0.289954
1153,584765946,-0.632457,-0.194019,0.709896,-0.241737,0.820457,0.243359,-0.025156
1154,584799280,-0.633840,-0.181875,0.715324,-0.231333,0.375712,0.367020,-0.101822
1155,584832614,-0.634981,-0.168811,0.721213,-0.219519,-0.222845,-0.806430,0.329909
1156,584865948,-0.636997,-0.155956,0.725528,-0.208701,-0.611553,-0.569453,0.202318
1157,584899282,-0.638507,-0.147834,0.727844,-0.201819,-0.120852,-0.001140,-0.162032
1158,584932616,-0.640092,-0.142407,0.728554,-0.198102,-0.565255,-0.958246,0.523033
1159,584965950,-0.641847,-0.138790,0.728123,-0.196571,-0.715540,-0.657508,0.579538
1160,584999284,-0.642752,-0.138428,0.726945,-0.198225,-0.680558,-0.844105,0.510146
1161,585032618,-0.644464,-0.140635,0.723798,-0.202578,-0.821594,-0.839194,0.399219
1162,585065952,-0.647548,-0.145697,0.718129,-0.209232,-0.593772,-1.043940,0.365115
1163,585099286,-0.650642,-0.153901,0.710773,-0.218667,-0.235641,-0.917294,0.118587
1164,585132620,-0.651930,-0.165002,0.703327,-0.230492,0.062808,-0.258733,0.133576
1165,585165954,-0.650996,-0.177452,0.696949,-0.242922,0.472170,0.293848,-0.072075
1166,585199288,-0.650332,-0.188757,0.690371,-0.254679,1.283999,-1.427358,0.007146
1167,585232622,-0.652988,-0.194878,0.683669,-0.261266,1.224482,-0.778351,-0.712527
1168,585265956,-0.653777,-0.202979,0.677757,-0.268429,1.673902,-0.031655,-0.198492
1169,585299290,-0.652484,-0.211548,0.674324,-0.273556,2.087451,0.294305,-0.588778
1170,585332624,-0.649724,-0.220932,0.672089,-0.278168,1.736182,-0.235526,-0.070210
1171,585365958,-0.645286,-0.231905,0.670330,-0.283756,0.585360,-0.908225,0.000876
1172,585399292,-0.639418,-0.245206,0.668546,-0.289998,-0.541460,-0.533384,-0.330464
1173,585432626,-0.636011,-0.261352,0.661964,-0.298368,-1.845442,0.928375,0.687315
1174,585465960,-0.628916,-0.282791,0.654246,-0.310628,-0.003291,-0.977890,0.666819
1175,585499294,-0.623144,-0.300622,0.645285,-0.323972,-2.248615,0.842429,0.860932
1176,585532628,-0.617537,-0.314747,0.639968,-0.331748,-0.407067,0.731165,-0.400177
1177,585565962,-0.611929,-0.328572,0.634219,-0.339681,-0.535200,0.750095,0.159526
1178,585599296,-0.607545,-0.339216,0.629953,-0.344986,0.066189,0.427772,0.548389
1179,585632630,-0.606528,-0.344739,0.627055,-0.346577,-0.495728,0.115446,-0.052814
1180,585665964,-0.604513,-0.351292,0.624025,-0.348976,-0.240395,0.774945,0.107258
1181,585699298,-0.600789,-0.358818,0.621511,-0.352222,0.233768,-0.197320,0.098570
1182,585732632,-0.597747,-0.364975,0.619528,-0.354556,-0.567052,0.052253,-0.057498
1183,585765966,-0.594768,-0.370233,0.618390,-0.356099,-0.347088,1.457547,0.049447
1184,585799300,-0.593202,-0.372134,0.619874,-0.354143,0.058906,0.902123,0.087180
1185,585832634,-0.593280,-0.371146,0.622384,-0.350631,-0.335039,0.464995,-0.022292
1186,585865968,-0.593536,-0.369172,0.625404,-0.346888,-0.037936,0.221636,0.072916
1187,585899302,-0.593532,-0.366782,0.629477,-0.342029,0.083201,0.244716,0.127611
1188,585932636,-0.592160,-0.365211,0.634228,-0.337278,0.553268,0.190461,-0.067058
1189,585965970,-0.590677,-0.361936,0.640740,-0.331043,0.478424,-0.165983,0.036764
1190,585999304,-0.588235,-0.358063,0.648556,-0.324313,0.407086,0.064901,0.071735
1191,586032638,-0.585100,-0.353653,0.657476,-0.316775,0.614041,0.018628,0.059115
1192,586065972,-0.583175,-0.347710,0.666366,-0.308212,0.257365,-0.261250,0.085945
1193,586099306,-0.581683,-0.341837,0.674462,-0.299878,-0.116751,-0.325193,0.149782
1194,586132640,-0.579460,-0.337038,0.681809,-0.292920,-0.219010,-0.490248,0.055103
1195,586165974,-0.576077,-0.333237,0.689258,-0.286437,-0.529332,-0.254357,0.042686
1196,586199308,-0.574018,-0.329971,0.694673,-0.281220,-0.405403,0.214068,0.619552
1197,586232642,-0.574793,-0.326893,0.696873,-0.277770,-0.966469,0.241730,0.460693
1198,586265976,-0.575595,-0.324329,0.698517,-0.274969,-0.651421,0.612679,0.074618
1199,586299310,-0.575540,-0.321240,0.701331,-0.271528,0.083904,0.459924,-0.003102
1200,586332644,-0.575797,-0.316205,0.705393,-0.266320,0.025400,0.286210,0.188088
1201,586365978,-0.576452,-0.310451,0.709415,-0.260935,-0.271131,0.259798,0.178115
1202,586399312,-0.577182,-0.305217,0.712849,-0.256095,-0.207726,0.197275,0.115260
1203,586432646,-0.577463,-0.301327,0.715533,-0.252557,0.020833,-0.219078,0.178111
1204,586465980,-0.576802,-0.299659,0.717303,-0.251026,0.272960,-0.704323,0.134248
1205,586499314,-0.576229,-0.299139,0.718133,-0.250589,0.450828,-0.594099,0.079680
1206,586532648,-0.576508,-0.298147,0.718633,-0.249695,0.462184,-0.235448,0.175345
1207,586565982,-0.576568,-0.298126,0.718915,-0.248767,0.478202,0.118130,0.151318
1208,586599316,-0.575682,-0.300778,0.717893,-0.250572,0.037186,0.017522,0.069640
1209,586632650,-0.574519,-0.304313,0.716218,-0.253746,-0.156229,-0.007774,0.209059
1210,586665984,-0.573494,-0.307674,0.714450,-0.256973,-0.139363,-0.065091,0.173968
1211,586699318,-0.572439,-0.311198,0.712693,-0.259945,0.006253,0.023243,0.192441
1212,586732652,-0.571319,-0.315751,0.710127,-0.263911,0.032133,-0.091348,0.219225
1213,586765986,-0.570308,-0.320533,0.707069,-0.268505,0.329467,0.018950,0.027883
1214,586799320,-0.569073,-0.325550,0.703807,-0.273610,0.130489,-0.049294,0.069394
1215,586832654,-0.567771,-0.330181,0.700831,-0.278364,0.150013,0.522077,0.165313
1216,586865988,-0.566852,-0.333697,0.698345,-0.282265,-0.136116,0.257313,0.152342
1217,586899322,-0.566242,-0.336444,0.696072,-0.285820,-0.308885,0.070612,0.047387
1218,586932656,-0.565710,-0.338893,0.693776,-0.289539,-0.084278,0.286529,0.197149
1219,586965990,-0.565694,-0.340097,0.692134,-0.292075,0.109025,0.324711,0.048066
1220,586999324,-0.565774,-0.340531,0.691043,-0.293994,0.122206,0.313071,0.093285
1221,587032658,-0.566143,-0.340104,0.690295,-0.295529,0.067054,0.185942,0.104020
1222,587065992,-0.566801,-0.338175,0.690601,-0.295768,0.239584,0.226214,0.031594
1223,587099326,-0.567352,-0.335566,0.691732,-0.295040,0.208402,0.062259,0.085754
1224,587132660,-0.567843,-0.332973,0.692792,-0.294544,-0.074037,0.026714,0.051772
1225,587165994,-0.568352,-0.330067,0.694112,-0.293726,-0.057619,0.075631,0.126647
1226,587199328,-0.568885,-0.326696,0.695773,-0.292531,-0.080797,0.128253,0.114432
1227,587232662,-0.569484,-0.323114,0.697544,-0.291122,-0.022473,0.183387,0.086760
1228,587265996,-0.570320,-0.318975,0.699497,-0.289358,-0.051007,0.044456,0.175983
1229,587299330,-0.571378,-0.314379,0.701648,-0.287083,-0.056944,-0.011758,0.116036
1230,587332664,-0.572227,-0.309691,0.703956,-0.284829,-0.053798,-0.101221,0.140783
1231,587365998,-0.573061,-0.304366,0.706688,-0.282113,-0.221382,0.104130,0.185515
1232,587399332,-0.573908,-0.298992,0.709344,-0.279458,-0.340073,0.201634,0.180318
1233,587432666,-0.574801,-0.293848,0.711461,-0.277695,-0.352813,0.167603,0.077900
1234,587466000,-0.575870,-0.288696,0.713271,-0.276238,-0.307873,0.205888,0.321134
1235,587499334,-0.577204,-0.283719,0.714776,-0.274715,-0.196864,0.143849,0.112934
1236,587532668,-0.578590,-0.279301,0.715705,-0.273908,-0.065854,-0.005449,0.079156
1237,587566002,-0.580243,-0.274915,0.716351,-0.273158,-0.029681,-0.243424,0.291672
1238,587599336,-0.582139,-0.271508,0.716202,-0.272922,0.042697,-0.352414,0.058411
1239,587632670,-0.583585,-0.270314,0.714952,-0.274292,0.179992,-0.502279,0.181229
1240,587666004,-0.584474,-0.271240,0.712726,-0.277264,0.222322,-0.748010,0.194286
1241,587699338,-0.584691,-0.274539,0.709274,-0.282362,0.372771,-0.574893,0.018421
1242,587732672,-0.584458,-0.279085,0.705281,-0.288328,0.483787,-0.265203,0.169981
1243,587766006,-0.583973,-0.284035,0.701152,-0.294481,0.369690,0.020563,-0.026884
1244,587799340,-0.583265,-0.288944,0.697297,-0.300207,0.420537,0.362480,-0.107128
1245,587832674,-0.582826,-0.292674,0.694276,-0.304417,0.354779,0.409052,0.044259
1246,587866008,-0.582911,-0.295131,0.691883,-0.307318,0.167117,0.277108,0.150574
1247,587899342,-0.582837,-0.297782,0.689507,-0.310228,-0.051151,0.045912,0.184808
1248,587932676,-0.583920,-0.301088,0.685224,-0.314460,-0.156647,-0.061383,0.480225
1249,587966010,-0.586336,-0.304400,0.679324,-0.319536,-0.654259,-0.157824,0.130178
1250,587999344,-0.587319,-0.308708,0.673608,-0.325641,-1.051015,0.035744,0.071812
1251,588032678,-0.588109,-0.312417,0.668203,-0.331756,-0.906485,-0.001970,0.434991
1252,588066012,-0.588881,-0.315539,0.663744,-0.336352,-0.418252,0.401943,0.100633
1253,588099346,-0.589329,-0.317490,0.660919,-0.339282,0.068151,0.460127,-0.110306
1254,588132680,-0.589710,-0.317288,0.659946,-0.340698,-0.039939,0.358450,-0.159439
1255,588166014,-0.589837,-0.315006,0.661510,-0.339563,-0.016802,0.364307,-0.047328
1256,588199348,-0.590260,-0.310913,0.664777,-0.336202,0.088819,0.336650,-0.030045
1257,588232682,-0.591607,-0.305466,0.668258,-0.331900,-0.117508,0.398534,0.008415
1258,588266016,-0.595705,-0.299412,0.668601,-0.329387,-0.461396,0.306213,0.170318
1259,588299350,-0.598714,-0.294271,0.669535,-0.326654,-0.141258,0.446325,-0.051244
1260,588332684,-0.601527,-0.288334,0.671764,-0.322175,0.100670,0.495322,0.228474
1261,588366018,-0.604522,-0.280962,0.675175,-0.315891,0.156855,0.102189,-0.121650
1262,588399352,-0.607390,-0.272457,0.679314,-0.308887,0.044327,0.128106,0.080527
1263,588432686,-0.610480,-0.262844,0.683725,-0.301299,0.191990,-0.133148,0.168155
1264,588466020,-0.612835,-0.253102,0.688831,-0.293119,0.083687,0.049407,0.026025
1265,588499354,-0.614668,-0.243533,0.694141,-0.284740,-0.092655,0.281116,0.072140
1266,588532688,-0.617182,-0.233647,0.698628,-0.276493,-0.232266,0.227522,0.366081
1267,588566022,-0.621135,-0.222828,0.701931,-0.268077,-0.348326,0.025083,0.355352
1268,588599356,-0.625751,-0.211332,0.704572,-0.259590,-0.150269,0.056798,0.232699
1269,588632690,-0.631184,-0.199127,0.706518,-0.250641,0.119026,0.085729,0.392573
1270,588666024,-0.636440,-0.185919,0.708802,-0.240859,0.148926,0.000045,0.418779
1271,588699358,-0.642426,-0.171866,0.710303,-0.230767,0.043582,-0.033008,0.156932
1272,588732692,-0.648486,-0.157845,0.711288,-0.220578,0.148735,-0.347818,0.253545
1273,588766026,-0.653656,-0.145647,0.711795,-0.211904,0.390415,-0.560097,0.147317
1274,588799360,-0.657670,-0.135071,0.712530,-0.203866,0.641234,-0.444768,0.130708
1275,588832694,-0.660522,-0.125352,0.713857,-0.196063,0.455141,-0.539810,-0.058973
1276,588866028,-0.661407,-0.117758,0.716022,-0.189789,0.476711,-0.468533,0.109644
1277,588899362,-0.661924,-0.111002,0.718065,-0.184261,0.331798,-0.468451,0.110374
1278,588932696,-0.662190,-0.104535,0.720155,-0.178850,0.274071,-0.205905,0.039560
1279,588966030,-0.662559,-0.098887,0.721756,-0.174182,0.280605,-0.228264,0.041809
1280,588999364,-0.662508,-0.094584,0.723317,-0.170249,0.162776,-0.311916,-0.239475
1281,589032698,-0.662771,-0.092111,0.724021,-0.167566,-0.106610,-0.705840,0.117897
1282,589066032,-0.662965,-0.091405,0.724221,-0.166314,-0.076688,-0.931006,0.419788
1283,589099366,-0.663477,-0.092957,0.723306,-0.167388,0.084980,-1.003860,0.386526
1284,589132700,-0.663068,-0.097218,0.722400,-0.170474,0.415806,-0.961851,0.120131
1285,589166034,-0.662174,-0.104375,0.721012,-0.175521,0.369800,-0.735125,-0.205072
1286,589199368,-0.660419,-0.114347,0.719425,-0.182300,0.256802,-0.489557,-0.024233
1287,589232702,-0.658042,-0.125413,0.717880,-0.189565,0.056617,-0.749337,0.093936
1288,589266036,-0.655781,-0.136452,0.715872,-0.197212,-0.412394,-1.109164,0.477402
1289,589299370,-0.653432,-0.148842,0.712736,-0.207154,-0.734203,-1.011013,1.029788
1290,589332704,-0.651511,-0.162813,0.707624,-0.219834,-0.548770,-0.326917,1.199589
1291,589366038,-0.649252,-0.180845,0.699832,-0.236718,0.308156,-0.225190,-0.068156
1292,589399372,-0.647324,-0.199579,0.690433,-0.253922,0.348822,0.246993,0.381250
1293,589432706,-0.647185,-0.215967,0.680506,-0.267313,0.216443,0.512308,0.173837
1294,589466040,-0.645809,-0.231966,0.671754,-0.279110,0.888857,0.634562,-1.078185
1295,589499374,-0.642369,-0.245943,0.665998,-0.288713,1.208570,1.133782,-0.940577
1296,589532708,-0.638957,-0.256563,0.662389,-0.295271,0.895553,0.926398,-0.426773
1297,589566042,-0.636794,-0.264522,0.659995,-0.298265,0.456613,0.642607,-0.717421
1298,589599376,-0.635217,-0.271903,0.657907,-0.299601,-0.530220,0.770387,-0.235444
1299,589632710,-0.631667,-0.282895,0.654709,-0.303904,-0.486035,-0.506210,0.536370
1300,589666044,-0.626855,-0.294946,0.651803,-0.308620,-1.725234,-0.126399,1.012861
1301,589699378,-0.623511,-0.305231,0.648429,-0.312477,-1.459852,-0.356190,0.054771
1302,589732712,-0.618564,-0.315015,0.646676,-0.316208,-1.167217,-0.663752,0.196718
1303,589766046,-0.613362,-0.325317,0.644978,-0.319364,-0.322514,0.798342,0.038215
1304,589799380,-0.610280,-0.332726,0.643753,-0.320105,-0.620125,-0.120863,0.158206
1305,589832714,-0.608837,-0.339228,0.641241,-0.321071,-0.778894,0.097419,0.352625
1306,589866048,-0.605479,-0.347313,0.639332,-0.322579,0.021205,0.274752,0.039997
1307,589899382,-0.603656,-0.352881,0.638362,-0.321872,-0.208333,-0.484222,-0.015716
1308,589932716,-0.602461,-0.357879,0.637113,-0.321068,-0.357167,0.630663,0.060974
1309,589966050,-0.600588,-0.362907,0.636792,-0.319567,0.238350,0.429064,0.076965
1310,589999384,-0.599681,-0.365507,0.637584,-0.316714,0.386292,0.602036,-0.080028
1311,590032718,-0.598978,-0.366867,0.639152,-0.313294,0.269754,0.088355,0.068040
1312,590066052,-0.598036,-0.367366,0.642032,-0.308583,0.804372,0.393256,-0.061882
1313,590099386,-0.595650,-0.366424,0.648068,-0.301621,1.771451,0.054195,-0.243065
1314,590132720,-0.592362,-0.363546,0.656537,-0.293146,1.519166,-0.112922,-0.156020
1315,590166054,-0.587527,-0.360242,0.666250,-0.284927,0.935619,-0.177888,-0.181777
1316,590199388,-0.582229,-0.355591,0.677514,-0.274906,0.350729,0.566210,-0.199368
1317,590232722,-0.578024,-0.346711,0.691215,-0.260646,-1.016413,0.057878,-0.253164
1318,590266056,-0.575211,-0.333760,0.705570,-0.244830,-1.870643,0.294609,0.938351
1319,590299390,-0.577710,-0.322382,0.712695,-0.233284,-1.844473,0.856578,1.439407
1320,590332724,-0.580448,-0.316904,0.714735,-0.227685,-0.899568,0.743730,0.361368
1321,590366058,-0.580067,-0.314874,0.716926,-0.224562,1.069748,0.749354,-0.067385
1322,590399392,-0.580396,-0.311660,0.718936,-0.221750,0.968236,0.347071,0.188181
1323,590432726,-0.583035,-0.305153,0.720972,-0.217222,0.067961,0.366512,0.172944
1324,590466060,-0.585922,-0.297706,0.723540,-0.211162,0.003445,0.459178,0.401113
1325,590499394,-0.588185,-0.292091,0.725594,-0.205592,0.050596,-0.333130,0.076289
1326,590532728,-0.588956,-0.289170,0.726585,-0.204009,-0.129787,-0.940994,-0.075306
1327,590566062,-0.588547,-0.287732,0.727391,-0.204351,-0.275495,-0.555197,-0.096722
1328,590599396,-0.587777,-0.287348,0.728120,-0.204510,-0.117873,0.234907,0.277360
1329,590632730,-0.586811,-0.287794,0.728422,-0.205581,-0.033165,0.341975,0.206408
1330,590666064,-0.585917,-0.288168,0.728554,-0.207131,-0.204101,0.267204,0.190883
1331,590699398,-0.585038,-0.289146,0.728331,-0.209029,-0.072182,-0.017009,0.138833
1332,590732732,-0.583599,-0.291865,0.727311,-0.212791,0.255921,-0.308768,0.075808
1333,590766066,-0.582010,-0.295186,0.726124,-0.216580,0.382638,-0.364863,0.113376
1334,590799400,-0.580231,-0.299277,0.724480,-0.221198,0.053422,-0.293642,0.124841
1335,590832734,-0.578574,-0.303601,0.722423,-0.226315,0.006467,-0.096323,0.242694
1336,590866068,-0.577446,-0.307428,0.720250,-0.230909,0.111340,-0.043104,0.155066
1337,590899402,-0.576331,-0.311494,0.717934,-0.235414,0.309872,-0.125440,0.085413
1338,590932736,-0.574979,-0.315785,0.715525,-0.240285,0.299008,-0.132849,0.082349
1339,590966070,-0.573765,-0.320368,0.712629,-0.245667,-0.007985,-0.208520,0.156701
1340,590999404,-0.572665,-0.325090,0.709524,-0.250960,0.166614,-0.005423,0.079927
1341,591032738,-0.571404,-0.330081,0.706214,-0.256595,0.225308,-0.169365,0.213719
1342,591066072,-0.570517,-0.334364,0.703094,-0.261541,0.027810,-0.118899,0.098120
1343,591099406,-0.569856,-0.338213,0.700123,-0.265966,-0.134851,-0.082653,0.173127
1344,591132740,-0.569397,-0.341748,0.697301,-0.269816,-0.088965,0.125494,0.067863
1345,591166074,-0.568756,-0.344876,0.694737,-0.273774,-0.122255,0.137458,0.043146
1346,591199408,-0.568360,-0.346792,0.692892,-0.276834,-0.225001,0.190613,0.116867
1347,591232742,-0.568114,-0.347767,0.691763,-0.278931,-0.027946,0.244777,0.105832
1348,591266076,-0.568211,-0.347366,0.691529,-0.279812,0.198786,0.229882,0.077416
1349,591299410,-0.568890,-0.345397,0.692206,-0.279196,0.153454,0.241430,0.087634
1350,591332744,-0.569842,-0.342488,0.693549,-0.277499,-0.004310,0.047599,0.132530
1351,591366078,-0.570626,-0.339675,0.694880,-0.276013,-0.064838,-0.233293,0.046531
1352,591399412,-0.570989,-0.337950,0.695657,-0.275421,-0.191255,-0.449828,-0.005527
1353,591432746,-0.571069,-0.337283,0.695883,-0.275502,-0.113141,-0.139878,0.139042
1354,591466080,-0.570913,-0.337285,0.695725,-0.276221,-0.033688,-0.089086,0.132498
1355,591499414,-0.570610,-0.337220,0.695753,-0.276856,-0.078720,-0.021652,0.067337
1356,591532748,-0.570310,-0.337053,0.695976,-0.277115,-0.166295,-0.049557,0.178611
1357,591566082,-0.569977,-0.337171,0.695980,-0.277649,-0.348349,-0.133686,0.130034
1358,591599416,-0.569553,-0.337282,0.696102,-0.278076,-0.248188,0.118634,0.156735
1359,591632750,-0.569335,-0.337008,0.696256,-0.278469,-0.323626,0.038344,0.070107
1360,591666084,-0.568890,-0.337307,0.696236,-0.279065,-0.356028,-0.149667,0.144980
1361,591699418,-0.568158,-0.338406,0.695776,-0.280370,-0.053869,-0.017038,0.145800
1362,591732752,-0.567362,-0.340007,0.694801,-0.282456,-0.149720,-0.161644,0.052091
1363,591766086,-0.566601,-0.341868,0.693437,-0.285077,-0.166545,0.319712,0.244073
1364,591799420,-0.566186,-0.342848,0.692458,-0.287095,0.221414,0.336831,0.113146
1365,591832754,-0.566345,-0.342511,0.692106,-0.288034,0.302682,0.538464,0.022015
1366,591866088,-0.567181,-0.341056,0.692161,-0.287984,0.339366,0.490561,0.257178
1367,591899422,-0.569224,-0.338179,0.692103,-0.287483,0.074095,0.096734,0.120056
1368,591932756,-0.571818,-0.333677,0.692801,-0.285911,0.052051,0.206854,0.059289
1369,591966090,-0.574167,-0.328062,0.694732,-0.283001,0.223488,0.193814,-0.082343
1370,591999424,-0.575596,-0.322808,0.697124,-0.280245,0.191941,0.299081,0.041018
1371,592032758,-0.576705,-0.316915,0.700061,-0.277352,0.081987,0.320835,0.067259
1372,592066092,-0.577411,-0.309669,0.704256,-0.273422,0.192087,0.619114,-0.062241
1373,592099426,-0.578309,-0.300162,0.709965,-0.267292,0.040350,0.839784,0.107552
1374,592132760,-0.579738,-0.288651,0.716339,-0.259765,-0.248960,0.868822,0.111206
1375,592166094,-0.581863,-0.274944,0.723127,-0.250921,-0.246045,0.857062,0.223185
1376,592199428,-0.585174,-0.258570,0.730153,-0.240051,-0.289686,0.737667,0.255785
1377,592232762,-0.589365,-0.240851,0.736649,-0.228082,-0.331786,0.333720,0.152762
1378,592266096,-0.594243,-0.223931,0.741337,-0.217216,-0.674719,-0.178378,0.353124
1379,592299430,-0.599543,-0.208928,0.743923,-0.208592,-0.620603,-0.332172,0.271093
1380,592332764,-0.604539,-0.196556,0.744782,-0.203058,-0.133924,-0.379508,0.053528
1381,592366098,-0.609082,-0.185490,0.745079,-0.198757,0.091363,-0.030991,0.292514
1382,592399432,-0.614332,-0.174124,0.744889,-0.193522,0.136621,0.288622,0.371966
1383,592432766,-0.620915,-0.161720,0.743890,-0.187013,-0.082996,0.280435,0.185492
1384,592466100,-0.628574,-0.147579,0.742406,-0.178839,-0.474780,0.321376,0.293927
1385,592499434,-0.638945,-0.130141,0.739349,-0.167956,-0.914884,0.173985,0.330479
1386,592532768,-0.651134,-0.111475,0.734319,-0.156229,-0.605622,-0.369366,-0.124841
1387,592566102,-0.657886,-0.100905,0.730715,-0.151967,0.890886,-1.017993,0.272397
1388,592599436,-0.661720,-0.096363,0.727879,-0.151875,1.697131,-1.804775,0.132607
1389,592632770,-0.663992,-0.093111,0.726507,-0.150550,2.004704,-1.931758,-0.391007
1390,592666104,-0.664401,-0.090284,0.726966,-0.148240,1.807640,-1.898289,-0.169547
1391,592699438,-0.663747,-0.087135,0.728724,-0.144372,1.132818,-1.672037,-0.078869
1392,592732772,-0.661919,-0.084568,0.731452,-0.140439,0.230939,-1.173085,-0.007323
1393,592766106,-0.658965,-0.084370,0.734421,-0.138949,-0.522854,-0.797285,0.068590
1394,592799440,-0.655834,-0.087821,0.736249,-0.141917,-1.456447,-0.583531,0.386103
1395,592832774,-0.652635,-0.096349,0.736239,-0.150895,-1.442365,-0.507022,0.542388
1396,592866108,-0.651331,-0.107441,0.733296,-0.162896,-0.933898,-0.005188,0.515845
1397,592899442,-0.653492,-0.118131,0.727039,-0.174477,-0.964300,-0.381175,0.575707
1398,592932776,-0.655611,-0.132879,0.718982,-0.188723,-0.610689,-0.132396,0.391362
1399,592966110,-0.657358,-0.151066,0.709046,-0.205783,0.447351,0.676660,0.390581
1400,592999444,-0.656932,-0.168504,0.701516,-0.218990,2.742249,-0.980208,0.027458
1401,593032778,-0.657807,-0.181150,0.694807,-0.227492,1.775223,1.525736,-0.855447
1402,593066112,-0.657964,-0.191421,0.691292,-0.229328,1.150737,1.065074,-0.687888
1403,593099446,-0.657899,-0.204144,0.687157,-0.230960,0.421279,0.275038,-0.708837
1404,593132780,-0.652211,-0.219047,0.685562,-0.238072,-0.526568,-1.403887,0.405467
1405,593166114,-0.645457,-0.228461,0.685569,-0.247424,-1.591093,-0.754861,0.505330
1406,593199448,-0.641814,-0.232838,0.685928,-0.251791,-0.630008,1.485144,-0.048153
1407,593232782,-0.637898,-0.240571,0.686097,-0.254002,-0.199783,1.021340,0.294465
1408,593266116,-0.634337,-0.250145,0.684255,-0.258596,-0.077456,-0.776019,0.156733
1409,593299450,-0.631441,-0.257676,0.681991,-0.264210,-0.247736,-0.278172,0.020408
1410,593332784,-0.628985,-0.264287,0.680384,-0.267662,-0.188903,0.572830,0.216059
1411,593366118,-0.626402,-0.271509,0.678806,-0.270483,-0.476163,-0.562073,0.639260
1412,593399452,-0.625011,-0.280056,0.674844,-0.274863,-0.963368,-1.919793,0.501796
1413,593432786,-0.622462,-0.294468,0.666586,-0.285527,0.029726,-0.191431,-0.079818
1414,593466120,-0.617441,-0.311676,0.657596,-0.298708,0.878463,0.579966,-0.004869
1415,593499454,-0.614384,-0.324519,0.650243,-0.307308,-0.128144,0.617829,0.169375
1416,593532788,-0.611489,-0.334825,0.644748,-0.313540,0.355243,1.109988,-0.057302
1417,593566122,-0.609776,-0.339942,0.642663,-0.315645,0.704368,1.199266,-0.053582
1418,593599456,-0.610167,-0.340730,0.642599,-0.314167,-0.283000,-0.033055,0.187796
1419,593632790,-0.609315,-0.343420,0.641724,-0.314677,-0.399931,-0.441418,0.085452
1420,593666124,-0.606730,-0.348051,0.640647,-0.316771,-0.010869,0.326000,0.009168
1421,593699458,-0.604616,-0.350990,0.641293,-0.316264,0.026510,0.479533,0.161494
1422,593732792,-0.602958,-0.353283,0.642058,-0.315322,-0.306571,-0.142785,0.227415
1423,593766126,-0.600104,-0.356344,0.642942,-0.315522,-0.067410,-0.311538,-0.131425
1424,593799460,-0.597911,-0.357817,0.644668,-0.314495,-0.179580,0.011189,0.106343
1425,593832794,-0.596121,-0.358902,0.646183,-0.313547,-0.335313,0.163765,-0.017570
1426,593866128,-0.595056,-0.358737,0.647908,-0.312193,-0.290600,0.612514,0.110895
1427,593899462,-0.594807,-0.356788,0.650617,-0.309256,-0.058550,0.538825,0.098429
1428,593932796,-0.595309,-0.353363,0.654151,-0.304733,-0.156437,0.597727,0.065952
1429,593966130,-0.596653,-0.348915,0.657811,-0.299302,-0.356903,0.152691,0.140262
1430,593999464,-0.597904,-0.344705,0.661049,-0.294512,-0.199562,-0.162367,0.106214
1431,594032798,-0.598220,-0.341308,0.664162,-0.290801,-0.085897,0.187449,0.023257
1432,594066132,-0.598669,-0.337376,0.667607,-0.286545,-0.171455,0.353429,0.188612
1433,594099466,-0.599126,-0.333389,0.671006,-0.282284,0.115664,0.040563,0.071253
1434,594132800,-0.599627,-0.328411,0.675092,-0.277269,0.080232,0.172274,0.129956
1435,594166134,-0.600223,-0.323022,0.679345,-0.271871,0.076532,0.036576,0.186247
1436,594199468,-0.599508,-0.319054,0.683447,-0.267821,0.392340,-0.173737,-0.060880
1437,594232802,-0.597712,-0.315669,0.687988,-0.264196,0.504655,0.073039,-0.141080
1438,594266136,-0.595759,-0.311928,0.692885,-0.260224,0.235101,-0.145760,0.254412
1439,594299470,-0.593948,-0.307636,0.698017,-0.255720,0.038551,-0.076365,0.126059
1440,594332804,-0.592816,-0.303258,0.702515,-0.251218,0.002570,-0.247516,0.290796
1441,594366138,-0.592110,-0.299695,0.705919,-0.247592,-0.047996,-0.456765,0.121484
1442,594399472,-0.590745,-0.297311,0.709074,-0.244693,-0.155570,-0.129230,0.102931
1443,594432806,-0.588937,-0.295280,0.712390,-0.241861,-0.158481,-0.120311,0.190596
1444,594466140,-0.587040,-0.292405,0.716400,-0.238095,-0.414395,-0.189564,0.051391
1445,594499474,-0.584930,-0.289521,0.720422,-0.234648,-0.201543,-0.100797,0.068172
1446,594532808,-0.583296,-0.287407,0.723350,-0.232298,0.431664,-0.044640,0.273070
1447,594566142,-0.582678,-0.285099,0.725434,-0.230185,0.354852,0.182207,0.136957
1448,594599476,-0.581925,-0.282324,0.727812,-0.227991,-0.034563,0.572208,0.161126
1449,594632810,-0.581418,-0.278782,0.730418,-0.225294,-0.342076,0.557747,0.150751
1450,594666144,-0.581525,-0.274394,0.733055,-0.221811,-0.406839,0.378078,0.168939
1451,594699478,-0.581890,-0.269711,0.735568,-0.218254,-0.400124,0.097462,0.168165
1452,594732812,-0.582207,-0.265302,0.737790,-0.215290,-0.373445,-0.018455,0.091603
1453,594766146,-0.582155,-0.261621,0.739853,-0.212842,-0.064204,-0.140740,0.035861
1454,594799480,-0.581638,-0.258890,0.741717,-0.211100,0.314825,-0.228073,0.225143
1455,594832814,-0.581462,-0.256653,0.743073,-0.209541,0.283946,-0.237866,0.199997
1456,594866148,-0.581540,-0.255354,0.743659,-0.208832,0.109372,-0.356612,0.165566
1457,594899482,-0.581483,-0.255073,0.743812,-0.208790,0.178678,-0.417670,0.113424
1458,594932816,-0.581168,-0.256008,0.743517,-0.209573,0.155428,-0.305187,0.182697
1459,594966150,-0.580845,-0.257916,0.742638,-0.211238,0.107059,-0.237452,0.161118
1460,594999484,-0.580618,-0.260384,0.741273,-0.213617,-0.008858,-0.179576,0.226884
1461,595032818,-0.580700,-0.262820,0.739664,-0.215973,-0.035591,-0.119201,0.236217
1462,595066152,-0.581151,-0.265064,0.737954,-0.217858,0.057862,0.131948,0.083663
1463,595099486,-0.581398,-0.267651,0.736135,-0.220176,0.211149,-0.065512,0.087472
1464,595132820,-0.581217,-0.270843,0.734136,-0.223403,0.287187,-0.094291,0.092806
1465,595166154,-0.581130,-0.273783,0.732236,-0.226263,0.120033,0.062722,0.139506
1466,595199488,-0.581211,-0.276564,0.730275,-0.228994,0.046121,-0.060456,0.110407
1467,595232822,-0.581118,-0.279607,0.728274,-0.231889,0.254925,-0.164405,0.054569
1468,595266156,-0.580678,-0.282844,0.726413,-0.234884,0.412436,0.062411,0.029582
1469,595299490,-0.580036,-0.286121,0.724585,-0.238125,0.240156,0.060546,0.088468
1470,595332824,-0.579606,-0.288507,0.723170,-0.240581,0.063085,0.035810,0.198590
