sep=,
DeviceTag:,D_Wrist
FirmwareVersion:,2.2.1
AppVersion:,2023.6.0
SyncStatus:,Synced
OutputRate:,30Hz
FilterProfile:,General
Measurement Mode:,Sensor fusion Mode - Complete(Quaternion)
StartTime: ,2026-09-15_14:09:32_351 AEST
© Movella Technologies B. V. 2005-2026

PacketCounter,SampleTimeFine,Quat_W,Quat_X,Quat_Y,Quat_Z,FreeAcc_X,FreeAcc_Y,FreeAcc_Z
1,546365178,-0.761186,-0.630048,0.141784,-0.059467,-0.037213,0.000072,-0.036305
2,546398512,-0.760484,-0.631172,0.139310,-0.062307,-0.130029,0.037199,0.020742
3,546431846,-0.760186,-0.631712,0.137147,-0.065192,-0.197698,0.149974,-0.035849
4,546465180,-0.760111,-0.631884,0.135303,-0.068193,-0.102441,0.064928,-0.086763
5,546498514,-0.759527,-0.632582,0.133689,-0.071329,-0.154324,0.174706,-0.086608
6,546531848,-0.758953,-0.633161,0.132550,-0.074365,-0.287002,0.127571,0.130604
7,546565182,-0.758961,-0.632947,0.131820,-0.077343,-0.419778,0.134488,0.040689
8,546598516,-0.758883,-0.632800,0.131383,-0.080008,-0.559834,0.121592,0.105891
9,546631850,-0.758411,-0.633134,0.131117,-0.082249,-0.929734,0.226616,0.149631
10,546665184,-0.758394,-0.632948,0.131411,-0.083356,-1.505178,0.407978,0.348213
11,546698518,-0.758655,-0.632710,0.131738,-0.082275,-1.857742,0.513467,0.783296
12,546731852,-0.759153,-0.632598,0.131501,-0.078843,-2.203140,0.153869,0.804336
13,546765186,-0.759303,-0.633516,0.129399,-0.073312,-3.013734,0.634828,0.967262
14,546798520,-0.760626,-0.633460,0.126634,-0.064359,-3.374414,0.833699,0.811545
15,546831854,-0.762532,-0.632515,0.125921,-0.051146,-3.355737,0.730464,1.198123
16,546865188,-0.767230,-0.627698,0.127100,-0.034659,-2.324833,0.139471,0.433174
17,546898522,-0.771709,-0.622317,0.129975,-0.017169,-2.101654,0.946048,0.066985
18,546931856,-0.776358,-0.615258,0.136849,0.000924,-1.854688,1.096284,0.141517
19,546965190,-0.781613,-0.605848,0.147275,0.018498,-1.327657,0.476212,-1.069248
20,546998524,-0.784465,-0.597976,0.160871,0.034083,-0.609941,0.733236,-1.207572
21,547031858,-0.786793,-0.589623,0.176439,0.046618,0.055994,1.017286,-0.134871
22,547065192,-0.797293,-0.569402,0.192608,0.054863,0.854718,0.205197,-0.730670
23,547098526,-0.817798,-0.533823,0.207082,0.057959,1.209343,-0.792688,-1.801902
24,547131860,-0.824732,-0.517426,0.222023,0.052863,2.583318,-3.788272,-2.567301
25,547165194,-0.821242,-0.519228,0.232821,0.041957,3.287430,-1.473480,1.190724
26,547198528,-0.827211,-0.507527,0.238719,0.033965,3.910316,-0.290818,-0.164399
27,547231862,-0.832746,-0.496203,0.243627,0.031054,4.617457,-2.621292,-1.215392
28,547265196,-0.830254,-0.499134,0.245739,0.034039,4.213910,0.979748,3.853150
29,547298530,-0.830379,-0.497517,0.246379,0.047397,4.475612,-1.575859,-1.407537
30,547331864,-0.829846,-0.495617,0.247348,0.067386,3.287015,-0.754009,0.643963
31,547365198,-0.833644,-0.485454,0.246572,0.092606,2.615406,-2.599264,0.160660
32,547398532,-0.834054,-0.481629,0.242100,0.117379,2.497261,-3.431865,-0.102906
33,547431866,-0.827451,-0.490870,0.235899,0.136840,1.826364,-1.830802,-0.976079
34,547465200,-0.821335,-0.498747,0.231518,0.151862,0.588766,-2.213832,-1.017454
35,547498534,-0.816940,-0.505184,0.225538,0.162890,1.011705,-2.417815,-0.240570
36,547531868,-0.818182,-0.504849,0.216242,0.170142,0.070720,-0.927668,-0.443745
37,547565202,-0.820984,-0.504198,0.205568,0.171797,0.222994,-2.475505,-0.324822
38,547598536,-0.814727,-0.520161,0.194027,0.167357,1.232119,-0.495328,-1.410971
39,547631870,-0.805388,-0.540257,0.184183,0.159848,1.030008,1.565082,-0.056953
40,547665204,-0.802297,-0.550341,0.173814,0.152433,0.878599,0.719175,0.153372
41,547698538,-0.797666,-0.562588,0.163984,0.142606,-0.077945,2.508936,-0.526462
42,547731872,-0.792553,-0.575023,0.156309,0.129534,-0.471950,1.691195,0.287502
43,547765206,-0.788939,-0.585170,0.148353,0.114651,-1.524790,1.800746,-0.125130
44,547798540,-0.785665,-0.594147,0.141555,0.098410,-2.831258,1.911020,0.111950
45,547831874,-0.785939,-0.597935,0.134565,0.081664,-2.995418,1.761721,1.404151
46,547865208,-0.790499,-0.595557,0.126338,0.066824,-3.709688,2.556617,0.740808
47,547898542,-0.793767,-0.593816,0.119787,0.054496,-3.359719,2.530628,1.862493
48,547931876,-0.798170,-0.589813,0.113025,0.047682,-2.851625,2.426564,2.242062
49,547965210,-0.804866,-0.581607,0.107022,0.049727,-2.589136,2.115304,1.456956
50,547998544,-0.812984,-0.569389,0.105174,0.061596,-2.916185,1.482914,0.042952
51,548031878,-0.821434,-0.553805,0.109863,0.080488,-3.813126,2.930293,-0.415862
52,548065212,-0.829990,-0.535273,0.118643,0.102596,-3.889983,2.600075,-0.166734
53,548098546,-0.837935,-0.515352,0.128320,0.125752,-3.588704,4.512099,-0.408064
54,548131880,-0.843149,-0.496687,0.138750,0.152160,-2.004413,4.253592,0.135064
55,548165214,-0.844499,-0.480292,0.148228,0.184856,-0.536517,3.779582,0.239942
56,548198548,-0.838929,-0.469816,0.159760,0.223494,0.436270,3.854088,-0.040507
57,548231882,-0.836270,-0.448054,0.169221,0.266959,0.590297,3.002977,-0.912368
58,548265216,-0.826489,-0.432043,0.183613,0.310715,0.693836,2.722667,-2.242228
59,548298550,-0.814433,-0.415071,0.200877,0.352230,4.046416,3.978920,0.575458
60,548331884,-0.801220,-0.394206,0.217286,0.394255,4.579566,2.026545,0.052931
61,548365218,-0.782101,-0.376173,0.236130,0.437100,7.633572,3.042541,-0.303194
62,548398552,-0.765411,-0.347216,0.249884,0.480778,4.439172,-1.602755,-2.212583
63,548431886,-0.744327,-0.325515,0.265339,0.519245,2.680331,-2.423363,-1.808620
64,548465220,-0.723644,-0.306774,0.282631,0.549866,1.994767,-2.370237,-2.914421
65,548498554,-0.709620,-0.280099,0.299611,0.572905,1.018560,-2.259810,-3.830941
66,548531888,-0.706009,-0.236401,0.312081,0.590147,-0.918582,-4.252170,-2.429435
67,548565222,-0.719584,-0.156842,0.300302,0.606153,-0.355912,-4.412445,-2.778336
68,548598556,-0.733482,-0.070805,0.290118,0.610594,-6.332209,-4.065612,0.478003
69,548631890,-0.737747,-0.023648,0.316923,0.595595,-4.196058,-9.379721,3.118932
70,548665224,-0.740805,0.011870,0.329442,0.585267,1.855816,-9.234079,5.840527
71,548698558,-0.740623,0.032609,0.324698,0.587357,-2.663123,-7.453321,2.372898
72,548731892,-0.736586,0.019296,0.331353,0.589302,-3.492170,-5.977189,1.834436
73,548765226,-0.732437,-0.016797,0.344694,0.586892,-2.156153,-5.437052,1.133742
74,548798560,-0.730331,-0.061523,0.358862,0.577973,-0.501914,-5.185472,-0.148839
75,548831894,-0.731479,-0.106409,0.370220,0.562633,0.132106,-4.429233,0.258018
76,548865228,-0.736083,-0.150470,0.378111,0.540901,0.979337,-4.305361,0.235485
77,548898562,-0.744538,-0.190476,0.380009,0.514760,2.261100,-3.920996,0.437368
78,548931896,-0.754563,-0.228487,0.378437,0.484992,1.599967,-3.481776,-1.119993
79,548965230,-0.764537,-0.269237,0.380137,0.445526,0.675633,-3.515960,-4.703017
80,548998564,-0.768971,-0.321388,0.394456,0.387041,2.447281,-2.366143,-8.253259
81,549031898,-0.775304,-0.363655,0.405980,0.319125,5.322624,1.140214,-0.622135
82,549065232,-0.789016,-0.383551,0.407808,0.253057,3.016488,0.769311,1.512065
83,549098566,-0.793272,-0.413389,0.408329,0.181932,2.367966,3.242425,3.531446
84,549131900,-0.792114,-0.445820,0.400060,0.117280,0.593471,4.245440,4.104629
85,549165234,-0.788929,-0.477275,0.381845,0.063215,-0.442565,4.555017,3.694337
86,549198568,-0.785388,-0.505616,0.356536,0.020053,-0.536373,4.933109,3.105035
87,549231902,-0.782997,-0.528661,0.327559,-0.011867,-1.781590,4.155151,1.553487
88,549265236,-0.781054,-0.548119,0.297046,-0.035850,-2.225158,3.125432,0.843387
89,549298570,-0.775785,-0.569561,0.266277,-0.053446,-2.178604,2.908846,-0.316387
90,549331904,-0.766735,-0.592742,0.237707,-0.065357,-2.742225,2.480110,-0.006411
91,549365238,-0.758616,-0.611927,0.211949,-0.071609,-2.457102,1.991058,0.532895
92,549398572,-0.750835,-0.628546,0.189566,-0.072410,-2.411757,1.880030,-0.046401
93,549431906,-0.745314,-0.640649,0.171866,-0.067385,-2.373413,1.280492,0.187866
94,549465240,-0.743160,-0.647517,0.158324,-0.058062,-2.265911,0.750211,0.184764
95,549498574,-0.741297,-0.653048,0.148091,-0.045591,-2.201866,0.740903,-0.124103
96,549531908,-0.739223,-0.657829,0.141016,-0.030442,-2.191754,0.538409,0.334778
97,549565242,-0.738247,-0.660471,0.136380,-0.013160,-2.242225,0.586120,0.352196
98,549598576,-0.737383,-0.662031,0.133999,0.005275,-2.099365,0.390199,0.245685
99,549631910,-0.735781,-0.663566,0.133182,0.023912,-2.046134,0.268297,-0.153347
100,549665244,-0.732681,-0.665820,0.134480,0.042183,-1.894907,0.690700,0.087619
101,549698578,-0.731900,-0.664605,0.137820,0.060256,-1.640445,0.850636,0.296790
102,549731912,-0.734031,-0.659374,0.142514,0.078213,-0.711012,0.391453,0.027316
103,549765246,-0.735304,-0.654648,0.148168,0.093878,-0.417219,0.012588,-1.061786
104,549798580,-0.730661,-0.656343,0.155975,0.104989,-0.049700,0.017556,-1.090362
105,549831914,-0.721239,-0.663484,0.165106,0.111113,0.331701,-0.089025,-1.246679
106,549865248,-0.711087,-0.671656,0.174187,0.113561,0.792396,0.362952,-0.420829
107,549898582,-0.705373,-0.675572,0.181721,0.114158,1.288399,0.027548,0.067711
108,549931916,-0.701167,-0.678371,0.187608,0.113946,1.517392,-0.379825,-0.111117
109,549965250,-0.693831,-0.685148,0.190894,0.112840,1.630273,-0.565447,0.168265
110,549998584,-0.692007,-0.686851,0.191426,0.112789,1.827828,0.360500,0.679277
111,550031918,-0.681177,-0.697193,0.190965,0.115994,3.421312,0.782160,0.624403
112,550065252,-0.666083,-0.711971,0.186026,0.121770,1.778237,-1.681988,0.096030
113,550098586,-0.662930,-0.715843,0.178122,0.127936,-0.357978,-0.744144,-0.889184
114,550131920,-0.658877,-0.720275,0.173062,0.130905,-0.749610,-1.534460,-1.901313
115,550165254,-0.647215,-0.731972,0.170203,0.127919,0.454432,-1.587727,-1.447119
116,550198588,-0.636106,-0.743463,0.166283,0.122410,2.373081,-0.202969,0.099110
117,550231922,-0.639971,-0.741325,0.161254,0.121960,3.343352,0.134547,0.573773
118,550265256,-0.649759,-0.732358,0.158010,0.128456,2.944145,-0.350443,-0.670181
119,550298590,-0.659636,-0.721999,0.157178,0.137462,2.195894,-0.249999,-0.632200
120,550331924,-0.668557,-0.711711,0.158212,0.146525,1.739899,-0.181503,-1.452194
121,550365258,-0.671892,-0.705925,0.162589,0.154270,1.931440,0.419235,-1.423905
122,550398592,-0.671583,-0.702516,0.170466,0.162453,1.527778,-1.287188,0.247263
123,550431926,-0.674569,-0.696084,0.176861,0.170721,0.396375,0.236910,0.871577
124,550465260,-0.677688,-0.689850,0.181572,0.178551,-0.891470,0.079945,0.764809
125,550498594,-0.682845,-0.683127,0.182156,0.184070,-1.096581,-0.245286,0.730172
126,550531928,-0.688769,-0.676498,0.180680,0.187899,-2.000462,0.068248,0.030153
127,550565262,-0.695072,-0.669459,0.180272,0.190273,-1.943871,-0.147702,-0.450075
128,550598596,-0.700468,-0.663456,0.180957,0.190859,-1.656886,-0.458379,-0.292160
129,550631930,-0.705871,-0.658351,0.180879,0.188695,-1.789618,-0.269600,-0.155270
130,550665264,-0.708206,-0.657369,0.180004,0.184151,-1.671008,-0.214104,-0.208592
131,550698598,-0.695096,-0.672548,0.180917,0.178303,-0.623249,-0.256403,0.110602
132,550731932,-0.671535,-0.696857,0.182196,0.173891,-0.575850,0.898542,2.424611
133,550765266,-0.662922,-0.705541,0.178061,0.176194,-1.824675,0.137110,2.614133
134,550798600,-0.665585,-0.703689,0.169458,0.181950,-3.562413,0.195288,0.788862
135,550831934,-0.669421,-0.700812,0.160962,0.186633,-4.569188,0.801757,0.514293
136,550865268,-0.678162,-0.692846,0.153950,0.190689,-4.955740,1.343382,0.287961
137,550898602,-0.684170,-0.686680,0.151016,0.193852,-4.573312,1.081018,-0.116274
138,550931936,-0.686809,-0.683257,0.151107,0.196525,-3.707289,2.055785,2.188210
139,550965270,-0.695230,-0.673386,0.150527,0.201376,-2.337300,2.304493,2.191158
140,550998604,-0.706322,-0.659772,0.149636,0.208379,-0.892838,2.458973,2.341807
141,551031938,-0.719975,-0.642545,0.148578,0.216102,0.785549,0.926136,2.425688
142,551065272,-0.728073,-0.630364,0.147578,0.225331,2.172213,1.533065,1.302427
143,551098606,-0.738880,-0.614674,0.142880,0.236263,2.431041,1.081234,2.079609
144,551131940,-0.763891,-0.582814,0.131841,0.243760,-0.643858,-0.092617,-3.740332
145,551165274,-0.784355,-0.556673,0.124253,0.243856,0.061925,-2.344300,-4.740098
146,551198608,-0.779542,-0.564361,0.126915,0.240221,3.862469,-2.797534,-3.988749
147,551231942,-0.763711,-0.585296,0.131683,0.238402,4.181171,-1.772217,-3.468087
148,551265276,-0.748174,-0.603221,0.134962,0.241139,4.122325,0.238866,-3.438799
149,551298610,-0.736701,-0.614103,0.138368,0.246993,3.579709,0.433321,-4.310439
150,551331944,-0.724964,-0.622820,0.146284,0.255198,3.072381,1.239524,-3.424810
151,551365278,-0.707484,-0.633677,0.162402,0.267486,2.793142,1.637266,-1.541180
152,551398612,-0.692282,-0.638106,0.181569,0.283904,2.391184,1.993727,-1.029021
153,551431946,-0.682805,-0.633150,0.199198,0.305321,2.312271,2.937099,0.824159
154,551465280,-0.668033,-0.630687,0.220431,0.327686,1.599058,3.304519,0.600206
155,551498614,-0.654505,-0.623015,0.244184,0.351926,1.040969,1.377893,1.029604
156,551531948,-0.641560,-0.610287,0.268933,0.378982,1.247636,1.802468,1.722180
157,551565282,-0.633830,-0.587275,0.291546,0.410330,0.623683,0.979531,1.647752
158,551598616,-0.630103,-0.556740,0.309365,0.444191,-0.242117,0.580707,1.803464
159,551631950,-0.629791,-0.520848,0.320930,0.478631,-0.999699,-0.145723,0.445671
160,551665284,-0.632850,-0.480791,0.325476,0.512259,-0.635866,-0.207889,0.644054
161,551698618,-0.638485,-0.436843,0.325433,0.543693,-1.829175,-0.402333,-1.154783
162,551731952,-0.649365,-0.387336,0.321496,0.570035,-1.933287,-0.379805,-2.378175
163,551765286,-0.662864,-0.335544,0.317584,0.589207,-3.632373,-1.048186,-1.836588
164,551798620,-0.670890,-0.290322,0.328633,0.598016,-1.983086,-2.290307,-0.138208
165,551831954,-0.678113,-0.246666,0.342482,0.601686,-1.406308,-3.270187,-0.423701
166,551865288,-0.685329,-0.200443,0.352449,0.604921,-2.379142,-3.438120,-0.199250
167,551898622,-0.692858,-0.158237,0.365018,0.601392,-0.383780,-5.213567,0.460120
168,551931956,-0.703442,-0.100595,0.354897,0.607537,0.804106,-5.882915,1.852589
169,551965290,-0.708140,-0.051220,0.337716,0.617952,-2.614836,-5.590495,-0.096545
170,551998624,-0.706939,-0.034641,0.334896,0.622001,-4.056617,-4.883321,1.650581
171,552031958,-0.704218,-0.048326,0.343070,0.619715,-2.289350,-4.375220,1.025109
172,552065292,-0.700167,-0.076386,0.356384,0.613941,-1.063640,-4.300603,0.352684
173,552098626,-0.694813,-0.110272,0.368788,0.607514,0.274694,-5.255422,0.648953
174,552131960,-0.689244,-0.144250,0.376263,0.602132,0.337871,-5.059156,0.073266
175,552165294,-0.683943,-0.184366,0.383815,0.592384,-1.184227,-5.468313,0.231299
176,552198628,-0.680043,-0.230848,0.391014,0.575639,-0.186456,-4.712445,-0.457529
177,552231962,-0.676745,-0.281451,0.400628,0.549819,1.542292,-2.571098,0.312547
178,552265296,-0.679401,-0.324296,0.401793,0.521355,3.898297,-1.806849,3.999604
179,552298630,-0.688272,-0.359367,0.390088,0.494946,2.776605,0.025950,3.870832
180,552331964,-0.698323,-0.398196,0.373526,0.462889,3.587121,3.124929,3.523568
181,552365298,-0.709120,-0.435754,0.349742,0.430057,1.727817,3.987919,-0.872839
182,552398632,-0.714314,-0.474887,0.326765,0.396818,-0.148492,3.496241,-3.808335
183,552431966,-0.718228,-0.508820,0.303299,0.365052,-0.658624,2.922539,-3.186809
184,552465300,-0.727859,-0.530881,0.276673,0.334426,-0.992151,2.121675,-3.662024
185,552498634,-0.741155,-0.544760,0.251715,0.300945,-1.340440,1.487963,-4.095118
186,552531968,-0.749620,-0.560863,0.235562,0.260799,-1.299484,1.849096,-2.738908
187,552565302,-0.749102,-0.582839,0.227010,0.218205,0.388808,1.816614,1.436877
188,552598636,-0.742963,-0.606792,0.220754,0.176292,-0.034948,1.202147,0.116986
189,552631970,-0.726665,-0.637768,0.215657,0.136764,-0.506787,0.639845,-0.045874
190,552665304,-0.710618,-0.664196,0.207941,0.103100,-0.846029,0.896322,1.895287
191,552698638,-0.704058,-0.677317,0.198609,0.078111,-1.522334,0.815443,1.149550
192,552731972,-0.699543,-0.686165,0.190348,0.059889,-1.591731,0.960754,1.253745
193,552765306,-0.695983,-0.692749,0.183084,0.046780,-2.022249,1.255725,1.580927
194,552798640,-0.694505,-0.696330,0.176690,0.039630,-2.379694,0.835934,1.062655
195,552831974,-0.691533,-0.700591,0.171843,0.037766,-2.792412,1.224389,1.032475
196,552865308,-0.690364,-0.702300,0.168578,0.041902,-3.105809,0.774080,0.981241
197,552898642,-0.689943,-0.702584,0.166344,0.051843,-3.544575,0.737355,0.829768
198,552931976,-0.686480,-0.705110,0.164834,0.066321,-3.160507,1.231987,1.313382
199,552965310,-0.685776,-0.704221,0.162897,0.085153,-2.823552,1.052202,1.727883
200,552998644,-0.687427,-0.700282,0.159915,0.107143,-2.325342,0.983999,0.921558
201,553031978,-0.688730,-0.695947,0.156494,0.129695,-1.624663,1.355941,0.209015
202,553065312,-0.692467,-0.688235,0.154883,0.151112,-1.020163,1.815751,-0.971943
203,553098646,-0.693119,-0.682406,0.159122,0.169088,-0.541504,1.575740,-1.736010
204,553131980,-0.688691,-0.681500,0.167835,0.181925,0.153618,-0.326233,-1.248273
205,553165314,-0.686967,-0.679911,0.175301,0.187271,0.647138,-1.225401,0.356289
206,553198648,-0.693455,-0.672753,0.178270,0.186406,2.101677,-0.540894,-0.380377
207,553231982,-0.696667,-0.671097,0.179401,0.179169,2.192123,-1.229445,-2.265060
208,553265316,-0.681349,-0.689056,0.180962,0.167989,3.041039,-1.611376,-2.285720
209,553298650,-0.655088,-0.716052,0.181953,0.158194,2.730611,0.000242,0.542870
210,553331984,-0.642578,-0.728356,0.182345,0.152786,2.073229,0.594793,0.021413
211,553365318,-0.643603,-0.727408,0.183209,0.151954,2.539618,-0.168369,0.286145
212,553398652,-0.648270,-0.722489,0.184606,0.153880,3.757410,0.679592,0.250938
213,553431986,-0.652726,-0.716831,0.185830,0.159912,4.083936,1.285646,0.392233
214,553465320,-0.658391,-0.709469,0.185157,0.169981,1.868238,-0.472976,0.031034
215,553498654,-0.664962,-0.701411,0.182672,0.180227,1.012506,-0.629673,-1.041979
216,553531988,-0.666059,-0.699322,0.180521,0.186358,0.484926,-0.232349,-2.792153
217,553565322,-0.659889,-0.705221,0.181166,0.185450,-0.866017,-0.228050,-1.580972
218,553598656,-0.658864,-0.707042,0.181957,0.181341,-0.726831,0.734538,0.091843
219,553631990,-0.662920,-0.703929,0.183177,0.177395,-1.117808,0.615265,-0.202061
220,553665324,-0.664825,-0.702288,0.186253,0.173525,-0.970611,0.089025,0.567069
221,553698658,-0.667231,-0.699498,0.190935,0.170444,-1.090008,-0.159929,0.877852
222,553731992,-0.672139,-0.694014,0.196150,0.167633,-1.479754,-0.270106,0.510171
223,553765326,-0.674905,-0.690522,0.202036,0.163911,-1.820580,0.002057,0.611434
224,553798660,-0.677362,-0.687432,0.207550,0.159824,-2.374508,-0.069544,0.966497
225,553831994,-0.679866,-0.684439,0.211934,0.156241,-2.606705,0.068663,1.175366
226,553865328,-0.682410,-0.681508,0.215302,0.153332,-2.241793,0.278087,0.845811
227,553898662,-0.685373,-0.677987,0.218320,0.151450,-1.801293,1.663867,0.717010
228,553931996,-0.690455,-0.672604,0.219023,0.151353,-1.264596,0.951045,1.797777
229,553965330,-0.697671,-0.666319,0.213135,0.154431,-1.217979,1.094726,4.581178
230,553998664,-0.703683,-0.660803,0.204877,0.161854,-1.658608,0.138646,-0.236733
231,554031998,-0.704492,-0.659847,0.197737,0.170869,-2.337272,-0.191025,1.247414
232,554065332,-0.708042,-0.656084,0.189323,0.179972,-2.038989,0.390334,1.755223
233,554098666,-0.713462,-0.650017,0.180093,0.189788,-0.873556,-0.542792,1.751995
234,554132000,-0.718283,-0.643888,0.171024,0.200580,-0.224428,0.231829,1.145087
235,554165334,-0.722827,-0.636972,0.162928,0.212708,0.876596,0.328247,0.978690
236,554198668,-0.727473,-0.629330,0.155132,0.225084,0.330487,-0.024713,-0.886132
237,554232002,-0.728380,-0.625896,0.147862,0.236339,0.557015,-0.342477,-1.430849
238,554265336,-0.720570,-0.632089,0.144748,0.245546,0.629256,1.077135,-2.699608
239,554298670,-0.711739,-0.639152,0.143595,0.253566,1.038194,-0.613712,-2.215102
240,554332004,-0.698626,-0.651879,0.143893,0.257437,1.843759,-0.372714,-3.447580
241,554365338,-0.685305,-0.664133,0.144665,0.261455,3.356322,1.340177,-2.154435
242,554398672,-0.678565,-0.667104,0.147520,0.269745,3.925572,1.749540,-2.718515
243,554432006,-0.670881,-0.666763,0.156659,0.284264,3.240946,3.124187,-2.637641
244,554465340,-0.666036,-0.659288,0.171686,0.303746,2.769688,3.030330,-1.526160
245,554498674,-0.657161,-0.651421,0.191585,0.327243,1.694621,1.777063,-1.561206
246,554532008,-0.646190,-0.643075,0.214722,0.350414,1.878680,1.287256,-1.809558
247,554565342,-0.641346,-0.627019,0.236522,0.373608,1.793064,0.090919,-1.119214
248,554598676,-0.635547,-0.609775,0.258950,0.396488,1.950236,-0.257702,-1.299620
249,554632010,-0.628424,-0.591107,0.283459,0.418723,0.779381,-0.153565,0.314773
250,554665344,-0.624296,-0.567271,0.306449,0.441079,-0.002633,0.105910,0.830357
251,554698678,-0.621645,-0.540160,0.328058,0.462779,-0.874653,0.186700,1.593741
252,554732012,-0.619166,-0.510839,0.347608,0.484612,-0.947594,-0.263330,2.666005
253,554765346,-0.620633,-0.475774,0.359581,0.509075,-1.222062,-0.814199,2.452531
254,554798680,-0.633142,-0.428214,0.355948,0.537650,-1.491386,-0.245224,1.278064
255,554832014,-0.645466,-0.380213,0.347914,0.563711,-2.484092,-0.978466,-0.299275
256,554865348,-0.639944,-0.357004,0.360668,0.577011,-1.616075,-1.347077,-0.677721
257,554898682,-0.638422,-0.330829,0.372188,0.586897,0.150231,-0.144764,-0.486364
258,554932016,-0.651158,-0.278319,0.364201,0.604890,-0.468785,-1.102241,-0.563637
259,554965350,-0.675932,-0.191698,0.330184,0.630356,-0.683850,-2.457715,-0.933727
260,554998684,-0.700843,-0.079514,0.270620,0.655183,-2.192945,-4.177984,0.783602
261,555032018,-0.710019,0.011489,0.213584,0.670914,-2.110223,-3.900172,1.675880
262,555065352,-0.710023,0.053544,0.194772,0.674586,-3.894338,-2.647981,-1.654375
263,555098686,-0.710893,0.071034,0.197421,0.671277,-0.128093,-5.809151,-2.668243
264,555132020,-0.712871,0.071620,0.204680,0.666929,-2.144811,-5.451574,-1.707987
265,555165354,-0.712603,0.047441,0.228303,0.661685,-2.312566,-5.328987,-1.585446
266,555198688,-0.709478,0.007858,0.265112,0.652914,-0.862705,-5.032000,-0.619162
267,555232022,-0.703754,-0.035751,0.302651,0.641761,1.084321,-4.849266,1.024626
268,555265356,-0.697297,-0.071789,0.324653,0.635001,0.764437,-4.900934,0.648116
269,555298690,-0.692858,-0.106379,0.340416,0.626698,-2.260971,-4.652519,-1.766449
270,555332024,-0.690558,-0.153208,0.368113,0.603450,-1.663893,-4.035319,-2.010041
271,555365358,-0.693107,-0.205687,0.399296,0.563792,1.686671,-2.936976,0.113762
272,555398692,-0.703080,-0.247191,0.419394,0.518350,0.930802,-2.182044,1.208633
273,555432026,-0.717972,-0.286926,0.433032,0.463332,0.752665,-1.142853,0.630501
274,555465360,-0.733609,-0.326013,0.441959,0.400260,3.030217,-0.221331,2.337878
275,555498694,-0.747824,-0.363064,0.443163,0.335488,1.693453,1.930608,2.313004
276,555532028,-0.757399,-0.401344,0.438834,0.269624,0.965798,2.036812,1.995710
277,555565362,-0.759180,-0.445617,0.428531,0.203555,1.359291,2.593451,2.898607
278,555598696,-0.759223,-0.484989,0.408580,0.146393,-0.145233,4.178760,2.204428
279,555632030,-0.761195,-0.514608,0.381928,0.099474,-0.546852,3.317750,1.224068
280,555665364,-0.761127,-0.542214,0.351103,0.058472,-0.533117,2.994525,0.530696
281,555698698,-0.757254,-0.570123,0.317697,0.024439,-0.539695,2.995505,-0.080708
282,555732032,-0.749156,-0.598157,0.284549,-0.002874,-0.551139,3.659047,-0.584752
283,555765366,-0.737607,-0.624832,0.254918,-0.023228,-0.855599,3.783567,-0.305409
284,555798700,-0.727287,-0.645679,0.229981,-0.035557,-0.983113,2.402728,0.019590
285,555832034,-0.719242,-0.661200,0.209070,-0.042398,-0.895439,1.736810,-0.684449
286,555865368,-0.712361,-0.673339,0.192524,-0.045740,-0.923958,1.183993,-0.341013
287,555898702,-0.705553,-0.683899,0.179774,-0.046496,-1.232998,0.626928,-0.110173
288,555932036,-0.697924,-0.694068,0.170750,-0.044926,-1.179607,0.581550,0.208526
289,555965370,-0.690099,-0.703606,0.164430,-0.040832,-1.525048,0.016941,0.544530
290,555998704,-0.682864,-0.712191,0.159171,-0.033896,-1.892026,-0.332726,0.942580
291,556032038,-0.679318,-0.717148,0.153768,-0.024157,-2.184508,-0.492870,1.308620
292,556065372,-0.679543,-0.718663,0.147071,-0.010857,-2.892100,-0.561390,1.349570
293,556098706,-0.681517,-0.718527,0.138654,0.005517,-3.342016,-1.301556,0.472138
294,556132040,-0.678119,-0.723081,0.129710,0.022064,-3.784921,-0.550316,-0.052678
295,556165374,-0.671844,-0.729531,0.122109,0.038748,-3.863531,0.021545,0.915952
296,556198708,-0.673852,-0.727613,0.115607,0.056038,-2.953620,0.419817,1.528213
297,556232042,-0.688338,-0.713289,0.109672,0.073376,-2.155494,1.526365,0.811997
298,556265376,-0.701237,-0.699301,0.106831,0.088512,-1.039297,1.423012,-1.756099
299,556298710,-0.700852,-0.698067,0.109127,0.097991,0.085906,0.347853,-2.178281
300,556332044,-0.694270,-0.703273,0.114505,0.101427,1.314927,0.271124,-2.118020
301,556365378,-0.677692,-0.718056,0.123129,0.099861,3.289029,0.478324,-2.649474
302,556398712,-0.651979,-0.740534,0.132117,0.095290,4.136203,-0.322040,-0.604747
303,556432046,-0.635198,-0.754559,0.137365,0.091090,4.144937,-0.122217,-1.168649
304,556465380,-0.624391,-0.763526,0.138526,0.089321,4.126494,-0.909030,-1.150117
305,556498714,-0.618813,-0.767948,0.137590,0.091641,4.429239,-0.103023,0.612373
306,556532048,-0.620330,-0.765682,0.137678,0.099848,3.399626,0.296511,0.943294
307,556565382,-0.625469,-0.759185,0.140600,0.112518,1.830480,0.840339,-0.897144
308,556598716,-0.620700,-0.759857,0.146094,0.126522,1.066579,0.972518,0.135686
309,556632050,-0.617356,-0.758784,0.151624,0.141882,-0.226479,0.557069,1.087528
310,556665384,-0.621174,-0.751652,0.153865,0.159658,-0.370119,-1.169181,0.919365
311,556698718,-0.625061,-0.745265,0.150818,0.176453,-1.334345,1.199525,2.565288
312,556732052,-0.637766,-0.731083,0.143753,0.195218,-1.564570,0.544398,2.292608
313,556765386,-0.647243,-0.718843,0.133923,0.215425,-2.234183,0.076997,1.432895
314,556798720,-0.657579,-0.704570,0.122416,0.237039,-2.813584,-0.365275,2.346307
315,556832054,-0.670912,-0.686163,0.110169,0.258695,-3.511029,-0.751494,0.170762
316,556865388,-0.673263,-0.677547,0.102263,0.277834,-3.321259,-0.687501,0.292016
317,556898722,-0.671225,-0.673987,0.097761,0.292651,-3.572870,-0.865518,-0.761291
318,556932056,-0.663817,-0.677387,0.097835,0.301538,-3.921413,-0.209904,-1.327637
319,556965390,-0.645646,-0.692460,0.104786,0.304404,-2.360692,-0.169757,-0.938050
320,556998724,-0.624041,-0.711064,0.115315,0.302764,-0.884957,1.250781,-1.191740
321,557032058,-0.603352,-0.728205,0.129029,0.298392,0.027679,1.365905,-0.927115
322,557065392,-0.582704,-0.744224,0.145297,0.292368,0.940979,1.051242,-1.452342
323,557098726,-0.563482,-0.758019,0.160858,0.286396,1.819557,1.257344,0.059424
324,557132060,-0.556938,-0.762092,0.169799,0.283208,1.857985,0.981175,-0.104653
325,557165394,-0.558113,-0.761153,0.171543,0.282369,1.569444,0.093129,-0.999181
326,557198728,-0.559186,-0.761488,0.168505,0.281169,1.071656,-0.811578,0.514782
327,557232062,-0.557616,-0.764872,0.163285,0.278165,0.515985,-0.847934,-1.562816
328,557265396,-0.555573,-0.766650,0.162282,0.277945,0.802479,1.055044,-0.379143
329,557298730,-0.563495,-0.757871,0.167799,0.282755,0.704774,1.215418,0.077408
330,557332064,-0.581395,-0.738885,0.177904,0.290483,-0.739845,0.701322,-1.663710
331,557365398,-0.591727,-0.724967,0.192611,0.295272,-0.459453,0.280770,-1.583624
332,557398732,-0.596622,-0.715556,0.208152,0.297820,1.174349,-0.814573,-0.392011
333,557432066,-0.603348,-0.703480,0.219569,0.304760,2.249181,-0.081563,0.462493
334,557465400,-0.608007,-0.690584,0.228639,0.318038,3.193156,1.677521,-0.227345
335,557498734,-0.610790,-0.675559,0.237990,0.337519,2.468665,2.051705,0.385389
336,557532068,-0.617310,-0.653895,0.245794,0.361855,1.571871,2.765227,-0.438705
337,557565402,-0.621985,-0.629828,0.255666,0.388701,0.407976,1.824570,-0.829753
338,557598736,-0.622177,-0.607049,0.268142,0.415320,0.437023,1.963811,-0.261449
339,557632070,-0.622752,-0.581016,0.280764,0.442463,0.631667,1.216261,0.444563
340,557665404,-0.623745,-0.552843,0.291096,0.469652,0.222859,0.882740,0.007585
341,557698738,-0.623616,-0.525006,0.298789,0.496185,0.034115,0.418971,-1.432560
342,557732072,-0.624766,-0.495445,0.302326,0.522306,1.954416,0.624663,1.270584
343,557765406,-0.638176,-0.449780,0.291664,0.552597,1.366454,0.040446,-0.870413
344,557798740,-0.653874,-0.396722,0.277676,0.581342,-1.302241,-0.435865,-2.409552
345,557832074,-0.655703,-0.356801,0.282942,0.602240,0.087779,-1.934245,-1.166899
346,557865408,-0.659134,-0.315709,0.290403,0.617688,-0.767170,-2.627042,-0.351405
347,557898742,-0.662910,-0.272785,0.295986,0.631294,-1.587787,-1.920779,-2.269098
348,557932076,-0.671839,-0.219258,0.291905,0.644479,1.393572,-3.196526,-2.497591
349,557965410,-0.689693,-0.138634,0.264306,0.659734,-2.398791,-2.519232,-2.204364
350,557998744,-0.694502,-0.071781,0.257020,0.668175,-1.507940,-4.505612,0.786462
351,558032078,-0.690941,-0.027455,0.262328,0.673078,-3.228260,-6.532978,3.473680
352,558065412,-0.684872,-0.008525,0.269792,0.676825,-3.957990,-6.104020,1.154140
353,558098746,-0.676522,-0.016714,0.288175,0.677492,-5.095025,-5.113790,1.321623
354,558132080,-0.667193,-0.044624,0.313573,0.674193,-3.376181,-4.248322,2.261821
355,558165414,-0.659571,-0.077730,0.333385,0.669164,-2.468907,-4.623368,1.264646
356,558198748,-0.652729,-0.113369,0.350639,0.661927,-1.978113,-4.336536,-0.280119
357,558232082,-0.647016,-0.150919,0.367466,0.650818,-1.331381,-3.897223,0.601969
358,558265416,-0.646507,-0.188100,0.377198,0.635902,-1.876737,-4.534493,-0.172113
359,558298750,-0.651928,-0.227364,0.383758,0.613211,-0.572033,-3.286293,-1.190371
360,558332084,-0.660000,-0.269110,0.393370,0.580726,1.119797,-2.971518,-0.841308
361,558365418,-0.674820,-0.300211,0.395865,0.545697,3.769939,-2.008998,0.861266
362,558398752,-0.696845,-0.316966,0.389798,0.511859,3.618124,0.215688,-0.031793
363,558432086,-0.721330,-0.327466,0.382129,0.475846,2.459971,-0.348401,0.862980
364,558465420,-0.744786,-0.341262,0.373624,0.435019,1.053106,-0.889443,-0.092671
365,558498754,-0.761404,-0.368359,0.368294,0.385924,1.117447,-0.006038,-0.462245
366,558532088,-0.770485,-0.406050,0.363626,0.330538,2.531585,1.407879,1.763471
367,558565422,-0.774100,-0.446721,0.354705,0.274583,1.599194,1.544115,0.520135
368,558598756,-0.767656,-0.494733,0.343899,0.218357,0.144341,2.729330,-0.478296
369,558632090,-0.751876,-0.547076,0.329153,0.164470,0.112406,3.697511,0.367054
370,558665424,-0.728978,-0.598824,0.310501,0.116586,-0.448015,3.743529,-0.447354
371,558698758,-0.701086,-0.647192,0.289428,0.076516,-1.372724,3.099452,0.962296
372,558732092,-0.680489,-0.681023,0.266297,0.047241,-2.812108,2.570947,1.860108
373,558765426,-0.667415,-0.702985,0.243995,0.028960,-2.945122,1.937585,1.094752
374,558798760,-0.656804,-0.719810,0.223818,0.019725,-3.312541,1.478743,1.486554
375,558832094,-0.648350,-0.732576,0.206432,0.019031,-3.330545,0.803776,1.929110
376,558865428,-0.645261,-0.739287,0.190829,0.026082,-3.212263,0.112669,1.345243
377,558898762,-0.646512,-0.741063,0.177004,0.038985,-3.780227,-0.022928,1.282683
378,558932096,-0.650707,-0.739226,0.164044,0.056723,-3.701311,-0.294333,0.877962
379,558965430,-0.655229,-0.735846,0.152319,0.077503,-3.859734,0.320488,0.342968
380,558998764,-0.658646,-0.732092,0.142429,0.099712,-3.711627,0.645263,-0.558600
381,559032098,-0.662904,-0.726398,0.135116,0.121040,-2.941494,1.297634,0.074525
382,559065432,-0.673336,-0.714069,0.130839,0.140029,-2.528815,1.430740,-0.845759
383,559098766,-0.681921,-0.702987,0.130167,0.154438,-1.914192,1.027780,-2.892446
384,559132100,-0.675128,-0.706959,0.134960,0.161863,-0.257294,0.140625,-1.759508
385,559165434,-0.660206,-0.720232,0.140872,0.159846,1.884722,0.058083,-1.271981
386,559198768,-0.659467,-0.721974,0.141676,0.154233,3.993537,1.651028,0.605233
387,559232102,-0.670969,-0.712426,0.138967,0.151460,5.072541,1.036752,0.593508
388,559265436,-0.672722,-0.711620,0.134167,0.151801,4.605715,-0.664398,0.791353
389,559298770,-0.675546,-0.709545,0.127801,0.154445,2.336541,0.707581,-0.364223
390,559332104,-0.677856,-0.707210,0.123199,0.158711,1.397254,-0.679892,-1.381762
391,559365438,-0.673063,-0.711583,0.120550,0.161574,1.979104,-0.418423,-2.375288
392,559398772,-0.667719,-0.716249,0.119748,0.163711,3.134750,0.612358,-0.527936
393,559432106,-0.666692,-0.716020,0.121523,0.167544,2.887480,0.117426,-0.725266
394,559465440,-0.665393,-0.715078,0.125635,0.173595,1.256082,0.994504,-1.018973
395,559498774,-0.664987,-0.712449,0.131482,0.181451,0.323280,-0.306828,-0.057322
396,559532108,-0.667335,-0.707607,0.135094,0.188969,-0.710020,0.114036,0.263957
397,559565442,-0.668707,-0.704028,0.138038,0.195250,-1.921572,0.637172,0.536668
398,559598776,-0.670864,-0.699694,0.141803,0.200659,-2.983706,0.277533,0.764835
399,559632110,-0.673889,-0.694611,0.145727,0.205320,-3.692258,0.019170,0.936700
400,559665444,-0.673397,-0.693306,0.149647,0.208500,-3.456033,-0.255275,1.173068
401,559698778,-0.672236,-0.693291,0.151490,0.210948,-3.023173,-0.150212,2.168716
402,559732112,-0.671084,-0.693747,0.150272,0.213968,-1.801181,-0.153830,2.296854
403,559765446,-0.670863,-0.694053,0.145608,0.216872,-1.822497,0.120338,4.538569
404,559798780,-0.677421,-0.687027,0.135212,0.225422,-1.372706,-0.146382,2.141151
405,559832114,-0.689141,-0.673590,0.123211,0.237030,-1.786451,0.099502,0.470632
406,559865448,-0.695249,-0.664393,0.116181,0.248426,-1.342499,-0.250014,-0.958596
407,559898782,-0.701671,-0.655213,0.112157,0.256470,-1.711746,0.199839,-1.100714
408,559932116,-0.700440,-0.655039,0.110870,0.260801,-0.256307,-0.866858,-1.306672
409,559965450,-0.694444,-0.661163,0.109673,0.261888,1.248644,-0.242686,0.176293
410,559998784,-0.694753,-0.660901,0.105783,0.263325,1.484295,-0.259550,-0.173057
411,560032118,-0.697895,-0.657948,0.101689,0.264025,0.733267,-0.471269,-2.912955
412,560065452,-0.693252,-0.663114,0.102396,0.263058,1.170443,-0.368882,-4.067299
413,560098786,-0.677162,-0.678827,0.108629,0.262390,2.428269,1.264383,-3.464221
414,560132120,-0.667143,-0.686328,0.114913,0.265843,4.738789,1.325573,-1.237736
415,560165454,-0.662126,-0.686402,0.120341,0.275612,2.165443,0.243807,-2.062702
416,560198788,-0.644853,-0.696362,0.132342,0.285890,0.559077,2.294035,-2.112792
417,560232122,-0.627015,-0.704212,0.149501,0.297640,1.551432,0.919633,1.707330
418,560265456,-0.615220,-0.703303,0.165353,0.315484,0.526756,1.550998,-0.500371
419,560298790,-0.596017,-0.707325,0.185812,0.331559,0.894884,2.686239,1.308418
420,560332124,-0.585563,-0.701551,0.204053,0.351151,1.145990,0.677277,1.307712
421,560365458,-0.579765,-0.688662,0.220483,0.375509,2.159189,1.510999,0.936404
422,560398792,-0.578201,-0.667408,0.236737,0.405226,2.134720,0.351021,0.920753
423,560432126,-0.580897,-0.638033,0.250715,0.438882,1.654708,-0.070405,-0.341709
424,560465460,-0.581021,-0.606748,0.265238,0.473205,0.549262,-0.556129,-1.097142
425,560498794,-0.581743,-0.572918,0.276913,0.506617,0.028896,-1.229457,-0.509277
426,560532128,-0.589938,-0.531986,0.281006,0.538519,-0.712082,-1.759031,-1.669486
427,560565462,-0.600998,-0.488705,0.281080,0.566538,-1.361663,-1.348332,-2.227873
428,560598796,-0.614562,-0.443357,0.279768,0.589475,-0.949966,-0.847953,-2.979719
429,560632130,-0.626097,-0.399250,0.281904,0.607565,-2.381989,-1.300656,-2.888824
430,560665464,-0.639680,-0.350808,0.287314,0.620642,-1.094721,0.126837,-3.265646
431,560698798,-0.656776,-0.287731,0.292645,0.632628,-1.759885,-1.013195,-3.338699
432,560732132,-0.675772,-0.198554,0.291941,0.647056,-0.404846,-3.459495,1.080696
433,560765466,-0.693712,-0.068017,0.245107,0.673841,2.343101,-5.292124,4.188243
434,560798800,-0.690395,0.038919,0.198080,0.694699,-10.489058,-2.864563,3.775792
435,560832134,-0.682681,0.075289,0.203460,0.697771,-1.575574,-6.965193,-0.014803
436,560865468,-0.680374,0.075481,0.223127,0.693982,-3.943966,-3.957180,1.401872
437,560898802,-0.681962,0.050203,0.251328,0.685014,-2.847084,-2.722490,1.689071
438,560932136,-0.685111,0.016338,0.279731,0.672391,-1.249306,-2.432440,1.776127
439,560965470,-0.688130,-0.021449,0.305266,0.657899,-1.109602,-3.378795,1.369699
440,560998804,-0.691850,-0.061657,0.325968,0.641319,-0.447360,-4.026261,-0.208026
441,561032138,-0.695876,-0.105194,0.344972,0.621037,0.323434,-4.437520,-0.312477
442,561065472,-0.697680,-0.154937,0.366746,0.595598,0.625756,-4.974455,-0.725186
443,561098806,-0.697625,-0.212052,0.388144,0.563649,0.756923,-4.455320,0.188898
444,561132140,-0.700845,-0.266557,0.399347,0.527530,1.391263,-3.726235,0.573680
445,561165474,-0.713522,-0.307438,0.394481,0.490668,2.761450,-2.345389,0.622276
446,561198808,-0.744181,-0.310205,0.367365,0.463694,3.347989,0.405611,2.139179
447,561232142,-0.783605,-0.284727,0.332829,0.440592,-1.382291,-0.481875,-0.187389
448,561265476,-0.814179,-0.276405,0.314506,0.402245,-0.568222,-0.092245,1.464702
449,561298810,-0.838343,-0.281746,0.302626,0.355275,1.152790,2.017490,1.316291
450,561332144,-0.853894,-0.302961,0.295371,0.303047,0.741786,1.876317,0.402125
451,561365478,-0.853475,-0.356222,0.290998,0.244968,1.354018,2.186570,-0.317287
452,561398812,-0.837851,-0.428641,0.281033,0.187871,1.056400,3.522169,-0.135518
453,561432146,-0.814582,-0.499015,0.262447,0.136251,-0.056453,3.465883,-0.409034
454,561465480,-0.790884,-0.556826,0.236503,0.092281,-0.501666,2.810035,-0.176276
455,561498814,-0.767907,-0.603762,0.206935,0.054504,-0.701058,2.240397,-0.825605
456,561532148,-0.744817,-0.642800,0.177741,0.021590,-0.883822,2.315063,-1.112380
457,561565482,-0.723973,-0.672871,0.151930,-0.005189,-1.222169,2.019439,-0.390475
458,561598816,-0.708650,-0.692806,0.131055,-0.025730,-1.674562,1.516897,-0.449713
459,561632150,-0.695704,-0.707602,0.116607,-0.041243,-1.895177,1.320341,-1.082039
460,561665484,-0.683167,-0.720282,0.108439,-0.052153,-1.966889,0.651588,-0.223729
461,561698818,-0.673287,-0.729416,0.105645,-0.058972,-1.844476,0.168328,0.275208
462,561732152,-0.668484,-0.733312,0.106850,-0.062987,-1.651035,-0.266449,-0.013900
463,561765486,-0.668246,-0.732751,0.110121,-0.066324,-1.293412,-0.566005,0.050428
464,561798820,-0.677215,-0.723390,0.114782,-0.070101,-1.689904,-0.382140,0.968737
465,561832154,-0.689687,-0.710372,0.120271,-0.072394,-1.566082,-0.136403,0.027389
466,561865488,-0.692860,-0.706373,0.125267,-0.072757,-1.385158,0.406211,0.263058
467,561898822,-0.689528,-0.709388,0.128723,-0.068932,-1.819761,0.482034,1.597066
468,561932156,-0.687537,-0.711646,0.130985,-0.060806,-2.267982,0.503991,2.018439
469,561965490,-0.689509,-0.710520,0.132004,-0.048128,-2.284568,0.389616,1.601304
470,561998824,-0.692261,-0.708898,0.131340,-0.031476,-2.475405,0.304410,1.157784
471,562032158,-0.693617,-0.708451,0.129830,-0.011816,-2.549056,1.141861,0.742858
472,562065492,-0.694776,-0.707462,0.129097,0.011021,-2.870646,1.587625,1.038289
473,562098826,-0.696424,-0.704816,0.129673,0.037634,-2.630198,1.531461,0.929826
474,562132160,-0.694740,-0.703961,0.131352,0.067265,-1.431893,1.091963,1.676144
475,562165494,-0.693997,-0.700722,0.133744,0.097324,-0.443836,1.264588,1.540260
476,562198828,-0.698633,-0.691280,0.136098,0.124592,0.355857,0.366494,-0.010819
477,562232162,-0.702006,-0.683275,0.137985,0.145897,1.077908,0.188772,-1.047964
478,562265496,-0.699103,-0.682391,0.140752,0.160590,1.387953,-0.477294,-1.927281
479,562298830,-0.686750,-0.691968,0.145853,0.168177,1.889754,-0.502722,-3.150278
480,562332164,-0.668593,-0.707636,0.152676,0.170081,1.936309,-1.099441,-2.439583
481,562365498,-0.649559,-0.724222,0.158808,0.168399,2.395436,-0.623676,-1.036060
482,562398832,-0.640894,-0.731373,0.162495,0.167172,2.153288,-0.742266,-1.011417
483,562432166,-0.634690,-0.736732,0.163774,0.166056,2.678278,-0.396348,-0.444478
484,562465500,-0.633033,-0.738715,0.160892,0.166387,3.130807,-1.811830,-0.151503
485,562498834,-0.630977,-0.740413,0.157018,0.170307,3.375997,-0.743382,0.509576
486,562532168,-0.630195,-0.739239,0.156800,0.178316,1.780086,0.018562,-0.892867
487,562565502,-0.622379,-0.742282,0.161662,0.188494,1.224379,-0.996760,-1.096283
488,562598836,-0.609749,-0.748969,0.167886,0.197654,0.623049,-0.220159,-0.005790
489,562632170,-0.605413,-0.749268,0.171153,0.206839,0.623395,-0.444405,0.487529
490,562665504,-0.604504,-0.747702,0.170922,0.215187,0.295208,-0.677633,-0.322306
491,562698838,-0.603094,-0.747201,0.170160,0.221396,0.002786,-0.042158,-0.443434
492,562732172,-0.602581,-0.745965,0.170817,0.226396,-0.683977,-0.516766,-0.583528
493,562765506,-0.604570,-0.743182,0.171931,0.229386,-0.730075,-0.474872,-0.760407
494,562798840,-0.609507,-0.738568,0.173226,0.230248,-0.559218,-0.621852,-0.651970
495,562832174,-0.616357,-0.732976,0.175301,0.228303,-0.595424,-0.138564,-0.879586
496,562865508,-0.619353,-0.730896,0.179314,0.223701,-0.609179,-0.798313,-0.421195
497,562898842,-0.621481,-0.730019,0.183522,0.217153,-0.198013,-0.410740,-0.152958
498,562932176,-0.626931,-0.726044,0.188399,0.210537,-0.300345,0.530392,-0.177825
499,562965510,-0.632106,-0.721749,0.194997,0.203713,-0.832991,-0.216223,-0.396417
500,562998844,-0.634090,-0.720118,0.202702,0.195639,-0.612748,0.302964,-0.113276
501,563032178,-0.634359,-0.719803,0.210969,0.186993,-1.457697,0.171576,0.305920
502,563065512,-0.633249,-0.721044,0.217590,0.178182,-1.812283,0.083540,1.101097
503,563098846,-0.632125,-0.722564,0.221767,0.170710,-2.169379,0.518060,1.369900
504,563132180,-0.631617,-0.723415,0.223886,0.166157,-2.249205,0.242382,1.721011
505,563165514,-0.632387,-0.723021,0.223761,0.165109,-2.400180,0.406838,1.537338
506,563198848,-0.633370,-0.721998,0.222568,0.167413,-2.560572,0.822710,1.482095
507,563232182,-0.634958,-0.719519,0.221415,0.173490,-3.001099,0.679215,1.928370
508,563265516,-0.638938,-0.714115,0.219399,0.183480,-2.952855,0.884608,1.944581
509,563298850,-0.642789,-0.707944,0.216401,0.197005,-2.667010,1.011949,1.849376
510,563332184,-0.648075,-0.699527,0.211710,0.214109,-2.216320,0.981201,2.221673
511,563365518,-0.654897,-0.688796,0.204755,0.233983,-1.724970,0.689541,1.578851
512,563398852,-0.661080,-0.677889,0.196634,0.254516,-1.283435,0.894908,1.714804
513,563432186,-0.668303,-0.665546,0.187316,0.274471,-1.124640,0.291605,0.970822
514,563465520,-0.675438,-0.653220,0.177389,0.292616,-0.786454,0.519089,0.349790
515,563498854,-0.680896,-0.642732,0.168730,0.307911,-0.520342,0.177615,-0.299645
516,563532188,-0.682449,-0.637227,0.162637,0.318995,0.088800,0.153384,-0.138902
517,563565522,-0.685336,-0.631854,0.156926,0.326269,0.921744,-0.429081,-0.856813
518,563598856,-0.691574,-0.624489,0.151770,0.329706,0.605881,-0.325477,-1.881489
519,563632190,-0.690658,-0.626183,0.151956,0.328327,0.147303,-1.627100,-2.981255
520,563665524,-0.680179,-0.640089,0.156966,0.320946,0.860614,-1.318127,-2.733886
521,563698858,-0.663796,-0.660714,0.164035,0.309719,1.132984,-1.767812,-2.204169
522,563732192,-0.645603,-0.683195,0.168903,0.296507,1.963625,-1.622350,-1.893064
523,563765526,-0.632763,-0.700818,0.167079,0.283817,2.200907,-1.021573,-1.302997
524,563798860,-0.629517,-0.709365,0.160479,0.273420,2.837702,-0.297183,-1.724353
525,563832194,-0.627128,-0.715009,0.153992,0.267883,2.751199,-0.525904,-1.099953
526,563865528,-0.625889,-0.716928,0.149855,0.268000,2.762823,0.892164,-0.778557
527,563898862,-0.628150,-0.712116,0.151557,0.274501,2.431527,3.244370,-0.809698
528,563932196,-0.633023,-0.700517,0.160330,0.287844,2.415231,2.358314,-0.383367
529,563965530,-0.637817,-0.684650,0.172647,0.307633,2.332387,2.125076,-0.581745
530,563998864,-0.641333,-0.666524,0.185893,0.331486,2.076096,2.306972,-0.191896
531,564032198,-0.642198,-0.646946,0.199973,0.359242,1.513639,1.779608,-0.315110
532,564065532,-0.638128,-0.627934,0.216436,0.389421,1.572842,1.059698,-0.084104
533,564098866,-0.630356,-0.609119,0.234397,0.420341,0.559065,0.653136,0.230556
534,564132200,-0.620530,-0.589868,0.252772,0.450674,0.263625,0.967285,-0.212642
535,564165534,-0.609142,-0.570012,0.271466,0.479938,0.525692,0.127928,0.361481
536,564198868,-0.602171,-0.544526,0.286294,0.508841,0.761116,0.362484,-0.415634
537,564232202,-0.600696,-0.514246,0.294493,0.536649,-1.022112,-1.052682,-0.257689
538,564265536,-0.601736,-0.483942,0.298226,0.561050,-1.015626,-0.666416,-1.126349
539,564298870,-0.596174,-0.462833,0.307577,0.579448,-1.466794,-2.271456,-0.524296
540,564332204,-0.592850,-0.443159,0.316576,0.593229,-0.707779,-1.638416,-0.537560
541,564365538,-0.592852,-0.423331,0.324244,0.603478,-1.450369,-1.179859,-1.905478
542,564398872,-0.586780,-0.412593,0.341529,0.607303,-2.234429,-1.732736,-0.990079
543,564432206,-0.588067,-0.394166,0.353664,0.611338,-1.369798,-0.724618,-0.969036
544,564465540,-0.598170,-0.362216,0.360098,0.617515,-2.242716,-0.203179,-1.775508
545,564498874,-0.605006,-0.329106,0.375885,0.619976,-1.991404,-1.172578,-1.073858
546,564532208,-0.615627,-0.285636,0.389946,0.622383,-3.115809,-2.986732,2.253510
547,564565542,-0.625568,-0.243111,0.399001,0.624790,-1.186592,-1.757124,3.384221
548,564598876,-0.634970,-0.200492,0.397794,0.631173,1.168877,-1.739827,3.000331
549,564632210,-0.640153,-0.159367,0.392186,0.641092,0.553042,-3.802710,0.664125
550,564665544,-0.642369,-0.126401,0.384957,0.650535,-1.523929,-3.675720,-1.103689
551,564698878,-0.642864,-0.106607,0.381561,0.655572,-3.866672,-3.868688,-1.493654
552,564732212,-0.643218,-0.105136,0.387186,0.652155,-3.397479,-3.458976,-0.744284
553,564765546,-0.643424,-0.118612,0.402838,0.640047,-2.517706,-4.125817,-1.251014
554,564798880,-0.642139,-0.143222,0.426237,0.620862,0.100718,-5.335355,-0.637269
555,564832214,-0.641456,-0.167103,0.444856,0.602259,-0.286764,-4.836663,0.002438
556,564865548,-0.642998,-0.193411,0.459901,0.581068,-0.910746,-4.710410,-0.089042
557,564898882,-0.645824,-0.225179,0.476617,0.552308,-0.536356,-4.414081,-0.346108
558,564932216,-0.650799,-0.260405,0.492856,0.515505,0.573377,-3.062072,1.132130
559,564965550,-0.661245,-0.291212,0.500897,0.476502,1.371636,-2.788042,1.103793
560,564998884,-0.673474,-0.322232,0.505022,0.433075,1.508194,-2.142507,0.774892
561,565032218,-0.688176,-0.352720,0.503057,0.385925,1.649087,-0.745518,1.123465
562,565065552,-0.703609,-0.384700,0.496000,0.333056,2.480093,-0.182437,1.775511
563,565098886,-0.714574,-0.422577,0.484688,0.275486,2.822081,0.873590,1.886003
564,565132220,-0.721763,-0.463293,0.466055,0.217286,2.082417,1.953074,1.540039
565,565165554,-0.723599,-0.507334,0.439867,0.159797,2.072445,2.798397,1.553720
566,565198888,-0.720003,-0.552197,0.406672,0.106281,1.379188,3.562583,1.186980
567,565232222,-0.715313,-0.591701,0.366804,0.060614,0.354851,3.600745,0.637642
568,565265556,-0.708339,-0.626989,0.323575,0.021033,-0.131354,3.779701,-0.163850
569,565298890,-0.698926,-0.658157,0.279608,-0.012381,-0.823226,3.506691,-0.229302
570,565332224,-0.690692,-0.682328,0.236386,-0.038707,-1.130600,2.842603,-0.275079
571,565365558,-0.682825,-0.701377,0.195562,-0.059810,-1.244294,2.682208,-0.821221
572,565398892,-0.672738,-0.718516,0.159050,-0.076584,-1.523631,2.394449,-1.014132
573,565432226,-0.662468,-0.732608,0.128326,-0.089207,-1.684289,1.672683,-0.592675
574,565465560,-0.654483,-0.742370,0.104032,-0.098583,-1.461744,1.022259,-0.198308
575,565498894,-0.649421,-0.748059,0.086501,-0.105731,-1.087906,0.552359,0.217332
576,565532228,-0.646433,-0.751249,0.074229,-0.110639,-0.623569,0.024938,0.243663
577,565565562,-0.646127,-0.751862,0.065156,-0.113932,-0.606388,-0.143543,-0.159419
578,565598896,-0.648429,-0.750020,0.058778,-0.116433,-0.899251,-0.052516,-0.294765
579,565632230,-0.651023,-0.747862,0.053816,-0.118227,-0.661462,-0.204962,-0.306618
580,565665564,-0.652219,-0.746842,0.048734,-0.120271,-0.681289,-0.134512,-0.513833
581,565698898,-0.651524,-0.747456,0.043231,-0.122310,-0.825847,0.103366,-0.254792
582,565732232,-0.649993,-0.748824,0.038088,-0.123791,-0.833895,0.043703,-0.305430
583,565765566,-0.647780,-0.750803,0.033793,-0.124650,-0.985857,0.063332,-0.062873
584,565798900,-0.646172,-0.752283,0.031377,-0.124701,-1.117463,0.074071,-0.060311
585,565832234,-0.644834,-0.753618,0.031152,-0.123612,-1.220409,-0.019852,0.086091
586,565865568,-0.644306,-0.754370,0.033172,-0.121234,-1.371061,-0.050614,0.119717
587,565898902,-0.644662,-0.754456,0.037066,-0.117624,-1.331601,-0.203407,0.396266
588,565932236,-0.645806,-0.753951,0.041851,-0.112886,-1.543946,-0.318054,0.395385
589,565965570,-0.647348,-0.753251,0.047512,-0.106299,-2.398246,-0.090457,0.848750
590,565998904,-0.649889,-0.751928,0.053948,-0.096647,-2.495191,-0.625218,1.116296
591,566032238,-0.653069,-0.750337,0.059483,-0.083424,-2.973511,-0.161967,1.514215
592,566065572,-0.660147,-0.745449,0.064540,-0.065945,-2.801208,-0.301022,1.919739
593,566098906,-0.669994,-0.737912,0.067591,-0.045034,-2.493610,0.034107,1.450617
594,566132240,-0.682311,-0.727487,0.069116,-0.020975,-2.504664,-0.406314,1.775269
595,566165574,-0.700266,-0.710477,0.069516,0.004502,-2.300089,-0.641957,1.703989
596,566198908,-0.723366,-0.686451,0.068223,0.029585,-1.432518,0.284568,2.707367
597,566232242,-0.746064,-0.660680,0.064547,0.052210,0.240439,0.579918,0.801434
598,566265576,-0.764231,-0.638429,0.058576,0.070221,1.367613,1.078799,-0.806849
599,566298910,-0.779482,-0.618690,0.052287,0.083057,2.036191,1.561359,-2.020031
600,566332244,-0.789703,-0.605049,0.048113,0.089288,2.286206,0.716546,-3.937564
601,566365578,-0.796253,-0.596334,0.047320,0.090171,2.852994,0.388468,-3.165924
602,566398912,-0.792452,-0.601372,0.049536,0.088992,3.351047,-1.097629,-4.586434
603,566432246,-0.779299,-0.618133,0.053413,0.088054,2.831495,0.391840,-1.293482
604,566465580,-0.772798,-0.626077,0.058141,0.086218,1.797892,0.021257,-0.605509
605,566498914,-0.777197,-0.620426,0.061956,0.084850,1.205692,-0.882766,0.067897
606,566532248,-0.780968,-0.615338,0.065776,0.084402,0.543228,-1.587866,0.122689
607,566565582,-0.777142,-0.619848,0.069135,0.084035,0.830700,-1.034715,0.664980
608,566598916,-0.770564,-0.627753,0.070711,0.084608,0.331093,0.626790,0.745318
609,566632250,-0.768219,-0.630352,0.071515,0.085927,0.082670,0.778269,0.851067
610,566665584,-0.768624,-0.629669,0.071703,0.087150,0.074885,-0.010030,-0.131201
611,566698918,-0.767262,-0.631206,0.071578,0.088133,0.164562,-0.175381,-0.660933
612,566732252,-0.763948,-0.635149,0.070847,0.089178,0.862529,-0.312799,-0.406611
613,566765586,-0.760752,-0.638909,0.069617,0.090594,0.843862,-0.233091,-0.015955
614,566798920,-0.758193,-0.641942,0.067679,0.092067,0.873779,-0.358592,-0.083223
615,566832254,-0.756465,-0.644098,0.065163,0.093026,0.297978,-0.427833,-0.010213
616,566865588,-0.754447,-0.646645,0.062233,0.093749,0.471896,-0.004590,0.414405
617,566898922,-0.756132,-0.644731,0.059092,0.095381,0.211495,0.126267,0.251816
618,566932256,-0.760852,-0.639007,0.056525,0.097889,-0.043606,-0.365149,0.265049
619,566965590,-0.763946,-0.635076,0.054192,0.100651,-0.022807,-0.586395,-0.347856
620,566998924,-0.763862,-0.634885,0.052132,0.103545,0.029669,0.087137,0.356316
621,567032258,-0.767655,-0.630068,0.049421,0.106206,0.152136,-0.437923,0.064524
622,567065592,-0.772282,-0.624151,0.046186,0.109020,0.057737,-0.562939,0.485915
623,567098926,-0.775847,-0.619409,0.042778,0.112102,0.307313,-1.712804,-0.649908
624,567132260,-0.775488,-0.619684,0.038814,0.114479,0.069559,-1.029310,-0.230011
625,567165594,-0.775276,-0.619999,0.033919,0.115758,0.229009,-0.242318,0.645178
626,567198928,-0.777260,-0.617650,0.028344,0.116510,-0.446764,0.198481,-0.170426
627,567232262,-0.778726,-0.615885,0.023411,0.117160,-0.538546,0.001000,-0.147059
628,567265596,-0.778275,-0.616501,0.018712,0.117756,-0.584592,0.428126,-0.313620
629,567298930,-0.778196,-0.616599,0.014914,0.118307,-0.936161,0.803673,-0.387267
630,567332264,-0.777646,-0.617172,0.012439,0.119222,-1.047221,0.646114,-0.566716
631,567365598,-0.776368,-0.618522,0.011454,0.120645,-1.149851,0.850303,-0.322203
632,567398932,-0.774944,-0.619947,0.012012,0.122411,-1.323310,0.680338,-0.277483
633,567432266,-0.773433,-0.621374,0.013743,0.124538,-1.308989,0.488275,-0.228236
634,567465600,-0.770308,-0.624584,0.016521,0.127471,-1.512065,0.477920,-0.180232
635,567498934,-0.763238,-0.632000,0.022079,0.132506,-2.687908,0.553739,0.657554
636,567532268,-0.751869,-0.643175,0.032028,0.141405,-2.919623,0.928314,1.926997
637,567565602,-0.744109,-0.648645,0.043283,0.153915,-2.647477,1.101812,2.990680
638,567598936,-0.743311,-0.645067,0.052753,0.169110,-1.877633,1.514216,2.482715
639,567632270,-0.748854,-0.633515,0.059617,0.185268,-1.538057,1.478865,0.881473
640,567665604,-0.756147,-0.619449,0.065936,0.200450,-1.414480,0.875689,-0.711335
641,567698938,-0.762202,-0.607129,0.073344,0.212287,-0.945301,0.448570,-1.947245
642,567732272,-0.767318,-0.596854,0.083053,0.219301,-0.561522,0.631619,-2.418400
643,567765606,-0.768890,-0.591798,0.096616,0.221926,0.142190,0.159786,-2.795775
644,567798940,-0.766688,-0.592481,0.113556,0.219688,0.877053,-0.151843,-2.090962
645,567832274,-0.761979,-0.596870,0.131386,0.214181,1.496830,-1.020796,-1.518371
646,567865608,-0.758119,-0.601001,0.145803,0.206877,2.094481,-1.336989,1.379871
647,567898942,-0.761419,-0.596542,0.154525,0.201256,1.511632,-1.051845,0.066986
648,567932276,-0.760437,-0.596895,0.162516,0.197591,1.748742,-0.647103,1.461335
649,567965610,-0.759266,-0.597359,0.167840,0.196239,0.663111,-1.571869,1.716836
650,567998944,-0.754689,-0.601794,0.171789,0.196924,0.124575,-0.933599,1.637985
651,568032278,-0.750855,-0.605517,0.173674,0.198508,-0.486746,-0.806452,1.653595
652,568065612,-0.749278,-0.607071,0.172811,0.200464,-0.406588,-0.459053,1.376927
653,568098946,-0.747424,-0.609167,0.169882,0.203509,-0.400572,-0.337884,1.059266
654,568132280,-0.745125,-0.612153,0.165365,0.206676,-0.211431,-0.152619,0.454984
655,568165614,-0.741106,-0.617258,0.160814,0.209512,0.187417,-0.003663,-0.343730
656,568198948,-0.735495,-0.623777,0.157027,0.212823,0.122219,-0.080152,-0.416663
657,568232282,-0.727595,-0.632081,0.155115,0.216846,1.108886,-0.202160,-1.194613
658,568265616,-0.719009,-0.640491,0.154933,0.220896,0.684562,0.100743,-1.192375
659,568298950,-0.713014,-0.645708,0.156287,0.224166,0.237732,-0.057613,-0.782968
660,568332284,-0.706659,-0.651201,0.159325,0.226249,-0.220946,-0.441343,-1.781167
661,568365618,-0.700194,-0.657028,0.163492,0.226527,-0.033674,-0.406567,-0.900799
662,568398952,-0.697913,-0.658953,0.166978,0.225431,-0.280986,-0.414640,-0.786606
663,568432286,-0.697369,-0.659693,0.169692,0.222909,-0.000079,-0.692179,-0.762764
664,568465620,-0.698161,-0.659517,0.170909,0.220003,0.402781,-0.271131,-0.478210
665,568498954,-0.700198,-0.658079,0.171680,0.217216,0.648321,-0.056505,-0.306846
666,568532288,-0.702663,-0.655872,0.172516,0.215259,0.648133,-0.803182,0.069616
667,568565622,-0.704514,-0.653983,0.173182,0.214422,0.137778,-1.113705,0.162656
668,568598956,-0.703728,-0.654872,0.174470,0.213243,-0.168829,-0.680018,0.209256
669,568632290,-0.703625,-0.655110,0.175338,0.212137,-0.222715,-0.455508,0.348487
670,568665624,-0.705804,-0.653245,0.174589,0.211264,-0.122404,-0.383387,0.201306
671,568698958,-0.708379,-0.651282,0.172976,0.210030,-0.184990,-0.571167,0.066217
672,568732292,-0.709563,-0.650832,0.171596,0.208555,0.057672,-0.229337,0.462178
673,568765626,-0.710830,-0.649970,0.170519,0.207809,0.034314,-0.167946,0.138496
674,568798960,-0.713482,-0.647422,0.169328,0.207653,0.158199,-0.318705,-0.307490
675,568832294,-0.714635,-0.646497,0.168474,0.207262,-0.047122,-0.097692,-0.007713
676,568865628,-0.716827,-0.644540,0.167399,0.206659,-0.103424,-0.052338,0.007649
677,568898962,-0.718243,-0.643491,0.165945,0.206183,0.015855,-0.606848,-0.069386
678,568932296,-0.716220,-0.646306,0.164082,0.205904,-0.007964,-0.293234,0.258480
679,568965630,-0.716313,-0.646788,0.161231,0.206321,0.001834,-0.065678,0.021299
680,568998964,-0.717079,-0.646417,0.158577,0.206880,-0.224116,0.302270,-0.342155
681,569032298,-0.716160,-0.647619,0.157597,0.207053,-0.048538,0.064994,-0.270915
682,569065632,-0.714172,-0.649961,0.157146,0.206922,0.144119,0.389472,-0.658166
683,569098966,-0.711463,-0.652846,0.157305,0.207052,0.533010,1.334447,-0.637185
684,569132300,-0.710526,-0.653029,0.158111,0.209066,0.804171,1.224491,-0.590193
685,569165634,-0.710127,-0.651749,0.160479,0.212585,0.507513,1.395081,-1.139523
686,569198968,-0.706793,-0.652174,0.166515,0.217687,0.441264,1.511731,-1.344383
687,569232302,-0.700600,-0.654158,0.176161,0.224068,0.032889,1.318806,-1.149583
688,569265636,-0.694115,-0.655493,0.187204,0.231279,1.147239,2.425293,-1.021137
689,569298970,-0.690366,-0.651318,0.200554,0.242815,0.512689,2.481547,0.259054
690,569332304,-0.690433,-0.640512,0.215000,0.258504,0.930087,2.499019,-0.086780
691,569365638,-0.687726,-0.629013,0.232612,0.277974,1.300601,2.808492,0.504039
692,569398972,-0.682525,-0.615476,0.252999,0.302228,1.638808,1.981715,0.839302
693,569432306,-0.677139,-0.596799,0.273822,0.332171,1.812502,1.820530,0.931354
694,569465640,-0.669777,-0.575551,0.293438,0.366109,1.448476,1.203632,1.241993
695,569498974,-0.664000,-0.548556,0.308732,0.403581,1.620585,1.153125,0.114215
696,569532308,-0.652100,-0.528316,0.319346,0.440077,-0.777884,-1.807869,1.442680
697,569565642,-0.632137,-0.518906,0.329666,0.471659,-0.319827,-0.986616,0.707500
698,569598976,-0.614559,-0.507439,0.336774,0.501407,-0.008980,-0.325763,0.068902
699,569632310,-0.603934,-0.487699,0.339641,0.531093,-0.488689,-0.709895,-1.610654
700,569665644,-0.600861,-0.458468,0.340919,0.559061,-0.053102,-0.769136,-2.063661
701,569698978,-0.603252,-0.419748,0.342346,0.585406,-1.192809,-1.787631,-1.748547
702,569732312,-0.610762,-0.370430,0.343996,0.609443,-1.411762,-1.723233,-2.307088
703,569765646,-0.626704,-0.308121,0.340884,0.629368,-0.295399,-1.956623,-2.832820
704,569798980,-0.637039,-0.250355,0.341426,0.644153,-0.801965,-3.164862,-1.111406
705,569832314,-0.644486,-0.198980,0.345587,0.652393,-1.476387,-3.415582,0.068126
706,569865648,-0.650728,-0.153558,0.349554,0.656344,-2.148584,-3.192556,1.202751
707,569898982,-0.651481,-0.114033,0.355841,0.660264,-1.640240,-3.211132,2.071111
708,569932316,-0.649579,-0.071367,0.355138,0.668456,-1.636682,-2.135352,1.874335
709,569965650,-0.653427,-0.020397,0.340311,0.675876,-4.661554,-1.432108,-1.503006
710,569998984,-0.657701,0.027733,0.327591,0.677751,-1.278221,-3.287117,1.943874
711,570032318,-0.659650,0.059781,0.319354,0.677720,-2.510644,-4.197947,0.559178
712,570065652,-0.663213,0.065708,0.324707,0.671117,-4.011899,-3.709131,1.156582
713,570098986,-0.666254,0.037515,0.350992,0.656891,-1.336440,-2.442900,2.803874
714,570132320,-0.667692,-0.004840,0.377513,0.641600,-0.065554,-2.204441,2.759732
715,570165654,-0.668902,-0.046334,0.393886,0.628713,-0.430799,-2.156925,1.593805
716,570198988,-0.670254,-0.085125,0.404005,0.616681,-0.549659,-2.251113,1.292647
717,570232322,-0.673056,-0.121205,0.408251,0.604680,-0.708095,-3.192243,0.394977
718,570265656,-0.676981,-0.160572,0.411189,0.588931,-0.593208,-3.346955,-0.857112
719,570298990,-0.682154,-0.203598,0.414024,0.567275,1.043438,-3.175003,-0.172207
720,570332324,-0.690120,-0.245630,0.414224,0.540204,0.440768,-3.054974,-1.603490
721,570365658,-0.697019,-0.292514,0.416606,0.505017,1.082450,-2.269681,-1.029941
722,570398992,-0.708497,-0.332257,0.410506,0.468108,2.477292,-1.511980,0.250739
723,570432326,-0.724168,-0.363923,0.398004,0.429810,2.262614,-0.843306,-1.335452
724,570465660,-0.738581,-0.395540,0.386471,0.385602,1.825385,-0.129237,-0.837244
725,570498994,-0.754091,-0.422619,0.371008,0.339258,2.317411,-0.054010,0.416954
726,570532328,-0.766586,-0.450943,0.352894,0.290628,2.062002,1.163582,-0.292951
727,570565662,-0.770859,-0.486322,0.334369,0.239723,2.562725,1.656533,0.990586
728,570598996,-0.770081,-0.522592,0.311220,0.192400,2.513932,2.800570,1.276237
729,570632330,-0.769220,-0.552165,0.282930,0.152865,1.715596,3.008566,0.727452
730,570665664,-0.766483,-0.578483,0.252827,0.118078,1.376356,2.995870,0.242682
731,570698998,-0.760209,-0.604078,0.222577,0.087366,0.510759,3.004030,-0.121766
732,570732332,-0.754673,-0.624360,0.192081,0.061243,0.033696,2.677660,-0.588267
733,570765666,-0.747797,-0.642705,0.162227,0.037604,-0.172388,2.317140,-1.001560
734,570799000,-0.736311,-0.663005,0.134307,0.015292,-0.761893,2.371363,-0.751869
735,570832334,-0.724837,-0.680102,0.109769,-0.005076,-1.033876,2.098325,0.066505
736,570865668,-0.715474,-0.692545,0.089059,-0.023427,-1.204789,1.645587,0.140148
737,570899002,-0.707135,-0.702310,0.072151,-0.038952,-1.657079,1.280530,0.068523
738,570932336,-0.701359,-0.708536,0.058738,-0.051219,-1.742625,0.916993,0.191384
739,570965670,-0.697629,-0.712267,0.047758,-0.060924,-1.371330,0.450961,0.068636
740,570999004,-0.693039,-0.716649,0.037674,-0.068523,-1.165490,0.470767,0.204779
741,571032338,-0.688225,-0.721137,0.028544,-0.074131,-1.043883,0.385087,0.297915
742,571065672,-0.683963,-0.725066,0.020688,-0.077772,-0.982133,0.273117,0.268808
743,571099006,-0.681075,-0.727710,0.014835,-0.079730,-1.087125,0.100617,0.290517
744,571132340,-0.679878,-0.728877,0.011552,-0.079827,-1.061443,0.016935,0.034258
745,571165674,-0.681063,-0.727916,0.011950,-0.078427,-0.647212,-0.496872,0.295227
746,571199008,-0.683991,-0.725314,0.015693,-0.076370,-0.201136,-0.637214,0.479005
747,571232342,-0.688387,-0.721238,0.021263,-0.074093,-0.315197,-0.662493,0.080747
748,571265676,-0.692365,-0.717438,0.027517,-0.071824,-1.078363,-0.369950,-0.197289
749,571299010,-0.696165,-0.713735,0.034208,-0.069065,-1.868119,0.029022,-0.469046
750,571332344,-0.698902,-0.711048,0.041255,-0.065171,-2.229467,0.234512,-0.396459
751,571365678,-0.701699,-0.708263,0.048584,-0.060205,-1.993000,0.302213,0.028273
752,571399012,-0.703450,-0.706555,0.055270,-0.053713,-1.672555,0.544888,0.176224
753,571432346,-0.703982,-0.706155,0.060960,-0.045180,-1.333590,0.837310,0.678177
754,571465680,-0.705767,-0.704555,0.065625,-0.034509,-0.865363,0.747019,0.742392
755,571499014,-0.708297,-0.702124,0.069458,-0.022723,-0.510278,0.649628,0.042285
756,571532348,-0.709187,-0.701111,0.073420,-0.010463,-0.482009,0.682538,-0.115795
757,571565682,-0.710272,-0.699507,0.078758,0.001861,-0.302548,0.634405,-0.208012
758,571599016,-0.712419,-0.696332,0.085930,0.014120,0.093138,0.765032,-0.067497
759,571632350,-0.715354,-0.691835,0.094454,0.026727,0.566727,0.389756,-0.225721
760,571665684,-0.717447,-0.687777,0.103487,0.039051,0.742586,0.243432,-0.411440
761,571699018,-0.719662,-0.683215,0.112898,0.050605,0.765827,0.288615,-0.392453
762,571732352,-0.722417,-0.677769,0.122596,0.060949,0.478961,-0.116384,-0.913726
763,571765686,-0.721901,-0.675550,0.132962,0.069385,0.247654,0.092326,-0.490014
764,571799020,-0.720455,-0.674161,0.143485,0.076593,0.218188,-0.197059,-0.114398
765,571832354,-0.719188,-0.672487,0.153622,0.083266,-0.027868,-0.036137,-0.252008
766,571865688,-0.717206,-0.671419,0.164012,0.088962,-0.547970,-0.341897,-0.232615
767,571899022,-0.715396,-0.670255,0.173744,0.093707,-0.605868,-0.437493,0.299747
768,571932356,-0.713815,-0.668972,0.182749,0.097718,-0.779431,-0.066713,-0.003942
769,571965690,-0.711998,-0.667956,0.191317,0.101460,-0.873961,-0.163647,0.874014
770,571999024,-0.712609,-0.664414,0.198489,0.106521,-0.837040,0.237278,1.230353
771,572032358,-0.715284,-0.658841,0.203888,0.112830,-1.032979,-0.267025,0.982629
772,572065692,-0.717438,-0.654269,0.206884,0.120072,-0.594668,-0.073942,1.381251
773,572099026,-0.719681,-0.650026,0.207424,0.128466,-0.464212,-0.049287,0.952026
774,572132360,-0.722270,-0.645856,0.205872,0.137170,-0.364785,-0.129730,0.684717
775,572165694,-0.723325,-0.643688,0.203170,0.145568,-0.407819,-0.160357,0.472419
776,572199028,-0.723690,-0.642242,0.200541,0.153569,-0.568468,0.317122,0.457348
777,572232362,-0.724528,-0.640180,0.198233,0.161044,-0.562937,0.028204,-0.162585
778,572265696,-0.723268,-0.640458,0.196798,0.167244,-0.570720,-0.102555,-0.205263
779,572299030,-0.719647,-0.643754,0.194962,0.172281,0.001399,-0.086964,0.468855
780,572332364,-0.721738,-0.640810,0.192442,0.177272,0.069735,1.095137,0.070217
781,572365698,-0.721108,-0.641087,0.189895,0.181528,-0.068545,-0.626216,-0.743867
782,572399032,-0.711534,-0.652307,0.187355,0.181978,-0.599450,-0.384627,0.310915
783,572432366,-0.702011,-0.664461,0.182270,0.180145,-0.280186,-0.141350,1.104303
784,572465700,-0.697189,-0.671980,0.175212,0.177970,-0.600370,-0.386772,0.714592
785,572499034,-0.694677,-0.677298,0.168134,0.174427,-0.518352,-1.124120,1.672573
786,572532368,-0.692415,-0.683324,0.160155,0.167276,-0.471908,-1.897331,-1.686566
787,572565702,-0.686579,-0.694087,0.152295,0.153820,0.080175,-2.251085,-0.304076
788,572599036,-0.681763,-0.704033,0.144677,0.136413,1.996816,-1.428145,-2.164794
789,572632370,-0.673787,-0.715180,0.142372,0.119418,2.757479,0.302626,-0.497916
790,572665704,-0.672228,-0.718005,0.144532,0.108126,2.535332,0.424476,-1.047518
791,572699038,-0.676604,-0.714130,0.146497,0.103762,2.348125,-0.007124,-0.352783
792,572732372,-0.687009,-0.704315,0.145018,0.104551,1.929667,1.419157,1.028131
793,572765706,-0.698279,-0.693188,0.141681,0.108750,2.615693,0.480618,-1.456759
794,572799040,-0.697452,-0.693770,0.138765,0.113979,1.872608,-0.115860,-1.992756
795,572832374,-0.691767,-0.698363,0.139196,0.119894,1.543347,0.469577,-1.160397
796,572865708,-0.690184,-0.698212,0.140513,0.128080,1.641780,-0.341718,-0.364924
797,572899042,-0.692650,-0.694136,0.141002,0.136132,0.689012,-0.860682,-1.105526
798,572932376,-0.696065,-0.689688,0.140111,0.142115,0.495652,-1.995544,-0.403176
799,572965710,-0.696949,-0.688620,0.136969,0.145967,0.295475,-0.893328,-0.565182
800,572999044,-0.698249,-0.687491,0.133251,0.148497,0.532813,-0.266330,0.518462
801,573032378,-0.702850,-0.683261,0.128575,0.150427,0.283264,-0.308440,0.432131
802,573065712,-0.706475,-0.680041,0.123704,0.152109,0.100604,0.497462,0.194414
803,573099046,-0.709252,-0.677348,0.119696,0.154392,0.135635,-0.206029,0.404046
804,573132380,-0.711576,-0.675052,0.115506,0.156922,-0.471455,0.424478,0.266239
805,573165714,-0.714222,-0.672167,0.111773,0.159964,-1.088213,0.466734,0.511330
806,573199048,-0.718303,-0.667937,0.107826,0.162101,-1.210369,0.226108,0.189529
807,573232382,-0.724275,-0.661913,0.102908,0.163429,-1.382848,0.401925,0.371543
808,573265716,-0.732424,-0.653408,0.097586,0.164596,-1.101286,0.474420,-0.028203
809,573299050,-0.739848,-0.645625,0.092369,0.165121,-1.283247,0.237140,-0.268774
810,573332384,-0.742864,-0.642540,0.089255,0.165321,-1.830861,0.469020,-0.121213
811,573365718,-0.741876,-0.643697,0.088175,0.165835,-1.909991,0.172771,0.293839
812,573399052,-0.740923,-0.644681,0.088102,0.166313,-2.121025,0.679191,0.869623
813,573432386,-0.740093,-0.645066,0.089000,0.168030,-2.173952,0.477756,1.116070
814,573465720,-0.739641,-0.644559,0.090092,0.171350,-2.008644,0.894582,1.523504
815,573499054,-0.739700,-0.642670,0.091425,0.177379,-2.343009,1.254893,1.312267
816,573532388,-0.738635,-0.641202,0.094254,0.185467,-2.529183,1.321913,0.738352
817,573565722,-0.735623,-0.641549,0.099133,0.193516,-2.710862,1.183607,0.301125
818,573599056,-0.731017,-0.643737,0.106694,0.199590,-2.832860,1.369644,-0.147208
819,573632390,-0.730955,-0.641612,0.115262,0.201880,-0.581291,0.847009,0.404038
820,573665724,-0.733949,-0.636275,0.123208,0.203211,1.987818,0.177900,0.783458
821,573699058,-0.739584,-0.627462,0.129404,0.206309,1.751586,-0.232444,1.118498
822,573732392,-0.747704,-0.615430,0.133014,0.210936,0.984250,0.040132,1.257414
823,573765726,-0.753238,-0.605940,0.135452,0.217080,0.570811,0.020722,0.702060
824,573799060,-0.757903,-0.597216,0.137056,0.223906,1.081986,0.417261,0.881046
825,573832394,-0.766482,-0.583868,0.137078,0.229815,0.492198,0.024300,-0.910639
826,573865728,-0.777574,-0.567527,0.137491,0.233220,0.448039,-0.099938,-1.265805
827,573899062,-0.787840,-0.552745,0.140207,0.232647,-0.086025,-1.148407,-3.255273
828,573932396,-0.789170,-0.550937,0.147299,0.228003,0.183718,-2.151862,-3.062988
829,573965730,-0.786005,-0.556525,0.154866,0.220216,0.963410,-1.404248,-1.232327
830,573999064,-0.783014,-0.562074,0.160970,0.212257,1.210842,-1.996009,-0.865247
831,574032398,-0.776780,-0.572188,0.166073,0.204048,1.110835,-1.503726,-1.494008
832,574065732,-0.770325,-0.582352,0.169628,0.196709,1.207584,-1.545421,-0.868381
833,574099066,-0.766410,-0.588663,0.170621,0.192307,1.423420,-2.050520,-0.983350
834,574132400,-0.765254,-0.591031,0.169010,0.191067,2.114479,-0.707841,-1.278937
835,574165734,-0.764836,-0.590546,0.167623,0.195412,2.344745,0.563165,0.902649
836,574199068,-0.762271,-0.590869,0.167374,0.204463,1.566744,-1.893625,-1.354546
837,574232402,-0.756400,-0.594682,0.165603,0.216312,3.283570,-1.821646,-1.016219
838,574265736,-0.753720,-0.594226,0.162785,0.228704,1.918850,-0.238926,-1.661698
839,574299070,-0.754393,-0.588725,0.161702,0.241139,2.256515,-2.168260,-2.032076
840,574332404,-0.754151,-0.585237,0.161654,0.250248,-0.585194,-0.656758,-1.107393
841,574365738,-0.751054,-0.586829,0.164114,0.254199,-0.152693,-0.882617,-0.512722
842,574399072,-0.743125,-0.596498,0.165749,0.253938,0.635970,-1.112761,-0.040313
843,574432406,-0.737342,-0.604459,0.165321,0.252246,0.337798,-1.053893,0.871388
844,574465740,-0.734761,-0.610061,0.163384,0.247506,0.796986,-1.308191,0.040336
845,574499074,-0.727197,-0.621787,0.163698,0.240356,-0.550268,0.887678,0.465043
846,574532408,-0.724901,-0.626791,0.164272,0.233814,-0.331893,-0.381848,1.610175
847,574565742,-0.727591,-0.626821,0.161931,0.226909,0.650782,-0.909468,0.427497
848,574599076,-0.729109,-0.629129,0.157170,0.218852,0.446814,0.722945,0.470264
849,574632410,-0.732389,-0.629346,0.152955,0.210090,0.168484,0.242253,0.567035
850,574665744,-0.731853,-0.633849,0.149727,0.200527,0.033987,-0.556434,-0.285105
851,574699078,-0.730058,-0.639843,0.146081,0.190470,-0.145917,-0.015262,-0.413429
852,574732412,-0.729507,-0.644592,0.143679,0.177987,-0.412442,1.523331,-0.563996
853,574765746,-0.726964,-0.650681,0.144931,0.164728,-0.542957,0.895346,-0.052032
854,574799080,-0.723537,-0.657108,0.147228,0.151754,-1.736769,0.963782,-0.066398
855,574832414,-0.722024,-0.661290,0.149636,0.137799,-2.031460,2.146059,1.443907
856,574865748,-0.722042,-0.662740,0.153256,0.126283,-3.071358,2.672029,0.997274
857,574899082,-0.718312,-0.666683,0.158859,0.119697,-4.499087,1.972375,2.022727
858,574932416,-0.714994,-0.669206,0.164004,0.118542,-3.527508,2.269183,2.504356
859,574965750,-0.712807,-0.668773,0.169689,0.125929,-3.328340,3.663023,2.147913
860,574999084,-0.711152,-0.665263,0.177913,0.141555,-2.883952,2.949157,1.560979
861,575032418,-0.705038,-0.663765,0.188936,0.163225,-1.450543,2.818273,2.052384
862,575065752,-0.695229,-0.662324,0.202773,0.192013,-0.647305,3.436936,1.191496
863,575099086,-0.687303,-0.654460,0.218098,0.227446,0.145153,3.777742,1.975307
864,575132420,-0.678488,-0.642111,0.234792,0.268742,0.224030,3.416023,0.295260
865,575165754,-0.665084,-0.629107,0.252913,0.312928,0.853632,2.745536,0.217384
866,575199088,-0.652058,-0.610873,0.270284,0.358613,1.315226,2.549845,-0.556887
867,575232422,-0.635742,-0.591735,0.289491,0.402342,2.355497,2.129678,-1.491316
868,575265756,-0.616069,-0.572539,0.312521,0.441578,3.659674,1.897495,-1.351300
869,575299090,-0.587161,-0.560057,0.343585,0.472789,4.271809,2.119805,-1.322615
870,575332424,-0.555022,-0.549374,0.379219,0.496321,4.857343,1.320370,1.336454
871,575365758,-0.530573,-0.528706,0.406294,0.523344,3.031808,-2.645895,-1.043031
872,575399092,-0.510396,-0.502403,0.426109,0.552739,2.085819,-2.790200,-2.374323
873,575432426,-0.504869,-0.466642,0.435666,0.580991,-1.672527,-4.259370,-3.934009
874,575465760,-0.516224,-0.423201,0.433246,0.605569,-2.253890,-3.389435,-3.688656
875,575499094,-0.532009,-0.382920,0.433984,0.618061,-2.402912,-3.850279,-3.322407
876,575532428,-0.540053,-0.354545,0.452239,0.614917,-2.424411,-5.356224,-1.025183
877,575565762,-0.531000,-0.347100,0.491886,0.596332,-2.300176,-5.039318,-0.446086
878,575599096,-0.511768,-0.355912,0.541986,0.563626,-0.925785,-4.955707,-0.378738
879,575632430,-0.514258,-0.337327,0.563002,0.552069,2.311432,-2.743211,3.333842
880,575665764,-0.536813,-0.281808,0.552774,0.571716,0.446187,-2.867041,-0.539045
881,575699098,-0.558345,-0.225310,0.535835,0.591920,-3.356473,-3.080143,-0.049575
882,575732432,-0.574206,-0.186434,0.520725,0.603637,-3.815916,-4.059980,0.577794
883,575765766,-0.581409,-0.173834,0.516096,0.604477,-2.780593,-4.684396,1.369004
884,575799100,-0.591526,-0.155657,0.490789,0.620481,2.152019,-4.791277,5.384487
885,575832434,-0.602194,-0.128084,0.449575,0.647180,-3.494282,-5.275911,0.848572
886,575865768,-0.605183,-0.129201,0.430332,0.657174,-2.208184,-4.280510,-0.084926
887,575899102,-0.605042,-0.151038,0.428843,0.653611,-0.292941,-3.851655,-0.244623
888,575932436,-0.608058,-0.181324,0.433774,0.639710,-0.297749,-2.793344,-1.083380
889,575965770,-0.618617,-0.214045,0.440172,0.614613,-0.130898,-1.922435,-1.619056
890,575999104,-0.634022,-0.250381,0.450570,0.576467,0.433322,-1.606611,-2.190141
891,576032438,-0.650351,-0.291545,0.464643,0.525504,1.833828,-1.234484,-1.402858
892,576065772,-0.668799,-0.329037,0.475155,0.467625,3.289072,0.223817,-0.649164
893,576099106,-0.686376,-0.357637,0.482592,0.409989,2.852301,1.947662,-0.276023
894,576132440,-0.703322,-0.376617,0.485004,0.358149,1.728608,2.449718,2.078917
895,576165774,-0.723167,-0.385734,0.478466,0.315137,0.405985,1.635968,1.738316
896,576199108,-0.738516,-0.402576,0.468414,0.270400,0.822022,1.470560,1.268187
897,576232442,-0.747079,-0.431135,0.454421,0.222484,1.840158,2.442386,1.768191
898,576265776,-0.752424,-0.463476,0.433102,0.177409,1.216636,2.754508,1.514137
899,576299110,-0.753502,-0.499910,0.405088,0.135024,0.635733,2.313489,0.410212
900,576332444,-0.749377,-0.539321,0.372281,0.094741,0.513089,2.371169,-0.339144
901,576365778,-0.742036,-0.576770,0.336684,0.058006,0.145169,2.879849,-0.384920
902,576399112,-0.734274,-0.607905,0.301009,0.026242,-0.392731,2.669117,-0.486826
903,576432446,-0.726001,-0.633309,0.268037,-0.001139,-0.820130,2.376902,-0.646587
904,576465780,-0.717032,-0.654007,0.239910,-0.024210,-1.077007,1.975749,-0.459207
905,576499114,-0.708134,-0.670398,0.217491,-0.042577,-1.317419,1.658224,-0.300495
906,576532448,-0.700603,-0.682266,0.201161,-0.056618,-1.622391,1.361112,0.132141
907,576565782,-0.695566,-0.689601,0.190400,-0.066253,-1.818331,0.634605,0.307451
908,576599116,-0.691031,-0.695169,0.184520,-0.071908,-2.722919,0.376205,0.411980
909,576632450,-0.689586,-0.696835,0.183633,-0.071920,-3.151029,-0.784895,1.555573
910,576665784,-0.694533,-0.692181,0.184566,-0.066685,-2.831722,-0.957755,1.072177
911,576699118,-0.703518,-0.683706,0.184995,-0.058203,-2.780883,-0.454432,0.441411
912,576732452,-0.711130,-0.676679,0.184583,-0.048269,-2.463268,0.249293,-0.160586
913,576765786,-0.716355,-0.671867,0.184495,-0.037337,-2.080444,0.967688,-0.187830
914,576799120,-0.721489,-0.666490,0.186054,-0.025122,-2.031988,2.170213,-0.123662
915,576832454,-0.726270,-0.660408,0.190480,-0.010625,-1.709814,2.792423,-0.230758
916,576865788,-0.729336,-0.654891,0.197849,0.006673,-1.518810,2.828607,-0.129460
917,576899122,-0.732858,-0.647154,0.208151,0.028032,-1.235777,3.599222,0.235531
918,576932456,-0.735706,-0.638179,0.220446,0.053584,-0.573392,3.488315,0.185658
919,576965790,-0.737440,-0.627886,0.234609,0.083085,0.147853,3.369637,0.148266
920,576999124,-0.737510,-0.616129,0.250880,0.116295,1.006682,3.508398,0.023723
921,577032458,-0.735344,-0.603060,0.269143,0.152158,0.987376,3.396883,0.348839
922,577065792,-0.732464,-0.586018,0.289004,0.191204,1.631461,3.979991,1.103743
923,577099126,-0.726357,-0.565910,0.310317,0.236339,2.063306,4.775969,1.818134
924,577132460,-0.719469,-0.538818,0.329852,0.288513,2.664153,5.951746,3.556353
925,577165794,-0.706851,-0.510642,0.347622,0.344626,1.717966,4.804015,4.710344
926,577199128,-0.686491,-0.484069,0.359344,0.406548,3.487148,1.864395,3.636991
927,577232462,-0.672341,-0.441370,0.353028,0.478042,4.617416,0.086135,0.510305
928,577265796,-0.659240,-0.393348,0.334612,0.546550,2.509877,-2.137662,-2.947317
929,577299130,-0.644826,-0.350157,0.315714,0.601595,0.608474,-1.510976,-5.441257
930,577332464,-0.630039,-0.317307,0.309051,0.637853,0.048595,-2.231556,-4.877370
931,577365798,-0.620810,-0.289397,0.313749,0.657577,1.067190,-2.390464,-4.822171
932,577399132,-0.620945,-0.255899,0.321986,0.667286,0.930963,-4.496379,-4.138091
933,577432466,-0.633092,-0.202989,0.315769,0.676965,1.336253,-4.482286,-2.094893
934,577465800,-0.642568,-0.141411,0.304068,0.688952,-1.506882,-4.824079,-1.446209
935,577499134,-0.649182,-0.079520,0.291081,0.698222,-1.150572,-5.041204,0.597568
936,577532468,-0.652853,-0.022326,0.273505,0.706033,-3.023199,-3.644207,1.776469
937,577565802,-0.650837,0.000820,0.279116,0.706050,-3.724616,-3.993935,2.599451
938,577599136,-0.648118,0.000473,0.297111,0.701192,-0.866768,-5.003837,0.575344
939,577632470,-0.645382,-0.000551,0.306948,0.699477,-1.710808,-6.047198,-1.333004
940,577665804,-0.641001,-0.009989,0.315186,0.699770,-3.407030,-4.730546,-0.679399
941,577699138,-0.634804,-0.035651,0.332360,0.696629,-2.709707,-4.055101,0.505096
942,577732472,-0.629653,-0.071396,0.351477,0.689134,-2.404187,-4.184556,0.815667
943,577765806,-0.626485,-0.113264,0.372267,0.675358,-1.063975,-3.550949,-0.581272
944,577799140,-0.625380,-0.155300,0.392035,0.656577,0.037738,-3.746311,-0.322328
945,577832474,-0.626735,-0.196662,0.407970,0.634106,1.020070,-3.942821,-0.740450
946,577865808,-0.631257,-0.235707,0.419179,0.608481,1.220467,-2.732662,-0.533627
947,577899142,-0.639962,-0.272752,0.426479,0.578077,0.680941,-3.052362,-0.273122
948,577932476,-0.650399,-0.312592,0.432737,0.540378,1.760077,-2.070725,0.319747
949,577965810,-0.664680,-0.348881,0.434050,0.498082,2.287240,-1.197571,0.228216
950,577999144,-0.678914,-0.385711,0.434137,0.449254,2.609751,-1.325582,0.143166
951,578032478,-0.690921,-0.425856,0.430603,0.394789,2.800466,0.241301,1.737517
952,578065812,-0.709149,-0.456071,0.414764,0.342169,2.420803,1.024665,1.386117
953,578099146,-0.727449,-0.482786,0.393187,0.288344,2.398645,1.889148,0.703805
954,578132480,-0.736919,-0.515441,0.370531,0.232335,1.739933,2.545478,0.452317
955,578165814,-0.736915,-0.553694,0.344967,0.177140,1.380215,3.401741,1.248169
956,578199148,-0.733703,-0.588413,0.314492,0.128635,0.819448,3.696950,1.182041
957,578232482,-0.730073,-0.616883,0.280566,0.087940,-0.148148,3.603696,0.390831
958,578265816,-0.723619,-0.642587,0.246153,0.053552,-0.857184,3.303727,0.480110
959,578299150,-0.714466,-0.666104,0.212552,0.025839,-1.211802,2.971410,0.004046
960,578332484,-0.705339,-0.685233,0.181481,0.004447,-1.668554,2.398642,-0.132595
961,578365818,-0.695801,-0.701483,0.153813,-0.011297,-1.924458,1.704435,-0.293124
962,578399152,-0.687425,-0.714130,0.130272,-0.022286,-2.104172,1.327181,-0.250932
963,578432486,-0.682806,-0.721473,0.111409,-0.029030,-2.153124,0.980467,-0.124621
964,578465820,-0.681108,-0.725013,0.096824,-0.032786,-2.025846,0.475192,-0.058254
965,578499154,-0.679095,-0.728262,0.085431,-0.034179,-1.965588,0.300098,0.095655
966,578532488,-0.677769,-0.730531,0.076490,-0.033241,-2.169222,-0.019363,0.011778
967,578565822,-0.677676,-0.731461,0.069296,-0.030354,-2.338851,0.020956,0.385417
968,578599156,-0.678988,-0.730922,0.063568,-0.026251,-2.602865,-0.270011,0.292600
969,578632490,-0.680077,-0.730543,0.058058,-0.020834,-2.686132,-0.089164,0.282949
970,578665824,-0.679690,-0.731518,0.051932,-0.014428,-2.888585,-0.703393,0.934707
971,578699158,-0.680916,-0.731000,0.044126,-0.006832,-3.188947,-0.892165,-0.250386
972,578732492,-0.680616,-0.731785,0.035421,-0.000006,-3.137150,-0.834135,1.106891
973,578765826,-0.691728,-0.721541,0.029293,0.005886,-2.703533,0.245852,0.912041
974,578799160,-0.709484,-0.704091,0.027481,0.011623,-1.805050,0.460853,-0.176112
975,578832494,-0.731429,-0.681049,0.030927,0.015127,-0.994676,1.155579,0.224636
976,578865828,-0.752013,-0.657778,0.038555,0.017880,0.791533,0.869102,-1.126182
977,578899162,-0.760518,-0.647252,0.047485,0.020587,1.937316,1.994629,0.379549
978,578932496,-0.772653,-0.631918,0.056528,0.022226,2.885894,0.896205,-0.553780
979,578965830,-0.784721,-0.616058,0.064142,0.023965,2.994295,1.148507,-1.128229
980,578999164,-0.794281,-0.602760,0.072145,0.024398,2.418733,0.405986,-1.441315
981,579032498,-0.794910,-0.601027,0.078580,0.026683,3.752648,-1.472846,-0.730371
982,579065832,-0.785568,-0.612582,0.081260,0.032020,2.449600,0.153296,0.037331
983,579099166,-0.776447,-0.623439,0.083957,0.037507,1.651130,0.475455,-0.509434
984,579132500,-0.770097,-0.630861,0.085025,0.041682,2.294555,-1.067066,-0.301203
985,579165834,-0.763187,-0.639123,0.082949,0.046782,2.487507,-0.148707,0.138170
986,579199168,-0.757124,-0.645980,0.080691,0.054440,1.673259,0.596906,0.269856
987,579232502,-0.752925,-0.650335,0.079143,0.062500,1.503452,-0.199712,-0.523453
988,579265836,-0.749103,-0.654242,0.077645,0.069176,0.497000,-0.337553,-1.027239
989,579299170,-0.742480,-0.661134,0.076333,0.076162,0.280354,-0.051095,0.434378
990,579332504,-0.741882,-0.661165,0.074466,0.083242,0.004403,0.061281,0.766612
991,579365838,-0.742746,-0.659595,0.072067,0.089840,0.388712,-0.975984,-0.418862
992,579399172,-0.740473,-0.661615,0.069152,0.095846,0.531141,0.092427,0.692328
993,579432506,-0.739980,-0.661715,0.067160,0.100269,0.318508,-0.079121,-1.297730
994,579465840,-0.733502,-0.668550,0.065682,0.103465,0.070485,-0.566528,-0.620786
995,579499174,-0.728751,-0.673714,0.063704,0.104769,-0.241368,0.167544,0.218000
996,579532508,-0.725523,-0.677356,0.062167,0.104608,-0.606178,0.401449,-0.396573
997,579565842,-0.719813,-0.683617,0.061885,0.103490,-1.094363,-0.086413,-0.171465
998,579599176,-0.713814,-0.690068,0.062527,0.101828,-1.313989,0.405090,0.392624
999,579632510,-0.709735,-0.694329,0.064298,0.100259,-1.633675,0.107480,0.365154
1000,579665844,-0.705713,-0.698414,0.065945,0.099197,-1.807424,-0.218378,0.749736
1001,579699178,-0.701905,-0.702243,0.066614,0.098738,-1.841047,0.164215,0.916338
1002,579732512,-0.698777,-0.705242,0.066251,0.099786,-1.773193,0.065089,1.288908
1003,579765846,-0.698175,-0.705537,0.064310,0.103129,-1.785641,-0.180381,0.992827
1004,579799180,-0.699406,-0.703709,0.060937,0.109150,-1.333925,0.025418,1.382459
1005,579832514,-0.701131,-0.701110,0.055766,0.117278,-1.479084,-0.556218,1.245733
1006,579865848,-0.697733,-0.703810,0.045798,0.125398,-1.548013,-2.119971,1.171579
1007,579899182,-0.684746,-0.716262,0.028584,0.131441,-1.566583,-0.307715,1.169143
1008,579932516,-0.668825,-0.730140,0.008767,0.139621,-1.368640,1.125839,2.201806
1009,579965850,-0.663270,-0.732528,-0.009374,0.152936,-1.551923,0.602777,1.298056
1010,579999184,-0.662782,-0.728501,-0.021739,0.171861,-1.605238,1.076931,-0.003549
1011,580032518,-0.657407,-0.727717,-0.025347,0.193916,-1.969586,1.066787,-1.180891
1012,580065852,-0.645768,-0.732296,-0.020367,0.215207,-1.917500,1.201140,-1.677549
1013,580099186,-0.630467,-0.740310,-0.008470,0.233204,-1.447709,2.327797,-1.476596
1014,580132520,-0.623056,-0.742706,0.005516,0.245277,-0.594300,1.266594,-0.885556
1015,580165854,-0.615198,-0.746110,0.022368,0.253680,-0.773907,0.787500,-2.672699
1016,580199188,-0.585751,-0.766634,0.045735,0.258996,0.504283,-0.051561,-2.166557
1017,580232522,-0.546588,-0.793298,0.068721,0.259228,1.279809,0.042830,-1.057890
1018,580265856,-0.500558,-0.822746,0.087196,0.254813,1.953124,-0.839089,-2.940556
1019,580299190,-0.454009,-0.851048,0.097780,0.245022,3.371387,-1.531923,0.347491
1020,580332524,-0.426396,-0.867778,0.096670,0.236231,3.706579,-1.698056,3.220319
1021,580365858,-0.416167,-0.874265,0.087377,0.234167,2.238047,-0.871580,1.194376
1022,580399192,-0.407454,-0.878780,0.078485,0.235731,0.961712,-0.712883,-0.617384
1023,580432526,-0.406034,-0.879666,0.071147,0.237202,0.394378,-1.258724,-0.447497
1024,580465860,-0.411291,-0.877206,0.065176,0.238965,0.217462,-0.254214,-1.020983
1025,580499194,-0.414574,-0.875660,0.062417,0.239697,-0.075866,0.444254,-0.514436
1026,580532528,-0.412662,-0.876064,0.064803,0.240883,-0.111766,1.661182,-0.259935
1027,580565862,-0.412402,-0.875286,0.071186,0.242350,-0.117709,1.027612,-0.681792
1028,580599196,-0.410449,-0.874983,0.079640,0.244122,-0.399574,0.745887,-0.502922
1029,580632530,-0.411409,-0.872905,0.088587,0.246849,0.089877,1.856552,0.828952
1030,580665864,-0.421532,-0.865024,0.099154,0.253406,0.502178,2.246726,1.115145
1031,580699198,-0.438262,-0.851365,0.113022,0.265203,1.118701,2.596696,0.609853
1032,580732532,-0.455050,-0.834444,0.131659,0.281604,0.924598,2.169662,-0.138853
1033,580765866,-0.475600,-0.811999,0.153027,0.301742,0.813204,2.826168,0.640195
1034,580799200,-0.497243,-0.784319,0.176071,0.326489,0.782031,1.864112,-0.412731
1035,580832534,-0.511093,-0.757375,0.201015,0.353218,0.339654,1.111201,-0.323399
1036,580865868,-0.516959,-0.732120,0.226945,0.381119,0.158603,0.831216,0.693700
1037,580899202,-0.516363,-0.708377,0.252914,0.409400,-0.072418,0.095288,0.546382
1038,580932536,-0.514134,-0.683876,0.276282,0.437780,-0.439147,0.293295,0.920196
1039,580965870,-0.507586,-0.661295,0.299520,0.464042,-1.452592,-1.188321,-0.472820
1040,580999204,-0.493030,-0.645374,0.324323,0.485006,-0.590028,0.010080,0.761869
1041,581032538,-0.485107,-0.623703,0.344110,0.507205,0.761907,0.852235,0.063499
1042,581065872,-0.474940,-0.601415,0.364140,0.529280,0.983352,0.317150,-0.979895
1043,581099206,-0.458719,-0.584475,0.391448,0.542896,0.442246,3.130609,-3.766609
1044,581132540,-0.433114,-0.575250,0.431315,0.543571,2.439479,1.358416,-0.438016
1045,581165874,-0.408950,-0.564698,0.470852,0.540534,1.068270,-1.387934,-1.203680
1046,581199208,-0.394343,-0.548831,0.503309,0.538480,1.051008,-2.898227,-0.826894
1047,581232542,-0.402634,-0.520763,0.520101,0.544233,-0.188919,-2.860780,-1.643575
1048,581265876,-0.443161,-0.467809,0.513845,0.566329,-0.030344,-1.659178,-2.227253
1049,581299210,-0.490578,-0.397142,0.498742,0.594029,-3.038461,-4.304537,-3.186688
1050,581332544,-0.541292,-0.307928,0.473327,0.623015,-0.313932,-4.591698,-2.697297
1051,581365878,-0.583608,-0.197106,0.438143,0.654663,-0.660513,-5.327970,-2.605716
1052,581399212,-0.603307,-0.094098,0.409047,0.678122,-4.485177,-6.275056,3.595144
1053,581432546,-0.613098,-0.029909,0.387101,0.688020,-7.673345,-3.042368,1.807727
1054,581465880,-0.615867,-0.025339,0.409123,0.672820,-3.292122,-5.201217,-0.012671
1055,581499214,-0.612176,-0.044526,0.441891,0.654212,-1.789878,-3.619297,2.823988
1056,581532548,-0.608740,-0.065876,0.462770,0.641048,-1.032579,-2.610727,3.176978
1057,581565882,-0.608511,-0.085924,0.472216,0.631938,-1.662239,-2.489320,2.359934
1058,581599216,-0.607584,-0.110696,0.479114,0.623731,-2.094369,-3.523377,1.438253
1059,581632550,-0.606635,-0.140548,0.484259,0.614602,-1.430610,-4.339721,0.391356
1060,581665884,-0.608112,-0.173318,0.487493,0.602092,-1.242460,-4.479178,-0.064996
1061,581699218,-0.612939,-0.211344,0.489820,0.582852,-0.400550,-4.352887,-0.474561
1062,581732552,-0.621617,-0.252276,0.491024,0.555740,0.723104,-3.907534,-0.681423
1063,581765886,-0.634247,-0.293075,0.490921,0.520419,1.662348,-2.931218,-0.514480
1064,581799220,-0.646922,-0.335799,0.490709,0.477429,2.632895,-2.301290,0.474031
1065,581832554,-0.665901,-0.370445,0.480395,0.434247,2.948529,-0.725433,1.460742
1066,581865888,-0.687791,-0.401115,0.463516,0.388851,3.433625,-0.326195,1.003779
1067,581899222,-0.706943,-0.433733,0.443500,0.339732,3.643325,1.755378,0.994299
1068,581932556,-0.726388,-0.461671,0.417784,0.290998,2.991022,2.867813,1.307444
1069,581965890,-0.743337,-0.488619,0.387175,0.242485,2.546599,3.231516,1.053024
1070,581999224,-0.753870,-0.519035,0.352564,0.194894,1.976092,3.634211,-0.103778
1071,582032558,-0.757338,-0.552692,0.314223,0.149121,1.455940,3.254843,-0.506741
1072,582065892,-0.753143,-0.589515,0.272217,0.105578,0.916459,2.992955,-1.011006
1073,582099226,-0.738332,-0.631364,0.228500,0.063525,0.316816,3.213932,-1.747937
1074,582132560,-0.716167,-0.672539,0.184918,0.024572,-0.372963,3.542419,-0.990072
1075,582165894,-0.700121,-0.699248,0.144180,-0.009872,-1.121800,3.782234,0.905237
1076,582199228,-0.701746,-0.702593,0.111430,-0.038757,-1.939132,1.766580,-0.138044
1077,582232562,-0.706549,-0.699373,0.087285,-0.063642,-1.850437,0.792539,-0.578301
1078,582265896,-0.705490,-0.700347,0.068927,-0.083958,-2.160988,0.225342,-0.016912
1079,582299230,-0.699663,-0.705579,0.054347,-0.098386,-2.597675,0.236755,0.197904
1080,582332564,-0.693645,-0.711070,0.043237,-0.106625,-2.733820,0.222717,0.642193
1081,582365898,-0.690198,-0.714324,0.034892,-0.110246,-2.613657,0.309288,0.822467
1082,582399232,-0.688463,-0.716304,0.028405,-0.110102,-2.197943,0.083303,0.422609
1083,582432566,-0.686567,-0.718760,0.022758,-0.107214,-1.934511,0.123488,0.168289
1084,582465900,-0.685698,-0.720393,0.018570,-0.102515,-1.764387,0.343932,0.175770
1085,582499234,-0.687192,-0.719856,0.016574,-0.096444,-1.352374,0.231991,0.009470
1086,582532568,-0.689152,-0.718902,0.016514,-0.089327,-1.060583,0.128195,-0.204143
1087,582565902,-0.691717,-0.717359,0.018369,-0.081173,-0.922495,0.122422,0.049456
1088,582599236,-0.695794,-0.714286,0.022119,-0.071969,-1.006664,-0.271734,-0.044409
1089,582632570,-0.698241,-0.712715,0.026670,-0.061551,-1.160501,-0.460458,0.004495
1090,582665904,-0.697314,-0.714409,0.030670,-0.049340,-1.477962,-0.622789,0.570188
1091,582699238,-0.692911,-0.719401,0.033422,-0.034975,-2.431211,-0.256731,1.752772
1092,582732572,-0.691455,-0.721360,0.034703,-0.018111,-2.274416,-0.145788,2.733643
1093,582765906,-0.697622,-0.715668,0.033759,0.002597,-2.474242,0.185243,1.309885
1094,582799240,-0.705436,-0.707618,0.030737,0.026342,-2.582118,0.385216,0.458694
1095,582832574,-0.712520,-0.699326,0.027575,0.049995,-2.336994,0.908481,-0.469186
1096,582865908,-0.718409,-0.691307,0.025927,0.072889,-1.530198,0.915602,-0.859549
1097,582899242,-0.719794,-0.687262,0.027281,0.093941,-1.052145,1.095886,-1.390947
1098,582932576,-0.716505,-0.687500,0.032693,0.113569,-0.005223,2.306355,-0.717733
1099,582965910,-0.717283,-0.682751,0.043544,0.132146,0.424124,2.298819,-0.864184
1100,582999244,-0.718599,-0.676572,0.059478,0.149435,0.894688,1.523200,-1.682842
1101,583032578,-0.711471,-0.678456,0.080084,0.164606,0.820276,0.255721,-1.750469
1102,583065912,-0.695414,-0.689337,0.102217,0.175409,0.416748,-0.387977,-0.897020
1103,583099246,-0.671433,-0.708349,0.122293,0.180184,0.393803,0.242402,-1.175578
1104,583132580,-0.645090,-0.729735,0.137347,0.180235,1.491444,0.367841,1.013947
1105,583165914,-0.633980,-0.738293,0.144267,0.179393,2.071596,-0.284208,1.059171
1106,583199248,-0.626363,-0.745009,0.145307,0.177538,2.537148,-1.289138,0.724614
1107,583232582,-0.611457,-0.759528,0.141476,0.170953,2.520605,-2.121282,-1.875847
1108,583265916,-0.592665,-0.777612,0.132929,0.162479,2.376274,-1.279587,0.122828
1109,583299250,-0.592679,-0.779978,0.124116,0.157996,1.240453,-0.954477,-0.128573
1110,583332584,-0.595180,-0.779281,0.118870,0.156060,0.716438,-1.169206,-0.348486
1111,583365918,-0.593840,-0.781021,0.115637,0.154889,1.186135,-1.047496,0.367968
1112,583399252,-0.594904,-0.780259,0.114588,0.155425,2.053710,0.449886,0.332445
1113,583432586,-0.594478,-0.779409,0.116769,0.159641,1.993548,0.743356,0.397197
1114,583465920,-0.601241,-0.771868,0.120800,0.167741,1.586512,0.017681,-0.269116
1115,583499254,-0.605729,-0.765530,0.125316,0.177073,1.201893,0.158689,-0.591132
1116,583532588,-0.610295,-0.758954,0.129792,0.186239,0.802967,0.256345,-0.231381
1117,583565922,-0.616022,-0.751401,0.132998,0.195517,-0.074098,-0.933085,-0.625718
1118,583599256,-0.618536,-0.747411,0.134482,0.201758,-0.258463,-0.778813,-0.516141
1119,583632590,-0.626712,-0.739211,0.134047,0.206960,-1.005778,0.205608,0.056178
1120,583665924,-0.633729,-0.732093,0.134131,0.210803,-1.323328,0.798242,0.049297
1121,583699258,-0.638668,-0.726596,0.136614,0.213310,-1.231554,0.456561,-0.390610
1122,583732592,-0.640584,-0.723583,0.140861,0.215035,-1.653370,0.366235,-0.365012
1123,583765926,-0.642398,-0.720513,0.146481,0.216174,-1.458494,0.822844,0.500153
1124,583799260,-0.648395,-0.713207,0.153910,0.217333,-0.671728,0.680140,-0.094726
1125,583832594,-0.653195,-0.706347,0.162853,0.218839,-0.828500,-1.038489,-0.423670
1126,583865928,-0.654739,-0.703230,0.171108,0.217966,-1.498413,-0.220753,-0.157578
1127,583899262,-0.656506,-0.700543,0.178639,0.215245,-1.349892,0.481191,0.016419
1128,583932596,-0.656077,-0.699673,0.186298,0.212876,-1.605442,0.540994,0.318478
1129,583965930,-0.657282,-0.697415,0.190832,0.212551,-2.132760,-0.599299,3.180975
1130,583999264,-0.664232,-0.690830,0.187654,0.215261,-2.975566,-0.831287,3.111969
1131,584032598,-0.671721,-0.683970,0.177889,0.222111,-3.690279,-0.704286,4.096796
1132,584065932,-0.677916,-0.678504,0.163103,0.231221,-3.504117,-0.657856,2.853661
1133,584099266,-0.680426,-0.675867,0.147006,0.242107,-3.312785,0.743601,2.238878
1134,584132600,-0.682832,-0.671861,0.131707,0.254949,-3.177015,1.012519,1.401337
1135,584165934,-0.686630,-0.665484,0.118153,0.267793,-2.739809,1.016367,0.581051
1136,584199268,-0.691253,-0.657626,0.106778,0.279816,-0.841093,1.321457,0.663429
1137,584232602,-0.698633,-0.646686,0.097507,0.290177,0.040621,0.681238,-0.460500
1138,584265936,-0.698764,-0.644061,0.093322,0.296996,0.064630,-0.581899,-2.013259
1139,584299270,-0.688046,-0.654159,0.094845,0.299457,1.741902,0.937135,-2.030523
1140,584332604,-0.684506,-0.657565,0.096074,0.299721,4.381336,1.711783,-2.187659
1141,584365938,-0.680179,-0.658420,0.100580,0.306146,5.530617,2.605921,-1.088694
1142,584399272,-0.678086,-0.651681,0.107491,0.322425,6.010692,2.232013,-0.813189
1143,584432606,-0.676094,-0.639292,0.115389,0.347693,4.784901,3.631442,-1.073827
1144,584465940,-0.669966,-0.624880,0.125551,0.380669,3.401536,3.751214,-1.866321
1145,584499274,-0.658856,-0.609796,0.138920,0.418044,2.833272,4.270756,-2.792099
1146,584532608,-0.647257,-0.591210,0.153136,0.456159,1.781139,2.981051,-2.123949
1147,584565942,-0.625060,-0.581901,0.172067,0.491005,1.265686,1.680954,-1.974533
1148,584599276,-0.600087,-0.574005,0.194907,0.521945,1.573762,1.657130,-3.316873
1149,584632610,-0.581793,-0.558157,0.219813,0.549239,0.754367,-0.162702,-3.490117
1150,584665944,-0.571710,-0.533915,0.247380,0.571741,-0.708234,-1.333846,-3.307219
1151,584699278,-0.573458,-0.498807,0.274260,0.589170,-0.275553,0.294285,-4.551835
1152,584732612,-0.608549,-0.428018,0.274593,0.609155,-1.369081,-2.548520,-1.842628
1153,584765946,-0.652940,-0.333027,0.262168,0.627720,-5.900600,-4.048765,-3.243292
1154,584799280,-0.661653,-0.280385,0.309306,0.622841,-3.987652,-6.725233,-1.595763
1155,584832614,-0.676059,-0.213768,0.351331,0.611406,-1.668707,-8.902377,7.234709
1156,584865948,-0.699716,-0.119336,0.343102,0.615175,-1.627271,-6.888812,4.757540
1157,584899282,-0.705877,-0.074718,0.351291,0.610534,-3.249034,-6.961735,4.133786
1158,584932616,-0.709365,-0.045281,0.348936,0.610735,0.571231,-7.943135,0.346433
1159,584965950,-0.708125,-0.039945,0.346464,0.613945,-3.501713,-6.653789,0.093827
1160,584999284,-0.704124,-0.067252,0.357933,0.609568,-3.241113,-5.712404,1.584810
1161,585032618,-0.698733,-0.114540,0.376419,0.597464,-0.170043,-6.071395,1.487853
1162,585065952,-0.689734,-0.171322,0.396021,0.581452,-0.819255,-6.173189,0.457101
1163,585099286,-0.680964,-0.231039,0.413647,0.558397,0.624203,-5.026153,-0.140779
1164,585132620,-0.679516,-0.280481,0.422529,0.530151,1.399948,-2.875515,-0.428093
1165,585165954,-0.683887,-0.324810,0.426385,0.494970,0.751092,-2.620853,0.076499
1166,585199288,-0.693578,-0.366509,0.424144,0.452466,1.871694,-0.396858,0.690231
1167,585232622,-0.706164,-0.405328,0.416563,0.404374,2.659231,-0.147110,1.505833
1168,585265956,-0.715322,-0.447851,0.405481,0.351185,2.244601,0.492264,0.498284
1169,585299290,-0.723548,-0.488096,0.387223,0.297155,2.139153,2.743104,1.628937
1170,585332624,-0.736379,-0.516213,0.360386,0.247778,1.902879,3.156597,0.887851
1171,585365958,-0.743887,-0.544755,0.331552,0.199875,1.402689,2.897482,-0.615096
1172,585399292,-0.740689,-0.580547,0.302127,0.151875,0.761301,2.879382,-0.470278
1173,585432626,-0.732330,-0.615862,0.269907,0.107514,0.458534,3.260391,-0.118981
1174,585465960,-0.720170,-0.648659,0.236617,0.067912,0.050819,3.422936,-0.778333
1175,585499294,-0.700013,-0.683397,0.204631,0.032867,-0.638685,3.191468,-0.904047
1176,585532628,-0.675272,-0.716548,0.174808,0.003317,-1.206671,3.090429,0.111901
1177,585565962,-0.655739,-0.740063,0.148198,-0.018784,-1.707557,2.524239,0.494911
1178,585599296,-0.643917,-0.753897,0.125694,-0.034849,-1.932977,1.871109,0.185219
1179,585632630,-0.636767,-0.762136,0.107151,-0.046882,-2.108179,1.570522,0.260498
1180,585665964,-0.632090,-0.767374,0.092188,-0.055700,-1.940204,1.060086,0.360086
1181,585699298,-0.627837,-0.771787,0.079618,-0.061880,-1.851422,0.743693,0.213856
1182,585732632,-0.624638,-0.775056,0.069175,-0.065824,-1.884146,0.425531,0.249224
1183,585765966,-0.623529,-0.776508,0.060886,-0.067398,-1.912013,0.304890,0.222790
1184,585799300,-0.623052,-0.777417,0.054746,-0.066591,-1.957327,0.106779,0.100061
1185,585832634,-0.623131,-0.777850,0.050932,-0.063764,-2.056995,0.095936,0.438301
1186,585865968,-0.625536,-0.776423,0.049613,-0.058429,-2.019328,-0.053832,0.577227
1187,585899302,-0.628749,-0.774374,0.049972,-0.050250,-2.301460,0.431586,0.853036
1188,585932636,-0.638153,-0.767154,0.052126,-0.038989,-3.086401,0.044733,2.168306
1189,585965970,-0.650154,-0.757611,0.052818,-0.023201,-3.489763,-0.601184,2.772359
1190,585999304,-0.669169,-0.741468,0.049376,-0.001757,-3.630167,-0.471711,2.975041
1191,586032638,-0.692987,-0.719350,0.041594,0.024023,-3.215680,-0.616556,1.365523
1192,586065972,-0.712177,-0.699496,0.030622,0.050742,-3.010342,0.184847,0.085855
1193,586099306,-0.727850,-0.681302,0.020466,0.075133,-2.329496,0.312532,-0.161502
1194,586132640,-0.745246,-0.660052,0.012302,0.093761,-1.010324,0.198547,-1.706049
1195,586165974,-0.761593,-0.639736,0.009063,0.103123,-0.864101,0.526619,-3.080621
1196,586199308,-0.785771,-0.610262,0.011644,0.100055,-0.087441,0.290069,-3.807973
1197,586232642,-0.821497,-0.563393,0.018971,0.085869,2.172979,0.823521,-2.986831
1198,586265976,-0.844925,-0.528768,0.030980,0.074496,4.220079,-0.202992,-1.410895
1199,586299310,-0.851861,-0.517512,0.043263,0.068150,5.194044,-0.573329,-0.736149
1200,586332644,-0.846944,-0.525015,0.050446,0.067099,4.696398,-0.132988,0.991226
1201,586365978,-0.836605,-0.540951,0.051204,0.069603,3.191164,-0.035182,0.721910
1202,586399312,-0.825516,-0.557526,0.049443,0.072424,1.330588,-0.106405,-0.493337
1203,586432646,-0.814510,-0.573321,0.047478,0.075000,1.182149,-0.306711,-0.164454
1204,586465980,-0.805899,-0.585135,0.045814,0.077768,0.798749,-0.507490,-0.278249
1205,586499314,-0.793468,-0.601338,0.045091,0.082283,1.523107,0.017105,-0.716622
1206,586532648,-0.775040,-0.624047,0.044124,0.089076,2.042399,0.946221,1.146331
1207,586565982,-0.766848,-0.633354,0.041462,0.095345,2.140994,0.075233,-0.051440
1208,586599316,-0.761721,-0.638872,0.035720,0.101732,1.978651,-0.517695,-0.286564
1209,586632650,-0.763682,-0.636410,0.025771,0.105405,2.116556,0.278359,0.345621
1210,586665984,-0.788263,-0.606208,0.013006,0.104815,0.932228,-0.161263,-1.848349
1211,586699318,-0.820803,-0.562218,0.001258,0.100965,1.063964,-0.443637,-1.398568
1212,586732652,-0.849836,-0.518331,-0.006421,0.095253,-0.083903,-2.193281,-1.696036
1213,586765986,-0.859376,-0.503367,-0.008200,0.089610,-1.212047,-1.282583,-1.419661
1214,586799320,-0.860598,-0.502524,-0.004830,0.082586,-0.856114,1.323456,0.453174
1215,586832654,-0.858165,-0.507771,0.001983,0.075636,-1.487560,-0.297725,-0.229326
1216,586865988,-0.846002,-0.528496,0.009065,0.069954,-1.692592,-0.093834,0.531731
1217,586899322,-0.832203,-0.550563,0.014253,0.064172,-2.194813,1.474842,1.477647
1218,586932656,-0.817906,-0.571673,0.018721,0.062227,-2.660896,1.168230,1.695033
1219,586965990,-0.798111,-0.598485,0.021635,0.066097,-2.555452,0.703587,2.210074
1220,586999324,-0.777353,-0.624215,0.022478,0.074668,-3.292565,0.803293,2.831228
1221,587032658,-0.758392,-0.645344,0.020967,0.089079,-3.340186,0.709061,2.051612
1222,587065992,-0.736315,-0.667486,0.018260,0.109409,-3.134350,0.256960,1.802693
1223,587099326,-0.715468,-0.685850,0.015298,0.132226,-3.091057,-0.031738,1.134680
1224,587132660,-0.694128,-0.702679,0.013425,0.155728,-2.906842,-0.177255,0.860362
1225,587165994,-0.679220,-0.712166,0.013041,0.176951,-2.558375,0.818584,0.931559
1226,587199328,-0.677241,-0.709415,0.014206,0.194619,-1.936964,-0.083608,0.211082
1227,587232662,-0.679891,-0.703192,0.018776,0.207168,-2.240442,0.160953,-1.438395
1228,587265996,-0.668930,-0.709813,0.030375,0.218585,-0.644527,0.499658,-0.562085
1229,587299330,-0.655838,-0.718736,0.044969,0.226441,1.173990,2.505806,1.967274
1230,587332664,-0.665604,-0.706194,0.055479,0.234917,1.630040,1.514762,1.234557
1231,587365998,-0.685029,-0.684302,0.061845,0.242164,0.947328,-0.129527,-1.619848
1232,587399332,-0.695436,-0.671566,0.068151,0.246426,1.351509,-1.303148,-1.836605
1233,587432666,-0.696595,-0.668987,0.073871,0.248509,3.084028,-1.841059,-1.464751
1234,587466000,-0.696832,-0.668006,0.075845,0.249886,2.635261,-1.661652,-1.646716
1235,587499334,-0.690079,-0.674028,0.077302,0.252002,2.925508,-1.263106,-2.471442
1236,587532668,-0.682159,-0.681278,0.075287,0.254662,3.815278,-2.775379,-1.156560
1237,587566002,-0.677580,-0.685105,0.069018,0.258371,3.822732,-1.034096,-1.772159
1238,587599336,-0.674602,-0.686473,0.062359,0.264162,3.375894,-1.537826,-1.669847
1239,587632670,-0.668722,-0.689837,0.058345,0.271172,1.729058,-1.026786,-1.366419
1240,587666004,-0.664737,-0.691206,0.055617,0.277971,1.752395,-2.537054,-0.710264
1241,587699338,-0.666640,-0.687578,0.048044,0.283764,1.136948,-1.249072,-0.412100
1242,587732672,-0.674554,-0.678804,0.037863,0.287699,0.620976,-1.057739,-0.059750
1243,587766006,-0.688685,-0.665222,0.025956,0.287266,0.374042,-1.584010,-0.961481
1244,587799340,-0.699408,-0.656295,0.016324,0.282564,-0.206235,-0.648061,-0.540323
1245,587832674,-0.707370,-0.650710,0.009867,0.275878,-0.272466,0.011017,-0.298891
1246,587866008,-0.714854,-0.645994,0.005787,0.267664,-0.306480,0.586848,0.362367
1247,587899342,-0.723501,-0.640176,0.002379,0.258300,-1.523104,0.505909,0.442100
1248,587932676,-0.731884,-0.634648,-0.000394,0.248135,-2.230602,1.166428,0.285512
1249,587966010,-0.737032,-0.632546,-0.001079,0.238056,-2.567767,0.792582,0.147838
1250,587999344,-0.740038,-0.632506,-0.000209,0.228654,-2.614352,0.900629,0.406911
1251,588032678,-0.741860,-0.633257,0.001313,0.220523,-2.275069,0.309221,1.354080
1252,588066012,-0.743209,-0.633939,0.001615,0.213920,-2.058037,0.209137,1.212252
1253,588099346,-0.741783,-0.636856,0.001660,0.210170,-2.147748,0.928522,1.189919
1254,588132680,-0.737189,-0.642109,0.003099,0.210336,-2.037487,0.892850,1.093924
1255,588166014,-0.735114,-0.643434,0.004882,0.213493,-1.918077,0.969209,1.367330
1256,588199348,-0.735009,-0.641579,0.007720,0.219275,-2.063503,0.709318,0.638772
1257,588232682,-0.731686,-0.642499,0.013268,0.227284,-1.684164,0.614554,0.340390
1258,588266016,-0.726995,-0.644296,0.020560,0.236516,-0.747113,1.229405,0.923617
1259,588299350,-0.722938,-0.644564,0.028606,0.247148,-0.111134,1.925651,0.624165
1260,588332684,-0.717129,-0.644715,0.037178,0.262085,0.107277,2.089059,0.652111
1261,588366018,-0.710905,-0.643258,0.046104,0.280554,0.525049,2.156665,0.232872
1262,588399352,-0.697547,-0.646441,0.058241,0.303565,1.266942,1.971336,-0.429554
1263,588432686,-0.676658,-0.653104,0.075306,0.331542,2.636725,2.888630,-0.175220
1264,588466020,-0.655471,-0.654910,0.096705,0.363457,2.183575,3.161815,-1.211142
1265,588499354,-0.629281,-0.656260,0.124678,0.397223,2.544209,2.700601,-1.667174
1266,588532688,-0.603972,-0.652087,0.157885,0.430203,1.836209,1.825383,-3.361083
1267,588566022,-0.571748,-0.651865,0.200955,0.455845,1.221477,-0.360845,-3.400186
1268,588599356,-0.545157,-0.645325,0.242825,0.476863,1.616979,-0.230062,-1.703555
1269,588632690,-0.521251,-0.635633,0.283828,0.493672,0.800033,-0.598241,-0.942497
1270,588666024,-0.500463,-0.623099,0.322936,0.506951,0.863737,-1.223963,0.296328
1271,588699358,-0.483197,-0.606625,0.359485,0.518941,1.469123,-0.483796,0.250249
1272,588732692,-0.469717,-0.584672,0.393674,0.531552,1.259184,-0.388672,0.235494
1273,588766026,-0.464554,-0.554754,0.421436,0.546655,0.737408,-0.492492,0.520263
1274,588799360,-0.474519,-0.514973,0.435894,0.565362,-1.099052,-1.007372,-1.272188
1275,588832694,-0.483893,-0.478320,0.448986,0.579199,-0.096587,-1.590112,-1.247056
1276,588866028,-0.499285,-0.437785,0.457446,0.591443,-0.385892,-2.419925,-1.528138
1277,588899362,-0.530418,-0.381185,0.450004,0.608978,-0.582486,-3.618606,-3.118309
1278,588932696,-0.563494,-0.317362,0.437255,0.624953,-0.546578,-4.626890,-3.662576
1279,588966030,-0.585452,-0.258853,0.437439,0.631579,-2.493948,-4.896271,-1.859680
1280,588999364,-0.595552,-0.209721,0.452143,0.630004,-1.626081,-4.284235,1.889429
1281,589032698,-0.604928,-0.151832,0.457321,0.633932,-0.830873,-2.610740,3.444376
1282,589066032,-0.617379,-0.068714,0.428985,0.655817,4.314887,-2.699820,1.978143
1283,589099366,-0.618714,0.026569,0.380654,0.686726,-1.414894,-3.510834,2.283522
1284,589132700,-0.612079,0.080011,0.354607,0.702292,-6.039728,-2.371117,2.373338
1285,589166034,-0.610912,0.078143,0.368747,0.696210,-5.732572,-2.874017,2.693584
1286,589199368,-0.613341,0.052342,0.392783,0.683226,-2.665868,-4.363610,1.947969
1287,589232702,-0.616583,0.025733,0.408872,0.672302,-2.608107,-3.665020,1.124393
1288,589266036,-0.623058,-0.002033,0.422694,0.658124,-2.698547,-3.491482,0.380763
1289,589299370,-0.632882,-0.035434,0.440283,0.635891,-1.033821,-3.462952,-0.254799
1290,589332704,-0.646350,-0.069540,0.454595,0.608886,-0.937233,-3.148019,-0.075574
1291,589366038,-0.663301,-0.108989,0.466405,0.574998,-0.457113,-3.774526,-0.258175
1292,589399372,-0.681644,-0.157032,0.477764,0.531458,0.790664,-3.704011,-0.367814
1293,589432706,-0.700586,-0.210019,0.485555,0.478863,2.276795,-2.930887,0.540773
1294,589466040,-0.719530,-0.264319,0.484506,0.421506,3.134143,-2.378417,1.218639
1295,589499374,-0.737224,-0.319742,0.473540,0.360594,4.192653,-0.813293,1.193064
1296,589532708,-0.751483,-0.374705,0.454041,0.297857,4.121606,0.018808,1.053908
1297,589566042,-0.756538,-0.435678,0.429232,0.231512,3.958478,1.660084,0.612734
1298,589599376,-0.758766,-0.488662,0.395314,0.170916,3.163238,3.922597,1.836872
1299,589632710,-0.760697,-0.529889,0.355699,0.118483,2.216862,4.354968,-0.372343
1300,589666044,-0.754325,-0.570469,0.316802,0.072091,0.772364,4.635612,-1.134190
1301,589699378,-0.741383,-0.608578,0.280804,0.033692,-0.220422,4.741176,-1.010981
1302,589732712,-0.726007,-0.640628,0.249999,0.003711,-1.144035,5.071245,-0.960107
1303,589766046,-0.709168,-0.667676,0.225755,-0.018066,-2.134634,3.801280,-1.238089
1304,589799380,-0.695957,-0.687174,0.205619,-0.034043,-2.329668,1.750376,-0.625324
1305,589832714,-0.686642,-0.700910,0.187492,-0.045784,-2.419473,1.970313,-0.534731
1306,589866048,-0.674321,-0.716152,0.171997,-0.053261,-2.645617,1.835320,-0.400760
1307,589899382,-0.661307,-0.730887,0.159165,-0.056098,-2.759299,0.628176,0.685297
1308,589932716,-0.655592,-0.738325,0.148894,-0.053927,-2.664517,0.080733,1.146444
1309,589966050,-0.654143,-0.741713,0.140314,-0.047678,-2.291169,-0.376016,0.860291
1310,589999384,-0.653643,-0.744067,0.132797,-0.038506,-2.006396,-0.584226,0.589000
1311,590032718,-0.654980,-0.744479,0.126660,-0.026694,-1.746881,-0.559842,0.575263
1312,590066052,-0.655363,-0.745313,0.121871,-0.012540,-1.608373,-0.253142,0.332744
1313,590099386,-0.654243,-0.747022,0.117940,0.004144,-2.013365,0.355366,1.860936
1314,590132720,-0.655384,-0.746210,0.114261,0.024277,-2.169411,0.094733,2.428972
1315,590166054,-0.655889,-0.745548,0.107701,0.048692,-1.872547,0.129864,2.401037
1316,590199388,-0.656012,-0.744377,0.097955,0.077193,-2.278450,0.234193,-0.141623
1317,590232722,-0.659830,-0.738609,0.087183,0.107156,-3.260704,-0.448544,-1.449573
1318,590266056,-0.667192,-0.728429,0.076739,0.135496,-3.648837,-0.020588,-2.463945
1319,590299390,-0.677668,-0.714744,0.068064,0.158989,-3.206212,1.443535,-1.250291
1320,590332724,-0.691824,-0.697827,0.061900,0.174894,-1.228863,-0.155163,-0.712672
1321,590366058,-0.692852,-0.694772,0.058277,0.183992,0.410568,0.121277,-0.750295
1322,590399392,-0.684356,-0.702506,0.056866,0.186844,1.621736,0.611934,0.347926
1323,590432726,-0.678765,-0.708515,0.055779,0.184866,1.075061,0.639008,-1.985284
1324,590466060,-0.673872,-0.714663,0.057185,0.178566,1.603664,0.870131,-1.133975
1325,590499394,-0.659657,-0.729414,0.062372,0.170057,2.559149,-0.803967,-1.870824
1326,590532728,-0.624280,-0.761073,0.068627,0.162283,3.546148,-1.011765,-0.242480
1327,590566062,-0.588823,-0.789905,0.070506,0.156106,3.492104,0.634510,1.380572
1328,590599396,-0.578141,-0.798549,0.067926,0.153168,3.217609,1.624150,1.887285
1329,590632730,-0.582742,-0.795564,0.064728,0.152653,3.424754,0.166913,-0.184710
1330,590666064,-0.587732,-0.791933,0.062005,0.153530,2.796344,-0.526709,-0.453878
1331,590699398,-0.589997,-0.789811,0.060456,0.156363,2.334495,-0.553501,-0.111166
1332,590732732,-0.598081,-0.783103,0.059337,0.159782,1.858213,0.065763,0.098056
1333,590766066,-0.612603,-0.771091,0.058079,0.163602,1.280119,-0.731614,-0.979630
1334,590799400,-0.620585,-0.764198,0.056095,0.166530,0.512453,-0.573730,-1.110829
1335,590832734,-0.627003,-0.759069,0.053243,0.166884,0.343212,-0.787017,-0.587816
1336,590866068,-0.633253,-0.754491,0.049312,0.165241,0.212583,-1.098220,-1.076048
1337,590899402,-0.639775,-0.750150,0.044336,0.161246,0.423573,-0.363100,-0.409828
1338,590932736,-0.648878,-0.743962,0.038978,0.154794,-0.507763,-1.346962,-0.706717
1339,590966070,-0.652379,-0.743135,0.032867,0.145170,-0.422171,-0.615540,0.042655
1340,590999404,-0.653995,-0.744233,0.027039,0.132964,-0.453187,0.395838,0.208200
1341,591032738,-0.656007,-0.744818,0.021738,0.120129,-0.658657,-0.204579,0.787044
1342,591066072,-0.661500,-0.741965,0.014943,0.108100,-0.700909,0.362324,1.519217
1343,591099406,-0.670248,-0.735590,0.008259,0.098028,-0.956268,1.037470,-0.262031
1344,591132740,-0.670987,-0.735922,0.003727,0.090461,-1.326180,1.045160,-0.094120
1345,591166074,-0.670636,-0.737034,0.001820,0.083831,-1.300075,1.039722,-0.280730
1346,591199408,-0.671465,-0.736977,0.002575,0.077428,-1.248989,0.322259,-0.708309
1347,591232742,-0.669478,-0.739438,0.004965,0.070771,-1.308493,-0.304722,-0.919640
1348,591266076,-0.664038,-0.744972,0.008596,0.063229,-1.323036,0.028802,-0.370368
1349,591299410,-0.657670,-0.751132,0.013894,0.055507,-1.362137,0.209183,-0.187016
1350,591332744,-0.651378,-0.756954,0.020596,0.048026,-1.379623,-0.211221,-0.236539
1351,591366078,-0.645227,-0.762367,0.028480,0.040868,-1.037299,-0.516264,-0.024486
1352,591399412,-0.641326,-0.765657,0.036705,0.033559,-0.719347,-0.829727,0.446582
1353,591432746,-0.642116,-0.764892,0.044294,0.025870,-0.215755,-0.724121,0.459387
1354,591466080,-0.644319,-0.762851,0.050990,0.017745,0.008129,-0.509423,-0.206177
1355,591499414,-0.647270,-0.760058,0.057216,0.009083,-0.045462,-0.554832,0.207284
1356,591532748,-0.649155,-0.758045,0.062994,0.000701,0.007131,-0.237777,-0.017649
1357,591566082,-0.648315,-0.758245,0.068644,-0.006581,-0.196457,0.018660,0.346077
1358,591599416,-0.646621,-0.759104,0.074141,-0.012169,-0.268803,0.155177,0.602702
1359,591632750,-0.645238,-0.759697,0.079204,-0.016065,-0.513897,0.231340,0.770159
1360,591666084,-0.644670,-0.759635,0.083842,-0.018091,-0.879388,0.248415,0.535714
1361,591699418,-0.644412,-0.759393,0.087854,-0.018441,-1.267307,-0.079322,0.697377
1362,591732752,-0.646942,-0.756807,0.091902,-0.016347,-2.130665,0.449987,0.917695
1363,591766086,-0.648876,-0.754534,0.097614,-0.010571,-2.603125,0.317550,0.433499
1364,591799420,-0.646211,-0.755998,0.104303,-0.001060,-3.047615,0.673295,1.084914
1365,591832754,-0.646590,-0.754367,0.112613,0.013150,-3.485920,1.431042,1.928272
1366,591866088,-0.647613,-0.751412,0.121910,0.033445,-3.155043,1.236587,1.352856
1367,591899422,-0.644663,-0.750915,0.130197,0.059904,-2.743880,2.326588,2.241091
1368,591932756,-0.645946,-0.745069,0.137923,0.092765,-2.219240,3.144905,2.440155
1369,591966090,-0.645728,-0.738133,0.144584,0.131506,-1.150491,2.349197,0.923544
1370,591999424,-0.642775,-0.730699,0.150843,0.173689,-0.022748,3.432392,2.164560
1371,592032758,-0.642107,-0.717719,0.156997,0.218937,0.973803,3.323131,0.298807
1372,592066092,-0.631335,-0.709160,0.167070,0.265704,2.150176,4.109615,0.423509
1373,592099426,-0.620038,-0.695471,0.181210,0.314705,2.674029,3.753432,-0.147874
1374,592132760,-0.604386,-0.679379,0.200010,0.364912,3.468754,3.589988,-1.523008
1375,592166094,-0.581691,-0.662764,0.226543,0.413595,4.370012,2.306800,-3.233346
1376,592199428,-0.553890,-0.647065,0.259978,0.454892,2.832684,0.437832,-2.553835
1377,592232762,-0.526624,-0.627700,0.294221,0.492032,4.493870,1.155051,-1.333343
1378,592266096,-0.502233,-0.602915,0.326678,0.526820,3.455720,-0.376506,-0.733077
1379,592299430,-0.481264,-0.575363,0.353535,0.558891,1.987493,-0.828644,-1.264749
1380,592332764,-0.460419,-0.549792,0.378485,0.585231,2.177547,-1.345074,-1.016391
1381,592366098,-0.444169,-0.522532,0.400143,0.607916,1.609286,-2.461203,-1.288092
1382,592399432,-0.439899,-0.487586,0.412255,0.631504,2.230406,-3.345694,-0.719273
1383,592432766,-0.454137,-0.444203,0.404712,0.657764,-2.125993,-4.875103,-3.671873
1384,592466100,-0.463431,-0.414429,0.398096,0.674539,-2.464518,-5.278529,-2.017647
1385,592499434,-0.461151,-0.402021,0.405855,0.678972,-1.061647,-3.739988,-1.763392
1386,592532768,-0.462154,-0.389686,0.416669,0.678932,-0.767529,-1.702849,-1.358079
1387,592566102,-0.469535,-0.370987,0.424403,0.679551,-1.290507,-0.824834,-1.153752
1388,592599436,-0.487141,-0.339923,0.424777,0.683164,-1.117913,-1.255519,-1.837765
1389,592632770,-0.518861,-0.285512,0.408814,0.694363,-2.194429,-1.133258,-2.667999
1390,592666104,-0.556146,-0.208375,0.378480,0.709956,-2.308214,-2.181185,-1.934172
1391,592699438,-0.587695,-0.114421,0.338344,0.725981,-2.066570,-4.881902,1.903419
1392,592732772,-0.600695,-0.041110,0.314385,0.733921,-4.120712,-4.563093,4.379049
1393,592766106,-0.607430,0.006979,0.299271,0.735812,-2.093853,-4.260478,3.111349
1394,592799440,-0.612639,0.029072,0.295677,0.732398,-2.194587,-4.555800,1.208738
1395,592832774,-0.618246,0.030068,0.304756,0.723875,-4.963187,-3.512419,-0.248305
1396,592866108,-0.625143,0.009246,0.330052,0.707234,-2.834164,-3.944832,1.015693
1397,592899442,-0.633766,-0.019707,0.353346,0.687823,-0.828344,-4.435863,1.180542
1398,592932776,-0.644022,-0.053796,0.374070,0.665143,-0.477059,-4.124895,0.420343
1399,592966110,-0.656324,-0.091284,0.392841,0.637640,0.055844,-3.527831,1.281500
1400,592999444,-0.671036,-0.130497,0.405361,0.606932,0.150744,-3.810741,0.875622
1401,593032778,-0.686360,-0.173466,0.414636,0.571751,0.833657,-3.397476,-0.447721
1402,593066112,-0.700832,-0.219612,0.423449,0.530377,1.891438,-3.241782,-0.018207
1403,593099446,-0.715094,-0.266870,0.428697,0.483365,2.046058,-2.281247,0.054246
1404,593132780,-0.728490,-0.317005,0.429595,0.429256,2.900784,-1.325257,0.975138
1405,593166114,-0.740914,-0.366765,0.422990,0.370960,3.194964,-0.255267,0.733103
1406,593199448,-0.746793,-0.421630,0.411714,0.308257,3.291572,1.310291,0.292642
1407,593232782,-0.753138,-0.469378,0.388320,0.248350,3.138146,3.776911,2.178363
1408,593266116,-0.764053,-0.498930,0.356386,0.200708,2.155970,3.439315,0.693453
1409,593299450,-0.776886,-0.518230,0.319519,0.160608,1.346068,4.776370,2.156218
1410,593332784,-0.787355,-0.534056,0.280760,0.126623,0.134053,2.236975,0.240664
1411,593366118,-0.788063,-0.559427,0.239392,0.093235,0.050126,3.173858,1.163372
1412,593399452,-0.786527,-0.581811,0.196189,0.066216,-0.310716,3.913959,-0.177053
1413,593432786,-0.783261,-0.600365,0.154647,0.046378,-0.689020,3.198486,-1.310837
1414,593466120,-0.774839,-0.620528,0.116596,0.031253,-0.685936,2.182139,-2.100482
1415,593499454,-0.760251,-0.644100,0.082613,0.018213,-0.523832,1.774865,-1.942953
1416,593532788,-0.744014,-0.666015,0.053175,0.006569,-0.613130,1.861300,-1.716149
1417,593566122,-0.728261,-0.684658,0.029409,-0.004278,-0.605352,1.607033,-1.466239
1418,593599456,-0.712601,-0.701335,0.010892,-0.014595,-0.595463,1.107689,-0.914987
1419,593632790,-0.698471,-0.715194,-0.003215,-0.025079,-0.846042,1.074230,-0.457983
1420,593666124,-0.687641,-0.725060,-0.013159,-0.035611,-1.098948,0.876314,-0.051725
1421,593699458,-0.681187,-0.730400,-0.019085,-0.046245,-1.612134,0.879017,-0.197983
1422,593732792,-0.675457,-0.735031,-0.020972,-0.055234,-2.164049,0.398344,-0.788713
1423,593766126,-0.662435,-0.746245,-0.020672,-0.062238,-1.976482,-0.427872,0.587732
1424,593799460,-0.653638,-0.753538,-0.017948,-0.067959,-2.319227,-0.341053,1.854843
1425,593832794,-0.652252,-0.754620,-0.013454,-0.070274,-2.191721,-0.368364,1.363503
1426,593866128,-0.654200,-0.753187,-0.008836,-0.068235,-1.964352,-0.852508,1.153120
1427,593899462,-0.657945,-0.750391,-0.004982,-0.063247,-1.991055,-0.627232,0.764135
1428,593932796,-0.662871,-0.746642,-0.001153,-0.055936,-1.686405,-0.203463,0.453126
1429,593966130,-0.667038,-0.743552,0.002709,-0.046751,-1.446294,-0.266534,0.178889
1430,593999464,-0.671837,-0.739781,0.006622,-0.036314,-1.381553,0.007420,0.293374
1431,594032798,-0.678298,-0.734276,0.011075,-0.025090,-1.132073,0.104099,-0.084831
1432,594066132,-0.682998,-0.730135,0.015585,-0.013289,-1.037365,0.229970,-0.430234
1433,594099466,-0.685533,-0.727759,0.020323,-0.001179,-0.948378,0.646997,-0.500849
1434,594132800,-0.689869,-0.723421,0.025303,0.010284,-0.597290,-0.717350,-0.550373
1435,594166134,-0.693622,-0.719511,0.028569,0.019474,-0.885334,-1.373201,-1.556316
1436,594199468,-0.692007,-0.720741,0.030530,0.026985,-0.972863,-0.002799,0.032498
1437,594232802,-0.689501,-0.722677,0.032310,0.035852,-1.393150,1.168855,1.125428
1438,594266136,-0.687525,-0.723799,0.034595,0.047233,-1.133803,1.201632,2.118205
1439,594299470,-0.685384,-0.724469,0.036834,0.063562,-1.357604,1.904478,2.296014
1440,594332804,-0.682696,-0.724543,0.039309,0.086139,-1.164082,2.116898,2.271955
1441,594366138,-0.683690,-0.719623,0.042554,0.113589,-1.530989,2.330252,1.869116
1442,594399472,-0.688435,-0.709501,0.045249,0.143601,-1.503751,1.008080,0.977550
1443,594432806,-0.695563,-0.696317,0.047874,0.170430,-3.519697,0.963300,-1.362338
1444,594466140,-0.705963,-0.680027,0.053880,0.190470,-4.115976,-0.505231,-2.504622
1445,594499474,-0.691243,-0.690280,0.065185,0.203593,0.856502,0.836470,4.683773
1446,594532808,-0.701211,-0.677208,0.069571,0.211792,1.769466,0.663882,-0.223391
1447,594566142,-0.726231,-0.648969,0.069037,0.216021,1.649198,0.075707,-0.304781
1448,594599476,-0.750443,-0.620444,0.066803,0.217770,1.590737,-1.309566,-1.512617
1449,594632810,-0.754334,-0.615892,0.070803,0.215981,2.545930,-1.538726,-1.378863
1450,594666144,-0.749158,-0.622473,0.078508,0.212437,2.643205,-1.590630,-2.032909
1451,594699478,-0.738576,-0.634791,0.088130,0.209241,3.017543,-1.387471,-2.417466
1452,594732812,-0.726353,-0.648386,0.096544,0.206613,2.981272,-1.485296,-1.373119
1453,594766146,-0.716336,-0.659546,0.101140,0.204047,2.732085,-1.170844,-1.304138
1454,594799480,-0.709816,-0.666922,0.102785,0.202027,1.727914,-1.132384,-1.253644
1455,594832814,-0.700739,-0.676398,0.103874,0.201652,2.862224,-0.113689,-1.288071
1456,594866148,-0.698230,-0.677657,0.103188,0.206426,2.774488,-0.367332,1.095603
1457,594899482,-0.703832,-0.670207,0.101334,0.212549,0.592914,-1.957377,-1.391102
1458,594932816,-0.697785,-0.675830,0.100304,0.215153,0.136091,-1.941898,-1.427566
1459,594966150,-0.694405,-0.679978,0.097256,0.214419,0.591476,-0.600879,0.936515
1460,594999484,-0.699133,-0.675831,0.091852,0.214550,1.023567,-1.094996,0.112580
1461,595032818,-0.702275,-0.672695,0.087053,0.216140,1.453110,0.094820,0.803338
1462,595066152,-0.711655,-0.662131,0.081570,0.220180,0.783892,-0.256719,0.409446
1463,595099486,-0.717321,-0.655062,0.075398,0.225084,1.032284,-1.120774,-0.508304
1464,595132820,-0.719325,-0.652178,0.069199,0.229020,1.221239,0.253218,-0.255237
1465,595166154,-0.719241,-0.651033,0.066443,0.233316,0.434694,-0.261741,-1.088806
1466,595199488,-0.717781,-0.651222,0.067189,0.237040,0.662780,-0.241688,-1.166291
1467,595232822,-0.717766,-0.650232,0.070722,0.238771,-0.421297,0.674147,-1.337803
1468,595266156,-0.716751,-0.651317,0.076810,0.236978,-0.847903,0.313566,-0.111403
1469,595299490,-0.713162,-0.656357,0.083609,0.231535,-0.814937,0.510065,-0.506539
1470,595332824,-0.707544,-0.663801,0.090520,0.224853,-0.878925,0.233623,-0.120251
1471,595366158,-0.702768,-0.670569,0.096755,0.217017,-1.254792,0.265463,0.219407
1472,595399492,-0.698940,-0.676945,0.101550,0.207169,-1.254878,-0.544198,0.375552
1473,595432826,-0.695183,-0.683862,0.104428,0.195324,-1.993509,0.198365,0.360065
1474,595466160,-0.691662,-0.690623,0.107186,0.182095,-1.900219,1.045852,0.555713
1475,595499494,-0.686055,-0.698802,0.110651,0.169598,-1.504511,0.645618,0.592592
1476,595532828,-0.679622,-0.706835,0.113954,0.159736,-1.305266,0.455858,0.799309
1477,595566162,-0.673045,-0.714074,0.117688,0.152517,-1.045877,0.471547,1.053298
1478,595599496,-0.668841,-0.718392,0.121124,0.147979,-1.205084,-0.024075,0.770517
