sep=,
DeviceTag:,23_Right
FirmwareVersion:,2.2.1
AppVersion:,2023.6.0
SyncStatus:,Synced
OutputRate:,30Hz
FilterProfile:,General
Measurement Mode:,Sensor fusion Mode - Complete(Quaternion)
StartTime: ,2026-05-27_15:40:36_455 AEST
© Movella Technologies B. V. 2005-2026

PacketCounter,SampleTimeFine,Quat_W,Quat_X,Quat_Y,Quat_Z,FreeAcc_X,FreeAcc_Y,FreeAcc_Z
1,1009913663,-0.193525,0.527943,-0.480419,-0.673091,-0.467896,-0.133267,0.285405
2,1009946997,-0.193747,0.527166,-0.480743,-0.673405,-0.361638,-0.314840,0.190310
3,1009980331,-0.195153,0.525222,-0.480222,-0.674888,-0.215501,-0.549439,0.091044
4,1010013665,-0.197212,0.522983,-0.478416,-0.677307,-0.133517,-0.251071,-0.020378
5,1010046999,-0.198702,0.521332,-0.476394,-0.679565,0.197706,0.095952,-0.150944
6,1010080333,-0.198129,0.521786,-0.474601,-0.680639,-0.060596,0.703827,-0.013359
7,1010113667,-0.197675,0.521009,-0.472624,-0.682738,-0.190608,1.093472,0.210962
8,1010147001,-0.193046,0.521007,-0.468946,-0.686589,1.882824,1.236365,-0.383783
9,1010180335,-0.183354,0.524224,-0.460876,-0.692238,2.032970,1.358410,-0.869652
10,1010213669,-0.174931,0.527380,-0.447214,-0.700927,1.371893,1.020100,-1.673474
11,1010247003,-0.169388,0.531114,-0.431380,-0.709342,0.273581,-0.079507,-1.458029
12,1010280337,-0.164510,0.539314,-0.416734,-0.713050,-0.451339,-0.628107,-0.642593
13,1010313671,-0.160203,0.548859,-0.404966,-0.713527,-0.679589,-0.873618,0.236739
14,1010347005,-0.156851,0.557712,-0.396134,-0.712365,-0.924812,-1.179285,0.768786
15,1010380339,-0.154117,0.564759,-0.390034,-0.710773,-0.812953,-0.944717,0.939829
16,1010413673,-0.152066,0.569245,-0.386224,-0.709716,-0.855189,-0.797414,0.781908
17,1010447007,-0.150676,0.571676,-0.384152,-0.709184,-0.742277,-0.580997,0.565003
18,1010480341,-0.150300,0.571946,-0.382785,-0.709785,-0.466168,-0.501523,0.241130
19,1010513675,-0.151118,0.570577,-0.381645,-0.711325,-0.498132,-0.497794,0.026053
20,1010547009,-0.152701,0.569017,-0.381323,-0.712408,-0.402780,-0.540759,-0.067212
21,1010580343,-0.154474,0.567741,-0.382278,-0.712532,-0.291256,-0.514507,0.282108
22,1010613677,-0.156202,0.565384,-0.384666,-0.712744,-0.484311,-0.558513,0.672758
23,1010647011,-0.158605,0.560056,-0.388460,-0.714361,-0.478067,-0.608354,0.696312
24,1010680345,-0.159463,0.554567,-0.395439,-0.714623,-0.838655,-0.609285,0.790854
25,1010713679,-0.159385,0.548846,-0.406215,-0.713010,-1.079943,-0.330196,0.881362
26,1010747013,-0.160516,0.539180,-0.419536,-0.712418,-0.930112,-0.224921,0.429973
27,1010780347,-0.162435,0.528407,-0.434983,-0.710789,-0.895529,-0.033497,-0.162449
28,1010813681,-0.166014,0.516854,-0.452175,-0.707721,-2.146367,0.105282,0.130402
29,1010847015,-0.173433,0.501093,-0.469596,-0.705929,-0.922595,0.130176,-0.017358
30,1010880349,-0.182801,0.484875,-0.484780,-0.704627,0.215243,-0.679941,-0.798306
31,1010913683,-0.190937,0.474768,-0.497443,-0.700513,-0.049197,-0.143508,-0.761931
32,1010947017,-0.198693,0.469067,-0.508196,-0.694452,0.560467,0.036792,-1.170924
33,1010980351,-0.206408,0.467083,-0.516652,-0.687263,0.990923,0.288892,-1.544105
34,1011013685,-0.214094,0.468188,-0.522402,-0.679772,1.486189,0.816464,-1.412262
35,1011047019,-0.220240,0.472197,-0.525581,-0.672546,1.985063,1.497345,-1.073155
36,1011080353,-0.222382,0.480823,-0.527444,-0.664220,1.144343,1.932447,-1.246726
37,1011113687,-0.224187,0.488519,-0.527002,-0.658322,0.964771,2.881635,-0.019327
38,1011147021,-0.229877,0.488700,-0.521286,-0.660773,0.631746,1.967643,-0.719467
39,1011180355,-0.235781,0.490926,-0.512664,-0.663781,-0.355310,1.903213,-0.444330
40,1011213689,-0.243309,0.491764,-0.503130,-0.667727,-0.362096,1.912001,1.228711
41,1011247023,-0.253861,0.486710,-0.494015,-0.674276,-0.337109,-0.177077,1.794724
42,1011280357,-0.265023,0.477226,-0.484637,-0.683502,0.055441,-0.775890,1.120743
43,1011313691,-0.274041,0.466607,-0.476853,-0.692691,-0.097476,-1.754664,0.381403
44,1011347025,-0.277972,0.461880,-0.473545,-0.696551,-1.033483,-1.909475,0.083858
45,1011380359,-0.278105,0.461847,-0.476438,-0.694545,-1.415760,-1.136042,0.808656
46,1011413693,-0.278698,0.458872,-0.483147,-0.691638,-0.953612,-0.851168,0.521216
47,1011447027,-0.280341,0.453717,-0.491624,-0.688393,-0.731599,-0.849921,-0.122684
48,1011480361,-0.283415,0.447709,-0.500865,-0.684395,-1.186172,-0.161395,0.356348
49,1011513695,-0.291063,0.435250,-0.509635,-0.682746,-1.377027,0.265713,1.462790
50,1011547029,-0.303679,0.414356,-0.518205,-0.683800,-1.474794,0.083622,1.041287
51,1011580363,-0.315480,0.391638,-0.530722,-0.682244,-1.924009,-1.021469,0.525046
52,1011613697,-0.318287,0.376745,-0.549250,-0.674619,-0.910419,-0.621010,0.239757
53,1011647031,-0.314952,0.366476,-0.571180,-0.663539,-0.472695,-0.254945,0.762617
54,1011680365,-0.312230,0.354320,-0.593365,-0.651857,-0.521988,0.284862,-0.163833
55,1011713699,-0.314144,0.339645,-0.611086,-0.642307,0.870316,-0.153253,-0.627487
56,1011747033,-0.324869,0.322395,-0.619483,-0.637803,0.946638,-1.081103,-1.823958
57,1011780367,-0.333594,0.314962,-0.625287,-0.631316,0.195628,-0.682223,-2.479125
58,1011813701,-0.340619,0.315532,-0.630746,-0.621779,0.805783,0.157687,-0.968995
59,1011847035,-0.348788,0.316283,-0.632739,-0.614804,1.681460,0.056480,-1.012366
60,1011880369,-0.348262,0.324608,-0.637812,-0.605449,1.338090,0.299194,-1.285249
61,1011913703,-0.338152,0.341399,-0.647181,-0.591850,1.466414,1.816000,-0.846984
62,1011947037,-0.330710,0.353468,-0.651766,-0.583886,2.894472,1.723286,-0.536841
63,1011980371,-0.328283,0.362984,-0.648898,-0.582610,1.689143,1.592699,-1.688023
64,1012013705,-0.330201,0.371154,-0.640464,-0.585703,0.531254,0.708013,-1.802638
65,1012047039,-0.329206,0.386348,-0.631915,-0.585724,0.545632,0.779863,-1.709849
66,1012080373,-0.328158,0.406324,-0.622628,-0.582733,0.153972,0.391965,-0.470697
67,1012113707,-0.333033,0.424014,-0.608247,-0.582553,1.167219,-0.567741,-0.288074
68,1012147041,-0.345418,0.433155,-0.587582,-0.589780,-0.662038,0.733116,2.522071
69,1012180375,-0.361408,0.430148,-0.568289,-0.601194,-1.525032,0.408066,3.007488
70,1012213709,-0.377446,0.415936,-0.555867,-0.612841,-2.455821,-0.200045,3.662928
71,1012247043,-0.389202,0.395063,-0.553549,-0.621337,-3.415743,-0.231316,3.107121
72,1012280377,-0.394361,0.373862,-0.561193,-0.624339,-3.079991,-0.083848,2.061231
73,1012313711,-0.393330,0.355281,-0.575140,-0.623146,-1.517949,-0.907094,1.302758
74,1012347045,-0.389087,0.338664,-0.590864,-0.620345,-0.714327,-1.028565,1.043465
75,1012380379,-0.386144,0.319535,-0.603821,-0.619855,0.350837,-1.536784,0.446736
76,1012413713,-0.385496,0.300035,-0.611448,-0.622522,0.106599,-2.360495,-0.828151
77,1012447047,-0.385666,0.286187,-0.616519,-0.623934,-0.808338,-1.466866,-1.787256
78,1012480381,-0.389048,0.277833,-0.619661,-0.622495,-0.061245,-0.733556,-2.365065
79,1012513715,-0.396716,0.274237,-0.619849,-0.619054,1.327009,-0.142778,-2.910540
80,1012547049,-0.404505,0.277528,-0.618110,-0.614267,2.286612,1.641764,-2.574633
81,1012580383,-0.412497,0.283923,-0.612740,-0.611403,2.738648,1.761573,-2.992350
82,1012613717,-0.415593,0.296619,-0.606030,-0.609965,2.351012,2.026975,-2.933930
83,1012647051,-0.412675,0.316635,-0.599471,-0.608363,1.936711,2.467896,-2.552975
84,1012680385,-0.409139,0.338330,-0.591118,-0.607246,1.499295,2.648167,-1.824977
85,1012713719,-0.406513,0.357596,-0.582183,-0.606601,0.883425,3.828304,-1.129292
86,1012747053,-0.405627,0.372341,-0.576266,-0.603968,-0.148522,3.170119,-0.045394
87,1012780387,-0.409051,0.381680,-0.573401,-0.598531,-0.319771,2.856111,-0.129040
88,1012813721,-0.415515,0.387774,-0.575407,-0.588145,-1.249986,2.765089,-0.048220
89,1012847055,-0.427149,0.389488,-0.581084,-0.572900,-1.686367,2.014694,0.201057
90,1012880389,-0.444216,0.387344,-0.588857,-0.553096,-1.189820,1.820829,0.524537
91,1012913723,-0.466915,0.379670,-0.598056,-0.529340,-1.277362,0.796740,0.823649
92,1012947057,-0.488698,0.371171,-0.612008,-0.498882,-0.927665,-0.398851,0.935664
93,1012980391,-0.507368,0.360516,-0.629723,-0.464849,0.423037,-0.346829,2.359239
94,1013013725,-0.531489,0.338867,-0.642517,-0.435764,1.052159,-0.098445,2.709654
95,1013047059,-0.562258,0.307582,-0.647127,-0.412936,1.435496,0.028434,1.395905
96,1013080393,-0.593528,0.272768,-0.648266,-0.391285,1.382060,0.108813,0.385266
97,1013113727,-0.624415,0.237234,-0.646315,-0.368963,1.505318,-0.427977,0.228834
98,1013147061,-0.659804,0.201604,-0.636353,-0.345107,0.673145,-0.665877,-0.524186
99,1013180395,-0.704456,0.167146,-0.611464,-0.319290,-0.108847,-1.178781,-2.600146
100,1013213729,-0.753475,0.143065,-0.575127,-0.284721,-2.380123,-1.550105,-3.641478
101,1013247063,-0.792712,0.133202,-0.542314,-0.244520,-0.145332,0.355990,-3.597346
102,1013280397,-0.797961,0.146167,-0.550369,-0.197529,-1.049148,-1.800981,-4.773158
103,1013313731,-0.791806,0.169873,-0.567348,-0.149439,1.989564,-3.684456,3.208850
104,1013347065,-0.797552,0.186073,-0.561632,-0.117845,1.699528,-2.416101,3.645430
105,1013380399,-0.807099,0.194200,-0.548790,-0.098675,1.478491,-0.905123,2.058157
106,1013413733,-0.807185,0.197944,-0.549906,-0.083089,0.721512,-0.356426,1.445211
107,1013447067,-0.802499,0.199564,-0.558016,-0.069417,0.054339,-0.106802,1.885259
108,1013480401,-0.802577,0.200750,-0.558437,-0.061213,-0.163634,-0.064658,0.894382
109,1013513735,-0.803698,0.203085,-0.556505,-0.056190,-0.151434,0.170003,0.326297
110,1013547069,-0.803109,0.205239,-0.556999,-0.051725,0.139541,0.087508,0.777601
111,1013580403,-0.802378,0.206113,-0.557997,-0.048755,-0.020839,-0.078157,0.957916
112,1013613737,-0.801897,0.205999,-0.558788,-0.048083,-0.243402,-0.115825,0.867323
113,1013647071,-0.799603,0.204987,-0.562309,-0.049550,-0.288644,-0.554184,1.099474
114,1013680405,-0.794517,0.203105,-0.569756,-0.053844,-0.920732,-1.318088,1.478022
115,1013713739,-0.785934,0.200241,-0.581495,-0.064078,-0.460262,-2.575093,1.906924
116,1013747073,-0.771146,0.197635,-0.599364,-0.084071,-0.931004,-3.515008,1.294771
117,1013780407,-0.747049,0.201573,-0.622889,-0.115439,-0.916245,-3.861006,1.620451
118,1013813741,-0.714533,0.211201,-0.648645,-0.155329,-0.261589,-0.792731,3.719518
119,1013847075,-0.676187,0.222641,-0.671793,-0.204762,0.033435,-2.171535,3.771389
120,1013880409,-0.628045,0.238575,-0.692790,-0.262132,0.232660,-2.096780,2.878642
121,1013913743,-0.568258,0.259725,-0.711265,-0.322114,0.464339,-0.889083,2.109489
122,1013947077,-0.507035,0.281052,-0.719260,-0.382910,0.512785,-1.054172,1.070113
123,1013980411,-0.447131,0.302819,-0.716243,-0.442042,1.398299,-0.451768,-0.313964
124,1014013745,-0.392895,0.321687,-0.703628,-0.497080,1.027346,-0.124624,-1.433358
125,1014047079,-0.339556,0.340280,-0.688861,-0.542597,-0.334783,0.151554,-1.456367
126,1014080413,-0.292398,0.355214,-0.672404,-0.579852,-0.007650,0.746692,-1.115170
127,1014113747,-0.256430,0.363078,-0.655240,-0.610826,-0.156996,0.622625,-1.458787
128,1014147081,-0.233988,0.364257,-0.638834,-0.635993,-0.430656,2.087950,-2.007600
129,1014180415,-0.231969,0.355368,-0.622705,-0.657399,-0.545318,2.678702,-3.377645
130,1014213749,-0.243128,0.343523,-0.607132,-0.674019,1.092673,2.248362,-4.745406
131,1014247083,-0.253573,0.342852,-0.592174,-0.683750,1.474973,4.088430,-5.099688
132,1014280417,-0.259586,0.345703,-0.576673,-0.693240,2.631704,5.652377,-4.136159
133,1014313751,-0.262332,0.352888,-0.556398,-0.705056,2.788165,1.385954,-5.349737
134,1014347085,-0.259589,0.374641,-0.535789,-0.710786,2.081480,0.293344,-3.188361
135,1014380419,-0.260283,0.397593,-0.512409,-0.715291,1.319891,-1.091499,-1.032357
136,1014413753,-0.263900,0.416419,-0.487070,-0.720934,-0.352003,-0.481741,1.360124
137,1014447087,-0.267445,0.428890,-0.465678,-0.726430,-1.561145,-1.148284,3.102635
138,1014480421,-0.264965,0.440501,-0.452588,-0.728661,-1.864506,-0.382340,4.592261
139,1014513755,-0.256614,0.449506,-0.448834,-0.728472,-1.801317,-0.258036,4.978815
140,1014547089,-0.243048,0.455301,-0.452881,-0.727020,-1.264229,-0.257511,4.109566
141,1014580423,-0.224462,0.459860,-0.462865,-0.723831,-0.763594,0.008674,2.653203
142,1014613757,-0.203093,0.463148,-0.475948,-0.719549,-0.393268,-0.019655,1.954329
143,1014647091,-0.183589,0.461973,-0.487909,-0.717531,-0.208436,0.241826,0.815346
144,1014680425,-0.169222,0.454075,-0.496529,-0.720187,0.306057,0.053806,-0.045626
145,1014713759,-0.162676,0.440390,-0.501385,-0.726799,-0.110084,-0.059102,-1.493455
146,1014747093,-0.159586,0.427746,-0.505242,-0.732343,0.598288,-0.395947,-2.790095
147,1014780427,-0.151279,0.429325,-0.510454,-0.729563,0.795414,0.324798,-3.437555
148,1014813761,-0.142631,0.438246,-0.514032,-0.723463,1.045125,1.078384,-2.646202
149,1014847095,-0.140022,0.444027,-0.512720,-0.721376,0.748303,1.838447,-3.023911
150,1014880429,-0.138624,0.450503,-0.507442,-0.721362,0.500557,2.711270,-3.603739
151,1014913763,-0.139531,0.456447,-0.494752,-0.726249,0.855230,1.808999,-3.148868
152,1014947097,-0.143855,0.462070,-0.475709,-0.734526,1.082385,0.705690,-2.075558
153,1014980431,-0.151507,0.464638,-0.453691,-0.745219,1.754571,0.242414,-0.132991
154,1015013765,-0.158263,0.464764,-0.433388,-0.755746,0.134683,-0.460828,1.431265
155,1015047099,-0.161132,0.467415,-0.419467,-0.761340,-0.910704,-1.414795,2.746442
156,1015080433,-0.160946,0.471704,-0.414407,-0.761504,-3.801244,-1.795749,4.453699
157,1015113767,-0.162050,0.472223,-0.415862,-0.760154,-3.507668,-1.465775,2.933950
158,1015147101,-0.163505,0.473093,-0.423266,-0.755199,-3.380599,-0.345993,1.863730
159,1015180435,-0.168198,0.471709,-0.435193,-0.748223,-2.937419,0.114192,-0.177483
160,1015213769,-0.171851,0.478361,-0.452152,-0.732958,-2.297210,1.021527,-2.003247
161,1015247103,-0.178150,0.487319,-0.470332,-0.713863,-1.902396,2.720264,-2.010355
162,1015280437,-0.192837,0.487123,-0.484373,-0.700670,-0.959815,3.888000,-2.769886
163,1015313771,-0.212543,0.481325,-0.492573,-0.693220,0.260622,4.408147,-3.007776
164,1015347105,-0.232189,0.477669,-0.494306,-0.688195,1.363821,3.691155,-3.637212
165,1015380439,-0.249930,0.480108,-0.490930,-0.682678,0.635891,3.813567,-3.513598
166,1015413773,-0.270454,0.483623,-0.485013,-0.676576,0.905618,3.010134,-3.293648
167,1015447107,-0.298281,0.486506,-0.477834,-0.667866,1.129245,2.685097,-3.272970
168,1015480441,-0.331937,0.491316,-0.472414,-0.652136,0.801066,2.102306,-2.896876
169,1015513775,-0.366808,0.503486,-0.471504,-0.624234,1.487428,1.304766,-1.303301
170,1015547109,-0.401501,0.520148,-0.473049,-0.586939,1.438245,1.063439,0.621537
171,1015580443,-0.437184,0.533020,-0.475037,-0.546928,1.383833,1.288185,2.484213
172,1015613777,-0.474693,0.536625,-0.477240,-0.508893,1.399118,-0.204008,3.769293
173,1015647111,-0.508267,0.536101,-0.484345,-0.468722,0.233022,-0.761107,3.661917
174,1015680445,-0.536318,0.529729,-0.498911,-0.427631,0.324105,-1.078203,4.107229
175,1015713779,-0.557216,0.517000,-0.521267,-0.387986,0.490626,-1.562967,3.705531
176,1015747113,-0.566197,0.500718,-0.555548,-0.346553,-0.158064,-1.416658,4.132678
177,1015780447,-0.571819,0.474890,-0.590359,-0.314657,-0.155686,-1.497565,3.427081
178,1015813781,-0.580427,0.439883,-0.618364,-0.295406,-0.324821,-1.133530,1.738154
179,1015847115,-0.593712,0.400443,-0.637548,-0.284102,0.135118,-0.957928,0.629640
180,1015880449,-0.610974,0.360237,-0.648459,-0.276533,0.139543,-1.557889,-1.430047
181,1015913783,-0.625104,0.325638,-0.657682,-0.265875,-0.206768,-1.420146,-1.819202
182,1015947117,-0.638573,0.298007,-0.662885,-0.253043,-0.386468,-1.831146,-2.708882
183,1015980451,-0.650742,0.279823,-0.664494,-0.238142,-0.824744,-1.527655,-3.609835
184,1016013785,-0.657606,0.273682,-0.667174,-0.218086,-0.533162,-0.686808,-4.034438
185,1016047119,-0.666109,0.278014,-0.664965,-0.191986,-1.020422,-1.674139,-2.920068
186,1016080453,-0.689527,0.283911,-0.645459,-0.165409,-0.515009,0.832125,-1.429574
187,1016113787,-0.710362,0.296105,-0.624142,-0.134852,0.005191,-0.701228,-3.649551
188,1016147121,-0.702979,0.318307,-0.629281,-0.092396,1.674231,-1.662877,3.584444
189,1016180455,-0.706951,0.335222,-0.619430,-0.064675,0.228223,-1.875775,4.671587
190,1016213789,-0.722411,0.346864,-0.595377,-0.058004,0.422649,-2.016426,2.274815
191,1016247123,-0.730619,0.355659,-0.580030,-0.057436,0.097344,-1.199047,1.512167
192,1016280457,-0.729401,0.362701,-0.577222,-0.057154,-0.325643,-0.932022,1.408490
193,1016313791,-0.724431,0.368585,-0.579374,-0.060832,-0.349466,-1.064412,1.518742
194,1016347125,-0.718907,0.373693,-0.581802,-0.071153,-0.412786,-1.543382,1.830227
195,1016380459,-0.713737,0.378927,-0.582228,-0.089638,-0.166583,-2.011662,1.734602
196,1016413793,-0.703136,0.385713,-0.586414,-0.113906,0.057306,-2.830340,1.040273
197,1016447127,-0.682110,0.397047,-0.597658,-0.141119,0.131322,-3.949648,1.619178
198,1016480461,-0.658463,0.411269,-0.604762,-0.177701,0.584306,-2.680449,2.511269
199,1016513795,-0.632217,0.425507,-0.608213,-0.222153,0.696799,-1.909513,2.585910
200,1016547129,-0.598141,0.440130,-0.610979,-0.274315,1.618055,-2.069638,4.446404
201,1016580463,-0.552364,0.455000,-0.614859,-0.331432,2.228811,-1.677602,3.008468
202,1016613797,-0.492569,0.472027,-0.619010,-0.389131,2.608934,-0.411931,3.614197
203,1016647131,-0.430013,0.483691,-0.613154,-0.452996,3.077403,0.412547,2.103426
204,1016680465,-0.362527,0.491803,-0.601444,-0.514780,3.246058,1.085407,0.363338
205,1016713799,-0.292791,0.498539,-0.584564,-0.569252,2.178231,1.204848,-1.790937
206,1016747133,-0.227489,0.503552,-0.562193,-0.615348,1.151917,1.163436,-2.641204
207,1016780467,-0.172817,0.504902,-0.536137,-0.654060,0.486880,1.143612,-2.957179
208,1016813801,-0.131048,0.502303,-0.510665,-0.685398,-0.683957,0.565944,-3.278293
209,1016847135,-0.099508,0.502136,-0.490550,-0.705229,-0.467976,0.024247,-3.774376
210,1016880469,-0.078560,0.505461,-0.475093,-0.715999,-0.037692,1.084290,-3.937902
211,1016913803,-0.064297,0.514585,-0.462334,-0.719267,0.197587,1.934857,-4.240635
212,1016947137,-0.052652,0.530648,-0.449182,-0.716873,-0.034015,3.845190,-3.739371
213,1016980471,-0.039038,0.552598,-0.433461,-0.710811,0.266203,4.681448,-3.429886
214,1017013805,-0.026798,0.573929,-0.413197,-0.706530,-0.399196,5.628758,-2.150045
215,1017047139,-0.022672,0.581345,-0.388614,-0.714516,-1.019639,4.230134,-2.464450
216,1017080473,-0.021658,0.585118,-0.360716,-0.726004,-0.090123,2.667924,-3.287689
217,1017113807,-0.021501,0.591564,-0.328632,-0.735949,0.073064,2.693669,-2.159500
218,1017147141,-0.025954,0.595875,-0.296130,-0.746054,-2.404082,-0.017510,-1.114052
219,1017180475,-0.031017,0.605654,-0.269144,-0.748207,-1.491254,-1.410586,-0.659686
220,1017213809,-0.037580,0.620994,-0.253336,-0.740813,-1.611319,-2.433175,3.380376
221,1017247143,-0.046396,0.631341,-0.248222,-0.733262,-0.741935,-2.988267,4.286951
222,1017280477,-0.051979,0.641156,-0.251795,-0.723082,-1.139771,-2.600949,5.610719
223,1017313811,-0.055205,0.638332,-0.261843,-0.721771,-0.706609,-1.762934,5.754751
224,1017347145,-0.054825,0.625159,-0.276055,-0.728007,0.257285,-1.128904,3.675180
225,1017380479,-0.050983,0.610923,-0.292698,-0.733847,0.144804,-1.279018,2.528593
226,1017413813,-0.044272,0.595504,-0.310473,-0.739630,0.313827,-1.219193,1.623111
227,1017447147,-0.036239,0.578239,-0.327327,-0.746468,0.437754,-0.747075,0.786287
228,1017480481,-0.027692,0.561640,-0.343376,-0.752275,-0.183449,-0.423519,-0.218385
229,1017513815,-0.020605,0.545157,-0.359143,-0.757249,-0.329958,0.025544,-0.408171
230,1017547149,-0.020939,0.520572,-0.373268,-0.767637,-0.775179,0.391251,-0.976933
231,1017580483,-0.028603,0.489607,-0.385827,-0.781431,0.028742,0.061952,-2.103205
232,1017613817,-0.040271,0.460209,-0.396276,-0.793461,0.266163,-0.004620,-2.184101
233,1017647151,-0.055179,0.430571,-0.404191,-0.805123,0.326746,0.397378,-3.079485
234,1017680485,-0.065369,0.413317,-0.410100,-0.810398,0.529727,0.333763,-3.327471
235,1017713819,-0.070137,0.410370,-0.413119,-0.809963,-0.109677,1.411764,-3.187352
236,1017747153,-0.071512,0.415339,-0.412891,-0.807423,0.152254,2.095589,-3.629663
237,1017780487,-0.071618,0.423161,-0.407818,-0.805928,-0.242294,1.861036,-2.373395
238,1017813821,-0.074692,0.425814,-0.398332,-0.808990,0.371439,0.701459,-0.818300
239,1017847155,-0.082220,0.419426,-0.386011,-0.817525,0.554358,-0.125140,0.597052
240,1017880489,-0.088298,0.413765,-0.374511,-0.825091,-0.509953,-0.370684,1.190465
241,1017913823,-0.089447,0.412720,-0.366684,-0.828996,-0.022396,-0.351606,2.547844
242,1017947157,-0.087385,0.410879,-0.362185,-0.832103,-0.590870,-0.182516,3.314355
243,1017980491,-0.083089,0.406713,-0.361501,-0.834882,-0.582634,-0.640566,2.915349
244,1018013825,-0.076828,0.402316,-0.364911,-0.836128,-0.876019,-0.630525,2.493214
245,1018047159,-0.069095,0.397208,-0.372904,-0.835718,-0.910518,-0.770337,2.198533
246,1018080493,-0.061168,0.390720,-0.384707,-0.834043,-0.937484,-0.756530,1.376159
247,1018113827,-0.054001,0.383183,-0.398226,-0.831686,-0.750758,-0.656334,0.655082
248,1018147161,-0.050034,0.370867,-0.411445,-0.831082,-0.867851,-0.215235,0.185637
249,1018180495,-0.050533,0.352953,-0.424002,-0.832540,-1.081727,-0.395624,-0.639274
250,1018213829,-0.054964,0.333901,-0.436377,-0.833723,-1.110831,-0.536754,-1.013192
251,1018247163,-0.065690,0.312750,-0.448355,-0.834793,-1.301670,-0.327773,-1.302578
252,1018280497,-0.085841,0.286263,-0.458545,-0.836930,-1.172318,-0.387708,-2.025892
253,1018313831,-0.111679,0.261670,-0.465937,-0.837848,-1.361361,-0.474256,-3.170838
254,1018347165,-0.135614,0.250644,-0.472011,-0.834280,-0.546559,0.278789,-3.430623
255,1018380499,-0.159774,0.245785,-0.475278,-0.829580,0.485418,0.988673,-2.995470
256,1018413833,-0.180498,0.247090,-0.476010,-0.824507,0.923628,1.580478,-2.362700
257,1018447167,-0.194223,0.258756,-0.474523,-0.818646,0.691794,1.704000,-2.107922
258,1018480501,-0.202255,0.275920,-0.471420,-0.812868,1.328013,1.858375,-1.007844
259,1018513835,-0.208943,0.290831,-0.464063,-0.810207,0.831106,1.805969,-0.185384
260,1018547169,-0.212635,0.305447,-0.454832,-0.809102,0.597594,0.955064,0.232890
261,1018580503,-0.215127,0.317569,-0.445389,-0.809030,0.605230,1.071130,1.652671
262,1018613837,-0.217351,0.326316,-0.437214,-0.809414,-0.068325,0.491708,1.897159
263,1018647171,-0.215151,0.340202,-0.432504,-0.806810,-0.402181,-0.527876,2.706468
264,1018680505,-0.210043,0.354535,-0.430379,-0.803113,-0.972304,-0.655758,3.601797
265,1018713839,-0.205806,0.359772,-0.430922,-0.801589,-1.728942,-1.153221,4.550683
266,1018747173,-0.202718,0.355371,-0.435288,-0.801979,-2.045560,-1.304586,4.071085
267,1018780507,-0.199047,0.345419,-0.444575,-0.802153,-1.891970,-0.907929,3.150972
268,1018813841,-0.195483,0.331263,-0.456986,-0.802026,-1.152682,-0.479783,1.789238
269,1018847175,-0.193095,0.313428,-0.470485,-0.801967,-0.779737,-0.151567,0.758930
270,1018880509,-0.194239,0.290935,-0.483372,-0.802502,-0.537928,-0.717520,-0.024278
271,1018913843,-0.199300,0.266202,-0.493938,-0.803413,-0.268925,-1.202468,-0.433383
272,1018947177,-0.207852,0.242488,-0.501503,-0.804066,0.061338,-1.130441,-1.181909
273,1018980511,-0.217806,0.225746,-0.506677,-0.803062,-0.126369,-1.152251,-1.837356
274,1019013845,-0.228982,0.217792,-0.509321,-0.800473,-0.211304,-0.312059,-2.304264
275,1019047179,-0.239171,0.219617,-0.510240,-0.796399,0.214848,0.234350,-2.801349
276,1019080513,-0.247707,0.228965,-0.509734,-0.791465,0.713688,1.459207,-2.564473
277,1019113847,-0.252138,0.242282,-0.507890,-0.787276,1.110371,3.305224,-3.116851
278,1019147181,-0.251674,0.255352,-0.503169,-0.786325,2.247502,1.229121,-2.094031
279,1019180515,-0.253004,0.262032,-0.495514,-0.788559,1.092283,1.465624,-0.502591
280,1019213849,-0.252666,0.267683,-0.488879,-0.790907,0.148837,0.179883,-0.798450
281,1019247183,-0.246460,0.282293,-0.486350,-0.789343,0.850585,0.988607,-0.692570
282,1019280517,-0.239544,0.300027,-0.484044,-0.786342,0.212885,0.548791,-0.173716
283,1019313851,-0.237105,0.313139,-0.479688,-0.784636,-1.128208,0.007328,1.412016
284,1019347185,-0.239314,0.317986,-0.474374,-0.785247,-2.389745,-0.152309,2.516342
285,1019380519,-0.243178,0.318220,-0.471553,-0.785664,-2.965903,-1.688718,3.579294
286,1019413853,-0.245043,0.320573,-0.475875,-0.781512,-2.930962,-0.957384,3.849967
287,1019447187,-0.248636,0.317878,-0.485320,-0.775647,-2.213142,0.129312,2.263424
288,1019480521,-0.255249,0.309421,-0.495675,-0.770353,-0.903997,0.904529,0.265598
289,1019513855,-0.266413,0.296067,-0.503853,-0.766505,-0.467117,1.192831,-1.357425
290,1019547189,-0.281938,0.281846,-0.509252,-0.762736,-0.164713,0.993358,-2.979194
291,1019580523,-0.300009,0.272118,-0.513225,-0.756688,0.095654,1.096732,-3.753922
292,1019613857,-0.319575,0.269935,-0.516124,-0.747431,0.650336,1.279967,-4.436477
293,1019647191,-0.338209,0.279473,-0.517770,-0.734476,1.351481,1.724173,-5.011901
294,1019680525,-0.356756,0.300485,-0.516729,-0.717953,1.626252,2.192757,-4.496924
295,1019713859,-0.377920,0.327181,-0.510982,-0.699326,2.278429,2.558198,-3.543391
296,1019747193,-0.403976,0.354649,-0.500294,-0.678796,2.707318,2.557636,-3.008472
297,1019780527,-0.431410,0.387566,-0.488185,-0.652214,2.900517,2.643324,-2.329475
298,1019813861,-0.455706,0.427616,-0.478283,-0.617052,3.339600,2.893864,-0.738860
299,1019847195,-0.477097,0.468764,-0.473370,-0.573227,1.809237,2.275502,1.716012
300,1019880529,-0.493673,0.506395,-0.478229,-0.520747,1.315312,0.953035,3.351329
301,1019913863,-0.507191,0.534363,-0.493036,-0.462774,-0.624874,-0.360003,5.625071
302,1019947197,-0.527334,0.541782,-0.507443,-0.413428,-1.602721,-1.206025,5.474069
303,1019980531,-0.552927,0.531521,-0.521630,-0.373751,-1.821070,-1.732333,3.827173
304,1020013865,-0.574686,0.512470,-0.543537,-0.334230,-1.917064,-1.870819,2.391160
305,1020047199,-0.590945,0.486710,-0.572228,-0.294080,-1.679807,-1.824055,1.851371
306,1020080533,-0.606644,0.453628,-0.599224,-0.259164,-1.314124,-1.941021,0.887957
307,1020113867,-0.623308,0.417100,-0.620206,-0.229978,-1.108080,-1.757486,-0.479415
308,1020147201,-0.641266,0.381541,-0.633831,-0.203698,-1.001306,-1.322605,-1.740159
309,1020180535,-0.660701,0.350757,-0.639585,-0.177219,-0.627104,-1.558902,-2.971464
310,1020213869,-0.679478,0.327659,-0.639670,-0.147657,-0.313626,-0.967440,-2.608622
311,1020247203,-0.693357,0.314210,-0.638622,-0.112782,0.508143,-1.150115,-2.392416
312,1020280537,-0.695820,0.313223,-0.642589,-0.069541,1.179865,0.147691,-1.982780
313,1020313871,-0.689943,0.319315,-0.649088,-0.027057,0.469481,-0.649650,1.440126
314,1020347205,-0.684467,0.329912,-0.650102,0.007781,0.559024,-1.699641,1.714082
315,1020380539,-0.676797,0.343769,-0.649876,0.038224,1.873978,-1.528375,2.685483
316,1020413873,-0.674963,0.353629,-0.645484,0.052459,0.293827,-1.597098,5.013178
317,1020447207,-0.687010,0.359015,-0.630191,0.044891,0.889354,-1.498455,2.962111
318,1020480541,-0.692306,0.359467,-0.624931,0.031419,0.823788,-0.926079,0.803341
319,1020513875,-0.686678,0.358037,-0.632359,0.020850,-0.201357,-1.048507,0.199152
320,1020547209,-0.680850,0.356812,-0.639599,0.008490,-0.690157,-0.276299,0.537423
321,1020580543,-0.678649,0.355202,-0.642825,-0.008575,-0.665625,-0.641247,0.313884
322,1020613877,-0.674932,0.354272,-0.646678,-0.028203,-0.883877,-1.103129,0.817791
323,1020647211,-0.670295,0.355578,-0.649164,-0.053706,-1.282062,-1.505656,1.584002
324,1020680545,-0.661277,0.359982,-0.652445,-0.086432,-1.051162,-2.138094,1.035969
325,1020713879,-0.638503,0.367843,-0.665364,-0.119696,-1.349966,-2.215968,1.929678
326,1020747213,-0.610249,0.377386,-0.678528,-0.157498,-1.254364,-2.360074,2.330815
327,1020780547,-0.582118,0.387210,-0.685258,-0.204103,-0.736936,-2.052822,2.420899
328,1020813881,-0.557631,0.395084,-0.682137,-0.260145,0.005770,-1.501332,1.699903
329,1020847215,-0.528524,0.402486,-0.676143,-0.318634,1.007787,-1.393243,0.828870
330,1020880549,-0.494032,0.410026,-0.668252,-0.375873,1.116145,-0.333849,1.365949
331,1020913883,-0.460173,0.412026,-0.654961,-0.435352,1.094460,0.869449,1.306762
332,1020947217,-0.423562,0.408087,-0.641181,-0.492928,0.169807,1.346122,0.698980
333,1020980551,-0.384864,0.399590,-0.627881,-0.545896,-0.859721,1.325593,1.328324
334,1021013885,-0.349438,0.383572,-0.614124,-0.594683,0.665746,1.457727,1.123034
335,1021047219,-0.317099,0.361313,-0.602179,-0.637426,2.191996,0.471877,-0.338137
336,1021080553,-0.282486,0.341763,-0.594626,-0.670709,2.481717,1.016313,-2.283150
337,1021113887,-0.244982,0.330015,-0.593333,-0.692142,1.369663,1.108473,-4.098899
338,1021147221,-0.208556,0.326921,-0.595566,-0.703533,1.504011,0.859880,-5.034350
339,1021180555,-0.180503,0.327566,-0.596530,-0.710142,1.449610,1.779788,-4.921850
340,1021213889,-0.167316,0.325297,-0.593005,-0.717330,1.425146,1.344604,-5.440813
341,1021247223,-0.161395,0.328867,-0.584827,-0.723745,1.423131,0.854483,-5.346288
342,1021280557,-0.159588,0.341041,-0.571643,-0.729025,0.747935,1.394316,-3.164561
343,1021313891,-0.163342,0.354554,-0.553393,-0.735797,-0.618126,1.132164,-0.567966
344,1021347225,-0.166522,0.372163,-0.533854,-0.740807,-0.190422,-1.012104,0.220421
345,1021380559,-0.165167,0.386774,-0.518114,-0.744792,0.167636,0.493324,3.682029
346,1021413893,-0.160941,0.386761,-0.513023,-0.749234,-2.518771,0.660645,6.106571
347,1021447227,-0.151204,0.380779,-0.519683,-0.749736,-2.346188,-0.277028,3.800393
348,1021480561,-0.134284,0.379747,-0.533159,-0.743997,-1.675357,-0.720502,2.763937
349,1021513895,-0.120320,0.377842,-0.545914,-0.738083,-1.903633,-0.553436,1.644909
350,1021547229,-0.122894,0.359877,-0.553641,-0.740876,-0.301051,-0.472156,-0.075553
351,1021580563,-0.135286,0.336648,-0.556545,-0.747432,0.775034,-1.062098,-1.569044
352,1021613897,-0.149272,0.321796,-0.557128,-0.750868,0.777729,-1.114677,-2.790402
353,1021647231,-0.161584,0.318631,-0.556595,-0.750065,0.274383,1.063337,-2.896634
354,1021680565,-0.171983,0.320674,-0.551720,-0.750483,1.361535,2.064984,-1.943073
355,1021713899,-0.174871,0.331540,-0.540952,-0.752929,1.911390,0.736350,-2.156304
356,1021747233,-0.171097,0.349616,-0.524901,-0.756971,1.749592,-0.068341,-1.542298
357,1021780567,-0.163663,0.363306,-0.508703,-0.763200,2.228899,0.933328,0.111960
358,1021813901,-0.157879,0.360562,-0.500372,-0.771186,-0.949832,1.045606,2.266026
359,1021847235,-0.151825,0.350222,-0.502117,-0.776017,-1.638837,-0.284005,0.758032
360,1021880569,-0.139231,0.347732,-0.511146,-0.773600,-1.581731,-0.514635,0.759086
361,1021913903,-0.126451,0.348093,-0.522105,-0.768296,-1.550729,-0.099692,0.839833
362,1021947237,-0.119898,0.344021,-0.532001,-0.764381,-1.259887,-0.217872,-0.008234
363,1021980571,-0.121081,0.335328,-0.539933,-0.762494,-1.226406,-0.389734,-0.407542
364,1022013905,-0.134656,0.317572,-0.545300,-0.763998,-0.959564,-0.410902,-1.085271
365,1022047239,-0.157961,0.295000,-0.548321,-0.766419,-0.235242,-1.598679,-2.446978
366,1022080573,-0.179362,0.284005,-0.549583,-0.764957,-0.168531,1.507317,-2.137415
367,1022113907,-0.209788,0.264995,-0.539328,-0.771312,3.778076,1.725623,-3.204208
368,1022147241,-0.231579,0.254211,-0.514477,-0.785552,2.845926,0.568090,-3.644875
369,1022180575,-0.237023,0.256111,-0.484790,-0.802020,2.635716,-0.053243,-2.791843
370,1022213909,-0.225786,0.273305,-0.468379,-0.809306,0.155311,1.901836,1.355990
371,1022247243,-0.223644,0.268250,-0.465967,-0.812976,-3.324510,0.972024,3.179957
372,1022280577,-0.223042,0.261646,-0.476934,-0.808924,-3.401788,-1.584675,1.696136
373,1022313911,-0.220623,0.267739,-0.496279,-0.795851,-3.387373,-1.668382,2.145431
374,1022347245,-0.221113,0.279961,-0.519752,-0.776286,-3.008895,-1.294859,0.613914
375,1022380579,-0.228694,0.293479,-0.543440,-0.752511,-1.992712,-0.771632,-0.449401
376,1022413913,-0.250383,0.298820,-0.562832,-0.728880,-2.404497,-0.020279,-0.679193
377,1022447247,-0.286675,0.294710,-0.576582,-0.706079,-0.742793,0.424646,-2.047944
378,1022480581,-0.326469,0.291390,-0.586707,-0.681406,1.565766,0.009415,-2.912925
379,1022513915,-0.351580,0.304453,-0.600729,-0.650273,2.994831,1.720760,-2.328635
380,1022547249,-0.366523,0.322379,-0.611880,-0.622387,5.743637,2.384837,-0.309109
381,1022580583,-0.379429,0.333799,-0.606205,-0.614132,5.968093,1.516780,-0.150541
382,1022613917,-0.387044,0.343435,-0.583596,-0.625855,7.379190,1.239329,0.528315
383,1022647251,-0.382076,0.362277,-0.551598,-0.646949,5.637975,-1.397990,-0.866805
384,1022680585,-0.363845,0.388671,-0.524756,-0.664239,0.195912,0.740744,0.065267
385,1022713919,-0.338855,0.415873,-0.514524,-0.668971,-2.776757,-1.377096,2.005220
386,1022747253,-0.318666,0.434408,-0.511172,-0.669683,-4.680780,-1.808915,3.010308
387,1022780587,-0.305766,0.442383,-0.514939,-0.667587,-5.382104,-3.411447,2.628610
388,1022813921,-0.298252,0.444919,-0.525898,-0.660722,-4.772115,-2.164746,3.133595
389,1022847255,-0.303040,0.438055,-0.537704,-0.653589,-3.397232,-1.158897,1.229331
390,1022880589,-0.320611,0.423496,-0.545752,-0.648109,-1.873725,0.391950,-0.081616
391,1022913923,-0.344656,0.407934,-0.549471,-0.642584,-1.433637,1.029555,-1.572329
392,1022947257,-0.371401,0.392877,-0.548857,-0.637569,-0.352696,1.756271,-1.011488
393,1022980591,-0.390714,0.389627,-0.548894,-0.627916,1.419375,1.587197,-3.085741
394,1023013925,-0.394460,0.405044,-0.553639,-0.611437,3.408691,2.796493,-1.392219
395,1023047259,-0.399397,0.415503,-0.549581,-0.604838,3.871661,2.952784,-0.295839
396,1023080593,-0.403055,0.422697,-0.537492,-0.608281,2.934883,2.167797,-1.430142
397,1023113927,-0.396152,0.439767,-0.525083,-0.611545,0.710439,2.017689,-0.532078
398,1023147261,-0.378090,0.468316,-0.517892,-0.607903,-0.161696,1.625439,-1.678892
399,1023180595,-0.355184,0.500350,-0.519622,-0.594574,-1.591251,1.401732,1.096117
400,1023213929,-0.344880,0.514236,-0.523381,-0.585424,-3.479899,1.177369,3.296834
401,1023247263,-0.344883,0.510724,-0.532695,-0.580072,-4.031826,0.816714,1.602943
402,1023280597,-0.345052,0.503128,-0.552556,-0.567903,-4.937844,0.653784,1.133096
403,1023313931,-0.348730,0.490310,-0.577192,-0.552144,-3.725080,1.820243,1.598964
404,1023347265,-0.366741,0.463108,-0.597802,-0.541936,-2.327790,2.084168,1.284594
405,1023380599,-0.399425,0.423808,-0.610939,-0.536312,-1.393141,1.559952,0.347765
406,1023413933,-0.441136,0.380482,-0.615723,-0.530610,0.313873,1.816722,0.264088
407,1023447267,-0.491107,0.332423,-0.609981,-0.525607,1.635714,1.372732,0.101865
408,1023480601,-0.542770,0.283700,-0.596856,-0.518371,2.035304,1.046902,-0.347148
409,1023513935,-0.591279,0.239155,-0.580723,-0.505950,2.005642,0.858792,-1.391570
410,1023547269,-0.637782,0.200432,-0.561679,-0.487451,0.728383,0.195749,-1.921666
411,1023580603,-0.684930,0.167773,-0.535781,-0.464426,0.424323,-0.183694,-1.702125
412,1023613937,-0.730124,0.142580,-0.505171,-0.437518,0.670988,-0.866714,-1.904031
413,1023647271,-0.770117,0.125723,-0.474923,-0.406930,-0.116713,-0.541156,-1.993757
414,1023680605,-0.803987,0.116828,-0.447815,-0.373427,0.152279,-0.944641,-0.997436
415,1023713939,-0.829968,0.117443,-0.426954,-0.339265,-0.504433,-1.096850,-1.173725
416,1023747273,-0.846253,0.127650,-0.416792,-0.306391,-1.097711,-0.818086,-0.768985
417,1023780607,-0.855010,0.145597,-0.414747,-0.275271,-0.721495,-1.189865,-0.187672
418,1023813941,-0.858198,0.168909,-0.418747,-0.244229,-0.755341,-0.986398,-1.553495
419,1023847275,-0.856171,0.195499,-0.429352,-0.210804,-0.481736,-1.038094,-0.715746
420,1023880609,-0.857252,0.221415,-0.431010,-0.174228,0.892488,-0.506002,2.245203
421,1023913943,-0.867376,0.241187,-0.410833,-0.143997,2.106322,-3.036214,4.221725
422,1023947277,-0.878407,0.251722,-0.384696,-0.130678,1.690780,-3.065083,4.051276
423,1023980611,-0.877792,0.257275,-0.383626,-0.127094,2.771319,-2.647072,4.271010
424,1024013945,-0.870989,0.254011,-0.398421,-0.134712,-0.736065,-2.629646,3.888507
425,1024047279,-0.864367,0.247780,-0.411609,-0.148602,-1.703221,-1.711578,1.139651
426,1024080613,-0.855435,0.241846,-0.427204,-0.165131,-1.666404,-1.663288,1.810219
427,1024113947,-0.849379,0.232659,-0.434967,-0.187776,-1.054148,-1.725829,2.944172
428,1024147281,-0.842673,0.220092,-0.439981,-0.218880,0.366596,-2.286579,2.091719
429,1024180615,-0.830642,0.204587,-0.449124,-0.257866,1.511884,-2.801921,3.440211
430,1024213949,-0.816602,0.182189,-0.452275,-0.308942,2.830451,-2.557334,3.850136
431,1024247283,-0.795843,0.154916,-0.452791,-0.371006,3.050782,-2.657733,2.206431
432,1024280617,-0.766453,0.126540,-0.451454,-0.439041,3.409030,-1.930636,0.506705
433,1024313951,-0.730824,0.098014,-0.445150,-0.508096,2.121458,-0.553574,-1.482882
434,1024347285,-0.688538,0.071316,-0.438989,-0.572842,1.600927,-0.116948,-2.294580
435,1024380619,-0.638388,0.054016,-0.437111,-0.631275,-0.137447,-1.342562,-4.297107
436,1024413953,-0.582055,0.050899,-0.440561,-0.681585,-0.248255,-0.507257,-3.342880
437,1024447287,-0.528028,0.054245,-0.440643,-0.723953,-0.769062,-0.449773,-3.571137
438,1024480621,-0.480893,0.061866,-0.436671,-0.757801,-0.381046,-0.675475,-3.368025
439,1024513955,-0.444925,0.072483,-0.428607,-0.783016,-0.494224,-0.754016,-2.931613
440,1024547289,-0.418523,0.088971,-0.420552,-0.800056,-0.295942,0.140397,-2.349481
441,1024580623,-0.395315,0.123888,-0.417124,-0.808960,-0.522170,-0.373323,-3.415086
442,1024613957,-0.370676,0.182155,-0.419382,-0.808436,0.983683,2.645071,-1.231804
443,1024647291,-0.354931,0.233423,-0.412426,-0.805898,2.909045,6.478867,1.732884
444,1024680625,-0.343971,0.261131,-0.388807,-0.813852,4.747883,2.402694,0.021568
445,1024713959,-0.329184,0.277962,-0.349060,-0.832203,2.142921,-0.179187,-1.902050
446,1024747293,-0.299158,0.317586,-0.322197,-0.840157,-0.057385,-2.350205,0.736220
447,1024780627,-0.264369,0.381286,-0.311130,-0.829433,0.370810,-0.631992,3.629342
448,1024813961,-0.236600,0.420038,-0.305020,-0.821329,1.688403,1.013089,6.468340
449,1024847295,-0.216863,0.427696,-0.300259,-0.824573,1.046533,-0.464740,3.673565
450,1024880629,-0.196729,0.433142,-0.299721,-0.826973,-0.271772,-0.356568,1.063046
451,1024913963,-0.171962,0.449175,-0.304668,-0.822118,0.267506,1.599279,0.065506
452,1024947297,-0.150497,0.459233,-0.302832,-0.821449,0.243460,1.956063,-1.667312
453,1024980631,-0.138198,0.456656,-0.290460,-0.829476,-0.954731,2.370007,-2.948672
454,1025013965,-0.132276,0.446086,-0.270728,-0.842762,-0.809221,1.672488,-4.017383
455,1025047299,-0.123310,0.453983,-0.249463,-0.846459,-1.854838,3.038460,-2.477499
456,1025080633,-0.111964,0.474960,-0.233390,-0.841093,-1.285555,1.174837,-0.528969
457,1025113967,-0.098146,0.506525,-0.221429,-0.827526,1.652694,-1.072916,-0.382960
458,1025147301,-0.080829,0.544638,-0.213797,-0.806944,0.873388,-0.892011,3.116315
459,1025180635,-0.061504,0.581621,-0.216423,-0.781745,-0.152823,-0.626933,4.682475
460,1025213969,-0.043193,0.604824,-0.226395,-0.762298,-0.582597,-0.840105,3.477307
461,1025247303,-0.024529,0.623592,-0.238789,-0.744004,-0.965266,-1.325151,1.228908
462,1025280637,-0.005414,0.645345,-0.250599,-0.721617,-1.106473,-1.213781,-0.246254
463,1025313971,0.012204,0.671539,-0.260370,-0.693632,-0.913888,0.299443,-0.663782
464,1025347305,0.022254,0.688947,-0.261948,-0.675477,-1.009325,1.562814,-0.035653
465,1025380639,0.018404,0.676284,-0.249252,-0.692968,-3.692247,1.837668,0.703341
466,1025413973,0.016332,0.655149,-0.222072,-0.721961,0.520535,0.898323,-4.064220
467,1025447307,0.025618,0.682022,-0.189132,-0.706009,1.566456,-0.171101,-4.306592
468,1025480641,0.039022,0.733794,-0.165547,-0.657760,-0.706183,0.625200,3.565858
469,1025513975,0.048437,0.757788,-0.169731,-0.628198,-2.933625,-3.270315,4.683361
470,1025547309,0.055554,0.764004,-0.191079,-0.613785,-1.550267,-2.527175,0.778059
471,1025580643,0.058841,0.765639,-0.216338,-0.602961,-0.908229,-1.230862,-0.309609
472,1025613977,0.051649,0.756754,-0.236068,-0.607419,-1.940761,-0.161154,-1.500043
473,1025647311,0.031808,0.731202,-0.249403,-0.634161,-3.175822,1.088848,-1.309308
474,1025680645,0.009681,0.702778,-0.246995,-0.667108,0.506017,2.703691,-3.472605
475,1025713979,-0.001249,0.699378,-0.232223,-0.675997,-0.078929,1.292686,-2.031056
476,1025747313,-0.004862,0.710000,-0.217897,-0.669647,2.701169,0.659440,-0.553488
477,1025780647,-0.004386,0.710926,-0.216383,-0.669159,0.655365,-0.722709,4.090144
478,1025813981,-0.003555,0.701445,-0.229846,-0.674658,0.528860,-2.106810,1.276106
479,1025847315,0.002874,0.708450,-0.251350,-0.659503,-0.567682,-2.230196,0.324920
480,1025880649,0.006974,0.716498,-0.271334,-0.642643,-2.439488,-1.058975,1.025971
481,1025913983,-0.005423,0.695670,-0.283354,-0.660118,-3.572625,0.112954,1.974026
482,1025947317,-0.031443,0.651206,-0.283907,-0.703115,0.272806,2.160335,-2.880058
483,1025980651,-0.048278,0.630934,-0.277689,-0.722849,1.693388,1.012285,-4.750315
484,1026013985,-0.052773,0.630748,-0.276500,-0.723153,-0.843613,1.107787,-1.008265
485,1026047319,-0.051769,0.626827,-0.288249,-0.722046,-0.952688,0.725327,-1.488503
486,1026080653,-0.045483,0.634826,-0.306114,-0.707991,-2.672594,0.564373,-0.860370
487,1026113987,-0.049896,0.629042,-0.316686,-0.708207,-4.387507,0.650496,1.619940
488,1026147321,-0.070678,0.584776,-0.312332,-0.745333,0.193621,1.798094,-2.421173
489,1026180655,-0.081617,0.564029,-0.303158,-0.763764,-1.467502,0.807670,-3.542444
490,1026213989,-0.085508,0.569433,-0.300878,-0.760222,0.499278,0.095931,-1.336091
491,1026247323,-0.083188,0.579328,-0.308259,-0.749977,-1.077446,1.341132,0.284429
492,1026280657,-0.077333,0.595672,-0.329370,-0.728520,-1.300621,-0.581375,1.716208
493,1026313991,-0.071489,0.608822,-0.359313,-0.703669,-0.572841,-0.466458,0.679276
494,1026347325,-0.064959,0.621876,-0.393776,-0.673811,0.051704,-1.226849,0.726152
495,1026380659,-0.067372,0.623047,-0.423572,-0.654134,-1.198844,-0.681243,1.873435
496,1026413993,-0.089999,0.603499,-0.447600,-0.653739,-2.460613,1.240772,0.423136
497,1026447327,-0.122854,0.577607,-0.464914,-0.659669,0.657000,2.441117,-1.411710
498,1026480661,-0.156945,0.557138,-0.470082,-0.666348,1.112398,3.023264,-1.973698
499,1026513995,-0.192544,0.531110,-0.466411,-0.680691,1.729593,3.658243,-1.363390
500,1026547329,-0.223593,0.508880,-0.462039,-0.691085,2.233236,2.457759,-2.406522
501,1026580663,-0.252969,0.489648,-0.455365,-0.699231,3.750467,1.747539,-1.741551
502,1026613997,-0.289858,0.459122,-0.437330,-0.716912,2.244488,1.045086,-0.026140
503,1026647331,-0.323358,0.432093,-0.415972,-0.731938,1.393979,-0.072024,-3.430312
504,1026680665,-0.343316,0.430137,-0.404968,-0.730170,-0.536920,-0.387134,-2.055305
505,1026713999,-0.353756,0.447903,-0.412349,-0.710097,-0.713908,0.336878,-0.475106
506,1026747333,-0.361165,0.468184,-0.436745,-0.677973,-1.137094,-0.212005,1.319039
507,1026780667,-0.365484,0.482756,-0.475308,-0.638342,-0.595047,-1.208017,3.418129
508,1026814001,-0.365716,0.484677,-0.524129,-0.597209,-0.467137,-0.698352,5.401362
509,1026847335,-0.360583,0.472540,-0.578903,-0.558201,-2.434538,-1.827215,6.218426
510,1026880669,-0.358511,0.444503,-0.626482,-0.530507,-2.615788,0.769272,5.101847
511,1026914003,-0.372731,0.396725,-0.658982,-0.519091,-1.567871,-0.019548,0.314851
512,1026947337,-0.391072,0.349235,-0.682106,-0.509765,0.284067,1.189447,0.494805
513,1026980671,-0.424056,0.298583,-0.690798,-0.503839,0.989154,0.783120,-2.003067
514,1027014005,-0.464187,0.251720,-0.689230,-0.496145,1.639343,0.690184,-2.707998
515,1027047339,-0.508825,0.209772,-0.678974,-0.485919,3.247127,1.061109,-2.571302
516,1027080673,-0.561648,0.168538,-0.656508,-0.474525,3.673709,0.681896,-1.960128
517,1027114007,-0.619995,0.129720,-0.620981,-0.461727,2.565987,-0.045530,-3.070497
518,1027147341,-0.674788,0.100958,-0.580571,-0.444338,1.331278,0.704065,-2.592378
519,1027180675,-0.722805,0.084788,-0.541186,-0.421323,-0.670093,0.658195,-3.600856
520,1027214009,-0.760154,0.087433,-0.511623,-0.390888,-1.234692,2.231569,-2.988517
521,1027247343,-0.787474,0.106735,-0.494228,-0.352509,0.552847,1.805881,-0.864417
522,1027280677,-0.802827,0.135731,-0.489608,-0.312027,3.356618,-0.486737,1.598012
523,1027314011,-0.814898,0.158689,-0.484800,-0.275241,2.701650,-1.556910,2.385014
524,1027347345,-0.824977,0.174503,-0.480239,-0.241586,0.513425,-1.939599,1.008328
525,1027380679,-0.831343,0.192067,-0.478224,-0.208113,1.622547,-4.536604,-1.213573
526,1027414013,-0.833737,0.209795,-0.483070,-0.165961,-2.810251,2.177056,1.976118
527,1027447347,-0.840989,0.219799,-0.475696,-0.134798,-3.423929,-0.671179,-2.432910
528,1027480681,-0.835909,0.233833,-0.487172,-0.096295,-0.246946,-3.327044,2.922215
529,1027514015,-0.823500,0.238776,-0.510025,-0.068841,0.039905,-2.958966,2.780602
530,1027547349,-0.805914,0.238625,-0.539075,-0.054667,-0.537877,-3.514108,0.843086
531,1027580683,-0.789549,0.239535,-0.562899,-0.049098,-0.794581,-2.107664,0.496670
532,1027614017,-0.778702,0.242167,-0.576945,-0.046292,-1.287763,-0.761140,-0.183847
533,1027647351,-0.770208,0.247234,-0.586249,-0.044684,-1.319615,-1.154391,-0.484443
534,1027680685,-0.760040,0.256381,-0.595537,-0.044432,-0.506854,-1.553596,0.207984
535,1027714019,-0.749565,0.269204,-0.602721,-0.049393,-0.040516,-1.239235,1.116585
536,1027747353,-0.740932,0.284612,-0.605265,-0.060834,0.220576,-0.623683,1.333876
537,1027780687,-0.733298,0.301544,-0.604502,-0.077159,0.226885,-0.600559,0.507888
538,1027814021,-0.725047,0.319080,-0.602754,-0.095987,0.172953,-0.437350,1.104412
539,1027847355,-0.717116,0.335328,-0.599644,-0.117288,0.220088,-0.050778,0.876905
540,1027880689,-0.708633,0.351351,-0.595393,-0.141170,0.168073,-0.845544,1.043524
541,1027914023,-0.700099,0.368452,-0.587688,-0.169580,0.287261,-1.478226,0.710308
542,1027947357,-0.691127,0.387512,-0.575619,-0.202165,0.659791,-1.701875,-0.373770
543,1027980691,-0.678535,0.409333,-0.561522,-0.238245,1.348871,-1.731109,0.319075
544,1028014025,-0.662185,0.431573,-0.546422,-0.276965,1.035246,-1.144580,0.189119
545,1028047359,-0.640295,0.453101,-0.534750,-0.314316,0.802923,-1.336304,0.417606
546,1028080693,-0.608115,0.474884,-0.534983,-0.344247,0.565784,-2.795439,1.770655
547,1028114027,-0.571730,0.492232,-0.538839,-0.374853,0.413514,-3.927046,2.440789
548,1028147361,-0.531287,0.504426,-0.541182,-0.412845,1.392890,-2.335438,4.384580
549,1028180695,-0.491130,0.506286,-0.537754,-0.461863,1.337722,0.333850,3.561854
550,1028214029,-0.445871,0.503617,-0.535990,-0.510210,0.847219,2.203303,2.388690
551,1028247363,-0.397592,0.498386,-0.536285,-0.553138,0.820802,3.436710,1.427134
552,1028280697,-0.351685,0.487538,-0.536716,-0.592107,0.371872,4.278720,0.040132
553,1028314031,-0.309883,0.473485,-0.539827,-0.623219,0.574153,3.453135,-1.969838
554,1028347365,-0.277277,0.456474,-0.544253,-0.646969,0.370159,3.349684,-2.741778
555,1028380699,-0.253877,0.437932,-0.550304,-0.664047,0.235059,2.992259,-4.587114
556,1028414033,-0.237023,0.423009,-0.556427,-0.674762,0.751146,3.806359,-5.004162
557,1028447367,-0.227505,0.411784,-0.557254,-0.684233,0.603833,3.618108,-5.399080
558,1028480701,-0.221638,0.409093,-0.548922,-0.694431,1.089417,2.415886,-5.541330
559,1028514035,-0.212455,0.422227,-0.535328,-0.700029,-0.413764,0.889958,-4.281618
560,1028547369,-0.201246,0.451123,-0.525582,-0.692663,-1.522324,-1.789476,-2.629436
561,1028580703,-0.172592,0.509199,-0.531293,-0.654742,-0.823198,-4.426731,-1.068415
562,1028614037,-0.127917,0.577926,-0.542905,-0.595754,-0.571918,-1.801123,6.844463
563,1028647371,-0.106487,0.599833,-0.547561,-0.573645,-4.185070,-0.315347,10.100765
564,1028680705,-0.111029,0.579957,-0.548546,-0.591989,-3.599606,-1.014012,4.977001
565,1028714039,-0.114366,0.551760,-0.552190,-0.614491,-1.039182,-1.279145,1.296124
566,1028747373,-0.103887,0.534311,-0.560550,-0.624126,-0.057833,-0.477461,0.334689
567,1028780707,-0.088411,0.522989,-0.570119,-0.627424,0.861400,1.036348,-0.117229
568,1028814041,-0.081132,0.505923,-0.576780,-0.636251,1.667087,1.304136,-1.634359
569,1028847375,-0.090432,0.479707,-0.575901,-0.655799,0.930509,1.471994,-2.849697
570,1028880709,-0.109953,0.451680,-0.562066,-0.684111,1.348398,1.328618,-3.549326
571,1028914043,-0.124346,0.436375,-0.538869,-0.709765,-0.096490,0.260939,-3.470191
572,1028947377,-0.127769,0.439228,-0.517437,-0.723217,1.474874,-0.650188,-1.894643
573,1028980711,-0.122291,0.448848,-0.506898,-0.725717,0.184011,0.621038,3.565572
574,1029014045,-0.111784,0.452045,-0.507471,-0.725026,-1.241979,-0.593609,4.037914
575,1029047379,-0.092678,0.454397,-0.514838,-0.721045,-0.928397,-0.931596,3.011000
576,1029080713,-0.070226,0.453217,-0.522780,-0.718606,-1.078226,0.264763,2.792212
577,1029114047,-0.055001,0.440054,-0.527703,-0.724490,-0.322266,0.470781,1.294369
578,1029147381,-0.050582,0.415075,-0.529173,-0.738350,0.221301,0.429668,-0.190859
579,1029180715,-0.056644,0.380107,-0.528929,-0.756687,-0.020846,0.346944,-1.354600
580,1029214049,-0.072885,0.336770,-0.529877,-0.774942,0.758599,-0.900898,-3.039837
581,1029247383,-0.089895,0.300655,-0.533160,-0.785682,0.539521,-1.214342,-4.438232
582,1029280717,-0.101815,0.282855,-0.537149,-0.788117,0.570519,-0.788801,-4.865368
583,1029314051,-0.111024,0.280964,-0.537178,-0.787529,0.882664,0.133432,-4.101687
584,1029347385,-0.121293,0.286342,-0.530574,-0.788554,0.244342,0.163682,-2.372724
585,1029380719,-0.131633,0.295712,-0.521217,-0.789678,-0.340693,-1.109670,-0.410553
586,1029414053,-0.134478,0.311400,-0.515751,-0.786751,0.903751,-0.528118,1.482880
587,1029447387,-0.132789,0.320883,-0.518383,-0.781480,-0.357297,0.718511,4.927766
588,1029480721,-0.133035,0.314975,-0.526548,-0.778377,-0.591161,-0.296734,3.696568
589,1029514055,-0.130492,0.306546,-0.536199,-0.775579,-0.168644,-1.088440,2.692491
590,1029547389,-0.124796,0.300725,-0.544069,-0.773311,-0.036512,-0.984335,1.463845
591,1029580723,-0.118165,0.295267,-0.549782,-0.772414,0.241085,-0.612319,0.246799
592,1029614057,-0.113076,0.287294,-0.553627,-0.773436,0.804774,-0.459435,-0.808926
593,1029647391,-0.111833,0.275966,-0.555815,-0.776168,0.834683,-0.453315,-1.480699
594,1029680725,-0.115505,0.263409,-0.555812,-0.779986,0.550952,-0.501569,-2.234376
595,1029714059,-0.124586,0.252755,-0.551909,-0.784870,0.266364,-0.415759,-2.794951
596,1029747393,-0.137695,0.245785,-0.542390,-0.791501,0.280290,0.219771,-2.255162
597,1029780727,-0.150259,0.243544,-0.528395,-0.799336,0.470866,-0.116693,-1.165479
598,1029814061,-0.156054,0.250103,-0.513146,-0.806107,1.131058,-0.792946,-0.176616
599,1029847395,-0.156076,0.256980,-0.500034,-0.812156,0.440242,0.938856,1.772553
600,1029880729,-0.152116,0.255769,-0.492142,-0.818089,-0.075961,0.686195,2.879241
601,1029914063,-0.143770,0.249337,-0.489936,-0.822894,-0.371404,0.208947,2.592408
602,1029947397,-0.132260,0.239890,-0.491240,-0.826845,-0.504818,-0.066347,2.322135
603,1029980731,-0.121691,0.225698,-0.493331,-0.831208,-0.651671,0.068924,1.847118
604,1030014065,-0.115191,0.205875,-0.494955,-0.836300,-0.955994,-0.255577,1.212458
605,1030047399,-0.115650,0.180069,-0.495705,-0.841729,-1.078258,-0.440116,0.257281
606,1030080733,-0.119933,0.154622,-0.496549,-0.845682,-0.805270,-0.597189,-0.936069
607,1030114067,-0.125755,0.135283,-0.497493,-0.847594,-0.901030,-0.600167,-1.977004
608,1030147401,-0.132436,0.123871,-0.498598,-0.847672,-0.737107,0.005330,-2.794245
609,1030180735,-0.137436,0.121874,-0.499711,-0.846509,-0.284093,0.290411,-3.533355
610,1030214069,-0.137292,0.132879,-0.500500,-0.844408,0.078311,0.747853,-3.030404
611,1030247403,-0.133580,0.150854,-0.499098,-0.842811,0.238927,0.684679,-1.107446
612,1030280737,-0.127471,0.171758,-0.494517,-0.842457,1.074837,-1.058581,0.034432
613,1030314071,-0.123458,0.190614,-0.485954,-0.843981,0.813672,0.074413,1.788944
614,1030347405,-0.123506,0.197165,-0.475840,-0.848221,0.481275,0.117579,2.723030
615,1030380739,-0.122612,0.195503,-0.468788,-0.852651,-0.165528,0.451611,3.355508
616,1030414073,-0.118855,0.188475,-0.466999,-0.855741,-0.774067,0.547910,3.217219
617,1030447407,-0.111902,0.180050,-0.468951,-0.857424,-0.722742,0.032444,2.141572
618,1030480741,-0.104181,0.171572,-0.472686,-0.858084,-0.815021,-0.223372,1.112135
619,1030514075,-0.099200,0.162033,-0.476767,-0.858271,-0.934254,-0.428097,-0.464921
620,1030547409,-0.100235,0.149933,-0.480387,-0.858331,-0.767689,-0.541255,-1.874249
621,1030580743,-0.108015,0.136302,-0.482441,-0.858508,-0.915791,-0.534623,-2.915567
622,1030614077,-0.115202,0.132757,-0.483077,-0.857771,-1.121379,-0.447880,-3.387325
623,1030647411,-0.119415,0.142520,-0.481635,-0.856438,-0.496235,0.646785,-2.837655
624,1030680745,-0.120745,0.161037,-0.477827,-0.855102,-0.721597,1.272924,-1.626963
625,1030714079,-0.115366,0.188442,-0.474157,-0.852282,0.482817,-0.458768,-1.336417
626,1030747413,-0.105892,0.216502,-0.474254,-0.846775,-0.574256,2.810169,2.126364
627,1030780747,-0.104044,0.219076,-0.481910,-0.842006,-1.855021,2.540169,3.455539
628,1030814081,-0.109931,0.203552,-0.495373,-0.837328,-1.405551,-0.048519,2.848251
629,1030847415,-0.116743,0.190108,-0.512191,-0.829410,-1.685821,-0.931871,3.320442
630,1030880749,-0.123858,0.182592,-0.529508,-0.819128,-1.107503,-0.455076,2.367530
631,1030914083,-0.133741,0.176468,-0.544902,-0.808755,-0.287057,-0.833866,1.602373
632,1030947417,-0.146797,0.170645,-0.557173,-0.799324,0.460453,0.122081,-0.076534
633,1030980751,-0.157806,0.168671,-0.566350,-0.791155,1.131775,0.700984,-1.830884
634,1031014085,-0.161476,0.175211,-0.573229,-0.784006,0.976015,1.675597,-2.723936
635,1031047419,-0.161155,0.182102,-0.578239,-0.778806,1.101966,2.050134,-3.420966
636,1031080753,-0.161922,0.182950,-0.580746,-0.776579,0.505635,2.746439,-3.565873
637,1031114087,-0.166982,0.174217,-0.580767,-0.777499,0.085027,2.448009,-3.733008
638,1031147421,-0.169989,0.162909,-0.581686,-0.778611,0.717068,3.561939,-3.591527
639,1031180755,-0.174723,0.142590,-0.583680,-0.780056,1.093926,4.710359,-2.562012
640,1031214089,-0.187542,0.104635,-0.587000,-0.780603,0.462308,5.057086,-3.169936
641,1031247423,-0.210754,0.052474,-0.592221,-0.775972,0.442987,3.132986,-3.159355
642,1031280757,-0.246235,-0.004543,-0.598176,-0.762603,0.685981,1.221226,-3.564621
643,1031314091,-0.292174,-0.050568,-0.605845,-0.738282,0.448160,-0.466470,-3.185236
644,1031347425,-0.351141,-0.078896,-0.612008,-0.704238,-0.657896,-0.657756,-2.780502
645,1031380759,-0.424966,-0.087137,-0.616141,-0.657428,-0.673759,-0.041444,-1.642204
646,1031414093,-0.504022,-0.071152,-0.620435,-0.596649,-3.952303,-1.744220,-3.315536
647,1031447427,-0.564838,-0.019528,-0.638456,-0.522477,0.433957,-0.270026,-1.568769
648,1031480761,-0.615153,0.040028,-0.656988,-0.434029,-3.158510,-0.976767,-1.015122
649,1031514095,-0.661586,0.096779,-0.664100,-0.334573,2.273996,-0.187591,4.311700
650,1031547429,-0.754872,0.115836,-0.594824,-0.250929,2.436001,-5.434299,16.465757
651,1031580763,-0.834815,0.122918,-0.495620,-0.205832,5.223533,-4.636944,6.921427
652,1031614097,-0.830607,0.131680,-0.508142,-0.185941,0.313356,-2.692848,8.462305
653,1031647431,-0.790357,0.125719,-0.570396,-0.184960,-5.122696,-3.334751,9.751760
654,1031680765,-0.761309,0.108461,-0.606263,-0.202780,-5.261394,-0.537919,3.991298
655,1031714099,-0.730802,0.087664,-0.635669,-0.232806,-3.814128,-0.825353,4.128738
656,1031747433,-0.697449,0.063024,-0.659108,-0.274225,-1.174851,-2.496295,5.423324
657,1031780767,-0.664808,0.035846,-0.669916,-0.328615,0.031188,-3.005540,2.254703
658,1031814101,-0.624722,0.014898,-0.674790,-0.392669,0.330384,-2.433197,0.462642
659,1031847435,-0.581362,0.001569,-0.671250,-0.459858,0.403243,-1.387438,-1.379147
660,1031880769,-0.535277,-0.000535,-0.663468,-0.522799,-0.305905,-1.003133,-2.246286
661,1031914103,-0.484612,0.012281,-0.657421,-0.576912,-1.203295,-1.164675,-2.680072
662,1031947437,-0.422315,0.048042,-0.659210,-0.620334,-1.388519,-2.115643,-2.003547
663,1031980771,-0.356158,0.101425,-0.665800,-0.647770,-0.478681,-0.406718,-0.753626
664,1032014105,-0.312604,0.137165,-0.667332,-0.661938,-0.274757,2.829977,0.410839
665,1032047439,-0.297421,0.143348,-0.667947,-0.666985,-0.177612,2.401235,-0.946083
666,1032080773,-0.289165,0.141568,-0.674986,-0.663903,1.795047,1.550312,-2.631885
667,1032114107,-0.279630,0.146222,-0.684920,-0.656766,4.471402,1.364070,-3.691588
668,1032147441,-0.275282,0.156906,-0.683338,-0.657784,5.160585,2.389405,-3.553655
669,1032180775,-0.280931,0.172641,-0.663649,-0.671471,4.157753,-0.016576,-4.009794
670,1032214109,-0.288432,0.197310,-0.634331,-0.689587,1.876171,-0.651860,-3.148721
671,1032247443,-0.267006,0.247777,-0.619252,-0.695609,-0.695091,-0.646647,-1.471955
672,1032280777,-0.234391,0.294024,-0.616995,-0.691345,-1.837523,2.566505,4.484808
673,1032314111,-0.215696,0.305009,-0.616261,-0.693324,-1.075107,0.174691,4.459340
674,1032347445,-0.207219,0.295897,-0.616553,-0.699570,-1.766497,0.000394,4.085612
675,1032380779,-0.207329,0.274469,-0.617138,-0.707709,-1.469019,-0.154571,2.467624
676,1032414113,-0.211712,0.250540,-0.619031,-0.713610,-0.992777,-0.120132,0.461580
677,1032447447,-0.223391,0.225994,-0.621512,-0.716084,-0.394583,-0.040519,-1.398038
678,1032480781,-0.239325,0.208321,-0.623245,-0.714788,-0.205818,-0.371088,-3.362957
679,1032514115,-0.263439,0.199044,-0.618299,-0.713244,0.757737,1.586157,-2.936786
680,1032547449,-0.286703,0.201189,-0.607235,-0.713176,1.092775,-0.767476,-3.108969
681,1032580783,-0.290223,0.229540,-0.602314,-0.707340,1.981599,-0.335593,-1.967566
682,1032614117,-0.287649,0.250888,-0.599008,-0.703941,2.718626,1.134898,1.412089
683,1032647451,-0.295809,0.235472,-0.593152,-0.710811,-0.110742,2.115578,3.059572
684,1032680785,-0.299021,0.209041,-0.593861,-0.717111,-1.520566,0.015389,0.667318
685,1032714119,-0.289221,0.193750,-0.604006,-0.716952,-1.014595,-0.739317,0.424742
686,1032747453,-0.274317,0.187694,-0.617494,-0.712919,-0.559767,-1.470061,-1.262508
687,1032780787,-0.255135,0.195827,-0.631449,-0.705593,0.227885,-1.457489,-2.598785
688,1032814121,-0.245243,0.207915,-0.637728,-0.699972,0.463863,-0.667833,-3.177044
689,1032847455,-0.247254,0.224202,-0.633110,-0.698427,0.602737,-0.819780,-4.113191
690,1032880789,-0.252219,0.250549,-0.622124,-0.697569,0.595096,-0.002385,-2.365703
691,1032914123,-0.258013,0.278040,-0.608840,-0.696755,0.584329,0.397104,-1.179687
692,1032947457,-0.261616,0.299463,-0.594822,-0.698638,1.501158,-0.140944,0.412731
693,1032980791,-0.262897,0.303043,-0.585994,-0.704054,-1.313834,2.094913,3.311338
694,1033014125,-0.255993,0.296052,-0.589123,-0.706955,-1.736960,0.415870,2.076765
695,1033047459,-0.238109,0.292793,-0.603293,-0.702598,-1.908603,0.623049,1.953774
696,1033080793,-0.222811,0.285503,-0.621438,-0.694757,-1.488356,0.755295,0.307581
697,1033114127,-0.215493,0.276480,-0.638644,-0.685045,-0.454843,-0.591741,-2.282221
698,1033147461,-0.222153,0.270290,-0.648114,-0.676439,1.305849,-0.419921,-4.144678
699,1033180795,-0.247517,0.267299,-0.642707,-0.673977,2.939525,-0.207729,-4.752630
700,1033214129,-0.277676,0.276031,-0.623617,-0.676635,3.155904,-1.306614,-6.506327
701,1033247463,-0.289521,0.309222,-0.604580,-0.674591,4.398009,0.663902,-6.293535
702,1033280797,-0.292566,0.347854,-0.585791,-0.671030,3.174773,0.226245,-3.213458
703,1033314131,-0.287918,0.386562,-0.571363,-0.664265,1.525335,-0.267972,-2.183448
704,1033347465,-0.263796,0.435756,-0.571871,-0.643057,-2.118773,0.199751,2.945701
705,1033380799,-0.238814,0.470467,-0.585115,-0.615873,-4.203707,2.016777,5.510327
706,1033414133,-0.211168,0.487802,-0.612100,-0.585509,-2.397142,1.871438,5.256487
707,1033447467,-0.189656,0.482616,-0.649135,-0.556566,-3.344618,2.582051,3.504787
708,1033480801,-0.174257,0.461089,-0.693592,-0.525350,-1.561687,3.220929,1.185011
709,1033514135,-0.187202,0.417588,-0.734509,-0.501102,-0.646707,4.291140,0.107982
710,1033547469,-0.247134,0.352092,-0.759987,-0.487243,0.363297,2.704683,-1.248351
711,1033580803,-0.335532,0.286342,-0.763596,-0.471570,1.167111,0.623946,-0.409698
712,1033614137,-0.427908,0.236050,-0.747737,-0.449549,0.680541,0.407711,0.388415
713,1033647471,-0.513216,0.203955,-0.719245,-0.421579,0.196284,-0.172147,-1.343487
714,1033680805,-0.575450,0.190296,-0.694327,-0.388052,0.250674,-1.420526,-1.531764
715,1033714139,-0.617730,0.189545,-0.679932,-0.346707,-0.268676,-1.825485,-1.103319
716,1033747473,-0.659934,0.192821,-0.661594,-0.299382,0.187313,-1.756417,-1.019541
717,1033780807,-0.712023,0.196059,-0.625966,-0.250561,0.824345,-0.480229,2.231116
718,1033814141,-0.752286,0.200009,-0.591100,-0.211409,1.255290,-2.772249,2.627870
719,1033847475,-0.749969,0.214828,-0.599835,-0.177831,4.450202,-4.237540,6.203697
720,1033880809,-0.735861,0.222161,-0.617706,-0.166203,1.185759,-4.414055,4.644079
721,1033914143,-0.732548,0.225992,-0.617438,-0.176355,-1.854702,-3.286769,2.357132
722,1033947477,-0.735296,0.230545,-0.606262,-0.196636,-2.254763,-1.652020,0.548717
723,1033980811,-0.728360,0.237900,-0.604705,-0.217389,-2.627940,-1.220854,0.581669
724,1034014145,-0.709844,0.248350,-0.614586,-0.238238,-2.325085,-2.256470,1.179708
725,1034047479,-0.689025,0.260622,-0.621949,-0.265574,-1.554888,-2.105436,1.996814
726,1034080813,-0.669351,0.272365,-0.621580,-0.302417,-0.631944,-1.475194,2.333338
727,1034114147,-0.649115,0.282178,-0.616287,-0.345320,-0.531436,-1.136970,1.045650
728,1034147481,-0.622265,0.291960,-0.614016,-0.388020,-0.753452,-1.320420,0.695281
729,1034180815,-0.584711,0.304945,-0.618306,-0.427609,0.028188,-1.624480,1.696361
730,1034214149,-0.545279,0.316784,-0.619671,-0.467286,-0.194291,-1.526697,0.877649
731,1034247483,-0.504466,0.328269,-0.617632,-0.506275,-0.518845,-0.744416,0.747100
732,1034280817,-0.470260,0.334694,-0.608862,-0.544199,-0.871233,-0.574063,-0.496829
733,1034314151,-0.440710,0.340303,-0.597496,-0.577059,-1.180758,-0.991500,-1.586618
734,1034347485,-0.406599,0.358672,-0.593459,-0.594868,-0.490939,0.380542,-1.448139
735,1034380819,-0.386648,0.372640,-0.587856,-0.605061,1.365464,1.262526,-0.750685
736,1034414153,-0.377677,0.380961,-0.582135,-0.611047,1.916968,1.554295,-3.249226
737,1034447487,-0.349378,0.411073,-0.595516,-0.595269,3.393273,1.758835,-5.396430
738,1034480821,-0.295313,0.464684,-0.622920,-0.555752,6.241810,4.934279,-1.525971
739,1034514155,-0.254254,0.505541,-0.634848,-0.526101,4.169237,4.561984,-3.225604
740,1034547489,-0.246266,0.526023,-0.617752,-0.530156,2.786237,4.887620,-3.489792
741,1034580823,-0.256225,0.533921,-0.578046,-0.561401,2.429442,3.849694,-3.413444
742,1034614157,-0.248788,0.558524,-0.541970,-0.576589,1.104827,2.552267,-3.373558
743,1034647491,-0.226256,0.599332,-0.518079,-0.566775,3.504748,2.380652,-1.460592
744,1034680825,-0.206457,0.632063,-0.502841,-0.552316,-0.108068,2.323165,1.387582
745,1034714159,-0.188195,0.655767,-0.498772,-0.534611,-3.352283,-0.106897,1.135177
746,1034747493,-0.164879,0.676176,-0.507294,-0.508217,-3.415626,-1.794493,2.169351
747,1034780827,-0.141164,0.690393,-0.521987,-0.480614,-5.743072,-2.800937,5.075807
748,1034814161,-0.128434,0.690283,-0.536964,-0.467668,-6.619212,-2.344162,4.760372
749,1034847495,-0.130187,0.673691,-0.553006,-0.472660,-6.260444,-1.641691,3.432657
750,1034880829,-0.144473,0.644602,-0.571436,-0.486935,-3.935206,-1.231359,1.537779
751,1034914163,-0.161077,0.614230,-0.593268,-0.494812,-2.169431,-1.114092,-0.538322
752,1034947497,-0.181245,0.584304,-0.615357,-0.497097,-1.135059,-1.516501,-1.321544
753,1034980831,-0.207402,0.557152,-0.632772,-0.496181,0.812064,-0.046949,-1.881553
754,1035014165,-0.239099,0.536467,-0.640449,-0.494864,2.908495,1.107358,-2.401488
755,1035047499,-0.279641,0.522129,-0.629243,-0.503255,4.033544,4.726341,-0.794485
756,1035080833,-0.318567,0.511298,-0.596836,-0.530006,6.923627,4.572223,-0.364151
757,1035114167,-0.338052,0.513568,-0.555462,-0.559877,6.046820,2.278505,-4.332395
758,1035147501,-0.333501,0.533540,-0.524299,-0.573806,3.440484,1.490678,-5.521665
759,1035180835,-0.317904,0.561847,-0.508673,-0.569691,0.859486,2.158035,-2.820433
760,1035214169,-0.306886,0.579551,-0.507021,-0.559375,-2.065949,0.636083,-0.344040
761,1035247503,-0.300370,0.587978,-0.519047,-0.542844,-1.552662,0.078240,-0.138722
762,1035280837,-0.293358,0.593280,-0.543813,-0.516003,-1.136078,-0.215694,0.128332
763,1035314171,-0.287708,0.594900,-0.571855,-0.486138,-0.581935,0.137821,1.218158
764,1035347505,-0.287884,0.590123,-0.597236,-0.460671,-0.121825,0.655408,1.166288
765,1035380839,-0.294948,0.580536,-0.618754,-0.439495,0.592510,0.638477,0.384372
766,1035414173,-0.303730,0.570883,-0.638612,-0.417187,0.754499,0.097565,0.020958
767,1035447507,-0.313497,0.561152,-0.657030,-0.393916,-0.254972,-0.452686,1.022727
768,1035480841,-0.329464,0.547550,-0.671401,-0.375358,-0.561536,-1.107446,1.069230
769,1035514175,-0.351389,0.529489,-0.681482,-0.363015,-0.618944,-2.253648,0.951399
770,1035547509,-0.372791,0.510634,-0.689074,-0.354242,-0.984534,-2.352223,0.829040
771,1035580843,-0.390770,0.492919,-0.694591,-0.349146,-1.491512,-1.763167,0.835344
772,1035614177,-0.404353,0.475784,-0.699177,-0.348296,-1.049404,-1.716897,0.830009
773,1035647511,-0.411242,0.459379,-0.705538,-0.349424,-1.076436,-0.601417,1.562901
774,1035680845,-0.417505,0.439304,-0.712381,-0.353901,-1.152895,0.918978,1.688363
775,1035714179,-0.427358,0.413157,-0.717956,-0.362265,-0.302451,0.980331,1.250593
776,1035747513,-0.441327,0.383422,-0.720683,-0.372646,0.132728,0.365664,0.658163
777,1035780847,-0.459405,0.354001,-0.718554,-0.383848,0.739171,-0.472366,-0.533380
778,1035814181,-0.485673,0.324379,-0.706882,-0.399060,0.745791,-0.887396,0.640380
779,1035847515,-0.516863,0.292219,-0.687144,-0.418718,0.181784,-1.945627,-1.088855
780,1035880849,-0.528341,0.274778,-0.677440,-0.431808,-0.719239,-1.986422,-2.176629
781,1035914183,-0.524351,0.270130,-0.678671,-0.437633,-1.058542,-0.984877,-0.984150
782,1035947517,-0.522822,0.265869,-0.677537,-0.443785,-1.524956,-1.034261,-0.185828
783,1035980851,-0.533046,0.254646,-0.667596,-0.453170,-1.508302,0.413899,2.393209
784,1036014185,-0.557157,0.231078,-0.646817,-0.466731,-1.638871,-0.702951,1.065060
785,1036047519,-0.581289,0.206206,-0.624794,-0.478796,-1.659545,-1.429344,0.002030
786,1036080853,-0.600928,0.185220,-0.605023,-0.488422,-2.171504,-1.608083,-2.005288
787,1036114187,-0.609594,0.178217,-0.595566,-0.491901,-2.766070,-2.269750,-2.786735
788,1036147521,-0.610941,0.187698,-0.593592,-0.489081,-1.749170,-2.364162,-2.375070
789,1036180855,-0.597050,0.215687,-0.605715,-0.479740,1.258838,-1.438267,-2.060680
790,1036214189,-0.559538,0.262855,-0.636998,-0.460530,4.204107,-1.000388,0.193187
791,1036247523,-0.521798,0.305806,-0.661491,-0.443475,6.335878,1.774458,3.349958
792,1036280857,-0.518494,0.322159,-0.650096,-0.452530,6.397480,1.842558,2.707649
793,1036314191,-0.540979,0.318120,-0.601863,-0.493896,6.181418,1.139034,-0.776677
794,1036347525,-0.544103,0.327217,-0.550576,-0.542012,3.563319,0.554757,-5.525496
795,1036380859,-0.515589,0.366854,-0.521337,-0.572560,-0.044857,1.989947,-4.027111
796,1036414193,-0.477931,0.411403,-0.519400,-0.576701,-2.126899,2.830075,1.911004
797,1036447527,-0.461064,0.422614,-0.526610,-0.575786,-4.498854,2.444709,2.326354
798,1036480861,-0.451235,0.421134,-0.543265,-0.569146,-2.483773,1.697430,-0.004211
799,1036514195,-0.445113,0.420630,-0.557725,-0.560284,-0.474716,2.774516,1.425433
800,1036547529,-0.453091,0.410016,-0.554975,-0.564472,1.298424,2.976526,0.541862
801,1036580863,-0.468373,0.395056,-0.541210,-0.575917,1.233003,3.106441,-1.992711
802,1036614197,-0.485011,0.382681,-0.525935,-0.584587,0.722575,2.676158,-2.340726
803,1036647531,-0.505154,0.370837,-0.511370,-0.588074,1.336591,2.473720,-1.442033
804,1036680865,-0.534137,0.353578,-0.494288,-0.587699,1.144452,2.026411,-1.030643
805,1036714199,-0.572922,0.330300,-0.472101,-0.582934,1.208583,1.417910,-1.241079
806,1036747533,-0.614032,0.310875,-0.452269,-0.567278,0.682578,0.740335,-2.268760
807,1036780867,-0.652402,0.302770,-0.439333,-0.538255,1.320964,0.124840,-2.556401
808,1036814201,-0.683777,0.309149,-0.437686,-0.495315,0.577621,0.260787,-1.304914
809,1036847535,-0.709326,0.319807,-0.444758,-0.443622,0.281868,0.035584,3.112810
810,1036880869,-0.735513,0.321660,-0.444278,-0.397747,0.398585,-1.240680,2.807814
811,1036914203,-0.754276,0.323030,-0.446562,-0.356837,-0.578106,-2.794604,2.606821
812,1036947537,-0.763372,0.325675,-0.455346,-0.322321,-2.292896,-3.781838,2.522933
813,1036980871,-0.766157,0.328191,-0.465747,-0.297329,-3.277587,-4.278713,2.103726
814,1037014205,-0.765610,0.331460,-0.472745,-0.283758,-3.770055,-4.607462,1.238955
815,1037047539,-0.758799,0.337947,-0.480277,-0.281746,-4.032517,-4.418329,1.420387
816,1037080873,-0.748886,0.345112,-0.482673,-0.295170,-3.116657,-3.998523,2.248683
817,1037114207,-0.735105,0.350751,-0.481315,-0.323976,-1.570503,-3.262091,1.369415
818,1037147541,-0.711286,0.357354,-0.487156,-0.359276,-0.488131,-2.412770,1.245543
819,1037180875,-0.683461,0.361489,-0.493482,-0.398387,0.717020,-1.635964,0.649782
820,1037214209,-0.657354,0.359234,-0.496284,-0.438826,1.546056,-0.652171,0.595385
821,1037247543,-0.634737,0.350484,-0.496763,-0.476999,2.625428,-0.063636,0.449890
822,1037280877,-0.615329,0.337322,-0.497854,-0.509663,2.828625,1.149120,0.158563
823,1037314211,-0.595727,0.324175,-0.504415,-0.534430,2.863841,1.958275,-0.116999
824,1037347545,-0.573585,0.314472,-0.517108,-0.552029,2.723134,2.182642,-0.670051
825,1037380879,-0.549117,0.310286,-0.532265,-0.564728,2.044163,2.029186,-1.525126
826,1037414213,-0.523387,0.312288,-0.545133,-0.575676,1.450781,1.694250,-1.963466
827,1037447547,-0.499105,0.317428,-0.552981,-0.586835,0.107369,1.606653,-0.999456
828,1037480881,-0.477052,0.324378,-0.556779,-0.597686,-0.754461,1.310197,-0.094136
829,1037514215,-0.453027,0.335132,-0.561645,-0.605837,-1.217159,-0.593593,0.340412
830,1037547549,-0.426612,0.350408,-0.568729,-0.609749,-1.148673,-0.914589,1.043177
831,1037580883,-0.401544,0.364651,-0.574571,-0.612935,-0.429713,-1.439830,0.750358
832,1037614217,-0.374832,0.380337,-0.579467,-0.615706,0.409134,-1.068534,0.395711
833,1037647551,-0.349009,0.395275,-0.580360,-0.620614,1.757043,0.434093,0.103034
834,1037680885,-0.327512,0.405888,-0.574775,-0.630599,2.104366,0.183967,-0.669556
835,1037714219,-0.306783,0.417055,-0.564870,-0.642574,1.680824,-0.696199,-1.526759
836,1037747553,-0.282950,0.434543,-0.553121,-0.652073,0.714936,-0.526266,-1.656794
837,1037780887,-0.257770,0.456095,-0.540588,-0.658275,0.060857,-0.906913,-1.487267
838,1037814221,-0.228782,0.484450,-0.530022,-0.657323,-0.811447,-1.663788,-0.630098
839,1037847555,-0.197710,0.517339,-0.520934,-0.649561,-0.372552,-0.256199,0.269135
840,1037880889,-0.170877,0.545384,-0.512416,-0.640950,-0.585736,0.235273,0.723257
841,1037914223,-0.153949,0.562370,-0.503153,-0.637893,-1.325436,0.540110,0.271901
842,1037947557,-0.143198,0.570237,-0.495201,-0.639633,-0.594262,1.241027,-0.134514
843,1037980891,-0.132423,0.575432,-0.490484,-0.640936,-0.313953,1.639098,0.089219
844,1038014225,-0.122102,0.578025,-0.486989,-0.643312,-0.919534,1.612861,-0.571574
845,1038047559,-0.112685,0.578885,-0.483998,-0.646507,-0.327174,0.684553,-0.915794
846,1038080893,-0.104829,0.580316,-0.481214,-0.648620,-0.499771,0.241338,-0.268371
847,1038114227,-0.098377,0.583074,-0.479128,-0.648701,0.136596,0.204206,-0.423110
848,1038147561,-0.091725,0.587552,-0.477423,-0.646890,0.227650,0.334114,-0.322985
849,1038180895,-0.085229,0.592608,-0.474939,-0.644992,0.086879,0.709977,-0.751523
850,1038214229,-0.077972,0.598773,-0.472007,-0.642364,0.402114,0.553025,-1.113208
851,1038247563,-0.069758,0.607701,-0.468583,-0.637412,0.439737,0.445858,-0.870151
852,1038280897,-0.063377,0.616084,-0.464399,-0.633078,-0.169025,0.547054,-0.615506
853,1038314231,-0.059335,0.623072,-0.460118,-0.629748,-0.531184,-0.061248,-0.472617
854,1038347565,-0.056193,0.630233,-0.455749,-0.626077,-0.888591,-0.002881,0.011640
855,1038380899,-0.054547,0.636393,-0.451626,-0.622971,-1.265613,0.898879,0.458741
856,1038414233,-0.054330,0.640363,-0.448776,-0.620978,-1.780040,1.549297,0.496661
857,1038447567,-0.056529,0.640573,-0.447397,-0.621560,-1.918662,1.126375,-0.022411
858,1038480901,-0.060418,0.639484,-0.447584,-0.622181,-1.102913,0.272790,-0.524975
859,1038514235,-0.064609,0.640593,-0.448576,-0.619900,-0.452462,-0.333788,-0.567610
860,1038547569,-0.069662,0.642509,-0.449731,-0.616524,-0.018662,-0.463094,-0.111966
861,1038580903,-0.074865,0.644093,-0.451203,-0.613177,0.255577,-0.208490,-0.043724
862,1038614237,-0.078404,0.646433,-0.453458,-0.608591,0.044030,-0.063265,0.235433
863,1038647571,-0.081046,0.647812,-0.456508,-0.604486,-0.527162,-0.238985,0.263143
864,1038680905,-0.083491,0.647431,-0.461035,-0.601116,-0.737857,-0.647054,0.201968
865,1038714239,-0.085310,0.645890,-0.467684,-0.597369,-1.654740,0.593609,0.779336
866,1038747573,-0.090557,0.638283,-0.476040,-0.598172,-5.440504,3.154880,1.015849
867,1038780907,-0.109159,0.607774,-0.487500,-0.617309,-2.040936,3.674667,-0.856668
868,1038814241,-0.126910,0.590278,-0.506099,-0.615922,-1.378410,2.270821,-1.900148
869,1038847575,-0.148671,0.572116,-0.523046,-0.614031,-2.116636,2.068648,-1.710335
870,1038880909,-0.172977,0.554645,-0.540586,-0.608477,-0.336257,2.565167,-0.624626
871,1038914243,-0.200629,0.533872,-0.558082,-0.602746,0.168102,3.204642,0.505811
872,1038947577,-0.233200,0.506190,-0.575778,-0.598247,0.889219,2.189691,-0.206935
873,1038980911,-0.262816,0.478054,-0.597263,-0.587962,1.310225,2.603470,-0.301455
874,1039014245,-0.294925,0.444481,-0.619884,-0.575526,1.981797,2.325268,-0.464705
875,1039047579,-0.333025,0.404408,-0.639930,-0.562199,2.589454,2.080985,-0.564864
876,1039080913,-0.379547,0.358391,-0.654481,-0.546978,2.436661,1.016004,-1.336267
877,1039114247,-0.429310,0.313189,-0.664986,-0.524814,2.285629,-0.412585,-1.461479
878,1039147581,-0.477173,0.273639,-0.673327,-0.494053,1.510267,-1.420581,-1.750687
879,1039180915,-0.519836,0.241809,-0.680851,-0.455819,1.205316,-2.101429,-1.294513
880,1039214249,-0.554800,0.218380,-0.688655,-0.412664,0.353934,-2.143408,-1.429014
881,1039247583,-0.586646,0.201696,-0.693705,-0.366018,-1.287837,-2.621377,-2.705250
882,1039280917,-0.618719,0.194176,-0.694018,-0.312812,-1.300047,-0.464016,-2.562712
883,1039314251,-0.661528,0.186445,-0.677336,-0.262420,0.882804,-0.120223,1.088976
884,1039347585,-0.670865,0.188903,-0.684519,-0.213820,4.342134,-1.339713,3.145093
885,1039380919,-0.642977,0.191890,-0.721128,-0.172522,3.311241,-3.530346,5.474974
886,1039414253,-0.628862,0.184794,-0.739410,-0.153906,-0.601522,-3.025917,4.174683
887,1039447587,-0.642316,0.174154,-0.730948,-0.151152,-3.268128,-2.612728,0.632994
888,1039480921,-0.649525,0.168558,-0.725805,-0.151466,-3.552555,-2.512061,0.261646
889,1039514255,-0.640130,0.169153,-0.733139,-0.155431,-3.718823,-3.592564,1.317822
890,1039547589,-0.625698,0.175082,-0.740912,-0.170082,-3.134975,-3.877331,2.389730
891,1039580923,-0.615128,0.184845,-0.740182,-0.199024,-2.342427,-3.423598,2.079563
892,1039614257,-0.602198,0.198209,-0.735906,-0.237790,-1.805390,-1.931986,1.718297
893,1039647591,-0.584266,0.213922,-0.730651,-0.281159,-1.026798,-0.920622,1.120737
894,1039680925,-0.560632,0.231439,-0.725536,-0.325203,0.257975,-0.565393,1.977444
895,1039714259,-0.542267,0.244465,-0.712840,-0.371581,0.998390,-0.309499,2.412756
896,1039747593,-0.523379,0.253223,-0.697198,-0.419402,0.387736,-0.740296,2.104947
897,1039780927,-0.494022,0.262748,-0.685710,-0.465551,0.641206,-0.611154,2.234982
898,1039814261,-0.461468,0.271033,-0.672075,-0.511795,1.200755,-0.881567,1.875450
899,1039847595,-0.432030,0.276600,-0.652029,-0.558329,1.414904,0.179511,0.518665
900,1039880929,-0.407646,0.278840,-0.628581,-0.600824,1.643329,0.445833,-1.527781
901,1039914263,-0.386909,0.279465,-0.607352,-0.635102,1.626366,0.837039,-2.999238
902,1039947597,-0.367248,0.281838,-0.595110,-0.656941,0.599608,1.474913,-3.591685
903,1039980931,-0.353816,0.282861,-0.589830,-0.668532,-0.068953,1.686688,-4.433579
904,1040014265,-0.346382,0.283285,-0.589014,-0.672950,-0.151776,0.461171,-4.042488
905,1040047599,-0.330904,0.299335,-0.596993,-0.666731,1.113412,1.000859,-4.556433
906,1040080933,-0.303557,0.331516,-0.611357,-0.651324,3.526243,2.529314,-2.318277
907,1040114267,-0.289330,0.348398,-0.615904,-0.644670,2.481598,3.622364,-0.121205
908,1040147601,-0.292683,0.341594,-0.609349,-0.652974,0.820025,1.402367,-0.717838
909,1040180935,-0.292578,0.338044,-0.602737,-0.660956,-0.372118,0.256459,-0.659465
910,1040214269,-0.285783,0.345098,-0.599876,-0.662884,-0.687351,-0.248762,-0.076439
911,1040247603,-0.276672,0.356607,-0.599730,-0.660786,-0.864185,0.483627,0.936802
912,1040280937,-0.270222,0.363897,-0.600496,-0.658782,-0.790051,0.922338,1.130510
913,1040314271,-0.267729,0.364985,-0.600969,-0.658767,-0.655255,1.226285,0.821156
914,1040347605,-0.266637,0.361875,-0.601803,-0.660163,-0.529610,1.340760,0.151928
915,1040380939,-0.266436,0.356402,-0.604003,-0.661211,-0.070801,1.817443,-0.312317
916,1040414273,-0.268400,0.348210,-0.607267,-0.661791,-0.037816,1.808160,-0.895780
917,1040447607,-0.272111,0.337943,-0.611638,-0.661573,0.034986,1.077930,-1.289705
918,1040480941,-0.277761,0.327731,-0.616344,-0.659993,0.316322,-0.256817,-1.096128
919,1040514275,-0.286212,0.319473,-0.619080,-0.657868,0.334031,-1.136748,-0.754346
920,1040547609,-0.295520,0.315185,-0.619139,-0.655762,0.338328,-1.383810,-0.196165
921,1040580943,-0.303733,0.314232,-0.617400,-0.654104,0.089079,-1.216972,0.120698
922,1040614277,-0.310027,0.314378,-0.615895,-0.652498,-0.152833,-0.913703,0.549688
923,1040647611,-0.312478,0.315793,-0.616508,-0.650062,-0.085802,-0.161957,0.784858
924,1040680945,-0.312202,0.315598,-0.619438,-0.647499,0.006403,0.608115,0.674623
925,1040714279,-0.311454,0.311829,-0.623837,-0.645459,0.461687,1.501546,0.358624
926,1040747613,-0.313528,0.303460,-0.627991,-0.644414,0.478638,2.394555,-0.205983
927,1040780947,-0.320262,0.290724,-0.630424,-0.644599,-0.007965,2.118617,-0.654824
928,1040814281,-0.329287,0.278001,-0.631896,-0.644223,-0.348451,1.174777,-1.043707
929,1040847615,-0.337868,0.269368,-0.634572,-0.640808,-0.452128,0.519752,-0.507426
930,1040880949,-0.346721,0.262651,-0.638991,-0.634445,0.063955,0.266171,-0.386779
931,1040914283,-0.354722,0.254749,-0.645602,-0.626501,0.968435,1.162758,-0.764450
932,1040947617,-0.364476,0.240759,-0.652979,-0.618742,1.411591,1.653553,-1.383341
933,1040980951,-0.376644,0.221251,-0.660574,-0.610623,1.403350,1.551884,-2.213356
934,1041014285,-0.389731,0.200517,-0.669834,-0.599380,1.053604,1.034532,-2.032721
935,1041047619,-0.413302,0.173673,-0.675842,-0.585054,1.774218,1.071524,-1.397841
936,1041080953,-0.463511,0.129649,-0.667170,-0.568562,0.935523,0.510247,-1.819049
937,1041114287,-0.530441,0.080827,-0.646051,-0.542906,-1.731457,-1.201070,-3.768920
938,1041147621,-0.587839,0.054361,-0.630544,-0.503919,-0.197835,-1.031839,-3.255317
939,1041180955,-0.633229,0.047726,-0.624152,-0.455201,1.217669,-0.091187,-2.150959
940,1041214289,-0.671425,0.050384,-0.620666,-0.401814,3.025011,0.183203,-0.741257
941,1041247623,-0.714406,0.052942,-0.604949,-0.347690,3.264331,-0.921890,-0.139603
942,1041280957,-0.754539,0.057814,-0.584101,-0.293573,1.540915,-0.193028,0.476618
943,1041314291,-0.777842,0.071029,-0.577017,-0.238742,-0.610278,-1.421756,-0.285655
944,1041347625,-0.786042,0.093874,-0.583691,-0.180723,-1.527593,-3.331374,2.065040
945,1041380959,-0.798653,0.116408,-0.575786,-0.130780,-1.982752,-4.225650,4.435708
946,1041414293,-0.813750,0.137792,-0.556295,-0.096910,-2.216086,-3.292693,2.892886
947,1041447627,-0.816567,0.157054,-0.550116,-0.077170,-2.436474,-2.374251,4.212549
948,1041480961,-0.807538,0.172078,-0.559786,-0.070305,-3.122122,-1.889704,4.758040
949,1041514295,-0.795417,0.182897,-0.572743,-0.076525,-3.355738,-1.302070,4.347617
950,1041547629,-0.784527,0.189737,-0.582763,-0.094522,-3.327161,-1.007932,3.157029
951,1041580963,-0.776791,0.193560,-0.586884,-0.121356,-2.633708,-1.143481,2.816607
952,1041614297,-0.771496,0.194509,-0.585536,-0.155364,-1.873126,-2.051991,2.248426
953,1041647631,-0.764728,0.195008,-0.581957,-0.196264,-2.073638,-3.766133,1.344277
954,1041680965,-0.754208,0.197562,-0.576830,-0.243796,-0.155806,-4.020810,1.984964
955,1041714299,-0.735493,0.202766,-0.574122,-0.297239,1.059580,-4.017483,1.745425
956,1041747633,-0.704338,0.213044,-0.576660,-0.354983,3.220814,-2.933267,2.405480
957,1041780967,-0.666400,0.222858,-0.576536,-0.416992,4.549848,-1.273492,2.792631
958,1041814301,-0.626477,0.228292,-0.568915,-0.481429,4.435616,0.508757,0.949996
959,1041847635,-0.579410,0.234281,-0.561296,-0.542562,3.760699,1.851376,-0.142923
960,1041880969,-0.523700,0.244415,-0.557347,-0.596150,2.589262,2.285422,0.026878
961,1041914303,-0.462774,0.257128,-0.555487,-0.641241,1.960762,1.768978,-0.762592
962,1041947637,-0.397639,0.271898,-0.554595,-0.678534,1.430224,1.624223,-0.796741
963,1041980971,-0.331217,0.288149,-0.554408,-0.707056,0.895720,1.617903,-0.541584
964,1042014305,-0.272139,0.298213,-0.550105,-0.731043,0.833743,1.424384,-0.888040
965,1042047639,-0.223421,0.301041,-0.541826,-0.752272,0.084262,1.382715,-0.934928
966,1042080973,-0.185439,0.298476,-0.531888,-0.770486,-0.684794,0.467814,-1.160959
967,1042114307,-0.156664,0.295510,-0.520792,-0.785453,-0.602590,-0.111450,-1.847888
968,1042147641,-0.134194,0.298273,-0.508935,-0.796267,-0.790048,0.234064,-2.745110
969,1042180975,-0.120597,0.304912,-0.493028,-0.805877,-0.072726,2.900272,-4.547401
970,1042214309,-0.121796,0.298272,-0.462046,-0.826283,1.886405,7.549879,-3.790679
971,1042247643,-0.123859,0.278309,-0.415024,-0.857315,0.715245,0.259596,-8.649384
972,1042280977,-0.113399,0.286340,-0.376936,-0.873556,-0.796408,0.368488,-2.885370
973,1042314311,-0.098674,0.306450,-0.354777,-0.877790,-2.209272,-0.465795,1.953778
974,1042347645,-0.086332,0.321788,-0.350797,-0.875198,-3.104347,-1.604834,4.439572
975,1042380979,-0.075307,0.335847,-0.366279,-0.864526,-1.943902,-2.037165,3.620562
976,1042414313,-0.062052,0.358006,-0.395105,-0.843744,-1.792470,-2.028206,1.801026
977,1042447647,-0.047505,0.390615,-0.426011,-0.814683,0.510244,-0.068232,0.065580
978,1042480981,-0.058450,0.390604,-0.436987,-0.808137,2.137346,3.477135,0.168372
979,1042514315,-0.088979,0.349576,-0.415859,-0.834848,2.429857,1.732897,-2.427810
980,1042547649,-0.104508,0.331357,-0.382519,-0.856148,-0.394598,-0.938682,-3.858571
981,1042580983,-0.101927,0.351430,-0.361122,-0.857746,0.655644,0.098422,-1.928614
982,1042614317,-0.095598,0.364789,-0.360082,-0.853324,-1.321552,2.480664,3.243875
983,1042647651,-0.093699,0.358804,-0.380856,-0.847030,-3.091682,-0.864999,1.679674
984,1042680985,-0.087830,0.364502,-0.413017,-0.829983,-0.793792,-2.280144,-1.303678
985,1042714319,-0.079241,0.388589,-0.437765,-0.806915,0.010556,-1.187917,-0.675792
986,1042747653,-0.089844,0.392920,-0.445280,-0.799561,-1.724595,2.506265,0.664368
987,1042780987,-0.117435,0.367969,-0.436260,-0.812721,0.578351,1.230379,-1.492256
988,1042814321,-0.139441,0.357214,-0.422134,-0.821455,-0.793041,0.585409,-1.136186
989,1042847655,-0.151671,0.365084,-0.411507,-0.821220,-0.599957,-0.501014,-2.571815
990,1042880989,-0.161823,0.370602,-0.407680,-0.818715,-2.954393,2.641744,-0.380192
991,1042914323,-0.168906,0.371555,-0.424126,-0.808434,-2.771929,2.023278,0.394969
992,1042947657,-0.169153,0.384531,-0.460290,-0.782104,-0.533648,2.405439,-0.604299
993,1042980991,-0.168791,0.396941,-0.501487,-0.749992,1.435502,1.720719,-1.475879
994,1043014325,-0.172479,0.408157,-0.536080,-0.718545,0.639527,1.350122,-1.902503
995,1043047659,-0.193608,0.405694,-0.561426,-0.694808,-1.768928,4.488662,-0.918926
996,1043080993,-0.234750,0.383643,-0.577250,-0.681560,0.448165,3.475193,-2.605892
997,1043114327,-0.286995,0.360378,-0.587638,-0.665187,0.204226,3.515532,-1.200886
998,1043147661,-0.354844,0.327013,-0.589696,-0.647640,1.415473,3.598040,0.538137
999,1043180995,-0.434823,0.285387,-0.582048,-0.625087,1.571681,2.526286,1.080578
1000,1043214329,-0.525100,0.237112,-0.560292,-0.595106,2.585444,1.224957,0.363517
1001,1043247663,-0.614324,0.192002,-0.527817,-0.554239,2.990115,0.002936,0.247870
1002,1043280997,-0.691750,0.161179,-0.495844,-0.499672,1.028948,-1.113863,-0.854753
1003,1043314331,-0.749072,0.150496,-0.477889,-0.433469,1.637552,-1.678523,-0.573624
1004,1043347665,-0.792870,0.144297,-0.463831,-0.368005,2.013399,-4.566643,4.495117
1005,1043380999,-0.831980,0.136367,-0.434425,-0.317046,0.908872,-4.325623,2.603825
1006,1043414333,-0.850989,0.137303,-0.424406,-0.277265,1.195130,-2.542125,2.461435
1007,1043447667,-0.844449,0.142337,-0.453341,-0.247300,0.771818,-3.806716,3.746272
1008,1043481001,-0.824691,0.143593,-0.496958,-0.228755,-0.725769,-4.478995,4.066175
1009,1043514335,-0.803508,0.139104,-0.534140,-0.223048,-2.498137,-3.380588,2.871964
1010,1043547669,-0.785834,0.129547,-0.559769,-0.228847,-2.923411,-2.596910,2.915201
1011,1043581003,-0.773405,0.116298,-0.573005,-0.244980,-2.222228,-2.025867,2.238881
1012,1043614337,-0.761722,0.102219,-0.580494,-0.269049,-1.872267,-0.866696,1.230454
1013,1043647671,-0.746805,0.090030,-0.587403,-0.298604,-0.866036,-0.247702,0.815262
1014,1043681005,-0.729457,0.080848,-0.592924,-0.331403,-1.756881,-0.334957,-0.163692
1015,1043714339,-0.710646,0.075096,-0.596349,-0.365707,-1.760342,0.290932,2.321574
1016,1043747673,-0.696295,0.065128,-0.590490,-0.402845,-2.481852,0.151648,1.738375
1017,1043781007,-0.678110,0.054799,-0.585790,-0.440505,-2.071397,-1.729721,1.417156
1018,1043814341,-0.655906,0.044220,-0.581161,-0.479703,1.082919,-2.215827,3.071786
1019,1043847675,-0.635529,0.028052,-0.569273,-0.520841,1.106173,-2.169783,1.480721
1020,1043881009,-0.610648,0.014856,-0.558479,-0.561267,0.711128,-1.558052,0.182082
1021,1043914343,-0.577808,0.012053,-0.554189,-0.599080,-0.122671,-2.129681,-1.464244
1022,1043947677,-0.531516,0.030915,-0.561107,-0.633817,0.786441,-3.846410,-2.838862
1023,1043981011,-0.475731,0.067139,-0.577731,-0.659871,3.000128,-1.427153,-0.998747
1024,1044014345,-0.433892,0.095884,-0.585981,-0.677644,3.594011,1.251739,-1.328259
1025,1044047679,-0.421084,0.099239,-0.577765,-0.692140,2.395599,2.249734,-3.338904
1026,1044081013,-0.419321,0.097548,-0.558783,-0.708835,1.182101,2.131921,-4.012041
1027,1044114347,-0.405626,0.114550,-0.542752,-0.726496,1.538041,1.262352,-3.181305
1028,1044147681,-0.383945,0.143711,-0.532000,-0.740905,0.111335,1.279814,-0.940205
1029,1044181015,-0.354175,0.185231,-0.526977,-0.750050,1.720127,-1.515283,-2.568562
1030,1044214349,-0.324345,0.215578,-0.530939,-0.752636,-0.001120,4.211534,4.743076
1031,1044247683,-0.298197,0.232321,-0.540400,-0.751734,-0.488115,0.991028,1.153565
1032,1044281017,-0.273066,0.243848,-0.552441,-0.748874,0.235967,2.465269,2.023549
1033,1044314351,-0.258679,0.244889,-0.557931,-0.749572,-1.046351,3.175983,0.947435
1034,1044347685,-0.270549,0.218621,-0.543072,-0.764272,0.752561,2.459736,-0.253044
1035,1044381019,-0.286066,0.188483,-0.517727,-0.783983,0.100499,-1.054719,-2.030795
1036,1044414353,-0.280366,0.195407,-0.501649,-0.794726,0.809863,-3.879354,-3.738950
1037,1044447687,-0.267383,0.210771,-0.491539,-0.801563,1.487645,0.101746,1.042026
1038,1044481021,-0.252773,0.217392,-0.486744,-0.807439,0.578401,-0.066447,2.211197
1039,1044514355,-0.237498,0.219032,-0.485188,-0.812553,1.051704,0.238653,1.242751
1040,1044547689,-0.225047,0.214632,-0.481694,-0.819322,0.114234,0.411745,0.005271
1041,1044581023,-0.217476,0.203816,-0.473248,-0.828993,-0.209911,2.156371,-0.157800
1042,1044614357,-0.215497,0.184295,-0.458857,-0.842067,-0.982571,0.865022,-0.924991
1043,1044647691,-0.206126,0.179103,-0.449322,-0.850632,-2.109492,-0.309102,-1.843596
1044,1044681025,-0.189875,0.189175,-0.446458,-0.853737,0.180489,-0.431944,-2.549489
1045,1044714359,-0.170002,0.198692,-0.450202,-0.853797,-0.821407,0.941941,-0.887832
1046,1044747693,-0.142555,0.223102,-0.461331,-0.846822,-0.315072,1.085605,-0.284397
1047,1044781027,-0.128767,0.227244,-0.464203,-0.846360,-0.480547,1.084119,-0.284184
1048,1044814361,-0.132869,0.205720,-0.455754,-0.855771,-0.457072,0.150150,-1.016763
1049,1044847695,-0.146006,0.172967,-0.441789,-0.868111,-1.003403,0.248646,-1.882294
1050,1044881029,-0.152292,0.155325,-0.429700,-0.876396,-1.280286,-1.476194,-1.914244
1051,1044914363,-0.147484,0.158765,-0.423130,-0.879792,-2.351519,-0.166725,-1.029232
1052,1044947697,-0.131420,0.185960,-0.427544,-0.874862,-2.437862,-0.180167,-0.857591
1053,1044981031,-0.108957,0.226202,-0.442465,-0.860939,-0.963902,1.834545,-0.350580
1054,1045014365,-0.088026,0.261192,-0.461766,-0.843109,-0.235692,1.304832,-0.902632
1055,1045047699,-0.074327,0.287694,-0.476040,-0.827722,-0.204755,1.886249,-0.511839
1056,1045081033,-0.078593,0.292702,-0.482321,-0.821916,-1.724128,3.437256,-0.911436
1057,1045114367,-0.103244,0.271294,-0.483574,-0.825788,-1.360450,2.634267,-1.619693
1058,1045147701,-0.136574,0.245451,-0.480793,-0.830644,-0.951275,0.323331,-0.943075
1059,1045181035,-0.171094,0.229432,-0.475871,-0.831664,-1.709912,1.490907,-1.467946
1060,1045214369,-0.202105,0.230958,-0.476980,-0.823609,-1.988596,1.305342,-0.435592
1061,1045247703,-0.229272,0.250829,-0.485190,-0.805693,-0.740121,2.056245,-0.415063
1062,1045281037,-0.257001,0.275477,-0.500863,-0.779249,-0.687218,3.616721,0.250448
1063,1045314371,-0.291234,0.290446,-0.523435,-0.746238,0.451205,3.857752,-0.223488
1064,1045347705,-0.333105,0.293936,-0.549072,-0.707950,2.235878,2.803317,-0.184877
1065,1045381039,-0.382012,0.288375,-0.569508,-0.668280,2.428878,1.017916,-0.296064
1066,1045414373,-0.429595,0.286218,-0.585992,-0.624637,1.413231,1.065703,0.542694
1067,1045447707,-0.479524,0.278947,-0.592608,-0.584030,2.204520,0.303849,3.485666
1068,1045481041,-0.535590,0.261496,-0.582254,-0.552968,1.476452,-1.780599,3.222811
1069,1045514375,-0.588322,0.243369,-0.562752,-0.527247,0.609176,-1.968311,2.801618
1070,1045547709,-0.632420,0.227333,-0.544173,-0.502266,-0.952612,-1.741680,2.008815
1071,1045581043,-0.664873,0.214305,-0.533508,-0.476882,-1.167241,-1.842238,0.792418
1072,1045614377,-0.687841,0.203438,-0.531013,-0.451158,-0.117617,-1.412369,1.905325
1073,1045647711,-0.709978,0.187779,-0.525690,-0.429361,0.042427,-1.061779,1.392168
1074,1045681045,-0.731912,0.169330,-0.515948,-0.411656,-0.110960,-0.788928,0.457954
1075,1045714379,-0.751235,0.153402,-0.505302,-0.395997,-0.383361,-0.494353,-0.253025
1076,1045747713,-0.766809,0.143250,-0.496251,-0.381114,-0.431796,-0.726379,-0.993885
1077,1045781047,-0.778092,0.142054,-0.491548,-0.364424,0.561211,-0.405933,-1.378242
1078,1045814381,-0.792488,0.139114,-0.482778,-0.345785,-0.368324,-0.334280,0.528623
1079,1045847715,-0.816749,0.130372,-0.454677,-0.330489,-0.539973,-0.080322,-1.141085
1080,1045881049,-0.836265,0.126147,-0.432763,-0.312241,1.138888,-1.145871,2.112493
1081,1045914383,-0.848630,0.126641,-0.418419,-0.297903,0.465995,-0.940772,-1.572904
1082,1045947717,-0.848894,0.133985,-0.425136,-0.284105,0.845184,-1.841222,1.159834
1083,1045981051,-0.847147,0.140042,-0.432254,-0.275531,-0.040592,-2.365494,1.501336
1084,1046014385,-0.844343,0.144891,-0.439004,-0.270920,-0.930533,-2.071146,1.155419
1085,1046047719,-0.837341,0.150546,-0.450867,-0.270085,-1.672610,-2.244854,0.861821
1086,1046081053,-0.821513,0.160166,-0.473592,-0.274234,-2.080319,-2.749799,1.579359
1087,1046114387,-0.799087,0.171972,-0.499654,-0.286813,-1.701860,-2.935448,2.961733
1088,1046147721,-0.772632,0.183214,-0.522084,-0.311338,-1.062662,-2.916481,2.747611
1089,1046181055,-0.739168,0.193360,-0.544569,-0.346002,-0.015407,-2.177566,3.797083
1090,1046214389,-0.704840,0.195386,-0.560906,-0.387866,-0.042025,-0.407998,3.198230
1091,1046247723,-0.673964,0.186118,-0.571022,-0.430229,-0.598140,0.008945,0.764519
1092,1046281057,-0.643640,0.172606,-0.579365,-0.469362,0.456137,-0.803447,0.317477
1093,1046314391,-0.612606,0.161692,-0.585654,-0.505579,1.707332,-1.274458,-0.017163
1094,1046347725,-0.579870,0.159507,-0.589739,-0.539024,1.181103,-1.320362,-1.959918
1095,1046381059,-0.539042,0.175402,-0.598229,-0.566410,1.068325,-0.491902,-2.338244
1096,1046414393,-0.505480,0.197172,-0.599235,-0.588694,2.357994,6.548342,3.875890
1097,1046447727,-0.512625,0.173043,-0.557460,-0.629715,5.750555,1.296793,-0.853603
1098,1046481061,-0.511218,0.152830,-0.518818,-0.667950,0.882945,-0.856854,-5.000403
1099,1046514395,-0.500591,0.148852,-0.494006,-0.695155,0.101792,0.843554,-4.173348
1100,1046547729,-0.482736,0.157207,-0.487760,-0.710192,-0.108967,1.094911,-1.596416
1101,1046581063,-0.467155,0.165169,-0.487363,-0.719022,0.091305,0.860839,-0.292612
1102,1046614397,-0.454038,0.169192,-0.488473,-0.725706,0.374548,0.389307,0.378047
1103,1046647731,-0.438294,0.174146,-0.493005,-0.731128,-0.504061,0.196717,1.523693
1104,1046681065,-0.418958,0.180242,-0.499104,-0.736826,-0.130652,0.593650,1.249750
1105,1046714399,-0.395186,0.188743,-0.507939,-0.741777,-0.117827,0.931907,0.600504
1106,1046747733,-0.368176,0.200217,-0.518108,-0.745623,-0.070421,0.881513,-0.274863
1107,1046781067,-0.341307,0.215141,-0.527998,-0.747310,0.085270,2.150522,-1.410503
1108,1046814401,-0.327601,0.220992,-0.529620,-0.750582,0.700250,1.761623,-0.539804
1109,1046847735,-0.330699,0.210664,-0.514754,-0.762442,0.286083,0.259459,-2.389119
1110,1046881069,-0.336603,0.203968,-0.494766,-0.774811,-1.399867,-1.979748,-1.830151
1111,1046914403,-0.335994,0.215598,-0.480277,-0.781019,-0.890373,-2.331615,-1.990873
1112,1046947737,-0.326190,0.237873,-0.478995,-0.779494,0.479107,-1.819875,1.027591
1113,1046981071,-0.309973,0.262884,-0.490955,-0.770586,-0.305778,-2.401865,0.981717
1114,1047014405,-0.283780,0.297536,-0.514291,-0.752646,-0.687658,-2.358797,0.383396
1115,1047047739,-0.252017,0.339918,-0.541281,-0.726628,0.306717,-0.547709,1.181930
1116,1047081073,-0.238920,0.361300,-0.555919,-0.709482,0.728941,2.315578,1.486698
1117,1047114407,-0.257328,0.348125,-0.551588,-0.713002,-0.740736,3.984034,-0.327922
1118,1047147741,-0.272760,0.329205,-0.531324,-0.731404,4.620979,0.703827,-2.407437
1119,1047181075,-0.262781,0.343643,-0.508286,-0.744669,2.061116,0.906047,-2.805088
1120,1047214409,-0.243267,0.369603,-0.487119,-0.752967,0.925490,-0.056073,-2.879608
1121,1047247743,-0.219725,0.396989,-0.478828,-0.751581,0.352977,0.824112,-1.112298
1122,1047281077,-0.198760,0.424818,-0.486946,-0.736843,-0.722223,-1.666088,-1.706470
1123,1047314411,-0.178665,0.462301,-0.499594,-0.710488,1.432114,-1.482339,-2.213650
1124,1047347745,-0.174133,0.495585,-0.496862,-0.690820,0.335134,-0.023613,-0.671629
1125,1047381079,-0.190022,0.507748,-0.463597,-0.700851,2.550807,0.191884,-1.596578
1126,1047414413,-0.205974,0.523356,-0.410015,-0.718047,-0.554870,1.003104,-2.834044
1127,1047447747,-0.212414,0.554561,-0.360218,-0.719456,0.255026,-0.614770,-3.058574
1128,1047481081,-0.217238,0.589361,-0.318548,-0.709943,-0.673830,-0.061371,-0.825030
1129,1047514415,-0.218199,0.633408,-0.294075,-0.681714,-1.793696,-2.128208,1.635588
1130,1047547749,-0.225831,0.671397,-0.278195,-0.648741,-0.326822,-1.493578,1.571913
1131,1047581083,-0.236927,0.702037,-0.264345,-0.617383,0.082908,-0.151813,1.991434
1132,1047614417,-0.253069,0.721688,-0.248481,-0.594484,-1.295876,0.019381,3.489565
1133,1047647751,-0.268394,0.728625,-0.224248,-0.588909,-1.203811,1.727691,1.521688
1134,1047681085,-0.278931,0.727458,-0.185025,-0.598998,0.422935,0.941715,4.484365
1135,1047714419,-0.278643,0.711028,-0.128456,-0.632714,0.467427,1.646349,1.774556
1136,1047747753,-0.267797,0.704834,-0.086717,-0.651156,-0.382260,0.296855,-1.114758
1137,1047781087,-0.257086,0.710258,-0.063748,-0.652233,0.235060,-0.885099,0.435472
1138,1047814421,-0.248138,0.718293,-0.059389,-0.647291,0.390617,-1.032815,0.609659
1139,1047847755,-0.242886,0.736467,-0.069682,-0.627533,0.074701,-1.068352,0.841103
1140,1047881089,-0.243020,0.745312,-0.074794,-0.616350,-3.255333,-2.305193,2.933406
1141,1047914423,-0.243006,0.729679,-0.063520,-0.636013,-0.448678,-0.440782,2.475728
1142,1047947757,-0.239005,0.705366,-0.036555,-0.666355,0.018229,1.934551,-0.320456
1143,1047981091,-0.231615,0.687295,-0.012814,-0.688365,-0.142459,0.804777,-0.272772
1144,1048014425,-0.224555,0.678506,-0.001442,-0.699452,0.330499,0.357461,-1.364653
1145,1048047759,-0.219781,0.676893,0.002190,-0.702523,1.488756,0.466972,-1.633676
1146,1048081093,-0.216368,0.678926,0.003972,-0.701611,1.779499,0.151495,-1.322049
1147,1048114427,-0.214605,0.681092,0.008620,-0.700010,0.239512,-0.733861,0.107709
1148,1048147761,-0.214270,0.674393,0.017460,-0.706405,-1.801332,-0.817819,1.626493
1149,1048181095,-0.213501,0.661797,0.028911,-0.718078,-2.799070,-0.165920,0.061071
1150,1048214429,-0.209881,0.656387,0.038837,-0.723621,-2.611113,0.910228,-1.161917
1151,1048247763,-0.205421,0.666203,0.042829,-0.715662,-2.656667,1.732901,-1.239533
1152,1048281097,-0.201187,0.678147,0.039640,-0.705762,-3.277752,1.287867,-1.235743
1153,1048314431,-0.200386,0.693650,0.025567,-0.691427,-3.635289,0.635994,-1.776156
1154,1048347765,-0.205522,0.713686,0.004748,-0.669642,-3.567735,0.855826,-1.231256
1155,1048381099,-0.215135,0.730120,-0.016525,-0.648382,-3.419010,1.717430,-0.667869
1156,1048414433,-0.228864,0.740990,-0.035626,-0.630331,-3.135078,2.853231,-1.017680
1157,1048447767,-0.247099,0.749237,-0.052514,-0.612257,-2.498430,3.308633,-1.350410
1158,1048481101,-0.269710,0.756486,-0.068007,-0.591939,-2.485693,2.806698,-0.566108
1159,1048514435,-0.298598,0.758958,-0.083644,-0.572588,-2.388068,2.378842,0.449098
1160,1048547769,-0.335372,0.754561,-0.100772,-0.555012,-2.224484,2.389462,1.262308
1161,1048581103,-0.380417,0.740238,-0.119018,-0.541476,-1.901723,2.308593,2.173948
1162,1048614437,-0.433873,0.712185,-0.135051,-0.535105,-0.450031,2.376279,3.391227
1163,1048647771,-0.495659,0.667285,-0.142824,-0.537294,1.172824,1.897229,3.497153
1164,1048681105,-0.562648,0.608235,-0.138750,-0.542454,2.916979,1.830370,2.959405
1165,1048714439,-0.630159,0.540875,-0.123953,-0.543157,4.019391,1.070476,2.165631
1166,1048747773,-0.692586,0.472769,-0.103338,-0.534945,4.689849,0.541935,1.491101
1167,1048781107,-0.746369,0.411530,-0.085586,-0.516024,4.951078,-0.089645,0.644861
1168,1048814441,-0.789657,0.364587,-0.081463,-0.486736,4.782750,-0.726625,-0.403724
1169,1048847775,-0.822048,0.334987,-0.097138,-0.450129,4.662324,-1.281883,-1.604261
1170,1048881109,-0.844743,0.319610,-0.132184,-0.408432,4.457379,-2.250472,-2.637833
1171,1048914443,-0.859177,0.310647,-0.174440,-0.367307,4.211725,-3.687596,-2.325284
1172,1048947777,-0.868304,0.303298,-0.209841,-0.331748,3.260086,-4.143753,-2.650983
1173,1048981111,-0.874672,0.297879,-0.233462,-0.302890,2.427099,-4.369320,-2.268054
1174,1049014445,-0.879362,0.296322,-0.244875,-0.281038,1.541936,-3.878915,-2.351669
1175,1049047779,-0.881849,0.301264,-0.249066,-0.263779,0.823839,-3.554085,-1.775428
1176,1049081113,-0.882865,0.310274,-0.247780,-0.250830,-0.317168,-2.762857,-0.277007
1177,1049114447,-0.882282,0.322130,-0.243988,-0.241477,-0.843737,-1.599489,-0.441910
1178,1049147781,-0.881010,0.332792,-0.240360,-0.235220,-1.841231,-1.812989,1.312835
1179,1049181115,-0.880271,0.340576,-0.235327,-0.231909,-2.856937,-1.718567,1.679062
1180,1049214449,-0.878676,0.347682,-0.231179,-0.231587,-2.207900,-1.400676,2.492590
1181,1049247783,-0.877398,0.351333,-0.224958,-0.236984,-3.415284,-0.317173,2.465407
1182,1049281117,-0.872633,0.357694,-0.221104,-0.248416,-2.383903,0.493728,1.407719
1183,1049314451,-0.865592,0.362941,-0.226133,-0.260613,-3.289271,1.368484,1.706418
1184,1049347785,-0.862441,0.360929,-0.222229,-0.276713,-2.965072,-0.244139,1.363160
1185,1049381119,-0.863953,0.352791,-0.209872,-0.291731,-1.872282,-0.997717,0.705759
1186,1049414453,-0.867769,0.339586,-0.195184,-0.305927,-0.929779,-1.452697,0.870440
1187,1049447787,-0.869749,0.325644,-0.186466,-0.320552,0.167222,-1.273009,0.927271
1188,1049481121,-0.866550,0.315767,-0.191926,-0.335524,1.059333,-1.561939,0.839388
1189,1049514455,-0.859142,0.308693,-0.203804,-0.353664,0.883458,-1.746615,-0.059321
1190,1049547789,-0.847934,0.306761,-0.217168,-0.373864,0.768369,-1.447391,-1.301334
1191,1049581123,-0.834102,0.310032,-0.228037,-0.395200,0.912504,-1.744649,-0.978741
1192,1049614457,-0.820177,0.314218,-0.227775,-0.420388,1.344118,-1.663147,-0.516174
1193,1049647791,-0.805353,0.318959,-0.217287,-0.449987,1.813385,-1.604111,-0.524242
1194,1049681125,-0.787792,0.325022,-0.201175,-0.483015,2.078827,-1.545223,-0.012745
1195,1049714459,-0.765632,0.332890,-0.184082,-0.518783,1.849970,-1.357831,0.602571
1196,1049747793,-0.736808,0.344267,-0.172053,-0.555898,1.957545,-1.266694,1.311375
1197,1049781127,-0.700376,0.359929,-0.166284,-0.593553,1.953424,-1.024602,1.079755
1198,1049814461,-0.656624,0.382529,-0.168585,-0.627795,2.182699,-1.229645,0.714983
1199,1049847795,-0.608018,0.408056,-0.173277,-0.658642,2.492957,-1.465352,0.428246
1200,1049881129,-0.557799,0.428003,-0.170818,-0.690308,2.665259,-0.838914,0.047565
1201,1049914463,-0.507329,0.440309,-0.159462,-0.723428,2.425522,0.289097,-0.586599
1202,1049947797,-0.456691,0.450515,-0.145283,-0.753255,2.169253,1.079517,-0.044237
1203,1049981131,-0.406349,0.459078,-0.130897,-0.779118,2.030567,2.090665,1.464269
1204,1050014465,-0.355788,0.463135,-0.118526,-0.803058,1.702932,3.235307,2.396422
1205,1050047799,-0.304310,0.462239,-0.109686,-0.825669,0.833201,3.541630,1.539812
1206,1050081133,-0.251594,0.463973,-0.106100,-0.842735,0.044397,3.062320,0.531548
1207,1050114467,-0.196835,0.472626,-0.107354,-0.852283,-0.424178,2.518106,0.685246
1208,1050147801,-0.142870,0.485253,-0.112680,-0.855249,-1.646919,1.085317,1.815181
1209,1050181135,-0.091490,0.497785,-0.121435,-0.853887,-2.063311,0.721676,1.150007
1210,1050214469,-0.044388,0.506612,-0.132784,-0.850748,-2.188475,-0.306935,0.394818
1211,1050247803,-0.002860,0.513881,-0.144416,-0.845632,-2.763268,-0.299831,0.136954
1212,1050281137,0.031041,0.512311,-0.155065,-0.844132,-2.498184,-0.454776,-0.912107
1213,1050314471,0.059571,0.507583,-0.162577,-0.844044,-1.565428,-1.326061,-1.191009
1214,1050347805,0.083550,0.503684,-0.166029,-0.843675,-1.096690,-0.761537,-1.166723
1215,1050381139,0.103089,0.501484,-0.166294,-0.842771,0.175107,-0.232312,-2.107225
1216,1050414473,0.120498,0.511623,-0.161439,-0.835279,0.260545,0.203489,-2.699667
1217,1050447807,0.135768,0.531140,-0.152170,-0.822394,-1.095539,0.578988,-1.065846
1218,1050481141,0.147217,0.534837,-0.142681,-0.819725,-0.967323,2.239122,-0.620961
1219,1050514475,0.156649,0.525488,-0.134274,-0.825424,-0.700548,1.159267,-1.031567
1220,1050547809,0.164063,0.512483,-0.128231,-0.833086,-0.193812,0.527285,-0.798523
1221,1050581143,0.172153,0.499126,-0.126937,-0.839734,0.132715,0.251270,-0.361401
1222,1050614477,0.181012,0.498898,-0.129347,-0.837636,-0.059420,-0.813663,0.879402
1223,1050647811,0.190332,0.507584,-0.136787,-0.829127,-0.206585,-1.161420,2.126647
1224,1050681145,0.200008,0.514210,-0.149376,-0.820550,-0.007983,-1.314078,1.907428
1225,1050714479,0.208901,0.515959,-0.164727,-0.814274,-0.263312,-1.299581,1.132608
1226,1050747813,0.215612,0.514226,-0.180828,-0.810194,-0.511962,-1.088094,0.219272
1227,1050781147,0.218996,0.511814,-0.195586,-0.807381,-1.051072,-0.860886,-0.838938
1228,1050814481,0.218492,0.510592,-0.206979,-0.805448,-1.493725,-0.131687,-1.603361
1229,1050847815,0.215063,0.511170,-0.213342,-0.804344,-2.249107,0.505265,-1.656649
1230,1050881149,0.208307,0.509124,-0.215915,-0.806729,-2.398879,0.972236,-2.299693
1231,1050914483,0.201615,0.504259,-0.215579,-0.811560,-0.035386,1.142656,-2.424598
1232,1050947817,0.196172,0.506400,-0.206445,-0.813933,1.870424,0.493418,-2.456510
1233,1050981151,0.192523,0.514864,-0.190664,-0.813344,1.852945,0.113159,-0.164755
1234,1051014485,0.190651,0.519166,-0.176298,-0.814290,1.690673,-0.531393,2.650886
1235,1051047819,0.191482,0.515971,-0.169113,-0.817643,0.895949,0.144516,4.044462
1236,1051081153,0.196596,0.509304,-0.171603,-0.820087,0.388438,-0.656832,3.386717
1237,1051114487,0.206990,0.510168,-0.178995,-0.815399,0.081457,-1.002961,2.043780
1238,1051147821,0.220487,0.518508,-0.186536,-0.804842,-0.622282,-0.771544,1.080612
1239,1051181155,0.233632,0.525182,-0.193871,-0.795012,-1.056250,-1.122715,1.034590
1240,1051214489,0.243440,0.522013,-0.200695,-0.792459,-0.885732,-0.874845,0.869189
1241,1051247823,0.248159,0.505737,-0.208018,-0.799629,-0.862050,-0.805666,-0.269728
1242,1051281157,0.248097,0.483398,-0.215004,-0.811528,-0.858830,-0.110722,-1.335314
1243,1051314491,0.244752,0.461199,-0.219902,-0.824054,-0.372774,0.352166,-2.729332
1244,1051347825,0.240502,0.446873,-0.218646,-0.833479,-0.111817,0.052572,-3.527310
1245,1051381159,0.235149,0.441619,-0.210178,-0.839961,0.066270,0.269621,-3.051148
1246,1051414493,0.228212,0.440270,-0.196370,-0.845902,0.517152,0.321031,-1.641807
1247,1051447827,0.220409,0.440073,-0.177928,-0.852131,1.397942,0.144684,-0.809653
1248,1051481161,0.215267,0.439119,-0.160577,-0.857368,0.682598,0.175224,1.981092
1249,1051514495,0.214337,0.442981,-0.150582,-0.857428,-0.260534,0.024539,4.047956
1250,1051547829,0.216507,0.447460,-0.151918,-0.854316,-0.214218,-0.421591,3.974131
1251,1051581163,0.221275,0.451607,-0.162497,-0.848949,-0.191563,-1.003946,2.750747
1252,1051614497,0.227616,0.460007,-0.176885,-0.839838,-0.581294,-1.236556,2.095702
1253,1051647831,0.233270,0.465632,-0.193130,-0.831566,-1.066502,-0.820515,0.887993
1254,1051681165,0.236014,0.464149,-0.211010,-0.827266,-0.954082,-0.225725,-0.120886
1255,1051714499,0.235227,0.453342,-0.227969,-0.828981,-0.914661,-0.078055,-1.217911
1256,1051747833,0.231098,0.432729,-0.242110,-0.837110,-0.044122,0.355190,-2.135836
1257,1051781167,0.225567,0.412044,-0.249228,-0.846909,0.474822,-0.308180,-2.876561
1258,1051814501,0.218633,0.397046,-0.248676,-0.856005,0.398652,0.021804,-2.898276
1259,1051847835,0.212030,0.391595,-0.240814,-0.862401,1.727696,0.221722,-2.826128
1260,1051881169,0.205094,0.391608,-0.226625,-0.867901,1.349393,0.364537,-1.702546
1261,1051914503,0.199870,0.390515,-0.213943,-0.872817,0.153067,0.741321,0.940710
1262,1051947837,0.197485,0.389298,-0.207779,-0.875389,-0.195669,0.332368,2.152132
1263,1051981171,0.198678,0.391916,-0.209363,-0.873571,-0.237078,-0.388537,1.893758
1264,1052014505,0.202390,0.401529,-0.217396,-0.866362,-0.521925,-0.846609,1.952888
1265,1052047839,0.206201,0.412914,-0.228812,-0.857122,-0.717098,-0.619453,0.812738
1266,1052081173,0.207751,0.420520,-0.241123,-0.849643,-0.699518,-0.457072,0.097485
1267,1052114507,0.204960,0.420268,-0.251340,-0.847482,-0.617664,-0.426913,-0.733412
1268,1052147841,0.196295,0.408304,-0.257855,-0.853403,-1.141212,-0.595774,-0.712470
1269,1052181175,0.180213,0.377678,-0.263859,-0.869075,-1.636883,0.396832,0.371807
1270,1052214509,0.161200,0.334669,-0.269005,-0.888638,1.358288,-0.743765,-0.980657
1271,1052247843,0.148069,0.316367,-0.263918,-0.899091,2.316022,-1.648369,-1.566726
1272,1052281177,0.139243,0.314472,-0.256815,-0.903214,0.838284,-0.452938,0.827040
1273,1052314511,0.133798,0.318027,-0.254490,-0.903450,0.176052,0.943829,2.804728
1274,1052347845,0.130470,0.312698,-0.259116,-0.904481,0.114764,0.338037,2.383307
1275,1052381179,0.131108,0.307482,-0.268460,-0.903452,-0.022724,-0.776801,2.324188
1276,1052414513,0.134978,0.307405,-0.279459,-0.899564,-0.453372,-0.753236,1.820385
1277,1052447847,0.140318,0.308762,-0.291172,-0.894554,-0.280162,-0.241143,0.840428
1278,1052481181,0.144987,0.307275,-0.303640,-0.890165,-0.452267,0.295385,0.335153
1279,1052514515,0.146371,0.299357,-0.317366,-0.887846,-1.052215,0.054556,-0.347565
1280,1052547849,0.144963,0.288629,-0.331693,-0.886391,-1.201254,0.072705,-1.375200
1281,1052581183,0.141779,0.279940,-0.343517,-0.885189,-0.390596,0.051409,-2.749519
1282,1052614517,0.137384,0.276856,-0.349212,-0.884623,0.012256,-0.035278,-3.585864
1283,1052647851,0.130384,0.277884,-0.347226,-0.886141,-0.263146,0.144444,-3.502571
1284,1052681185,0.117212,0.276376,-0.338961,-0.891635,-0.656191,-0.067640,-3.132816
1285,1052714519,0.097864,0.271957,-0.325900,-0.900156,-1.185228,-0.402422,-2.806969
1286,1052747853,0.075205,0.269984,-0.312066,-0.907799,-2.438487,1.041989,-1.682469
1287,1052781187,0.049300,0.271456,-0.303421,-0.912057,-2.203098,1.266024,-0.261213
1288,1052814521,0.023520,0.279116,-0.301412,-0.911440,-2.332137,1.487905,0.501080
1289,1052847855,-0.000177,0.299087,-0.305799,-0.903916,-2.208690,0.644282,1.068617
1290,1052881189,-0.022061,0.328299,-0.315171,-0.890186,-1.330019,0.999610,1.582827
1291,1052914523,-0.046278,0.350218,-0.327894,-0.876198,-1.257004,2.238118,1.914818
1292,1052947857,-0.076616,0.356777,-0.342051,-0.865952,-1.540650,1.836702,1.242990
1293,1052981191,-0.112393,0.356001,-0.356231,-0.856598,-1.744831,1.747380,0.516745
1294,1053014525,-0.152219,0.353266,-0.370362,-0.845515,-1.348508,2.290829,0.246925
1295,1053047859,-0.195995,0.348793,-0.384205,-0.832073,-0.868191,2.840366,0.565194
1296,1053081193,-0.244435,0.339791,-0.396767,-0.816945,-0.192352,3.102337,0.925159
1297,1053114527,-0.299064,0.322578,-0.405883,-0.801120,0.665839,2.873648,1.102056
1298,1053147861,-0.362438,0.291428,-0.407049,-0.786161,2.003811,2.750267,1.635087
1299,1053181195,-0.435941,0.242208,-0.394165,-0.771981,2.945418,1.642156,1.302758
1300,1053214529,-0.512794,0.187393,-0.367135,-0.753105,1.704909,0.220837,-0.732095
1301,1053247863,-0.578849,0.152314,-0.345086,-0.722966,1.178322,1.034057,-0.304801
1302,1053281197,-0.634178,0.132889,-0.333449,-0.684837,2.758344,0.532624,0.616780
1303,1053314531,-0.684194,0.115375,-0.321830,-0.644223,3.072032,-0.442312,-0.275501
1304,1053347865,-0.729150,0.100042,-0.310655,-0.601544,3.151961,-1.165573,0.200808
1305,1053381199,-0.769964,0.084907,-0.297271,-0.558217,2.601436,-1.981266,0.335964
1306,1053414533,-0.805498,0.073097,-0.283811,-0.515084,1.180479,-2.232008,-1.074993
1307,1053447867,-0.832800,0.070846,-0.278600,-0.473115,0.825526,-2.897943,-1.657771
1308,1053481201,-0.852827,0.073973,-0.281227,-0.433769,1.826115,-2.345781,1.212570
1309,1053514535,-0.867681,0.071278,-0.280717,-0.404077,0.913461,-4.141520,2.505261
1310,1053547869,-0.879402,0.065518,-0.274140,-0.383716,-0.063147,-3.420931,1.064711
1311,1053581203,-0.885283,0.064484,-0.273066,-0.370920,-0.681071,-1.877434,-0.003843
1312,1053614537,-0.883357,0.070235,-0.285754,-0.364859,-0.779422,-2.155737,0.809158
1313,1053647871,-0.877276,0.077603,-0.303355,-0.363826,-1.163698,-1.909284,1.499119
1314,1053681205,-0.870467,0.082612,-0.317611,-0.366900,-1.299719,-1.719434,1.412774
1315,1053714539,-0.865002,0.083158,-0.324268,-0.373815,-1.079183,-1.557425,1.483683
1316,1053747873,-0.859731,0.081453,-0.325955,-0.384723,-0.739962,-1.140642,0.951610
1317,1053781207,-0.852648,0.079717,-0.327367,-0.399372,-0.706224,-0.664630,0.905879
1318,1053814541,-0.841518,0.081315,-0.334901,-0.416061,-1.148525,0.037131,0.336650
1319,1053847875,-0.824070,0.089255,-0.353302,-0.433763,-0.384580,-1.105267,0.604578
1320,1053881209,-0.805920,0.096908,-0.368454,-0.453182,0.249898,-1.550168,0.900382
1321,1053914543,-0.788229,0.101957,-0.377090,-0.475535,0.314920,-1.170294,0.478745
1322,1053947877,-0.766717,0.108581,-0.388262,-0.499638,0.630034,-0.818926,0.667921
1323,1053981211,-0.740979,0.116351,-0.403335,-0.524180,0.697614,-0.464398,0.816472
1324,1054014545,-0.711729,0.123527,-0.421293,-0.548385,0.869573,-0.472568,0.860755
1325,1054047879,-0.679972,0.128949,-0.440964,-0.571482,0.869191,-0.098544,1.057054
1326,1054081213,-0.648602,0.129185,-0.459125,-0.593179,1.048459,0.124910,1.121636
1327,1054114547,-0.621053,0.122106,-0.471875,-0.613797,0.994205,0.038873,0.271450
1328,1054147881,-0.597980,0.109769,-0.480585,-0.632013,0.569435,0.566242,-0.072940
1329,1054181215,-0.577372,0.096281,-0.488755,-0.646932,0.592912,0.916754,-0.343606
1330,1054214549,-0.555531,0.087396,-0.499407,-0.659068,0.878488,0.844467,-0.631536
1331,1054247883,-0.530455,0.085688,-0.512811,-0.669574,1.233857,0.861716,-0.347039
1332,1054281217,-0.501826,0.092150,-0.526142,-0.680356,1.418109,0.890010,-0.587900
1333,1054314551,-0.471001,0.106490,-0.536064,-0.692448,1.239950,0.827796,-1.054788
1334,1054347885,-0.436634,0.131096,-0.539893,-0.707609,1.082366,0.059430,-1.550324
1335,1054381219,-0.402948,0.157703,-0.533608,-0.726674,0.025095,0.971291,0.376778
1336,1054414553,-0.375465,0.175765,-0.518478,-0.747893,-1.569211,0.630274,0.583207
1337,1054447887,-0.354700,0.182812,-0.500789,-0.768120,0.304342,0.384528,0.796672
1338,1054481221,-0.341608,0.176949,-0.485754,-0.784899,-0.537621,0.710548,-0.140409
1339,1054514555,-0.330552,0.170429,-0.480650,-0.794163,-1.313325,0.763477,-0.577877
1340,1054547889,-0.316117,0.173775,-0.484982,-0.796677,-0.551176,0.621430,-1.350303
1341,1054581223,-0.301806,0.184446,-0.492708,-0.795086,0.280266,1.005505,-1.833420
1342,1054614557,-0.293123,0.196828,-0.497744,-0.792224,0.461480,1.052804,-2.559019
1343,1054647891,-0.291791,0.210221,-0.497085,-0.789685,0.443179,0.773271,-3.229038
1344,1054681225,-0.297211,0.224934,-0.490097,-0.787976,0.728176,1.918642,-2.325282
1345,1054714559,-0.310991,0.233762,-0.475293,-0.789156,0.668916,1.718974,-0.252637
1346,1054747893,-0.328220,0.237413,-0.456260,-0.792316,-0.603325,0.280976,0.590459
1347,1054781227,-0.339590,0.243387,-0.443184,-0.793133,-1.938088,-0.088420,3.037206
1348,1054814561,-0.343437,0.249646,-0.440583,-0.790977,-2.619199,0.051251,4.826933
1349,1054847895,-0.345430,0.245228,-0.445718,-0.788611,-2.366830,0.485323,4.771244
1350,1054881229,-0.349505,0.227378,-0.455875,-0.786355,-2.366327,0.292967,2.866271
1351,1054914563,-0.353609,0.205668,-0.470506,-0.781867,-1.655340,0.276828,0.986263
1352,1054947897,-0.354869,0.187113,-0.488387,-0.774961,-0.575220,0.561510,0.122433
1353,1054981231,-0.355218,0.169702,-0.505925,-0.767523,0.381267,0.699991,-0.605123
1354,1055014565,-0.356172,0.151868,-0.521815,-0.760143,0.808059,0.419751,-1.256651
1355,1055047899,-0.356679,0.137249,-0.535761,-0.752950,1.123574,-0.221242,-2.004090
1356,1055081233,-0.355383,0.129815,-0.547603,-0.746333,1.592095,-0.886246,-2.328926
1357,1055114567,-0.351061,0.132945,-0.555227,-0.742183,1.521218,-0.738273,-2.251477
1358,1055147901,-0.349647,0.140273,-0.554909,-0.741739,1.125180,0.770040,-1.147430
1359,1055181235,-0.358741,0.138138,-0.543849,-0.745977,1.211075,0.755894,-0.590888
1360,1055214569,-0.373254,0.130119,-0.527193,-0.752229,0.222345,-1.112587,-0.556193
1361,1055247903,-0.382684,0.131593,-0.514580,-0.755959,0.462403,-1.511089,0.105017
1362,1055281237,-0.385248,0.137474,-0.510203,-0.756577,-0.079920,-0.452264,2.114766
1363,1055314571,-0.380208,0.141881,-0.517046,-0.753662,-2.018941,-0.059093,4.122167
1364,1055347905,-0.370444,0.140197,-0.529822,-0.749956,-1.377975,-0.412854,3.358342
1365,1055381239,-0.358443,0.131676,-0.543500,-0.747541,-0.919103,-0.353439,2.253632
1366,1055414573,-0.345736,0.119096,-0.555048,-0.747152,-0.619134,-0.210592,1.055041
1367,1055447907,-0.331702,0.105497,-0.564685,-0.748335,0.022499,0.215878,0.374621
1368,1055481241,-0.319657,0.089516,-0.571053,-0.750823,0.666583,-0.183389,-0.529441
1369,1055514575,-0.309367,0.072672,-0.575087,-0.753867,0.588042,-0.019400,-1.098782
1370,1055547909,-0.301826,0.056946,-0.577286,-0.756590,0.469445,0.451873,-1.835202
1371,1055581243,-0.299122,0.042639,-0.576827,-0.758953,0.391553,0.578501,-2.511268
1372,1055614577,-0.300559,0.034176,-0.573264,-0.761508,0.579074,-0.099236,-3.039752
1373,1055647911,-0.300520,0.041520,-0.567175,-0.765707,1.548061,-1.213938,-3.231512
1374,1055681245,-0.300768,0.060155,-0.555202,-0.773111,0.731822,-0.641535,-1.634836
1375,1055714579,-0.302279,0.079509,-0.538088,-0.782814,0.179765,-0.792755,0.421749
1376,1055747913,-0.301667,0.094542,-0.520581,-0.793149,-0.066325,0.098161,2.359007
1377,1055781247,-0.297719,0.099382,-0.507963,-0.802179,-0.598722,1.153618,3.674405
1378,1055814581,-0.290139,0.094590,-0.505067,-0.807347,-1.710707,0.908308,4.211801
1379,1055847915,-0.276499,0.089706,-0.511692,-0.808519,-1.907936,0.250689,2.725718
1380,1055881249,-0.256250,0.088477,-0.523716,-0.807626,-1.333879,0.243282,2.046730
1381,1055914583,-0.236249,0.084025,-0.534632,-0.807048,-0.696032,0.835190,1.323547
1382,1055947917,-0.221598,0.071001,-0.542351,-0.807303,-0.314377,1.186561,0.658977
1383,1055981251,-0.212613,0.051345,-0.548254,-0.807222,-0.085954,1.461134,-0.600775
1384,1056014585,-0.207152,0.031012,-0.554209,-0.805611,-0.268493,1.365005,-1.910728
1385,1056047919,-0.204004,0.015359,-0.560355,-0.802608,-0.214769,0.819546,-2.947486
1386,1056081253,-0.204385,0.005854,-0.565253,-0.799195,-0.009021,0.364029,-3.888578
1387,1056114587,-0.209897,0.003242,-0.567609,-0.796105,0.698562,0.868637,-4.480166
1388,1056147921,-0.220320,0.007486,-0.566133,-0.794309,1.263823,0.650694,-4.604339
1389,1056181255,-0.229922,0.025138,-0.561627,-0.794424,0.999795,-0.073563,-3.489549
1390,1056214589,-0.243240,0.046934,-0.554093,-0.794760,-0.022733,2.212314,-2.480564
1391,1056247923,-0.267430,0.060468,-0.544091,-0.792982,-1.490116,2.298281,-1.542369
1392,1056281257,-0.301538,0.067809,-0.533634,-0.787237,-1.041610,2.671614,-0.935937
1393,1056314591,-0.346299,0.069599,-0.521838,-0.776497,-0.962765,2.966466,0.178137
1394,1056347925,-0.400641,0.070046,-0.507730,-0.759488,-1.847448,1.868348,-0.146948
1395,1056381259,-0.456765,0.078502,-0.494626,-0.735241,-0.504329,2.973951,0.470580
1396,1056414593,-0.516880,0.081873,-0.476735,-0.706319,2.027303,3.542337,2.786722
1397,1056447927,-0.583605,0.069638,-0.443099,-0.676941,1.692207,1.696331,2.042932
1398,1056481261,-0.641893,0.061401,-0.409166,-0.645614,0.324466,0.668468,1.236223
1399,1056514595,-0.683267,0.073664,-0.394214,-0.610202,0.248660,-0.131368,0.395988
1400,1056547929,-0.711640,0.099839,-0.397179,-0.570859,0.985161,-1.204119,0.071816
1401,1056581263,-0.735201,0.122782,-0.404041,-0.530269,1.793648,-2.198637,1.174444
1402,1056614597,-0.763562,0.131833,-0.396415,-0.492421,1.277115,-3.197690,0.199191
1403,1056647931,-0.792729,0.132608,-0.378291,-0.459262,0.195818,-2.552551,-0.417530
1404,1056681265,-0.815796,0.137683,-0.364588,-0.427348,0.907913,-2.606588,0.254313
1405,1056714599,-0.830183,0.151119,-0.365489,-0.392948,2.152203,0.136604,3.125266
1406,1056747933,-0.834775,0.157272,-0.382467,-0.363545,1.289273,-2.095813,4.795077
1407,1056781267,-0.840498,0.153771,-0.390197,-0.343067,0.384205,-2.209400,1.142855
1408,1056814601,-0.844531,0.152934,-0.397399,-0.324781,-0.918160,-0.779840,-0.800253
1409,1056847935,-0.842935,0.156801,-0.411715,-0.308863,-1.012544,-0.532267,0.288595
1410,1056881269,-0.839715,0.161579,-0.425736,-0.295888,-1.402714,-0.665708,1.169810
1411,1056914603,-0.837497,0.164935,-0.434463,-0.287519,-2.035124,-0.213852,1.285170
1412,1056947937,-0.836269,0.166528,-0.438254,-0.284404,-2.122433,0.060047,1.685634
1413,1056981271,-0.837485,0.164512,-0.434799,-0.287290,-1.715898,-0.151104,1.763083
1414,1057014605,-0.841182,0.159661,-0.423651,-0.295757,-1.507995,-0.625440,0.986881
1415,1057047939,-0.843466,0.156290,-0.411529,-0.307917,-1.181579,-0.672762,0.278869
1416,1057081273,-0.839209,0.159795,-0.409094,-0.320728,-0.767487,-1.083729,-0.270445
1417,1057114607,-0.829861,0.169552,-0.413237,-0.334439,0.055183,-1.925130,-0.621504
1418,1057147941,-0.816901,0.183960,-0.418653,-0.351557,0.388339,-2.219164,-0.675541
1419,1057181275,-0.800557,0.202325,-0.423618,-0.372494,0.496487,-2.123337,-0.165282
1420,1057214609,-0.781668,0.222851,-0.425908,-0.397449,0.405232,-1.899198,0.224189
1421,1057247943,-0.760400,0.245201,-0.425194,-0.425334,0.355409,-1.656924,0.712497
1422,1057281277,-0.737942,0.266922,-0.420845,-0.455097,0.378489,-1.434437,1.411952
1423,1057314611,-0.714055,0.286661,-0.412894,-0.487339,0.083663,-1.326185,0.751908
1424,1057347945,-0.685545,0.308030,-0.406082,-0.519878,0.384125,-1.526372,0.621140
1425,1057381279,-0.652725,0.329701,-0.398976,-0.553260,1.127069,-1.744690,1.135984
1426,1057414613,-0.616169,0.348692,-0.390509,-0.588458,1.547477,-1.685131,1.744735
1427,1057447947,-0.576269,0.363073,-0.381503,-0.624963,1.807615,-1.449908,2.146650
1428,1057481281,-0.533600,0.370237,-0.372131,-0.663133,2.506491,-0.982070,2.327504
1429,1057514615,-0.485767,0.373354,-0.365453,-0.700794,2.554206,-0.580797,1.906049
1430,1057547949,-0.431837,0.376403,-0.362163,-0.735327,2.492854,0.416929,1.816443
1431,1057581283,-0.374015,0.379190,-0.360862,-0.765596,1.974577,0.966054,1.289639
1432,1057614617,-0.312932,0.383664,-0.361066,-0.790277,1.632026,1.594196,1.622618
1433,1057647951,-0.251908,0.386958,-0.361273,-0.810135,1.020411,2.257485,1.157404
1434,1057681285,-0.192324,0.388642,-0.362670,-0.824906,0.143760,2.571293,0.535557
1435,1057714619,-0.135711,0.388210,-0.364650,-0.835426,-0.744390,1.896207,-0.619398
1436,1057747953,-0.082444,0.389811,-0.366707,-0.840718,-0.330342,1.216745,-1.161763
1437,1057781287,-0.033755,0.392550,-0.367735,-0.842358,0.157204,1.660116,-0.740382
1438,1057814621,0.008963,0.392115,-0.367298,-0.843379,0.132713,1.381461,-1.201108
1439,1057847955,0.046024,0.389551,-0.366621,-0.843654,-0.189850,1.018775,-1.282447
1440,1057881289,0.076907,0.384721,-0.366948,-0.843478,-0.337103,1.046789,-1.729140
1441,1057914623,0.102918,0.380212,-0.367994,-0.842293,-0.328940,0.606137,-2.132587
1442,1057947957,0.125495,0.380383,-0.368736,-0.838823,-0.221487,0.402973,-2.865313
1443,1057981291,0.145380,0.387684,-0.367625,-0.832735,0.085182,0.554041,-3.268483
1444,1058014625,0.163290,0.402890,-0.363255,-0.824070,-0.039813,1.095057,-3.796194
1445,1058047959,0.176433,0.421826,-0.356087,-0.814964,-0.618986,1.744600,-3.609354
1446,1058081293,0.181430,0.432407,-0.347974,-0.811820,-1.604056,1.871502,-2.998428
