sep=,
DeviceTag:,D_Leg
FirmwareVersion:,2.2.1
AppVersion:,2023.6.0
SyncStatus:,Synced
OutputRate:,30Hz
FilterProfile:,General
Measurement Mode:,Sensor fusion Mode - Complete(Quaternion)
StartTime: ,2026-09-15_14:22:59_723 AEST
© Movella Technologies B. V. 2005-2026

PacketCounter,SampleTimeFine,Quat_W,Quat_X,Quat_Y,Quat_Z,FreeAcc_X,FreeAcc_Y,FreeAcc_Z
1,1353714658,-0.447825,-0.509716,0.600211,-0.423597,-0.671147,-0.448339,0.082411
2,1353747992,-0.441129,-0.512085,0.599413,-0.428864,-0.495375,0.063267,0.355258
3,1353781326,-0.437185,-0.512634,0.599050,-0.432736,-0.644244,-0.128090,0.025768
4,1353814660,-0.433969,-0.513014,0.598763,-0.435909,-0.579112,-0.530534,-0.103493
5,1353847994,-0.431186,-0.513719,0.598382,-0.438357,-0.125067,-0.172002,-0.119367
6,1353881328,-0.427809,-0.515539,0.598121,-0.439881,0.064881,0.357209,0.244421
7,1353914662,-0.423381,-0.518214,0.597961,-0.441238,0.114970,0.603482,0.117094
8,1353947996,-0.418765,-0.520377,0.598485,-0.442385,-0.380182,0.473245,-0.127994
9,1353981330,-0.416361,-0.520954,0.600467,-0.441289,0.469528,-0.029153,-0.013202
10,1354014664,-0.415950,-0.520032,0.602723,-0.439686,0.015085,-0.979343,0.045158
11,1354047998,-0.413799,-0.520488,0.604808,-0.438311,0.410336,-1.059010,0.238459
12,1354081332,-0.411334,-0.521661,0.606044,-0.437528,-0.113287,-0.540287,-0.055174
13,1354114666,-0.409671,-0.522380,0.607458,-0.436268,-0.613054,-0.073351,0.224457
14,1354148000,-0.409519,-0.521325,0.610605,-0.433269,-0.986359,0.363029,0.366032
15,1354181334,-0.410969,-0.519542,0.614006,-0.429212,-1.170398,0.619275,0.474847
16,1354214668,-0.413769,-0.517490,0.616612,-0.425247,-1.112131,0.376616,0.469332
17,1354248002,-0.417741,-0.514726,0.619679,-0.420230,-0.929734,0.002951,0.104383
18,1354281336,-0.421881,-0.511863,0.623302,-0.414189,-0.897013,-0.312755,-0.095062
19,1354314670,-0.425254,-0.510196,0.626339,-0.408172,-0.786228,-0.265743,0.079133
20,1354348004,-0.427514,-0.510461,0.627661,-0.403423,-0.412306,0.047773,0.152487
21,1354381338,-0.429237,-0.512051,0.627839,-0.399278,-0.436919,0.196094,-0.022607
22,1354414672,-0.430706,-0.514144,0.627919,-0.394857,-0.260980,0.096523,0.135838
23,1354448006,-0.431822,-0.516570,0.627343,-0.391372,-0.370378,-0.174711,0.159285
24,1354481340,-0.433068,-0.519343,0.626109,-0.388289,-0.657933,0.142589,0.177551
25,1354514674,-0.433795,-0.522991,0.624511,-0.385143,-0.229966,0.398123,0.066841
26,1354548008,-0.435222,-0.527042,0.622203,-0.381731,-0.092393,0.425291,-0.088212
27,1354581342,-0.437102,-0.530922,0.619934,-0.377878,-0.577346,0.106382,0.206472
28,1354614676,-0.440443,-0.533535,0.617451,-0.374368,-0.723385,0.429261,0.056062
29,1354648010,-0.445765,-0.534979,0.615184,-0.369710,-0.379983,0.849311,0.308333
30,1354681344,-0.451610,-0.536625,0.612689,-0.364335,0.271715,0.973166,0.292641
31,1354714678,-0.457526,-0.538248,0.609893,-0.359213,0.131933,0.008932,0.349861
32,1354748012,-0.463231,-0.540430,0.605614,-0.355852,0.321669,-0.173930,0.244085
33,1354781346,-0.469137,-0.542432,0.601007,-0.352866,0.343580,-0.209905,0.340494
34,1354814680,-0.473711,-0.545546,0.595528,-0.351241,0.993757,-0.271492,0.940710
35,1354848014,-0.478435,-0.547307,0.590898,-0.349915,1.183650,-0.500376,0.221581
36,1354881348,-0.482020,-0.548784,0.587115,-0.349048,1.178132,-0.282362,-0.281191
37,1354914682,-0.484366,-0.550446,0.584860,-0.346963,1.293900,-0.653322,-0.233831
38,1354948016,-0.485303,-0.552077,0.583273,-0.345731,1.152179,-0.693747,-0.241263
39,1354981350,-0.486021,-0.553100,0.582030,-0.345181,1.126443,-0.419948,-0.098393
40,1355014684,-0.486639,-0.553376,0.581659,-0.344494,1.297004,-0.286865,-0.177092
41,1355048018,-0.486558,-0.553035,0.582768,-0.343281,1.145285,0.006803,0.237205
42,1355081352,-0.486597,-0.552054,0.584795,-0.341351,1.069442,-0.020731,0.004664
43,1355114686,-0.486248,-0.551147,0.587316,-0.338977,0.698781,-0.276883,-0.233829
44,1355148020,-0.484257,-0.551661,0.589429,-0.337320,0.094906,-0.476486,-0.244437
45,1355181354,-0.481092,-0.553378,0.590696,-0.336819,-0.389060,-0.505273,0.012154
46,1355214688,-0.475972,-0.557321,0.589984,-0.338836,-0.370999,-0.318225,0.098135
47,1355248022,-0.469985,-0.561981,0.588945,-0.341294,-0.451869,0.846440,0.469216
48,1355281356,-0.464488,-0.566410,0.588403,-0.342430,-0.435534,1.122931,0.563314
49,1355314690,-0.459562,-0.570504,0.587453,-0.343908,-0.190991,1.526205,0.499434
50,1355348024,-0.455703,-0.573918,0.586768,-0.344534,-0.322166,1.650093,0.605949
51,1355381358,-0.452914,-0.576860,0.585959,-0.344673,-0.440519,0.805026,0.225808
52,1355414692,-0.450042,-0.579671,0.584467,-0.346249,-0.259961,0.166748,0.001668
53,1355448026,-0.448733,-0.580989,0.583289,-0.347722,-0.032146,-0.278300,0.089042
54,1355481360,-0.448211,-0.581398,0.582686,-0.348722,0.303355,-0.292298,-0.028421
55,1355514694,-0.447192,-0.581516,0.582767,-0.349697,0.456663,-0.319383,-0.067959
56,1355548028,-0.446199,-0.581307,0.583258,-0.350493,0.527098,-0.395288,-0.116408
57,1355581362,-0.445249,-0.581107,0.583658,-0.351364,0.803103,-0.232555,0.044168
58,1355614696,-0.444400,-0.581062,0.583883,-0.352140,0.349864,-0.127153,-0.014062
59,1355648030,-0.442586,-0.581606,0.584209,-0.352984,0.001864,-0.258993,0.028570
60,1355681364,-0.440685,-0.581895,0.584337,-0.354670,0.070636,0.052817,0.104178
61,1355714698,-0.440190,-0.580698,0.585448,-0.355414,-0.073640,0.349666,0.028478
62,1355748032,-0.439547,-0.579531,0.587252,-0.355137,-0.030762,0.142554,0.006950
63,1355781366,-0.438063,-0.579006,0.588547,-0.355685,0.094632,0.013532,0.129199
64,1355814700,-0.437027,-0.578207,0.589259,-0.357078,-0.160330,0.283057,0.198154
65,1355848034,-0.436631,-0.576595,0.591198,-0.356962,-0.160757,0.427333,0.291064
66,1355881368,-0.435957,-0.574852,0.593659,-0.356513,0.025074,0.220253,0.170958
67,1355914702,-0.436126,-0.572692,0.595717,-0.356350,-0.175496,0.300003,0.025216
68,1355948036,-0.437080,-0.570077,0.597965,-0.355608,-0.243989,0.488835,0.294807
69,1355981370,-0.437612,-0.567803,0.600402,-0.354484,-0.153609,0.265810,0.290590
70,1356014704,-0.438455,-0.565831,0.601778,-0.354263,-0.350851,0.149764,0.056795
71,1356048038,-0.440549,-0.563277,0.602875,-0.353871,-0.136504,0.359929,0.245608
72,1356081372,-0.443297,-0.559783,0.605197,-0.352013,0.413428,0.203709,0.416048
73,1356114706,-0.446159,-0.556258,0.607163,-0.350596,0.404639,-0.211100,0.122619
74,1356148040,-0.449584,-0.552499,0.608657,-0.349574,0.220589,-0.076504,-0.052970
75,1356181374,-0.453277,-0.547963,0.611011,-0.347834,0.450441,0.040739,-0.081156
76,1356214708,-0.456339,-0.543106,0.614135,-0.345941,0.654240,-0.295271,-0.144320
77,1356248042,-0.458741,-0.538230,0.617333,-0.344691,0.787086,-0.567090,-0.244819
78,1356281376,-0.460339,-0.533090,0.621603,-0.342869,0.761996,-0.517117,-0.119655
79,1356314710,-0.460768,-0.528159,0.626481,-0.341040,0.725809,-0.512959,0.023216
80,1356348044,-0.460999,-0.523075,0.631199,-0.339863,0.497699,-0.096979,-0.177858
81,1356381378,-0.461179,-0.517319,0.636965,-0.337664,0.913545,0.532777,0.126897
82,1356414712,-0.461537,-0.510104,0.644469,-0.333890,0.893583,-0.165078,0.211289
83,1356448046,-0.462733,-0.502157,0.651359,-0.330898,0.333205,-0.477282,0.234176
84,1356481380,-0.465222,-0.494073,0.656690,-0.329036,-0.544162,0.228261,0.268067
85,1356514714,-0.466763,-0.486785,0.661900,-0.327272,0.221640,0.500181,0.891515
86,1356548048,-0.469112,-0.479291,0.666403,-0.325833,-0.007821,0.233537,0.220173
87,1356581382,-0.471592,-0.472959,0.669162,-0.325852,-0.640743,0.249375,-0.054277
88,1356614716,-0.473229,-0.467799,0.671110,-0.326918,-0.422975,0.099921,0.119897
89,1356648050,-0.474782,-0.462844,0.672621,-0.328609,-0.646101,0.051337,0.036045
90,1356681384,-0.475777,-0.458601,0.673575,-0.331155,-0.464114,0.281454,0.421663
91,1356714718,-0.476413,-0.454946,0.674341,-0.333714,-0.500154,0.585807,0.302368
92,1356748052,-0.477011,-0.451797,0.674758,-0.336285,-0.477203,0.551731,0.282307
93,1356781386,-0.478052,-0.448601,0.674872,-0.338848,-0.348905,0.440348,0.182952
94,1356814720,-0.479415,-0.444870,0.675180,-0.341218,-0.013791,0.274546,0.171612
95,1356848054,-0.481258,-0.440752,0.675382,-0.343560,0.090128,0.126523,0.144472
96,1356881388,-0.483174,-0.436679,0.675370,-0.346087,0.169342,0.003197,-0.066578
97,1356914722,-0.484675,-0.432613,0.675762,-0.348323,0.332921,-0.185810,-0.125454
98,1356948056,-0.485786,-0.428563,0.676350,-0.350631,0.245042,-0.435182,-0.079656
99,1356981390,-0.486162,-0.424986,0.677062,-0.353081,0.218994,-0.176413,-0.092560
100,1357014724,-0.486071,-0.421730,0.677989,-0.355324,0.027562,0.043041,0.012397
101,1357048058,-0.485931,-0.418921,0.678616,-0.357636,-0.317063,0.051550,0.021183
102,1357081392,-0.485405,-0.417409,0.678152,-0.360981,-0.414832,-0.331269,0.232689
103,1357114726,-0.483736,-0.418243,0.675919,-0.366403,-0.201637,-0.498202,0.086789
104,1357148060,-0.481206,-0.420786,0.672771,-0.372566,0.051309,-0.349895,0.107074
105,1357181394,-0.478465,-0.423470,0.669660,-0.378610,-0.100171,-0.443830,0.049435
106,1357214728,-0.475983,-0.425648,0.666717,-0.384446,-0.076583,-0.228964,-0.015279
107,1357248062,-0.473728,-0.427077,0.664496,-0.389460,-0.016650,-0.239965,0.147522
108,1357281396,-0.471673,-0.427897,0.662771,-0.393965,-0.315874,-0.352024,0.018523
109,1357314730,-0.469463,-0.428736,0.661145,-0.398401,-0.409864,-0.154068,0.087461
110,1357348064,-0.467035,-0.429655,0.659822,-0.402438,-0.465767,0.045267,0.131237
111,1357381398,-0.464719,-0.430606,0.658682,-0.405954,-0.756611,0.128496,0.081673
112,1357414732,-0.462457,-0.431955,0.657459,-0.409075,-0.671918,0.403993,0.276989
113,1357448066,-0.460618,-0.433432,0.656343,-0.411373,-0.316273,0.554695,0.215277
114,1357481400,-0.459515,-0.434513,0.655709,-0.412476,-0.209866,0.469736,0.293943
115,1357514734,-0.459691,-0.434641,0.655133,-0.413060,-0.051845,0.753531,-0.005208
116,1357548068,-0.460721,-0.433629,0.655119,-0.412997,-0.173664,-0.092353,-0.050225
117,1357581402,-0.460486,-0.433901,0.654714,-0.413616,-0.407753,-0.913292,0.067532
118,1357614736,-0.459107,-0.435579,0.653375,-0.415498,-0.445821,-0.915718,0.182698
119,1357648070,-0.456766,-0.438284,0.651370,-0.418372,-0.391181,-0.407235,0.277877
120,1357681404,-0.454340,-0.440954,0.649460,-0.421167,-0.105035,0.476311,0.075487
121,1357714738,-0.452904,-0.442527,0.648433,-0.422645,0.001006,0.570144,0.212858
122,1357748072,-0.452484,-0.443646,0.647287,-0.423676,-0.171572,0.176089,0.137358
123,1357781406,-0.452354,-0.445087,0.645587,-0.424897,0.062271,-0.135917,0.008312
124,1357814740,-0.451754,-0.446831,0.644000,-0.426110,0.246011,-0.287971,0.025398
125,1357848074,-0.450678,-0.448640,0.642790,-0.427174,0.228079,-0.269735,0.077440
126,1357881408,-0.449547,-0.450373,0.641738,-0.428124,0.080241,-0.040815,0.090673
127,1357914742,-0.448597,-0.451769,0.641065,-0.428657,0.010594,0.203836,0.116854
128,1357948076,-0.448202,-0.452542,0.640840,-0.428592,-0.130898,0.299824,0.197993
129,1357981410,-0.448355,-0.452834,0.640814,-0.428162,-0.139669,0.141771,0.111478
130,1358014744,-0.448654,-0.452888,0.641073,-0.427403,0.053956,0.004370,0.055833
131,1358048078,-0.448923,-0.453130,0.641255,-0.426590,0.126529,-0.060861,0.031148
132,1358081412,-0.448714,-0.453761,0.641470,-0.425816,0.234036,-0.324840,0.066580
133,1358114746,-0.447459,-0.455044,0.641567,-0.425620,0.438014,-0.786985,0.089844
134,1358148080,-0.445029,-0.457295,0.641182,-0.426336,0.546749,-0.495006,0.032760
135,1358181414,-0.441974,-0.460344,0.640454,-0.427325,0.465174,0.235999,0.009929
136,1358214748,-0.439596,-0.462843,0.640202,-0.427456,-0.078329,0.376085,0.115932
137,1358248082,-0.438004,-0.464555,0.640395,-0.426944,-0.303457,0.203430,0.235974
138,1358281416,-0.437112,-0.465969,0.640424,-0.426274,-0.202229,0.089543,0.252322
139,1358314750,-0.436842,-0.467145,0.640259,-0.425510,-0.172009,0.330830,0.220426
140,1358348084,-0.437460,-0.467714,0.640210,-0.424323,-0.157875,0.443087,0.212641
141,1358381418,-0.439137,-0.467465,0.640275,-0.422763,-0.011924,0.257320,0.129858
142,1358414752,-0.441248,-0.466907,0.640200,-0.421294,0.237923,0.029199,0.087424
143,1358448086,-0.443028,-0.466513,0.640060,-0.420073,0.513552,-0.255984,-0.023870
144,1358481420,-0.444165,-0.466223,0.640130,-0.419086,0.577290,-0.425446,-0.012912
145,1358514754,-0.444578,-0.466281,0.640059,-0.418692,0.455918,-0.202490,0.102833
146,1358548088,-0.444433,-0.467030,0.639455,-0.418934,0.220260,0.248310,0.083304
147,1358581422,-0.444194,-0.468077,0.638556,-0.419390,-0.119315,0.491085,0.159534
148,1358614756,-0.444288,-0.468872,0.637671,-0.419749,-0.247068,0.484118,0.138274
149,1358648090,-0.444509,-0.469498,0.636842,-0.420073,-0.190832,0.319721,0.200149
150,1358681424,-0.444335,-0.470593,0.635676,-0.420798,-0.095741,0.122804,0.143993
151,1358714758,-0.443435,-0.472474,0.634066,-0.422067,0.111986,-0.081342,0.102924
152,1358748092,-0.441877,-0.475050,0.632075,-0.423791,0.482860,-0.047875,0.145849
153,1358781426,-0.439324,-0.478111,0.631016,-0.424580,-0.264867,-0.052513,0.002815
154,1358814760,-0.437194,-0.481485,0.629269,-0.425559,-0.154513,-0.204634,0.470028
155,1358848094,-0.435331,-0.485179,0.626951,-0.426693,-0.534586,-0.109724,0.434380
156,1358881428,-0.434666,-0.489121,0.622847,-0.428876,-0.267605,0.346586,0.002418
157,1358914762,-0.433407,-0.493844,0.617033,-0.433120,-0.194291,0.019478,0.394477
158,1358948096,-0.432116,-0.497020,0.612630,-0.437010,0.256454,0.538672,-0.159025
159,1358981430,-0.431877,-0.497999,0.610390,-0.439260,0.402180,0.439076,-0.142898
160,1359014764,-0.431934,-0.498560,0.608638,-0.440995,-0.049626,0.187757,0.123622
161,1359048098,-0.432241,-0.498576,0.607305,-0.442511,-0.115430,0.271619,0.061810
162,1359081432,-0.433141,-0.497566,0.606871,-0.443363,-0.195674,0.192544,0.237070
163,1359114766,-0.434438,-0.496379,0.606397,-0.444072,0.133931,0.269655,0.122564
164,1359148100,-0.435136,-0.495872,0.605725,-0.444871,0.102131,0.060407,0.107695
165,1359181434,-0.435534,-0.495490,0.604988,-0.445910,-0.052355,0.281965,0.049625
166,1359214768,-0.436831,-0.493892,0.605036,-0.446348,-0.200565,0.575769,-0.070181
167,1359248102,-0.438343,-0.491707,0.606580,-0.445181,-0.057598,0.465077,0.175178
168,1359281436,-0.440473,-0.489348,0.608178,-0.443494,-0.004763,-0.003532,0.176467
169,1359314770,-0.441961,-0.487884,0.609334,-0.442038,0.172111,0.198882,-0.191859
170,1359348104,-0.443162,-0.486123,0.612717,-0.438083,0.685142,0.373264,-0.018378
171,1359381438,-0.444803,-0.483873,0.616352,-0.433790,-0.027496,-1.241315,0.252674
172,1359414772,-0.445365,-0.482181,0.618747,-0.431683,-0.405842,-0.092295,0.178494
173,1359448106,-0.446323,-0.480377,0.621038,-0.429408,-0.397205,0.729916,0.117697
174,1359481440,-0.448403,-0.477870,0.623579,-0.426346,-0.230551,-0.051067,0.131128
175,1359514774,-0.450647,-0.474783,0.626471,-0.423177,-0.202718,-0.478971,0.051850
176,1359548108,-0.452611,-0.471453,0.629556,-0.420216,-0.359015,-0.230115,0.050491
177,1359581442,-0.454237,-0.468599,0.632797,-0.416769,-0.275849,0.026377,0.025066
178,1359614776,-0.455241,-0.466692,0.635802,-0.413226,-0.630661,0.153211,0.108120
179,1359648110,-0.456259,-0.464963,0.638658,-0.409632,-1.045722,0.542719,0.172475
180,1359681444,-0.458462,-0.462883,0.640785,-0.406194,-1.517898,0.572349,0.372682
181,1359714778,-0.462161,-0.461000,0.641550,-0.402921,-1.435267,0.587008,0.365550
182,1359748112,-0.467350,-0.459187,0.641149,-0.399632,-1.551130,0.402394,0.301984
183,1359781446,-0.475232,-0.457575,0.638266,-0.396790,-0.481948,0.263584,0.310530
184,1359814780,-0.482503,-0.457233,0.634278,-0.394799,-0.761062,-0.096736,-0.384739
185,1359848114,-0.487772,-0.458308,0.631483,-0.391545,1.047375,-1.579855,-0.073066
186,1359881448,-0.489351,-0.461173,0.629507,-0.389387,1.584999,-1.940659,-0.153589
187,1359914782,-0.487100,-0.465775,0.629544,-0.386664,1.097357,-1.804731,-0.067760
188,1359948116,-0.483245,-0.471345,0.629838,-0.384263,0.777714,-0.810486,0.162001
189,1359981450,-0.479978,-0.475712,0.630962,-0.381119,0.300940,0.135008,-0.055159
190,1360014784,-0.477911,-0.478319,0.633332,-0.376495,0.280860,-0.138631,0.141150
191,1360048118,-0.476845,-0.480034,0.635572,-0.371862,0.373595,-0.576922,0.000666
192,1360081452,-0.475989,-0.481584,0.637670,-0.367334,0.427638,-0.648815,-0.217008
193,1360114786,-0.474764,-0.483334,0.639727,-0.363020,0.539627,-0.218299,-0.005187
194,1360148120,-0.473709,-0.484682,0.642200,-0.358203,0.225773,0.018666,0.166294
195,1360181454,-0.472938,-0.485684,0.644875,-0.353021,-0.342171,0.121579,0.171732
196,1360214788,-0.473181,-0.486400,0.646995,-0.347791,-0.897793,0.540956,0.228482
197,1360248122,-0.475170,-0.486823,0.647956,-0.342660,-0.864268,0.986581,0.324865
198,1360281456,-0.478702,-0.486725,0.648200,-0.337381,-0.961675,1.269645,0.098884
199,1360314790,-0.483429,-0.486116,0.648210,-0.331447,-0.960642,1.182445,0.250959
200,1360348124,-0.489264,-0.485134,0.647444,-0.325773,-0.757654,0.952766,0.266676
201,1360381458,-0.495838,-0.484124,0.645820,-0.320517,-0.396925,0.895275,0.401106
202,1360414792,-0.503742,-0.482795,0.643126,-0.315575,-0.492296,0.997025,0.287150
203,1360448126,-0.512957,-0.481534,0.638817,-0.311382,-0.389513,1.126145,0.273589
204,1360481460,-0.522778,-0.480404,0.633094,-0.308470,-0.016144,0.377113,0.769062
205,1360514794,-0.531495,-0.479607,0.627061,-0.307133,0.501724,0.006657,0.603890
206,1360548128,-0.537835,-0.480955,0.620519,-0.307274,0.616245,-1.028308,0.644190
207,1360581462,-0.541508,-0.484474,0.613430,-0.309522,0.796069,-1.335013,0.085692
208,1360614796,-0.541223,-0.490371,0.607692,-0.312043,1.252582,-1.699485,-0.277862
209,1360648130,-0.538718,-0.497222,0.603081,-0.314472,1.209109,-1.151907,-0.727720
210,1360681464,-0.535112,-0.502364,0.601757,-0.314993,1.145660,-0.821795,-0.363518
211,1360714798,-0.531063,-0.505760,0.602824,-0.314371,1.125969,0.219017,0.200549
212,1360748132,-0.530612,-0.505475,0.603515,-0.314263,0.229010,0.569827,-0.120441
213,1360781466,-0.531480,-0.503748,0.604294,-0.314074,-0.632945,0.193698,0.041679
214,1360814800,-0.531792,-0.501694,0.605918,-0.313704,-0.850676,0.161695,0.159888
215,1360848134,-0.532344,-0.498821,0.608402,-0.312540,-0.800042,0.217864,0.385178
216,1360881468,-0.532988,-0.497318,0.608844,-0.312974,-1.186602,0.773376,0.620834
217,1360914802,-0.531683,-0.500098,0.607079,-0.314191,0.183899,1.289034,-0.383465
218,1360948136,-0.526319,-0.505176,0.608129,-0.313067,0.956690,-0.106041,0.155562
219,1360981470,-0.522509,-0.510254,0.605483,-0.316325,0.068540,-0.984151,0.341945
220,1361014804,-0.522615,-0.513968,0.601345,-0.318027,-0.132489,0.747471,0.059509
221,1361048138,-0.520675,-0.518854,0.598515,-0.318612,0.344276,0.894565,-0.285184
222,1361081472,-0.515686,-0.524632,0.597000,-0.320104,0.362412,0.121978,0.307277
223,1361114806,-0.512893,-0.528118,0.596001,-0.320721,0.542084,-0.812643,0.127628
224,1361148140,-0.511463,-0.529770,0.595583,-0.321054,0.103214,-0.693170,-0.134194
225,1361181474,-0.509424,-0.531261,0.595629,-0.321749,0.058189,0.026277,0.247994
226,1361214808,-0.506862,-0.533195,0.595471,-0.322885,0.417314,0.167141,0.264359
227,1361248142,-0.504968,-0.534571,0.595324,-0.323846,0.488243,0.016607,0.263839
228,1361281476,-0.503619,-0.535470,0.595378,-0.324363,0.321612,0.234494,0.419713
229,1361314810,-0.502860,-0.536122,0.595676,-0.323917,0.244466,0.136960,0.257067
230,1361348144,-0.502148,-0.536953,0.595500,-0.323969,0.164393,-0.159982,0.141331
231,1361381478,-0.501752,-0.537492,0.594789,-0.324993,0.250101,-0.020912,0.044401
232,1361414812,-0.502518,-0.536697,0.594548,-0.325565,0.261449,0.107968,-0.105826
233,1361448146,-0.503654,-0.534763,0.595884,-0.324546,0.660500,0.092998,0.040686
234,1361481480,-0.505327,-0.532205,0.597443,-0.323282,0.479993,-0.221460,0.088479
235,1361514814,-0.507281,-0.529503,0.598679,-0.322371,0.278801,-0.296914,-0.028701
236,1361548148,-0.509911,-0.525859,0.600308,-0.321154,0.248668,-0.148093,0.165321
237,1361581482,-0.513288,-0.520906,0.603128,-0.318552,0.534192,0.004333,0.328087
238,1361614816,-0.517304,-0.515146,0.606345,-0.315299,0.353994,0.007703,0.043751
239,1361648150,-0.521260,-0.509429,0.609305,-0.312352,0.356989,-0.056228,0.074329
240,1361681484,-0.525771,-0.503650,0.611535,-0.309795,0.183599,-0.129299,0.091855
241,1361714818,-0.531887,-0.496453,0.613736,-0.306604,0.132598,0.110499,0.077073
242,1361748152,-0.538710,-0.487928,0.616631,-0.302540,-0.063989,0.272644,0.322850
243,1361781486,-0.544718,-0.479172,0.620626,-0.297567,0.465623,0.340915,0.502501
244,1361814820,-0.551037,-0.469240,0.625836,-0.290771,0.650527,0.219298,0.176204
245,1361848154,-0.557170,-0.459715,0.630831,-0.283413,0.049717,0.066006,-0.029253
246,1361881488,-0.561779,-0.452951,0.634428,-0.277106,-0.130897,-0.038211,-0.123125
247,1361914822,-0.565666,-0.446768,0.638034,-0.270886,-0.615176,0.011236,-0.120422
248,1361948156,-0.568522,-0.441197,0.641570,-0.265637,-0.774831,0.043911,-0.021982
249,1361981490,-0.569999,-0.436177,0.646146,-0.259601,-0.294723,0.379017,-0.148298
250,1362014824,-0.571546,-0.431241,0.650605,-0.253231,-0.030631,0.709128,-0.132783
251,1362048158,-0.572568,-0.427635,0.654154,-0.247837,-0.350669,0.482578,-0.004852
252,1362081492,-0.572409,-0.425370,0.657315,-0.243702,-0.300269,-0.542714,-0.180626
253,1362114826,-0.571191,-0.423795,0.660039,-0.241936,-0.159756,-0.786779,-0.274480
254,1362148160,-0.569280,-0.421933,0.662895,-0.241888,0.592175,-0.457126,-0.356208
255,1362181494,-0.568646,-0.416660,0.667035,-0.241138,-1.106568,-0.312073,0.174104
256,1362214828,-0.567834,-0.411776,0.670041,-0.243099,-0.290158,0.583259,0.429750
257,1362248162,-0.565102,-0.407880,0.674234,-0.244435,0.626466,0.335934,0.282284
258,1362281496,-0.560777,-0.406429,0.678042,-0.246273,0.493014,0.639635,0.517868
259,1362314830,-0.556922,-0.406204,0.680226,-0.249349,-0.057424,0.468373,0.797314
260,1362348164,-0.553101,-0.406382,0.681685,-0.253544,-0.373479,-0.073647,0.608057
261,1362381498,-0.549960,-0.404549,0.684137,-0.256685,-0.341786,0.205432,0.016243
262,1362414832,-0.545846,-0.402866,0.687249,-0.259782,0.194670,0.170468,0.030763
263,1362448166,-0.541428,-0.402284,0.689566,-0.263759,0.413749,-0.289702,0.059510
264,1362481500,-0.537154,-0.402370,0.691051,-0.268436,0.113237,-0.417012,0.104475
265,1362514834,-0.532373,-0.402943,0.692400,-0.273576,-0.052719,-0.394864,0.026953
266,1362548168,-0.527163,-0.403420,0.694026,-0.278793,0.199521,-0.488261,0.089836
267,1362581502,-0.522097,-0.403520,0.695767,-0.283795,0.395535,-0.407238,0.087667
268,1362614836,-0.517711,-0.403564,0.696821,-0.289133,0.188948,0.087192,0.168074
269,1362648170,-0.513690,-0.404049,0.697242,-0.294562,-0.092313,0.278183,0.158515
270,1362681504,-0.510023,-0.404593,0.697422,-0.299717,-0.316484,0.427568,0.237994
271,1362714838,-0.507165,-0.404757,0.697222,-0.304767,-0.291601,0.535577,0.138158
272,1362748172,-0.504917,-0.404291,0.697298,-0.308915,-0.161263,0.393281,0.121170
273,1362781506,-0.503143,-0.403469,0.697281,-0.312898,-0.196657,0.072658,0.111029
274,1362814840,-0.501545,-0.403106,0.696548,-0.317530,-0.365734,0.024931,0.089562
275,1362848174,-0.499485,-0.403326,0.695773,-0.322163,0.165225,0.164301,0.100710
276,1362881508,-0.497822,-0.403191,0.695171,-0.326182,0.019865,0.193957,0.053684
277,1362914842,-0.496192,-0.402801,0.694971,-0.329555,-0.073985,0.139143,0.114595
278,1362948176,-0.494456,-0.402232,0.695046,-0.332686,-0.220009,-0.209441,0.098228
279,1362981510,-0.492543,-0.401953,0.694777,-0.336402,-0.350538,-0.184865,0.217568
280,1363014844,-0.490569,-0.402263,0.693901,-0.340698,-0.230791,-0.040831,0.089609
281,1363048178,-0.488652,-0.403050,0.692553,-0.345235,-0.188247,-0.035923,0.149445
282,1363081512,-0.486680,-0.404282,0.690872,-0.349916,-0.074157,-0.074244,0.093566
283,1363114846,-0.484843,-0.405161,0.689576,-0.353982,-0.068359,-0.160386,0.049299
284,1363148180,-0.483189,-0.405666,0.688735,-0.357286,-0.043997,-0.175489,0.022470
285,1363181514,-0.481849,-0.405832,0.688125,-0.360073,-0.159855,-0.225745,0.085855
286,1363214848,-0.480920,-0.405571,0.687821,-0.362182,-0.257415,-0.311098,0.201782
287,1363248182,-0.480360,-0.405084,0.687406,-0.364254,-0.366304,-0.246030,0.171610
288,1363281516,-0.479900,-0.404777,0.686833,-0.366278,-0.251556,-0.186119,0.147200
289,1363314850,-0.479587,-0.404722,0.686135,-0.368050,-0.202514,-0.126747,0.140401
290,1363348184,-0.479331,-0.404914,0.685300,-0.369726,-0.235219,-0.180964,0.102615
291,1363381518,-0.479069,-0.405273,0.684458,-0.371228,-0.142531,-0.146640,0.098384
292,1363414852,-0.478902,-0.405617,0.683785,-0.372307,-0.024714,-0.178823,0.072213
293,1363448186,-0.478669,-0.406103,0.683255,-0.373050,-0.005480,-0.172323,0.088144
294,1363481520,-0.478407,-0.406806,0.682679,-0.373673,-0.027751,-0.153239,0.096713
295,1363514854,-0.478213,-0.407633,0.682108,-0.374063,-0.013014,-0.098218,0.095476
296,1363548188,-0.478116,-0.408394,0.681656,-0.374180,-0.015839,-0.168551,0.113134
297,1363581522,-0.478269,-0.409040,0.681222,-0.374069,-0.062155,-0.111156,0.106524
298,1363614856,-0.478684,-0.409422,0.680983,-0.373556,-0.080157,-0.045812,0.110770
299,1363648190,-0.479390,-0.409623,0.680883,-0.372611,-0.174951,0.080085,0.134293
300,1363681524,-0.480334,-0.409765,0.680863,-0.371273,-0.092556,0.095548,0.087476
301,1363714858,-0.481540,-0.409573,0.681195,-0.369310,-0.044341,0.050859,0.107638
302,1363748192,-0.482968,-0.409012,0.681860,-0.366829,-0.072373,-0.039705,0.094929
303,1363781526,-0.484421,-0.408374,0.682684,-0.364082,-0.022292,-0.135957,0.079704
304,1363814860,-0.485883,-0.407737,0.683599,-0.361118,-0.033529,-0.036526,0.112828
305,1363848194,-0.487476,-0.406839,0.684768,-0.357754,-0.084602,-0.052714,0.086856
306,1363881528,-0.489267,-0.405714,0.686032,-0.354148,-0.224057,-0.089639,0.135812
307,1363914862,-0.491236,-0.404490,0.687149,-0.350640,-0.235387,-0.004441,0.156975
308,1363948196,-0.493393,-0.403204,0.688193,-0.347026,-0.194434,0.088593,0.167026
309,1363981530,-0.495625,-0.402096,0.688961,-0.343591,-0.186737,0.088455,0.156274
310,1364014864,-0.497763,-0.401232,0.689480,-0.340454,-0.033013,0.017058,0.147750
311,1364048198,-0.499553,-0.400631,0.689902,-0.337674,0.141076,-0.116134,0.037022
312,1364081532,-0.500895,-0.400199,0.690488,-0.334989,0.204388,-0.027487,0.046426
313,1364114866,-0.501963,-0.399806,0.691220,-0.332339,0.136638,0.031840,0.055539
314,1364148200,-0.502990,-0.399297,0.692018,-0.329728,0.063460,0.145179,0.153606
315,1364181534,-0.504284,-0.398427,0.692889,-0.326962,0.052245,0.362937,0.174172
316,1364214868,-0.506084,-0.396915,0.693944,-0.323767,0.068753,0.386442,0.119675
317,1364248202,-0.508194,-0.394883,0.695140,-0.320363,-0.035046,0.265924,0.165321
318,1364281536,-0.510288,-0.392922,0.696153,-0.317232,0.003435,0.188696,0.175566
319,1364314870,-0.512166,-0.391390,0.696908,-0.314431,0.105285,0.157271,0.150019
320,1364348204,-0.513941,-0.390217,0.697301,-0.312112,0.113227,0.180016,0.133957
321,1364381538,-0.515447,-0.389307,0.697638,-0.310003,0.050877,0.101629,0.078598
322,1364414872,-0.516495,-0.388826,0.697811,-0.308469,0.150027,0.027160,0.144276
323,1364448206,-0.517318,-0.388698,0.697685,-0.307535,0.118512,0.027711,0.135421
324,1364481540,-0.517983,-0.388869,0.697332,-0.307000,0.055497,0.070362,0.140652
325,1364514874,-0.518524,-0.389093,0.696942,-0.306690,0.057903,0.227870,0.165816
326,1364548208,-0.519015,-0.389198,0.696670,-0.306343,0.053747,0.163743,0.137682
327,1364581542,-0.519719,-0.389192,0.696225,-0.306169,-0.015530,0.117428,0.131692
328,1364614876,-0.520090,-0.389383,0.695759,-0.306356,0.071765,0.013427,0.080428
329,1364648210,-0.520007,-0.389705,0.695520,-0.306629,0.174717,-0.027675,0.069354
330,1364681544,-0.519643,-0.390058,0.695448,-0.306960,0.158755,-0.005024,0.108966
331,1364714878,-0.519056,-0.390481,0.695390,-0.307547,0.086020,-0.019606,0.123156
332,1364748212,-0.518126,-0.391151,0.695325,-0.308408,0.103665,-0.015680,0.091575
333,1364781546,-0.516850,-0.392019,0.695328,-0.309439,0.177970,-0.099080,0.100066
334,1364814880,-0.515328,-0.393134,0.695142,-0.310978,0.090761,-0.088245,0.072571
335,1364848214,-0.513404,-0.394549,0.694933,-0.312831,0.187987,-0.064372,0.089053
336,1364881548,-0.511460,-0.396054,0.694522,-0.315017,0.037243,-0.004295,0.157525
337,1364914882,-0.509839,-0.397621,0.693666,-0.317548,-0.137347,0.230050,0.255863
338,1364948216,-0.508236,-0.399518,0.692396,-0.320494,-0.022533,0.202198,0.206124
339,1364981550,-0.507222,-0.401167,0.690826,-0.323416,0.128474,0.220526,0.161901
340,1365014884,-0.506402,-0.402479,0.689415,-0.326069,0.147092,0.115299,0.091922
341,1365048218,-0.505580,-0.403430,0.688280,-0.328558,0.049463,-0.122615,0.035451
342,1365081552,-0.504451,-0.404431,0.687328,-0.331049,0.213165,-0.167302,0.085445
343,1365114886,-0.503106,-0.405443,0.686502,-0.333560,0.209154,-0.079803,0.082702
344,1365148220,-0.501802,-0.406175,0.685938,-0.335788,0.117627,-0.014143,0.039363
345,1365181554,-0.500455,-0.406515,0.685880,-0.337499,0.062540,-0.016469,0.089838
346,1365214888,-0.499120,-0.406697,0.685962,-0.339086,-0.009171,-0.133000,0.117326
347,1365248222,-0.497728,-0.407020,0.686002,-0.340661,0.002683,-0.036862,0.052981
348,1365281556,-0.496337,-0.407263,0.686263,-0.341873,-0.020744,-0.068285,0.077427
349,1365314890,-0.495157,-0.407082,0.686830,-0.342659,-0.118680,-0.018803,0.048666
350,1365348224,-0.493933,-0.406836,0.687493,-0.343388,-0.248479,-0.175492,0.135721
351,1365381558,-0.492503,-0.407083,0.687886,-0.344360,-0.212351,-0.072684,0.107798
352,1365414892,-0.490845,-0.407710,0.688266,-0.345225,-0.191199,0.028846,0.110519
353,1365448226,-0.489187,-0.408625,0.688507,-0.346015,-0.345632,0.035882,0.142001
354,1365481560,-0.487571,-0.409655,0.688733,-0.346627,-0.309920,0.062395,0.120529
355,1365514894,-0.486001,-0.410708,0.688975,-0.347105,-0.224128,-0.077672,0.086844
356,1365548228,-0.484383,-0.412040,0.689088,-0.347564,-0.315531,-0.093545,0.159754
357,1365581562,-0.482596,-0.413752,0.689058,-0.348077,-0.329957,-0.136622,0.182315
358,1365614896,-0.480730,-0.415704,0.688911,-0.348622,-0.327006,-0.075587,0.078393
359,1365648230,-0.478540,-0.418169,0.688685,-0.349134,-0.116399,-0.217187,0.063111
360,1365681564,-0.475767,-0.421424,0.688252,-0.349862,-0.046450,-0.423237,0.016652
361,1365714898,-0.472442,-0.425227,0.687707,-0.350838,-0.024228,-0.571896,0.042652
362,1365748232,-0.468817,-0.429497,0.686773,-0.352325,-0.096085,-0.416562,0.143172
363,1365781566,-0.465085,-0.434227,0.685395,-0.354154,-0.088641,-0.101992,0.055995
364,1365814900,-0.461280,-0.439336,0.683716,-0.356068,-0.151790,-0.077762,0.117011
365,1365848234,-0.457599,-0.444716,0.681682,-0.358033,-0.232972,-0.082356,0.179871
366,1365881568,-0.453987,-0.450419,0.679171,-0.360267,-0.268783,-0.158156,0.155215
367,1365914902,-0.450583,-0.456293,0.676252,-0.362632,-0.173759,-0.067994,0.121321
368,1365948236,-0.447287,-0.462330,0.673098,-0.364927,-0.129550,-0.068857,0.156814
369,1365981570,-0.444157,-0.468518,0.669642,-0.367209,-0.157965,0.010100,0.133203
370,1366014904,-0.441055,-0.474820,0.666034,-0.369407,-0.204513,0.078502,0.117639
371,1366048238,-0.437944,-0.481220,0.662252,-0.371620,-0.203471,0.131334,0.116340
372,1366081572,-0.434904,-0.487592,0.658508,-0.373533,-0.113934,0.213389,0.131977
373,1366114906,-0.431839,-0.493641,0.655025,-0.375263,-0.066936,0.031930,0.112910
374,1366148240,-0.428547,-0.499426,0.651853,-0.376903,0.053009,-0.109219,0.050256
375,1366181574,-0.425191,-0.504756,0.649241,-0.378110,0.122305,-0.252159,0.007825
376,1366214908,-0.421335,-0.510263,0.646636,-0.379496,0.408242,-0.199642,-0.020180
377,1366248242,-0.416726,-0.516189,0.643902,-0.381216,0.485483,-0.150705,0.008505
378,1366281576,-0.411451,-0.522603,0.640842,-0.383358,0.376634,-0.150242,0.117474
379,1366314910,-0.406016,-0.529043,0.637451,-0.385963,0.076630,0.014792,0.136582
380,1366348244,-0.400797,-0.535122,0.634234,-0.388331,0.049153,0.479061,0.198446
381,1366381578,-0.396285,-0.540691,0.631080,-0.390381,-0.011574,0.587343,0.148798
382,1366414912,-0.392285,-0.545886,0.627916,-0.392288,0.021285,0.386424,0.105063
383,1366448246,-0.388601,-0.550394,0.625330,-0.393782,0.296351,0.170522,0.243828
384,1366481580,-0.384938,-0.554754,0.622670,-0.395474,0.289512,-0.144542,0.161716
385,1366514914,-0.381134,-0.559254,0.619737,-0.397423,0.193970,0.092031,0.116177
386,1366548248,-0.377128,-0.563687,0.616666,-0.399752,0.190399,0.242497,0.194300
387,1366581582,-0.373737,-0.567315,0.614177,-0.401632,0.260974,0.546493,0.142110
388,1366614916,-0.371267,-0.569782,0.612823,-0.402497,0.111095,0.502371,0.143449
389,1366648250,-0.369729,-0.571279,0.611928,-0.403153,0.084383,0.487904,0.196888
390,1366681584,-0.369358,-0.571801,0.611729,-0.403054,0.145872,0.654033,0.222678
391,1366714918,-0.369968,-0.571325,0.612153,-0.402525,0.184306,0.531095,0.217581
392,1366748252,-0.371669,-0.569655,0.613204,-0.401725,0.129036,0.376958,0.122799
393,1366781586,-0.374299,-0.566992,0.615067,-0.400199,0.223027,0.445125,0.128156
394,1366814920,-0.377474,-0.563862,0.617170,-0.398399,0.154832,0.411627,0.156822
395,1366848254,-0.381062,-0.560369,0.619296,-0.396609,0.118002,0.325957,0.270289
396,1366881588,-0.385065,-0.556353,0.621817,-0.394445,0.183886,0.197325,0.091406
397,1366914922,-0.389689,-0.551644,0.624883,-0.391663,0.195693,0.098419,0.078447
398,1366948256,-0.394589,-0.546537,0.628186,-0.388621,0.195351,0.247577,0.202312
399,1366981590,-0.399327,-0.541272,0.631604,-0.385598,0.175867,0.001678,0.221802
400,1367014924,-0.404424,-0.535640,0.635063,-0.382455,-0.138353,0.033009,0.099331
401,1367048258,-0.410034,-0.529599,0.638524,-0.379118,-0.036591,0.358215,0.185252
402,1367081592,-0.415897,-0.523016,0.642305,-0.375468,0.216718,0.373230,0.254222
403,1367114926,-0.422515,-0.515652,0.646317,-0.371355,0.066535,0.140352,0.143784
404,1367148260,-0.429763,-0.507666,0.650322,-0.367025,0.166422,0.194881,0.148018
405,1367181594,-0.437528,-0.499184,0.654223,-0.362523,0.430749,0.129413,0.190719
406,1367214928,-0.445583,-0.490163,0.658173,-0.357842,0.495827,-0.250325,0.137491
407,1367248262,-0.453831,-0.480499,0.662456,-0.352642,0.405132,-0.441342,0.033284
408,1367281596,-0.462159,-0.470450,0.666800,-0.347146,0.325455,-0.295765,0.047675
409,1367314930,-0.470370,-0.460116,0.671208,-0.341427,0.219861,-0.207550,0.031881
410,1367348264,-0.478752,-0.449053,0.675992,-0.335006,0.046250,-0.108077,0.097161
411,1367381598,-0.487177,-0.437776,0.680633,-0.328324,-0.151905,-0.065274,0.124109
412,1367414932,-0.494849,-0.427228,0.684819,-0.321979,-0.124279,-0.049431,0.139138
413,1367448266,-0.501487,-0.417619,0.688495,-0.316428,0.036632,-0.217223,0.016725
414,1367481600,-0.507185,-0.409031,0.691654,-0.311639,0.162694,-0.149672,-0.018443
415,1367514934,-0.511605,-0.401081,0.695120,-0.307000,0.375182,-0.427806,0.145332
416,1367548268,-0.514866,-0.393789,0.698717,-0.302796,0.186594,-0.399565,-0.074548
417,1367581602,-0.516882,-0.387544,0.702088,-0.299603,0.008954,-0.295219,0.012018
418,1367614936,-0.517792,-0.382633,0.704934,-0.297654,-0.132694,0.071460,0.134837
419,1367648270,-0.518256,-0.378996,0.706857,-0.296939,-0.282393,0.323951,0.144554
420,1367681604,-0.518215,-0.376537,0.708020,-0.297369,-0.304389,0.268441,0.240228
421,1367714938,-0.517793,-0.374987,0.708478,-0.298966,-0.318818,0.342975,0.215419
423,1367781606,-0.517124,-0.372906,0.708406,-0.302872,0.058478,0.516386,0.065247
426,1367881608,-0.515130,-0.372432,0.706042,-0.312230,-0.120137,-0.004124,0.030843
427,1367914942,-0.513205,-0.374245,0.704512,-0.316656,-0.136321,-0.127329,0.030207
428,1367948276,-0.510485,-0.376891,0.702890,-0.321483,-0.237954,-0.207275,0.023921
429,1367981610,-0.507056,-0.380244,0.701127,-0.326767,-0.165168,-0.175483,0.018512
430,1368014944,-0.503424,-0.384002,0.699147,-0.332186,-0.096995,-0.129139,0.116414
431,1368048278,-0.499641,-0.388236,0.696789,-0.337881,-0.265959,0.004009,0.119274
432,1368081612,-0.495968,-0.392594,0.694190,-0.343559,-0.269575,0.098670,0.175366
433,1368114946,-0.492409,-0.396801,0.691448,-0.349327,-0.367712,-0.024920,0.132996
434,1368148280,-0.488773,-0.401063,0.688621,-0.355104,-0.173877,-0.098203,0.148221
435,1368181614,-0.485062,-0.405426,0.685791,-0.360669,0.038849,-0.109595,0.087376
444,1368481620,-0.462753,-0.426934,0.671361,-0.391035,-0.193102,0.108213,0.121395
445,1368514954,-0.462175,-0.428058,0.669968,-0.392875,-0.019251,-0.263012,0.173457
446,1368548288,-0.460985,-0.430006,0.668105,-0.395310,0.275129,-0.228193,0.087230
447,1368581622,-0.459543,-0.431933,0.666595,-0.397431,0.419598,-0.115199,-0.015306
451,1368714958,-0.455183,-0.437052,0.663728,-0.401630,-0.126003,0.086652,0.100664
452,1368748292,-0.454143,-0.438551,0.663038,-0.402311,0.030399,-0.108595,0.049123
454,1368814960,-0.449621,-0.442865,0.662673,-0.403265,0.348187,-0.511839,0.001626
455,1368848294,-0.446373,-0.445925,0.662203,-0.404273,0.035022,-0.375575,0.087139
456,1368881628,-0.442960,-0.449420,0.661299,-0.405632,-0.271819,-0.005296,0.180674
457,1368914962,-0.440294,-0.452712,0.660001,-0.406988,-0.540595,0.378773,0.233622
458,1368948296,-0.438582,-0.455557,0.658690,-0.407784,-0.461503,0.465426,0.221675
459,1368981630,-0.437809,-0.457705,0.657622,-0.407935,-0.449619,0.244984,0.192882
460,1369014964,-0.437441,-0.459680,0.656606,-0.407745,-0.298143,-0.093854,0.112357
461,1369048298,-0.437190,-0.461816,0.655516,-0.407354,-0.092104,-0.037080,0.008796
462,1369081632,-0.436740,-0.464180,0.654607,-0.406609,-0.044793,-0.218272,0.029683
463,1369114966,-0.435991,-0.466788,0.653780,-0.405759,-0.169495,-0.294214,0.111269
464,1369148300,-0.435012,-0.469753,0.652870,-0.404851,-0.130997,-0.135801,0.063478
465,1369181634,-0.434038,-0.472755,0.652209,-0.403465,-0.132152,-0.008159,0.159897
466,1369214968,-0.433468,-0.475318,0.651771,-0.401771,-0.220912,-0.123298,0.166287
467,1369248302,-0.433469,-0.477417,0.651507,-0.399705,-0.325971,-0.185547,0.126414
468,1369281636,-0.433945,-0.479215,0.651358,-0.397272,-0.121873,-0.059139,0.062642
469,1369314970,-0.434941,-0.480716,0.651439,-0.394223,-0.000783,0.028628,0.041136
470,1369348304,-0.436396,-0.481960,0.651716,-0.390623,-0.084719,0.025269,0.068994
471,1369381638,-0.438353,-0.482732,0.652309,-0.386467,-0.122420,0.141519,0.118166
472,1369414972,-0.441130,-0.482738,0.653344,-0.381518,-0.155447,0.546750,0.056514
473,1369448306,-0.445157,-0.481403,0.655327,-0.375073,-0.098875,0.796702,0.169184
474,1369481640,-0.450362,-0.479194,0.657722,-0.367417,-0.241985,0.672839,0.227121
475,1369514974,-0.456402,-0.476635,0.660118,-0.358897,-0.195823,0.569692,0.147920
476,1369548308,-0.462734,-0.473736,0.662630,-0.349886,-0.173599,0.159739,0.151388
477,1369581642,-0.468815,-0.471005,0.664656,-0.341535,-0.192423,-0.249086,0.140109
478,1369614976,-0.474709,-0.468983,0.665762,-0.333938,0.066999,-0.056561,0.069770
479,1369648310,-0.480398,-0.466807,0.667061,-0.326170,0.219645,-0.203065,0.207089
480,1369681644,-0.485556,-0.465191,0.667528,-0.319821,0.017559,-0.588028,0.140404
481,1369714978,-0.490217,-0.464022,0.667656,-0.314092,-0.013369,-0.228922,0.078301
482,1369748312,-0.494800,-0.463249,0.667405,-0.308532,0.269236,0.016178,0.149581
483,1369781646,-0.498943,-0.462740,0.666725,-0.304060,0.119222,-0.046306,0.171371
484,1369814980,-0.503143,-0.461661,0.666285,-0.299712,0.071325,0.007545,0.158325
485,1369848314,-0.507366,-0.460098,0.666257,-0.295023,0.103219,0.009558,0.339903
486,1369881648,-0.511329,-0.458537,0.666236,-0.290625,0.220622,-0.081642,0.287740
487,1369914982,-0.514937,-0.457051,0.666127,-0.286819,0.208086,-0.199569,0.150864
488,1369948316,-0.517917,-0.455830,0.666035,-0.283596,0.241574,-0.326291,0.167378
489,1369981650,-0.519891,-0.455109,0.666027,-0.281146,0.133229,-0.288480,0.284752
490,1370014984,-0.520932,-0.455601,0.665171,-0.280450,0.226613,-0.013204,0.304292
491,1370048318,-0.522324,-0.456129,0.663787,-0.280281,0.366907,0.583851,0.231633
492,1370081652,-0.524299,-0.455837,0.663120,-0.278645,0.276871,0.712430,0.175306
493,1370114986,-0.526433,-0.454939,0.663128,-0.276057,0.216370,0.272574,0.254464
494,1370148320,-0.529531,-0.453296,0.662981,-0.273172,0.140894,-0.149318,0.115137
495,1370181654,-0.533673,-0.451016,0.662437,-0.270190,0.271729,-0.203535,0.064436
496,1370214988,-0.538402,-0.447563,0.662714,-0.265836,0.391132,0.280183,-0.062786
497,1370248322,-0.542071,-0.444347,0.663268,-0.262367,0.144809,-0.007248,-0.326491
498,1370281656,-0.544716,-0.441157,0.664734,-0.258534,0.540719,-0.233637,0.099852
499,1370314990,-0.547820,-0.437363,0.666145,-0.254763,0.234064,-0.267339,0.021499
500,1370348324,-0.550778,-0.433981,0.666813,-0.252411,-0.189970,0.023544,0.191401
501,1370381658,-0.554308,-0.430440,0.667297,-0.249451,-0.020603,0.209900,0.263167
502,1370414992,-0.558335,-0.426208,0.668195,-0.245299,0.063120,0.329883,-0.007107
503,1370448326,-0.561451,-0.422301,0.669297,-0.241915,-0.071419,0.335485,0.056555
504,1370481660,-0.563231,-0.419346,0.670691,-0.239040,0.090895,-0.081219,0.196735
505,1370514994,-0.564624,-0.416735,0.672155,-0.236192,0.016178,-0.385119,-0.038673
506,1370548328,-0.565666,-0.414990,0.673005,-0.234344,-0.247283,-0.173898,-0.049725
507,1370581662,-0.566124,-0.414056,0.673560,-0.233294,-0.120254,0.157590,0.075173
508,1370614996,-0.566401,-0.413450,0.673946,-0.232580,-0.146891,0.237270,0.209091
509,1370648330,-0.567341,-0.412754,0.673835,-0.231846,-0.215722,0.299622,0.178770
510,1370681664,-0.568501,-0.412115,0.673483,-0.231161,-0.020775,0.303739,0.175231
511,1370714998,-0.569196,-0.411914,0.673180,-0.230693,0.053907,0.076737,0.187278
512,1370748332,-0.569356,-0.412388,0.672719,-0.230793,-0.096547,-0.249086,0.035386
513,1370781666,-0.569396,-0.413256,0.671896,-0.231538,-0.100984,-0.270247,0.034067
514,1370815000,-0.569286,-0.414287,0.670897,-0.232859,0.234819,-0.022617,0.170008
515,1370848334,-0.568605,-0.415067,0.670645,-0.233859,0.427530,0.045955,0.254010
516,1370881668,-0.567482,-0.415910,0.670794,-0.234658,0.391742,-0.025760,0.138103
517,1370915002,-0.566843,-0.416687,0.670467,-0.235758,0.043244,0.094569,-0.118299
518,1370948336,-0.566513,-0.417056,0.670119,-0.236888,-0.068770,0.076728,-0.189118
519,1370981670,-0.565857,-0.416816,0.670546,-0.237669,0.209274,-0.095178,0.089352
520,1371015004,-0.565228,-0.416066,0.671522,-0.237722,0.212760,-0.275700,-0.078016
521,1371048338,-0.564475,-0.415664,0.672155,-0.238426,-0.020831,-0.320957,-0.015449
522,1371081672,-0.563733,-0.415470,0.672466,-0.239640,-0.063637,0.054877,0.141810
523,1371115006,-0.562989,-0.415079,0.673095,-0.240299,-0.070887,0.340970,0.214126
524,1371148340,-0.562221,-0.414740,0.673725,-0.240916,-0.259731,0.413615,0.284302
525,1371181674,-0.562258,-0.414216,0.673611,-0.242046,-0.302118,0.490861,0.170945
526,1371215008,-0.562875,-0.413197,0.673588,-0.242419,0.042714,0.423928,-0.005649
527,1371248342,-0.562764,-0.412351,0.674168,-0.242503,0.172789,0.001925,0.009538
528,1371281676,-0.562381,-0.411891,0.674463,-0.243351,-0.178715,-0.251353,-0.086983
529,1371315010,-0.561082,-0.411855,0.674877,-0.245256,0.118722,-0.405840,0.017462
530,1371348344,-0.558663,-0.411761,0.676328,-0.246935,0.722642,0.016665,0.180248
531,1371381678,-0.555331,-0.411919,0.678722,-0.247616,0.528054,-0.293937,0.081993
532,1371415012,-0.550983,-0.413316,0.680157,-0.251042,0.102570,-0.446453,0.044737
533,1371448346,-0.546237,-0.414810,0.681354,-0.255660,0.454222,0.058747,0.243707
534,1371481680,-0.542059,-0.415150,0.683632,-0.257907,0.481285,0.037981,0.106489
535,1371515014,-0.537471,-0.415691,0.685715,-0.261089,0.134648,-0.178709,0.090629
536,1371548348,-0.534277,-0.415286,0.686971,-0.264959,0.099965,0.187818,-0.156218
537,1371581682,-0.532110,-0.413544,0.688885,-0.267067,0.526948,0.169250,0.062998
538,1371615016,-0.529973,-0.411362,0.691098,-0.268962,0.258845,-0.088900,0.196871
539,1371648350,-0.528897,-0.408272,0.692883,-0.271187,-0.229366,0.164145,0.157623
540,1371681684,-0.528951,-0.404309,0.694479,-0.272930,-0.065049,0.503946,0.340494
541,1371715018,-0.529293,-0.400036,0.696267,-0.274005,-0.044249,0.299990,0.311454
542,1371748352,-0.529572,-0.396177,0.697621,-0.275625,0.065420,0.015548,0.585367
543,1371781686,-0.529170,-0.393008,0.699032,-0.277354,0.384301,-0.118228,0.327210
544,1371815020,-0.528290,-0.389747,0.700975,-0.278727,0.027162,-0.425107,-0.077916
545,1371848354,-0.527238,-0.386808,0.702459,-0.281065,-0.324506,-0.132802,0.173464
546,1371881688,-0.526245,-0.383847,0.703713,-0.283838,-0.003698,0.494667,0.371179
547,1371915022,-0.525498,-0.380738,0.705054,-0.286073,-0.050504,0.470720,0.366593
548,1371948356,-0.525157,-0.378075,0.705747,-0.288508,-0.280088,0.543838,0.247503
549,1371981690,-0.525526,-0.375143,0.706210,-0.290526,-0.192709,0.460134,0.198258
550,1372015024,-0.526383,-0.371442,0.706853,-0.292160,-0.155091,0.153002,0.070735
551,1372048358,-0.527192,-0.367464,0.707778,-0.293489,0.238887,-0.255458,-0.045672
552,1372081692,-0.527673,-0.363696,0.708699,-0.295092,0.216319,-0.742656,-0.100704
553,1372115026,-0.527417,-0.360877,0.709297,-0.297562,0.181057,-0.761996,-0.105362
554,1372148360,-0.526595,-0.358804,0.709830,-0.300242,0.104691,-0.351501,-0.035603
555,1372181694,-0.525836,-0.356773,0.710254,-0.302979,-0.169250,-0.152478,0.071307
556,1372215028,-0.525521,-0.354815,0.710392,-0.305491,-0.297959,0.185389,0.141806
557,1372248362,-0.525319,-0.352852,0.710598,-0.307627,-0.250910,0.139103,0.252885
558,1372281696,-0.525496,-0.350642,0.710827,-0.309317,-0.444390,0.017336,0.147353
559,1372315030,-0.525666,-0.348484,0.711060,-0.310925,-0.360355,-0.013963,0.179340
560,1372348364,-0.525889,-0.346288,0.711271,-0.312516,-0.172036,0.029154,0.070933
561,1372381698,-0.526466,-0.343626,0.711662,-0.313590,-0.099213,0.048428,0.003026
562,1372415032,-0.526800,-0.341479,0.712034,-0.314529,-0.246798,-0.095023,0.035864
563,1372448366,-0.526496,-0.340189,0.712237,-0.315974,-0.367487,-0.196502,0.242642
564,1372481700,-0.525812,-0.339730,0.711900,-0.318356,-0.610151,0.004911,0.158634
565,1372515034,-0.525020,-0.340054,0.711039,-0.321229,-0.318457,0.038949,0.128269
566,1372548368,-0.524021,-0.341003,0.709870,-0.324424,-0.007711,-0.062616,0.189394
567,1372581702,-0.522920,-0.342147,0.708670,-0.327604,-0.162458,-0.010855,0.066745
568,1372615036,-0.521373,-0.343457,0.707698,-0.330785,-0.328448,0.062396,0.082777
569,1372648370,-0.519417,-0.345288,0.706744,-0.333980,-0.325728,0.150159,0.148937
570,1372681704,-0.516863,-0.348224,0.705548,-0.337405,-0.443455,0.181249,0.111451
571,1372715038,-0.513743,-0.352481,0.703777,-0.341425,-0.686976,0.018491,0.134456
572,1372748372,-0.510261,-0.357809,0.701243,-0.346282,-0.537360,0.036301,0.144067
573,1372781706,-0.506688,-0.363527,0.698326,-0.351432,-0.169287,0.068837,0.083725
574,1372815040,-0.503160,-0.368901,0.695638,-0.356198,-0.116149,0.092476,0.142417
575,1372848374,-0.499680,-0.373753,0.693285,-0.360599,-0.197008,0.023540,0.192311
576,1372881708,-0.496258,-0.378508,0.690981,-0.364764,-0.014406,-0.116711,0.124138
577,1372915042,-0.492723,-0.383155,0.688587,-0.369203,-0.245669,-0.536735,0.167883
578,1372948376,-0.489258,-0.387886,0.685708,-0.374196,-0.313721,-0.081430,0.086240
579,1372981710,-0.485561,-0.393001,0.682510,-0.379485,-0.021658,-0.155634,0.184712
580,1373015044,-0.482426,-0.397881,0.679087,-0.384504,0.109766,0.308869,-0.002970
581,1373048378,-0.479429,-0.402678,0.676018,-0.388645,0.298863,0.008746,0.080622
582,1373081712,-0.476782,-0.407312,0.672928,-0.392415,0.030995,-0.115170,-0.014765
583,1373115046,-0.473848,-0.412125,0.670100,-0.395771,0.184734,-0.191316,0.075947
584,1373148380,-0.470828,-0.417044,0.667404,-0.398766,0.085309,-0.144333,0.043839
585,1373181714,-0.467557,-0.422213,0.664737,-0.401620,0.013847,-0.250528,0.081486
586,1373215048,-0.464233,-0.427832,0.661551,-0.404778,-0.106315,-0.068579,0.134652
587,1373248382,-0.460769,-0.433764,0.658130,-0.407987,0.026996,-0.049839,0.044630
588,1373281716,-0.456817,-0.440005,0.654791,-0.411108,0.228071,-0.406186,0.000336
589,1373315050,-0.452078,-0.446462,0.651947,-0.413896,0.493869,-0.519853,0.075746
590,1373348384,-0.446779,-0.453352,0.648934,-0.416885,0.371284,-0.365470,0.020733
591,1373381718,-0.441519,-0.460436,0.645500,-0.420045,0.071082,0.049918,0.139086
592,1373415052,-0.436484,-0.467213,0.641999,-0.423176,-0.136949,0.195902,0.267969
593,1373448386,-0.432113,-0.473237,0.638840,-0.425743,-0.041053,0.210666,0.186829
594,1373481720,-0.428823,-0.478365,0.635853,-0.427804,-0.098618,0.149727,0.103013
595,1373515054,-0.426080,-0.482979,0.633206,-0.429284,0.021662,0.045929,0.059668
596,1373548388,-0.423245,-0.487414,0.631213,-0.430010,0.282492,-0.211990,-0.035434
597,1373581722,-0.420143,-0.491824,0.629739,-0.430192,0.274581,-0.306780,0.060744
598,1373615056,-0.417014,-0.496200,0.628468,-0.430070,0.198977,-0.134616,0.082552
599,1373648390,-0.414092,-0.500304,0.627445,-0.429632,0.015978,-0.038450,0.164669
600,1373681724,-0.412025,-0.503584,0.626598,-0.429022,-0.354314,0.244273,0.275415
601,1373715058,-0.411520,-0.505602,0.625891,-0.428166,-0.429421,0.363218,0.268275
602,1373748392,-0.412415,-0.506520,0.625546,-0.426722,-0.159182,0.357994,0.112405
603,1373781726,-0.414104,-0.506716,0.625731,-0.424576,0.037172,0.240350,0.074389
604,1373815060,-0.416406,-0.506377,0.626328,-0.421841,0.206312,0.189426,-0.018121
605,1373848394,-0.418828,-0.505583,0.627516,-0.418616,0.285780,0.014287,0.050929
606,1373881728,-0.421221,-0.504485,0.628973,-0.415341,0.188100,-0.034736,0.145999
607,1373915062,-0.423781,-0.503109,0.630494,-0.412086,0.031439,0.055220,0.144363
608,1373948396,-0.426348,-0.501579,0.632142,-0.408765,0.005397,0.129185,0.076032
609,1373981730,-0.428971,-0.499935,0.633858,-0.405365,-0.019224,0.078664,0.068745
610,1374015064,-0.431243,-0.498653,0.635372,-0.402149,-0.072398,-0.022827,0.174796
611,1374048398,-0.433259,-0.497806,0.636471,-0.399284,-0.187768,0.025605,0.149135
612,1374081732,-0.435198,-0.497202,0.637347,-0.396520,-0.221283,0.179949,0.149253
613,1374115066,-0.437338,-0.496520,0.638227,-0.393595,-0.112310,0.356156,0.156233
614,1374148400,-0.439713,-0.495742,0.638952,-0.390742,-0.063999,0.243038,0.127264
615,1374181734,-0.442012,-0.495134,0.639515,-0.387989,-0.131045,-0.028586,0.058026
616,1374215068,-0.443680,-0.495082,0.639911,-0.385490,-0.140234,-0.188699,0.019586
617,1374248402,-0.444550,-0.495837,0.640017,-0.383335,-0.183163,-0.221940,0.042298
618,1374281736,-0.444626,-0.497402,0.639715,-0.381719,-0.140450,-0.035894,0.007696
619,1374315070,-0.444034,-0.499647,0.639228,-0.380291,-0.094479,0.051349,0.099588
620,1374348404,-0.443295,-0.502002,0.638867,-0.378654,-0.193334,0.062950,0.069220
621,1374381738,-0.442336,-0.504675,0.638297,-0.377183,-0.206846,-0.027061,0.125491
622,1374415072,-0.441077,-0.507899,0.637243,-0.376110,0.021240,0.026557,0.101524
623,1374448406,-0.439543,-0.511361,0.635970,-0.375368,0.133497,-0.059396,0.067883
624,1374481740,-0.437813,-0.514574,0.634994,-0.374649,0.096401,-0.271120,0.129917
625,1374515074,-0.436137,-0.517382,0.634194,-0.374093,-0.063443,-0.264940,0.306951
626,1374548408,-0.434448,-0.520569,0.632836,-0.373935,0.249975,0.223862,0.081884
627,1374581742,-0.432639,-0.524017,0.631670,-0.373189,0.442212,0.399602,0.161981
628,1374615076,-0.430830,-0.527166,0.630552,-0.372736,0.094084,0.150567,0.213257
629,1374648410,-0.429647,-0.529445,0.629705,-0.372304,0.248475,0.268419,0.109849
630,1374681744,-0.428881,-0.530772,0.629496,-0.371651,0.267643,-0.060845,0.067725
631,1374715078,-0.428229,-0.531529,0.629778,-0.370841,0.272168,-0.059583,0.124446
632,1374748412,-0.427542,-0.532098,0.630241,-0.370031,0.336847,0.047157,0.266417
633,1374781746,-0.427542,-0.532332,0.630540,-0.369184,0.188871,0.286782,0.220417
634,1374815080,-0.427795,-0.532343,0.630928,-0.368211,-0.079497,0.192263,0.037928
635,1374848414,-0.427976,-0.532261,0.631332,-0.367426,-0.093026,-0.031011,0.135922
636,1374881748,-0.428734,-0.531815,0.631752,-0.366464,0.094273,0.055892,0.129685
637,1374915082,-0.429671,-0.531247,0.632372,-0.365119,0.360654,0.165358,0.196073
638,1374948416,-0.431086,-0.530181,0.633207,-0.363550,0.218920,0.050478,0.144590
639,1374981750,-0.433026,-0.528597,0.634008,-0.362151,0.136631,-0.095470,0.108849
640,1375015084,-0.435355,-0.526509,0.634993,-0.360674,0.210989,0.009019,0.093549
641,1375048418,-0.437532,-0.524369,0.636209,-0.359009,0.304699,-0.051012,0.086369
642,1375081752,-0.439795,-0.522288,0.637297,-0.357344,0.352099,-0.027054,0.173698
643,1375115086,-0.442442,-0.519835,0.638365,-0.355745,-0.103984,-0.063762,-0.046186
644,1375148420,-0.444745,-0.517488,0.639605,-0.354063,-0.148853,-0.029488,0.103942
645,1375181754,-0.446922,-0.515207,0.640613,-0.352824,0.088336,0.143999,0.310019
646,1375215088,-0.449402,-0.512634,0.641678,-0.351483,-0.047749,0.394714,0.093731
647,1375248422,-0.451884,-0.509898,0.642955,-0.349943,-0.055782,0.346634,0.122783
648,1375281756,-0.454381,-0.506977,0.644219,-0.348627,0.149332,0.177829,0.181571
649,1375315090,-0.457052,-0.503838,0.645473,-0.347366,0.052712,0.103988,0.134784
650,1375348424,-0.459475,-0.500842,0.646885,-0.345873,0.087436,0.098798,0.144002
651,1375381758,-0.461790,-0.497678,0.648546,-0.344242,-0.090435,0.058922,0.146024
652,1375415092,-0.464149,-0.494426,0.650211,-0.342611,-0.293124,0.252209,0.144945
653,1375448426,-0.466174,-0.491494,0.651871,-0.340920,-0.085949,0.290112,0.192197
654,1375481760,-0.468103,-0.488665,0.653460,-0.339298,-0.035072,0.188589,0.157207
655,1375515094,-0.469982,-0.486005,0.654780,-0.337975,-0.056509,0.064569,0.173119
656,1375548428,-0.471863,-0.483426,0.655982,-0.336718,0.149065,0.051428,0.078739
657,1375581762,-0.473682,-0.480725,0.657286,-0.335485,0.008639,0.022026,0.118525
658,1375615096,-0.475284,-0.478249,0.658412,-0.334549,0.052105,0.101941,0.222148
659,1375648430,-0.476882,-0.475801,0.659500,-0.333624,0.268020,0.046813,0.205294
660,1375681764,-0.478536,-0.473203,0.660630,-0.332714,0.122527,-0.094031,0.062413
661,1375715098,-0.480148,-0.470457,0.661993,-0.331572,0.073269,-0.127388,0.124802
662,1375748432,-0.481695,-0.467701,0.663352,-0.330510,0.088152,-0.046010,0.083035
663,1375781766,-0.483199,-0.464822,0.664756,-0.329553,-0.047817,-0.004233,0.057936
664,1375815100,-0.484540,-0.462094,0.666110,-0.328686,-0.046435,0.080403,0.121964
665,1375848434,-0.485834,-0.459385,0.667468,-0.327817,-0.082091,0.087001,0.121637
666,1375881768,-0.487007,-0.456771,0.668741,-0.327134,-0.144671,-0.083897,0.133967
667,1375915102,-0.487836,-0.454550,0.669781,-0.326864,-0.077126,-0.145773,0.118282
668,1375948436,-0.488032,-0.453013,0.670681,-0.326862,0.128701,-0.205386,0.065467
669,1375981770,-0.487512,-0.452022,0.671574,-0.327175,0.038836,-0.321104,-0.012966
670,1376015104,-0.486669,-0.451143,0.672442,-0.327859,-0.030053,-0.214980,0.032928
671,1376048438,-0.485713,-0.450220,0.673506,-0.328362,0.001675,-0.034775,0.090494
672,1376081772,-0.484797,-0.449204,0.674643,-0.328774,-0.058882,0.059554,0.186088
673,1376115106,-0.484269,-0.448107,0.675547,-0.329190,-0.141959,0.116421,0.192337
674,1376148440,-0.484025,-0.447006,0.676274,-0.329555,-0.067208,0.070892,0.144479
675,1376181774,-0.483899,-0.445753,0.677104,-0.329733,0.052535,-0.027781,0.094216
676,1376215108,-0.483727,-0.444576,0.677879,-0.329981,0.040575,-0.117132,0.137952
677,1376248442,-0.483487,-0.443659,0.678437,-0.330420,0.028902,-0.121747,0.110541
678,1376281776,-0.483124,-0.442878,0.678935,-0.330976,0.101640,-0.014470,0.080777
679,1376315110,-0.482715,-0.442030,0.679508,-0.331528,0.058983,-0.055873,0.172617
680,1376348444,-0.482592,-0.441032,0.680017,-0.331993,0.011393,0.014242,0.117469
681,1376381778,-0.482574,-0.439966,0.680534,-0.332375,0.043794,0.064203,0.111918
682,1376415112,-0.482607,-0.438896,0.681031,-0.332723,0.062711,-0.044393,0.145917
683,1376448446,-0.482749,-0.437794,0.681461,-0.333089,0.047996,-0.121603,0.077636
684,1376481780,-0.482863,-0.436746,0.681869,-0.333464,0.048535,-0.171797,0.100220
685,1376515114,-0.483016,-0.435743,0.682195,-0.333887,0.102578,-0.166927,0.069956
686,1376548448,-0.483137,-0.434833,0.682477,-0.334321,0.108691,-0.194872,0.065783
687,1376581782,-0.483076,-0.434079,0.682718,-0.334898,0.026936,-0.243768,0.113976
688,1376615116,-0.482869,-0.433559,0.682863,-0.335574,0.020225,-0.166060,0.066930
689,1376648450,-0.482449,-0.433273,0.683005,-0.336257,-0.012648,-0.147997,0.103433
690,1376681784,-0.482001,-0.433049,0.683122,-0.336950,-0.053706,-0.069559,0.106696
691,1376715118,-0.481520,-0.432902,0.683239,-0.337590,-0.005227,-0.038129,0.122955
692,1376748452,-0.480984,-0.432830,0.683398,-0.338121,-0.047364,-0.031524,0.066381
693,1376781786,-0.480122,-0.433111,0.683525,-0.338731,-0.069051,-0.157777,0.113660
694,1376815120,-0.479021,-0.433770,0.683492,-0.339513,-0.095718,-0.033021,0.087904
695,1376848454,-0.477693,-0.434658,0.683465,-0.340302,-0.214800,-0.027213,0.139226
696,1376881788,-0.476487,-0.435605,0.683266,-0.341179,-0.319266,0.049614,0.203258
697,1376915122,-0.475520,-0.436673,0.682740,-0.342215,-0.302140,0.181274,0.189120
698,1376948456,-0.474745,-0.438017,0.681865,-0.343315,-0.087676,0.091954,0.129972
699,1376981790,-0.474067,-0.439400,0.680919,-0.344361,-0.092066,-0.097384,0.121352
700,1377015124,-0.473388,-0.440716,0.680054,-0.345323,-0.089527,-0.109312,0.114553
701,1377048458,-0.472681,-0.442045,0.679231,-0.346211,0.011199,-0.008954,0.096982
702,1377081792,-0.472069,-0.443368,0.678404,-0.346974,0.020806,-0.008477,0.117876
703,1377115126,-0.471516,-0.444682,0.677562,-0.347689,-0.033315,-0.030317,0.115753
704,1377148460,-0.470923,-0.445982,0.676786,-0.348340,0.026717,-0.060983,0.120289
705,1377181794,-0.470446,-0.447145,0.676118,-0.348789,0.066000,-0.001085,0.113892
706,1377215128,-0.470106,-0.448158,0.675548,-0.349051,0.058770,-0.018337,0.094653
707,1377248462,-0.469778,-0.449127,0.675039,-0.349232,-0.035449,-0.017614,0.108749
708,1377281796,-0.469363,-0.450186,0.674546,-0.349379,-0.034276,0.006605,0.132269
709,1377315130,-0.468810,-0.451341,0.674076,-0.349539,-0.013332,0.030305,0.103397
710,1377348464,-0.468202,-0.452526,0.673644,-0.349655,-0.051791,-0.014735,0.096524
711,1377381798,-0.467416,-0.453884,0.673157,-0.349885,-0.098818,-0.079145,0.142406
712,1377415132,-0.466568,-0.455429,0.672489,-0.350293,-0.088582,0.079831,0.099284
713,1377448466,-0.465638,-0.457048,0.671876,-0.350595,-0.009819,0.059396,0.104283
714,1377481800,-0.464790,-0.458632,0.671266,-0.350822,-0.056488,-0.019616,0.105875
715,1377515134,-0.463807,-0.460370,0.670567,-0.351183,-0.056710,-0.066027,0.131656
716,1377548468,-0.462718,-0.462209,0.669838,-0.351595,0.080234,-0.009848,0.080060
717,1377581802,-0.461631,-0.464002,0.669137,-0.351998,0.116048,-0.058385,0.127669
718,1377615136,-0.460482,-0.465771,0.668485,-0.352404,0.114562,-0.077465,0.129073
719,1377648470,-0.459416,-0.467372,0.667957,-0.352676,0.020165,0.027929,0.118019
720,1377681804,-0.458644,-0.468724,0.667479,-0.352792,-0.001039,0.103899,0.141727
721,1377715138,-0.458067,-0.469960,0.666952,-0.352894,-0.041210,0.033174,0.139752
722,1377748472,-0.457478,-0.471225,0.666364,-0.353082,-0.090510,-0.069625,0.126881
723,1377781806,-0.456805,-0.472554,0.665780,-0.353280,-0.040287,-0.034474,0.042571
724,1377815140,-0.455949,-0.474056,0.665190,-0.353483,-0.026025,-0.083336,0.121052
725,1377848474,-0.454891,-0.475811,0.664394,-0.353987,-0.096685,-0.026779,0.110082
726,1377881808,-0.453632,-0.477790,0.663556,-0.354507,-0.027491,0.062602,0.088464
727,1377915142,-0.452347,-0.479836,0.662641,-0.355098,-0.024579,0.044321,0.136794
728,1377948476,-0.451126,-0.481966,0.661565,-0.355771,-0.013234,0.088352,0.120583
729,1377981810,-0.449841,-0.484220,0.660352,-0.356590,-0.027891,0.057394,0.129480
730,1378015144,-0.448477,-0.486676,0.658946,-0.357566,-0.069102,0.064801,0.124842
731,1378048478,-0.447167,-0.489105,0.657524,-0.358507,-0.010280,0.079552,0.096045
732,1378081812,-0.445727,-0.491542,0.656168,-0.359451,-0.019413,-0.033825,0.086103
733,1378115146,-0.444066,-0.494210,0.654646,-0.360622,-0.056175,-0.097119,0.113187
734,1378148480,-0.442029,-0.497227,0.652968,-0.362017,-0.017780,-0.013169,0.105050
735,1378181814,-0.439722,-0.500404,0.651312,-0.363430,0.055545,-0.035812,0.082590
736,1378215148,-0.437001,-0.504092,0.649282,-0.365243,0.052288,-0.130887,0.093810
737,1378248482,-0.433772,-0.508477,0.646800,-0.367409,-0.011079,-0.192772,0.113668
738,1378281816,-0.430291,-0.513121,0.644123,-0.369744,-0.141946,-0.015649,0.042660
739,1378315150,-0.427067,-0.517145,0.641934,-0.371677,-0.110753,0.017367,0.118580
740,1378348484,-0.424213,-0.520652,0.639962,-0.373446,0.070615,0.063824,0.150009
741,1378381818,-0.421628,-0.523938,0.638055,-0.375037,0.163836,0.031688,0.134600
742,1378415152,-0.419056,-0.527209,0.636138,-0.376588,0.137782,-0.089607,0.093926
743,1378448486,-0.416593,-0.530207,0.634439,-0.377976,0.126034,-0.117255,0.109254
744,1378481820,-0.414180,-0.532800,0.633190,-0.379075,0.161994,-0.088985,0.057904
745,1378515154,-0.411769,-0.535262,0.632170,-0.379934,0.155614,-0.138909,0.039552
746,1378548488,-0.409117,-0.537991,0.631128,-0.380677,0.011496,-0.161137,0.165665
747,1378581822,-0.406421,-0.541068,0.629625,-0.381690,-0.211935,0.039316,0.173407
748,1378615156,-0.404194,-0.543939,0.627993,-0.382661,-0.201320,0.354261,0.139887
749,1378648490,-0.402350,-0.546357,0.626668,-0.383332,0.010889,0.277997,0.139464
750,1378681824,-0.400829,-0.548504,0.625405,-0.383922,0.016714,0.043643,0.041018
751,1378715158,-0.399268,-0.550550,0.624387,-0.384276,0.083201,0.024114,0.155396
752,1378748492,-0.397777,-0.552294,0.623630,-0.384549,0.046074,0.119571,0.174546
753,1378781826,-0.396840,-0.553416,0.623293,-0.384451,0.031279,0.275950,0.136530
754,1378815160,-0.396411,-0.554136,0.623065,-0.384226,0.031509,0.230640,0.170833
755,1378848494,-0.396489,-0.554460,0.622937,-0.383886,0.060920,0.160728,0.187367
756,1378881828,-0.397089,-0.554352,0.623000,-0.383318,0.146377,0.184679,0.111392
757,1378915162,-0.397876,-0.554054,0.623133,-0.382717,0.236835,0.084621,0.133834
758,1378948496,-0.398618,-0.553723,0.623415,-0.381963,0.184508,-0.036675,0.112516
759,1378981830,-0.399226,-0.553273,0.623827,-0.381307,0.137592,-0.039554,0.088257
760,1379015164,-0.399645,-0.552852,0.624226,-0.380826,0.142389,0.072873,0.138996
761,1379048498,-0.400083,-0.552307,0.624731,-0.380328,0.055567,0.162139,0.129425
762,1379081832,-0.400456,-0.551534,0.625497,-0.379798,0.100415,0.132414,0.170451
763,1379115166,-0.400946,-0.550637,0.626231,-0.379373,0.018527,0.173951,0.161835
764,1379148500,-0.401694,-0.549662,0.626922,-0.378855,-0.140258,0.386273,0.221407
765,1379181834,-0.402841,-0.548363,0.627625,-0.378354,-0.206197,0.376059,0.183991
766,1379215168,-0.404643,-0.546570,0.628460,-0.377639,0.040694,0.299264,0.182105
767,1379248502,-0.406916,-0.544371,0.629473,-0.376685,0.158524,0.248778,0.157719
768,1379281836,-0.409496,-0.541750,0.630798,-0.375449,0.184327,0.115277,0.095137
769,1379315170,-0.412366,-0.538554,0.632622,-0.373833,0.361363,-0.020550,0.150194
770,1379348504,-0.415394,-0.535005,0.634716,-0.372023,0.334315,-0.086747,0.095766
771,1379381838,-0.418372,-0.531453,0.636743,-0.370308,0.219870,-0.089579,0.080943
772,1379415172,-0.421216,-0.527947,0.638722,-0.368689,0.163262,-0.043714,0.138568
773,1379448506,-0.423964,-0.524463,0.640691,-0.367091,0.198312,-0.084255,0.097026
774,1379481840,-0.426512,-0.521159,0.642517,-0.365649,0.121395,-0.171489,0.105545
775,1379515174,-0.428877,-0.518028,0.644114,-0.364521,0.056823,-0.038449,0.118629
776,1379548508,-0.431254,-0.514913,0.645631,-0.363447,0.003425,0.069924,0.162003
777,1379581842,-0.433934,-0.511590,0.647178,-0.362196,-0.004677,0.091488,0.163816
778,1379615176,-0.436751,-0.508222,0.648641,-0.360933,0.083654,0.088209,0.078564
779,1379648510,-0.439672,-0.504788,0.650063,-0.359644,0.064478,-0.037376,0.090880
780,1379681844,-0.442543,-0.501258,0.651549,-0.358367,0.044296,-0.085717,0.131629
781,1379715178,-0.445308,-0.497588,0.653213,-0.357026,0.086899,-0.089579,0.086900
782,1379748512,-0.448144,-0.493800,0.654941,-0.355569,0.045961,0.011433,0.081309
783,1379781846,-0.451013,-0.490006,0.656595,-0.354136,-0.021055,0.095332,0.122170
784,1379815180,-0.454032,-0.486104,0.658210,-0.352656,-0.112019,0.128794,0.127651
785,1379848514,-0.457196,-0.482193,0.659738,-0.351076,-0.111202,0.084668,0.135893
786,1379881848,-0.460338,-0.478434,0.661071,-0.349605,-0.126017,0.041496,0.079225
787,1379915182,-0.463299,-0.474882,0.662342,-0.348128,-0.037796,0.003818,0.062025
788,1379948516,-0.465853,-0.471613,0.663586,-0.346791,-0.031977,-0.196785,0.102654
789,1379981850,-0.467954,-0.468804,0.664613,-0.345801,-0.006844,-0.155210,0.082662
790,1380015184,-0.469605,-0.466412,0.665539,-0.345017,0.022111,-0.072015,0.103811
791,1380048518,-0.471049,-0.464185,0.666418,-0.344354,-0.009975,-0.039764,0.130994
792,1380081852,-0.472591,-0.461877,0.667255,-0.343724,-0.045340,0.041212,0.178523
793,1380115186,-0.474353,-0.459313,0.668130,-0.343031,-0.045262,0.107253,0.141644
794,1380148520,-0.476448,-0.456388,0.669164,-0.342017,0.010565,0.096344,0.080002
795,1380181854,-0.478788,-0.453095,0.670452,-0.340601,0.029034,-0.045357,0.111918
796,1380215188,-0.481134,-0.449689,0.671834,-0.339083,-0.009716,-0.080590,0.093885
797,1380248522,-0.483325,-0.446319,0.673241,-0.337625,0.008650,-0.123716,0.115309
798,1380281856,-0.485388,-0.443001,0.674650,-0.336222,0.001545,-0.082304,0.103426
799,1380315190,-0.487359,-0.439706,0.676120,-0.334738,0.024070,-0.026134,0.088123
800,1380348524,-0.489266,-0.436416,0.677616,-0.333233,0.002461,-0.012070,0.090870
801,1380381858,-0.491065,-0.433113,0.679235,-0.331596,-0.043917,-0.044627,0.058691
802,1380415192,-0.492557,-0.430159,0.680722,-0.330177,-0.030953,-0.057510,0.075996
803,1380448526,-0.493694,-0.427619,0.682081,-0.328972,-0.088871,-0.070698,0.094221
804,1380481860,-0.494525,-0.425430,0.683299,-0.328031,-0.194163,-0.069642,0.109749
805,1380515194,-0.495080,-0.423609,0.684323,-0.327415,-0.249908,0.030220,0.136451
806,1380548528,-0.495414,-0.422305,0.685024,-0.327130,-0.238404,0.132148,0.161598
807,1380581862,-0.495539,-0.421607,0.685276,-0.327314,-0.247601,0.105232,0.156479
808,1380615196,-0.495471,-0.421420,0.685198,-0.327819,-0.219311,0.020557,0.129180
809,1380648530,-0.495162,-0.421605,0.684951,-0.328564,-0.159655,0.004709,0.118967
810,1380681864,-0.494654,-0.422030,0.684641,-0.329428,-0.134283,-0.046345,0.119796
811,1380715198,-0.493836,-0.422863,0.684210,-0.330482,-0.056381,-0.060890,0.106614
812,1380748532,-0.492814,-0.424074,0.683582,-0.331753,-0.083359,-0.101892,0.114760
813,1380781866,-0.491658,-0.425662,0.682707,-0.333232,-0.150890,-0.019607,0.150940
814,1380815200,-0.490571,-0.427386,0.681675,-0.334738,0.003468,0.018811,0.073133
815,1380848534,-0.489751,-0.428748,0.680825,-0.335923,0.031168,-0.055553,0.090632
816,1380881868,-0.489116,-0.429807,0.680153,-0.336856,0.007440,-0.142464,0.089073
817,1380915202,-0.488380,-0.430709,0.679758,-0.337569,0.100196,-0.129087,0.071971
818,1380948536,-0.487698,-0.431475,0.679485,-0.338126,0.037706,-0.138178,0.096607
819,1380981870,-0.486967,-0.432366,0.679146,-0.338721,-0.009050,-0.062021,0.114595
820,1381015204,-0.486162,-0.433388,0.678768,-0.339328,-0.008682,0.025705,0.125505
821,1381048538,-0.485618,-0.434345,0.678310,-0.339800,-0.068620,0.005528,0.131259
822,1381081872,-0.485139,-0.435329,0.677766,-0.340309,-0.042986,-0.061820,0.078535
823,1381115206,-0.484588,-0.436397,0.677222,-0.340809,0.008380,-0.163702,0.104736
824,1381148540,-0.484085,-0.437626,0.676530,-0.341322,-0.014759,-0.046686,0.116211
825,1381181874,-0.483660,-0.438911,0.675807,-0.341706,-0.133419,-0.048922,0.138805
826,1381215208,-0.483417,-0.440111,0.675041,-0.342022,-0.238060,-0.002900,0.161492
827,1381248542,-0.483369,-0.441136,0.674385,-0.342063,-0.126349,0.043382,0.138934
828,1381281876,-0.483588,-0.442072,0.673631,-0.342030,-0.155579,0.017129,0.190123
829,1381315210,-0.484059,-0.443048,0.672656,-0.342019,-0.119501,-0.017218,0.110803
830,1381348544,-0.484485,-0.444120,0.671672,-0.341960,0.041362,-0.075132,0.085252
831,1381381878,-0.484986,-0.445143,0.670732,-0.341765,0.040182,-0.075956,0.123496
832,1381415212,-0.485451,-0.446010,0.669958,-0.341492,0.092771,-0.091235,0.021960
833,1381448546,-0.486349,-0.446176,0.669570,-0.340758,0.293179,0.111743,0.266329
834,1381481880,-0.487830,-0.445565,0.669620,-0.339340,0.074516,-0.069425,0.039295
835,1381515214,-0.488996,-0.444871,0.669975,-0.337867,-0.087142,-0.020938,0.115810
836,1381548548,-0.490417,-0.443845,0.670459,-0.336193,-0.006936,0.181087,0.181945
837,1381581882,-0.492621,-0.442052,0.671258,-0.333730,-0.010774,0.158616,-0.010456
838,1381615216,-0.494085,-0.440622,0.672242,-0.331467,-0.327815,-0.183071,-0.027435
839,1381648550,-0.494550,-0.440249,0.673031,-0.329665,-0.237656,-0.266395,0.182259
840,1381681884,-0.494669,-0.440745,0.673139,-0.328600,-0.257678,-0.123920,0.146315
841,1381715218,-0.494483,-0.441991,0.672712,-0.328081,-0.152461,-0.041296,0.143438
842,1381748552,-0.494639,-0.443290,0.671940,-0.327675,0.093434,0.081655,0.154960
843,1381781886,-0.495091,-0.444143,0.671277,-0.327195,0.026344,0.016146,0.124025
844,1381815220,-0.495070,-0.445075,0.670934,-0.326663,0.026925,-0.001261,-0.050113
845,1381848554,-0.494153,-0.446457,0.670801,-0.326440,-0.005719,-0.059363,-0.026737
846,1381881888,-0.492471,-0.448600,0.670396,-0.326875,-0.046123,-0.005237,0.287293
847,1381915222,-0.490813,-0.451149,0.669448,-0.327801,-0.124716,0.224920,0.242207
848,1381948556,-0.489238,-0.453718,0.668391,-0.328769,-0.000776,0.110462,-0.097144
849,1381981890,-0.487270,-0.456200,0.667727,-0.329603,0.254569,-0.170231,0.101378
850,1382015224,-0.484833,-0.459053,0.666916,-0.330875,-0.106961,-0.051916,0.250314
851,1382048558,-0.481887,-0.462500,0.665912,-0.332397,-0.285453,0.154178,0.011037
852,1382081892,-0.479129,-0.465811,0.664822,-0.333939,-0.029363,0.098908,0.049645
853,1382115226,-0.476160,-0.469203,0.663706,-0.335652,0.111229,-0.248568,-0.019279
854,1382148560,-0.472717,-0.472914,0.662745,-0.337207,0.180778,-0.141858,0.463290
855,1382181894,-0.469982,-0.476223,0.661411,-0.338987,-0.172515,-0.199827,-0.093431
856,1382215228,-0.466804,-0.479634,0.660393,-0.340551,-0.008846,-0.033298,-0.010934
857,1382248562,-0.463337,-0.483122,0.659526,-0.342032,0.122704,-0.081925,0.257752
858,1382281896,-0.459986,-0.486852,0.658172,-0.343869,-0.271029,0.027051,0.152048
859,1382315230,-0.456526,-0.490945,0.656375,-0.346088,-0.185973,-0.003860,-0.050772
860,1382348564,-0.452676,-0.495479,0.654184,-0.348821,-0.091792,-0.024960,0.257252
861,1382381898,-0.448688,-0.500604,0.651303,-0.352034,-0.088098,-0.071600,0.236201
862,1382415232,-0.444787,-0.506155,0.647663,-0.355744,-0.036359,-0.100760,0.101515
863,1382448566,-0.440669,-0.511649,0.644047,-0.359554,-0.084614,-0.100140,-0.074853
864,1382481900,-0.436668,-0.516660,0.641059,-0.362596,-0.084969,-0.209972,0.163019
865,1382515234,-0.432813,-0.521232,0.638519,-0.365146,-0.003784,-0.004257,0.106990
866,1382548568,-0.429388,-0.525232,0.636398,-0.367155,0.078980,0.094217,0.018111
867,1382581902,-0.426401,-0.528555,0.634836,-0.368570,-0.046637,-0.079220,0.258662
868,1382615236,-0.424197,-0.531339,0.633376,-0.369620,-0.215473,0.076202,0.341848
869,1382648570,-0.422752,-0.533770,0.631918,-0.370269,-0.310711,0.261514,0.077049
870,1382681904,-0.421911,-0.535809,0.630701,-0.370357,-0.333374,0.278168,0.051229
871,1382715238,-0.422016,-0.537331,0.629565,-0.369965,-0.329019,0.157145,0.161007
872,1382748572,-0.422613,-0.538819,0.628143,-0.369537,-0.206097,0.125791,0.068494
873,1382781906,-0.423212,-0.540252,0.627022,-0.368661,-0.011255,-0.007866,0.151319
874,1382815240,-0.423259,-0.541875,0.626377,-0.367321,0.154473,-0.277087,0.184926
875,1382848574,-0.422775,-0.543845,0.625325,-0.366756,0.225449,-0.482202,0.170752
876,1382881908,-0.421394,-0.546295,0.624025,-0.366920,0.245182,-0.343347,0.259482
877,1382915242,-0.419704,-0.548757,0.622941,-0.367025,0.389951,-0.145756,0.248426
878,1382948576,-0.418464,-0.550915,0.622028,-0.366756,0.443065,0.166278,0.082756
879,1382981910,-0.417702,-0.552693,0.621458,-0.365915,0.534599,0.213508,0.064453
880,1383015244,-0.417036,-0.554059,0.621293,-0.364888,0.379504,-0.205146,0.241303
881,1383048578,-0.416732,-0.554982,0.621354,-0.363726,0.232537,-0.336160,0.317781
882,1383081912,-0.416954,-0.555791,0.621332,-0.362272,0.109926,-0.206900,-0.074151
883,1383115246,-0.416675,-0.556872,0.621478,-0.360679,0.286810,-0.162489,-0.007578
884,1383148580,-0.416401,-0.557826,0.621564,-0.359370,0.153514,-0.153303,0.132067
885,1383181914,-0.416699,-0.558550,0.621341,-0.358284,-0.082194,-0.021021,0.117047
886,1383215248,-0.417097,-0.559508,0.620849,-0.357177,-0.326957,0.015251,0.215331
887,1383248582,-0.417326,-0.560741,0.620226,-0.356056,-0.295723,-0.014325,0.300917
888,1383281916,-0.418063,-0.561907,0.619377,-0.354830,-0.364889,-0.004456,-0.042984
889,1383315250,-0.419108,-0.563111,0.618277,-0.353604,-0.320362,0.206543,-0.084723
890,1383348584,-0.420065,-0.564410,0.616747,-0.353069,-0.041205,0.240672,-0.012320
891,1383381918,-0.421918,-0.564885,0.615573,-0.352148,0.037099,0.382344,-0.123379
892,1383415252,-0.424803,-0.564624,0.614771,-0.350496,0.165475,0.087580,0.680044
893,1383448586,-0.427256,-0.564888,0.612731,-0.350660,0.104589,-0.135218,0.528954
894,1383481920,-0.429336,-0.565243,0.610801,-0.350915,0.028031,-0.075146,0.268498
895,1383515254,-0.431334,-0.565464,0.609995,-0.349509,0.308623,-0.015819,-0.274852
896,1383548588,-0.433322,-0.565625,0.609300,-0.347997,0.360047,0.013084,-0.096033
897,1383581922,-0.434828,-0.565947,0.607838,-0.348152,0.089125,0.127038,-0.244837
898,1383615256,-0.437031,-0.564957,0.607537,-0.347528,0.035044,0.190515,-0.098919
899,1383648590,-0.440394,-0.562052,0.609162,-0.345138,0.461693,0.469240,0.126045
900,1383681924,-0.444155,-0.558402,0.611562,-0.341985,0.523819,0.311675,0.284840
901,1383715258,-0.447214,-0.555132,0.613231,-0.340329,0.439721,-0.139169,0.419501
902,1383748592,-0.450589,-0.551478,0.614412,-0.339688,-0.045177,-0.170415,0.520201
903,1383781926,-0.454071,-0.548010,0.615711,-0.338309,-0.185936,0.332376,0.231560
904,1383815260,-0.456376,-0.545405,0.617064,-0.336950,0.026676,0.356658,-0.326275
905,1383848594,-0.458476,-0.543173,0.618277,-0.335477,-0.097470,0.018506,-0.211534
906,1383881928,-0.460933,-0.540967,0.619239,-0.333896,-0.338663,-0.098940,0.243975
907,1383915262,-0.462976,-0.538935,0.620218,-0.332536,-0.358056,0.157859,0.283059
908,1383948596,-0.464291,-0.537339,0.621619,-0.330665,-0.239379,0.135605,0.037947
909,1383981930,-0.465096,-0.536384,0.622514,-0.329398,-0.265905,-0.049094,0.196345
910,1384015264,-0.466490,-0.535829,0.622211,-0.328900,-0.241340,0.176353,-0.013958
911,1384048598,-0.468071,-0.535307,0.621920,-0.328053,-0.170284,0.236651,0.188003
912,1384081932,-0.469723,-0.534454,0.621985,-0.326958,-0.046919,0.149256,0.325085
913,1384115266,-0.471961,-0.533024,0.622525,-0.325036,0.095608,0.079522,0.341254
914,1384148600,-0.475090,-0.531061,0.622853,-0.323058,0.218188,0.110464,-0.170307
915,1384181934,-0.478361,-0.528678,0.623085,-0.321689,0.236794,0.125565,-0.013673
916,1384215268,-0.482427,-0.524963,0.624304,-0.319328,0.304549,0.140135,0.088415
917,1384248602,-0.487113,-0.520015,0.626581,-0.315831,0.385915,-0.092177,-0.024261
918,1384281936,-0.491437,-0.514838,0.629063,-0.312665,0.245947,-0.307220,0.328162
919,1384315270,-0.495869,-0.509656,0.631297,-0.309640,0.086289,-0.195976,0.056868
920,1384348604,-0.500397,-0.504437,0.633550,-0.306283,0.170748,0.138734,-0.313655
921,1384381938,-0.504393,-0.499268,0.635845,-0.303428,0.146604,0.013807,0.150493
922,1384415272,-0.508159,-0.494229,0.637998,-0.300863,-0.236430,0.013005,-0.129741
923,1384448606,-0.511541,-0.489302,0.640280,-0.298326,-0.436525,0.201153,0.166007
924,1384481940,-0.514760,-0.484754,0.642002,-0.296509,-0.039356,0.644440,0.484381
925,1384515274,-0.518783,-0.480133,0.643576,-0.293589,0.340721,0.643580,0.362249
926,1384548608,-0.522763,-0.476742,0.643864,-0.291415,0.277906,-0.152078,-0.057430
927,1384581942,-0.526297,-0.474723,0.642172,-0.292084,-0.012378,-0.639931,0.027646
928,1384615276,-0.529481,-0.472367,0.640743,-0.293286,0.336396,-0.499171,-0.194395
929,1384648610,-0.532063,-0.468721,0.641686,-0.292399,0.636712,-0.136960,-0.182924
930,1384681944,-0.533680,-0.464459,0.644120,-0.290898,0.506576,-0.433016,-0.165155
931,1384715278,-0.535518,-0.459511,0.646414,-0.290288,0.296911,-0.375717,-0.272938
932,1384748612,-0.538419,-0.452966,0.649356,-0.288638,0.155876,-0.032844,-0.050274
933,1384781946,-0.540556,-0.445860,0.653679,-0.285938,0.244294,-0.085932,0.291734
934,1384815280,-0.541397,-0.438957,0.658654,-0.283601,0.103131,-0.098311,0.253412
935,1384848614,-0.541619,-0.432820,0.663434,-0.281460,-0.041453,0.105567,-0.004255
936,1384881948,-0.541779,-0.427134,0.667468,-0.280299,-0.040281,0.156101,-0.033785
937,1384915282,-0.540924,-0.422020,0.671665,-0.279669,0.132948,0.097099,0.281591
938,1384948616,-0.538442,-0.417718,0.676543,-0.279159,0.003318,0.027640,0.199335
939,1384981950,-0.534284,-0.415172,0.680809,-0.280571,-0.032514,-0.010640,0.209052
940,1385015284,-0.530433,-0.413850,0.683183,-0.284040,-0.135194,0.450064,0.262330
941,1385048618,-0.526451,-0.413233,0.685198,-0.287470,-0.280119,1.066099,0.415362
942,1385081952,-0.521534,-0.413278,0.687003,-0.292026,-0.410703,0.781738,0.402612
943,1385115286,-0.516861,-0.413967,0.687685,-0.297696,-0.276092,0.507212,0.546496
944,1385148620,-0.512399,-0.415465,0.687266,-0.304218,-0.258824,0.634967,0.296764
945,1385181954,-0.507794,-0.417642,0.686115,-0.311473,-0.131311,0.550862,0.269464
946,1385215288,-0.503979,-0.419167,0.684727,-0.318594,0.295545,0.465893,0.196551
947,1385248622,-0.500250,-0.419819,0.683991,-0.325125,0.324520,-0.075565,-0.120256
948,1385281956,-0.496761,-0.420239,0.683118,-0.331701,0.068843,-0.311700,0.092426
949,1385315290,-0.493335,-0.420658,0.681977,-0.338562,0.106583,0.242617,-0.041817
950,1385348624,-0.489867,-0.420590,0.681595,-0.344399,0.053919,-0.065381,0.007189
951,1385381958,-0.486549,-0.420021,0.681493,-0.349956,-0.416816,-0.425713,0.089336
952,1385415292,-0.483155,-0.419649,0.681280,-0.355476,-0.319048,-0.112876,0.045645
953,1385448626,-0.480110,-0.419259,0.681097,-0.360378,-0.165841,-0.126380,0.174408
954,1385481960,-0.477873,-0.418293,0.681128,-0.364392,-0.233134,-0.152244,0.100892
955,1385515294,-0.476769,-0.416204,0.681578,-0.367377,-0.097163,-0.244813,0.116420
956,1385548628,-0.476846,-0.413009,0.682474,-0.369215,-0.086987,-0.287504,0.117624
957,1385581962,-0.477605,-0.409231,0.683752,-0.370074,0.063301,-0.397251,0.068154
958,1385615296,-0.478762,-0.405132,0.685345,-0.370142,0.211865,-0.289319,0.059706
959,1385648630,-0.480118,-0.400664,0.687409,-0.369422,0.053893,-0.475792,0.104762
960,1385681964,-0.481704,-0.395986,0.689391,-0.368707,-0.187062,-0.281810,0.120670
961,1385715298,-0.483167,-0.391432,0.691423,-0.367849,0.064399,-0.091672,0.130256
962,1385748632,-0.484871,-0.386705,0.693561,-0.366581,-0.037021,-0.061440,0.146710
963,1385781966,-0.486964,-0.382069,0.695247,-0.365471,-0.364827,-0.306704,0.182987
964,1385815300,-0.489417,-0.377659,0.696320,-0.364735,0.013227,-0.055629,0.067654
965,1385848634,-0.492320,-0.372762,0.697870,-0.362898,0.361592,-0.126144,-0.000948
966,1385881968,-0.495647,-0.367269,0.699907,-0.360035,0.032632,-0.240641,-0.048848
967,1385915302,-0.498676,-0.361569,0.702408,-0.356737,-0.110165,-0.391395,0.039100
968,1385948636,-0.501291,-0.356188,0.705001,-0.353355,-0.073101,-0.429818,0.102424
969,1385981970,-0.503293,-0.351491,0.707547,-0.350109,0.090145,-0.208875,0.100916
970,1386015304,-0.505159,-0.346876,0.710119,-0.346803,-0.264150,-0.243314,0.169985
971,1386048638,-0.506843,-0.342768,0.712160,-0.344234,-0.505608,-0.120580,0.167239
972,1386081972,-0.508191,-0.339741,0.713491,-0.342487,-0.094810,0.052652,0.213183
973,1386115306,-0.509663,-0.337129,0.714503,-0.340765,0.133740,-0.014033,0.055637
974,1386148640,-0.511257,-0.334320,0.715594,-0.338851,-0.124503,-0.150441,0.062629
975,1386181974,-0.512442,-0.331945,0.716517,-0.337443,0.009597,-0.272032,0.183044
976,1386215308,-0.513117,-0.330394,0.717240,-0.336403,0.451911,-0.211003,0.047744
977,1386248642,-0.513853,-0.328633,0.718181,-0.334993,0.166958,-0.154490,0.058223
978,1386281976,-0.514562,-0.327090,0.718846,-0.333987,-0.276455,0.066191,0.222102
979,1386315310,-0.515175,-0.326175,0.719025,-0.333551,-0.151423,0.406584,0.140731
980,1386348644,-0.516032,-0.325539,0.718896,-0.333125,-0.220709,0.332851,0.128361
981,1386381978,-0.517084,-0.325104,0.718542,-0.332682,-0.286616,0.215094,0.175217
982,1386415312,-0.517940,-0.324850,0.718172,-0.332399,-0.200281,-0.152184,0.184588
983,1386448646,-0.518632,-0.325070,0.717578,-0.332385,0.261563,0.195907,-0.090796
984,1386481980,-0.519665,-0.324176,0.717752,-0.331269,0.016912,0.353093,-0.081758
985,1386515314,-0.520715,-0.322598,0.718401,-0.329750,-0.178237,0.328959,0.335645
986,1386548648,-0.521610,-0.321199,0.718983,-0.328429,-0.227522,0.296634,0.325538
987,1386581982,-0.522999,-0.320136,0.718988,-0.327246,-0.155125,0.430906,0.033748
988,1386615316,-0.524256,-0.319258,0.718951,-0.326172,-0.139733,0.256116,0.117076
989,1386648650,-0.525147,-0.318720,0.718874,-0.325435,-0.029402,0.090136,0.124341
990,1386681984,-0.525769,-0.318785,0.718566,-0.325046,0.115058,0.061068,0.039384
991,1386715318,-0.526003,-0.319316,0.718278,-0.324783,0.280249,-0.091421,0.191976
992,1386748652,-0.526174,-0.319613,0.718364,-0.324023,0.074938,0.023253,-0.044392
993,1386781986,-0.526214,-0.319672,0.718675,-0.323209,-0.370347,-0.088258,-0.018100
994,1386815320,-0.526110,-0.320392,0.718481,-0.323098,-0.446654,-0.011438,0.190655
995,1386848654,-0.525769,-0.321802,0.718002,-0.323314,-0.113346,0.040978,0.080660
996,1386881988,-0.525130,-0.323323,0.717699,-0.323509,-0.145996,-0.095426,0.045473
997,1386915322,-0.524143,-0.325315,0.717202,-0.324212,-0.463121,-0.121238,-0.055780
998,1386948656,-0.522784,-0.328046,0.716250,-0.325755,-0.444917,0.049826,0.198398
999,1386981990,-0.521212,-0.331220,0.715090,-0.327606,-0.137870,0.268370,0.289080
1000,1387015324,-0.519499,-0.334780,0.713778,-0.329564,-0.003324,0.241782,0.102476
1001,1387048658,-0.517874,-0.338548,0.712237,-0.331599,-0.149952,0.150519,0.062383
1002,1387081992,-0.516285,-0.342434,0.710427,-0.333963,-0.178525,0.100589,0.188102
1003,1387115326,-0.514662,-0.346548,0.708409,-0.336501,0.026680,0.091376,0.143104
1004,1387148660,-0.512486,-0.351167,0.706430,-0.339182,0.171190,-0.104552,0.082988
1005,1387181994,-0.510253,-0.355878,0.704401,-0.341849,0.115360,-0.125322,-0.006145
1006,1387215328,-0.507968,-0.360334,0.702417,-0.344655,0.118783,-0.221494,0.037981
1007,1387248662,-0.505604,-0.364807,0.700234,-0.347852,0.284098,-0.078178,0.243430
1008,1387281996,-0.503287,-0.369547,0.697813,-0.351059,0.584780,0.266812,0.115473
1009,1387315330,-0.501687,-0.372949,0.696209,-0.352932,0.351272,0.269088,0.026747
1010,1387348664,-0.500439,-0.375088,0.695301,-0.354225,-0.186013,-0.125576,0.228339
1011,1387381998,-0.499001,-0.377650,0.693915,-0.356242,0.124233,0.010234,0.204692
1012,1387415332,-0.497252,-0.381056,0.692003,-0.358773,0.249818,-0.130144,0.001102
1013,1387448666,-0.494874,-0.385192,0.689745,-0.361978,0.169487,-0.349105,-0.015375
1014,1387482000,-0.491635,-0.390176,0.687216,-0.365841,0.170222,-0.067370,0.147692
1015,1387515334,-0.488317,-0.395054,0.684864,-0.369444,0.277118,0.272103,0.021618
1016,1387548668,-0.485293,-0.399222,0.683061,-0.372276,0.166345,0.306282,0.203798
1017,1387582002,-0.482719,-0.402791,0.681480,-0.374668,0.060396,0.257254,0.239567
1018,1387615336,-0.480592,-0.406032,0.679752,-0.377035,0.176217,0.189905,0.195685
1019,1387648670,-0.479123,-0.408639,0.678082,-0.379090,0.170383,0.185516,0.172095
1020,1387682004,-0.478302,-0.410260,0.676750,-0.380753,0.200936,0.098054,0.168211
1021,1387715338,-0.478283,-0.411037,0.675597,-0.381984,0.312985,0.196981,0.162521
1022,1387748672,-0.479037,-0.410786,0.674843,-0.382642,0.319457,0.098861,0.116327
1023,1387782006,-0.480358,-0.409689,0.674429,-0.382892,0.266713,0.071336,0.138362
1024,1387815340,-0.482361,-0.407821,0.674252,-0.382678,0.191666,0.138570,0.068896
1025,1387848674,-0.484688,-0.405412,0.674400,-0.382037,-0.014187,-0.003370,0.136237
1026,1387882008,-0.486877,-0.403237,0.674422,-0.381516,0.001840,0.017524,0.183202
1027,1387915342,-0.489254,-0.401006,0.674307,-0.381028,0.145748,-0.013906,0.031644
1028,1387948676,-0.491522,-0.398469,0.674567,-0.380311,0.264832,-0.030697,-0.032049
1029,1387982010,-0.493859,-0.395544,0.675151,-0.379299,0.015904,0.141679,0.076397
1030,1388015344,-0.496446,-0.392343,0.675704,-0.378260,-0.004481,0.228730,0.131721
1031,1388048678,-0.498756,-0.389263,0.676385,-0.377185,0.271475,0.087218,0.061559
1032,1388082012,-0.500382,-0.386669,0.677271,-0.376109,0.556010,-0.307960,-0.092176
1033,1388115346,-0.500849,-0.384285,0.678915,-0.374964,0.643902,-0.690485,-0.107779
1034,1388148680,-0.500332,-0.381479,0.681694,-0.373475,0.570012,-0.466157,-0.098701
1035,1388182014,-0.499780,-0.377793,0.685236,-0.371474,0.233780,-0.014362,0.095434
1036,1388215348,-0.499697,-0.373551,0.688899,-0.369093,-0.584782,0.220991,0.237899
1037,1388248682,-0.500179,-0.370060,0.691330,-0.367407,-1.222415,0.785485,0.351848
1038,1388282016,-0.501218,-0.367560,0.692454,-0.366382,-1.174141,0.893448,0.336071
1039,1388315350,-0.502292,-0.365865,0.692910,-0.365745,-1.170005,0.494640,0.249085
1040,1388348684,-0.502385,-0.365793,0.692577,-0.366321,-0.980814,0.012802,0.148104
1041,1388382018,-0.501239,-0.367987,0.691121,-0.368436,-0.662261,-0.064967,0.099041
1042,1388415352,-0.498829,-0.372056,0.688853,-0.371852,-0.393851,-0.060902,0.046841
1043,1388448686,-0.495679,-0.376977,0.686413,-0.375602,-0.212159,0.290405,0.043886
1044,1388482020,-0.492374,-0.381755,0.684382,-0.378816,-0.214438,0.308349,0.127754
1045,1388515354,-0.489237,-0.386264,0.682472,-0.381744,-0.353826,0.117708,0.154315
1046,1388548688,-0.485986,-0.391089,0.680266,-0.384907,-0.194401,0.050544,0.176767
1047,1388582022,-0.482564,-0.396083,0.677972,-0.388142,0.026308,-0.098614,0.145050
1048,1388615356,-0.479466,-0.400998,0.675317,-0.391547,-0.064926,-0.030849,0.087249
1049,1388648690,-0.476477,-0.405923,0.672477,-0.394993,0.032984,0.000441,0.133133
1050,1388682024,-0.473610,-0.410743,0.669767,-0.398052,0.235908,-0.072001,0.073950
1051,1388715358,-0.470789,-0.415324,0.667245,-0.400870,0.011090,-0.225311,0.038726
1052,1388748692,-0.467859,-0.419963,0.664571,-0.403899,-0.068377,-0.215015,0.112341
1053,1388782026,-0.464886,-0.424805,0.661682,-0.406997,0.060904,0.067750,0.065084
1054,1388815360,-0.462130,-0.429409,0.658996,-0.409654,-0.015615,0.226008,0.058647
1055,1388848694,-0.459768,-0.433306,0.656906,-0.411561,-0.086457,0.183037,0.109419
1056,1388882028,-0.457817,-0.436640,0.655265,-0.412825,-0.015494,0.206776,0.126570
1057,1388915362,-0.456190,-0.439589,0.653926,-0.413621,0.081525,0.128895,0.060720
1058,1388948696,-0.454699,-0.442236,0.653038,-0.413842,0.103131,0.034923,0.105854
1059,1388982030,-0.453231,-0.444647,0.652466,-0.413772,-0.041206,-0.038853,0.120562
1060,1389015364,-0.451816,-0.447156,0.651769,-0.413714,-0.001448,0.014295,0.124102
1061,1389048698,-0.450413,-0.449745,0.650929,-0.413760,0.055144,-0.176362,0.095569
1062,1389082032,-0.448849,-0.452395,0.649950,-0.414109,0.082955,-0.265005,0.177779
1063,1389115366,-0.447151,-0.455446,0.648470,-0.414923,0.139959,-0.165062,0.144453
1064,1389148700,-0.445258,-0.459057,0.646408,-0.416194,0.206950,-0.198046,0.108995
1065,1389182034,-0.443314,-0.462964,0.643945,-0.417756,0.216929,-0.020587,0.110932
1066,1389215368,-0.441520,-0.466522,0.641831,-0.418950,0.227405,0.146167,0.058927
1067,1389248702,-0.440252,-0.469247,0.640447,-0.419359,0.177531,0.222798,0.136169
1068,1389282036,-0.439770,-0.471024,0.639762,-0.418919,0.057438,0.318923,0.089644
1069,1389315370,-0.439941,-0.472071,0.639557,-0.417870,0.119665,0.192471,0.185290
1070,1389348704,-0.440650,-0.472627,0.639650,-0.416351,0.214658,0.074384,0.100399
1071,1389382038,-0.441796,-0.472567,0.640281,-0.414229,0.337369,0.026918,0.051899
1072,1389415372,-0.443373,-0.471705,0.641688,-0.411340,0.263707,-0.025142,0.083693
1073,1389448706,-0.445090,-0.470369,0.643548,-0.408097,0.218011,-0.081360,0.130680
1074,1389482040,-0.447039,-0.468714,0.645610,-0.404598,0.221882,0.043022,0.069763
1075,1389515374,-0.449393,-0.466624,0.647880,-0.400761,0.027584,-0.014783,0.122846
1076,1389548708,-0.451926,-0.464475,0.650045,-0.396883,0.006061,0.003070,0.183179
1077,1389582042,-0.454439,-0.462560,0.651914,-0.393168,0.007597,0.053195,0.193779
1078,1389615376,-0.457005,-0.460559,0.653745,-0.389485,0.028582,-0.029285,0.177765
1079,1389648710,-0.459885,-0.458157,0.655612,-0.385771,-0.057443,-0.134157,0.093743
1080,1389682044,-0.462671,-0.455741,0.657472,-0.382120,0.065411,-0.045178,0.147941
1081,1389715378,-0.465543,-0.453343,0.659276,-0.378357,0.062619,0.067400,0.114649
1082,1389748712,-0.468724,-0.450774,0.661022,-0.374431,-0.114324,0.041180,0.108680
1083,1389782046,-0.472109,-0.447912,0.662805,-0.370440,-0.142396,0.096426,0.095538
1084,1389815380,-0.475543,-0.444964,0.664532,-0.366485,-0.032100,0.203099,0.150053
1085,1389848714,-0.479026,-0.442118,0.666066,-0.362588,-0.022255,0.160765,0.132728
1086,1389882048,-0.482316,-0.439546,0.667412,-0.358859,0.003480,0.050568,0.042219
1087,1389915382,-0.485224,-0.437194,0.668696,-0.355406,0.204291,-0.084342,0.021292
1088,1389948716,-0.487956,-0.434862,0.670021,-0.352015,0.289749,-0.120359,0.144241
1089,1389982050,-0.490292,-0.432953,0.671067,-0.349118,0.158386,-0.131197,0.103011
1090,1390015384,-0.492287,-0.431321,0.672014,-0.346500,-0.043516,0.110020,0.106300
1091,1390048718,-0.494214,-0.429449,0.673142,-0.343882,-0.103362,0.163969,0.136559
1092,1390082052,-0.496073,-0.427349,0.674346,-0.341452,-0.129600,0.132533,0.163599
1093,1390115386,-0.498024,-0.425116,0.675600,-0.338913,-0.054338,0.308215,0.169198
1094,1390148720,-0.500072,-0.422774,0.676922,-0.336178,-0.042041,0.353088,0.183735
1095,1390182054,-0.502409,-0.420218,0.678181,-0.333348,-0.146905,0.342186,0.186267
1096,1390215388,-0.504626,-0.417757,0.679340,-0.330721,-0.101645,0.256778,0.202075
1097,1390248722,-0.506531,-0.415684,0.680218,-0.328611,0.018483,0.145063,0.150405
1098,1390282056,-0.508002,-0.414174,0.680769,-0.327103,0.232242,0.035454,0.082664
1099,1390315390,-0.509158,-0.412894,0.681247,-0.325926,0.287267,-0.032184,0.093253
1100,1390348724,-0.510062,-0.411516,0.681950,-0.324784,0.302713,-0.154345,0.048269
1101,1390382058,-0.510366,-0.410445,0.682654,-0.324182,0.172601,-0.293061,0.108968
1102,1390415392,-0.509808,-0.410140,0.683209,-0.324275,0.183581,-0.211638,0.073675
1103,1390448726,-0.508957,-0.410037,0.683680,-0.324752,0.342311,-0.158209,0.057052
1104,1390482060,-0.508030,-0.409689,0.684212,-0.325519,0.295074,-0.168872,0.046206
1105,1390515394,-0.506823,-0.409150,0.685103,-0.326203,0.235369,-0.207664,0.072273
1106,1390548728,-0.505518,-0.408510,0.686014,-0.327116,0.056453,0.008215,0.213228
1107,1390582062,-0.504386,-0.407859,0.686693,-0.328250,0.041421,0.391753,0.147400
1108,1390615396,-0.503640,-0.406986,0.687263,-0.329284,-0.129907,0.395073,0.223685
1109,1390648730,-0.503268,-0.405891,0.687706,-0.330276,-0.220213,0.392924,0.229485
1110,1390682064,-0.502709,-0.405035,0.687909,-0.331753,-0.198890,0.284657,0.176957
1111,1390715398,-0.501810,-0.404772,0.687769,-0.333720,-0.187677,0.254094,0.165895
1112,1390748732,-0.500414,-0.405075,0.687429,-0.336141,-0.109577,0.258646,0.093919
1113,1390782066,-0.498604,-0.405622,0.687092,-0.338847,-0.066241,0.216964,0.078836
1114,1390815400,-0.496375,-0.406768,0.686436,-0.342063,-0.124642,0.112126,0.099588
1115,1390848734,-0.493673,-0.408864,0.685139,-0.346050,-0.062683,0.093819,0.183758
1116,1390882068,-0.490666,-0.411592,0.683389,-0.350525,0.036334,0.229507,0.109507
1117,1390915402,-0.487695,-0.414028,0.681846,-0.354781,-0.033941,0.229067,0.062014
1118,1390948736,-0.484839,-0.416088,0.680441,-0.358957,-0.013031,0.079348,0.110517
1119,1390982070,-0.481962,-0.418260,0.678844,-0.363306,0.000352,-0.045052,0.090977
1120,1391015404,-0.478927,-0.420831,0.676924,-0.367904,0.079912,-0.021894,0.075371
1121,1391048738,-0.475958,-0.423276,0.675056,-0.372357,0.039873,0.014237,0.073121
1122,1391082072,-0.473169,-0.425393,0.673346,-0.376571,-0.004325,-0.041444,0.057295
1123,1391115406,-0.470227,-0.427624,0.671576,-0.380867,0.029256,-0.246358,0.084622
1124,1391148740,-0.467004,-0.430186,0.669689,-0.385243,0.112600,-0.243165,0.049819
1125,1391182074,-0.463793,-0.432664,0.667885,-0.389456,0.028889,-0.069977,0.089347
1126,1391215408,-0.460886,-0.434710,0.666324,-0.393283,-0.142995,0.090482,0.143999
1127,1391248742,-0.458465,-0.436428,0.664740,-0.396875,-0.256833,0.015672,0.216654
1128,1391282076,-0.456338,-0.438232,0.662872,-0.400447,-0.245327,-0.040487,0.150950
1129,1391315410,-0.454443,-0.440158,0.660666,-0.404118,-0.169857,-0.058514,0.167036
1130,1391348744,-0.452805,-0.441992,0.658382,-0.407667,-0.060388,0.096431,0.098169
1131,1391382078,-0.451331,-0.443561,0.656354,-0.410855,-0.065024,0.010278,0.125561
1132,1391415412,-0.449904,-0.445087,0.654446,-0.413802,-0.020894,0.031685,0.084162
1133,1391448746,-0.448336,-0.446663,0.652690,-0.416570,0.028875,0.098869,0.084467
1134,1391482080,-0.446844,-0.447939,0.651458,-0.418727,0.019441,0.154213,0.095941
1135,1391515414,-0.445741,-0.448735,0.650697,-0.420232,-0.132845,0.240233,0.126319
1136,1391548748,-0.445007,-0.449175,0.650277,-0.421189,-0.165851,0.172531,0.132770
1137,1391582082,-0.444711,-0.449279,0.649990,-0.421831,-0.171773,0.022351,0.118278
1138,1391615416,-0.444456,-0.449421,0.649670,-0.422442,0.023451,-0.159601,0.154591
1139,1391648750,-0.444340,-0.449584,0.649373,-0.422847,0.235528,-0.032934,0.022643
1140,1391682084,-0.444608,-0.449334,0.649488,-0.422653,0.133756,-0.125340,0.092012
1141,1391715418,-0.445106,-0.448693,0.649915,-0.422155,-0.030530,-0.251187,0.146851
1142,1391748752,-0.445828,-0.447863,0.650284,-0.421706,0.017313,-0.182839,0.155345
1143,1391782086,-0.446823,-0.446961,0.650573,-0.421164,0.032515,0.012915,0.095900
1144,1391815420,-0.447887,-0.446079,0.650952,-0.420383,-0.024424,-0.034311,0.066643
1145,1391848754,-0.448886,-0.445377,0.651264,-0.419578,-0.088872,-0.068824,0.074956
1146,1391882088,-0.449581,-0.445087,0.651426,-0.418887,-0.030200,-0.076363,0.054185
1147,1391915422,-0.449972,-0.445058,0.651665,-0.418126,-0.014017,-0.041195,0.087550
1148,1391948756,-0.450343,-0.445088,0.651965,-0.417227,-0.083090,0.040604,0.123468
1149,1391982090,-0.450936,-0.445060,0.652259,-0.416156,-0.159840,0.098870,0.134289
1150,1392015424,-0.451747,-0.445060,0.652505,-0.414888,-0.211210,0.093373,0.142474
1151,1392048758,-0.452584,-0.445172,0.652773,-0.413431,-0.073990,-0.102564,0.102576
1152,1392082092,-0.453222,-0.445625,0.652852,-0.412117,-0.019201,-0.289151,0.053445
1153,1392115426,-0.453691,-0.446301,0.652980,-0.410665,0.097828,-0.075217,0.098944
1154,1392148760,-0.454473,-0.446680,0.653298,-0.408878,-0.163435,0.112517,0.167963
1155,1392182094,-0.455858,-0.446613,0.653767,-0.406654,-0.238164,0.139359,0.231905
1156,1392215428,-0.458115,-0.445983,0.654292,-0.403957,-0.156135,0.173158,0.149004
1157,1392248762,-0.461235,-0.444649,0.655129,-0.400505,0.017580,0.051590,0.121455
1158,1392282096,-0.464840,-0.442693,0.656320,-0.396534,-0.003108,-0.103210,0.083963
1159,1392315430,-0.468570,-0.440262,0.657871,-0.392257,0.022568,-0.209925,0.058610
1160,1392348764,-0.472279,-0.437602,0.659707,-0.387677,-0.061210,-0.143441,0.034182
1161,1392382098,-0.475819,-0.435030,0.661545,-0.383083,-0.099562,-0.029516,0.126968
1162,1392415432,-0.479174,-0.432697,0.663262,-0.378547,-0.184316,0.027413,0.077180
1163,1392448766,-0.482273,-0.430627,0.664836,-0.374186,-0.216459,0.023676,0.086926
1164,1392482100,-0.484925,-0.429013,0.666215,-0.370137,-0.066925,0.058163,0.052927
1165,1392515434,-0.487081,-0.428004,0.667244,-0.366605,-0.096158,-0.042043,0.139169
1166,1392548768,-0.488693,-0.427827,0.667729,-0.363771,-0.054138,0.043292,0.087410
1167,1392582102,-0.489739,-0.428186,0.668012,-0.361415,0.080592,0.002903,0.058740
1168,1392615436,-0.490437,-0.428927,0.668013,-0.359583,-0.034759,-0.048611,0.119720
1169,1392648770,-0.490671,-0.430452,0.667386,-0.358605,-0.131686,0.085281,0.181235
1170,1392682104,-0.490679,-0.432955,0.665748,-0.358626,-0.054137,0.070611,0.151394
1171,1392715438,-0.490658,-0.435713,0.663595,-0.359304,0.249661,0.247396,0.161323
1172,1392748772,-0.490733,-0.437612,0.662386,-0.359123,0.328479,0.294592,-0.051783
1173,1392782106,-0.490619,-0.438891,0.661775,-0.358846,0.185279,-0.124023,0.061318
1174,1392815440,-0.490070,-0.440233,0.661348,-0.358740,0.336865,-0.117431,0.135857
1175,1392848774,-0.489018,-0.441770,0.661080,-0.358778,0.368783,0.042071,0.056767
1176,1392882108,-0.487698,-0.443221,0.660985,-0.358961,0.051438,0.099107,0.098622
1177,1392915442,-0.486609,-0.444359,0.660966,-0.359067,-0.162332,0.390233,0.189580
1178,1392948776,-0.485765,-0.445286,0.660998,-0.359004,-0.055970,0.490661,0.191048
1179,1392982110,-0.485276,-0.445935,0.660970,-0.358911,-0.007033,0.368895,0.202071
1180,1393015444,-0.484950,-0.446443,0.660936,-0.358783,0.091201,0.227791,0.123858
1181,1393048778,-0.484621,-0.446647,0.661144,-0.358590,0.167488,0.094544,0.095137
1182,1393082112,-0.484245,-0.446686,0.661446,-0.358492,0.183017,0.010736,0.149491
1183,1393115446,-0.483667,-0.446830,0.661715,-0.358597,0.100851,0.070027,0.062872
1184,1393148780,-0.482713,-0.447156,0.662019,-0.358913,-0.011245,0.053423,0.152876
1185,1393182114,-0.481469,-0.447842,0.662125,-0.359533,-0.078291,0.086960,0.161827
1186,1393215448,-0.480043,-0.448882,0.661906,-0.360546,-0.036716,0.178927,0.147998
1187,1393248782,-0.478460,-0.450082,0.661616,-0.361683,0.102890,0.043552,0.130046
1188,1393282116,-0.476758,-0.451282,0.661384,-0.362859,0.082699,-0.125467,0.088329
1189,1393315450,-0.474643,-0.452780,0.661048,-0.364374,0.001055,-0.214245,0.103264
1190,1393348784,-0.471952,-0.454923,0.660401,-0.366368,0.043255,-0.052404,0.129581
1191,1393382118,-0.469178,-0.457300,0.659527,-0.368539,-0.024858,0.043024,0.119640
1192,1393415452,-0.466217,-0.459793,0.658574,-0.370893,-0.001785,0.039312,0.112987
1193,1393448786,-0.463283,-0.462285,0.657561,-0.373261,-0.022603,0.024063,0.125849
1194,1393482120,-0.460328,-0.464984,0.656255,-0.375855,0.034956,0.153379,0.194250
1195,1393515454,-0.457605,-0.467539,0.654869,-0.378417,0.054566,0.188844,0.134176
1196,1393548788,-0.455219,-0.469644,0.653663,-0.380768,0.064044,0.151693,0.166256
1197,1393582122,-0.453230,-0.471254,0.652662,-0.382862,0.069409,0.135686,0.136234
1198,1393615456,-0.451412,-0.472600,0.651827,-0.384769,0.214663,0.102843,0.115373
1199,1393648790,-0.449697,-0.473556,0.651408,-0.386307,0.286892,-0.063897,0.066014
1200,1393682124,-0.448117,-0.473965,0.651526,-0.387440,0.232207,-0.156949,0.089100
1201,1393715458,-0.446905,-0.473910,0.651885,-0.388305,0.194735,0.054059,0.134934
1202,1393748792,-0.446184,-0.473431,0.652319,-0.388988,0.065438,0.249437,0.176739
1203,1393782126,-0.446139,-0.472415,0.652925,-0.389260,-0.100219,0.225863,0.158757
1204,1393815460,-0.446598,-0.471008,0.653632,-0.389251,-0.091110,0.077971,0.172868
1205,1393848794,-0.447304,-0.469390,0.654298,-0.389276,-0.008208,0.024536,0.139032
1206,1393882128,-0.448130,-0.467699,0.654919,-0.389316,0.168058,0.008732,0.087808
1207,1393915462,-0.448970,-0.465907,0.655615,-0.389325,0.158935,-0.018633,0.111948
1208,1393948796,-0.449845,-0.463969,0.656378,-0.389344,0.113200,0.033634,0.142653
1209,1393982130,-0.450940,-0.461728,0.657261,-0.389253,0.125711,0.246572,0.069330
1210,1394015464,-0.452399,-0.458889,0.658578,-0.388690,0.120239,0.153669,0.107589
1211,1394048798,-0.454129,-0.455399,0.660420,-0.387651,0.086615,0.184317,0.102247
1212,1394082132,-0.456057,-0.451381,0.662704,-0.386186,-0.012045,0.154412,0.129711
1213,1394115466,-0.458036,-0.447214,0.665018,-0.384711,-0.070500,0.170550,0.171932
1214,1394148800,-0.460048,-0.443140,0.667152,-0.383326,0.024925,0.154273,0.122123
1215,1394182134,-0.462308,-0.438853,0.669206,-0.381958,0.050934,0.124625,0.139867
1216,1394215468,-0.464553,-0.434496,0.671220,-0.380679,0.142180,-0.035526,0.098448
1217,1394248802,-0.466840,-0.430169,0.673012,-0.379629,0.055628,0.045688,0.100722
1218,1394282136,-0.469028,-0.425972,0.674681,-0.378703,-0.035832,-0.016813,0.116014
1219,1394315470,-0.470993,-0.422156,0.676095,-0.378014,-0.019795,-0.018706,0.066610
1220,1394348804,-0.472749,-0.418612,0.677377,-0.377468,-0.087463,-0.035902,0.045813
1221,1394382138,-0.474206,-0.415248,0.678724,-0.376935,-0.134795,-0.044215,0.091887
1222,1394415472,-0.475554,-0.412210,0.679816,-0.376603,-0.192362,0.076731,0.187937
1223,1394448806,-0.476823,-0.409632,0.680529,-0.376524,-0.199198,0.149890,0.112696
1224,1394482140,-0.478117,-0.407224,0.681084,-0.376491,-0.214331,0.199120,0.110424
1225,1394515474,-0.479383,-0.404944,0.681606,-0.376396,-0.181322,0.140695,0.130934
1226,1394548808,-0.480377,-0.402978,0.682031,-0.376470,-0.128938,-0.031538,0.116033
1227,1394582142,-0.481059,-0.401530,0.682229,-0.376787,-0.086606,-0.034715,0.095597
1228,1394615476,-0.481365,-0.400617,0.682172,-0.377470,-0.053458,-0.169088,0.131964
1229,1394648810,-0.481355,-0.400109,0.681862,-0.378581,0.041033,-0.172665,0.065235
1230,1394682144,-0.481022,-0.399788,0.681716,-0.379604,-0.052202,-0.184722,0.093175
1231,1394715478,-0.480325,-0.399888,0.681478,-0.380808,-0.321575,-0.208785,0.119272
1232,1394748812,-0.479308,-0.400499,0.681015,-0.382271,-0.313897,-0.022852,0.125378
1233,1394782146,-0.478317,-0.401448,0.680323,-0.383747,-0.260240,0.176052,0.127662
1234,1394815480,-0.477476,-0.402640,0.679420,-0.385143,-0.224615,0.089990,0.141281
1235,1394848814,-0.476695,-0.404002,0.678294,-0.386666,-0.137693,0.019725,0.110452
1236,1394882148,-0.476061,-0.405293,0.677225,-0.387968,0.012258,0.027456,0.112965
1237,1394915482,-0.475628,-0.406586,0.676043,-0.389205,0.006035,0.016431,0.135506
1238,1394948816,-0.475277,-0.407716,0.675006,-0.390250,0.051640,0.029676,0.033459
1239,1394982150,-0.474865,-0.408575,0.674315,-0.391047,0.119168,-0.105445,0.147544
1240,1395015484,-0.474381,-0.409456,0.673606,-0.391933,0.079272,-0.023935,0.040698
1241,1395048818,-0.473742,-0.410407,0.672976,-0.392794,0.089941,-0.099262,0.047750
1242,1395082152,-0.472691,-0.411637,0.672329,-0.393880,0.044343,-0.193247,0.063553
1243,1395115486,-0.471185,-0.413200,0.671706,-0.395108,0.023610,-0.035633,0.074174
1244,1395148820,-0.469146,-0.415019,0.671241,-0.396418,0.081350,-0.135029,0.085371
1245,1395182154,-0.466647,-0.416888,0.671210,-0.397454,0.130626,-0.223220,0.051507
1246,1395215488,-0.464073,-0.418918,0.670988,-0.398707,-0.066540,0.016817,0.173886
1247,1395248822,-0.461644,-0.421065,0.670479,-0.400121,-0.131221,0.359058,0.205160
1248,1395282156,-0.459483,-0.423186,0.669828,-0.401458,-0.181976,0.162612,0.126874
1249,1395315490,-0.457460,-0.425512,0.668884,-0.402880,-0.170267,-0.044379,0.088953
1250,1395348824,-0.455416,-0.428302,0.667623,-0.404329,-0.154191,0.131122,0.178205
1251,1395382158,-0.453333,-0.431269,0.666197,-0.405865,-0.307253,0.028313,0.156953
1252,1395415492,-0.451247,-0.434458,0.664462,-0.407629,-0.186326,-0.040718,0.044785
1253,1395448826,-0.448946,-0.437926,0.662633,-0.409432,0.203145,-0.136148,0.002544
1254,1395482160,-0.446304,-0.441679,0.660878,-0.411124,0.185650,-0.409402,0.051991
1255,1395515494,-0.443310,-0.445646,0.659201,-0.412769,0.063453,-0.291758,0.069002
1256,1395548828,-0.440098,-0.449562,0.657789,-0.414210,0.174150,-0.074308,0.096402
1257,1395582162,-0.436888,-0.453318,0.656685,-0.415264,0.103520,-0.082239,0.083799
1258,1395615496,-0.433864,-0.457102,0.655430,-0.416269,-0.078659,-0.097401,0.150564
1259,1395648830,-0.431228,-0.460974,0.653873,-0.417187,-0.229386,0.186987,0.168989
1260,1395682164,-0.428977,-0.464893,0.652156,-0.417845,-0.274284,0.204862,0.142489
1261,1395715498,-0.426985,-0.468812,0.650494,-0.418098,-0.294898,-0.041326,0.103496
1262,1395748832,-0.425224,-0.472717,0.648901,-0.417971,-0.381271,-0.029571,0.043303
1263,1395782166,-0.423530,-0.476846,0.647170,-0.417684,-0.465897,-0.034894,0.206785
1264,1395815500,-0.421840,-0.481213,0.645277,-0.417314,-0.482909,-0.146316,0.129668
1265,1395848834,-0.420356,-0.485681,0.643258,-0.416753,-0.510306,-0.130756,0.059044
1266,1395882168,-0.419136,-0.490210,0.641201,-0.415848,-0.365721,-0.067081,0.122689
1267,1395915502,-0.418209,-0.494711,0.639145,-0.414614,-0.390584,-0.140116,0.155079
1268,1395948836,-0.417803,-0.498774,0.637251,-0.413067,-0.331517,-0.263324,0.036522
1269,1395982170,-0.418227,-0.502073,0.635843,-0.410806,-0.123500,-0.191747,-0.001885
1270,1396015504,-0.419041,-0.505120,0.634739,-0.407937,-0.008702,-0.137122,0.039140
1271,1396048838,-0.420094,-0.508198,0.633851,-0.404397,-0.011779,-0.100291,0.024327
1272,1396082172,-0.421342,-0.511240,0.632932,-0.400687,-0.108631,-0.001400,0.043063
1273,1396115506,-0.422938,-0.514139,0.632068,-0.396640,-0.139178,0.061836,0.095924
1274,1396148840,-0.424545,-0.517194,0.631045,-0.392559,-0.203953,-0.034895,0.008918
1275,1396182174,-0.425867,-0.520557,0.630064,-0.388234,-0.290925,-0.060022,0.070282
1276,1396215508,-0.427257,-0.524210,0.628754,-0.383890,-0.378280,0.070417,0.109548
1277,1396248842,-0.428535,-0.528207,0.626740,-0.380264,-0.209097,0.165273,0.166552
1278,1396282176,-0.430495,-0.532015,0.624399,-0.376574,-0.124253,0.385362,0.146371
1279,1396315510,-0.433307,-0.535121,0.622439,-0.372168,-0.098809,0.546582,0.149842
1280,1396348844,-0.436773,-0.537648,0.620680,-0.367381,0.095377,0.511866,0.149811
1281,1396382178,-0.440626,-0.539676,0.618708,-0.363107,0.170768,0.295824,0.417108
1282,1396415512,-0.444219,-0.542043,0.615512,-0.360626,0.230412,0.075074,0.370429
1283,1396448846,-0.447554,-0.545019,0.611415,-0.358985,0.123375,-0.148586,0.333402
1284,1396482180,-0.450651,-0.548423,0.606998,-0.357418,0.274600,-0.024130,0.293055
1285,1396515514,-0.453337,-0.551946,0.602447,-0.356298,0.407649,-0.014767,0.197384
1286,1396548848,-0.455029,-0.556021,0.597702,-0.355795,0.715450,-0.051396,0.402330
1287,1396582182,-0.456274,-0.560381,0.592187,-0.356582,0.807972,0.002925,0.215937
1288,1396615516,-0.457028,-0.564557,0.587244,-0.357202,0.718237,0.063801,-0.005452
1289,1396648850,-0.456897,-0.568338,0.583471,-0.357557,0.618029,-0.234755,0.005126
1290,1396682184,-0.456031,-0.571808,0.580689,-0.357660,0.598797,-0.422516,-0.061967
1291,1396715518,-0.454293,-0.575167,0.578638,-0.357809,0.315444,-0.505728,-0.179071
1292,1396748852,-0.451698,-0.578583,0.577044,-0.358161,0.036865,-0.241127,-0.078433
1293,1396782186,-0.448706,-0.581987,0.575736,-0.358513,0.025186,0.240312,0.098353
1294,1396815520,-0.445787,-0.584937,0.574647,-0.359100,-0.109750,0.247104,0.077531
1295,1396848854,-0.443206,-0.587419,0.573849,-0.359519,-0.236646,0.052092,0.013182
1296,1396882188,-0.440776,-0.589787,0.572940,-0.360077,-0.159270,0.076373,0.129239
1297,1396915522,-0.438075,-0.592475,0.571477,-0.361285,-0.077575,0.149690,0.059004
1298,1396948856,-0.435406,-0.595022,0.570144,-0.362429,0.054703,0.174408,-0.012558
1299,1396982190,-0.433116,-0.597197,0.569085,-0.363259,0.269747,0.238205,0.138686
1300,1397015524,-0.431202,-0.599000,0.568069,-0.364157,0.270357,0.356713,0.283147
1301,1397048858,-0.429764,-0.600341,0.567374,-0.364731,0.194642,0.549504,0.142869
1302,1397082192,-0.428870,-0.601036,0.567433,-0.364548,0.267575,0.491113,0.191796
1303,1397115526,-0.428969,-0.600855,0.567945,-0.363932,0.186970,0.318011,0.145967
1304,1397148860,-0.429687,-0.600050,0.568753,-0.363150,0.107307,0.247629,0.132268
1305,1397182194,-0.430967,-0.598641,0.570006,-0.361992,0.077796,0.175465,0.078239
1306,1397215528,-0.432658,-0.596561,0.571919,-0.360387,0.125814,0.164878,0.220365
1307,1397248862,-0.434809,-0.593980,0.574126,-0.358549,0.105219,0.156223,0.281223
1308,1397282196,-0.437416,-0.591063,0.576256,-0.356777,0.022703,0.112508,0.220495
1309,1397315530,-0.440343,-0.587970,0.578368,-0.354863,0.056816,0.123270,0.154470
1310,1397348864,-0.443626,-0.584523,0.580893,-0.352337,0.209841,0.136561,0.174720
1311,1397382198,-0.447050,-0.581032,0.583350,-0.349714,0.097574,0.005298,0.141324
1312,1397415532,-0.450520,-0.577629,0.585352,-0.347545,0.179096,-0.078803,0.054316
1313,1397448866,-0.453959,-0.573901,0.587818,-0.345076,0.433856,-0.022806,0.217419
1314,1397482200,-0.457752,-0.569561,0.591198,-0.341462,0.493697,-0.052316,0.148597
1315,1397515534,-0.460750,-0.565600,0.594599,-0.338094,0.321972,-0.292368,-0.034450
1316,1397548868,-0.463512,-0.562014,0.597328,-0.335478,-0.051811,-0.115152,0.088131
1317,1397582202,-0.467191,-0.557937,0.599530,-0.333243,-0.492338,0.310625,0.083984
1318,1397615536,-0.471342,-0.553106,0.602256,-0.330525,-0.477916,0.563274,0.089556
1319,1397648870,-0.475497,-0.548116,0.604922,-0.328010,-0.423777,0.373788,0.210899
1320,1397682204,-0.480476,-0.543088,0.606314,-0.326544,-0.463296,0.151979,0.108665
1321,1397715538,-0.486608,-0.537554,0.607142,-0.325077,-0.223543,0.410940,0.299623
1322,1397748872,-0.493983,-0.531180,0.608407,-0.322052,0.145577,0.576981,0.369138
1323,1397782206,-0.501823,-0.524472,0.609869,-0.318136,0.163662,0.265783,0.172101
1324,1397815540,-0.509579,-0.518001,0.610815,-0.314576,0.164926,0.096360,0.110380
1325,1397848874,-0.517970,-0.510875,0.611841,-0.310506,0.311540,0.173792,0.040065
1326,1397882208,-0.526714,-0.502475,0.614123,-0.304947,0.389111,0.019439,0.040100
1327,1397915542,-0.534372,-0.494019,0.617221,-0.299128,0.255972,-0.656467,0.183998
1328,1397948876,-0.540455,-0.486278,0.620155,-0.294786,0.162772,-0.966938,-0.095339
1329,1397982210,-0.545392,-0.479135,0.623280,-0.290772,0.131571,-0.751301,-0.301530
1330,1398015544,-0.549213,-0.472513,0.626914,-0.286574,0.363679,-0.490282,0.039646
1331,1398048878,-0.552211,-0.466708,0.630280,-0.282917,0.166570,-0.350666,0.113577
1332,1398082212,-0.554529,-0.461419,0.633644,-0.279524,0.109086,-0.083231,-0.098362
1333,1398115546,-0.556386,-0.456119,0.637191,-0.276455,0.181460,0.134238,-0.010756
1334,1398148880,-0.558497,-0.449953,0.641155,-0.273116,0.198712,0.078198,0.238131
1335,1398182214,-0.561110,-0.443042,0.645358,-0.269130,-0.002501,-0.113844,-0.114702
1336,1398215548,-0.563580,-0.436168,0.649413,-0.265418,-0.157242,-0.190716,-0.169079
1337,1398248882,-0.565474,-0.429608,0.653422,-0.262230,-0.173656,-0.225187,0.108307
1338,1398282216,-0.566840,-0.423297,0.657574,-0.259149,-0.161471,-0.275921,0.217717
1339,1398315550,-0.567384,-0.417858,0.661508,-0.256762,-0.265999,-0.228280,0.072692
1340,1398348884,-0.566918,-0.413908,0.664666,-0.256031,-0.502789,-0.401235,0.188261
1341,1398382218,-0.565502,-0.411495,0.667158,-0.256571,-0.115611,0.250346,0.125410
1342,1398415552,-0.562790,-0.410801,0.669379,-0.257857,-0.136544,0.125584,0.202768
1343,1398448886,-0.559447,-0.411391,0.670801,-0.260482,-0.447334,0.178750,0.172140
1344,1398482220,-0.556046,-0.412345,0.671567,-0.264255,-0.240177,0.509672,-0.009529
1345,1398515554,-0.552425,-0.413201,0.672702,-0.267604,0.096650,0.425257,0.189885
1346,1398548888,-0.548563,-0.413948,0.674233,-0.270525,0.147761,-0.011010,0.137307
1347,1398582222,-0.544720,-0.414994,0.675169,-0.274327,0.093776,-0.114250,0.108411
1348,1398615556,-0.541095,-0.415984,0.675865,-0.278261,0.190430,-0.036664,0.131333
1349,1398648890,-0.537411,-0.416560,0.677008,-0.281737,0.225876,-0.083806,0.112321
1350,1398682224,-0.533815,-0.416517,0.678522,-0.284978,0.184330,-0.037741,0.007335
1351,1398715558,-0.530246,-0.416027,0.680316,-0.288061,0.311533,-0.082446,0.021659
1352,1398748892,-0.525907,-0.415545,0.682715,-0.291020,0.500065,-0.504117,0.365397
1353,1398782226,-0.520893,-0.415285,0.685401,-0.294081,0.381440,-0.611553,0.026955
1354,1398815560,-0.515067,-0.415703,0.687590,-0.298607,0.063640,-0.457331,0.221706
1355,1398848894,-0.510251,-0.416066,0.688720,-0.303722,-0.254615,0.680915,0.279329
1356,1398882228,-0.506337,-0.415929,0.689799,-0.307979,-0.168387,1.283843,0.359129
1357,1398915562,-0.503349,-0.415555,0.690392,-0.312029,-0.308936,0.791231,0.526144
1358,1398948896,-0.501348,-0.415053,0.690299,-0.316098,-0.272160,0.452836,0.212324
1359,1398982230,-0.498720,-0.415829,0.689626,-0.320670,-0.094755,-0.213386,0.055188
1360,1399015564,-0.494962,-0.417315,0.688893,-0.326091,0.068162,-0.308246,0.035671
1361,1399048898,-0.490950,-0.418413,0.688500,-0.331535,0.207658,0.085197,0.154587
1362,1399082232,-0.487443,-0.418230,0.688983,-0.335908,0.129663,0.489881,0.173128
1363,1399115566,-0.485285,-0.416714,0.689843,-0.339135,-0.068497,0.703368,0.289388
1364,1399148900,-0.484517,-0.414007,0.690838,-0.341517,-0.404504,0.606468,0.213083
1365,1399182234,-0.484702,-0.410476,0.691938,-0.343284,-0.337644,0.246050,0.122017
1366,1399215568,-0.485726,-0.406198,0.693345,-0.344085,-0.014914,-0.050709,0.046966
1367,1399248902,-0.486961,-0.401415,0.695198,-0.344214,-0.190511,-0.638124,0.033595
1368,1399282236,-0.487863,-0.397473,0.696454,-0.344972,-0.282396,-0.659607,0.055187
1369,1399315570,-0.488396,-0.394679,0.696968,-0.346385,-0.146628,-0.374159,0.040215
1370,1399348904,-0.488945,-0.392018,0.697479,-0.347601,-0.250471,-0.220214,0.050035
1371,1399382238,-0.489579,-0.389414,0.698041,-0.348505,-0.466315,-0.165583,0.092758
1372,1399415572,-0.490068,-0.387449,0.698130,-0.349827,-0.486334,-0.165009,0.085019
1373,1399448906,-0.490316,-0.386385,0.697709,-0.351493,-0.392835,-0.094721,0.053733
1374,1399482240,-0.490186,-0.386039,0.697085,-0.353288,-0.369744,-0.138961,0.107357
1375,1399515574,-0.489721,-0.386194,0.696357,-0.355195,-0.279916,-0.192702,0.014521
1376,1399548908,-0.488455,-0.387291,0.695499,-0.357418,-0.242051,-0.398643,0.115856
1377,1399582242,-0.486352,-0.389541,0.694227,-0.360302,-0.234171,-0.520302,0.123930
1378,1399615576,-0.483607,-0.392949,0.692305,-0.363975,-0.094690,-0.452757,-0.002965
1379,1399648910,-0.480350,-0.396879,0.690273,-0.367863,0.017293,-0.314230,0.031497
1380,1399682244,-0.476821,-0.401016,0.688269,-0.371702,0.014073,-0.128322,0.111820
1381,1399715578,-0.473186,-0.405589,0.686002,-0.375556,-0.064393,-0.117647,0.104075
1382,1399748912,-0.469226,-0.410887,0.683171,-0.379900,-0.015866,-0.466997,0.118716
1383,1399782246,-0.464797,-0.417421,0.679095,-0.385490,-0.041778,-0.469294,0.258054
1384,1399815580,-0.459819,-0.424827,0.674285,-0.391762,0.257154,-0.064572,0.124102
1385,1399848914,-0.455246,-0.431347,0.670210,-0.396935,0.495835,0.062310,-0.022438
1386,1399882248,-0.451605,-0.436676,0.666872,-0.400871,0.381989,0.174369,0.087605
1387,1399915582,-0.448857,-0.440843,0.664228,-0.403777,0.088419,0.255146,0.295274
1388,1399948916,-0.447231,-0.443827,0.662007,-0.405952,-0.111334,0.144249,0.094370
1389,1399982250,-0.446393,-0.446043,0.660071,-0.407596,0.108847,0.027431,0.089640
1390,1400015584,-0.445966,-0.447693,0.658632,-0.408582,0.152999,-0.100227,0.169942
1391,1400048918,-0.445828,-0.448721,0.657674,-0.409145,0.083736,0.019593,0.074376
1392,1400082252,-0.446036,-0.449139,0.657116,-0.409357,0.120992,-0.091295,-0.005873
1393,1400115586,-0.446313,-0.449250,0.656942,-0.409212,0.163900,-0.163208,-0.028264
1394,1400148920,-0.446371,-0.449415,0.657031,-0.408825,0.053761,-0.001315,0.143941
1395,1400182254,-0.446493,-0.449405,0.657443,-0.408040,-0.162442,0.229666,0.138380
1396,1400215588,-0.446973,-0.449259,0.657905,-0.406929,-0.290124,0.288132,0.102906
1397,1400248922,-0.447516,-0.449430,0.658235,-0.405607,-0.313803,0.195163,0.205804
1398,1400282256,-0.447956,-0.449890,0.658402,-0.404339,-0.305767,0.155384,0.248838
1399,1400315590,-0.448654,-0.450382,0.658416,-0.402992,-0.241516,0.261781,0.097137
1400,1400348924,-0.449654,-0.450715,0.658482,-0.401396,-0.107495,0.003622,0.096447
1401,1400382258,-0.450678,-0.451176,0.658513,-0.399675,0.003890,-0.010018,0.085456
1402,1400415592,-0.451525,-0.451703,0.658691,-0.397825,-0.008277,-0.054940,0.121769
1403,1400448926,-0.452442,-0.452042,0.658968,-0.395935,-0.077469,-0.068482,0.073098
1404,1400482260,-0.453337,-0.452399,0.659300,-0.393945,0.082400,-0.058505,0.052895
1405,1400515594,-0.454197,-0.452812,0.659781,-0.391669,0.149367,-0.225088,0.079795
1406,1400548928,-0.454887,-0.453434,0.660224,-0.389393,-0.011583,-0.132035,0.166828
1407,1400582262,-0.455727,-0.453823,0.660768,-0.387029,-0.191111,-0.043422,0.149296
1408,1400615596,-0.456982,-0.453798,0.661376,-0.384533,-0.117472,0.008928,0.114658
1409,1400648930,-0.458543,-0.453560,0.662042,-0.381798,-0.120288,-0.024081,0.206985
1410,1400682264,-0.460426,-0.453205,0.662613,-0.378954,-0.263625,0.040014,0.195479
1411,1400715598,-0.462920,-0.452324,0.663290,-0.375769,-0.306146,0.219144,0.024603
1412,1400748932,-0.465905,-0.450732,0.664495,-0.371845,-0.081656,0.232426,0.104813
1413,1400782266,-0.469166,-0.448923,0.665787,-0.367598,-0.100005,0.125924,0.111178
1414,1400815600,-0.472095,-0.447402,0.667064,-0.363363,-0.083262,-0.088431,0.111119
1415,1400848934,-0.474799,-0.445902,0.668393,-0.359218,-0.020950,-0.081858,-0.033452
1416,1400882268,-0.477456,-0.444217,0.669876,-0.354996,0.028547,0.000427,0.070446
1417,1400915602,-0.480076,-0.442487,0.671248,-0.351010,-0.091414,0.058784,0.202427
1418,1400948936,-0.482597,-0.441133,0.672336,-0.347152,-0.077961,0.144201,0.134073
1419,1400982270,-0.485053,-0.439796,0.673447,-0.343251,-0.030155,0.132072,0.058005
1420,1401015604,-0.487641,-0.438149,0.674738,-0.339129,-0.061312,0.092428,0.133284
1421,1401048938,-0.490187,-0.436570,0.675859,-0.335239,-0.200229,-0.034037,0.187975
1422,1401082272,-0.492034,-0.435760,0.676615,-0.332049,0.015919,0.043137,0.171050
1423,1401115606,-0.493664,-0.435255,0.677298,-0.328885,0.130274,0.028309,0.058795
1424,1401148940,-0.495383,-0.434594,0.677948,-0.325821,-0.090513,-0.006746,0.099837
1425,1401182274,-0.497058,-0.433862,0.678571,-0.322936,-0.184921,0.109488,0.221520
1426,1401215608,-0.498250,-0.433559,0.679185,-0.320203,0.122461,0.206464,0.131942
1427,1401248942,-0.499255,-0.433471,0.679688,-0.317679,0.055113,0.065659,0.120445
1428,1401282276,-0.500258,-0.433674,0.679758,-0.315668,-0.030671,0.024252,0.138560
1429,1401315610,-0.500983,-0.434218,0.679668,-0.313959,0.188621,0.065703,0.113219
1430,1401348944,-0.501364,-0.434800,0.679766,-0.312329,0.252373,-0.030427,0.081496
1431,1401382278,-0.501542,-0.435287,0.680031,-0.310784,0.136578,-0.097431,0.078057
1432,1401415612,-0.501575,-0.435860,0.680174,-0.309613,0.143910,0.033774,0.109168
1433,1401448946,-0.501315,-0.436578,0.680370,-0.308592,0.304196,0.056538,0.142301
1434,1401482280,-0.500875,-0.437191,0.680661,-0.307794,0.258287,-0.098077,0.139920
1435,1401515614,-0.500433,-0.437614,0.680937,-0.307301,0.185400,-0.137139,0.026385
1436,1401548948,-0.499822,-0.438052,0.681231,-0.307020,0.295037,-0.081225,0.147094
1437,1401582282,-0.499008,-0.438644,0.681362,-0.307208,0.285875,-0.069508,0.164519
1438,1401615616,-0.498197,-0.439383,0.681208,-0.307811,0.128780,-0.054714,0.117322
1439,1401648950,-0.497374,-0.440094,0.680937,-0.308723,0.181456,0.053909,0.181447
1440,1401682284,-0.496689,-0.440503,0.680812,-0.309517,0.329507,0.028422,0.132916
1441,1401715618,-0.496141,-0.440651,0.680732,-0.310361,0.192236,-0.069709,0.159348
1442,1401748952,-0.495964,-0.440494,0.680536,-0.311295,0.088644,0.051535,0.144845
1443,1401782286,-0.495957,-0.440093,0.680423,-0.312118,0.239918,0.078260,0.149603
1444,1401815620,-0.495992,-0.439381,0.680535,-0.312822,0.216440,-0.068179,0.127690
1445,1401848954,-0.496160,-0.438269,0.680838,-0.313454,0.124309,-0.158339,0.123899
1446,1401882288,-0.496458,-0.436964,0.681117,-0.314200,0.205503,-0.050814,0.133922
1447,1401915622,-0.496429,-0.435746,0.681526,-0.315049,0.294456,-0.036231,0.176075
1448,1401948956,-0.496640,-0.434267,0.681940,-0.315860,0.175050,-0.050432,0.130687
1449,1401982290,-0.497213,-0.432442,0.682380,-0.316511,0.057597,0.078395,0.075626
1450,1402015624,-0.497692,-0.430504,0.682987,-0.317092,0.083507,0.095129,0.078616
1451,1402048958,-0.498144,-0.428446,0.683717,-0.317595,0.032839,-0.018907,0.070300
1452,1402082292,-0.498374,-0.426512,0.684449,-0.318259,0.078591,-0.106464,0.203448
1453,1402115626,-0.498054,-0.424763,0.685341,-0.319178,0.198862,-0.134774,0.200301
1454,1402148960,-0.498010,-0.422889,0.686016,-0.320286,0.204434,0.086135,0.148666
1455,1402182294,-0.498677,-0.420654,0.686434,-0.321292,0.079226,0.274430,0.107896
1456,1402215628,-0.499733,-0.418037,0.686790,-0.322306,-0.118840,0.297790,0.243223
1457,1402248962,-0.501062,-0.415234,0.686908,-0.323610,-0.067168,0.280328,0.214369
1458,1402282296,-0.502411,-0.412460,0.686974,-0.324925,0.121986,0.129624,0.136082
1459,1402315630,-0.503684,-0.409721,0.686994,-0.326373,0.255296,0.044914,0.061073
1460,1402348964,-0.504855,-0.406733,0.687221,-0.327819,0.050749,-0.095655,0.089385
1461,1402382298,-0.505883,-0.403934,0.687311,-0.329504,-0.000309,0.070892,0.090516
1462,1402415632,-0.506506,-0.401435,0.687479,-0.331246,0.073735,0.095918,0.089615
1463,1402448966,-0.507022,-0.398920,0.687713,-0.333003,0.029612,0.041510,0.151421
1464,1402482300,-0.507820,-0.395960,0.688154,-0.334406,0.094744,0.203444,0.032020
1465,1402515634,-0.509016,-0.392040,0.689257,-0.334934,0.143905,0.226999,0.072206
1466,1402548968,-0.511012,-0.387034,0.690728,-0.334688,-0.075468,0.220270,0.148872
1467,1402582302,-0.513483,-0.381383,0.692401,-0.333934,-0.089093,0.165804,0.098405
