SampleTimeFine,D_Upper_Arm_Acc_X,D_Upper_Arm_Acc_Y,D_Upper_Arm_Acc_Z,L_Wrist_Acc_X,L_Wrist_Acc_Y,L_Wrist_Acc_Z,R_Wrist_Acc_X,R_Wrist_Acc_Y,R_Wrist_Acc_Z,Activity
2627119870,0.075781,0.08921,-0.108141,0.041411,0.543713,0.146344,0.111723,-0.263306,0.172816,0
2627153204,0.195838,-0.283908,0.250588,0.13457,0.504194,0.205434,-0.231461,-0.616033,0.760653,0
2627186538,-0.018804,0.024399,0.181168,0.37172,0.309027,0.490958,-1.453152,-1.374368,2.24803,0
2627219872,-0.172134,-1.734587,0.126382,0.410323,0.229719,0.689965,-3.359861,-1.47673,4.568687,0
2627253206,-0.203741,-1.606784,0.564633,0.600232,-0.102528,1.074426,-4.701887,-0.606719,7.24205,0
2627286540,0.164416,-0.689164,1.520789,0.762691,-0.375072,1.412678,-5.61588,-4.116881,11.068624,0
2627319874,1.185296,0.967476,1.532364,0.907652,-0.808926,1.30544,-4.649413,-0.816716,9.66362,0
2627353208,2.038403,1.68413,0.695035,1.277908,-1.267556,1.650367,-2.461205,0.435764,8.94376,0
2627386542,2.112955,1.753061,2.107833,1.441511,-1.081246,2.439912,1.164176,-1.065745,3.579652,0
2627419876,2.347836,2.325042,1.1428,0.991447,-0.431495,2.514635,-0.253557,1.358691,-2.583918,0
2627453210,1.731946,1.706607,0.753456,1.048755,0.061538,2.795626,-0.022071,0.203666,-4.357748,0
2627486544,1.096607,1.911331,0.798492,0.956222,0.063003,3.579296,-0.23937,-0.868247,-5.077198,0
2627519878,0.059902,1.570732,0.293945,0.760144,0.446561,2.685339,0.182012,-2.129077,-5.065826,0
2627553212,-0.448659,1.702815,-0.524938,0.728721,1.443596,2.532116,-1.177278,-2.315478,-5.753894,0
2627586546,-1.164989,1.042286,-0.592455,0.613414,1.518944,2.496865,-1.403659,-1.374545,-5.111005,0
2627619880,-1.927759,-0.138817,-0.926541,0.632594,1.549082,2.785587,-0.237512,-0.344538,-5.008726,0
2627653214,-2.199593,-0.289279,-0.762774,1.086028,1.819346,2.074688,0.960919,1.265725,-5.815893,0
2627686548,-1.690793,-1.194203,-1.169869,1.224306,0.768902,2.746728,4.429871,2.048373,-5.282671,0
2627719882,-0.370027,-2.171056,-2.726211,1.001682,-0.189371,2.18124,7.876573,2.239727,-2.59456,0
2627753216,-0.015822,-3.226252,-2.88497,0.49122,-0.640337,1.090408,10.193353,1.462718,-2.265846,0
2627786550,-0.0354,-3.68259,-3.101648,0.064027,-1.063786,0.222153,11.423354,0.02033,-1.686176,0
2627819884,-0.717898,-1.827682,-2.191379,1.313715,-1.477713,-1.344039,9.303817,1.894392,-1.078878,0
2627853218,-0.828535,-1.698226,-2.089636,1.845913,-1.897296,-1.805402,5.980871,1.208534,-1.472337,0
2627886552,-0.780634,-0.066098,-0.510014,2.253135,-2.257032,-2.338281,3.459623,1.723723,-1.700449,0
2627919886,-0.353656,0.330466,-0.417108,3.128569,-1.340763,-3.397901,-0.489716,1.270734,-1.536325,0
2627953220,0.068143,0.079358,0.271548,1.588433,-0.366651,-4.528698,-3.295114,0.104716,-0.480901,0
2627986554,0.303714,1.02271,1.130894,-0.858801,0.661787,-4.924903,-5.931961,-0.049704,0.19969,0
2628019888,1.718604,1.654849,1.186341,-2.734066,1.080708,-6.145212,-7.299631,-1.916067,1.651041,0
2628053222,1.455039,1.849618,2.266377,-4.206141,0.6559,-6.807779,-9.658391,-2.139147,2.625737,0
2628086556,1.295937,0.999754,2.130008,-6.959186,-0.208192,-6.173357,-9.332311,-2.889982,2.217229,0
2628119890,0.996442,1.107053,1.505517,-8.534031,-0.713251,-4.849057,-7.826419,-2.037801,0.526702,0
2628153224,0.91577,1.509587,0.506617,-6.163176,-1.823401,-5.190239,-5.843808,-1.637996,-1.255482,0
2628186558,0.613675,1.793826,0.012401,-4.282826,-1.765643,-4.809988,-4.047656,-0.316655,-1.887855,0
2628219892,0.490763,1.040167,-0.414656,-2.978796,-1.67207,-3.226501,-1.73168,-0.091936,-3.17893,0
2628253226,0.34896,0.843293,-1.101381,-1.449433,-0.655313,-1.640172,0.88562,0.985851,-4.122941,0
2628286560,0.235099,0.389965,-2.018495,0.836858,0.011454,-0.67065,5.749279,1.288139,-3.081439,0
2628319894,0.395459,-1.636451,-3.507428,2.714243,0.514122,0.836095,10.052618,-0.368324,-1.345772,0
2628353228,-0.465651,-2.826448,-3.449005,4.449665,1.042232,1.69303,12.9969,-4.455172,-0.882525,0
2628386562,-1.053322,-2.192216,-3.00497,5.071911,1.219797,2.50371,11.204956,-2.273109,0.529807,0
2628419896,-1.066125,-0.566256,-1.776716,6.522955,1.860059,2.97976,8.965898,0.1221,1.280716,0
2628453230,-0.984994,-0.387169,-1.003278,6.844874,2.144629,2.477024,5.481486,-1.583947,-0.469286,0
2628486564,0.581125,0.643077,0.274722,6.728001,2.3743,-0.350234,1.0919,1.251192,-1.456038,0
2628519898,1.022681,0.9372,-0.080721,4.710193,2.56645,-2.676618,-3.475006,1.624671,-0.772106,0
2628553232,1.252884,0.477208,0.399294,0.506673,3.567735,-2.727002,-7.868228,1.22048,-1.250566,0
2628586566,0.954504,1.451268,1.660057,-3.594975,2.238621,-1.995518,-12.027985,1.148013,-1.001764,0
2628619900,1.1511,0.414895,1.634452,-7.322905,-0.305707,-0.80994,-11.970945,0.697307,-1.192325,0
2628653234,1.017827,0.658654,1.821544,-8.157191,-1.946637,0.925961,-9.616126,0.97466,-1.730684,0
2628686568,1.018202,1.2432,1.628983,-8.734796,-4.815392,2.447285,-7.205256,1.466208,-2.661976,0
2628719902,1.171889,1.747561,0.990038,-6.015073,-4.569863,1.584999,-3.180449,1.700803,-2.860665,0
2628753236,0.833121,2.383597,0.729203,-4.259908,-4.475797,1.125355,1.891364,2.230382,-0.787078,0
2628786570,-0.121475,0.08834,-0.884775,-2.618332,-3.113347,1.177827,7.044869,0.475765,2.479655,0
2628819904,-0.953352,-1.907901,-1.315586,-0.531711,-0.850803,1.623632,9.141513,-1.094999,4.140237,0
2628853238,-1.868873,-3.216124,-1.263898,2.111687,0.768879,1.044944,10.071206,-4.271875,5.672827,0
2628886572,-2.629694,-2.797513,-1.002378,4.403194,1.297595,1.094786,8.002096,-3.981823,6.523829,0
2628919906,-2.204189,-1.95267,-0.161881,6.079396,1.781426,0.802213,8.094821,-4.542925,3.355147,0
2628953240,-1.924007,-0.150772,-0.732649,6.6948,1.85331,-0.244117,6.512001,-3.013577,4.208673,0
2628986574,-0.37799,-0.061866,-0.156463,6.363421,1.787273,-1.955885,2.591237,-0.276176,3.214703,0
2629019908,-0.342431,0.358574,0.868734,4.811604,2.423693,-3.004052,-0.647623,-0.65601,0.357614,0
2629053242,1.209108,2.080997,1.015337,2.251196,2.429523,-4.53065,-3.049911,-0.108089,-3.265584,0
2629086576,1.197373,2.247887,0.212956,-0.647838,1.967686,-2.05962,-4.860559,0.29536,-4.134848,0
2629119910,1.295008,0.33295,0.171004,-3.311628,0.876905,-0.582106,-6.368452,1.178188,-5.39338,0
2629153244,0.915369,1.025494,0.519827,-5.462909,-0.093728,2.259582,-7.131195,1.6761,-4.183849,0
2629186578,0.601021,1.451232,1.332584,-6.833657,-2.307185,6.036687,-8.040559,2.533676,-4.356669,0
2629219912,1.014802,0.722962,1.75416,-6.062051,-4.062887,7.179691,-5.955852,2.547734,-3.168313,0
2629253246,1.184947,0.15415,0.609951,-3.71976,-4.206758,5.481915,-3.270068,2.133305,-2.227802,0
2629286580,1.671487,1.927726,0.064407,-1.731102,-2.689113,2.949481,-1.320086,2.049121,-0.91058,0
2629319914,0.744749,1.060436,-0.552618,-0.374293,-1.576669,2.427485,1.00292,1.191579,1.320198,0
2629353248,-0.203882,0.598788,-0.432833,0.652559,-0.552662,1.597841,4.085469,-0.538674,2.508697,0
2629386582,-0.592342,-0.279811,1.066976,1.384785,-0.737828,0.697054,4.636158,-0.782068,4.063294,0
2629419916,-1.155925,-1.992958,0.430282,2.396893,0.263697,0.16886,4.201267,-2.905246,5.86969,0
2629453250,-1.564618,-2.364293,0.178419,3.059147,0.696616,-1.261857,3.903859,-3.453967,3.277627,0
2629486584,-1.266916,-2.194803,-0.733383,3.439049,1.114961,-1.876856,3.863689,-5.162327,2.324245,0
2629519918,-1.23169,-1.186252,-1.293676,3.431246,1.407061,-2.668134,2.861583,-3.169604,2.040471,0
2629553252,-1.227904,-0.815132,-1.134338,3.120642,1.133737,-3.336705,0.487348,-0.919595,2.512873,0
2629586586,-0.13685,-0.466131,0.21328,2.642791,1.144374,-3.81773,1.057963,-1.273694,2.447755,0
2629619920,0.394814,0.149026,0.216565,2.377191,1.404501,-3.080333,0.508636,-0.734651,1.602655,0
2629653254,0.656534,1.055781,-0.734299,0.294506,0.582322,-5.01062,-0.78644,0.444674,0.357246,0
2629686588,0.896918,1.054377,-0.352562,-0.602807,1.312576,-5.096485,-0.841677,0.249906,-1.634079,0
2629719922,0.921641,1.531967,-0.608859,-1.220005,1.702921,-1.355423,-1.23476,0.972154,-3.486951,0
2629753256,0.552322,1.596431,-1.393842,-1.879145,0.655246,-0.098598,-3.723442,1.760084,-3.222916,0
2629786590,0.666414,0.153807,-1.546273,-3.054282,0.336491,2.196165,-3.390637,1.767531,-4.034029,0
2629819924,0.589772,-0.080343,-1.125798,-3.498625,-1.236705,4.825468,-3.914973,2.347852,-4.974472,0
2629853258,0.513059,0.5498,-1.02249,-3.122516,-2.887367,5.491299,-2.988997,1.7166,-4.877605,0
2629886592,0.590742,0.81492,-0.905512,-2.290297,-2.66328,5.918835,-2.402577,1.873665,-4.943128,0
2629919926,0.22699,1.297976,-0.371611,-2.046309,-1.643651,5.387836,-1.813308,2.038543,-3.738542,0
2629953260,0.436882,0.561703,0.57101,-1.651457,-1.240545,3.760527,-0.534038,2.013108,-1.570462,0
2629986594,-0.206403,0.872714,0.763947,0.134637,0.578361,2.061838,1.550314,1.608994,1.092465,0
2630019928,-0.016957,0.199961,1.666712,1.450271,0.68849,0.064496,3.715881,1.035038,3.986824,0
2630053262,-0.614307,-1.748007,1.982685,3.132731,0.874478,-1.206682,5.076339,-1.966756,6.561705,0
2630086596,-1.154503,-2.802014,1.614584,4.097155,0.926896,-2.682213,6.30255,-6.229053,5.558973,0
2630119930,-1.849884,-1.805801,0.986329,4.065154,0.533865,-3.316399,5.365887,-4.601145,5.357069,0
2630153264,-1.776874,-1.230953,1.199717,3.477571,0.54014,-4.145662,2.528346,-1.266736,5.229779,0
2630186598,-0.602867,-1.001224,0.862989,2.522171,0.014109,-4.475445,1.162466,-0.600106,3.653783,0
2630219932,0.502087,0.240184,0.424201,1.682616,0.092633,-4.413499,0.322329,0.330097,0.655719,0
2630253266,0.887477,0.952209,0.479675,0.41988,0.617725,-3.572121,-0.845278,0.849575,-1.871225,0
2630286600,0.880105,1.596342,-0.480392,-1.308366,0.301198,-4.008439,-1.782291,0.39789,-3.280651,0
2630319934,0.262322,2.081474,-0.939803,-2.031789,0.667761,-0.644463,-4.16147,1.270252,-3.454422,0
2630353268,0.658969,1.222514,-1.185958,-3.0729,0.281248,2.113847,-4.681342,1.544932,-4.075756,0
2630386602,0.727053,0.71735,-0.822087,-4.030601,-0.536921,4.646875,-5.297781,2.147171,-4.290949,0
2630419936,0.684814,0.410622,-1.400861,-3.036934,-1.906657,6.387142,-5.322133,2.552214,-3.395191,0
2630453270,0.66778,0.074943,-1.793333,-1.914032,-1.387411,4.820916,-4.128401,2.57502,-2.449689,0
2630486604,0.433588,0.571446,-1.374786,-1.087529,-1.237454,5.253724,-1.706886,1.957836,-0.935493,0
2630519938,0.4378,0.695003,-0.493942,-1.281263,0.550571,4.933492,0.48215,1.503546,0.48086,0
2630553272,0.282007,0.342774,0.629555,-0.553765,1.260018,4.499565,3.037968,-0.038148,2.306292,0
2630586606,-0.315832,-0.71016,2.000039,0.836423,1.654906,3.680824,3.907418,-2.054168,4.731288,0
2630619940,-0.500363,-1.256049,2.901911,1.911914,1.647462,1.796957,5.562159,-4.685039,3.185473,0
2630653274,-1.329015,-0.429357,2.463338,3.345581,0.522386,0.025189,6.013037,-7.957825,3.091895,0
2630686608,-2.051147,-0.306427,2.378198,3.734479,-0.326131,-0.52911,4.274548,-3.878944,3.60568,0
2630719942,-1.456694,-0.41314,2.878465,3.043643,-1.076017,-1.871677,1.539935,-0.99677,4.662037,0
2630753276,-1.071861,-0.656976,2.664744,2.624125,-1.596106,-1.973188,0.851034,-0.02764,5.356523,0
2630786610,-0.309752,-1.511505,2.399778,1.603702,-1.66057,-1.983978,0.995826,-0.656695,5.145364,0
2630819944,-0.166864,-0.714488,1.713433,1.005135,-1.551769,-2.084822,-0.693669,0.594661,5.027117,0
2630853278,0.20209,0.852258,1.624188,0.637352,-0.787074,-2.593888,-0.467712,0.501854,3.739774,0
2630886612,-0.035867,1.585409,1.701077,-0.273053,0.529868,-3.982262,-2.400767,1.834671,2.251564,0
2630919946,0.625858,0.792839,1.321905,-1.192559,0.778332,0.158918,-1.646894,0.717652,1.334139,0
2630953280,1.305986,-0.114264,1.1518,-2.588365,1.297894,-1.505247,-1.19252,0.569738,-0.6026,0
2630986614,0.898612,0.360009,0.768038,-3.743623,1.293483,2.412257,-1.27195,0.141596,-1.256291,0
2631019948,0.742631,1.222065,0.762525,-3.720918,0.755202,5.485601,-2.42587,0.479974,-2.743841,0
2631053282,0.859524,1.065741,0.40858,-2.630561,-0.019865,5.406253,-3.541266,0.843474,-2.958682,0
2631086616,0.749592,0.857952,-0.060895,-1.88662,-1.388679,4.459151,-3.199274,0.723249,-3.026034,0
2631119950,0.729465,1.048993,0.238277,-1.058394,-1.764776,4.4471,-2.908694,0.653917,-3.575885,0
2631153284,0.472945,1.282476,0.485423,-1.044792,-0.988753,4.392797,-2.79962,0.76178,-3.813052,0
2631186618,0.189713,1.616909,0.557447,-0.812914,-0.515035,3.872316,-2.136794,1.510233,-3.775379,0
2631219952,0.096702,0.963345,0.451302,-0.294123,-0.132443,2.818054,-0.099849,2.042729,-1.467221,0
2631253286,-0.186693,0.637004,0.281884,0.231375,0.586759,0.885354,2.874214,1.189392,0.256518,0
2631286620,-0.261088,-0.852673,0.568533,1.254684,0.281901,0.92273,6.566571,-0.351621,0.696321,0
2631319954,-1.163647,-1.977152,-0.385261,1.466955,0.655115,0.246232,6.572245,-2.352673,3.761685,0
2631353288,-1.447266,-1.917092,-0.020494,1.82638,0.144215,-0.092426,5.112972,-3.032876,4.211391,0
2631386622,-1.616271,-2.811332,0.127862,2.025867,0.733906,-1.272587,3.972693,-2.576555,3.44381,0
2631419956,-1.318498,-1.486589,0.369216,2.228099,0.59451,-0.940509,3.272494,-2.066329,3.427424,0
2631453290,-1.169117,-0.974466,0.750196,2.071118,0.549659,-2.446972,2.286901,-0.77668,2.999796,0
2631486624,-0.355326,-0.98497,0.402279,1.917571,0.39665,-3.296811,1.524724,-1.777882,3.248558,0
2631519958,-0.034358,0.285416,0.623356,1.666797,-0.191548,-2.754902,0.563899,0.071756,2.001094,0
2631553292,-0.077597,0.415681,0.215117,1.174328,0.145021,-3.511381,-0.677907,-0.261075,0.691653,0
2631586626,0.253415,1.328972,-0.155466,0.694359,0.368601,-3.922151,-1.963201,0.373822,0.07185,0
2631619960,0.504192,0.506346,-0.409996,-0.710433,0.226013,-2.418711,-3.13263,0.086018,-1.112233,0
2631653294,0.78369,0.669269,-0.435274,-2.010611,0.026042,-0.583808,-4.036949,0.338334,-2.053038,0
2631686628,0.756094,0.88023,-0.643925,-2.801266,-0.350711,0.481121,-4.852554,1.07148,-2.006344,0
2631719962,0.816081,0.522448,-1.463655,-3.012988,-1.109233,2.292035,-4.080607,1.070108,-2.895101,0
2631753296,0.643103,0.348585,-1.350935,-2.678171,-1.642886,3.147961,-3.100614,1.116455,-3.117666,0
2631786630,0.656302,0.519983,-1.440151,-1.930915,-1.86643,2.704666,-2.395158,1.347712,-3.151015,0
2631819964,0.814182,0.808147,-1.779387,-0.618763,-1.621263,1.78974,-1.507629,1.225254,-3.704412,0
2631853298,0.552323,0.806928,-1.361797,-0.173264,-1.062663,2.083419,-0.820656,0.863943,-4.074138,0
2631886632,0.249389,0.999227,-0.949338,0.327191,-0.532238,1.282504,0.07712,0.396011,-3.132558,0
2631919966,0.09885,0.911632,-0.73909,0.692447,-0.126689,1.097973,0.535707,0.814552,-2.211285,0
2631953300,0.253343,0.22085,-0.806605,1.093637,-0.218145,1.008703,3.367922,-0.231222,-2.115907,0
2631986634,-0.247944,-0.219676,-0.673727,1.49842,0.282222,0.374737,4.949559,-1.565999,-0.300434,0
2632019968,-0.549588,-1.010341,-0.995749,1.863957,0.609051,-0.678248,4.447462,-2.166416,2.738131,0
2632053302,-0.698928,-2.054094,-0.848396,2.644953,1.034515,-1.375109,4.999558,-3.249053,3.678714,0
2632086636,-1.207514,-1.744344,-0.008093,3.103257,1.62926,-2.118502,5.424115,-3.331019,4.908519,0
2632119970,-1.081638,-1.375529,0.14109,2.831505,1.638347,-1.974411,4.959582,-1.795225,4.947487,0
2632153304,-0.841806,-0.210366,0.454384,2.66698,0.899482,-4.717717,3.498107,-0.621923,4.644491,0
2632186638,-0.219349,0.670284,0.378477,2.738326,1.29176,-4.706351,1.600331,1.001923,2.775679,0
2632219972,0.316821,0.341955,0.520939,1.336595,1.659134,-2.762919,-1.360764,1.537034,1.27714,0
2632253306,0.711852,0.273032,0.585919,-0.316638,1.249273,-2.438593,-3.47186,1.666876,0.355734,0
2632286640,1.033194,0.350744,1.057032,-2.835273,0.168251,0.530233,-6.287151,1.722473,-1.242605,0
2632319974,1.348148,0.873431,0.418189,-4.760528,-0.923219,3.576671,-7.555295,1.696179,-1.848833,0
2632353308,1.514493,0.764068,0.251692,-5.723801,-3.363658,5.695436,-7.454699,1.705735,-2.45507,0
2632386642,1.414904,0.543431,-0.050125,-3.366458,-3.29599,4.053004,-6.369689,1.369004,-3.193168,0
2632419976,1.212341,0.545293,-0.293357,-1.311767,-2.326691,3.451992,-4.973166,0.602577,-3.94493,0
2632453310,0.494927,0.813217,0.044375,-0.936642,-1.701805,2.596548,-3.353794,-0.111336,-3.516742,0
2632486644,0.440247,0.861684,-0.048823,-0.31261,-1.133101,2.852442,-1.802052,-0.069731,-3.612395,0
2632519978,0.425242,0.773384,-0.349507,0.102139,-0.169177,1.812751,0.15944,-0.520892,-3.87805,0
2632553312,0.084845,0.721993,-0.72117,0.427719,0.021944,1.46911,2.44388,0.196232,-2.319518,0
2632586646,-0.208837,-0.083288,-1.111661,0.179328,0.354291,0.76729,4.856848,-0.296951,0.093774,0
2632619980,-0.119885,-0.857505,-1.340127,0.594445,0.472966,-0.499194,6.907064,-2.230327,0.593849,0
2632653314,-0.81025,-1.725583,-1.898443,0.952425,0.71138,-0.914481,7.647943,-2.491062,3.956687,0
2632686648,-1.33842,-2.023587,-1.349512,1.78673,0.794937,-1.468823,6.522404,-1.713991,4.241619,0
2675720842,-2.241841,0.696372,-0.808991,-4.36112,-0.33213,0.099779,0.218125,-1.661914,-6.708946,0
2675754176,-2.102136,0.301535,-1.561592,-3.898876,-0.08355,-2.029517,1.486918,0.191108,-6.945834,0
2675787510,-1.72156,-2.503124,-2.390241,-3.920141,0.322292,-2.848113,1.45351,0.784826,-6.819418,0
2675820844,-0.150491,-2.103422,-2.693414,-2.748495,0.065347,-3.558371,1.393789,0.935608,-6.221411,0
2675854178,-0.30429,-0.229618,-2.102932,-2.759294,-0.019777,-2.829036,1.795318,2.010016,-4.496187,0
2675887512,0.577068,-0.576599,-1.861811,-1.843159,0.735366,-2.202301,1.788204,2.075097,-2.893646,0
2675920846,0.144272,-0.235129,-1.361088,-1.211499,0.449383,-1.998211,0.787384,2.220709,-2.484612,0
2675954180,-0.224558,-0.635839,-1.031505,-0.390969,0.551776,-1.432943,3.043728,1.372125,-0.765692,0
2675987514,0.539915,-1.392564,-1.508837,-0.405592,0.361128,-1.362685,2.548492,1.992172,0.068259,0
2676020848,0.172062,-1.401451,-1.240429,0.342594,-0.56636,-1.511279,4.698929,1.073584,-0.513482,0
2676054182,0.170658,-1.617677,-1.61428,0.668245,-0.063172,-0.866248,6.127025,0.042273,-1.438689,0
2676087516,0.042464,-0.947197,-1.700218,2.065383,-0.250854,-1.241467,4.263917,-0.309361,0.100731,0
2676120850,-0.351124,0.232273,-0.323736,3.440678,-1.087759,-1.383797,3.408633,1.008597,0.101961,0
2676154184,0.320797,-0.259299,-0.679995,3.012762,-0.967925,-0.797757,3.10523,0.668604,-0.915187,0
2676187518,-0.041668,-0.410215,-0.319396,4.992517,-0.788756,-0.852572,1.718167,-0.835078,-0.723734,0
2676220852,-0.115911,0.596575,0.047873,4.949104,-0.733687,-0.990204,0.442611,-0.181141,-0.179862,0
2676254186,0.539535,0.740389,0.221493,4.020052,0.07247,-1.289344,-0.021056,-1.089705,0.471385,0
2676287520,0.785277,1.619338,1.43102,3.521412,0.336043,-2.189209,-3.618007,-2.61553,1.693607,0
2676320854,0.950438,1.936745,2.662132,2.037631,0.518916,-3.02721,-6.099631,-2.886437,1.666694,0
2676354188,0.887716,1.391761,3.082885,-0.478597,0.539967,-3.856135,-9.155709,-3.299175,3.294939,0
2676387522,0.995792,0.878268,2.927154,-2.877728,0.685601,-4.531508,-8.329547,-3.136969,4.568317,0
2676420856,0.154035,0.738861,2.25917,-5.69428,1.888249,-3.031527,-7.589762,-1.453909,3.350164,0
2676454190,0.00158,0.164705,0.885012,-11.0477,-1.736126,-4.748555,-5.642311,-0.58353,1.882135,0
2676487524,-0.016972,0.26497,-0.05805,-11.677047,-1.183787,-1.585228,-3.898791,0.600483,0.387729,0
2676520858,0.060137,0.54058,-0.183104,-7.749017,-1.145697,-0.029046,-1.769372,1.166971,-1.896381,0
2676554192,0.436093,0.383871,-1.06155,-4.120636,-1.927093,1.000589,-0.339118,1.70463,-4.155423,0
2676587526,1.174001,-0.214208,-2.445628,-2.000802,-0.535492,1.774673,5.307696,0.771889,-4.654959,0
2676620860,0.519078,-1.379586,-2.987906,0.141995,0.172632,2.057769,7.613241,1.078014,-3.591323,0
2676654194,1.251928,-1.961025,-3.856924,1.829413,0.15668,2.711455,9.36743,-0.940011,-3.865842,0
2676687528,0.697643,-1.381957,-3.680243,3.361839,0.823545,2.420771,8.911951,-0.194257,-4.464129,0
2676720862,-0.122428,-1.512728,-3.054871,4.776363,0.501443,1.974578,7.124765,0.716018,-4.496294,0
2676754196,0.251555,-0.346541,-2.184003,6.262475,0.157496,1.699192,6.009775,0.794807,-4.349648,0
2676787530,-0.066371,-0.444106,-1.826018,6.95362,-0.051921,1.170062,2.651356,-0.156551,-3.552968,0
2676820864,-0.671977,-0.061154,-1.03381,6.621623,-0.060108,-0.357313,-0.73244,0.282825,-1.661995,0
2676854198,-1.030781,0.852653,-0.452409,5.676043,-0.04769,-2.412841,-2.950677,0.827913,-1.646573,0
2676887532,0.360629,0.319223,0.461136,4.339237,0.91164,-3.993526,-6.113577,0.450879,1.578506,0
2676920866,0.24666,0.387863,1.494002,2.359403,0.733365,-4.680191,-8.673728,-0.206028,3.643093,0
2676954200,0.587554,0.126007,4.020912,1.41634,0.889744,-5.770348,-9.569563,-0.829403,4.582733,0
2676987534,1.013811,1.07686,3.713013,-0.767574,0.15782,-6.140992,-9.236955,-1.279793,4.649051,0
2677020868,0.89808,1.822526,2.910131,-5.956476,0.064339,-3.181039,-6.993414,-1.002327,3.234594,0
2677054202,0.628782,1.344092,1.098755,-10.290931,-2.733708,-3.749785,-3.984461,-1.163969,1.530128,0
2677087536,-0.062958,1.862678,1.310589,-12.710186,-3.273576,2.013009,-2.93048,0.329536,0.168723,0
2677120870,-0.194714,0.789007,-0.096718,-9.96311,-4.390611,5.355268,1.64394,0.422445,0.170587,0
2677154204,-0.283354,0.617708,-0.384383,-5.507755,-2.05105,5.815609,1.998462,0.235926,-2.03602,0
2677187538,-1.120416,-0.157557,-0.284429,-1.820565,0.249715,5.657841,6.625967,0.308285,-2.66976,0
2677220872,-0.74481,-2.883027,-3.188402,0.976736,1.958153,4.6489,8.364231,-1.169599,-0.687449,0
2677254206,-1.450544,-1.891969,-2.683645,4.325305,2.883593,3.203168,10.458719,-1.364357,1.514964,0
2677287540,-1.057049,-2.410884,-3.716639,6.053689,2.834177,0.737895,12.557237,-3.07822,1.37461,0
2677320874,-1.67046,-1.462036,-2.972952,6.431264,2.355254,-1.118664,9.260427,-0.383279,0.076363,0
2677354208,-1.581011,0.034327,-2.057738,7.412254,1.06774,-3.531334,5.846438,-0.291237,-1.263659,0
2677387542,-0.989616,0.913772,-1.727216,6.873316,-0.036585,-4.763933,1.740783,0.053171,-2.869702,0
2677420876,0.234295,0.31853,-1.539353,5.67897,-0.421734,-6.062923,-1.911716,-0.144941,-2.450919,0
2677454210,0.757289,0.277043,-0.373581,4.393505,0.424621,-5.74578,-5.590198,-0.5891,-2.450265,0
2677487544,0.913722,2.247066,1.294526,2.381265,0.581063,-4.630463,-8.25215,0.119769,-1.176007,0
2677520878,1.167176,1.580992,1.69181,1.519802,1.255259,-4.595893,-9.100464,0.21593,-0.549341,0
2677554212,1.491841,0.067031,2.048048,-3.846561,1.294023,-1.233324,-9.102761,0.352158,-0.413024,0
2677587546,1.064099,0.150794,2.004372,-10.639589,-1.711234,3.930087,-7.450848,0.60191,-0.501723,0
2677620880,1.329579,0.812753,2.35573,-12.650057,-3.026268,9.166542,-6.126832,0.712499,-0.554843,0
2677654214,1.00045,1.382709,1.395583,-9.786485,-5.184673,8.166693,-4.251514,0.845354,-1.086415,0
2677687548,1.493208,1.908369,0.030437,-6.235929,-4.551123,7.261494,-3.031106,0.669956,-2.506923,0
2677720882,0.612925,2.51986,1.210017,-4.554859,-2.227847,5.992878,-0.694118,0.28466,-0.993037,0
2677754216,-0.449756,0.960518,1.025074,-1.55008,-0.293634,4.349658,2.758481,1.803086,-0.971056,0
2677787550,-0.995402,-1.042693,-0.162812,2.295715,1.700397,1.902779,8.634125,-0.73794,0.082719,0
2677820884,-1.428673,-0.997771,-0.808256,3.850773,1.399448,0.457257,8.093925,-0.356934,5.495637,0
2677854218,-2.23669,-3.98446,-1.512174,5.367244,2.199806,-1.329954,9.343531,-4.391306,5.977612,0
2677887552,-2.681398,-3.560184,-0.698136,6.863719,1.829827,-3.171232,7.727742,-3.341052,6.902302,0
2677920886,-2.598282,-3.093456,-0.741741,6.615744,1.262667,-4.392409,7.53348,-2.63627,7.594725,0
2677954220,-2.749691,-3.227629,-0.402866,6.142523,0.750267,-5.584135,6.490872,-1.73637,6.921986,0
2677987554,-0.983453,-0.679196,0.396283,4.838786,0.174368,-6.527413,4.56257,0.936476,4.205275,0
2678020888,-0.585494,1.932516,0.399723,3.163886,0.087039,-6.290841,1.33088,2.157343,1.863316,0
2678054222,1.09884,2.107907,-0.128733,2.022492,0.153436,-4.616191,-1.914628,2.118997,0.612856,0
2678087556,1.223364,0.562561,-0.506222,0.583079,-0.135798,-5.40983,-3.962214,0.760395,-4.108273,0
2678120890,2.202884,1.189131,-0.629045,-2.018533,0.320593,-1.163877,-7.476558,0.91486,-6.768489,0
2678154224,1.835536,2.241365,-0.887582,-4.295705,1.258873,0.205364,-9.947348,0.596965,-6.67731,0
2678187558,2.251063,1.128458,0.229615,-6.369949,0.539505,2.47049,-10.086196,-0.140359,-8.543448,0
2678220892,2.274318,1.075982,0.702712,-6.482167,-0.698794,4.886702,-8.428235,-0.160843,-8.712951,0
2678254226,1.640129,1.961947,0.016369,-5.853558,-2.777845,8.658367,-6.170453,0.66339,-8.061636,0
2678287560,1.628668,2.041295,-0.630952,-4.781686,-3.116988,6.838614,-3.485365,1.083647,-6.681372,0
2678320894,0.165589,1.287195,-1.348274,-3.133652,-1.169639,4.997624,-0.905276,1.126706,-5.567388,0
2678354228,-0.207155,3.547165,-1.143827,-1.515509,0.242189,3.852536,1.41752,3.874336,-3.140434,0
2678387562,0.292275,1.575894,0.199857,-0.527517,1.355249,2.303818,5.605761,3.136,2.693796,0
2678420896,-0.478459,-1.146079,-0.620904,1.06277,1.23167,0.494783,7.305634,1.762358,7.131346,0
2678454230,-1.03142,-2.505163,0.084362,2.526252,1.67662,-0.858478,6.927513,-2.035692,10.902096,0
2678487564,-2.788934,-5.479232,0.549411,3.108376,1.596569,-2.640531,4.110192,-8.377495,8.798342,0
2678520898,-4.116166,-4.869479,0.601997,3.512366,0.709141,-3.547421,4.813167,-5.119551,4.581601,0
2678554232,-2.267435,-2.107668,2.648926,3.638223,0.447635,-3.833625,4.171685,-1.515022,4.715764,0
2678587566,-1.386425,-1.203197,1.579104,2.961695,-0.220154,-4.825494,2.689435,-0.405326,5.228866,0
2678620900,-0.610247,-1.187962,0.818079,2.549558,-0.604677,-4.822099,2.537235,-1.056248,4.4199,0
2678654234,-0.178514,-0.76863,0.75983,1.408152,-0.316965,-4.420098,1.339319,0.484078,2.423672,0
2678687568,-0.219243,0.972367,0.487005,0.400285,-0.934943,-1.914737,-0.527061,2.208171,-1.081277,0
2678720902,-0.724477,2.549116,-0.402072,-0.397267,-0.911191,0.577294,-2.488616,1.890731,-3.135809,0
2678754236,0.353439,1.657749,-0.594249,-1.367723,-0.798324,2.415321,-15.714709,8.302273,-8.735647,0
2678787570,1.833929,0.130328,-0.185146,-1.313363,-2.36456,4.155771,1.967475,-4.452263,4.261898,0
2678820904,2.675598,0.841516,0.650473,-1.288215,-2.56717,4.627618,-2.847205,3.67151,-7.991823,0
2678854238,2.384996,2.62957,-0.275534,-1.519084,-3.146425,4.426477,-4.429485,3.139078,-4.564402,0
2678887572,0.947482,1.941856,-2.036925,-0.912103,-1.626104,4.267464,-2.840139,1.291949,-3.529408,0
2678920906,0.956841,2.030618,-1.536649,-2.029972,-0.997474,3.239852,-2.979567,-0.992887,-0.871697,0
2678954240,0.407019,1.491934,-0.13732,-1.15538,0.772293,3.66798,-1.170724,-0.497444,-0.495775,0
2678987574,0.523061,0.63917,0.719845,-0.754897,1.294489,3.458256,0.558636,-1.426314,1.512997,0
2679020908,-0.488245,0.283795,0.305286,0.353318,2.043765,2.635586,0.43339,-3.222602,4.520764,0
2679054242,-0.522256,-1.884162,1.263326,0.759343,2.473251,1.709359,1.754356,-6.411857,4.192659,0
2679087576,-1.15095,-1.002891,2.44967,0.94565,2.41956,0.325419,2.06154,-5.047443,2.908686,0
2679120910,-1.45029,0.325284,2.242639,1.915014,2.487817,-1.78299,2.953719,-3.210688,2.029868,0
2679154244,-0.570793,-0.291073,1.799847,1.915689,1.83681,-0.216822,2.655299,-0.813004,1.331536,0
2679187578,-0.652037,-0.845819,1.311471,1.636097,0.32776,-1.284127,1.910191,-0.234364,1.721234,0
2679220912,-0.765692,-0.647747,0.791702,1.581342,-1.019445,-0.28136,1.492017,-0.51324,1.966591,0
2679254246,-0.622396,-0.738535,0.965512,0.795056,-0.990065,-0.702428,1.071514,-0.523857,2.528804,0
2679287580,0.038932,-1.075322,0.952743,1.117309,-1.272262,-0.417663,1.244833,-0.078836,2.641105,0
2679320914,0.006564,-0.714359,1.087482,0.697652,-1.151576,-0.958167,0.565118,0.677445,3.079658,0
2679354248,-0.203033,-0.302131,0.693318,0.605209,-1.275387,-0.839778,-0.384462,1.920428,2.344425,0
2679387582,-0.5411,-0.141396,0.681312,0.037553,-0.91974,-2.700919,-1.22581,1.966526,1.767816,0
2679420916,-0.300919,-0.383029,0.324318,0.032747,-0.112297,-3.398082,-0.722756,2.55496,0.918357,0
2679454250,0.067758,-0.419619,-0.016041,-0.187063,0.701142,-3.499262,-1.46248,2.678156,0.828629,0
2679487584,0.037768,-0.115535,0.267001,-2.279532,1.337545,-2.681275,-1.979316,2.251024,-0.145274,0
2679520918,0.509684,0.679901,0.384382,-4.77422,0.269093,-0.717506,-1.303501,1.255323,-1.547372,0
2679554252,1.660643,1.138153,0.448466,-2.672675,-0.410885,7.727833,-1.803241,0.775073,-3.1464,0
2679587586,1.549753,1.632837,-0.442756,-1.408017,-0.567238,8.050735,-2.874078,0.389128,-4.802536,0
2679620920,1.940141,1.55647,-0.251818,-1.562161,-0.656747,6.337603,-4.718156,-0.223214,-3.354099,0
2679654254,1.7961,2.941773,-0.366069,-0.322922,-0.566339,5.98316,-4.682917,-0.822077,-4.76119,0
2679687588,0.992459,4.157934,-0.060536,-0.130908,0.874653,4.681976,-3.023066,-0.150478,-6.359905,0
2679720922,0.027788,3.307128,0.131023,0.572347,1.483492,2.988147,-1.651531,0.631253,-3.687192,0
2679754256,-0.35617,1.462209,0.041975,2.053721,1.266728,2.522788,1.167051,0.312903,0.033038,0
2679787590,-0.581033,0.697133,0.432788,1.686036,0.467643,2.457464,4.277592,-0.664943,5.26713,0
2679820924,-0.701246,-3.115996,0.618091,1.717926,-0.767872,2.019832,5.118739,-4.595707,9.076321,0
2679854258,-1.988685,-5.780138,1.16194,1.393693,-0.211376,-0.700289,4.228269,-7.888995,5.073995,0
2679887592,-3.145153,-2.681908,1.009586,1.038859,-0.930304,-1.996698,7.149443,-6.111541,1.975662,0
2679920926,-2.585268,-0.657032,1.49857,0.963993,-1.330387,-3.298777,5.826313,-1.077049,2.952627,0
2679954260,-1.557659,-0.833771,0.953124,1.016569,-1.393155,-4.959471,1.058819,3.466173,4.493167,0
2679987594,0.242853,-2.244309,0.468121,1.10842,-1.873793,-4.852614,-0.360231,3.660957,4.044127,0
2680020928,0.295973,-2.262893,0.911469,1.154914,-1.23775,-5.522515,0.869249,-0.383483,5.064677,0
2680054262,-0.28729,0.300489,1.370664,1.415499,-0.474396,-5.068666,0.442621,1.778607,3.550638,0
2680087596,-0.442003,1.594727,0.990954,1.04502,-0.233735,-4.636629,-1.260203,3.181812,2.249268,0
2680120930,-0.21832,0.445106,0.541952,0.238837,0.777528,-3.518365,0.479012,0.68042,1.001982,0
2680154264,0.260857,-0.113665,1.027443,-1.738879,1.174636,-2.342669,-0.779729,1.369876,-1.641122,0
2680187598,0.612322,0.210703,0.596104,-3.321386,2.280177,0.29406,-2.402002,2.338699,-2.487645,0
2680220932,1.018756,0.348649,0.265684,-3.737405,-0.241416,7.078362,-4.452677,2.20726,-4.084293,0
2680254266,1.25191,0.669248,0.108323,-2.669129,-1.165247,9.011971,-4.654417,1.346152,-4.868297,0
2680287600,1.337087,0.996715,-0.779422,-1.961602,-1.868877,5.980804,-5.638467,1.593996,-5.323811,0
2680320934,1.753,1.409452,-0.698275,-1.357189,-1.605291,5.432377,-4.874393,0.665129,-5.831393,0
2680354268,1.128346,2.116634,-0.267467,-1.235092,0.153083,4.740508,-5.253249,0.363906,-5.127308,0
2680387602,0.769939,2.401677,-0.014984,-0.919452,-0.083816,3.954464,-3.919803,-0.289467,-4.923287,0
2680420936,0.374246,2.526268,0.455408,-0.285456,0.651828,3.535297,-2.188453,0.242653,-3.67336,0
2680454270,-0.111006,1.668548,-0.217227,0.337901,1.298987,2.759171,1.278711,1.198174,-1.441257,0
2680487604,-0.350998,1.386012,0.15826,1.367273,1.255212,0.993942,5.752017,0.297797,3.011736,0
2680520938,-0.562203,-1.875694,-0.295391,2.461494,1.465232,0.277719,9.421983,-1.104065,5.229853,0
2680554272,-2.402149,-4.372755,-1.037734,2.516239,1.76878,-0.774418,10.153147,-10.097467,6.321272,0
2680587606,-4.165265,-4.088196,-2.054377,2.338921,1.298173,-1.88625,6.804002,-7.772717,4.663023,0
2680620940,-2.620563,-3.089409,-1.182781,2.251833,0.952462,-2.712118,5.20758,-0.752726,5.677488,0
2680654274,-1.156853,-1.978192,0.312922,1.972183,0.145872,-3.647973,6.015207,0.42904,6.252275,0
2680687608,-1.287756,-1.421473,1.5957,2.141802,-0.225012,-3.795089,5.254105,0.229039,5.033943,0
2680720942,-0.535016,0.168008,1.071598,2.504958,-0.013524,-4.5733,3.405944,1.147928,2.100373,0
2680754276,0.598286,0.724074,0.022938,2.083424,-0.570742,-4.81105,-0.812604,1.354858,1.1277,0
2680787610,1.174384,2.447451,0.626256,1.568916,-0.267568,-5.023065,-2.99764,1.703272,-0.19111,0
2680820944,1.043181,2.906735,-0.641929,-0.085641,-0.016398,-4.26915,-5.830021,2.062528,-1.095612,0
2680854278,1.540103,1.671511,0.278376,-1.508401,0.640255,-3.505889,-5.957273,1.404707,-3.453658,0
2680887612,1.651712,-0.338054,1.027515,-4.111679,-0.772473,1.761744,-6.185505,0.817245,-4.434275,0
2680920946,0.924917,-0.369416,0.084394,-5.70645,-1.859267,4.534299,-7.361375,1.165341,-3.607529,0
2680954280,1.030052,0.927842,-1.007548,-6.477539,-4.016521,6.018811,-7.357335,0.972101,-4.680993,0
2680987614,0.89176,0.683436,-0.78266,-4.757231,-3.31289,5.077551,-7.007987,0.866307,-5.021147,0
2681020948,0.52127,1.003618,-0.578369,-2.442386,-2.309626,4.408939,-5.707598,0.992191,-3.869813,0
2681054282,0.385538,1.0493,0.495812,-1.267531,-0.86433,4.773327,-4.54568,0.83844,-3.720669,0
2681087616,-0.047605,0.970855,0.700801,-0.218036,-0.003603,4.615154,-1.682196,0.265566,-4.603511,0
2681120950,-0.284215,1.213764,0.117112,0.343441,1.36032,5.537847,3.232314,1.757292,-2.498547,0
2681154284,-0.393521,-0.195862,-1.17387,1.227422,1.647553,3.641866,5.022635,0.865,2.072612,0
2681187618,-0.718382,-0.641685,-1.375756,1.668413,1.844403,1.379314,9.11056,-0.654549,4.606763,0
2681220952,-0.813269,-3.364588,-2.398185,1.367924,1.898129,-0.481213,9.360955,-2.308216,5.192764,0
2681254286,-1.617418,-3.329788,-1.09624,1.829888,1.773941,-2.940562,9.211684,-3.776163,4.964821,0
2720888412,0.209116,-1.085971,1.454814,1.846859,-0.326712,2.94119,-6.850541,-4.671249,13.197342,0
2720921746,0.814183,0.747582,1.790248,1.665571,-0.324323,2.875793,-6.287511,-0.853997,13.488733,0
2720955080,1.359026,1.879522,1.713885,1.570951,-0.338594,3.093264,-2.001357,0.865257,12.101885,0
2720988414,2.253326,2.753822,2.121192,1.651123,-0.908459,3.220327,4.588747,0.300472,7.167994,0
2721021748,1.894602,2.161425,2.522071,1.173094,-1.322299,3.601421,4.042785,2.123595,-2.221016,0
2721055082,1.023734,2.157083,2.582565,0.224616,-0.337682,3.18952,2.684676,0.157495,-5.576245,0
2721088416,0.229558,2.273071,1.459455,-0.261131,0.044511,4.382748,1.739512,-0.985021,-5.694091,0
2721121750,-1.595784,1.57897,1.373706,-1.025699,0.344501,4.032201,-0.110417,-2.970667,-6.830528,0
2721155084,-2.188368,0.902269,0.048472,-1.080411,1.338224,3.803941,-1.709008,-3.283383,-6.110806,0
2721188418,-1.956344,0.068697,-1.232603,-1.68728,1.394666,3.405873,-2.335069,-1.852947,-4.732799,0
2721221752,-1.739458,-0.992326,-1.471837,-0.962916,1.477368,1.827492,-1.090015,-0.885523,-5.265057,0
2721255086,-1.667921,-1.632994,-1.625628,-0.947446,0.733427,1.19538,-0.310672,0.91715,-4.973424,0
2721288420,-1.128584,-1.302795,-2.287089,-0.542348,0.122845,-0.146753,1.989214,2.023402,-5.175447,0
2721321754,-0.674315,-0.813005,-2.486406,-0.155754,-0.062543,-1.874887,2.781891,3.726727,-5.707972,0
2721355088,0.744558,-1.22792,-3.415887,-0.313372,-0.768287,-2.928335,5.153579,3.389246,-5.724554,0
2721388422,1.688994,-2.117155,-3.684501,0.488781,-1.289403,-3.516981,7.432282,3.154219,-4.235298,0
2721421756,1.608006,-2.347744,-4.152645,1.529499,-1.689749,-4.14453,7.66164,1.275723,-5.055219,0
2721455090,1.688306,-2.785414,-3.717328,2.424702,-1.243124,-3.323045,8.135885,-0.083838,-5.473443,0
2721488424,0.384128,-1.215329,-2.644384,3.419502,-0.668654,-2.963098,6.352581,1.569472,-4.151209,0
2721521758,-0.356297,0.315385,-1.574118,3.102569,-0.325222,-3.00466,4.22659,1.920395,-1.761187,0
2721555092,0.288116,0.3941,-0.485529,2.623711,-0.05439,-3.392252,0.83964,1.238984,-0.98969,0
2721588426,0.428268,-0.201639,0.08193,2.13725,0.758367,-4.36814,-2.125453,-1.09223,0.857284,0
2721621760,-0.28244,0.642943,1.671589,1.73854,1.992725,-5.513857,-4.274179,-0.759679,2.52661,0
2721655094,0.170129,1.793983,2.456595,-4.360314,-0.093715,-6.716827,-5.251473,-1.741297,3.771931,0
2721688428,0.432574,1.965484,3.250754,-4.988106,0.651842,-4.365941,-7.866416,-2.894747,4.402184,0
2721721762,0.411616,0.568356,3.152411,-4.63547,-0.214527,-3.884371,-8.582867,-3.451876,4.537247,0
2721755096,0.308963,0.302533,2.823277,-5.960588,-1.213714,-3.307461,-7.170647,-3.00479,3.47051,0
2721788430,0.221398,1.119464,1.615744,-6.924155,-1.938921,-2.144198,-6.375801,-2.240173,1.708585,0
2721821764,0.597156,1.474347,0.44755,-5.658047,-1.593493,-0.707139,-4.889518,-1.670853,-0.169755,0
2721855098,0.554535,1.791986,-0.648947,-3.701518,-1.616653,0.123336,-3.200385,-0.650033,-1.12292,0
2721888432,0.099751,1.143596,-1.604567,-2.663194,-0.063406,0.277042,-1.711865,-0.093203,-2.28439,0
2721921766,-0.7087,0.489743,-1.134585,-0.420659,0.153311,0.286231,-0.114602,1.197904,-3.74993,0
2721955100,0.116969,-0.442624,-1.59503,1.399932,0.333825,1.097279,3.028785,2.180571,-3.926999,0
2721988434,1.512218,-1.039531,-3.26598,2.555936,0.530964,1.240218,6.785552,1.301737,-2.96112,0
2722021768,0.444907,-2.03722,-2.333549,3.587696,0.074943,1.913019,8.905169,0.284124,-2.288398,0
2722055102,0.805988,-2.62429,-2.804737,4.379668,-0.683445,2.496328,11.253204,-2.6282,-1.858734,0
2722088436,0.644686,-2.041329,-2.932161,4.904459,-0.81051,2.411513,12.919345,-2.609705,-0.933127,0
2722121770,-1.230663,-0.44683,-0.886237,4.672613,-0.712767,1.637771,9.530229,-0.928651,-0.156568,0
2722155104,-1.165264,0.922251,-0.31128,5.083946,-0.839243,0.587765,4.489212,1.424119,0.048493,0
2722188438,0.069115,0.482279,-0.284302,5.007004,-0.613555,-0.289028,0.534288,1.235682,0.063568,0
2722221772,0.107153,-0.096139,-0.035968,4.103146,0.024403,-2.260959,-2.463665,1.061241,0.354931,0
2722255106,0.865721,0.43312,0.40729,2.978556,0.693436,-3.600772,-5.069699,0.109899,0.628043,0
2722288440,0.10986,1.88611,1.095128,2.274511,2.469789,-3.714062,-6.235411,-0.062502,0.97334,0
2722321774,0.320212,1.453046,1.242931,-3.121331,2.782377,-2.739321,-7.2124,-0.660338,1.611825,0
2722355108,-0.565852,-0.941157,1.753531,-7.97509,2.003619,-0.55119,-8.100744,-1.78755,1.096675,0
2722388442,0.360793,-1.277486,1.548984,-11.041565,0.538717,1.42291,-9.047797,-1.871309,0.818616,0
2722421776,0.586618,0.384129,1.572764,-9.623243,-2.186291,1.533331,-8.334691,-1.154699,-0.453457,0
2722455110,0.817009,1.406048,0.95196,-6.774051,-2.057094,2.047117,-7.377306,-0.430896,-0.958015,0
2722488444,0.62903,0.841025,0.661827,-4.824695,-1.919215,1.867019,-6.227031,-0.145409,-1.475709,0
2722521778,-0.10766,1.322225,1.545973,-2.99816,-1.268849,2.389112,-4.016937,-0.230366,-1.945176,0
2722555112,-0.005912,0.90452,0.341628,-0.259219,-0.436194,2.223968,-1.610066,0.918661,-1.776313,0
2722588446,-0.203236,1.68153,0.503036,1.999371,-0.290875,1.576155,1.261383,2.275693,-1.881219,0
2722621780,-0.056767,-0.06837,-0.442689,3.024404,0.130491,1.164968,5.947161,3.260258,-0.733733,0
2722655114,-0.270351,-1.052659,-1.407348,3.924984,0.110029,0.396902,10.532268,0.195608,1.026683,0
2722688448,0.035402,-3.031845,-2.904138,4.272726,0.591294,0.201144,12.042987,-0.441361,4.888431,0
2722721782,-0.529696,-3.820434,-3.405189,4.75069,0.586203,-0.843235,11.118868,-4.29116,3.273841,0
2722755116,-0.836487,-3.043714,-3.174355,5.400225,-0.347457,-1.612477,11.041245,-2.707927,1.708094,0
2722788450,-1.564299,-1.912842,-2.38318,5.519337,-0.580502,-2.112787,11.003115,-0.479529,2.477216,0
2722821784,-1.189748,-1.476373,-1.961026,6.105753,-0.56162,-3.20454,12.651203,0.766772,1.768498,0
2722855118,-1.581538,-0.236814,-0.139728,4.296621,0.709805,-3.269757,7.686659,2.888036,-1.509695,0
2722888452,-1.657997,0.746675,-0.287977,2.72165,2.126411,-4.060057,1.578103,2.817077,-2.357711,0
2722921786,-0.608345,0.277248,1.014353,0.741928,2.468762,-5.835781,-2.562484,1.75966,-2.681809,0
2722955120,-0.522622,1.806816,0.73576,-4.296444,2.667513,-3.999221,-7.755024,-1.050329,-2.577403,0
2722988454,1.265849,2.798903,1.266676,-9.681849,1.716063,-0.441957,-11.194055,-1.93145,-2.514029,0
2723021788,1.179208,1.087881,1.655484,-13.502892,-0.935797,3.743129,-11.957324,-3.531124,-2.813978,0
2723055122,3.63533,-0.217612,1.670738,-12.960618,-4.455316,6.132951,-12.937587,-1.196399,-2.809019,0
2723088456,2.018275,1.106639,1.969614,-9.523914,-4.3736,6.619543,-11.740304,-1.297484,-4.005358,0
2723121790,2.807358,1.953323,0.980709,-7.403261,-3.950331,5.723792,-8.88299,-1.860992,-4.963243,0
2723155124,2.483816,2.686888,2.181775,-2.558524,-1.909717,4.115228,-8.182702,-0.302675,-6.308473,0
2723188458,1.508017,2.296813,0.186777,2.540439,0.022454,1.706143,-3.632934,1.328091,-5.708363,0
2723221792,0.553636,2.891253,-1.087588,5.204837,0.897309,0.904593,1.742959,2.290582,-3.086403,0
2723255126,0.114612,1.090455,-1.289145,7.977355,0.558192,-1.835154,4.517073,4.132405,0.891916,0
2723288460,-1.253898,0.897533,0.36592,9.136936,1.099605,-2.336519,8.609567,2.380289,6.571566,0
2723321794,-1.956846,-2.30047,-0.512102,8.894319,1.590228,-2.861815,10.98289,-1.041311,12.602823,0
2723355128,-2.835078,-6.412446,-1.625769,7.764653,1.201418,-4.075427,8.666239,-5.960019,13.777576,0
2723388462,-3.678366,-5.150795,-0.66403,6.002501,1.328386,-4.972775,8.439197,-7.099036,8.793877,0
2723421796,-2.681268,-2.282915,0.200398,2.717057,1.41601,-4.274023,5.265443,0.143416,6.944824,0
2723455130,-1.570672,-0.02307,0.87088,0.353649,1.050913,-5.246557,3.115864,0.402209,3.992794,0
2723488464,0.350738,1.191,1.225821,-1.658516,0.986789,-2.931046,0.293319,0.72338,-1.007259,0
2723521798,1.157606,1.717034,0.89251,-3.559901,1.008464,1.055571,-3.262328,0.052901,-4.16756,0
2723555132,1.893215,1.927575,0.545536,-4.894879,-0.277847,0.901409,-5.758093,0.009247,-6.279395,0
2723588466,1.962321,2.528202,-0.342123,-5.675125,-1.613925,5.343844,-6.480505,0.435361,-7.239446,0
2723621800,1.685951,2.242386,-1.075781,-4.482095,-1.48876,3.994111,-5.970452,0.722612,-6.306221,0
2723655134,1.245695,1.779655,-1.287166,-3.739698,-2.366989,5.737673,-5.676829,1.263366,-4.96719,0
2723688468,1.274689,1.042974,-1.202228,-2.957225,-1.370135,5.353938,-4.017404,1.11416,-4.828929,0
2723721802,0.379512,1.182022,-1.548651,-2.303475,-1.422358,4.881735,-1.567167,0.917638,-2.980945,0
2723755136,-0.148363,1.553594,-1.393435,-1.105639,-1.349966,4.579146,-0.21955,1.822289,-0.096703,0
2723788470,-0.06395,0.09574,-0.313915,-0.376207,-1.331396,2.386042,2.510874,0.919412,1.918169,0
2723821804,-0.994978,-1.141283,0.622847,1.363932,0.128462,0.71659,4.381927,-0.510095,3.992368,0
2723855138,-1.871077,-2.971636,1.746226,2.735343,1.020575,-0.894649,5.285169,-2.59051,6.487026,0
2723888472,-2.106154,-3.541025,1.446615,3.183536,1.116446,-2.300983,5.219219,-3.763338,6.827049,0
2723921806,-2.153544,-3.223168,1.140371,3.497116,1.308499,-3.244421,5.247382,-2.900994,6.356298,0
2723955140,-1.650467,-2.670647,1.138193,2.838088,0.886938,-4.470838,4.587719,-0.982691,6.21512,0
2723988474,-1.220052,-1.991877,0.573886,2.256664,0.720029,-5.016498,3.752828,0.312803,5.975039,0
2724021808,-0.431324,-1.107075,1.117443,1.302315,0.825022,-4.83883,2.5941,1.915054,3.018698,0
2724055142,0.236896,0.261372,1.138198,0.359017,1.035082,-4.144897,0.031468,2.385343,-0.302018,0
2724088476,0.247529,1.613781,1.211866,-0.893041,0.471188,-1.909274,-2.691951,2.342878,-2.928317,0
2724121810,1.137778,1.344133,0.528712,-2.20511,-0.15391,-0.64909,-2.805313,1.453896,-5.448891,0
2724155144,1.82736,0.868564,-0.059193,-2.350682,-0.425028,2.506691,-5.104916,1.05307,-6.642385,0
2724188478,1.621262,1.4748,-0.848805,-2.784979,-1.940806,5.33549,-1.024984,2.012362,-3.479232,0
2724221812,1.350028,1.899565,-0.256855,-2.670875,-2.360977,6.29109,-2.497359,0.036692,-7.025297,0
2724255146,0.684734,1.76791,-0.767883,-2.082976,-2.566324,6.006255,-2.008369,-0.499867,-4.48859,0
2724288480,-0.303609,2.507068,-1.545485,-1.453585,-2.104578,4.635668,-2.841001,-0.713284,-4.25098,0
2724321814,-0.62918,2.997514,-0.382716,-1.232251,-1.272862,3.271762,-0.917002,-0.65207,-2.054336,0
2724355148,-1.391609,2.261389,0.601323,-0.673437,0.5199,2.729825,0.08957,0.996849,0.832041,0
2724388482,-0.836069,0.098497,1.028213,0.653412,0.950007,2.144398,0.495259,0.275294,5.724575,0
2724421816,-0.329912,-1.720198,1.640226,0.916315,1.314748,0.386901,2.01142,-1.009102,8.642302,0
2724455150,-0.16462,-3.749866,2.895531,1.671907,1.659254,-0.352968,3.963647,-5.039341,9.441069,0
2724488484,-0.609709,-3.716071,4.265307,2.822126,2.356106,-1.041727,3.459568,-3.683336,7.033077,0
2724521818,-1.592775,-0.483536,4.425833,3.426006,2.573199,-2.075387,2.177918,-2.064855,5.933206,0
2724555152,-0.952786,-0.002727,3.699313,3.529459,1.954784,-1.197002,-0.833768,0.204866,5.752108,0
2724588486,0.973862,-2.081331,1.762389,2.247586,1.656383,-0.756282,-0.673189,0.443152,5.938613,0
2724621820,1.281756,-2.82744,1.089945,1.950394,1.25452,1.425085,0.648846,1.122121,4.839608,0
2724655154,-0.386581,-0.500979,1.444523,0.543277,0.846891,3.485844,0.368086,1.115485,3.711507,0
2724688488,-0.683707,1.632734,1.178491,-3.631697,-0.15079,2.956519,-1.404501,1.588661,2.147632,0
2724721822,-0.390668,1.60716,0.819877,-1.478689,-3.716084,6.894876,-1.166321,1.004638,-0.85087,0
2724755156,1.005496,1.099001,0.356882,-1.742047,-5.717943,3.165582,-0.489684,-0.344116,-3.041652,0
2724788490,2.074742,0.797541,-0.558753,-0.722869,-5.133155,2.63582,-0.962007,0.043766,-5.77902,0
2724821824,1.229353,1.02431,-1.137882,-1.500961,-3.456944,2.467361,-1.352398,-1.897372,-6.455605,0
2724855158,0.645904,3.171587,-2.495488,-2.029453,-2.626176,2.205625,-3.653464,-2.895194,-5.433712,0
2724888492,0.525449,3.322666,-1.536853,-1.775981,-2.882818,2.796208,-4.493142,-2.513148,-7.397569,0
2724921826,0.701128,3.828653,-1.07088,-2.350238,-1.771141,2.39978,-4.386901,-0.938439,-6.286142,0
2724955160,0.138039,2.466256,-0.037178,-2.119508,-0.50345,3.336131,-2.931617,0.63977,-3.792499,0
2724988494,0.031625,0.714449,0.675564,-1.210721,2.567991,1.231947,-0.809208,2.259148,-0.506313,0
2725021828,-0.142039,-0.721636,0.044405,0.086681,2.723679,0.459289,2.057306,2.278443,4.354269,0
2725055162,-0.477449,-2.758441,0.233983,1.287782,3.074049,-1.477043,4.196346,0.412392,7.780876,0
2725088496,-0.731711,-4.922081,0.478072,2.136926,2.352349,-3.336987,4.8702,-2.750693,6.638321,0
2725121830,-1.72448,-3.790923,0.424135,3.362246,2.11329,-5.236958,6.310802,-3.271489,2.737397,0
2725155164,-2.135799,-2.081439,0.84048,3.719533,1.753678,-6.066862,5.403581,-1.174929,2.488616,0
2725188498,-1.685225,-2.029203,-0.17393,3.404975,1.1302,-7.083595,2.996058,1.10889,3.83567,0
2725221832,-0.372634,-2.554328,-0.900121,3.303407,0.239018,-7.499466,3.90934,-0.274136,4.287539,0
2725255166,-0.156104,-1.35122,-0.150876,0.990051,-0.385858,-6.74037,4.218734,0.707554,3.552426,0
2725288500,-1.208299,0.943345,0.828363,1.433307,1.549597,-2.304233,1.783285,1.382731,2.268238,0
2725321834,-0.728831,1.46831,0.314024,-0.802378,1.174264,0.237233,0.261728,1.081026,1.238045,0
2725355168,0.427713,0.739032,-0.013666,-2.498591,-0.152327,3.234277,-1.659005,0.547306,-1.054565,0
2725388502,1.109892,1.110407,0.120399,-3.355476,0.328731,4.760453,-4.231362,0.420737,-2.360914,0
2725421836,1.576292,1.760753,0.822358,-3.893453,-2.17701,6.789104,-6.130235,0.458757,-4.131582,0
2725455170,2.405509,1.217396,0.129227,-3.804415,-3.188231,5.904474,-7.516299,0.372881,-4.51398,0
2725488504,2.584709,1.866952,0.033992,-2.620394,-2.830006,5.731012,-7.866977,0.323168,-4.096324,0
2725521838,1.648685,2.093387,0.425147,-2.164525,-1.809076,4.916572,-6.660281,-0.920638,-6.184253,0
2725555172,0.634466,2.143553,1.036966,-1.812206,-1.383278,4.237495,-6.057367,-0.113876,-6.000984,0
2725588506,0.161072,0.959392,0.818905,-1.604668,-0.194682,3.5153,-3.035117,-0.547681,-3.939136,0
2725621840,-0.70954,1.088955,0.238345,-0.475158,0.36016,2.898908,-0.555245,1.064837,-2.319235,0
2725655174,-1.117667,1.126791,0.273537,0.665957,0.681146,1.524161,2.251176,2.257365,-0.220832,0
2725688508,-0.872544,-0.673118,-0.55214,1.70421,1.342846,0.402941,5.666079,1.724391,3.521631,0
2725721842,-0.603613,-2.686831,-1.1917,2.482658,1.645157,-0.717411,7.703479,0.61484,4.151414,0
2725755176,-1.005037,-4.00339,-1.71726,2.908499,1.427475,-2.069574,9.204783,-3.924819,3.830333,0
2725788510,-1.560272,-3.673131,-2.271125,3.168157,1.25034,-2.64501,8.013633,-4.994992,4.220937,0
2725821844,-1.817015,-2.230186,-1.561409,2.963125,0.803025,-3.345025,4.822329,-0.506116,4.625204,0
2725855178,-1.210311,-0.902186,-0.78669,2.723852,0.333596,-3.584599,4.64297,1.224773,4.42779,0
2725888512,-0.991778,-1.029359,-0.181397,2.68536,-0.024695,-3.892969,4.113743,0.507958,3.071398,0
2725921846,-0.307417,-0.441663,0.407078,2.877592,-0.764485,-5.329138,1.970753,1.872046,2.677044,0
2725955180,0.084981,0.138873,0.608129,2.281844,-0.459176,-5.447529,-1.056795,1.937546,1.410917,0
2725988514,1.029326,1.078708,0.605819,1.553278,0.440392,-4.364624,-2.612285,1.264169,0.345963,0
2726021848,1.006953,1.609737,0.85112,0.245121,1.041215,-3.0975,-3.574741,1.087651,-0.579715,0
2726055182,1.172222,0.886969,0.684022,-3.277776,0.468195,-0.208442,-3.314962,0.432963,-1.492076,0
2726088516,1.001427,0.822142,0.17902,-4.460125,0.024677,0.60559,-3.73782,0.178004,-2.029079,0
2726121850,0.522317,0.862486,-0.468299,-6.239015,-1.535493,2.790438,-4.43694,-0.689955,-3.634056,0
2726155184,0.469428,1.133216,-0.954371,-6.165164,-2.259391,3.304525,-4.882386,-1.199406,-4.978194,0
2726188518,0.719321,0.944855,-0.82453,-4.714797,-2.433583,2.786707,-5.35003,-1.22854,-4.375292,0
2726221852,0.608406,0.538317,-0.504353,-3.446566,-2.015396,2.837049,-5.6533,-1.551517,-3.624954,0
2726255186,0.37991,1.249912,0.270731,-3.176037,-1.523787,3.224497,-5.847174,-1.913308,-3.019215,0
2726288520,0.113521,1.378086,1.173188,-2.05169,-0.707381,3.207818,-5.88112,-1.374811,-2.324929,0
2726321854,-0.274017,1.650844,1.553403,-0.977953,0.09087,1.627944,-4.893543,-0.489143,-1.41044,0
2726355188,-0.383429,1.304464,1.394636,-0.009898,0.535709,1.542569,-2.795204,0.96512,-2.720788,0
2726388522,-1.034593,2.489259,-0.394997,0.789229,1.238949,2.035516,3.843866,1.556246,-0.385307,0
2726421856,-1.166652,0.711583,-2.685628,2.461168,1.527094,0.183022,5.598883,4.825856,3.369593,0
2726455190,-0.19983,-3.076364,-2.801295,2.749592,1.400932,-0.382747,10.664559,1.92087,2.461237,0
2726488524,1.234807,-6.813625,-2.918718,3.41461,1.362218,-1.096708,12.052067,-2.410446,3.554914,0
2726521858,0.17302,-5.711086,-1.838512,4.551244,1.295169,-1.87293,11.399995,-4.751074,2.841681,0
2856557792,0.008781,-0.041782,-0.057408,0.25611,0.054035,0.372497,-1.178831,-0.292513,1.432624,0
2856591126,0.75842,-1.305319,0.117165,0.392884,0.105701,0.772681,-5.156144,-1.627123,6.347731,0
2856624460,0.656691,-1.161424,0.786272,0.562257,-0.117356,1.557535,-7.501504,-1.78519,9.676998,0
2856657794,0.931978,0.01318,1.779443,0.593983,-0.246687,2.013182,-6.799285,-3.369959,12.983917,0
2856691128,0.848714,1.158076,2.112182,0.899717,-0.153126,2.184472,-4.79856,-0.236309,13.666985,0
2856724462,0.874462,2.784914,1.989619,1.427265,-0.687874,3.083185,0.475675,-0.119484,9.747839,0
2856757796,1.324155,3.120282,2.411698,1.762083,-1.002849,3.875522,3.430742,0.918435,2.163839,0
2856791130,1.063825,1.801597,2.487217,2.224306,-1.09442,4.649392,3.192446,0.2026,-3.107378,0
2856824464,-0.075368,1.752005,1.678786,2.164907,-0.006841,4.055072,2.935647,0.532256,-4.141706,0
2856857798,-1.156053,1.375656,1.528428,2.304428,0.180238,3.912312,1.907242,-2.292236,-7.351225,0
2856891132,-2.241884,0.105389,0.22834,1.263002,0.446861,4.250277,-0.775251,-2.265575,-7.135454,0
2856924466,-1.706577,-0.964809,-0.674208,0.155549,0.478298,3.355852,-2.627757,-1.75475,-6.59325,0
2856957800,-1.137148,-1.670318,-0.984951,-0.140545,0.173883,3.915411,-1.151619,-0.63074,-6.051071,0
2856991134,-1.303997,-0.909157,-1.726027,-0.166124,1.283748,3.817822,0.059044,0.860756,-6.227023,0
2857024468,-1.326374,-1.108491,-1.821394,-1.876369,0.087861,0.971438,2.584874,2.525339,-6.40356,0
2857057802,0.853506,-1.298548,-4.016251,-1.723018,-0.26701,-2.07416,6.709457,3.430801,-4.879086,0
2857091136,1.516429,-0.649106,-5.333745,-1.179867,-0.409568,-3.339591,8.579278,3.368348,-3.407242,0
2857124470,1.459648,-1.801911,-4.459674,-1.143662,-0.442808,-3.553756,9.060837,1.786865,-4.000115,0
2857157804,0.709916,-2.112369,-4.243881,0.414061,-0.991411,-3.910256,8.823324,1.77303,-4.855735,0
2857191138,-0.215291,-0.977958,-3.112175,1.183117,-0.774751,-3.711707,7.324469,2.482618,-4.357138,0
2857224472,-0.706789,-0.668911,-2.445498,1.947347,-1.290763,-3.743708,3.964608,1.346293,-2.692881,0
2857257806,-0.58201,-0.147165,-0.550352,2.469746,-0.422861,-2.869787,0.65501,0.354338,-1.235498,0
2857291140,-0.036175,-0.367564,0.965656,2.337873,-0.272723,-2.8727,-2.760109,-0.03259,0.744189,0
2857324474,0.1096,1.076685,2.279289,3.360665,0.051996,-4.492414,-4.877669,-1.598741,3.508628,0
2857357808,0.335245,2.201972,4.684532,1.671715,0.664082,-5.317191,-7.224564,-1.967262,5.878257,0
2857391142,0.531062,1.743748,4.816229,0.059628,0.44751,-5.411461,-9.085299,-3.736296,5.718084,0
2857424476,0.837262,0.939351,3.612759,-2.686352,0.763154,-4.851847,-8.85673,-3.506828,4.914181,0
2857457810,0.309791,1.153644,2.527126,-5.499559,0.133953,-4.087692,-7.38417,-2.717378,3.060027,0
2857491144,-0.147753,1.333184,1.057052,-9.218816,-1.240962,-3.176565,-6.693674,-1.544074,1.373482,0
2857524478,-0.065829,0.939829,-0.064362,-8.725157,-1.901834,-2.426608,-5.199289,-1.109531,-0.3095,0
2857557812,0.25873,0.784192,-0.594469,-9.730607,-2.451272,-1.19415,-3.576622,-0.296298,-1.661369,0
2857591146,-0.230109,1.307848,-0.814136,-4.407622,-2.063958,-0.131918,-1.831885,0.166206,-3.60617,0
2857624480,-1.190225,0.745384,-1.330776,-0.797355,-0.869754,0.81357,1.67549,0.143464,-5.538516,0
2857657814,0.600103,-1.115045,-3.408925,2.005182,0.529181,0.823674,6.919054,1.10399,-5.072539,0
2857691148,1.478564,-2.23293,-5.121811,2.702516,1.031326,2.130619,11.472463,1.431123,-4.165697,0
2857724482,0.799841,-3.108256,-4.248624,5.305059,1.430271,2.61836,12.264731,-0.993226,-4.29059,0
2857757816,0.653448,-2.440857,-3.512421,7.586865,1.437632,2.477531,12.317637,0.146367,-2.553504,0
2857791150,-0.052137,-1.58802,-3.090325,8.38131,0.825521,2.121275,9.153773,1.111701,-1.423188,0
2857824484,-0.614953,-0.300852,-0.961815,7.716095,0.869797,0.577213,5.731896,1.493376,-1.903139,0
2857857818,-1.506363,-1.101588,-1.379826,5.380286,0.464659,-0.816768,1.260162,0.060841,-0.565858,0
2857891152,-0.10563,0.52937,1.697675,4.361638,0.112375,-1.453405,-0.564349,0.602611,0.514691,0
2857924486,-0.485485,0.865312,1.502734,3.182851,0.308703,-2.925654,-5.239534,0.008088,2.312579,0
2857957820,0.150439,1.507668,1.854541,-0.883115,0.184785,-4.773451,-8.075793,-1.033488,2.887091,0
2857991154,0.733087,1.096166,2.932096,-5.631306,1.455252,-3.221265,-11.197447,-1.610123,2.935963,0
2858024488,0.983233,0.86199,3.754217,-11.741643,-0.004536,0.957891,-11.766912,-2.031281,2.782667,0
2858057822,1.367456,1.204351,2.936036,-14.196,-3.200852,2.737419,-11.084138,-1.719685,0.820436,0
2858091156,0.494743,2.377689,2.693076,-11.737735,-4.165975,3.551879,-8.998985,-0.652543,-1.189754,0
2858124490,0.411263,1.560332,0.871016,-10.482633,-2.838803,4.446942,-6.117934,-0.669196,-2.155128,0
2858157824,-0.200818,1.821592,0.856797,-4.459992,1.34374,2.176757,-2.71604,-0.23072,-2.389982,0
2858191158,-0.272998,0.582151,0.711907,0.123154,2.393413,0.881821,1.543392,0.391166,-2.009308,0
2858224492,-0.421142,0.28263,-2.211834,3.160024,2.378902,0.364466,3.737522,1.049822,-2.805218,0
2858257826,-0.845475,-0.495357,0.143492,5.66503,0.819421,0.431508,9.74106,0.449155,-1.034545,0
2858291160,-0.07551,-2.100549,-3.420942,6.994531,0.209905,-0.531413,11.679584,-1.433714,2.49726,0
2858324494,-0.412083,-2.991831,-2.68711,7.807049,1.205923,0.018446,10.51766,-1.850076,2.490958,0
2858357828,-0.867994,-2.786638,-3.318834,7.671987,0.807027,-1.732264,10.878256,-1.900502,5.229736,0
2858391162,-1.531806,-2.605938,-2.663883,6.94677,-0.024842,-2.748997,9.559424,0.136639,5.480992,0
2858424496,-1.894043,-1.176278,-1.171315,5.917994,-0.138645,-3.93345,7.639364,0.193699,3.569671,0
2858457830,-1.588802,-0.041167,-0.651095,5.10413,-0.350135,-6.915752,3.391612,1.31174,1.353058,0
2858491164,-0.222858,0.362463,-0.220196,2.778575,0.139501,-6.679171,-0.294461,-0.104009,-0.685142,0
2858524498,0.161455,0.754221,1.189295,0.792864,0.358497,-6.746016,-4.97082,0.461597,-2.59792,0
2858557832,0.57769,1.752771,0.372201,-2.233208,1.041844,-4.441837,-8.303385,0.396631,-3.447781,0
2858591166,1.173258,1.889843,1.234389,-7.959031,1.001985,3.680804,-11.215127,0.360261,-2.903625,0
2858624500,2.079448,1.488616,2.056895,-10.627113,-2.057674,9.468725,-10.7981,0.317602,-3.083482,0
2858657834,2.46014,1.580691,1.606811,-9.881694,-4.545493,11.059547,-9.214149,0.018719,-3.419936,0
2858691168,1.677294,2.148828,1.002637,-5.453821,-3.442274,6.742203,-6.772038,-0.120061,-3.100473,0
2858724502,0.310791,2.288709,0.074537,-3.465107,-1.907951,4.523166,-4.423974,-1.313015,-4.237975,0
2858757836,0.025607,3.092461,1.334816,-2.525435,-1.106063,3.070258,-0.894057,-0.727016,-0.643742,0
2858791170,-0.63637,-0.674069,-0.901179,-1.359193,-1.578627,1.743893,2.107016,-1.774795,-1.064505,0
2858824504,-1.231341,1.267238,0.367793,0.464427,-1.21359,-0.489351,3.363668,-1.024534,-1.256543,0
2858857838,-1.358101,-1.227635,0.13315,1.606759,-1.376215,-2.465423,5.192095,-0.790327,2.27763,0
2858891172,-1.647907,-1.037138,-0.033594,2.867344,-0.548429,-2.104504,6.693388,-1.343831,3.625517,0
2858924506,-0.691474,-2.750362,0.105845,4.696503,0.749358,-2.465243,7.714906,-1.278978,6.543201,0
2858957840,-0.176111,-4.356112,-1.830204,6.292912,1.599251,-2.708815,10.081718,-3.833247,8.591711,0
2858991174,-0.959419,-4.125186,-0.919226,7.442537,1.858955,-3.713018,7.288456,-0.272734,7.573334,0
2859024508,-0.707523,-2.441575,-0.602329,7.089107,1.985013,-4.621482,4.182233,2.118868,6.557096,0
2859057842,-0.343144,-0.49476,-0.333544,5.018721,2.038595,-4.829397,2.546888,2.921257,2.725242,0
2859091176,0.261698,0.670422,-0.099406,2.947904,2.566713,-4.655859,-0.504507,2.932017,-0.60124,0
2859124510,0.823333,0.842806,-0.447417,-1.015691,2.852784,-2.965388,-4.69046,2.40512,-3.407029,0
2859157844,1.362831,0.973304,0.186769,-2.79521,2.901021,1.703793,-7.473101,1.337286,-6.526839,0
2859191178,0.795663,1.741108,-0.736502,-4.264665,2.13516,2.806667,-8.965699,0.947082,-7.772831,0
2859224512,0.73174,1.826279,-0.50355,-5.491454,0.436231,5.184432,-9.152995,0.602229,-7.917463,0
2859257846,1.288571,1.298808,-0.340118,-5.491053,-1.324618,6.659109,-7.91385,0.442794,-7.284438,0
2859291180,0.638991,2.017741,-0.959929,-5.106665,-2.377378,6.301039,-5.399295,0.657644,-7.081617,0
2859324514,0.214988,2.771452,-1.250394,-4.251885,-2.051286,3.688907,-3.026616,0.696352,-7.155976,0
2859357848,-0.013057,2.730142,-1.264668,-2.889905,0.022877,1.061082,-0.185714,1.330307,-5.150765,0
2859391182,-0.338177,2.813432,-1.428963,-1.861346,-1.095362,-0.121099,2.696322,1.878893,-1.290852,0
2859424516,0.583285,-1.743547,-1.153024,0.493273,-0.79229,0.561104,5.248013,0.156706,2.257328,0
2859457850,-1.930029,-0.233184,-0.905433,2.05503,0.285175,-1.511364,6.719432,-1.883536,4.155365,0
2859491184,-1.739347,-0.61103,2.443151,3.677964,0.913388,-1.110891,7.789494,-3.401682,5.566222,0
2859524518,-0.562661,-5.305521,1.862945,3.772551,0.725227,-1.064466,6.357762,-5.26339,7.267563,0
2859557852,-1.508047,-4.214172,1.639005,3.588835,-0.053241,-1.025217,5.181344,-6.773847,8.567991,0
2859591186,-1.234549,-3.992645,1.693609,2.882832,-0.988288,-1.353475,4.464719,-2.196133,7.73863,0
2859624520,-0.39745,-3.197489,1.545341,1.38487,-2.225249,-1.826948,2.216069,1.140544,7.790886,0
2859657854,0.392415,-1.548418,1.198131,1.198902,-1.854768,-2.466797,0.047945,2.706394,5.553288,0
2859691188,0.493847,0.279909,1.483114,0.191094,-2.786508,-1.881809,-1.997982,3.63929,2.369555,0
2859724522,0.542513,1.524053,1.169515,0.023896,-1.972425,-1.557491,-2.802426,3.335354,-1.043676,0
2859757856,0.452011,2.001488,0.422987,0.104643,-0.302414,-1.68132,-3.806719,3.037986,-3.036362,0
2859791190,0.919824,1.58154,-0.23085,0.032567,0.233416,-0.246575,-4.131227,2.125223,-4.958872,0
2859824524,0.746441,1.883265,-0.237467,-1.479791,0.41419,-0.619129,-1.875499,0.913696,-6.300177,0
2859857858,0.764486,1.455296,-1.149946,-2.351908,0.382674,0.622965,-4.002842,0.440836,-6.180846,0
2859891192,0.095892,2.240387,-2.240945,-3.285943,0.474214,2.110408,-4.639789,-0.729965,-4.835522,0
2859924526,-0.040796,3.238731,-1.718402,-3.598391,-0.174925,4.214711,-5.1593,-1.534687,-5.087172,0
2859957860,-0.638467,4.02273,-1.602448,-2.9413,-0.772751,5.053713,-5.82429,-0.275701,-5.543395,0
2859991194,-0.221152,3.397152,-0.88093,-2.05327,-0.756791,5.23359,-3.356665,0.972553,-3.816392,0
2860024528,0.198572,2.084071,1.152297,-0.72026,1.901608,5.16097,-0.3487,1.768286,0.306577,0
2860057862,0.413871,-0.006985,1.933904,0.788834,3.496529,4.416551,3.737816,0.40102,5.349728,0
2860091196,0.432684,-2.675131,1.890612,1.819894,3.295681,3.715306,6.610479,-4.203323,9.74861,0
2860124530,-1.742226,-4.857049,2.716122,3.084132,3.36582,1.963387,4.939284,-8.053414,9.822483,0
2860157864,-2.037798,-5.176884,1.846056,3.521881,2.565845,0.383538,6.923661,-6.002064,4.842592,0
2860191198,-1.554512,-3.219023,3.028858,3.315687,0.406401,-0.951094,7.132895,-3.000793,5.701877,0
2860224532,-0.75318,-2.411761,2.918747,3.345587,-0.783205,-2.167834,5.772074,1.10229,6.107789,0
2860257866,-0.671724,-1.467863,2.210462,3.038138,-1.979863,-2.760111,3.357513,0.325745,6.613958,0
2860291200,-0.788939,-0.701662,1.591847,3.2716,-1.460149,-2.130136,1.852046,-0.093952,5.946053,0
2860324534,-1.240929,1.180479,2.025612,2.251336,-1.419762,-0.403179,-1.420927,3.384713,1.972931,0
2860357868,-0.711412,1.581614,1.679029,-0.460305,-1.190098,-0.284305,-3.383495,2.88677,-1.14175,0
2860391202,0.678429,1.529064,1.314075,-1.503551,-0.38941,1.3157,-3.41137,2.017208,-3.801598,0
2860424536,1.773259,1.467538,0.277601,-3.789134,-2.774736,2.076101,-5.19675,2.213311,-5.159949,0
2860457870,1.919917,1.530269,-0.07407,-4.613051,-3.160287,2.897274,-3.64577,0.248967,-6.254528,0
2860491204,1.680174,1.95078,-0.567593,-4.263283,-3.26537,2.936399,-5.579677,1.060883,-6.042321,0
2860524538,0.65579,2.706297,-0.53933,-3.611081,-3.508125,2.557071,-4.906907,-0.381593,-4.151433,0
2860557872,-0.263836,2.966157,0.392211,-3.143651,-2.947046,2.538505,-5.187753,0.494026,-5.427678,0
2860591206,-0.504327,2.831244,0.682437,-1.896477,-0.874979,3.401501,-3.016997,1.328959,-5.45421,0
2860624540,-1.161871,2.049644,1.444925,-0.008055,1.02652,3.14282,-1.519718,2.803276,-1.02765,0
2860657874,-0.530936,0.671906,0.993342,0.586868,1.427039,2.291816,2.345286,2.580689,4.292866,0
2860691208,0.783689,-1.568436,1.237668,1.605622,1.650229,2.22718,5.489113,-0.169966,11.124865,0
2860724542,1.418693,-7.07716,-0.694085,1.470283,1.741963,0.442256,3.386609,-9.606081,11.737328,0
2860757876,-2.721509,-5.858255,-1.262111,1.539042,0.584063,-0.449503,6.775251,-6.36429,2.254078,0
2860791210,-3.011857,-2.486111,0.044061,1.156238,1.047414,-2.286641,6.148801,-6.668337,4.509176,0
2860824544,-1.873047,-1.111821,-0.001534,1.343712,0.700749,-3.380833,2.354649,4.034392,3.263755,0
2860857878,-0.654365,-0.101569,1.175856,2.217884,0.663891,-3.833948,2.664528,0.051913,3.367786,0
2860891212,1.201351,-0.362208,0.747029,2.708214,0.744162,-3.657299,3.308406,0.06513,1.813121,0
2860924546,0.664379,-0.608069,-0.091673,2.849039,0.622535,-3.176672,0.762252,1.592743,2.82762,0
2860957880,0.396958,0.553396,-0.403661,2.728428,1.563993,-2.962931,0.534359,1.869967,1.889202,0
2860991214,-0.337066,2.108927,1.050842,1.344179,2.811835,-3.819514,-0.52022,2.520555,0.447813,0
2861024548,0.076675,1.852681,0.325237,-0.501933,2.129878,0.79635,-1.354242,2.198186,0.456534,0
2861057882,1.140071,-0.066264,0.901335,-1.914161,1.788648,2.149564,-2.257874,2.017392,-0.702394,0
2861091216,1.433292,-0.661936,0.884312,-2.717558,-0.177393,5.035922,-2.158378,0.861738,-3.231087,0
2861124550,0.526924,0.763783,0.140628,-2.6853,-1.501313,5.154651,-4.025546,1.174214,-4.454345,0
2861157884,0.333343,1.576211,-0.988715,-2.985339,-2.49127,4.333056,-5.900466,1.29982,-4.438346,0
2861191218,0.517,1.246855,-1.263359,-2.984628,-2.497386,4.002951,-6.252622,0.938342,-4.841856,0
2861224552,0.707942,0.922999,-0.096729,-3.133686,-2.534335,4.267638,-6.606424,-0.382086,-6.802452,0
2861257886,0.249666,0.767543,0.778626,-2.657507,-1.603941,3.468941,-5.943773,0.361927,-5.000844,0
2861291220,0.081209,0.915595,-0.356995,-2.29893,-1.063092,3.41401,-3.897846,-1.010142,-5.182794,0
2861324554,-0.174834,2.429042,0.287695,-1.281691,-0.370755,1.830588,-2.426918,0.207204,-4.823054,0
2861357888,0.083955,1.921543,0.595654,0.135518,0.617537,1.572365,1.599823,0.79645,-2.203558,0
2861391222,-0.857279,0.198171,-0.850329,1.670712,1.292374,0.106096,4.947462,0.685403,0.17334,0
2861424556,-0.323843,-0.984656,-0.110458,3.088327,1.246742,-1.303124,8.037064,0.749388,1.301313,0
2861457890,-0.041431,-3.085815,-2.864369,3.391927,0.583091,-3.295025,10.959924,-5.390405,6.467682,0
2861491224,-0.582577,-4.077912,-2.964811,3.4243,0.368548,-4.022335,9.050852,-4.360851,6.51173,0
2861524558,-1.083734,-3.726073,-2.777106,3.344727,0.08364,-3.571424,8.508265,-2.134936,6.090053,0
2861557892,-1.668644,-1.881733,-1.044858,3.413709,0.110586,-3.864578,6.581472,0.817369,5.394489,0
2861591226,-0.820099,-1.551978,-0.206442,3.484321,-0.240986,-4.128637,3.697087,1.368425,5.066124,0
2861624560,0.314194,-0.568367,0.999566,2.419859,-0.338937,-2.633635,1.730034,1.136476,2.881285,0
2861657894,0.356104,0.965652,0.912412,2.408994,0.332593,-2.395971,-1.353621,1.46217,2.398528,0
2861691228,1.309525,1.899869,0.48686,1.423999,0.615718,-2.546725,-2.865401,2.289361,1.829022,0
2861724562,1.518097,1.640407,0.532319,-1.449632,0.714365,-0.617629,-3.217083,2.017325,0.605329,0
2861757896,1.122406,2.010767,1.078624,-2.297542,0.907814,-1.554069,-4.95666,1.642186,-1.53257,0
2861791230,1.106416,1.320187,0.866532,-5.816655,-1.227491,-1.39633,-4.012928,1.420328,-1.914025,0
2861824564,0.830676,-0.046709,0.24015,-8.036438,-2.2328,2.660396,-3.804677,0.139426,-3.195381,0
2861857898,0.165687,0.23782,0.321447,-5.986739,-2.493811,1.252368,-4.321919,-1.358372,-4.340074,0
2861891232,0.356801,1.023258,-0.727896,-4.534801,-3.029095,0.846789,-4.165927,-1.623056,-3.485066,0
2861924566,0.352596,0.906604,-0.908777,-3.509239,-1.766407,2.18475,-5.294111,-1.521349,-2.487233,0
2861957900,-0.265013,0.593089,0.115702,-2.173598,-0.268249,2.799543,-5.976243,-2.00672,-2.358349,0
2861991234,-0.18668,0.473312,0.410854,-0.99836,0.109805,2.180151,-5.54011,-1.407878,-1.115158,0
2862024568,-0.156111,0.821209,0.38414,-0.55152,0.127976,2.271955,-5.418702,-0.625109,-1.116588,0
2862057902,-0.482163,0.543837,0.483284,-0.067491,0.633007,1.99917,-4.388617,-0.343389,-2.135214,0
2862091236,-0.366119,0.20201,0.398239,0.889394,0.889867,0.718403,-1.973526,0.177006,-2.226942,0
2862124570,-0.224813,-0.069225,-0.134026,1.129589,0.34125,-0.279469,0.192687,0.46549,-2.964213,0
2862157904,-0.060415,-0.020364,-1.242391,2.123234,0.20789,-0.751061,2.831676,0.497018,-4.189818,0
2862191238,-0.193281,0.184024,-1.184464,3.445099,-0.005385,-1.028297,9.794708,0.510157,-1.224601,0
2862224572,1.747217,-2.17408,-4.92905,3.706877,-0.138446,-0.997825,14.882792,-1.483572,2.197696,0
2862257906,-0.168539,-3.53074,-2.437742,3.516027,0.155594,-0.232708,11.804183,-4.036994,0.32565,0
2862291240,-0.958023,-1.498908,-1.38735,4.511586,-0.214564,-0.5491,7.515525,-1.087486,1.68073,0
2862324574,-0.458008,0.202091,-0.596313,4.300818,-0.764926,-0.793737,6.029852,0.514118,2.183602,0
2862357908,0.135102,0.29702,-0.00638,2.991684,-0.458265,0.116499,3.839654,1.258333,0.708984,0
2862391242,0.133041,-0.637994,0.477738,3.170786,0.25184,0.121653,1.407857,1.283208,0.938562,0
2862424576,-0.036556,0.089388,0.722785,3.2497,0.427415,-1.059322,-0.612654,1.441214,1.244002,0
2880791610,0.577627,1.670927,0.642894,0.698974,-0.395061,1.856454,-0.568372,1.554709,2.160263,0
2880824944,0.819782,1.572323,1.168261,1.299996,-0.532143,3.689334,1.934771,0.408386,2.11399,0
2880858278,0.456177,0.292382,1.847707,1.013032,-0.847772,4.338199,0.483144,0.492973,-0.669371,0
2880891612,0.093548,0.893647,1.615644,0.904792,-0.252101,4.572583,-0.591758,-0.380699,-1.830546,0
2880924946,-0.259616,1.152367,1.291491,0.821202,0.157853,3.895046,-0.529408,-1.037125,-2.275934,0
2880958280,-0.619942,0.097477,0.802525,-0.299997,0.173048,3.407624,-2.424021,-1.691388,-2.944661,0
2880991614,-1.171564,0.092998,0.693666,-1.898489,0.556634,3.226068,-1.576837,-1.854964,-1.881829,0
2881024948,-1.553063,0.084623,0.514275,-2.341979,0.92979,2.008353,-0.793079,-0.971469,-1.488756,0
2881058282,-1.4812,-0.733166,0.485949,-2.474436,0.969097,1.268688,-2.931324,-1.564958,-3.035284,0
2881091616,-1.526924,-0.644183,-0.184755,-1.623071,0.491837,-0.692719,-0.386119,-0.618135,-3.889068,0
2881124950,-1.130824,-1.19677,-0.76892,-1.44623,0.411285,-1.134993,1.329745,0.51041,-4.383834,0
2881158284,-0.064254,-0.859922,-2.684727,-0.569644,0.064353,-1.401451,3.241,1.762948,-4.792046,0
2881191618,0.347105,-0.709466,-3.111428,1.243468,-0.215339,-2.318689,6.471931,1.874497,-4.236947,0
2881224952,1.267534,-1.17037,-3.966995,1.953165,-0.406915,-2.392292,7.952349,1.961279,-3.308177,0
2881258286,1.418186,-1.714254,-4.14926,1.647364,-0.702058,-2.144503,6.821236,0.591502,-4.736651,0
2881291620,1.292741,-1.720109,-4.163726,1.941696,-1.32099,-2.084204,9.368593,0.002134,-5.435205,0
2881324954,0.808566,-1.496459,-3.710681,2.632553,-1.003732,-2.287315,7.198766,2.303699,-3.567722,0
2881358288,-0.373866,-0.652848,-2.367697,2.750423,-0.984703,-2.187259,5.639254,2.174388,-2.788001,0
2881391622,-0.998675,-0.9873,-0.841066,1.778128,-0.961525,-2.383834,1.87503,0.955639,-2.191273,0
2881424956,0.2478,-0.325729,1.00048,2.901972,-0.732506,-2.422314,-0.610223,1.051765,-0.209236,0
2881458290,0.064584,0.193325,2.08207,2.760291,-0.101682,-2.842115,-3.560314,-0.461136,1.817824,0
2881491624,-0.201058,1.419252,3.141704,0.933414,0.243952,-3.463623,-4.343703,-0.227135,4.124119,0
2881524958,-0.247097,1.671384,3.919331,1.103662,0.547385,-4.223064,-5.981133,-0.998486,6.119299,0
2881558292,-0.246641,0.869013,3.977744,0.417443,0.679679,-4.996694,-8.723154,-2.342839,6.006249,0
2881591626,0.092024,0.089671,3.235016,-4.162494,-0.378415,-4.777119,-8.532999,-2.68539,5.048305,0
2881624960,-0.033889,0.657588,1.878923,-7.077196,0.322721,-2.611591,-7.719715,-1.986851,3.001009,0
2881658294,-0.048948,1.444797,0.527054,-8.128591,0.419407,-2.073643,-6.563903,-1.394234,0.906174,0
2881691628,0.216205,1.694838,0.018146,-8.174986,-1.187725,-1.755213,-4.898318,-1.054275,-0.486045,0
2881724962,0.118803,1.349437,-0.486753,-6.223487,0.459854,-0.236536,-3.884153,-0.718961,-2.239929,0
2881758296,-0.450383,0.900962,-0.453103,-3.568213,0.218261,1.021066,-1.283126,-0.131054,-3.60036,0
2881791630,-0.602836,0.116431,-1.097692,-2.313022,0.249527,1.691096,3.747367,0.93545,-3.780218,0
2881824964,1.071275,-0.326479,-3.165861,0.139327,-0.08346,3.168871,8.313472,0.813609,-3.737482,0
2881858298,1.757771,-1.505189,-3.888273,2.313343,0.483169,3.678494,12.189595,-2.099356,-4.084472,0
2881891632,1.620987,-1.871746,-4.469628,3.202856,0.436514,3.492209,11.726016,-1.783967,-2.854741,0
2881924966,0.347133,-0.885874,-3.714073,4.739608,0.049733,2.643774,9.397891,-0.672523,-2.730322,0
2881958300,0.07694,-0.495034,-2.619118,6.109445,-0.387491,1.75705,5.996166,-0.101813,-3.833115,0
2881991634,0.219587,0.181355,-1.429919,6.470101,-1.45277,0.353096,1.907735,0.282435,-2.678982,0
2882024968,0.166321,-0.37523,-0.4118,4.992099,-1.165043,-1.069413,-1.558503,0.233513,-0.753607,0
2882058302,-0.132011,0.301407,0.980262,4.037795,-0.888958,-2.367168,-3.926527,-0.802574,0.349398,0
2882091636,-0.842958,1.252371,2.541592,2.788311,-0.209734,-3.074447,-6.487191,-0.784287,3.296346,0
2882124970,0.317327,1.643969,2.671199,0.792381,0.10351,-3.48481,-7.894821,-0.589944,4.80529,0
2882158304,0.171852,0.606912,3.495653,-0.297471,-0.452949,-4.030764,-8.522562,-0.502664,4.970485,0
2882191638,0.18171,0.061532,2.951189,-4.535072,-0.329355,-2.769943,-7.841447,-0.122431,4.36651,0
2882224972,0.094698,0.307172,1.93356,-7.160978,1.050834,-0.490392,-6.714511,0.052135,2.57831,0
2882258306,-0.169781,0.795569,1.145885,-6.358584,0.028255,-0.65546,-5.748158,0.146989,0.890328,0
2882291640,-0.123612,1.3418,0.628493,-5.963058,-0.409255,0.84712,-4.366832,0.561795,-1.038561,0
2882324974,-0.507912,1.190326,0.201631,-3.430006,0.000689,2.036709,-1.926329,1.095035,-1.945891,0
2882358308,-0.08916,-0.386945,-0.497174,-3.152736,0.062634,2.569771,0.723698,1.605407,-1.825899,0
2882391642,-0.250828,-0.425351,-1.743394,-2.712665,-0.111255,2.756458,7.618954,1.560438,-1.272899,0
2882424976,1.54203,-2.294533,-4.15859,-1.491678,0.247638,2.792644,9.430072,0.176171,-1.943042,0
2882458310,0.330568,-2.510942,-2.823141,-0.114091,0.10055,1.877818,11.239279,-2.900782,-2.384922,0
2882491644,0.468861,-2.093398,-3.303518,1.008517,-0.008652,1.064057,10.892984,-0.806696,-0.326833,0
2882524978,-0.241241,-1.902554,-2.125152,2.962986,-0.067091,0.165574,9.043775,-0.994344,-1.871512,0
2882558312,-0.38862,-1.246682,-1.19319,2.341168,-0.232048,-0.386974,6.046247,-0.611195,-1.95898,0
2882591646,-0.031659,-0.283051,-0.26292,5.231593,-0.564389,-1.15895,3.383891,0.764567,-0.881905,0
2882624980,-0.294792,-0.016426,-0.201438,6.733021,-1.310009,-2.315179,1.160207,1.059538,-1.031131,0
2882658314,0.443955,0.492943,0.143769,5.641536,-0.690388,-2.842914,-1.530197,0.159209,0.054483,0
2882691648,-0.29191,1.508966,1.009807,4.485827,-0.211835,-3.517435,-3.804738,0.188808,0.819333,0
2882724982,0.073974,1.40836,1.54576,2.872744,-0.088197,-4.096626,-6.165949,-0.496906,1.741493,0
2882758316,0.252473,1.047017,2.008633,0.428981,0.399359,-3.124534,-7.994732,-1.030017,2.295052,0
2882791650,-0.049492,1.19484,2.28374,-2.152412,0.671767,-2.065655,-9.255369,-1.339405,2.410376,0
2882824984,0.138048,0.647431,2.091088,-5.228509,0.553407,-1.936065,-8.922368,-1.756385,1.581969,0
2882858318,0.10218,0.680421,1.791206,-9.436071,-0.873776,2.447109,-8.244686,-1.324189,0.101691,0
2882891652,-0.468188,1.208634,1.854478,-10.411575,-0.972235,6.074364,-7.889202,-0.801589,-1.557757,0
2882924986,-0.418221,1.328766,1.919929,-6.100848,-1.474697,5.557251,-6.321128,-0.107732,-2.330825,0
2882958320,-0.442027,1.582489,1.386201,-3.64676,-1.511397,5.425963,-4.120676,1.106529,-1.992819,0
2882991654,-0.472936,1.032107,0.454992,-2.019361,0.013763,4.735954,1.360644,1.705442,-2.220016,0
2883024988,-0.379506,0.329431,-0.700085,-0.73254,0.713718,3.671734,6.291797,2.744486,-1.128606,0
2883058322,0.938246,-1.655481,-3.178278,1.161481,1.079178,2.236442,10.350167,0.877876,0.745008,0
2883091656,0.572437,-2.507739,-3.7603,3.131505,1.029029,-0.165645,13.510584,-2.51202,2.965767,0
2883124990,0.629928,-2.959661,-4.054711,4.630332,1.086119,-1.395291,12.06881,-3.286801,3.107488,0
2883158324,-0.507119,-1.838749,-2.943726,5.096866,0.326581,-2.371152,9.972016,-2.473438,1.118595,0
2883191658,-0.886321,-0.496188,-2.508836,4.962534,-0.996305,-3.920038,7.152515,-0.686075,-0.073025,0
2883224992,-0.785423,-0.357465,-1.889442,5.103149,-1.408798,-4.907913,4.205758,0.158773,-1.364004,0
2883258326,-0.057908,-0.127386,-0.423533,4.308486,-1.208863,-5.837337,0.250802,-0.178967,-1.407928,0
2883291660,-0.668861,-0.387951,0.113554,3.072107,-0.947101,-5.672009,-2.524713,0.093492,-1.738699,0
2883324994,0.166213,1.662421,-0.089242,1.750207,-0.00598,-4.789284,-5.345016,0.589843,-1.560767,0
2883358328,-0.290836,1.990939,0.866288,0.359035,0.476333,-3.467416,-8.231502,0.432479,-1.390406,0
2883391662,0.573299,0.977431,2.184015,-2.645635,1.513219,-0.812016,-9.723974,0.662303,-0.771217,0
2883424996,1.600404,0.187012,2.604515,-5.4671,1.444793,3.408473,-10.18767,0.62404,-1.099374,0
2883458330,0.733334,1.207725,2.876994,-7.460291,0.979792,6.305397,-8.979175,0.703036,-2.234609,0
2883491664,0.834366,1.70652,3.120269,-8.512351,-1.368835,6.23654,-6.959639,1.320098,-2.110197,0
2883524998,0.415921,1.116114,0.359973,-4.512403,-0.403422,3.655905,-4.588511,0.689986,-2.648006,0
2883558332,-0.46559,3.706309,1.091281,-3.240062,0.475661,4.239823,-1.260665,2.323189,-0.76546,0
2883591666,-0.040175,-0.135868,-0.78021,-2.238551,0.746296,3.184521,2.63089,1.314726,1.096501,0
2883625000,-0.348087,-0.190884,-0.213545,-1.493458,0.524134,3.372238,5.237194,0.251963,-0.342072,0
2883658334,-0.485109,-0.854566,0.876843,0.140978,0.176147,1.65534,8.734339,0.275783,1.162991,0
2883691668,-0.459981,-3.183485,-2.276278,2.756097,0.213811,-0.359738,10.38891,-3.88476,5.20188,0
2883725002,-0.557136,-3.643508,-1.43316,4.950945,0.626616,-2.185326,8.993937,-3.581763,4.660682,0
2883758336,-1.124307,-3.760365,-2.437402,5.234183,-0.184652,-3.559311,9.041623,-4.606877,5.385393,0
2883791670,-1.633511,-2.698136,-1.794928,6.00349,-0.144251,-4.238398,7.57122,-0.96496,4.735854,0
2883825004,-1.625387,-1.551887,-1.1781,5.037619,-0.704277,-5.409606,5.315732,0.653283,3.505363,0
2883858338,-1.688016,-0.448104,-0.315411,3.32785,-0.220488,-6.270182,2.283678,1.305456,0.225455,0
2883891672,-1.033855,0.531235,0.939607,1.80787,-0.025573,-4.976294,-1.897306,1.083777,-3.400812,0
2883925006,1.084225,1.007562,0.895184,-0.475692,-0.121579,-2.140038,-5.448295,1.77165,-3.650303,0
2883958340,1.709092,1.84462,0.581965,-1.866922,0.869916,-1.879298,-7.873252,1.274329,-4.542994,0
2883991674,1.694576,3.409519,0.402485,-2.820164,0.156586,0.142948,-9.633125,1.481576,-4.975643,0
2884025008,2.28851,3.204758,0.294732,-4.076525,-0.214882,2.544093,-9.176131,1.080439,-5.210565,0
2884058342,1.66802,2.54235,0.494632,-4.680705,-0.596024,3.221021,-7.146114,0.986582,-4.387284,0
2884091676,0.685861,1.801737,-0.137333,-4.427953,-1.036432,5.236893,-4.594042,0.665657,-4.412319,0
2884125010,0.310772,2.196121,-0.416519,-4.144486,-2.015088,5.539782,-2.55313,1.424489,-3.34101,0
2884158344,-0.279153,1.004678,-1.611877,-3.147869,-1.523425,4.947186,0.559312,1.078793,-1.071215,0
2884191678,-0.686813,0.679084,-1.705242,-1.411095,-0.198623,4.852572,2.643095,0.767494,0.589734,0
2884225012,-0.364334,0.704073,-0.572457,-0.090337,0.407899,3.962433,4.13351,-0.156182,2.70443,0
2884258346,-0.009371,-1.558761,-0.326655,1.083434,0.524178,2.801105,5.434767,-1.65148,3.453527,0
2884291680,-1.381396,-2.51751,0.679442,1.887843,0.62896,1.39347,6.546501,-4.788014,3.683276,0
2884325014,-2.146881,-3.487135,0.600195,2.683211,0.696313,-1.226147,5.230551,-5.659533,4.821774,0
2884358348,-2.201743,-4.315715,0.376108,3.715856,0.546544,-3.27251,3.638706,-3.23371,5.959621,0
2884391682,-1.031219,-4.137909,0.90891,4.011709,-0.309434,-4.023842,3.964036,-2.94254,6.543283,0
2884425016,-0.29157,-2.514146,1.323163,4.039245,-0.692935,-4.303469,3.995618,-1.781075,7.020197,0
2884458350,-0.750258,-0.441355,1.949838,3.295059,-0.803451,-5.728501,2.510805,0.944309,5.875686,0
2884491684,-0.017794,0.815273,2.221281,1.808802,-0.754819,-4.980599,1.528025,1.256078,2.014673,0
2884525018,-0.550892,1.820947,1.93725,0.440764,-0.404929,-3.224296,-1.769696,2.762902,-0.280043,0
2884558352,0.358807,1.635787,1.216066,-0.735713,-0.007359,-1.431594,-3.242498,2.106289,-3.289743,0
2884591686,1.69313,1.523062,0.530668,-2.181092,-0.061366,1.477679,-5.451218,2.440217,-4.716189,0
2884625020,2.434738,1.825583,-0.919785,-3.404388,-0.161934,2.914625,-6.06202,0.057132,-8.787739,0
2884658354,1.887941,2.772295,-0.720114,-3.85767,-1.198676,4.66568,-10.679595,6.387295,-7.397237,0
2884691688,1.508013,2.590782,-1.045649,-3.701756,-2.129382,5.401146,-2.014793,-1.223591,-4.804664,0
2884725022,0.046969,2.317295,-1.190495,-2.972734,-1.818199,5.127752,-3.675646,0.130982,-5.887572,0
2884758356,-1.078121,3.354979,-1.496952,-1.741769,-1.182787,4.959555,-2.241869,0.269024,-3.708598,0
2884791690,-1.499507,2.08973,-0.66011,-0.412056,0.783111,4.228155,0.089804,0.31732,-1.000441,0
2884825024,-2.137444,1.622403,0.606697,0.295434,1.285826,3.495604,2.40204,-0.280868,3.328398,0
2884858358,-0.197188,-1.262153,2.616598,1.403373,1.106186,3.782886,4.437299,-2.526313,8.276636,0
2884891692,0.514996,-4.287182,3.451559,2.394915,1.968847,2.661568,7.40901,-4.763147,8.020859,0
2884925026,-1.668067,-3.725713,4.015941,2.746132,2.092745,0.997065,7.337768,-8.194991,7.498516,0
2884958360,-1.76449,-4.178213,3.717051,3.339483,1.21841,1.41548,4.959219,-3.823754,7.131262,0
2884991694,-0.609427,-2.671613,3.837901,2.678535,1.10046,-0.004365,2.138048,0.472555,7.241129,0
2885025028,-0.041957,-1.005128,3.400301,2.283715,0.172319,0.362087,1.094476,1.396251,5.417863,0
2885058362,-0.051151,-0.256117,2.511884,1.354046,-0.294019,-0.330665,-0.563455,1.792778,4.596306,0
2885091696,0.34661,-0.430763,1.686193,0.870869,-0.594244,-0.113934,-2.346534,3.118144,3.077961,0
2885125030,0.540481,0.441875,1.639493,0.465739,0.116272,-0.374524,-2.058373,2.419479,1.540427,0
2885158364,-0.102166,1.421507,1.459686,-0.62765,-0.5843,0.057454,-2.157625,1.498981,0.048577,0
2885191698,0.1508,1.74855,1.627802,-2.01318,-0.266563,-1.009778,-2.164975,1.198051,0.011353,0
2885225032,0.583739,0.316293,1.185046,-3.370167,0.913296,-1.891734,-2.032059,0.496801,-0.485991,0
2885258366,0.484069,0.2874,0.192273,-3.178018,-0.299859,0.940174,-1.494886,0.028808,-1.857274,0
2885291700,0.374887,0.970097,-1.081518,-2.185047,-0.556958,3.120547,-2.149753,0.269404,-2.380951,0
2885325034,1.080131,0.658402,-2.003185,-2.041848,-1.584828,3.137831,-1.662748,-0.403692,-3.662646,0
2885358368,0.99265,1.128918,-2.089087,-1.790332,-2.4802,3.06141,-2.427346,-0.271063,-4.67212,0
2885391702,0.071057,1.700256,-2.478535,-1.623002,-2.277894,2.927932,-3.36353,-0.111757,-5.400824,0
2885425036,-0.115038,1.741257,-1.938537,-1.636175,-2.31289,2.784605,-3.920759,0.613253,-5.375905,0
2885458370,-0.084874,1.718878,-1.689664,-0.722294,-0.83731,2.362695,-3.077465,0.623095,-4.192111,0
2885491704,-0.394793,1.089015,-0.869317,0.024189,-0.248114,1.265591,-1.683605,0.983024,-2.782686,0
2885525038,-0.647226,0.443629,-0.325892,0.421336,0.406304,-0.595171,1.486127,0.568413,-1.986127,0
2885558372,-0.750699,0.034562,0.299088,1.980262,1.022833,-1.714473,4.779705,-0.063508,0.478914,0
2885591706,-0.718485,-1.97562,0.258712,2.982167,1.089052,-2.752359,6.997817,-2.141838,4.486349,0
2885625040,-0.32615,-4.16983,-0.364429,3.750609,1.01238,-3.476225,6.603077,-4.790709,5.917288,0
2885658374,-0.931292,-4.25089,-0.313549,3.719105,0.945103,-3.631465,5.370924,-3.724006,5.2527,0
2885691708,-0.966742,-2.844967,0.444628,3.371756,0.996071,-3.560296,4.437328,-0.570456,4.217752,0
2885725042,-0.610476,-1.219756,0.651706,2.636911,0.776369,-3.163543,3.035094,1.215154,4.115191,0
2885758376,0.1676,-0.953461,0.186518,1.779831,1.001094,-3.811953,1.907573,1.583209,3.557566,0
2885791710,0.285298,-0.456078,0.278934,-0.688222,0.279042,-3.959131,0.992269,1.533093,2.053435,0
2885825044,-0.186775,0.625947,0.572304,-0.575515,1.138937,-2.512687,-1.366394,1.494643,0.507845,0
2885858378,-0.014185,1.872362,0.759957,-2.204885,0.939181,1.221722,-2.303713,1.009308,0.012163,0
2885891712,0.499498,1.660211,0.425627,-3.252535,0.597086,1.493228,-4.58575,1.268053,-0.003401,0
2885925046,1.206203,1.157858,0.682925,-3.633401,-0.382309,3.960405,-5.610136,1.060211,-1.605551,0
2885958380,0.967504,1.688918,1.022266,-3.783448,-1.085772,3.823828,-6.313446,0.584057,-2.409649,0
2885991714,0.679671,1.908001,0.667213,-3.142968,-1.098333,3.977591,-6.449553,0.416378,-2.7289,0
2886025048,0.375757,1.52774,0.099075,-2.630639,-1.213842,3.141778,-5.419201,-0.029546,-3.695191,0
2886058382,-0.519649,1.984553,-0.186338,-2.04485,-0.820956,2.941387,-4.153746,-0.380914,-4.196108,0
2886091716,-0.65322,1.719568,-0.33058,-1.02223,0.216436,2.731668,-3.213077,-0.086389,-4.30755,0
2886125050,-0.356014,1.128251,-0.378199,-0.621735,0.613194,1.267079,-1.164337,0.620273,-4.122036,0
2886158384,-0.939967,0.765305,-0.318851,0.669527,-0.12188,1.575359,1.435271,0.218029,-2.525278,0
2886191718,-0.442807,-0.118553,-0.385186,2.149013,0.176664,1.142734,3.827549,0.448626,-0.809652,0
2886225052,-0.545881,-0.786192,-0.646175,3.273215,0.141073,0.824441,6.318201,0.081089,-0.802583,0
2886258386,-0.057748,-2.139673,-1.623876,3.381399,0.102965,0.005274,8.471384,-1.907488,2.550538,0
2886291720,0.277326,-3.898925,-2.886536,3.731642,0.208371,-1.004566,8.059807,-3.269802,5.170539,0
2886325054,-0.620134,-3.206333,-1.198995,3.670194,0.33781,-1.701339,6.579357,-2.429881,3.618609,0
2886358388,-1.005369,-2.071171,-0.488413,2.985164,0.452987,-1.771411,5.270773,-0.931114,3.73992,0
2886391722,-1.041288,-1.52954,-0.367661,3.069716,0.600108,-2.0947,4.929023,0.337784,3.620319,0
2886425056,-0.488823,-1.529895,-0.113211,2.943133,0.484735,-2.920399,3.938312,0.599576,1.975245,0
2886458390,-0.634904,-0.275761,-0.464201,1.688297,0.019999,-3.761326,1.067064,2.379911,2.382447,0
2886491724,-0.187554,0.546151,-0.010521,0.40012,0.186019,-4.002361,-1.325484,2.522881,0.477368,0
2886525058,0.228531,0.795597,0.155158,-1.461803,0.806305,-1.04551,-2.856568,2.254259,0.552615,0
2886558392,0.327246,0.558615,1.569736,-3.419625,0.171167,-0.589931,-4.637143,1.546865,-0.916745,0
2886591726,0.643597,1.153647,1.438605,-5.427231,-0.653718,0.682128,-6.4811,1.044243,-0.797986,0
2886625060,0.774155,1.539194,1.082773,-7.190693,-1.287266,2.542228,-7.205207,0.856322,-0.364227,0
2886658394,0.651879,1.650461,1.002227,-5.673904,-1.549358,1.607949,-6.399028,0.447315,-1.59756,0
2886691728,0.57124,1.315216,0.049349,-4.970953,-1.579135,2.702471,-5.940628,-0.08023,-2.400749,0
2886725062,-0.046904,1.383655,-0.430693,-3.56337,-1.09377,2.268756,-5.374156,-0.102922,-2.535147,0
2886758396,-0.262388,1.797324,-0.309766,-1.745452,-0.434013,2.263954,-4.375583,-0.407603,-3.184227,0
2886791730,-0.379123,1.764151,-0.128417,-1.018695,-0.48194,2.969801,-2.565758,-0.22354,-3.280685,0
2886825064,0.10455,0.823421,-0.696651,1.460595,0.444385,1.449365,-0.253929,-0.303071,-2.876049,0
3031127950,-0.003472,-0.044022,-0.072827,0.011106,-0.058745,0.227201,-0.284533,-0.140233,0.237796,0
3031161284,-0.377405,-0.563992,-0.347196,0.015172,0.114446,0.468466,-1.67526,0.274168,1.979308,0
3031194618,1.81545,-2.112982,0.172856,0.294157,0.121842,0.373428,-3.572255,0.172279,5.328353,0
3031227952,1.523912,-2.897218,0.556604,0.758131,0.079702,0.99228,-6.50767,-2.351786,9.047194,0
3031261286,0.68672,0.268456,1.228365,1.794969,-0.357416,2.356989,-7.850621,-0.815964,11.73411,0
3031294620,1.028542,0.86329,1.910448,2.847191,-0.522147,3.981766,-6.064046,0.116182,15.008966,0
3031327954,0.19296,2.503405,2.894697,2.779042,-0.464151,4.552402,-1.00001,0.377076,14.42193,0
3031361288,0.409179,3.664589,3.544706,4.137961,-1.675205,6.071051,2.544179,0.489692,5.697744,0
3031394622,0.37823,3.693558,3.13693,3.814085,-1.192472,6.354839,2.337378,0.350443,-2.423329,0
3031427956,-0.244716,2.29381,2.63065,2.324555,-1.550452,6.162387,1.78529,0.195736,-4.384906,0
3031461290,-1.393682,0.847996,1.798692,0.295473,-0.792458,6.976351,2.435555,-2.459751,-5.136965,0
3031494624,-3.403225,-0.054428,1.236308,-2.066596,0.127234,5.371944,-0.199492,-3.80426,-6.650133,0
3031527958,-3.149349,-0.597842,-0.315312,-3.35448,1.018132,3.339347,-0.22978,-2.579203,-6.350147,0
3031561292,-1.476635,-1.840931,-1.779235,-4.479239,0.829241,0.937374,0.427876,-1.202311,-6.852893,0
3031594626,-0.228877,-2.908485,-2.201505,-3.725019,0.651058,-1.332381,1.1861,0.064093,-7.019681,0
3031627960,-0.31842,-2.40683,-2.631778,-2.53998,0.469492,-2.692532,2.207112,1.007694,-7.129956,0
3031661294,0.09347,-1.372748,-3.302242,-2.004585,-0.176725,-3.550318,3.489928,2.305525,-6.741769,0
3031694628,1.270491,-0.360655,-4.32972,-1.901705,-0.175,-3.615499,6.591395,3.358388,-5.344784,0
3031727962,2.437943,-0.314255,-4.635211,-1.120015,-0.736096,-4.104655,7.971124,2.186169,-4.964559,0
3031761296,3.104568,-1.071245,-5.140071,0.515831,-0.81759,-4.353378,9.459866,-0.231966,-6.119808,0
3031794630,2.047168,-0.928219,-3.897864,2.614248,-0.642158,-4.180118,8.370335,1.361716,-5.056229,0
3031827964,0.319918,-0.666454,-2.855811,3.907435,-0.577542,-3.3316,5.14045,2.173722,-3.833259,0
3031861298,-0.463731,-0.150644,-0.857465,3.782474,-0.484724,-3.260188,1.5907,0.866407,-2.865108,0
3031894632,0.252293,-0.108197,0.295402,4.259505,-0.315461,-3.865125,-2.262549,-0.229504,-0.243285,0
3031927966,-0.105793,0.623948,1.285362,2.984321,0.244038,-4.866608,-4.360911,-0.120134,2.101267,0
3031961300,-0.99932,1.734074,2.638962,1.318203,0.428231,-6.117089,-6.641993,-1.144501,3.634053,0
3031994634,-0.979569,1.68506,3.375999,-0.997451,0.543391,-6.453078,-10.714314,-2.346414,5.312122,0
3032027968,-0.02446,1.001557,3.684949,-4.868822,0.780829,-5.042935,-10.605247,-3.103697,5.114552,0
3032061302,0.013932,0.941812,3.45992,-8.054486,0.420942,-4.346276,-8.827972,-1.874491,4.426418,0
3032094636,-0.098412,1.417473,2.341925,-9.084934,-1.164507,-4.091251,-6.963264,-1.086258,2.089972,0
3032127970,-0.408455,1.386943,1.712225,-9.099036,-1.722638,-1.213246,-4.836477,-0.353379,0.781736,0
3032161304,-1.194376,0.662219,1.42757,-4.873238,0.317587,1.612428,-3.213682,0.160593,-0.33183,0
3032194638,-0.867065,-0.016588,0.585449,-1.675833,0.844846,2.978809,-0.161013,0.821956,-2.392499,0
3032227972,0.097176,0.573991,-1.841268,-0.219011,0.562874,4.264607,6.243866,-0.462413,-3.12172,0
3032261306,1.493657,-0.557347,-3.927478,2.352862,0.672703,3.982488,10.352145,0.06711,-2.015242,0
3032294640,2.490093,-1.563436,-4.315441,3.577608,0.976589,3.410107,10.204042,-2.305965,-3.660626,0
3032327974,2.368505,-1.355996,-4.954954,6.508991,-0.179049,2.163582,11.360428,-2.434534,-3.955172,0
3032361308,1.4107,-0.725464,-4.504181,7.441113,-1.518295,0.792102,10.080681,1.366664,-3.07413,0
3032394642,0.267219,-0.728644,-3.186172,7.424576,-1.563587,-0.68486,6.06464,0.617571,-3.225865,0
3032427976,-0.819136,-0.1424,-1.39364,5.86201,-1.082859,-2.112635,1.984453,1.284639,-2.054169,0
3032461310,-0.118337,-1.007546,-0.972095,4.739552,-0.461823,-2.711717,-2.862251,-0.105078,-0.55831,0
3032494644,-0.281431,0.352362,0.864781,3.025317,0.051157,-3.04795,-4.960361,-0.034101,1.416384,0
3032527978,-0.901841,1.26534,1.929049,1.775355,0.409268,-4.158882,-6.8211,-0.83898,2.450469,0
3032561312,-0.814286,1.925586,2.21689,-2.274546,0.751629,-5.059283,-9.329967,-1.214154,2.634637,0
3032594646,0.407445,1.28516,2.297503,-7.14637,1.864102,-2.13485,-9.577425,-1.225479,1.826178,0
3032627980,0.189544,1.048128,2.10437,-11.640415,1.906695,0.487989,-9.530011,-0.363741,0.619264,0
3032661314,-0.420582,1.799631,1.557442,-11.38882,-0.394251,1.49229,-7.795347,-0.018328,-0.437625,0
3032694648,-0.299419,1.767161,0.867197,-8.104501,-2.234866,2.778394,-6.420203,-0.059637,-1.778684,0
3032727982,-0.862395,1.180375,0.901815,-4.750015,-2.116625,3.485322,-3.994223,-0.127582,-2.350905,0
3032761316,-1.476475,0.198968,0.222777,-1.137211,-1.268689,3.540219,0.888143,0.647823,-2.151287,0
3032794650,0.399322,-0.823083,-1.298589,1.563619,-0.290652,3.806675,6.760576,-0.169231,-0.357458,0
3032827984,0.501546,-1.968948,-1.469004,4.373177,0.656437,3.557678,12.196804,-0.548381,1.948478,0
3032861318,2.341022,-3.38598,-2.930484,5.544779,0.471333,2.154644,14.13088,-3.032385,3.006216,0
3032894652,1.633614,-3.114858,-2.004141,5.477873,0.478604,0.754704,13.250089,-2.524773,2.537288,0
3032927986,-0.340564,-1.895024,-2.157782,5.618633,-0.113952,-1.034598,9.09646,2.739213,2.230372,0
3032961320,-0.119335,-1.814,-1.200158,5.244626,-1.159786,-2.796848,9.145321,3.588681,0.876775,0
3032994654,0.265719,-2.255466,-0.023662,4.978445,-1.131893,-4.337467,4.584905,0.76171,-2.248654,0
3033027988,-0.542855,-1.331735,0.022079,4.159945,-0.966897,-6.093486,-1.174374,0.731294,-1.979088,0
3033061322,-0.476838,1.280316,0.577128,2.387987,-1.002574,-7.088171,-4.717834,-0.054717,-3.414763,0
3033094656,-1.892502,2.234008,-0.159402,0.717412,0.023052,-6.844436,-8.483202,-1.00845,-2.980432,0
3033127990,0.168621,2.344508,0.176852,-1.795483,0.388323,-6.274203,-12.657074,0.664549,-2.985616,0
3033161324,2.22462,1.02528,1.664589,-6.638341,2.002558,-2.510318,-13.985845,-0.018544,-2.886143,0
3033194658,1.051574,2.305259,3.62305,-11.745548,1.837652,5.197982,-12.361926,1.284058,-2.517778,0
3033227992,1.030711,2.382214,2.706303,-12.194387,0.07892,10.011986,-9.090675,2.733298,-2.069797,0
3033261326,1.082986,1.656017,-0.915877,-6.877494,-1.542988,7.388599,-5.751166,2.661824,-2.812491,0
3033294660,-1.408607,4.074338,1.404301,-3.59412,-0.783939,7.734734,-0.738426,3.92332,0.532047,0
3033327994,0.105304,-0.014734,-2.426598,-1.655598,-0.274528,5.960345,5.263989,0.159847,4.471778,0
3033361328,-0.380747,-0.040002,1.050838,0.70544,0.033574,4.713767,6.395578,-0.774036,4.424602,0
3033394662,0.379852,-4.127071,-1.517387,4.083836,0.574284,1.141133,10.764395,-6.26856,8.22448,0
3033427996,-0.186786,-4.660571,-1.339524,5.947124,-0.179718,-1.663523,11.799783,-8.859648,7.047461,0
3033461330,-0.856826,-3.728181,-1.900343,6.783031,-0.177622,-2.995608,10.994377,-4.884638,7.683945,0
3033494664,-1.791768,-2.427842,0.000568,6.847934,-0.294843,-4.352663,9.212164,-1.97896,3.189496,0
3033527998,-1.62288,-2.425899,0.279995,5.706097,-1.040641,-5.551823,6.199729,-0.917675,-0.696496,0
3033561332,-0.065616,-1.340438,0.434201,3.254931,-0.334573,-5.559251,1.448847,0.664318,-3.927429,0
3033594666,0.169432,0.286987,-0.275891,1.415079,0.638428,-5.443382,-2.483331,2.498642,-5.826042,0
3033628000,-0.615302,1.854558,-0.982962,-2.181716,1.647992,-1.604535,-5.280127,2.314268,-6.253384,0
3033661334,-0.728126,1.651762,-0.672774,-4.284416,2.583107,-1.055801,-7.759488,2.924217,-7.080799,0
3033694668,2.037215,1.471106,0.137358,-4.917033,1.906273,-0.763139,-8.819491,3.525597,-5.426649,0
3033728002,1.737457,2.075768,-0.327497,-4.049994,2.217301,-0.153799,-7.75761,3.56978,-5.34535,0
3033761336,0.367026,2.151865,0.182042,-4.766606,0.916856,0.225278,-4.730455,2.470933,-3.736725,0
3033794670,0.077026,1.569632,-0.749525,-3.486009,0.614066,2.948501,-3.001166,2.061048,-3.215772,0
3033828004,0.087603,2.670128,-0.86777,-3.204343,-1.324298,5.399004,-1.898373,1.973515,-1.757452,0
3033861338,-0.228238,1.300748,-1.2753,-1.706094,-2.530169,5.848607,1.235524,0.539337,0.252319,0
3033894672,-1.176238,1.418503,-0.17607,0.424414,-1.985626,4.405281,3.506701,-1.358529,3.217688,0
3033928006,0.056413,-0.087848,0.147781,1.495173,-3.278188,4.244584,4.839234,-3.62128,4.341811,0
3033961340,-0.561384,-3.557168,0.297043,2.377424,-2.387264,0.988729,5.985711,-5.512013,4.504733,0
3033994674,-1.336321,-4.770292,1.358363,3.954566,-1.256049,-0.843703,5.019223,-8.112323,5.999113,0
3034028008,-0.178049,-5.015115,0.391918,4.053685,-1.153361,-2.665613,3.889522,-3.828506,4.774991,0
3034061342,-0.151338,-3.452069,1.013051,3.880504,-0.74988,-4.356208,3.420476,-4.281595,6.165318,0
3034094676,0.408213,-2.053418,1.609818,2.893658,-0.57902,-5.27256,2.728907,-1.549798,6.362968,0
3034128010,0.228733,-0.367502,2.246374,2.00268,-0.738438,-4.345566,2.001595,0.002917,4.359493,0
3034161344,-0.293103,1.3122,2.111674,0.640349,0.053913,-3.788898,-0.19083,2.410066,1.88165,0
3034194678,0.700831,2.29088,0.987064,-1.093102,-0.176878,-0.258526,-1.958639,3.315521,-1.074881,0
3034228012,0.833582,2.267116,0.33949,-2.279417,0.309353,1.254531,-3.665311,1.852356,-1.779458,0
3034261346,1.120191,2.451131,0.250176,-2.848185,0.183247,2.538661,-4.946069,2.968502,-4.019791,0
3034294680,0.496883,2.356062,-0.614823,-3.137417,-0.202566,4.403515,-6.133846,2.960369,-4.84992,0
3034328014,-0.576291,2.066932,-1.440993,-3.87359,-0.351104,4.89073,-6.995883,2.783817,-5.140611,0
3034361348,-1.176187,1.774578,-1.583176,-2.971422,0.491999,4.98862,-6.790678,2.326076,-4.881403,0
3034394682,-0.91765,1.151556,-1.321457,-1.410393,1.955112,5.039139,-4.607725,1.698925,-4.04959,0
3034428016,-1.089142,1.207745,-0.379442,-1.76895,2.093262,3.561292,-1.098888,0.872005,-2.311807,0
3034461350,-1.44608,1.043633,0.786462,0.894118,2.588385,3.996613,1.621704,0.891192,0.535326,0
3034494684,-0.753919,0.063163,1.019391,1.939335,2.358518,3.215123,3.704422,-0.483724,5.218205,0
3034528018,1.106641,-1.980166,2.445177,2.311615,1.651828,3.058928,5.897931,-3.207825,7.015171,0
3034561352,1.291619,-3.294724,3.006039,2.583841,0.797716,1.843151,7.261319,-7.381438,5.583091,0
3034594686,0.040753,-3.544151,3.064849,3.063818,-0.13561,0.156138,6.106303,-6.011117,5.506839,0
3034628020,-0.695323,-2.435123,3.044602,2.894285,-1.040152,-0.8478,2.141369,0.199963,5.945545,0
3034661354,-0.189633,-0.967696,3.534074,2.228547,-2.367822,-0.389709,1.93774,0.561315,4.963646,0
3034694688,0.362641,-0.4603,4.06086,1.536533,-2.199918,-0.185464,1.046244,-0.025286,5.236543,0
3034728022,0.628485,-0.397148,2.707886,0.719815,-2.49925,0.334103,-1.736933,2.262227,4.975215,0
3034761356,0.12783,-0.172559,2.154748,-0.646021,-2.508661,0.31231,-1.619406,1.40841,2.680445,0
3034794690,-0.712641,0.910232,1.954145,-0.690981,-0.933538,-0.274622,-2.274865,0.359385,2.410164,0
3034828024,-0.20887,0.578956,1.002836,-0.461477,0.802901,-2.309212,-3.486923,2.273875,0.464678,0
3034861358,0.905643,0.496692,0.946552,-1.069832,1.352586,-2.111722,-2.573399,0.425806,-0.936376,0
3034894692,0.452961,1.273238,1.114509,-1.441532,1.287039,-0.837587,-2.115801,0.329568,-1.396381,0
3034928026,0.231056,0.764717,0.320308,-2.520113,0.680664,1.196554,-2.079778,-0.050036,-1.794726,0
3034961360,-0.100622,1.02351,-0.550911,-3.269474,1.422131,3.145758,-1.310596,-0.631951,-2.593701,0
3034994694,-0.10739,1.034714,-1.159442,-3.828415,-1.197781,5.206567,-2.60176,0.242216,-2.804401,0
3035028028,0.094944,0.587378,-1.063392,-1.135468,-0.906504,6.029155,-2.973423,0.323114,-3.561163,0
3035061362,-0.373897,1.548825,-1.138336,-1.210218,-1.14443,4.835537,-3.460872,1.28416,-4.370706,0
3035094696,-1.183759,1.894792,-1.343174,-1.516553,-1.699056,4.727691,-2.467433,1.690912,-4.861311,0
3035128030,-0.613783,1.385487,-0.443224,-0.694564,0.074495,3.659734,-0.38339,1.481296,-3.707073,0
3035161364,0.135892,0.035181,0.320468,-1.097597,-0.244985,2.429223,2.813455,0.394085,-2.321756,0
3035194698,0.23363,-0.954226,0.802908,-0.893153,0.245096,0.407364,5.994011,-0.515391,0.520363,0
3035228032,-0.117159,-1.658352,0.081476,0.649278,0.115171,-1.10185,7.024668,-3.147084,4.399628,0
3035261366,0.807476,-4.661027,-1.068018,2.063817,0.121452,-2.176919,6.086406,-8.438043,6.503405,0
3035294700,0.754216,-5.849778,-0.980666,4.658045,0.326151,-3.93586,5.89159,-5.238651,5.240091,0
3035328034,0.412904,-3.692141,-0.686131,4.909693,0.244236,-4.946233,4.09024,0.409683,6.433365,0
3035361368,0.436148,-2.286883,-0.369559,4.409659,-0.314958,-4.505532,3.654084,1.602765,7.93564,0
3035394702,0.700736,-1.310799,0.22296,3.834641,-0.227191,-4.809352,4.078432,2.303123,5.921753,0
3035428036,-0.919155,0.299289,0.015883,1.965756,-0.427624,-4.536541,0.10162,3.389506,2.09664,0
3035461370,-1.467974,1.75033,0.040812,0.862786,-0.112501,-4.355396,-2.784055,3.175192,1.050287,0
3035494704,0.114794,2.218785,0.164393,-1.014829,0.326548,-1.84615,-5.326416,2.670508,-2.165964,0
3035528038,0.408035,3.092332,0.640472,-2.536783,0.720276,-0.775006,-6.514532,1.244698,-4.602626,0
3035561372,1.107445,2.627482,0.521486,-5.104568,-0.576951,2.361008,-8.2804,1.234123,-5.746581,0
3035594706,1.292551,2.260939,0.589906,-6.748724,-0.977888,4.257338,-7.764731,0.38478,-5.993378,0
3035628040,0.711286,1.605477,-0.101498,-5.733731,-1.682697,6.527676,-6.848472,0.257404,-5.694618,0
3035661374,-0.305786,1.290652,-0.614202,-4.274905,-1.263124,5.555552,-5.439248,-0.429259,-6.187636,0
3035694708,-0.865455,1.674707,-0.964907,-1.17158,0.38756,4.433517,-4.445636,-0.443828,-6.368175,0
3035728042,-1.516965,1.429174,0.256329,0.044299,0.728425,3.461349,-3.157551,0.460749,-6.695532,0
3035761376,-0.20727,0.295888,0.404047,0.937052,0.866025,2.827219,0.684376,0.94559,-4.480225,0
3035794710,-0.640046,-0.468277,-1.518314,2.699114,0.98419,1.279309,5.560399,0.288845,-1.423348,0
3035828044,-0.486995,-1.079146,-0.847614,2.995373,0.573393,0.53664,9.500458,-1.266248,1.764242,0
3035861378,0.303629,-2.994375,-1.931099,4.122487,0.895389,-0.312215,9.87974,-2.798815,5.76068,0
3035894712,0.820587,-3.655325,-2.614819,4.079762,0.792258,-1.662494,9.724582,-4.679124,7.807751,0
3035928046,0.221654,-4.077199,-1.165471,3.361646,0.317276,-2.411322,7.930261,-3.405042,6.076777,0
3035961380,-0.576628,-1.870228,0.120468,3.083219,0.114984,-1.974722,4.771946,0.521765,5.294147,0
3035994714,-0.236414,-0.867408,0.430736,2.286549,-0.437289,-3.054396,3.308487,1.215912,4.270031,0
3036028048,0.177916,-0.148188,0.28578,1.984437,-1.399655,-4.496294,1.145945,1.759624,2.476082,0
3036061382,0.485077,1.148193,0.964724,2.215874,-1.094102,-4.594349,-1.710625,2.662998,2.049501,0
3036094716,0.754933,1.264372,1.455341,-0.173527,-0.735435,-4.280953,-3.530606,1.686446,1.199709,0
3036128050,0.232777,1.622675,1.801782,-0.298557,-0.338605,-4.813039,-4.996962,1.168153,0.908472,0
3036161384,0.207971,1.938846,1.069262,-3.326018,-0.016031,-2.214956,-5.413073,0.238391,-0.330403,0
3036194718,0.001866,1.311746,0.935198,-6.997721,0.237271,1.764034,-5.597703,-0.687041,-2.170307,0
3036228052,-0.07557,1.378606,0.246619,-8.264197,0.352839,2.892722,-4.663862,-0.734356,-2.430942,0
3036261386,0.277683,1.360864,-0.785474,-6.788492,-0.367249,3.600287,-4.119803,-0.80678,-1.992939,0
3036294720,0.177971,1.445687,-0.755702,-3.059578,-0.815213,4.353678,-5.100564,-0.361813,-2.90823,0
3036328054,-0.179886,0.842006,-0.315239,-1.646663,-0.075025,5.333156,-5.696422,-1.27856,-4.71805,0
3036361388,-0.715018,0.265898,0.073085,-0.805788,0.318945,5.178824,-4.096643,-1.669878,-4.767146,0
3036394722,-0.672057,-0.353729,0.076711,-0.494341,0.227122,4.066313,-2.674728,-0.476507,-4.224555,0
3036428056,-0.369372,-0.459774,-1.251995,0.308578,0.437247,1.979059,0.818588,-0.340093,-3.255714,0
3036461390,-0.418182,-0.265587,-1.287239,0.908376,0.274599,-0.175027,5.956377,0.586356,-2.045557,0
3036494724,1.299118,-1.255756,-2.994102,1.298696,0.124261,-1.141189,9.726796,-1.719671,-0.362514,0
3036528058,1.179052,-2.051239,-2.55416,2.052394,0.252503,-1.321528,11.600098,-2.451943,1.10063,0
3036561392,0.656143,-1.918619,-2.350908,2.025063,-0.174183,-1.120051,9.037199,-1.031619,1.01866,0
3036594726,0.065855,-0.975457,-0.729506,3.153859,-0.749315,-1.30238,6.026055,-0.771639,1.43698,0
3036628060,-0.382854,0.009051,0.33705,4.129494,-1.62598,-2.134843,2.862634,0.786878,1.677228,0
3036661394,-0.06767,0.106048,0.844024,3.326719,-1.85721,-2.095347,-0.091233,1.021092,1.876186,0
3036694728,-0.011663,0.344684,1.212942,3.452871,-1.612629,-2.472113,-1.620946,0.859243,2.013382,0
3036728062,-0.262634,0.495118,1.494994,2.53463,-1.101276,-3.267168,-3.304293,1.11997,2.306833,0
82179762,0.781408,0.091089,-0.337019,-0.354025,-0.084458,0.459526,-2.051472,-0.084442,2.550524,0
82213096,1.376823,1.343478,0.323916,-0.711399,-0.033168,1.221342,-2.261056,-1.15383,5.042,0
82246430,1.133314,1.315828,0.747347,-0.940124,0.277532,1.987659,-5.444211,-3.687802,9.076469,0
82279764,-0.418825,0.344443,0.715014,-1.229939,0.326121,2.83508,-5.552204,-3.874199,12.38765,0
82313098,-1.085409,0.771599,1.062704,-1.25849,0.412179,2.939679,-4.025636,-1.313424,14.258276,0
82346432,-3.01198,-0.470682,1.743851,-1.805546,0.407213,3.046835,-1.100755,2.003114,9.415186,0
82379766,-3.685672,0.397114,2.278627,-2.048639,0.302841,2.876063,3.068344,1.699576,3.257185,0
82413100,-3.20264,0.107547,2.162254,-2.07759,0.116911,3.012901,1.590923,3.039491,-4.113365,0
82446434,-1.79594,0.15005,2.272935,-2.204009,-0.284168,3.510022,1.387897,0.122507,-6.057629,0
82479768,-0.553618,-0.516403,1.778017,-1.538551,-0.501352,3.479418,0.598333,-1.123441,-6.00792,0
82513102,-0.116783,-1.796762,0.308689,-0.86387,-1.00494,3.82204,-0.144083,-3.130074,-6.330232,0
82546436,0.884645,-2.394172,-0.263066,-0.274602,-0.681171,3.695079,-1.148645,-3.402739,-5.832409,0
82579770,1.507619,-1.725051,-1.224855,0.825559,-0.38192,2.59602,-1.305933,-2.072922,-5.07507,0
82613104,3.096096,-0.891837,-0.713659,0.809957,-1.604782,1.266926,-1.277033,-1.193704,-5.830999,0
82646438,3.667516,-0.066706,-0.760727,0.46297,-0.656967,0.826572,0.21516,0.970461,-6.276353,0
82679772,2.088402,0.635428,-2.926523,0.788835,0.693888,0.322455,4.467889,3.301587,-4.649876,0
82713106,0.632426,0.972522,-3.59759,0.312865,1.21497,-1.374661,8.195336,5.512408,-3.75387,0
82746440,0.201382,3.217291,-4.850264,0.498513,1.09141,-1.71981,11.465621,4.047763,-3.980244,0
82779774,0.701566,2.501558,-4.142143,-0.801372,1.212259,-3.021646,10.662725,3.907287,-3.307325,0
82813108,0.702511,0.765055,-3.486997,-1.26212,1.130687,-2.669189,9.962435,5.182229,-3.170787,0
82846442,0.391789,0.009733,-3.036359,-2.027876,1.020553,-3.14568,5.897533,2.632493,-4.659633,0
82879776,-0.616374,0.165018,-1.326995,-3.490278,0.178671,-3.662575,-0.625403,0.858136,-2.254977,0
82913110,-0.351975,0.758386,0.268425,-3.409682,0.115557,-4.117857,-4.13801,0.260682,-0.176932,0
82946444,-0.958012,-0.660345,2.049068,-1.74767,-0.913611,-4.642384,-5.746107,-2.030353,1.959492,0
82979778,-1.435792,-0.927933,3.434242,-0.78841,-0.839554,-5.82717,-9.576755,-3.661086,4.078875,0
83013112,-0.728091,0.193522,3.452036,1.253998,-1.154318,-6.636163,-10.906488,-5.802489,4.368604,0
83046446,-0.313483,0.637974,3.471782,3.929506,0.539478,-6.521084,-9.155243,-4.556417,3.73981,0
83079780,-0.653645,0.343093,2.253227,8.948483,3.385189,-5.293788,-7.384366,-2.627029,1.943666,0
83113114,-1.006506,-0.076065,0.733936,10.767518,4.951031,-3.888746,-5.770022,-1.626322,0.313577,0
83146448,-0.863704,-0.296804,0.577993,6.873957,3.978553,-0.632866,-4.355392,-1.587105,-1.142188,0
83179782,-0.428428,-0.800497,0.442107,3.824104,2.650817,0.008155,-3.870426,-0.78894,-3.059325,0
83213116,0.035796,-0.854982,0.583981,1.174637,0.347496,1.618575,-1.017374,-0.0837,-4.819283,0
83246450,0.062956,-0.579063,-1.923405,-1.775367,-1.200328,3.135624,5.530077,2.154997,-4.928771,0
83279784,0.590838,2.269217,-4.481934,-3.727587,-3.14647,3.644964,12.324347,4.767728,-2.300303,0
83313118,1.205388,3.388764,-5.886911,-5.034691,-4.072835,3.21642,17.928068,0.877841,-0.765689,0
83346452,1.519346,1.388662,-4.582849,-6.591777,-3.432214,1.521521,12.687954,1.179407,-1.815614,0
83379786,1.388414,0.323887,-3.969468,-7.139779,-2.384772,0.160519,9.566213,2.474553,-1.960724,0
83413120,0.614496,-0.410776,-2.661337,-5.747881,-1.908024,-1.238219,5.018072,2.379659,-2.452007,0
83446454,0.546844,-0.479611,-1.123431,-4.492325,-1.661832,-3.055723,-1.099456,0.080413,-1.59365,0
83479788,1.090868,0.043343,0.784875,-3.781842,-1.808069,-3.329883,-4.385639,-0.628253,-0.254371,0
83513122,-0.353775,-0.859006,2.306787,-1.854593,-1.084455,-4.110957,-7.853936,-2.393162,2.04344,0
83546456,-1.627329,-0.41106,3.673594,0.100375,-0.478665,-3.378772,-9.198068,-3.220959,2.143171,0
83579790,-2.100047,0.570123,3.032924,2.668377,0.257494,-2.87456,-9.989985,-2.938633,2.060566,0
83613124,-1.6786,0.673509,3.214029,6.658981,2.47839,-0.974505,-9.3543,-2.452762,1.570089,0
83646458,-1.2353,-0.075234,2.884404,11.814467,6.003054,3.909908,-7.756942,-1.555662,0.603443,0
83679792,-1.035016,-0.451222,1.45289,11.327393,8.273564,4.273826,-5.453411,-0.813651,-0.321864,0
83713126,-1.693543,-0.853681,0.95953,6.161852,7.72567,3.995148,-2.545367,1.163307,-1.170668,0
83746460,-0.428125,-0.116296,-0.122404,4.623535,3.123021,5.010385,-1.196005,0.439705,-3.55662,0
83779794,0.213788,-1.157421,0.638412,1.807886,0.497821,2.613982,3.279355,2.096637,-2.53844,0
83813128,1.032249,0.33095,-0.979716,-1.613795,-1.715244,1.233474,8.385462,3.75149,-0.163252,0
83846462,3.30126,2.639164,-3.544459,-4.466334,-3.604874,0.75154,12.506306,0.525124,2.006564,0
83879796,3.741686,1.65125,-3.847201,-6.437928,-4.411186,-0.727094,15.064997,-2.788898,3.847541,0
83913130,3.791338,0.459478,-3.21124,-7.272621,-4.223989,-1.841246,11.685846,0.167886,2.508651,0
83946464,3.534776,-1.116444,-1.970543,-7.057221,-3.162277,-2.186698,9.495012,1.652456,2.951949,0
83979798,1.719433,-1.11957,-1.209282,-6.780785,-3.057624,-3.671956,6.601398,1.638274,0.74007,0
84013132,0.346451,-0.215392,0.223215,-5.377456,-2.0858,-4.432605,2.68178,1.457238,0.429363,0
84046466,0.895748,-0.408467,0.506043,-3.848454,-1.262572,-4.368187,-2.611826,0.928076,-0.172648,0
84079800,-1.309885,-0.059823,1.088001,-1.771511,-0.876174,-2.599586,-6.848171,-0.576798,-2.428856,0
84113134,-2.893278,-0.067133,0.85248,1.501885,1.15431,-1.061843,-8.993251,-1.293727,-2.645053,0
84146468,-2.86982,0.69982,1.550578,3.611784,0.548485,-2.217748,-10.251645,-2.223666,-2.697242,0
84179802,-2.896275,1.674199,3.07631,7.401,4.270854,4.802718,-10.161489,-2.390179,-2.200719,0
84213136,-2.608994,1.410255,1.769064,8.542701,4.562818,6.407463,-9.372403,-1.60695,-2.792022,0
84246470,-2.715121,0.713698,0.799223,7.282638,6.575705,6.492292,-7.076472,-0.722532,-2.423205,0
84279804,-2.123251,-0.247255,0.074689,5.424943,5.044811,5.196607,-5.336988,-0.415869,-3.274623,0
84313138,-1.713199,-1.073513,0.111749,4.471492,2.287708,3.881653,-2.847277,1.421252,-3.346385,0
84346472,-0.270232,-0.86313,-0.203148,3.208996,0.50199,2.72929,0.683326,2.869259,-2.878683,0
84379806,-0.082999,-1.609203,0.252968,0.398721,-0.625668,1.401594,5.354694,4.162892,3.256633,0
84413140,3.195458,2.078884,-2.949518,-2.403648,-2.185252,-0.439724,10.286891,1.353985,7.092188,0
84446474,5.362886,0.974418,-0.837994,-3.922954,-3.06041,-2.013012,10.71082,-2.495641,7.522015,0
84479808,5.472361,1.090568,-1.020598,-5.010402,-2.779463,-3.557453,9.610522,-2.610548,7.936071,0
84513142,4.002666,0.15197,-0.1657,-5.698449,-3.260586,-3.974742,8.589622,-0.517208,7.056765,0
84546476,3.232144,-0.835685,0.354861,-5.663893,-2.731117,-4.902302,7.160936,1.120314,5.608702,0
84579810,1.247895,-0.838279,1.285385,-4.68078,-2.060424,-5.665502,4.153057,2.338513,3.535943,0
84613144,0.144484,-0.363398,1.264137,-3.585408,-2.133515,-5.902153,1.849726,1.897769,0.661904,0
84646478,-1.439727,0.589347,1.975726,-0.611142,-0.86809,-2.268429,-1.344533,0.486701,-1.433801,0
84679812,-2.150042,0.711901,1.3311,0.83594,-0.059256,-1.434485,-4.422782,0.016898,-2.768172,0
84713146,-2.454927,0.76317,1.111301,3.188776,1.517861,1.685972,-7.177955,-1.184548,-4.588916,0
84746480,-3.33465,0.261408,-0.038821,4.964059,1.846866,6.333323,-8.123524,-1.56022,-6.159186,0
84779814,-2.931633,0.486626,-0.495491,4.031964,3.390943,4.737952,-8.710289,-0.929342,-5.411662,0
84813148,-2.512886,0.452316,-0.981125,1.280566,5.113798,5.880192,-7.423851,-1.164034,-6.491748,0
84846482,-2.227817,-0.182828,-1.520956,1.503902,3.440086,5.099125,-6.064504,-0.870901,-6.403495,0
84879816,-1.306683,-0.825121,-2.537245,1.582928,3.061689,4.991168,-3.998599,-0.424104,-6.430187,0
84913150,-0.697524,-1.513633,-2.122857,1.276244,3.047803,3.865302,-1.242287,0.154619,-6.266687,0
84946484,-1.395665,-1.675316,-0.936727,0.963264,2.061652,3.441644,1.234327,1.669479,-3.635495,0
84979818,0.776489,0.134444,-1.653357,-2.007333,0.404168,-0.680649,4.064917,1.894001,0.627734,0
85013152,1.994694,0.139314,-2.039499,-4.000453,0.774603,-2.057165,6.187505,0.408554,4.306535,0
85046486,3.08543,0.802837,0.091002,-4.005118,0.481016,-4.724156,8.913245,-2.493492,8.136341,0
85079820,4.43941,1.440191,1.130751,-3.045638,-0.523588,-5.165859,10.042237,-5.26772,7.854149,0
85113154,3.844431,1.395822,1.2,-2.389614,-1.226256,-4.647649,7.360051,-2.446702,7.728096,0
85146488,2.325495,1.347489,1.418584,-1.963894,-1.738851,-4.809926,4.37497,0.863269,6.064985,0
85179822,0.581051,1.005877,1.533198,-1.000954,-2.280425,-5.140799,-0.331124,3.410706,3.670033,0
85213156,-0.278303,0.298953,1.448143,0.673042,-2.349674,-2.668817,-4.597483,4.204559,0.552835,0
85246490,-1.159212,0.510517,1.124416,2.258944,-3.263563,0.989089,-5.886738,3.666928,-2.322915,0
85279824,-1.642978,0.568774,0.734342,2.23861,-3.104739,2.251695,-5.552134,2.801967,-3.388275,0
85313158,-1.456484,0.681711,-0.042864,1.821245,-3.51124,2.398109,-6.155272,1.808273,-3.869828,0
85346492,-1.102949,-0.617716,-0.797728,2.451227,-2.681091,4.231785,-6.036302,1.140622,-4.134545,0
85379826,-1.169328,-0.559156,-0.699153,2.766685,-1.038474,5.865368,-6.575467,1.091707,-4.662874,0
85413160,-1.371368,-0.740405,-0.753011,3.215489,-0.478788,5.467032,-4.22084,0.816891,-4.086086,0
85446494,-1.56605,-1.323119,-0.184897,4.2583,1.460503,4.389723,-2.879931,1.672823,-2.876419,0
85479828,-1.094336,-1.349339,-0.53306,1.727944,0.558074,4.008966,-0.320362,2.097899,0.332438,0
85513162,-0.246736,-0.33751,-0.640604,0.638619,0.72874,1.560421,2.644012,1.228054,3.811721,0
85546496,1.012977,1.236071,1.120105,0.008408,1.056131,-1.160664,7.427306,0.214265,3.998388,0
85579830,2.914242,2.527945,1.739402,-1.657812,0.416076,-2.344516,9.996945,-6.145542,5.112919,0
85613164,4.006135,0.399749,0.685811,-3.509854,-0.046963,-2.532931,7.119256,-7.032563,4.60885,0
85646498,2.795584,-0.490151,2.159232,-4.727243,-0.899785,-2.555634,5.555758,-3.731211,4.786625,0
85679832,1.710317,0.516295,1.897703,-5.17936,-0.914716,-2.108397,4.516709,-1.486703,7.639872,0
85713166,2.341867,1.627583,2.186116,-4.39881,-1.1648,-1.946324,3.046022,0.586621,10.142193,0
85746500,0.616007,2.266304,2.741786,-1.81753,-0.697977,-0.29493,2.24788,1.70346,6.805014,0
85779834,-0.660482,-0.729285,3.496131,0.766641,-0.769971,0.222789,-2.767157,2.965286,3.4563,0
85813168,-1.877005,-1.837107,2.056821,2.532201,0.731445,1.913595,-4.424695,2.222993,-1.530118,0
85846502,-2.806569,-0.636342,1.671112,3.71712,1.823252,3.540228,-5.279666,1.234528,-3.99047,0
85879836,-1.983903,0.607467,0.294229,3.635086,3.778965,4.462517,-6.929842,0.844883,-4.89316,0
85913170,-1.761199,0.335672,0.201834,1.997338,4.68724,4.993867,-4.900797,-0.264013,-6.173297,0
85946504,-1.736274,-0.497715,0.178379,0.772007,3.407382,5.675838,-4.031284,-1.020668,-7.276092,0
85979838,-1.282631,-1.942553,-0.02313,1.139133,3.817819,4.61771,-2.703713,-1.180734,-7.338652,0
86013172,-1.260081,-2.163148,-0.203607,-0.182832,3.708965,7.029249,-2.740968,0.123487,-6.181615,0
86046506,-0.924668,-1.884568,-0.334663,-0.24482,-0.464181,4.650119,-1.087982,2.11028,-4.370677,0
86079840,-0.459921,-1.220785,-0.375071,-1.441674,-0.163514,3.793741,0.861038,3.457898,0.777735,0
86113174,0.497346,0.494055,-0.441937,-1.65516,-0.582659,0.836544,4.380672,3.551046,5.246111,0
86146508,2.545743,3.068044,-0.182298,-1.695894,-1.059681,-2.088964,7.415462,0.562807,7.920446,0
86179842,4.940297,3.660381,0.095788,-1.862741,-1.542214,-3.756552,7.194065,-5.307737,8.129784,0
86213176,4.89728,1.89054,0.238043,-1.563797,-1.40658,-4.264817,5.915688,-3.943601,6.499969,0
86246510,2.919659,0.074295,1.110649,-1.602598,-1.866556,-3.991448,4.044929,-0.406649,7.571215,0
86279844,1.861211,0.851169,1.639182,-1.767664,-2.022775,-4.756815,3.852894,1.335257,7.066324,0
86313178,1.155587,0.865594,2.185616,-1.93095,-1.825117,-4.51748,2.868627,2.284304,6.516691,0
86346512,0.320955,1.168389,1.196848,-1.693058,-1.621716,-2.879953,2.557953,2.243508,4.441285,0
86379846,-0.289729,-0.645318,0.348403,-0.413013,-0.628532,-2.631458,0.368725,2.934482,2.582982,0
86413180,-0.500221,-2.004354,-0.14425,0.602405,-0.676487,-1.409457,-0.935956,1.298248,-1.747591,0
86446514,-2.376134,-1.058762,0.692951,1.621383,0.26132,-0.30608,-3.544425,0.752915,-4.535801,0
86479848,-1.42664,0.382994,-0.202955,2.664591,1.350262,1.660139,-4.499145,-0.270254,-4.738012,0
86513182,-2.167554,0.783296,-0.593658,3.29865,2.35833,2.326501,-5.744753,-1.287282,-6.720356,0
86546516,-2.548927,0.154413,0.350517,3.451672,3.379879,5.163218,-7.801955,-1.532083,-8.245622,0
86579850,-1.684418,0.901854,-0.755507,3.363193,4.731517,7.647068,-6.48492,-1.941665,-7.352122,0
86613184,-1.95924,0.059827,-0.511698,2.696533,4.376082,5.999935,-6.058836,-2.027904,-7.609505,0
86646518,-2.131151,-0.769237,0.578766,1.541203,0.332012,5.441543,-6.778946,-1.20804,-8.120101,0
86679852,-1.558454,-0.330124,0.712674,1.19447,-0.624248,3.509582,-3.511013,-0.013546,-6.480819,0
86713186,-0.387937,-0.210695,0.105396,0.813251,-0.172928,2.004177,-0.778414,2.324854,-3.477122,0
86746520,0.177338,-0.277862,-0.726384,-1.019427,-2.908329,-0.590225,4.213914,3.952863,3.034822,0
86779854,1.734221,-0.03,-1.410171,-2.475665,-3.080287,-0.704104,7.197448,2.210835,6.536592,0
86813188,2.368501,0.543429,0.636975,-3.487273,-2.650497,-1.957307,6.493545,1.33713,9.434204,0
86846522,4.446326,2.124769,-1.154648,-4.029159,-2.473212,-3.013308,7.07062,-0.900303,8.921732,0
86879856,3.450223,1.514043,-0.795877,-4.193711,-2.490399,-3.522493,8.025804,-1.902083,6.717396,0
86913190,2.304499,0.534873,-0.992358,-3.380633,-1.296194,-3.735474,5.589945,1.079846,6.773115,0
86946524,1.016424,-0.368849,0.175595,-3.081714,-0.436789,-4.267192,4.290799,0.357845,4.486268,0
86979858,0.121742,0.19566,0.354879,-2.297424,-0.138859,-5.775239,1.301678,1.213877,2.603249,0
87013192,-0.850392,0.17461,0.377919,-1.076677,-0.42147,-4.775768,0.038965,0.883693,1.105293,0
87046526,-0.999971,0.099976,0.6333,1.125538,0.15271,-2.712704,-2.344951,0.891665,-0.394773,0
87079860,-1.858706,0.295984,0.486993,2.446188,0.366839,-1.988448,-2.857608,-0.432421,-2.750823,0
87113194,-2.278186,-0.147904,0.258821,3.046981,0.652817,0.166276,-5.583181,-0.233803,-3.015965,0
87146528,-2.222797,-0.207369,-0.192147,3.428733,1.455468,2.375431,-6.160375,-1.172248,-4.92386,0
87179862,-1.445351,-0.023168,0.520119,3.929188,3.194675,5.449024,-6.200517,-1.821105,-5.999646,0
87213196,-0.50757,0.569929,-0.172208,3.052235,3.319917,5.009821,-6.205832,-2.139995,-6.155593,0
87246530,-1.215902,-0.108839,-0.882516,2.106565,3.960835,2.986567,-5.587635,-1.66694,-6.225096,0
87279864,-1.370792,-0.726726,-0.620187,0.946831,2.360346,5.871793,-4.200725,-1.356982,-5.440719,0
87313198,-0.879885,-0.351467,-0.339414,-0.675223,-0.23495,3.351526,-2.865872,-0.677833,-5.370434,0
87346532,-0.594396,-0.651817,-0.751612,-0.218554,1.392966,3.317579,-0.496149,0.842262,-4.438448,0
87379866,-0.272701,-0.021734,-0.515175,-1.125324,-0.795406,2.236963,2.224777,1.708707,-2.879365,0
87413200,0.588033,-0.471596,-0.555161,-1.779982,-2.061562,0.345252,5.62906,2.232667,0.445895,0
87446534,2.074293,1.566486,-2.097885,-2.336416,-2.234588,-1.759937,12.019869,1.099321,7.950924,0
87479868,3.533997,1.670857,-2.61431,-2.57463,-2.790063,-1.662351,12.261229,0.45619,10.893442,0
87513202,3.679386,-0.220557,0.437756,-3.151464,-3.494842,-3.007617,6.323909,1.96456,7.368614,0
87546536,1.684305,-0.738147,0.700549,-3.494066,-2.735458,-4.526313,4.636946,2.32786,6.085054,0
87579870,1.16069,0.30851,0.693482,-3.600666,-1.758445,-5.123759,1.917986,2.592136,3.963686,0
87613204,0.289224,0.780009,1.129222,-2.444354,-1.019617,-4.921841,-0.24449,2.22001,2.471611,0
87646538,-0.104723,0.872947,1.288167,-1.338726,-0.946785,-4.232279,-2.579632,2.657721,2.563028,0
87679872,-1.54833,0.218614,0.479706,-0.223259,-0.264151,-4.631822,-3.285933,1.526035,1.415262,0
87713206,-1.917133,0.019084,1.45565,0.754886,0.774333,-4.615489,-4.175157,0.234767,-0.29641,0
87746540,-0.987404,0.659183,1.098048,3.317327,2.58767,-0.626987,-4.733542,-1.523462,-2.327303,0
87779874,-0.90875,0.145024,0.72446,5.882172,4.570075,4.016973,-5.038246,-3.310476,-4.274089,0
87813208,-0.914285,-0.657103,-0.220894,6.0688,5.480799,2.815639,-4.628068,-3.757398,-4.79008,0
87846542,-0.962497,-0.412982,-1.610961,4.586872,3.608928,3.603398,-5.070935,-3.260432,-4.75321,0
87879876,-1.347412,-0.498762,-1.425982,1.88831,1.729971,5.485836,-4.705087,-2.712282,-4.917707,0
87913210,-1.060059,-0.459907,-0.727405,0.540516,0.434596,5.523812,-4.305978,-2.117791,-4.265509,0
87946544,-0.832912,-0.035749,-0.801574,0.003775,-0.873581,4.803432,-4.158004,-1.871384,-3.485578,0
87979878,-0.917198,-0.826388,0.483132,0.244991,-0.700457,5.263498,-2.663641,-1.02378,-3.698233,0
88013212,0.160669,-0.127992,-0.30662,-0.581441,-1.981178,3.215637,-1.000059,-1.001857,-4.255998,0
88046546,-0.686365,-0.933329,-0.343181,-0.635178,-1.631209,2.024468,2.094056,2.080817,-0.646573,0
88079880,0.864471,1.090598,-1.904669,0.327049,-0.844306,0.96089,6.609116,1.100756,0.660712,0
