sep=,
DeviceTag:,D_Wrist
FirmwareVersion:,2.2.1
AppVersion:,2023.6.0
SyncStatus:,Synced
OutputRate:,30Hz
FilterProfile:,General
Measurement Mode:,Sensor fusion Mode - Complete(Quaternion)
StartTime: ,2026-09-07_17:15:28_521 AEST
© Movella Technologies B. V. 2005-2026

PacketCounter,SampleTimeFine,Quat_W,Quat_X,Quat_Y,Quat_Z,FreeAcc_X,FreeAcc_Y,FreeAcc_Z
1,3926116534,0.786353,-0.563053,0.193344,0.165054,0.701279,-1.316141,-0.994994
2,3926149868,0.787505,-0.563221,0.180884,0.172926,0.499854,-1.409303,-1.094087
3,3926183202,0.788252,-0.564112,0.164853,0.182389,0.960628,-1.553250,-1.409491
4,3926216536,0.787328,-0.566936,0.146411,0.193047,0.777550,-0.296553,-0.850891
5,3926249870,0.784274,-0.572339,0.126351,0.203429,0.628509,0.475898,-0.666406
6,3926283204,0.779297,-0.580295,0.105832,0.211564,-0.794757,-0.267956,-0.204830
7,3926316538,0.775466,-0.587140,0.082502,0.217066,-0.707574,1.711550,0.500184
8,3926349872,0.772323,-0.592980,0.059683,0.219852,-0.903604,2.312302,0.416106
9,3926383206,0.769240,-0.598552,0.040251,0.219978,-1.357503,2.606116,1.390941
10,3926416540,0.768241,-0.602241,0.026254,0.215471,-1.460944,3.645391,1.166628
11,3926449874,0.765600,-0.608709,0.020790,0.207134,-1.313569,2.707822,1.352720
12,3926483208,0.761597,-0.617178,0.023434,0.196259,-1.320679,2.492437,1.367836
13,3926516542,0.759094,-0.623961,0.032638,0.182726,-0.819245,1.768087,1.265926
14,3926549876,0.759903,-0.625947,0.047796,0.168695,-1.005396,1.063197,1.904074
15,3926583210,0.765438,-0.620742,0.067644,0.155604,-0.924479,1.089887,1.482907
16,3926616544,0.765473,-0.620399,0.089428,0.145477,-1.120217,0.359329,-0.103470
17,3926649878,0.758712,-0.627084,0.109998,0.137941,-0.472251,0.483223,-0.113112
18,3926683212,0.754405,-0.630834,0.126238,0.130347,-0.568897,-0.404271,-0.739865
19,3926716546,0.751409,-0.634019,0.135228,0.122972,-0.182459,-0.792177,-1.991255
20,3926749880,0.744817,-0.642045,0.138476,0.117712,0.844608,-2.403270,-1.457993
21,3926783214,0.735695,-0.652780,0.138856,0.115564,1.586615,-2.676255,-1.376997
22,3926816548,0.724657,-0.664936,0.138364,0.116587,2.047563,-3.206894,-0.884803
23,3926849882,0.722134,-0.667863,0.136520,0.117683,2.575063,-2.974472,-0.561747
24,3926883216,0.722456,-0.667640,0.132452,0.121555,1.905685,-2.970642,-2.375739
25,3926916550,0.714299,-0.676436,0.123691,0.130067,1.896584,-2.552291,-1.814751
26,3926949884,0.700395,-0.690899,0.111132,0.140574,1.933917,-1.240718,-0.723212
27,3926983218,0.689757,-0.701510,0.097625,0.150315,1.604598,-1.668885,-0.439466
28,3927016552,0.685111,-0.706185,0.082082,0.158727,0.785281,0.273452,0.119278
29,3927049886,0.679970,-0.711251,0.065012,0.165957,0.496103,-0.724502,-0.909705
30,3927083220,0.669854,-0.720993,0.045624,0.171431,0.110254,0.216863,0.028705
31,3927116554,0.660275,-0.730343,0.024692,0.173299,-0.367361,1.358090,-0.260745
32,3927149888,0.648995,-0.741114,0.002874,0.171907,-1.020660,1.230426,-0.326610
33,3927183222,0.643403,-0.747006,-0.021321,0.166031,-1.755794,4.267176,1.251582
34,3927216556,0.647656,-0.745114,-0.041204,0.153798,-2.182769,4.637514,0.762073
35,3927249890,0.650872,-0.745112,-0.050249,0.136579,-3.030759,3.577140,1.205464
36,3927283224,0.649848,-0.749866,-0.046059,0.115251,-2.097253,4.678894,3.045219
37,3927316558,0.657187,-0.747286,-0.030031,0.093659,-1.725153,2.322820,1.667933
38,3927349892,0.660105,-0.747364,-0.007927,0.075167,-1.194832,1.368257,1.688228
39,3927383226,0.668461,-0.741229,0.015238,0.059270,-0.479268,-0.212523,1.360945
40,3927416560,0.677165,-0.733354,0.037120,0.047611,-0.137531,-1.240723,0.192440
41,3927449894,0.675877,-0.733830,0.055155,0.040579,0.714105,-1.898682,-0.482821
42,3927483228,0.676708,-0.732210,0.067762,0.036715,1.089840,-2.122451,-0.651535
43,3927516562,0.677529,-0.730759,0.075047,0.036314,1.722881,-2.931211,-1.382512
44,3927549896,0.673812,-0.733959,0.075922,0.039009,2.096116,-3.101050,-0.755996
45,3927583230,0.677960,-0.730351,0.070690,0.044341,2.174424,-2.899219,-1.452194
46,3927616564,0.679630,-0.729183,0.060075,0.052838,2.122120,-3.104073,-2.657319
47,3927649898,0.670876,-0.737566,0.044139,0.063083,2.083382,-3.153839,-1.719367
48,3927683232,0.665878,-0.742176,0.021045,0.073096,2.051560,-2.213255,-1.587849
49,3927716566,0.656121,-0.750045,-0.009308,0.082806,1.362972,-4.617527,-2.905488
50,3927749900,0.635460,-0.765402,-0.049397,0.088966,2.733522,-1.271029,-1.212132
51,3927783234,0.607681,-0.783751,-0.093434,0.087939,0.294017,3.023053,-0.965318
52,3927816568,0.585212,-0.796702,-0.128879,0.078665,-2.680536,6.083781,1.564551
53,3927849902,0.581726,-0.797564,-0.147440,0.061263,-4.199048,7.061632,1.096848
54,3927883236,0.564018,-0.811829,-0.146856,0.035438,-5.272577,6.508314,0.844795
55,3927916570,0.550890,-0.824112,-0.131406,0.009807,-4.876901,5.612604,3.468762
56,3927949904,0.565525,-0.817312,-0.109948,-0.009913,-3.268621,2.322859,2.377460
57,3927983238,0.582519,-0.807929,-0.085720,-0.024092,-1.769676,-0.035588,1.332745
58,3928016572,0.591633,-0.803309,-0.059699,-0.033259,-0.746962,-1.523182,1.857203
59,3928049906,0.596900,-0.800716,-0.033708,-0.037869,0.208546,-1.867095,2.151851
60,3928083240,0.600782,-0.798522,-0.009944,-0.036461,1.182896,-1.063694,2.176448
61,3928116574,0.610614,-0.791232,0.010649,-0.031536,1.332503,-1.812204,1.180722
62,3928149908,0.623773,-0.780788,0.025715,-0.024913,2.202971,-2.185093,-0.187079
63,3928183242,0.632262,-0.773737,0.035847,-0.017222,2.386361,-2.190755,-0.997180
64,3928216576,0.639279,-0.767771,0.042106,-0.009104,2.122157,-3.201673,-1.755599
65,3928249910,0.642117,-0.765433,0.042468,-0.000424,2.344638,-3.177999,-2.290151
66,3928283244,0.639824,-0.767698,0.034614,0.008499,1.817781,-3.835739,-2.262793
67,3928316578,0.637240,-0.770300,0.016129,0.017595,1.518474,-3.372205,-1.254990
68,3928349912,0.635003,-0.771906,-0.013701,0.027383,2.054339,-2.025875,-1.523499
69,3928383246,0.621092,-0.781562,-0.046073,0.035902,0.643837,-2.206835,-0.879634
70,3928416580,0.603566,-0.792312,-0.078972,0.041450,-0.369512,2.621834,1.181756
71,3928449914,0.593151,-0.796698,-0.107089,0.044521,-1.722924,2.306512,0.888632
72,3928483248,0.587633,-0.797526,-0.128563,0.046012,-1.422290,4.310163,0.981888
73,3928516582,0.582467,-0.799499,-0.140344,0.042936,-2.143225,5.292705,0.788065
74,3928549916,0.577713,-0.803645,-0.138716,0.034124,-2.410152,4.655428,1.180379
75,3928583250,0.572068,-0.810417,-0.124878,0.019298,-2.695877,3.657508,1.422514
76,3928616584,0.567568,-0.816760,-0.103793,0.001496,-2.209782,2.874492,0.579186
77,3928649918,0.569071,-0.818076,-0.080791,-0.019686,-1.688417,3.084203,0.873144
78,3928683252,0.588901,-0.804942,-0.060187,-0.040594,-1.384572,-1.206113,2.436631
79,3928716586,0.588651,-0.805284,-0.039344,-0.058859,-0.610163,-2.298666,1.260986
80,3928749920,0.586324,-0.806502,-0.022215,-0.072736,-0.451991,-0.347048,2.788287
81,3928783254,0.606392,-0.790583,-0.012777,-0.084319,-0.020845,-2.259648,0.079210
82,3928816588,0.610465,-0.786192,-0.005987,-0.095937,0.746159,-2.428636,-1.170631
83,3928849922,0.601399,-0.791610,-0.003573,-0.108007,1.105990,-1.667585,-0.654529
84,3928883256,0.594422,-0.795355,-0.006510,-0.118479,1.740446,-1.785601,0.282878
85,3928916590,0.591073,-0.796651,-0.014945,-0.125547,2.059799,-1.626393,0.844781
86,3928949924,0.594227,-0.793868,-0.028618,-0.125917,2.330800,-1.981367,0.925825
87,3928983258,0.598880,-0.790702,-0.046684,-0.118148,2.542042,-1.627287,0.814078
88,3929016592,0.602566,-0.788114,-0.068832,-0.105157,2.298389,-1.776416,0.367438
89,3929049926,0.604160,-0.786086,-0.094692,-0.089991,1.665813,-0.795515,0.311670
90,3929083260,0.605102,-0.783078,-0.122898,-0.074449,1.013042,-0.124182,0.868501
91,3929116594,0.606837,-0.777707,-0.152609,-0.060311,-0.093535,-0.105027,0.709046
92,3929149928,0.605472,-0.773077,-0.182675,-0.048890,-1.034450,1.147009,0.770395
93,3929183262,0.597417,-0.773319,-0.208264,-0.041251,-1.244583,0.962998,2.831935
94,3929216596,0.589964,-0.773087,-0.230427,-0.034452,-2.397973,3.849401,4.073637
95,3929249930,0.590576,-0.768542,-0.244703,-0.026238,-2.136848,4.079316,4.373843
96,3929283264,0.589683,-0.769906,-0.243139,-0.020195,-2.192023,2.913191,3.085561
97,3929316598,0.583762,-0.779485,-0.226442,-0.018836,-2.357731,2.830432,3.408220
98,3929349932,0.582955,-0.787921,-0.197500,-0.018543,-1.867797,1.695859,2.252732
99,3929383266,0.584392,-0.795357,-0.159860,-0.018548,-0.949879,1.165164,1.439148
100,3929416600,0.591607,-0.796971,-0.120350,-0.018983,-0.287244,0.559619,1.195889
101,3929449934,0.607181,-0.790053,-0.082350,-0.019267,0.121412,-0.826277,-1.048972
102,3929483268,0.618147,-0.784325,-0.048006,-0.020735,0.520383,0.600353,-1.208241
103,3929516602,0.621696,-0.782696,-0.017915,-0.023793,0.844081,-1.026691,-1.777589
104,3929549936,0.618637,-0.785177,0.008899,-0.026674,0.991312,-1.394770,-1.697979
105,3929583270,0.615988,-0.786643,0.030370,-0.028893,1.133975,-1.471579,-1.128198
106,3929616604,0.616251,-0.785673,0.044597,-0.031114,1.285391,-2.459665,-0.917630
107,3929649938,0.618062,-0.783786,0.050874,-0.033103,1.121116,-3.014179,-1.384379
108,3929683272,0.619006,-0.783306,0.046940,-0.032657,1.922429,-2.921556,-0.878026
109,3929716606,0.621017,-0.782667,0.030165,-0.029427,1.682117,-2.753668,-1.662008
110,3929749940,0.625665,-0.779709,0.003684,-0.024284,1.755183,-2.745862,-0.885365
111,3929783274,0.623857,-0.780838,-0.028520,-0.016919,1.626472,-0.827672,-0.742275
112,3929816608,0.621746,-0.780944,-0.059086,-0.008557,0.772135,-0.621468,0.131917
113,3929849942,0.617745,-0.781784,-0.084910,-0.001035,0.487438,-0.164084,0.461843
114,3929883276,0.608174,-0.786447,-0.107759,0.004255,-0.325710,-0.116588,-1.007843
115,3929916610,0.603536,-0.787106,-0.126930,0.010173,-0.471583,0.302041,1.104061
116,3929949944,0.592458,-0.791801,-0.147731,0.014997,-0.918644,0.806238,0.552175
117,3929983278,0.580880,-0.795734,-0.170252,0.020125,-2.272142,3.068693,1.221725
118,3930016612,0.582794,-0.790491,-0.186405,0.027090,-3.501439,4.765890,2.317847
119,3930049946,0.590255,-0.784432,-0.187404,0.033914,-3.781697,4.317742,1.981798
120,3930083280,0.595336,-0.784108,-0.171159,0.038207,-3.578398,4.301136,2.219262
121,3930116614,0.605894,-0.781720,-0.141121,0.043543,-2.698025,2.779337,1.607107
122,3930149948,0.615877,-0.779535,-0.102446,0.050297,-1.608771,1.810649,0.997183
123,3930183282,0.626274,-0.775103,-0.059932,0.058387,-0.537036,0.754305,0.350361
124,3930216616,0.636697,-0.768072,-0.017891,0.066087,0.335654,0.425442,-0.004089
125,3930249950,0.648223,-0.757691,0.021126,0.072598,0.376159,-1.158985,-0.982470
126,3930283284,0.657846,-0.747173,0.053466,0.078216,0.782126,-1.321933,-0.870415
127,3930316618,0.666203,-0.737111,0.076684,0.083461,1.094435,-1.334476,-1.391218
128,3930349952,0.671248,-0.730164,0.092352,0.088111,0.788276,-2.171801,-2.373047
129,3930383286,0.673529,-0.726310,0.101752,0.092111,1.826038,-2.502616,-0.693400
130,3930416620,0.679829,-0.719218,0.105973,0.096612,2.132862,-3.015385,-0.803112
131,3930449954,0.685287,-0.712937,0.104450,0.105824,1.894368,-3.977720,-1.656706
132,3930483288,0.686109,-0.711029,0.094892,0.121215,2.488611,-3.210764,-0.698629
133,3930516622,0.681645,-0.713928,0.077167,0.140418,1.871790,-2.774676,-1.995318
134,3930549956,0.674366,-0.718940,0.053249,0.159769,1.659266,-1.088574,-1.998450
135,3930583290,0.667055,-0.723876,0.024701,0.174458,1.007863,1.309634,-2.114854
136,3930616624,0.661140,-0.727940,-0.003416,0.181636,0.336809,0.640994,-1.380074
137,3930649958,0.656697,-0.731356,-0.028215,0.181869,-0.088036,3.104461,-0.153866
138,3930683292,0.662858,-0.726437,-0.046026,0.175487,-1.047163,2.426754,1.253019
139,3930716626,0.673064,-0.718555,-0.057811,0.165307,-1.848265,4.045483,0.293989
140,3930749960,0.688303,-0.706973,-0.060700,0.150829,-1.797095,4.404212,3.415040
141,3930783294,0.713910,-0.685318,-0.051743,0.134169,-2.095895,2.355811,1.556309
142,3930816628,0.728892,-0.673881,-0.033738,0.116052,-1.962469,2.769988,1.587314
143,3930849962,0.743373,-0.661711,-0.008121,0.097340,-1.170452,1.600455,2.844850
144,3930883296,0.761440,-0.642675,0.022860,0.081616,-0.809364,-0.756892,2.566624
145,3930916630,0.773493,-0.626927,0.057146,0.073565,-0.355261,-1.061474,1.587732
146,3930949964,0.776932,-0.618275,0.092669,0.074366,-0.104142,-1.853483,1.106707
147,3930983298,0.777422,-0.610481,0.127031,0.082439,-0.124429,-1.885952,-0.140554
148,3931016632,0.773986,-0.605940,0.156504,0.096408,-0.113363,-1.541407,-0.986597
149,3931049966,0.764925,-0.608064,0.178936,0.114610,-0.234352,-1.700160,-1.251270
150,3931083300,0.754085,-0.613127,0.193340,0.134375,0.088542,-1.087453,-1.538385
151,3931116634,0.739628,-0.623508,0.201054,0.154178,0.313282,-0.746213,-1.437136
152,3931149968,0.721276,-0.638764,0.204137,0.173422,0.548689,-0.942831,-1.284282
153,3931183302,0.703632,-0.653269,0.204624,0.190463,1.051324,-0.800609,-0.714126
154,3931216636,0.693537,-0.660168,0.204201,0.203695,1.422263,-1.027561,-0.737124
155,3931249970,0.692460,-0.658567,0.203040,0.213469,1.627562,-0.709272,-1.108298
156,3931283304,0.697997,-0.651011,0.200972,0.220458,1.288835,-0.589559,-1.842919
157,3931316638,0.702690,-0.645251,0.195775,0.227058,0.674248,-1.652647,-2.587745
158,3931349972,0.700382,-0.647737,0.185482,0.235590,1.200746,-1.684968,-2.359458
159,3931383306,0.696971,-0.652584,0.170513,0.243507,1.740656,-0.890660,-1.829195
160,3931416640,0.692223,-0.659450,0.152385,0.250473,1.044001,-1.446240,-2.208968
161,3931449974,0.684521,-0.669762,0.131240,0.256185,1.048159,-0.425149,-1.513789
162,3931483308,0.677635,-0.679604,0.111156,0.258069,0.413800,-0.618347,-1.299831
163,3931516642,0.671033,-0.689290,0.092950,0.256826,0.421736,0.257439,-0.029805
164,3931549976,0.668580,-0.695236,0.078331,0.252025,0.347393,1.077678,0.317460
165,3931583310,0.670248,-0.697668,0.069104,0.243427,-0.127679,0.844988,0.666416
166,3931616644,0.671194,-0.701725,0.062946,0.230485,-0.181035,1.525011,0.798096
167,3931649978,0.667092,-0.711444,0.059393,0.212868,-0.532864,1.008083,0.039618
168,3931683312,0.660088,-0.724077,0.059112,0.191067,0.171462,1.755883,1.324273
169,3931716646,0.668260,-0.722790,0.065295,0.163540,0.698703,1.910182,2.752968
170,3931749980,0.688178,-0.709264,0.076873,0.132105,-0.729185,0.542254,0.230137
171,3931783314,0.695106,-0.705714,0.089695,0.103707,-1.373291,0.550433,-0.344093
172,3931816648,0.685031,-0.716379,0.104451,0.081417,-0.749953,0.629916,1.124312
173,3931849982,0.673551,-0.726148,0.123068,0.062430,-0.259955,0.498126,2.065722
174,3931883316,0.669738,-0.727015,0.144850,0.043858,-0.032303,0.214823,1.708884
175,3931916650,0.671308,-0.721474,0.167947,0.024900,-0.401988,0.013050,0.332347
176,3931949984,0.670932,-0.716702,0.190119,0.006909,-0.749404,-0.144366,-0.427210
177,3931983318,0.672128,-0.710714,0.207384,-0.011247,-1.011370,0.024864,-0.392282
178,3932016652,0.679264,-0.700796,0.215899,-0.029649,-1.058984,0.131188,-0.213469
179,3932049986,0.693077,-0.686629,0.214240,-0.047867,-1.183068,0.073785,-0.052240
180,3932083320,0.706753,-0.674326,0.204814,-0.061978,-1.287129,-0.075246,-0.316381
181,3932116654,0.713447,-0.670477,0.191957,-0.067910,-0.997706,-0.079761,-0.043343
182,3932149988,0.711753,-0.676050,0.179245,-0.065117,-0.672535,0.180422,0.427716
183,3932183322,0.705551,-0.686169,0.167783,-0.056781,-0.560566,0.639197,0.834349
184,3932216656,0.700311,-0.694741,0.157342,-0.046343,-0.322223,0.683906,1.163424
185,3932249990,0.699752,-0.697991,0.147828,-0.036170,-0.233595,0.839882,0.658479
186,3932283324,0.702618,-0.697313,0.139130,-0.027055,-0.304821,0.712591,0.119417
187,3932316658,0.706016,-0.695737,0.130927,-0.018858,-0.458257,0.425476,-0.186554
188,3932349992,0.709362,-0.693983,0.122754,-0.011362,-0.370857,0.129052,0.132090
189,3932383326,0.713630,-0.691214,0.113769,-0.004043,-0.264873,-0.208031,0.107611
190,3932416660,0.718422,-0.687817,0.103760,0.004072,-0.144433,-0.409004,0.277983
191,3932449994,0.724645,-0.682818,0.092124,0.012998,-0.113471,-0.473988,0.104900
192,3932483328,0.731952,-0.676442,0.078526,0.022636,-0.133269,-0.568963,-0.087813
193,3932516662,0.739713,-0.669180,0.062936,0.032681,0.080563,-0.434487,-0.539125
194,3932549996,0.751926,-0.656034,0.047408,0.044547,0.349710,-0.572169,1.285295
195,3932583330,0.771967,-0.632314,0.031998,0.056811,0.181633,-0.898605,0.855265
196,3932616664,0.793815,-0.603984,0.017692,0.068943,0.111474,-0.345982,-0.403602
197,3932649998,0.813196,-0.576465,0.005432,0.079849,0.269264,0.042448,-0.504160
198,3932683332,0.824363,-0.558760,-0.003731,0.090578,0.204300,-0.010363,-0.954897
199,3932716666,0.828943,-0.550496,-0.007735,0.098762,0.804988,0.673512,1.550753
200,3932750000,0.836560,-0.537985,-0.006455,0.103454,0.835827,1.353761,0.701668
201,3932783334,0.841298,-0.529883,-0.003045,0.106946,0.157800,0.768055,-1.397838
202,3932816668,0.839621,-0.532105,-0.001005,0.109107,0.548275,-0.004090,-0.016102
203,3932850002,0.839155,-0.532871,-0.000597,0.108956,1.084854,0.088242,0.392219
204,3932883336,0.842927,-0.527454,-0.000869,0.106165,0.821141,0.224137,0.092688
205,3932916670,0.849910,-0.517112,-0.001117,0.101254,0.625539,0.063041,0.549240
206,3932950004,0.858115,-0.504751,-0.001463,0.094169,0.440394,0.044108,0.205956
207,3932983338,0.864157,-0.495999,-0.001482,0.084974,-0.144413,0.684449,0.218695
208,3933016672,0.868236,-0.490536,-0.001312,0.074458,0.230350,0.318782,0.296273
209,3933050006,0.866451,-0.495323,-0.000258,0.062638,-0.142026,1.025607,-0.897265
210,3933083340,0.857038,-0.512588,0.002202,0.052353,-0.095859,0.162807,-0.323084
211,3933116674,0.845995,-0.531179,0.005967,0.045944,-0.359222,-0.507046,-0.165281
212,3933150008,0.838188,-0.543627,0.011138,0.042327,-0.108536,-0.307629,1.314871
213,3933183342,0.835024,-0.548570,0.016413,0.039258,-0.434575,0.087074,0.058022
214,3933216676,0.834017,-0.550026,0.021539,0.037786,-0.602892,-0.211956,-0.712730
215,3933250010,0.837768,-0.544106,0.025337,0.038164,-0.808313,-1.590747,-0.239461
216,3933283344,0.847565,-0.528657,0.025923,0.038573,0.609849,-2.038880,2.261957
217,3933316678,0.865275,-0.499206,0.025218,0.038233,1.351490,0.679971,-0.115878
218,3933350012,0.872705,-0.486081,0.027409,0.036936,0.343304,0.564616,-0.216490
219,3933383346,0.876726,-0.478801,0.030468,0.034326,0.017762,0.031883,-0.630606
220,3933416680,0.879365,-0.473980,0.033149,0.031093,-0.027213,0.318500,-0.551530
221,3933450014,0.879907,-0.473076,0.034713,0.027612,-0.099502,-0.004040,-0.843814
222,3933483348,0.878545,-0.475776,0.035158,0.023780,0.113662,0.115682,-0.272029
223,3933516682,0.875618,-0.481293,0.035705,0.019487,0.099888,-0.018610,0.276792
224,3933550016,0.873202,-0.485717,0.037237,0.014673,0.186322,-0.449419,0.713293
225,3933583350,0.872026,-0.487734,0.039953,0.009755,-0.002435,-0.452745,0.619247
226,3933616684,0.871008,-0.489374,0.042835,0.005272,-0.262872,-0.210223,-0.407313
227,3933650018,0.869031,-0.492722,0.044879,0.001234,-0.175488,-0.053791,0.100647
228,3933683352,0.866289,-0.497408,0.046128,-0.002220,-0.243654,0.029843,-0.039884
229,3933716686,0.863693,-0.501814,0.046850,-0.005363,-0.244944,0.048918,0.611695
230,3933750020,0.862344,-0.504051,0.047193,-0.008570,-0.145155,0.209465,0.664620
231,3933783354,0.862248,-0.504103,0.047753,-0.011563,-0.228143,0.126451,0.453229
232,3933816688,0.862805,-0.503020,0.048498,-0.013869,-0.214074,0.114173,0.029712
233,3933850022,0.862659,-0.503121,0.049605,-0.015263,-0.154672,-0.048117,0.294340
234,3933883356,0.862694,-0.502888,0.051033,-0.016275,-0.116557,-0.096340,0.243613
235,3933916690,0.862866,-0.502384,0.052646,-0.017500,-0.096564,-0.111928,0.015305
236,3933950024,0.862869,-0.502161,0.054161,-0.019036,-0.054880,-0.193234,-0.131690
237,3933983358,0.862438,-0.502709,0.055307,-0.020760,0.042666,-0.220805,-0.117126
238,3934016692,0.861526,-0.504093,0.056269,-0.022393,0.019907,-0.254584,0.083828
239,3934050026,0.860126,-0.506307,0.057111,-0.024089,0.062526,-0.076413,0.089522
240,3934083360,0.858826,-0.508319,0.057924,-0.026079,-0.003667,-0.018818,0.180546
241,3934116694,0.857807,-0.509824,0.058685,-0.028424,0.022130,0.060500,0.379993
242,3934150028,0.856714,-0.511432,0.059627,-0.030488,0.048892,-0.024013,0.271150
243,3934183362,0.855581,-0.513070,0.061009,-0.031972,-0.030847,-0.043143,0.474459
244,3934216696,0.854663,-0.514332,0.062601,-0.033170,-0.114102,0.001757,0.144941