sep=,
DeviceTag:,D_Wrist
FirmwareVersion:,2.2.1
AppVersion:,2023.6.0
SyncStatus:,Synced
OutputRate:,30Hz
FilterProfile:,General
Measurement Mode:,Sensor fusion Mode - Complete(Quaternion)
StartTime: ,2026-09-07_17:19:19_272 AEST
© Movella Technologies B. V. 2005-2026

PacketCounter,SampleTimeFine,Quat_W,Quat_X,Quat_Y,Quat_Z,FreeAcc_X,FreeAcc_Y,FreeAcc_Z
1,4156887816,0.690917,0.108609,-0.470313,0.538190,-0.472975,-0.690812,1.373387
2,4156921150,0.694375,0.111917,-0.458889,0.542904,-1.020344,-0.412773,1.864489
3,4156954484,0.701669,0.109790,-0.444462,0.545954,-1.220311,-0.417769,1.908548
4,4156987818,0.711975,0.100299,-0.427993,0.547594,-1.168597,-0.393892,2.163281
5,4157021152,0.723408,0.084860,-0.408452,0.550139,-0.925954,0.078047,1.580898
6,4157054486,0.737515,0.060052,-0.388260,0.549295,-2.150836,1.270377,1.312017
7,4157087820,0.753244,0.017960,-0.374112,0.540692,-2.430800,1.618694,-0.306220
8,4157121154,0.767054,-0.038389,-0.366754,0.525025,-0.502683,-0.121790,0.170319
9,4157154488,0.778409,-0.087340,-0.356435,0.509323,-1.596045,0.092940,-2.310986
10,4157187822,0.782308,-0.148313,-0.355344,0.489626,0.468447,-0.967996,-1.404594
11,4157221156,0.780304,-0.206713,-0.357588,0.469608,1.044903,-2.228995,-0.867288
12,4157254490,0.776969,-0.247985,-0.357733,0.454812,1.075522,-1.523446,-0.516352
13,4157287824,0.774234,-0.276483,-0.357261,0.443270,1.546378,-0.810960,-1.654709
14,4157321158,0.770860,-0.302269,-0.361594,0.428561,0.825149,-0.317834,-1.390408
15,4157354492,0.767869,-0.325749,-0.370074,0.409043,0.500981,0.617873,-1.409309
16,4157387826,0.761322,-0.354188,-0.384639,0.383403,1.042079,0.670530,-1.458281
17,4157421160,0.759459,-0.368263,-0.395679,0.362005,1.263255,-0.320827,1.462919
18,4157454494,0.766787,-0.358790,-0.399634,0.351576,1.113503,0.371498,-0.122030
19,4157487828,0.770900,-0.351964,-0.406481,0.341488,1.099158,0.674412,-0.469868
20,4157521162,0.773653,-0.346074,-0.414214,0.331852,0.713513,-0.609058,0.100445
21,4157554496,0.777973,-0.333912,-0.421087,0.325503,0.316207,-0.149445,0.329319
22,4157587830,0.781839,-0.322397,-0.427340,0.319648,0.374918,-0.269528,0.269992
23,4157621164,0.785260,-0.312603,-0.432923,0.313414,0.413242,0.171521,0.795950
24,4157654498,0.788153,-0.306241,-0.436117,0.307958,0.303086,0.223089,0.220192
25,4157687832,0.789275,-0.304263,-0.438370,0.303818,0.200313,0.388911,0.473604
26,4157721166,0.788770,-0.305929,-0.440299,0.300652,0.117450,0.470740,0.269752
27,4157754500,0.787300,-0.310520,-0.441584,0.297902,0.168484,0.560088,0.175535
28,4157787834,0.786396,-0.314049,-0.441211,0.297140,0.206336,0.352960,0.371820
29,4157821168,0.783505,-0.319546,-0.441031,0.299180,0.375334,1.189932,0.020140
30,4157854502,0.778586,-0.325591,-0.441084,0.305360,0.740813,0.878268,0.392390
31,4157887836,0.773488,-0.328610,-0.441636,0.314159,0.582003,1.060454,0.006340
32,4157921170,0.766431,-0.334294,-0.444338,0.321560,0.860722,0.427622,-0.534346
33,4157954504,0.758244,-0.341060,-0.448500,0.328019,0.756081,-0.369458,0.496380
34,4157987838,0.750810,-0.344631,-0.450802,0.338079,0.337706,0.261900,-0.086740
35,4158021172,0.741974,-0.349580,-0.453345,0.348931,0.710455,0.049340,0.110137
36,4158054506,0.732541,-0.353960,-0.457070,0.359429,0.289711,0.412588,0.164393
37,4158087840,0.723663,-0.356868,-0.461049,0.369319,0.888229,0.957016,-0.001302
38,4158121174,0.714087,-0.363042,-0.465581,0.376191,0.514460,0.608103,0.601562
39,4158154508,0.704810,-0.369059,-0.469349,0.383086,0.039275,1.085614,0.547691
40,4158187842,0.695318,-0.377162,-0.472369,0.388786,-0.482131,1.305207,0.864706
41,4158221176,0.689834,-0.383624,-0.471094,0.393749,-1.169202,2.034763,0.632211
42,4158254510,0.690310,-0.390176,-0.463371,0.395636,-1.415783,2.654756,0.543632
43,4158287844,0.696320,-0.400394,-0.449455,0.390921,-0.876787,3.138102,-0.138233
44,4158321178,0.708569,-0.412405,-0.429098,0.379120,-0.187542,2.555112,0.379890
45,4158354512,0.730252,-0.416886,-0.401830,0.362597,0.273082,2.362957,-0.995715
46,4158387846,0.757547,-0.414660,-0.373458,0.338696,0.435994,1.608260,-1.607183
47,4158421180,0.790972,-0.398882,-0.347301,0.307643,0.877647,0.447826,-2.165491
48,4158454514,0.825663,-0.370650,-0.329223,0.269291,0.177084,-0.525258,-3.361238
49,4158487848,0.853851,-0.340744,-0.324059,0.223212,0.085609,-1.080862,-2.397500
50,4158521182,0.874061,-0.311030,-0.330793,0.172802,0.573580,-2.094849,-1.722174
51,4158554516,0.888010,-0.277114,-0.345613,0.123303,-1.943685,-2.771050,3.903787
52,4158587850,0.895462,-0.244318,-0.363425,0.079907,-0.796446,-3.515621,1.083637
53,4158621184,0.894543,-0.235572,-0.377957,0.038106,-0.932415,-4.128463,1.880293
54,4158654518,0.893499,-0.227318,-0.387181,0.009144,-1.231265,-4.578234,2.922090
55,4158687852,0.893057,-0.223299,-0.390601,-0.004929,-0.862854,-4.649004,2.217610
56,4158721186,0.893343,-0.226554,-0.388078,-0.003492,-1.068113,-4.922331,2.365193
57,4158754520,0.894682,-0.232993,-0.380881,0.013915,-1.140165,-4.161935,1.492815
58,4158787854,0.895702,-0.241861,-0.370685,0.042655,-1.092150,-3.260971,1.151493
59,4158821188,0.894776,-0.254441,-0.358693,0.077337,-1.205806,-2.889344,1.259220
60,4158854522,0.889553,-0.272627,-0.348078,0.114968,-0.998105,-2.158718,-0.055478
61,4158887856,0.877410,-0.301204,-0.340940,0.152294,-1.210837,-1.123092,-0.322299
62,4158921190,0.859781,-0.334765,-0.337289,0.186952,-1.296090,-1.066663,-0.104539
63,4158954524,0.840770,-0.363670,-0.336145,0.218773,-1.117257,-0.736485,-0.198952
64,4158987858,0.821725,-0.387811,-0.337207,0.246308,-0.736963,-0.339197,-0.401274
65,4159021192,0.803188,-0.408032,-0.340432,0.269278,-0.413001,-0.007506,-0.615027
66,4159054526,0.786153,-0.424593,-0.345826,0.286519,-0.140631,0.511564,-0.332956
67,4159087860,0.773846,-0.434444,-0.351191,0.298481,-0.006401,0.550798,-0.470490
68,4159121194,0.768358,-0.434669,-0.355537,0.307061,0.163238,1.032656,-0.866737
69,4159154528,0.767193,-0.431877,-0.359173,0.309672,0.165399,0.718934,-0.907182
70,4159187862,0.769334,-0.426430,-0.364080,0.306159,0.334765,0.561831,-1.224937
71,4159221196,0.769553,-0.426947,-0.372540,0.294490,0.770236,1.132838,-1.557692
72,4159254530,0.768178,-0.431881,-0.383221,0.276638,1.473750,1.185819,-0.120046
73,4159287864,0.767187,-0.435592,-0.394035,0.257732,2.572114,1.586346,0.045420
74,4159321198,0.760457,-0.446542,-0.406455,0.238969,2.380819,1.962290,0.272758
75,4159354532,0.754360,-0.452742,-0.417053,0.228119,1.404966,1.540147,1.061204
76,4159387866,0.757165,-0.438367,-0.424415,0.233264,1.562086,0.692812,1.466621
77,4159421200,0.763675,-0.408810,-0.430366,0.253901,1.879617,1.709016,-0.209052
78,4159454534,0.761472,-0.391230,-0.435914,0.277640,2.991283,2.102903,-0.745743
79,4159487868,0.742472,-0.406084,-0.444924,0.293052,3.521800,1.414496,1.151700
80,4159521202,0.723841,-0.416539,-0.448827,0.317978,1.694675,0.625397,2.603776
81,4159554536,0.706369,-0.421035,-0.451191,0.346706,1.241613,0.784788,-0.570388
82,4159587870,0.683006,-0.436221,-0.459271,0.363716,0.115765,0.646111,-0.687802
83,4159621204,0.661395,-0.451537,-0.466301,0.375820,-1.688447,0.470284,0.485669
84,4159654538,0.646666,-0.461779,-0.470289,0.383950,-2.186006,0.444110,-0.255833
85,4159687872,0.634520,-0.474820,-0.473664,0.384157,-1.223227,0.613994,-0.168872
86,4159721206,0.624958,-0.487116,-0.475294,0.382422,-2.192794,1.096328,1.572095
87,4159754540,0.621907,-0.493373,-0.471966,0.383494,-1.194310,1.579692,1.249866
88,4159787874,0.623004,-0.498218,-0.464848,0.384144,-0.708102,2.043884,0.833949
89,4159821208,0.628545,-0.503444,-0.453199,0.382218,-1.369190,2.107734,-0.361976
90,4159854542,0.641906,-0.505871,-0.436336,0.376387,-1.322358,2.000033,-0.608092
91,4159887876,0.668702,-0.497781,-0.412865,0.366878,-0.465308,1.489411,-0.581764
92,4159921210,0.707951,-0.475521,-0.384989,0.352809,-0.114248,1.005618,-1.316549
93,4159954544,0.752395,-0.442877,-0.358054,0.331004,0.457134,0.574992,-2.184164
94,4159987878,0.786814,-0.420609,-0.340713,0.296534,1.246455,0.433280,-2.047116
95,4160021212,0.806902,-0.418333,-0.333714,0.250095,0.723808,-0.059847,-1.737727
96,4160054546,0.819288,-0.423502,-0.330812,0.199956,0.476916,-1.192579,0.040877
97,4160087880,0.834292,-0.415300,-0.328447,0.153662,0.206505,-2.286262,0.804405
98,4160121214,0.854833,-0.386204,-0.327197,0.114260,-0.094204,-2.358542,0.768332
99,4160154548,0.875117,-0.344165,-0.330264,0.081555,0.778171,-2.812001,-1.156931
100,4160187882,0.887884,-0.309769,-0.336646,0.048792,-0.053427,-1.036600,-0.398616
101,4160221216,0.894848,-0.281882,-0.345690,0.017141,-0.322060,-1.285400,0.814307
102,4160254550,0.895709,-0.264434,-0.357183,-0.014375,0.221158,-1.418159,-0.484734
103,4160287884,0.891583,-0.256812,-0.370008,-0.047180,-0.541749,-1.313454,0.403647
104,4160321218,0.885866,-0.249419,-0.383621,-0.076633,-0.426129,-2.407089,1.765928
105,4160354552,0.878944,-0.246993,-0.395155,-0.101542,-0.506845,-1.688400,0.968137
106,4160387886,0.871432,-0.249665,-0.404323,-0.121668,-0.566825,-1.186179,0.464694
107,4160421220,0.863680,-0.255392,-0.412068,-0.137976,-1.093851,-1.282563,0.579267
108,4160454554,0.856928,-0.257949,-0.420382,-0.149737,-1.097401,-0.937581,0.253945
109,4160487888,0.851642,-0.255795,-0.429448,-0.157654,-1.247555,-1.040484,0.721229
110,4160521222,0.848103,-0.249758,-0.438512,-0.161413,-1.104259,-1.183191,1.010156
111,4160554556,0.846309,-0.243514,-0.445613,-0.160921,-0.722576,-1.253140,0.811249
112,4160587890,0.845997,-0.240056,-0.449668,-0.156419,-0.745391,-1.015596,0.551671
113,4160621224,0.846655,-0.239508,-0.451282,-0.148865,-0.661270,-0.672051,0.403576
114,4160654558,0.847896,-0.241024,-0.451021,-0.139876,-0.834478,-0.481267,0.500683
115,4160687892,0.849290,-0.243692,-0.449663,-0.130882,-0.583372,-0.545388,0.320558
116,4160721226,0.850769,-0.246274,-0.447938,-0.122063,-0.192302,-0.614753,0.217022
117,4160754560,0.852482,-0.249258,-0.445307,-0.113367,-0.079500,-0.360510,0.323979
118,4160787894,0.853896,-0.255400,-0.441153,-0.104983,0.238639,-0.254598,0.479819
119,4160821228,0.854613,-0.265656,-0.435554,-0.096758,0.136222,-0.052349,0.466252
120,4160854562,0.855280,-0.276122,-0.429617,-0.087674,-0.047785,0.053870,0.539638
121,4160887896,0.856498,-0.283809,-0.424067,-0.077690,0.115913,0.040518,0.422147
122,4160921230,0.857579,-0.290591,-0.418853,-0.068429,0.349111,0.355019,0.011093
123,4160954564,0.858259,-0.296941,-0.414170,-0.060714,0.153708,0.414015,-0.105056
124,4160987898,0.858946,-0.300712,-0.410903,-0.054295,0.159553,0.298738,0.044316
125,4161021232,0.860086,-0.300857,-0.409103,-0.048760,0.180657,0.426506,0.236348
126,4161054566,0.861723,-0.298493,-0.407882,-0.044418,0.467142,0.519938,0.010528
127,4161087900,0.863266,-0.296450,-0.406386,-0.041786,0.567596,0.453366,0.072320
128,4161121234,0.863439,-0.299117,-0.404057,-0.041778,0.439946,0.558699,0.229565
129,4161154568,0.862433,-0.307045,-0.399985,-0.044154,0.312126,0.619394,0.545965
130,4161187902,0.860595,-0.319847,-0.393293,-0.048994,0.291002,0.192944,0.436947
131,4161221236,0.858549,-0.334958,-0.384276,-0.055082,0.093914,-0.086259,0.427065
132,4161254570,0.857434,-0.348096,-0.374144,-0.060483,-0.154114,-0.191572,0.367222
133,4161287904,0.857418,-0.357408,-0.364550,-0.064823,-0.274089,-0.245839,0.056820
134,4161321238,0.857885,-0.363343,-0.356848,-0.068407,-0.406588,-0.165091,-0.285102
135,4161354572,0.858332,-0.366654,-0.351760,-0.071418,-0.455986,-0.239559,-0.200850
136,4161387906,0.858748,-0.367790,-0.349053,-0.073823,-0.471126,-0.365321,-0.213389
137,4161421240,0.859331,-0.366969,-0.348130,-0.075469,-0.484464,-0.597691,-0.142818
138,4161454574,0.860005,-0.364993,-0.348331,-0.076432,-0.639408,-0.715020,0.075119
139,4161487908,0.861251,-0.361727,-0.348833,-0.075639,-0.664380,-0.868400,0.244671
140,4161521242,0.862820,-0.358580,-0.348817,-0.072765,-0.696947,-0.978904,0.208393
141,4161554576,0.863901,-0.357562,-0.348119,-0.068135,-0.767813,-1.094417,0.196438
142,4161587910,0.864611,-0.357745,-0.347383,-0.061620,-0.994789,-1.189854,0.050949
143,4161621244,0.865247,-0.357684,-0.347317,-0.052787,-1.126753,-1.206763,0.017330
144,4161654578,0.865929,-0.356453,-0.348418,-0.041447,-1.122585,-1.239326,0.160404
145,4161687912,0.866632,-0.354255,-0.350309,-0.027222,-1.029155,-1.302458,0.392719
146,4161721246,0.866977,-0.352861,-0.351785,-0.009646,-0.935626,-1.553097,0.744440
147,4161754580,0.865678,-0.355486,-0.352291,0.011292,-0.823886,-1.637583,0.857063
148,4161787914,0.861966,-0.363906,-0.351150,0.035866,-0.822415,-1.787121,1.406714
149,4161821248,0.857097,-0.374280,-0.347884,0.065435,-0.812777,-1.835790,1.201596
150,4161854582,0.848765,-0.389670,-0.343780,0.097860,-0.778166,-1.374414,0.199585
151,4161887916,0.834802,-0.412434,-0.340687,0.130165,-1.171918,-1.223465,0.152716
152,4161921250,0.819238,-0.433345,-0.338497,0.162748,-1.354286,-1.107310,0.377261
153,4161954584,0.805994,-0.446164,-0.336814,0.194611,-0.935431,-1.401915,-0.037601
154,4161987918,0.794624,-0.453510,-0.336199,0.223331,-0.890824,-0.843252,-0.156906
155,4162021252,0.785016,-0.456852,-0.337033,0.247892,-0.407606,-0.282116,-0.270302
156,4162054586,0.774458,-0.462346,-0.340784,0.265183,0.277201,0.025930,-1.316978
157,4162087920,0.760118,-0.474921,-0.350146,0.272166,0.802916,0.903811,-1.452457
158,4162121254,0.745180,-0.490349,-0.363141,0.269069,1.574515,1.896256,-0.864567
159,4162154588,0.735057,-0.501412,-0.375535,0.259338,1.803996,1.840229,-1.005241
160,4162187922,0.726126,-0.512807,-0.388026,0.243336,1.854675,2.241654,-1.789156
161,4162221256,0.713158,-0.530669,-0.401386,0.220660,2.199822,1.883368,-0.623889
162,4162254590,0.699548,-0.548487,-0.413215,0.197619,1.788397,1.356886,0.194002
163,4162287924,0.690736,-0.558193,-0.422692,0.180673,1.394732,1.400761,0.675228
164,4162321258,0.689056,-0.556623,-0.430186,0.174125,1.384046,0.919628,0.571740
165,4162354592,0.689478,-0.549249,-0.438369,0.175454,1.668902,0.545480,-0.288599
166,4162387926,0.684607,-0.546018,-0.448503,0.178966,1.191931,0.748902,0.126106
167,4162421260,0.675756,-0.546420,-0.459066,0.184507,0.803823,0.592281,0.723953
168,4162454594,0.666458,-0.546538,-0.468820,0.193246,0.679207,0.851651,0.643720
169,4162487928,0.656190,-0.547532,-0.477837,0.203225,0.701648,0.705099,1.377812
170,4162521262,0.645709,-0.547860,-0.486125,0.215865,0.669394,1.050807,1.041662
171,4162554596,0.634875,-0.547347,-0.493980,0.230942,0.150898,1.133549,1.088304
172,4162587930,0.621104,-0.549994,-0.502201,0.244000,-0.048106,0.908817,0.863178
173,4162621264,0.607305,-0.553909,-0.508642,0.256230,-0.444032,0.911830,0.772182
174,4162654598,0.596888,-0.556829,-0.511561,0.268286,-0.653319,0.958750,0.386686
175,4162687932,0.589342,-0.560941,-0.511172,0.277002,-0.350349,1.210706,0.222745
176,4162721266,0.585873,-0.567077,-0.505894,0.281521,-1.208510,1.453930,-0.611070
177,4162754600,0.586749,-0.575291,-0.495390,0.281711,-1.435171,1.632819,-0.892437
178,4162787934,0.592884,-0.584638,-0.479949,0.276298,-0.930556,1.647176,-0.259813
179,4162821268,0.606676,-0.590918,-0.460110,0.266580,-0.922867,1.501861,-0.450105
180,4162854602,0.626519,-0.592401,-0.438704,0.253138,-0.891290,1.407155,-0.490621
181,4162887936,0.648715,-0.590877,-0.418176,0.234876,0.159088,0.928761,-0.492712
182,4162921270,0.668838,-0.590078,-0.400299,0.210307,0.352431,0.295850,-0.708488
183,4162954604,0.687038,-0.588454,-0.385305,0.182337,0.072743,-0.117550,-0.233976
184,4162987938,0.704280,-0.584661,-0.372314,0.153455,0.191252,-0.760287,0.120312
185,4163021272,0.720245,-0.579140,-0.360869,0.124993,-0.065578,-1.105563,0.082463
186,4163054606,0.736211,-0.570447,-0.350767,0.097740,-0.555240,-1.024255,-0.083479
187,4163087940,0.752264,-0.558352,-0.342489,0.071056,-0.560840,-1.310315,-0.486961
188,4163121274,0.766963,-0.544177,-0.337225,0.043861,-0.685436,-1.354329,-0.687080
189,4163154608,0.781353,-0.525840,-0.335689,0.017277,-0.810446,-1.469726,-0.389538
190,4163187942,0.795654,-0.502762,-0.337812,-0.007295,-0.477982,-2.036062,0.043822
191,4163221276,0.809702,-0.475490,-0.342850,-0.027415,-0.410230,-2.127907,-0.148239
192,4163254610,0.819891,-0.450252,-0.350934,-0.043623,-0.217603,-1.932128,-0.119293
193,4163287944,0.824403,-0.432147,-0.360957,-0.057660,-0.107645,-1.584254,-0.499263
194,4163321278,0.825708,-0.418112,-0.372370,-0.068808,-0.470632,-1.491469,-0.266499
195,4163354612,0.825577,-0.404784,-0.385374,-0.077875,-0.641400,-0.939000,-0.370649
196,4163387946,0.824508,-0.390606,-0.400229,-0.086230,-0.278649,-0.811809,-0.887192
197,4163421280,0.823530,-0.372533,-0.417525,-0.093254,-0.219450,-1.214288,-0.397458
198,4163454614,0.824826,-0.345238,-0.436716,-0.098784,-0.481521,-0.962273,0.394550
199,4163487948,0.829154,-0.305798,-0.456941,-0.101000,-0.558498,0.593704,1.126064
200,4163521282,0.830305,-0.268118,-0.477249,-0.104621,-0.123869,0.290033,1.273148
201,4163554616,0.827466,-0.241194,-0.494543,-0.112058,0.271984,-0.234685,1.188444
202,4163587950,0.822474,-0.228071,-0.506552,-0.122191,-0.065992,-0.337480,1.329074
203,4163621284,0.817433,-0.225295,-0.513550,-0.131600,-0.564678,-0.632872,1.352932
204,4163654618,0.814324,-0.226251,-0.516595,-0.137197,-0.718864,-0.724863,0.880373
205,4163687952,0.812577,-0.229355,-0.517541,-0.138819,-0.800916,-0.580874,0.477415
206,4163721286,0.811036,-0.234630,-0.517829,-0.137939,-0.673003,-0.520590,0.214947
207,4163754620,0.809963,-0.239703,-0.518086,-0.134518,-0.885901,-1.010797,0.200292
208,4163787954,0.810540,-0.240017,-0.518760,-0.127715,-0.581021,-0.772069,-0.065625
209,4163821288,0.811238,-0.237677,-0.520927,-0.118502,-0.340452,-0.999673,0.049307
210,4163854622,0.814345,-0.225812,-0.524290,-0.104768,-1.077440,-1.081027,0.350125
211,4163887956,0.816594,-0.212289,-0.529322,-0.089052,-0.013616,-0.225090,-0.088655
212,4163921290,0.814909,-0.210331,-0.534357,-0.078435,0.001276,-0.844658,0.110450
213,4163954624,0.811409,-0.210683,-0.541032,-0.067216,0.311856,-0.934160,0.176257
214,4163987958,0.808183,-0.207705,-0.548637,-0.051971,0.149287,-0.576647,0.506995
215,4164021292,0.805755,-0.201766,-0.555787,-0.034003,1.019338,0.155499,-0.146515
216,4164054626,0.801813,-0.205780,-0.560716,-0.018796,0.853456,-0.687766,0.025282
217,4164087960,0.796714,-0.216307,-0.564314,-0.003675,0.365715,-1.435524,0.648218
218,4164121294,0.792133,-0.226057,-0.566692,0.016990,0.225207,-1.501354,1.345173
219,4164154628,0.788332,-0.231585,-0.568105,0.046517,0.465683,-1.586638,1.361867
220,4164187962,0.783946,-0.234771,-0.568739,0.082781,0.718643,-1.276303,1.572132
221,4164221296,0.778231,-0.238761,-0.567786,0.122373,0.810040,-1.104808,1.900603
222,4164254630,0.771870,-0.241370,-0.564476,0.165314,0.729910,-0.359450,1.293303
223,4164287964,0.764662,-0.245080,-0.558571,0.207922,0.162581,0.125082,1.322797
224,4164321298,0.757041,-0.250428,-0.550327,0.247631,0.131486,0.341430,0.817932
225,4164354632,0.749918,-0.254648,-0.540113,0.284713,0.351055,0.429093,-0.362063
226,4164387966,0.742235,-0.257571,-0.530233,0.318754,0.449354,0.603109,-1.194160
227,4164421300,0.734146,-0.260442,-0.521756,0.347816,0.041817,0.698055,-0.718485
228,4164454634,0.727618,-0.260548,-0.512756,0.373864,-0.232548,0.792541,-0.578841
229,4164487968,0.720866,-0.262903,-0.505299,0.394858,-0.248948,0.945872,-0.718526
230,4164521302,0.712915,-0.271735,-0.500560,0.409094,-0.130162,0.730464,-0.832650
231,4164554636,0.701263,-0.289774,-0.500609,0.416722,-0.060567,0.406436,-0.933490
232,4164587970,0.682836,-0.321185,-0.508109,0.415218,-0.688038,-0.105731,-0.416164
233,4164621304,0.663548,-0.351062,-0.515927,0.412654,-1.204590,-0.955292,1.384390
234,4164654638,0.652700,-0.363567,-0.515557,0.419533,-1.114625,-0.950097,1.800026
235,4164687972,0.650895,-0.360336,-0.506466,0.435881,-0.613279,-0.124559,0.333237
236,4164721306,0.651036,-0.355817,-0.495925,0.451232,-0.146388,0.583561,-0.889476
237,4164754640,0.649698,-0.357377,-0.488357,0.460094,0.116330,0.765927,-0.630477
238,4164787974,0.648866,-0.361084,-0.481634,0.465431,0.518717,0.695034,-0.410350
239,4164821308,0.649307,-0.364312,-0.474913,0.469192,0.472627,0.894766,-0.604300
240,4164854642,0.650234,-0.368245,-0.469015,0.470767,0.692161,1.154485,-0.542178
241,4164887976,0.650821,-0.373745,-0.463867,0.470722,0.732149,1.041204,-0.454255
242,4164921310,0.649694,-0.381605,-0.460919,0.468865,0.384666,0.952452,-0.561500
243,4164954644,0.647448,-0.390378,-0.459990,0.465652,0.103439,0.789269,-0.271740
244,4164987978,0.645826,-0.397043,-0.459137,0.463103,0.074097,0.609602,-0.041303
245,4165021312,0.645345,-0.400762,-0.457676,0.462014,-0.027951,0.625483,0.016851
246,4165054646,0.644712,-0.404441,-0.456997,0.460362,-0.082811,0.758961,-0.118696
247,4165087980,0.642955,-0.410229,-0.457705,0.456981,-0.066026,0.608875,-0.067676
248,4165121314,0.640380,-0.417379,-0.459229,0.452573,-0.271823,0.451912,0.176989
249,4165154648,0.638044,-0.424071,-0.460532,0.448307,-0.271214,0.501576,0.408065
250,4165187982,0.636409,-0.429778,-0.461003,0.444697,-0.231530,0.697257,0.453856
251,4165221316,0.635195,-0.435296,-0.460589,0.441484,-0.186925,0.901539,0.321423
252,4165254650,0.633613,-0.442099,-0.460160,0.437426,-0.171396,0.975550,-0.094543
253,4165287984,0.630768,-0.451494,-0.460905,0.431112,-0.243194,1.090823,-0.126876
254,4165321318,0.628463,-0.461088,-0.461533,0.423587,-0.395029,1.146354,0.431257
255,4165354652,0.630224,-0.465999,-0.459129,0.418173,-0.401315,1.172522,0.690090
256,4165387986,0.635820,-0.466960,-0.453841,0.414386,-0.454660,1.257265,0.163079
257,4165421320,0.642566,-0.467984,-0.447815,0.409349,-0.250903,1.124636,-0.131527
258,4165454654,0.649450,-0.470499,-0.441863,0.402005,-0.034068,0.983385,0.000312
259,4165487988,0.656845,-0.473910,-0.435712,0.392587,0.028443,0.812827,-0.038342
260,4165521322,0.664414,-0.478259,-0.429553,0.381199,0.044364,0.621295,-0.009501
261,4165554656,0.672167,-0.483084,-0.423127,0.368499,0.141540,0.361782,0.232909
262,4165587990,0.680800,-0.486918,-0.415935,0.355564,0.079839,0.174210,0.126190
263,4165621324,0.690326,-0.489525,-0.408226,0.342306,0.042535,0.041459,-0.009546
264,4165654658,0.700907,-0.490445,-0.400213,0.328675,0.093413,-0.172273,-0.082663
265,4165687992,0.712818,-0.488836,-0.392171,0.314860,0.050918,-0.274238,-0.171310
266,4165721326,0.726428,-0.483943,-0.384510,0.300432,-0.047440,-0.622057,-0.227747
267,4165754660,0.742901,-0.473315,-0.377138,0.286085,0.027871,-0.701929,0.121799
268,4165787994,0.762671,-0.455044,-0.369570,0.273298,-0.114561,-0.603342,-0.822118
269,4165821328,0.780635,-0.436318,-0.364882,0.259040,0.066517,-0.533881,-0.870406
270,4165854662,0.794410,-0.421839,-0.364015,0.241791,0.234371,-0.585114,-0.705110
271,4165887996,0.803164,-0.414249,-0.365943,0.222298,0.476093,-0.656229,-0.352339
272,4165921330,0.807431,-0.413458,-0.369029,0.202314,0.245985,-0.930686,0.627645
273,4165954664,0.810153,-0.414185,-0.371669,0.184309,-0.008494,-1.035532,0.733685
274,4165987998,0.813522,-0.412413,-0.373415,0.169304,-0.102353,-1.102365,0.500270
275,4166021332,0.818350,-0.406341,-0.374762,0.157321,-0.300359,-1.091941,0.519133
276,4166054666,0.824367,-0.396174,-0.376146,0.148276,-0.300333,-0.957587,0.270312
277,4166088000,0.831230,-0.382470,-0.377646,0.141993,-0.237240,-1.181773,0.568054
278,4166121334,0.839314,-0.364002,-0.378862,0.139725,-0.049435,-1.497889,0.910611
279,4166154668,0.847000,-0.345156,-0.379025,0.140725,-0.118416,-0.956051,0.619898
280,4166188002,0.850642,-0.335818,-0.378894,0.141701,-0.356858,-0.740845,0.374089
281,4166221336,0.849829,-0.337476,-0.379282,0.141603,-0.423727,-1.173866,0.262898
282,4166254670,0.847138,-0.342896,-0.380017,0.142731,-0.708229,-1.454472,0.383755
283,4166288004,0.844837,-0.345529,-0.380965,0.147413,-0.855675,-1.533762,0.469283
284,4166321338,0.842794,-0.345727,-0.381939,0.155883,-0.705550,-1.553368,0.388467
285,4166354672,0.839278,-0.348010,-0.382968,0.166860,-0.602503,-1.692595,0.481109
286,4166388006,0.834076,-0.352345,-0.384088,0.180699,-0.799026,-1.925655,0.587196
287,4166421340,0.827712,-0.356097,-0.385446,0.198809,-0.757149,-1.894430,0.778655
288,4166454674,0.820705,-0.358649,-0.386008,0.220948,-0.668979,-1.948403,0.643257
289,4166488008,0.814574,-0.356214,-0.385140,0.247496,-0.904864,-2.069931,0.794440
290,4166521342,0.809599,-0.348463,-0.382364,0.277356,-0.806165,-1.578025,0.492181
291,4166554676,0.805066,-0.338982,-0.377701,0.307095,-0.490068,-1.493820,0.017492
292,4166588010,0.799017,-0.333173,-0.373063,0.333762,-0.288198,-1.385991,-0.105806
293,4166621344,0.791524,-0.331224,-0.368952,0.357296,0.131995,-1.192965,0.061745
294,4166654678,0.782343,-0.334018,-0.366117,0.377273,0.494673,-0.608070,-0.414149
295,4166688012,0.770228,-0.344274,-0.366976,0.391865,0.584249,-0.067425,-1.053165
296,4166721346,0.756100,-0.360063,-0.373241,0.399204,0.461349,0.595398,-1.377023
297,4166754680,0.741564,-0.379060,-0.384969,0.397744,0.303975,1.092148,-1.663916
298,4166788014,0.727761,-0.399571,-0.400894,0.387293,0.476920,1.835026,-1.400077
299,4166821348,0.717305,-0.417776,-0.417133,0.370057,1.217140,1.575330,0.768941
300,4166854682,0.720101,-0.417225,-0.425338,0.355628,0.063812,1.682343,1.353781
301,4166888016,0.732532,-0.405543,-0.426150,0.342539,1.059490,2.425060,-0.595644
302,4166921350,0.740393,-0.403739,-0.426930,0.326418,1.782905,2.434628,-0.240890
303,4166954684,0.741831,-0.410832,-0.429279,0.310851,1.068714,2.119779,0.664720
304,4166988018,0.740568,-0.417669,-0.431041,0.302194,1.229166,1.656225,1.101412
305,4167021352,0.739406,-0.419663,-0.431075,0.302228,1.563826,1.368115,0.610211
306,4167054686,0.737249,-0.420577,-0.431230,0.305983,1.502457,1.178127,-0.071792
307,4167088020,0.732715,-0.424008,-0.432841,0.309838,0.922490,0.956202,0.096704
308,4167121354,0.726466,-0.430304,-0.435028,0.312796,1.305726,0.747653,0.543585
309,4167154688,0.718556,-0.441067,-0.436059,0.314634,0.621423,0.783827,0.380524
310,4167188022,0.709821,-0.453407,-0.435953,0.317059,0.269713,0.638933,0.751244
311,4167221356,0.702700,-0.461487,-0.435490,0.321863,0.179997,0.217153,0.209811
312,4167254690,0.695067,-0.468636,-0.436651,0.326502,0.154180,0.321250,-0.326878
313,4167288024,0.683976,-0.480240,-0.440330,0.328118,0.350613,-0.010809,-0.160038
314,4167321358,0.673442,-0.489606,-0.444986,0.329780,-0.335118,-0.088732,0.134901
315,4167354692,0.663454,-0.496368,-0.450248,0.332762,-0.326225,0.287258,-0.013016
316,4167388026,0.651359,-0.506566,-0.455651,0.333931,0.041470,-0.017865,0.201997
317,4167421360,0.641333,-0.515093,-0.459908,0.334457,-0.264568,-0.069951,0.777036
318,4167454694,0.633011,-0.521681,-0.463127,0.335657,-0.290232,0.327898,0.075561
319,4167488028,0.620999,-0.533003,-0.467190,0.334673,0.116387,0.096569,0.097091
320,4167521362,0.610157,-0.542316,-0.470578,0.334908,-0.817481,0.417949,1.033877
321,4167554696,0.604906,-0.545146,-0.470885,0.339377,-0.267388,0.429123,0.403391
322,4167588030,0.599930,-0.548620,-0.470569,0.343031,0.114180,0.600413,-0.336194
323,4167621364,0.592496,-0.556198,-0.471200,0.342882,-0.294510,0.883109,0.067219
324,4167654698,0.587447,-0.563794,-0.469602,0.341352,-0.335231,0.921629,-0.412390
325,4167688032,0.587875,-0.569352,-0.464425,0.338463,-0.940520,1.228166,-0.886318
326,4167721366,0.594555,-0.572410,-0.456387,0.332519,-1.001021,1.146051,-1.178485
327,4167754700,0.608034,-0.572082,-0.445874,0.322830,-0.616515,1.028292,-0.725703
328,4167788034,0.626958,-0.568767,-0.433916,0.308464,-0.798343,0.933530,-1.024991
329,4167821368,0.646665,-0.565772,-0.423014,0.287733,-0.621869,0.709685,-0.766133
330,4167854702,0.664529,-0.564617,-0.413740,0.261600,-0.110653,0.259195,0.664436
331,4167888036,0.684273,-0.559838,-0.403626,0.235464,-0.235869,-0.142049,0.660676
332,4167921370,0.705807,-0.549818,-0.393159,0.212056,-0.215367,-0.420838,-0.032683
333,4167954704,0.726025,-0.537595,-0.384528,0.189797,0.055162,-1.061170,0.018817
334,4167988038,0.744869,-0.522749,-0.378782,0.168623,-0.093248,-1.142697,-0.246624
335,4168021372,0.763334,-0.504064,-0.375569,0.148979,-0.437725,-0.895753,-0.495423
336,4168054706,0.781357,-0.481846,-0.374584,0.130375,-0.107885,-1.371763,-0.271817
337,4168088040,0.798415,-0.457186,-0.375430,0.112130,-0.225750,-0.921844,-0.337721
338,4168121374,0.812565,-0.433787,-0.377816,0.093953,-0.036411,-0.721992,-0.212306
339,4168154708,0.820913,-0.418356,-0.381603,0.073930,0.169675,-0.604102,-0.568335
340,4168188042,0.823912,-0.411337,-0.386409,0.051621,-0.150062,-0.383551,-0.308571
341,4168221376,0.822780,-0.410688,-0.391951,0.027361,-0.125480,-0.470196,0.233083
342,4168254710,0.819759,-0.412032,-0.397772,0.002820,-0.041155,-1.065228,0.398920
343,4168288044,0.820453,-0.404519,-0.403592,-0.018455,-0.111179,-0.826277,0.676007
344,4168321378,0.821977,-0.395582,-0.407929,-0.038314,0.017220,-0.276726,0.943915
345,4168354712,0.819871,-0.393269,-0.411843,-0.059510,-0.232915,0.211232,0.813588
346,4168388046,0.815317,-0.394689,-0.416128,-0.079518,-0.091400,-0.310869,0.377465
347,4168421380,0.810673,-0.394650,-0.421503,-0.096969,-0.377699,0.171674,0.553964
348,4168454714,0.807134,-0.389424,-0.429420,-0.111748,-0.436626,-0.001911,0.785885
349,4168488048,0.802606,-0.384554,-0.438050,-0.126728,0.321036,-0.276949,0.535633
350,4168521382,0.795609,-0.385876,-0.444169,-0.144308,0.195294,-0.641838,0.543930
351,4168554716,0.788890,-0.388781,-0.447740,-0.161359,0.000654,-0.597167,0.790898
352,4168588050,0.784525,-0.388806,-0.450139,-0.175306,-0.299218,-0.662841,0.642611
353,4168621384,0.782546,-0.385048,-0.452913,-0.185027,-0.304974,-0.613883,0.413578
354,4168654718,0.781611,-0.379081,-0.456826,-0.191565,-0.173872,-0.671390,0.250880
355,4168688052,0.780910,-0.371817,-0.462097,-0.195966,-0.141376,-0.715265,0.149990
356,4168721386,0.780573,-0.363082,-0.468331,-0.198866,-0.173842,-0.819160,0.120801
357,4168754720,0.780966,-0.352283,-0.475213,-0.200419,-0.252605,-0.716152,0.064748
358,4168788054,0.781916,-0.339837,-0.482558,-0.200650,-0.311552,-0.569165,0.172291
359,4168821388,0.782982,-0.326708,-0.490391,-0.199309,-0.474734,-0.893276,0.128863
360,4168854722,0.784304,-0.312498,-0.498908,-0.195727,-0.524821,-0.950724,0.153462
361,4168888056,0.785893,-0.297946,-0.507477,-0.189927,-0.494049,-1.026870,0.255377
362,4168921390,0.787728,-0.283606,-0.515667,-0.182056,-0.469801,-0.959920,0.163090
363,4168954724,0.789612,-0.270289,-0.523195,-0.172423,-0.554268,-0.865694,0.140409
364,4168988058,0.791343,-0.258529,-0.529952,-0.161542,-0.453344,-0.869736,0.117083
365,4169021392,0.793103,-0.249000,-0.535296,-0.149834,-0.700908,-0.875583,0.388239
366,4169054726,0.795474,-0.242869,-0.538025,-0.137004,-0.680561,-0.826664,0.631967
367,4169088060,0.797407,-0.245527,-0.537045,-0.124286,-0.275169,-0.886224,0.461696
368,4169121394,0.798227,-0.259639,-0.531827,-0.112192,-0.400671,-0.989044,0.508844
369,4169154728,0.797010,-0.285134,-0.522809,-0.100748,-0.471291,-0.826844,0.903072
370,4169188062,0.793860,-0.318670,-0.510141,-0.089430,-0.909508,-0.710534,0.960150
371,4169221396,0.789953,-0.351738,-0.496400,-0.076467,-1.120717,-1.309606,0.829137
372,4169254730,0.787396,-0.378234,-0.483004,-0.060493,-1.264393,-1.326158,1.076194
373,4169288064,0.787239,-0.397541,-0.469567,-0.041566,-0.718491,-0.707659,0.894445
374,4169321398,0.787983,-0.413950,-0.455332,-0.020162,-0.386799,-0.409107,1.059368
375,4169354732,0.787638,-0.431442,-0.439869,0.002481,0.122760,-0.121899,0.980968
376,4169388066,0.784696,-0.451456,-0.424027,0.025417,0.399252,0.044551,0.923540
377,4169421400,0.779446,-0.472323,-0.408591,0.049338,0.605058,-0.175690,1.121736
378,4169454734,0.773582,-0.490631,-0.393948,0.075256,0.648730,0.071324,0.660317
379,4169488068,0.767735,-0.505295,-0.380636,0.101888,0.677234,0.263838,0.304180
380,4169521402,0.761636,-0.517290,-0.368698,0.128021,1.018948,0.224314,-0.018287
381,4169554736,0.754180,-0.529301,-0.357595,0.152263,0.902044,0.489432,-0.300372
382,4169588070,0.747521,-0.538969,-0.346641,0.174844,0.661099,0.564222,-0.338243
383,4169621404,0.741520,-0.546872,-0.336108,0.195235,0.668696,0.702401,-0.564154
384,4169654738,0.735452,-0.554206,-0.326767,0.212592,0.465456,0.863513,-0.823725
385,4169688072,0.730576,-0.559513,-0.318444,0.227601,0.351850,0.894306,-0.170848
386,4169721406,0.728033,-0.561269,-0.310752,0.241625,0.397843,0.818065,-0.545768
387,4169754740,0.724660,-0.563593,-0.304608,0.253873,0.206317,0.821054,-0.775588
388,4169788074,0.720894,-0.566064,-0.300230,0.264105,0.103263,0.778740,-0.206363
389,4169821408,0.719997,-0.564689,-0.296463,0.273579,0.170280,0.477081,-0.340386
390,4169854742,0.720948,-0.560784,-0.293169,0.282512,0.152634,0.352917,-0.612134
391,4169888076,0.720845,-0.558173,-0.291015,0.290070,0.043123,0.238604,-0.648928
392,4169921410,0.719899,-0.556813,-0.289911,0.296077,0.005796,-0.016279,-0.449819
393,4169954744,0.719596,-0.554876,-0.289052,0.301247,-0.027264,-0.232423,-0.484331
394,4169988078,0.719541,-0.552804,-0.288492,0.305690,-0.202205,-0.348257,-0.538633
395,4170021412,0.718930,-0.551487,-0.288958,0.309049,-0.314626,-0.475520,-0.507730
396,4170054746,0.717513,-0.550905,-0.290796,0.311644,-0.322699,-0.739625,-0.319690
397,4170088080,0.715913,-0.549582,-0.293975,0.314662,-0.399272,-0.857722,-0.125919
398,4170121414,0.713083,-0.548312,-0.298889,0.318650,-0.423938,-1.018474,-0.050697
399,4170154748,0.707692,-0.548422,-0.306127,0.323569,-0.649197,-1.027688,0.215272
400,4170188082,0.701669,-0.547617,-0.314193,0.330249,-0.634634,-1.023467,0.432834
401,4170221416,0.696314,-0.544592,-0.321841,0.339102,-0.703453,-1.103854,0.560525
402,4170254750,0.691709,-0.539299,-0.328911,0.350026,-0.632494,-1.276344,0.183307
403,4170288084,0.683788,-0.537055,-0.337056,0.361116,-0.762540,-1.279967,0.222653
404,4170321418,0.672911,-0.537668,-0.346669,0.371389,-0.787968,-1.280657,0.102168
405,4170354752,0.661625,-0.538099,-0.357174,0.380964,-0.841128,-1.135342,-0.059715
406,4170388086,0.651063,-0.537064,-0.368445,0.389786,-0.600374,-0.701199,-0.148246
407,4170421420,0.641568,-0.534922,-0.380373,0.396951,-0.435104,-0.550660,0.187543
408,4170454754,0.635769,-0.528746,-0.391504,0.403676,-0.361839,-0.394991,0.392021
409,4170488088,0.635955,-0.516509,-0.399673,0.411152,0.009402,-0.228745,-0.116223
410,4170521422,0.638521,-0.502687,-0.406912,0.417163,0.087420,-0.039223,-1.110832
411,4170554756,0.642008,-0.489568,-0.414914,0.419525,-0.080574,0.561022,-1.241134
412,4170588090,0.647390,-0.475982,-0.424038,0.417762,0.449184,1.030051,-0.993418
413,4170621424,0.649600,-0.468729,-0.437586,0.408456,0.485191,1.878534,-1.478168
414,4170654758,0.646915,-0.471049,-0.455567,0.389972,0.746202,2.076219,-0.699477
415,4170688092,0.641541,-0.480503,-0.473530,0.365125,1.146795,2.452674,0.497360
416,4170721426,0.636586,-0.491160,-0.487156,0.340888,0.657025,2.214439,1.051873
417,4170754760,0.635438,-0.496988,-0.495367,0.322240,0.806652,1.630233,0.690421
418,4170788094,0.634824,-0.501328,-0.501269,0.307253,0.494536,1.638255,0.906515
419,4170821428,0.634932,-0.503660,-0.505416,0.296222,0.387278,1.440187,0.951155
420,4170854762,0.635118,-0.505036,-0.508121,0.288761,0.602572,1.293227,0.739563
421,4170888096,0.633749,-0.507648,-0.509789,0.284212,0.291986,0.985862,0.917780
422,4170921430,0.631564,-0.510358,-0.510621,0.282725,0.264206,0.817003,0.837546
423,4170954764,0.627840,-0.514262,-0.511003,0.283254,0.363473,0.742967,0.470760
424,4170988098,0.621449,-0.520784,-0.511824,0.283949,0.180126,0.655666,0.519682
425,4171021432,0.615138,-0.526775,-0.511892,0.286507,0.533370,0.653852,0.529015
426,4171054766,0.609014,-0.532060,-0.511538,0.290428,0.124636,0.405168,0.254980
427,4171088100,0.604349,-0.535049,-0.510803,0.295923,0.208037,0.563344,0.245791
428,4171121434,0.598724,-0.539414,-0.509611,0.301437,0.246225,0.483530,0.226533
429,4171154768,0.592152,-0.544632,-0.508552,0.306779,-0.060416,0.487411,0.109087
430,4171188102,0.583509,-0.552213,-0.508341,0.310119,0.319666,0.582757,0.220428
431,4171221436,0.573021,-0.562055,-0.508518,0.311700,0.282113,0.493731,0.143048
432,4171254770,0.558569,-0.576666,-0.509352,0.309875,0.420723,0.532491,-0.448132
433,4171288104,0.536948,-0.598858,-0.512038,0.301462,0.018017,0.283765,0.389952
434,4171321438,0.520758,-0.615689,-0.511270,0.297233,-0.044853,0.041245,0.892513
435,4171354772,0.511609,-0.625996,-0.507225,0.298518,0.195810,0.236506,0.393256
436,4171388106,0.500891,-0.637337,-0.503580,0.298870,0.161741,0.192601,-0.087651
437,4171421440,0.490279,-0.648280,-0.500084,0.298801,-0.186925,-0.024480,-0.028554
438,4171454774,0.482897,-0.656744,-0.495552,0.299886,-0.325996,-0.075297,0.103815
439,4171488108,0.478101,-0.663723,-0.490389,0.300691,-0.657055,-0.214217,-0.658310
440,4171521442,0.475526,-0.670137,-0.484248,0.300500,-0.432806,-0.177375,0.234140
441,4171554776,0.478575,-0.673544,-0.475887,0.301397,-0.861426,-0.239265,-0.652421
442,4171588110,0.481917,-0.678167,-0.466753,0.299987,-0.254267,-0.376217,-0.123442
443,4171621444,0.486762,-0.682575,-0.456964,0.297226,-0.558763,-0.305647,0.387414
444,4171654778,0.495960,-0.683721,-0.446019,0.296010,-0.647555,-0.460718,-0.648904
445,4171688112,0.503821,-0.685624,-0.436125,0.293061,-0.472584,-0.512741,-0.134293
446,4171721446,0.511693,-0.687202,-0.427073,0.289029,-0.887153,-0.342819,-0.008208
447,4171754780,0.521219,-0.687463,-0.417540,0.285292,-0.743701,-0.314185,-0.273643
448,4171788114,0.532020,-0.687015,-0.407076,0.281531,-0.893995,-0.011313,0.314890
449,4171821448,0.547464,-0.682712,-0.395229,0.279261,-1.121573,0.302029,0.145226
450,4171854782,0.569432,-0.672394,-0.381891,0.278924,-0.793022,0.359048,0.021828
451,4171888116,0.594178,-0.659078,-0.368079,0.277656,-0.346822,0.393901,-0.120332
452,4171921450,0.616221,-0.647865,-0.355395,0.272475,-0.288913,0.391540,-0.453278
453,4171954784,0.635452,-0.638860,-0.344159,0.263856,-0.204277,0.353334,-0.003456
454,4171988118,0.655763,-0.627990,-0.333271,0.254045,-0.184444,0.275491,0.353998
455,4172021452,0.680623,-0.610831,-0.321967,0.244910,-0.169425,0.109350,0.235886
456,4172054786,0.710033,-0.585795,-0.310985,0.236623,-0.136975,0.058007,0.288003
457,4172088120,0.743152,-0.551865,-0.300985,0.229311,0.195250,-0.246633,0.954318
458,4172121454,0.779501,-0.507452,-0.291761,0.223050,0.269015,-0.806546,0.354623
459,4172154788,0.815830,-0.454433,-0.283732,0.217748,0.148051,-1.015314,-0.462421
460,4172188122,0.847166,-0.399566,-0.278737,0.212058,-0.064262,-1.017801,-1.118103
461,4172221456,0.867488,-0.357020,-0.280244,0.203644,-0.385383,-0.250991,-2.270339
462,4172254790,0.875691,-0.336056,-0.289518,0.190832,-0.630699,0.176042,-2.206267
463,4172288124,0.875588,-0.331849,-0.304759,0.174211,-0.773766,-0.069373,-1.873516
464,4172321458,0.872166,-0.332316,-0.323466,0.155781,-0.713829,-0.640246,-0.974017
465,4172354792,0.870322,-0.324699,-0.342998,0.139527,-0.664776,-1.077084,0.523171
466,4172388126,0.871259,-0.305828,-0.361705,0.128655,-0.179381,-0.990996,0.648383
467,4172421460,0.871743,-0.284997,-0.379595,0.121468,-0.002641,-0.873847,0.660569
468,4172454794,0.869341,-0.269755,-0.397505,0.116081,-0.024383,-0.765940,1.100494
469,4172488128,0.862476,-0.264464,-0.416939,0.111185,0.591734,-0.895216,-0.072330
470,4172521462,0.851537,-0.269762,-0.437250,0.104552,0.017002,-0.584065,0.450529
471,4172554796,0.839756,-0.275319,-0.457735,0.097439,-0.399554,-0.512512,1.029917
472,4172588130,0.831151,-0.270393,-0.477004,0.092456,-0.625148,-0.769631,0.449041
473,4172621464,0.825248,-0.255494,-0.495752,0.089014,-0.407310,-0.373461,0.301969
474,4172654798,0.820373,-0.234415,-0.514452,0.085918,-0.077390,-0.116341,0.201008
475,4172688132,0.814310,-0.213039,-0.533845,0.080803,0.233572,-0.027102,0.188209
476,4172721466,0.806985,-0.191709,-0.553684,0.073915,0.477389,-0.014837,0.575660
477,4172754800,0.799522,-0.168630,-0.572576,0.067013,0.257694,-0.165921,1.111353
478,4172788134,0.792789,-0.142492,-0.589251,0.063015,-0.129980,-0.815228,1.876970
479,4172821468,0.787317,-0.111500,-0.602836,0.065534,-0.113294,-0.772240,1.554670
480,4172854802,0.782478,-0.082523,-0.612774,0.073703,0.444852,-0.986487,1.012548
481,4172888136,0.778532,-0.059729,-0.618791,0.086157,0.571744,-0.848527,0.886259
482,4172921470,0.775398,-0.044784,-0.621732,0.101030,0.534673,-0.701362,0.604950
483,4172954804,0.772310,-0.037792,-0.623435,0.115944,0.695895,-0.638581,0.436017
484,4172988138,0.768970,-0.035657,-0.624768,0.130705,0.680508,-0.645897,0.341340
485,4173021472,0.765253,-0.034465,-0.625992,0.146083,0.512517,-0.582271,0.219913
486,4173054806,0.761075,-0.031882,-0.627191,0.162436,0.607315,-0.399590,0.051533
487,4173088140,0.756786,-0.027880,-0.627997,0.179225,0.506015,-0.185478,0.026309
488,4173121474,0.752783,-0.023291,-0.628123,0.195558,0.498589,0.243754,0.081581
489,4173154808,0.749231,-0.020241,-0.627849,0.209889,0.489492,0.565235,0.042512
490,4173188142,0.745762,-0.019349,-0.628003,0.221545,0.382566,0.584030,-0.007858
491,4173221476,0.742041,-0.018208,-0.628802,0.231640,0.284910,0.444201,0.250011
492,4173254810,0.738368,-0.013070,-0.629139,0.242552,0.104083,0.554902,0.534583
493,4173288144,0.735066,-0.004043,-0.628429,0.254449,0.064067,0.701849,0.458689
494,4173321478,0.732175,0.007332,-0.626783,0.266487,0.115491,0.911411,0.342547
495,4173354812,0.729749,0.019495,-0.624647,0.277322,-0.009593,0.804569,0.250157
496,4173388146,0.727856,0.032833,-0.622136,0.286533,-0.042931,0.738568,0.321462
497,4173421480,0.726532,0.046729,-0.619533,0.293518,0.004605,0.566792,-0.040397
498,4173454814,0.725366,0.061264,-0.617155,0.298692,-0.057037,0.335707,-0.226055
499,4173488148,0.724187,0.076769,-0.614891,0.302613,-0.055900,0.124846,-0.248995
500,4173521482,0.723029,0.093307,-0.612429,0.305710,-0.025950,-0.182079,-0.271131
501,4173554816,0.721989,0.110271,-0.609445,0.308470,0.104744,-0.205152,-0.223082
502,4173588150,0.721365,0.125601,-0.606096,0.310662,0.261811,-0.267301,-0.240302
503,4173621484,0.721201,0.137803,-0.602568,0.312725,0.336970,-0.257408,-0.195701
504,4173654818,0.721647,0.145333,-0.599195,0.314760,0.438275,-0.062765,-0.184231
505,4173688152,0.722761,0.147013,-0.596621,0.316310,0.594845,0.026341,-0.146241
506,4173721486,0.724191,0.143926,-0.594828,0.317833,0.716244,0.065748,-0.019403
507,4173754820,0.725693,0.137542,-0.593578,0.319567,0.762774,0.140783,0.042323
508,4173788154,0.726943,0.128793,-0.592885,0.321651,0.733583,0.247574,-0.134430
509,4173821488,0.727618,0.118748,-0.592959,0.323845,0.635814,0.338193,-0.158036
510,4173854822,0.727865,0.108426,-0.593450,0.326004,0.366547,0.054569,0.186673
511,4173888156,0.727981,0.098681,-0.593630,0.328503,0.164593,-0.031742,0.169100
512,4173921490,0.728027,0.089452,-0.593599,0.331091,0.021416,-0.164429,0.193871
513,4173954824,0.727737,0.081676,-0.593015,0.334763,0.043457,-0.464409,0.494659
514,4173988158,0.726807,0.076013,-0.591402,0.340915,-0.043596,-0.335049,0.521282
515,4174021492,0.725434,0.071006,-0.589145,0.348737,0.022408,-0.161616,0.224771
516,4174054826,0.723959,0.064828,-0.587073,0.356416,0.055839,-0.179405,0.220442
517,4174088160,0.722492,0.057178,-0.585342,0.363479,0.170129,-0.239813,0.273107
518,4174121494,0.720589,0.048537,-0.583983,0.370628,0.289796,-0.289170,0.238407
519,4174154828,0.718019,0.036367,-0.584271,0.376510,0.167389,-0.079593,0.320990
520,4174188162,0.714773,0.014480,-0.588589,0.377437,0.115580,0.066763,0.161074
521,4174221496,0.710123,-0.016453,-0.596347,0.373939,0.305091,-0.083022,0.279305
522,4174254830,0.703858,-0.049183,-0.603980,0.370647,0.243758,-0.407524,0.523139
523,4174288164,0.696891,-0.077888,-0.608955,0.370750,0.102222,-0.331385,0.511407
524,4174321498,0.690014,-0.101286,-0.610875,0.374778,0.007973,0.052775,0.227905
525,4174354832,0.683754,-0.120586,-0.610713,0.380756,0.000687,0.442067,-0.203384
526,4174388166,0.678261,-0.137293,-0.609766,0.386399,0.041689,0.588156,-0.127990
527,4174421500,0.673662,-0.151922,-0.608352,0.391169,0.099678,0.670326,-0.010174
528,4174454834,0.669575,-0.165902,-0.607224,0.394247,0.018963,0.802056,-0.046614
529,4174488168,0.665431,-0.180921,-0.606991,0.395015,0.035841,0.708341,-0.034309
530,4174521502,0.661682,-0.194466,-0.606592,0.395489,0.086263,0.544254,0.027427
531,4174554836,0.658745,-0.205614,-0.605234,0.396832,0.067763,0.398427,0.240973
532,4174588170,0.657033,-0.214334,-0.602881,0.398634,0.035452,0.429423,0.002101
533,4174621504,0.656102,-0.221727,-0.600425,0.399828,0.013982,0.378528,-0.148311
534,4174654838,0.655720,-0.227975,-0.597957,0.400639,0.052977,0.177885,0.001662
535,4174688172,0.655826,-0.233285,-0.595416,0.401192,0.103780,0.231241,-0.109355
536,4174721506,0.656056,-0.238516,-0.593195,0.401030,0.144442,0.145252,-0.097519
537,4174754840,0.656438,-0.243313,-0.591192,0.400482,0.265377,0.083946,0.205379
538,4174788174,0.657197,-0.246859,-0.589048,0.400225,0.176716,0.086817,0.123251
539,4174821508,0.658030,-0.249540,-0.587081,0.400084,0.086800,0.096849,0.176461
540,4174854842,0.658981,-0.251449,-0.585139,0.400169,0.049106,0.144993,0.124120
541,4174888176,0.659942,-0.253196,-0.583290,0.400184,0.040336,0.146412,0.058112
542,4174921510,0.660802,-0.256012,-0.581810,0.399125,-0.103547,0.117985,0.293298
543,4174954844,0.662005,-0.259758,-0.579882,0.397515,-0.069289,0.132534,0.299837
544,4174988178,0.664124,-0.263846,-0.576728,0.395872,-0.338096,0.210192,0.508047
545,4175021512,0.667645,-0.268839,-0.571748,0.393809,-0.700175,0.329286,0.633606
546,4175054846,0.672459,-0.275533,-0.564839,0.390951,-0.398865,0.457598,0.458830
547,4175088180,0.677825,-0.284112,-0.556754,0.387123,-0.421390,0.223083,0.533612
548,4175121514,0.683698,-0.293263,-0.547430,0.383249,-0.339996,0.324708,0.603614
549,4175154848,0.689823,-0.303063,-0.536942,0.379468,0.093147,0.194608,0.485672
550,4175188182,0.696331,-0.312632,-0.525233,0.376192,0.321192,-0.030131,0.441725
551,4175221516,0.703296,-0.321442,-0.512674,0.373123,0.372416,-0.146801,0.352798
552,4175254850,0.710054,-0.330469,-0.499865,0.369803,0.472079,-0.254960,0.175671
553,4175288184,0.715309,-0.341186,-0.487638,0.366252,0.603177,-0.515826,0.039955
554,4175321518,0.718915,-0.352515,-0.476307,0.363362,0.585459,-0.683244,-0.010703
555,4175354852,0.721636,-0.362522,-0.465439,0.362205,0.601637,-0.684347,-0.286123
556,4175388186,0.723494,-0.371054,-0.455442,0.362566,0.746250,-0.778461,-0.552914
557,4175421520,0.724265,-0.378365,-0.447232,0.363689,0.812922,-0.616968,-0.475955
558,4175454854,0.724255,-0.384347,-0.440882,0.365187,0.737171,-0.437900,-0.346763
559,4175488188,0.723394,-0.389604,-0.436152,0.366997,0.818082,-0.346026,-0.549067
560,4175521522,0.721306,-0.395072,-0.433344,0.368584,0.584571,-0.286076,-0.436374
561,4175554856,0.718692,-0.399922,-0.432298,0.369687,0.416288,-0.193790,-0.330448
562,4175588190,0.716385,-0.403505,-0.432022,0.370593,0.258983,-0.231308,-0.333744
563,4175621524,0.714523,-0.406148,-0.432099,0.371210,0.198509,-0.473244,-0.165974
564,4175654858,0.712747,-0.408569,-0.432315,0.371716,0.036963,-0.544962,-0.039213
565,4175688192,0.710366,-0.412141,-0.432374,0.372262,0.018112,-0.634281,0.092338
566,4175721526,0.707722,-0.416354,-0.431931,0.373122,0.050712,-0.672857,0.337477
567,4175754860,0.705332,-0.419938,-0.430566,0.375202,0.091578,-0.551572,0.340108
568,4175788194,0.702454,-0.423611,-0.428988,0.378270,-0.010112,-0.454044,0.196851
569,4175821528,0.699354,-0.427055,-0.427682,0.381605,-0.023499,-0.301935,0.220134
570,4175854862,0.697019,-0.429020,-0.426340,0.385157,-0.223252,-0.551410,0.025968
571,4175888196,0.695552,-0.429140,-0.424759,0.389398,-0.264537,-0.668407,-0.153132
572,4175921530,0.694446,-0.428388,-0.422757,0.394347,-0.153206,-0.784759,-0.086419
573,4175954864,0.693222,-0.427691,-0.420063,0.400096,0.175118,-0.940713,0.216044
574,4175988198,0.691140,-0.427857,-0.416919,0.406753,0.166165,-0.953368,0.368175
575,4176021532,0.687731,-0.429290,-0.413871,0.414068,0.018078,-1.050928,0.400698
576,4176054866,0.683143,-0.431678,-0.411356,0.421619,-0.126035,-1.060441,0.379498
577,4176088200,0.678456,-0.433947,-0.408823,0.429250,-0.312888,-0.814790,0.281596
578,4176121534,0.674525,-0.435753,-0.405924,0.436311,-0.436374,-0.652230,0.379835
579,4176154868,0.671389,-0.437856,-0.402797,0.441904,-0.288794,-0.208094,0.158632
580,4176188202,0.668076,-0.442522,-0.400409,0.444440,0.081982,0.249966,0.045944
581,4176221536,0.665065,-0.449360,-0.398435,0.443868,0.266057,0.750364,0.026447
582,4176254870,0.664008,-0.455844,-0.396123,0.440899,0.522048,1.325955,0.108699
583,4176288204,0.665123,-0.460986,-0.393435,0.436254,0.613779,1.665596,-0.249535
584,4176321538,0.666179,-0.466391,-0.392801,0.429415,0.306895,1.501512,-1.017164
585,4176354872,0.664948,-0.473514,-0.396730,0.419810,0.034966,1.382780,-1.025992
586,4176388206,0.663088,-0.479981,-0.403479,0.408832,0.083171,1.071241,0.173120
587,4176421540,0.664967,-0.481301,-0.408197,0.399436,-0.051677,1.113733,0.418126
588,4176454874,0.669290,-0.480968,-0.409681,0.391009,0.372668,1.066779,0.148714
589,4176488208,0.671494,-0.485785,-0.410046,0.380757,0.771585,1.036178,0.184080
590,4176521542,0.669528,-0.497448,-0.410682,0.368272,0.834896,0.980358,0.143487
591,4176554876,0.663492,-0.513761,-0.412261,0.354789,0.892771,0.810603,0.117693
592,4176588210,0.656135,-0.529593,-0.414307,0.342599,0.516232,0.932750,0.296513
593,4176621544,0.649849,-0.541886,-0.416263,0.332846,0.270197,1.142655,-0.079014
594,4176654878,0.643141,-0.553223,-0.419532,0.322974,0.527310,1.075792,-0.504921
595,4176688212,0.636068,-0.564161,-0.423948,0.312110,0.578837,0.528385,0.557504
596,4176721546,0.633732,-0.568790,-0.426733,0.304575,0.428363,0.265465,0.716467
597,4176754880,0.633872,-0.570050,-0.428138,0.299922,0.410024,0.261757,0.539795
598,4176788214,0.630554,-0.575698,-0.429275,0.294452,0.533645,-0.211036,0.387861
599,4176821548,0.626054,-0.583040,-0.429291,0.289545,0.184044,-0.445341,1.128464
600,4176854882,0.622444,-0.589297,-0.427609,0.287138,-0.001670,-0.348058,0.989828
601,4176888216,0.617843,-0.596350,-0.424995,0.286395,-0.240440,-0.352678,0.260975
602,4176921550,0.611387,-0.604936,-0.422604,0.285779,-0.446780,-0.440873,0.432108
603,4176954884,0.605765,-0.612417,-0.419524,0.286355,-0.861607,-0.058650,0.316203
604,4176988218,0.600393,-0.620282,-0.415183,0.287066,-0.880119,-0.182189,0.048587
605,4177021552,0.596530,-0.627732,-0.408960,0.287857,-1.105633,0.251481,0.382270
606,4177054886,0.596398,-0.633657,-0.399337,0.288657,-1.056111,0.605908,0.310025
607,4177088220,0.600138,-0.638521,-0.385992,0.288342,-0.776447,0.850628,0.055147
608,4177121554,0.608095,-0.642137,-0.368849,0.286070,-0.614803,1.217011,-0.026803
609,4177154888,0.621291,-0.642627,-0.348988,0.281497,-0.662531,1.290746,-0.677780
610,4177188222,0.638880,-0.639429,-0.328919,0.273460,-0.421234,1.153038,-1.256531
611,4177221556,0.658502,-0.633769,-0.311208,0.260515,-0.303183,0.873979,-1.920462
612,4177254890,0.677377,-0.627550,-0.298122,0.241805,-0.154761,0.640231,-2.026490
613,4177288224,0.695395,-0.620144,-0.290362,0.218044,0.531125,0.114387,-0.829019
614,4177321558,0.713195,-0.610208,-0.286880,0.191586,0.422690,-0.184404,-0.523862
615,4177354892,0.731728,-0.595966,-0.286777,0.164815,0.019126,-0.143835,-0.661768
616,4177388226,0.752896,-0.574477,-0.289679,0.138619,-0.146226,-0.452185,-0.259994
617,4177421560,0.777540,-0.542910,-0.296242,0.113697,0.153179,-1.312230,-0.054144
618,4177454894,0.803801,-0.502020,-0.306314,0.089764,-0.017508,-1.470861,0.020262
619,4177488228,0.829784,-0.452731,-0.319159,0.068084,-0.664059,-0.551466,0.548732
620,4177521562,0.850433,-0.402836,-0.334852,0.048647,-0.490085,0.152711,-0.412060
621,4177554896,0.859258,-0.369239,-0.353017,0.026892,0.081748,0.233412,-0.992948
622,4177588230,0.855041,-0.361769,-0.371523,-0.002259,0.145448,0.358645,-0.149323
623,4177621564,0.840478,-0.376518,-0.387747,-0.038576,0.138461,-0.345333,0.657997
624,4177654898,0.823614,-0.393768,-0.401147,-0.075454,-0.776396,-1.488078,2.150055
625,4177688232,0.815911,-0.389376,-0.415089,-0.101892,-0.801533,-1.659895,1.896389
626,4177721566,0.815098,-0.369998,-0.430021,-0.117490,-0.220228,-1.099240,1.018882
627,4177754900,0.814442,-0.350971,-0.444038,-0.127827,0.035249,-0.599820,0.483008
628,4177788234,0.810753,-0.340649,-0.455852,-0.137265,-0.131370,-0.400870,0.418415
629,4177821568,0.804149,-0.338625,-0.465941,-0.146910,-0.227654,-0.607520,0.335517
630,4177854902,0.796522,-0.339909,-0.475020,-0.156131,-0.277712,-0.512021,0.393621
631,4177888236,0.789533,-0.340400,-0.483532,-0.164217,-0.319295,-0.697098,0.344867
632,4177921570,0.784264,-0.337098,-0.492299,-0.170125,-0.366245,-0.584576,0.367606
633,4177954904,0.780465,-0.330248,-0.501643,-0.173694,-0.317941,-0.322088,0.397405
634,4177988238,0.777399,-0.322278,-0.510901,-0.175427,-0.296864,-0.176323,0.459373
635,4178021572,0.774340,-0.316089,-0.519073,-0.176221,-0.210662,-0.193227,0.440432
636,4178054906,0.771905,-0.311360,-0.525470,-0.176366,-0.248102,0.013831,0.473573
637,4178088240,0.770156,-0.308032,-0.529893,-0.176621,-0.291133,0.066173,0.410603
638,4178121574,0.768732,-0.306370,-0.532622,-0.177503,-0.375463,0.070909,0.362484
639,4178154908,0.767387,-0.306113,-0.534146,-0.179181,-0.358582,0.003116,0.235300
640,4178188242,0.766167,-0.306367,-0.535093,-0.181128,-0.401694,-0.183321,0.162487
641,4178221576,0.765411,-0.305692,-0.536120,-0.182426,-0.439238,-0.296224,0.116742
642,4178254910,0.765351,-0.303388,-0.537475,-0.182538,-0.392270,-0.322941,0.135225
643,4178288244,0.765749,-0.300312,-0.538849,-0.181903,-0.179975,-0.333068,0.210891
644,4178321578,0.766205,-0.298075,-0.539628,-0.181351,-0.086121,-0.283287,0.168233
645,4178354912,0.766438,-0.297732,-0.539491,-0.181337,-0.044959,-0.303461,0.060449
646,4178388246,0.766632,-0.298325,-0.538834,-0.181497,-0.154435,-0.392928,0.129629
647,4178421580,0.767195,-0.298362,-0.538151,-0.181085,-0.172653,-0.347604,0.170682
648,4178454914,0.768022,-0.298858,-0.536906,-0.180453,-0.044561,-0.357308,0.305967
649,4178488248,0.769246,-0.300979,-0.534297,-0.179459,-0.124798,-0.393710,0.480473
650,4178521582,0.771161,-0.305514,-0.529529,-0.177698,-0.117105,-0.240260,0.513485
651,4178554916,0.773279,-0.314325,-0.521678,-0.176345,-0.027936,-0.248426,0.471584
652,4178588250,0.774956,-0.327995,-0.510805,-0.175916,-0.164827,-0.239869,0.436582
653,4178621584,0.776357,-0.344212,-0.498026,-0.175396,-0.399314,-0.153831,0.463901
654,4178654918,0.777857,-0.361302,-0.483842,-0.174072,-0.461981,-0.190061,0.595925
655,4178688252,0.779405,-0.379211,-0.468111,-0.172060,-0.333909,-0.101722,0.621297
656,4178721586,0.780520,-0.398780,-0.450405,-0.170009,-0.171881,-0.045113,0.490579
657,4178754920,0.781199,-0.419321,-0.430978,-0.167813,-0.173542,-0.078243,0.418989
658,4178788254,0.781673,-0.439465,-0.410619,-0.165094,0.048822,-0.176340,0.213933
659,4178821588,0.782125,-0.457765,-0.390625,-0.161705,-0.032987,-0.217083,0.425754
660,4178854922,0.783786,-0.471604,-0.372351,-0.156939,0.106585,-0.281507,0.330941
661,4178888256,0.786081,-0.481877,-0.356401,-0.151179,0.210328,-0.190396,0.007410
662,4178921590,0.787800,-0.490959,-0.342440,-0.145158,0.218118,-0.062620,0.005604
663,4178954924,0.789015,-0.499162,-0.330141,-0.138943,0.156176,-0.195047,-0.037968
664,4178988258,0.790274,-0.505937,-0.319409,-0.132205,0.109281,-0.229454,-0.067055
665,4179021592,0.791195,-0.512034,-0.309996,-0.125459,0.192842,-0.213821,-0.039176
666,4179054926,0.791949,-0.517401,-0.301626,-0.118914,0.128264,-0.227966,0.261197
667,4179088260,0.793056,-0.521687,-0.293727,-0.112402,0.182029,-0.097045,0.341677
668,4179121594,0.794123,-0.526060,-0.285270,-0.106098,0.403896,-0.113018,0.123854
669,4179154928,0.794483,-0.531620,-0.275883,-0.100354,0.313734,-0.080975,-0.124290
670,4179188262,0.794233,-0.537773,-0.266302,-0.095307,0.164836,-0.007056,-0.124702
671,4179221596,0.793045,-0.544639,-0.257195,-0.091129,0.036931,-0.190670,-0.112119
672,4179254930,0.791282,-0.551573,-0.249083,-0.087198,-0.233405,-0.092112,0.019176
673,4179288264,0.790956,-0.555748,-0.242336,-0.082534,-0.355250,0.006695,0.060261
674,4179321598,0.791683,-0.557944,-0.236569,-0.077314,-0.280323,-0.183378,-0.141397
675,4179354932,0.791853,-0.560702,-0.231094,-0.071990,-0.278001,-0.201148,-0.041276
676,4179388266,0.792293,-0.563043,-0.225538,-0.066278,-0.331011,-0.164517,0.095599
677,4179421600,0.793708,-0.564086,-0.219657,-0.059925,-0.161736,-0.334453,-0.030974
678,4179454934,0.794664,-0.565842,-0.213271,-0.053412,-0.159927,-0.376449,-0.136133
679,4179488268,0.794920,-0.568553,-0.206601,-0.046582,-0.126143,-0.427762,0.067296
680,4179521602,0.794817,-0.571429,-0.200465,-0.039433,-0.289428,-0.503608,0.136878
681,4179554936,0.794366,-0.574250,-0.195539,-0.031447,-0.409381,-0.408845,0.384707
682,4179588270,0.793826,-0.576647,-0.191992,-0.021529,-0.630790,-0.449883,0.423272
683,4179621604,0.792801,-0.578922,-0.190383,-0.008728,-0.911832,-0.456212,0.399960
684,4179654938,0.792203,-0.579712,-0.190521,0.007479,-0.914879,-0.244536,0.468877
685,4179688272,0.792643,-0.578210,-0.191594,0.026199,-0.689325,-0.514902,0.418023
686,4179721606,0.792991,-0.576078,-0.192860,0.045931,-0.533318,-0.737504,0.487915
687,4179754940,0.793396,-0.573373,-0.193405,0.066076,-0.300132,-0.650133,0.194076
688,4179788274,0.792783,-0.571771,-0.192861,0.085925,-0.054416,-0.678327,0.052018
689,4179821608,0.790654,-0.571928,-0.191542,0.105272,0.195226,-0.576233,0.282116
690,4179854942,0.788307,-0.571999,-0.189424,0.124553,0.334787,-0.491877,0.162373
691,4179888276,0.785448,-0.572211,-0.187159,0.143610,0.568722,-0.281290,0.222627
692,4179921610,0.782372,-0.572016,-0.185155,0.162527,0.789004,0.204201,0.140585
693,4179954944,0.778645,-0.572008,-0.183879,0.180867,0.751295,0.432211,-0.332895
694,4179988278,0.773216,-0.573791,-0.184009,0.197602,0.500991,0.391896,-0.253172
695,4180021612,0.767814,-0.575134,-0.185226,0.213022,0.408043,0.184018,-0.047410
696,4180054946,0.763023,-0.575569,-0.186598,0.227381,0.303812,-0.104579,-0.168154
697,4180088280,0.757210,-0.577529,-0.188192,0.240171,-0.009721,-0.376261,-0.016604
698,4180121614,0.751017,-0.580101,-0.189320,0.252229,-0.022008,-0.507700,0.084224
699,4180154948,0.744604,-0.582914,-0.189910,0.264036,-0.102818,-0.612881,-0.281626
700,4180188282,0.737520,-0.586420,-0.190899,0.275207,-0.162034,-0.486209,-0.222857
701,4180221616,0.731623,-0.588257,-0.192187,0.285921,0.022867,-0.292259,-0.117110
702,4180254950,0.728110,-0.587009,-0.193998,0.296052,0.097010,-0.063681,-0.209236
703,4180288284,0.726338,-0.583306,-0.196586,0.305853,0.529730,0.370344,0.223056
704,4180321618,0.726076,-0.577610,-0.199341,0.315354,0.539438,0.573326,-0.113523
705,4180354952,0.724945,-0.573125,-0.203073,0.323649,0.533453,0.707362,-0.235891
706,4180388286,0.723057,-0.570114,-0.207087,0.330574,0.746377,0.896232,0.174807
707,4180421620,0.722000,-0.566961,-0.210159,0.336319,0.444609,0.727876,-0.188787
708,4180454954,0.720035,-0.565874,-0.213383,0.340307,0.271752,0.570192,-0.271076
709,4180488288,0.717449,-0.566473,-0.216780,0.342620,0.051738,0.370680,-0.023819
710,4180521622,0.716212,-0.565938,-0.219803,0.344161,-0.219576,0.076249,-0.036384
711,4180554956,0.716129,-0.564258,-0.222909,0.345093,-0.409639,-0.214288,-0.150473
712,4180588290,0.716300,-0.562328,-0.226321,0.345667,-0.323335,-0.328510,0.051099
713,4180621624,0.715771,-0.561371,-0.229668,0.346110,-0.374414,-0.563794,-0.223872
714,4180654958,0.712730,-0.563666,-0.233825,0.345872,-0.415129,-0.587483,-0.547751
715,4180688292,0.706696,-0.569735,-0.239669,0.344306,-0.381497,-0.506031,-0.471366
716,4180721626,0.699551,-0.577176,-0.246816,0.341443,-0.527013,-0.227336,-0.587519
717,4180754960,0.692674,-0.584568,-0.254825,0.336976,-0.378942,-0.142356,-0.922215
718,4180788294,0.686663,-0.591894,-0.263078,0.330077,-0.349282,-0.153076,-0.262384
719,4180821628,0.683887,-0.596563,-0.270234,0.321544,-0.077732,0.119980,-0.297785
720,4180854962,0.682723,-0.600114,-0.276626,0.311827,0.634122,0.253476,0.329294
721,4180888296,0.682477,-0.602290,-0.282416,0.302851,0.709601,0.585269,0.709707
722,4180921630,0.679916,-0.606345,-0.288887,0.294296,0.461430,0.695675,0.453304
723,4180954964,0.676813,-0.610079,-0.295386,0.287195,0.098539,0.617721,1.336388
724,4180988298,0.678867,-0.607274,-0.299456,0.284059,-0.037431,0.295210,0.968183
725,4181021632,0.681628,-0.603497,-0.302084,0.282712,0.116488,0.361575,0.428279
726,4181054966,0.682506,-0.602207,-0.303632,0.281681,0.252278,0.288467,0.397166
727,4181088300,0.681725,-0.603175,-0.304280,0.280803,0.280437,0.238045,0.419296
728,4181121634,0.680642,-0.604645,-0.303881,0.280702,0.392529,0.204549,0.549408
729,4181154968,0.679396,-0.606302,-0.302625,0.281501,0.228387,0.098576,0.046439
730,4181188302,0.676738,-0.609422,-0.301666,0.282193,0.092498,0.072589,-0.030808
731,4181221636,0.673571,-0.613059,-0.300802,0.282815,0.006154,0.078626,0.161923
732,4181254970,0.671052,-0.615981,-0.299544,0.283788,-0.121028,0.117859,0.075557
733,4181288304,0.668094,-0.619412,-0.298504,0.284393,-0.091343,0.290893,0.042525
734,4181321638,0.664330,-0.623678,-0.297719,0.284711,-0.052148,0.477624,0.201757
735,4181354972,0.660635,-0.627796,-0.297007,0.285003,-0.142453,0.440165,0.113206
736,4181388306,0.656477,-0.632109,-0.297377,0.284690,-0.114582,0.492139,0.180497
737,4181421640,0.652146,-0.635973,-0.298981,0.284360,-0.035524,0.430337,0.361759
738,4181454974,0.647788,-0.638981,-0.301543,0.284871,-0.045397,0.352347,0.289546
739,4181488308,0.642267,-0.642352,-0.305251,0.285840,0.157840,0.108731,0.326743
740,4181521642,0.636761,-0.645151,-0.309136,0.287674,0.001713,0.181130,0.613491
741,4181554976,0.631859,-0.647108,-0.312040,0.290933,-0.119725,0.311372,0.657928
742,4181588310,0.626658,-0.648977,-0.314057,0.295807,0.113335,0.401595,0.557468
743,4181621644,0.619508,-0.652147,-0.315345,0.302450,0.247466,0.800097,0.558112
744,4181654978,0.612889,-0.653965,-0.315638,0.311569,0.299726,1.351432,0.740923
745,4181688312,0.608861,-0.652654,-0.314676,0.322980,0.272858,1.953714,0.198684
746,4181721646,0.608037,-0.648994,-0.312477,0.333859,-0.212187,2.050515,-1.190350
747,4181754980,0.610176,-0.644979,-0.310034,0.339959,-0.357841,1.415009,-2.427931
748,4181788314,0.615304,-0.641960,-0.308816,0.337530,-0.918339,1.666284,-1.582190
749,4181821648,0.626370,-0.637404,-0.309082,0.325348,-1.071990,1.878940,-1.854317
750,4181854982,0.645329,-0.628674,-0.308180,0.305534,-0.907731,1.594660,-2.163973
751,4181888316,0.670541,-0.614830,-0.306505,0.280034,-0.283846,1.191267,-0.072867
752,4181921650,0.704640,-0.589698,-0.302995,0.252862,0.140035,0.891244,0.801952
753,4181954984,0.745739,-0.550883,-0.298319,0.226745,0.156268,0.452885,0.007630
754,4181988318,0.784563,-0.506351,-0.296102,0.200995,0.303593,-0.018172,-0.090062
755,4182021652,0.814520,-0.465858,-0.299329,0.173031,0.271984,-0.406990,-0.623786
756,4182054986,0.833543,-0.435250,-0.308806,0.142856,0.212196,-0.609129,-0.909006
757,4182088320,0.842866,-0.414469,-0.324585,0.111548,1.222352,-2.105640,-1.295509
758,4182121654,0.846988,-0.399862,-0.341684,0.077327,-1.081669,0.113676,2.391071
759,4182154988,0.859411,-0.358479,-0.360190,0.056350,-0.337456,-1.058534,-0.083980
760,4182188322,0.867084,-0.321286,-0.378950,0.036640,-0.531491,-1.380581,1.368932
761,4182221656,0.868477,-0.295824,-0.397469,0.016092,0.140898,-0.833347,0.181135
762,4182254990,0.862750,-0.289623,-0.414407,-0.007280,0.113505,-0.789917,0.043055
763,4182288324,0.853082,-0.294180,-0.429805,-0.031342,-0.401268,-0.974098,0.836085
764,4182321658,0.844108,-0.296283,-0.443941,-0.051196,-0.341864,-1.266479,0.963292
765,4182354992,0.837671,-0.293264,-0.456241,-0.064444,-0.472112,-1.461808,1.525251
766,4182388326,0.833563,-0.287568,-0.466348,-0.070727,-0.287122,-0.837450,1.136099
767,4182421660,0.830513,-0.284092,-0.473566,-0.072669,-0.371871,-0.506950,0.705040
768,4182454994,0.828319,-0.283973,-0.477447,-0.072786,-0.699822,-0.427108,0.855257
769,4182488328,0.826981,-0.286260,-0.478510,-0.072053,-0.744769,-0.311985,0.691950
770,4182521662,0.826286,-0.289937,-0.477702,-0.070675,-0.844271,-0.221936,0.642747
771,4182554996,0.826229,-0.293645,-0.475926,-0.067957,-0.758620,-0.257364,0.635915
772,4182588330,0.826763,-0.296942,-0.473534,-0.063713,-0.515173,-0.242102,0.367738
773,4182621664,0.827793,-0.299838,-0.470601,-0.058271,-0.457355,-0.219852,0.505947
774,4182654998,0.829893,-0.301072,-0.466909,-0.051339,-0.406469,-0.082763,0.644588
775,4182688332,0.832974,-0.301368,-0.462016,-0.043333,-0.051091,-0.068102,0.613280
776,4182721666,0.836681,-0.302279,-0.455360,-0.035281,0.246999,0.060998,0.513434
777,4182755000,0.840146,-0.305746,-0.447073,-0.028389,0.441001,0.052265,0.367084
778,4182788334,0.843451,-0.311535,-0.437053,-0.022925,0.480179,0.004836,0.440833
779,4182821668,0.845958,-0.319942,-0.426188,-0.018993,0.596776,0.074964,0.232130
780,4182855002,0.847720,-0.330527,-0.414549,-0.016684,0.610418,0.092404,0.189453
781,4182888336,0.848813,-0.342640,-0.402342,-0.015535,0.538475,0.121859,0.221294
782,4182921670,0.848471,-0.357847,-0.389606,-0.015990,0.540872,0.239370,-0.262753
783,4182955004,0.844447,-0.380750,-0.376243,-0.019651,0.411121,0.262032,-0.274783
784,4182988338,0.836414,-0.410995,-0.361691,-0.026085,-0.037075,-0.100587,0.320659
785,4183021672,0.827748,-0.439972,-0.346792,-0.031601,-0.181191,-0.385601,0.415020
786,4183055006,0.821887,-0.461139,-0.332705,-0.034144,-0.352303,-0.495346,0.430720
787,4183088340,0.820082,-0.473072,-0.320208,-0.033771,-0.362790,-0.313244,0.344953
788,4183121674,0.821168,-0.478225,-0.309786,-0.031989,-0.147323,-0.205758,-0.224641
789,4183155008,0.822747,-0.480720,-0.301799,-0.030297,-0.177904,-0.296235,-0.392138
790,4183188342,0.823995,-0.482155,-0.296233,-0.028456,-0.151380,-0.344050,-0.322794
791,4183221676,0.825209,-0.482415,-0.292667,-0.025650,-0.096184,-0.380439,-0.106517
792,4183255010,0.826677,-0.481525,-0.290293,-0.021803,0.074222,-0.411646,-0.027601
793,4183288344,0.827783,-0.480965,-0.288333,-0.017806,0.188163,-0.451766,-0.204822
794,4183321678,0.828179,-0.481529,-0.286438,-0.014415,0.141120,-0.403491,0.079873
795,4183355012,0.828164,-0.482737,-0.284573,-0.011533,0.044729,-0.467435,0.143369
796,4183388346,0.828355,-0.483497,-0.282835,-0.008321,-0.011610,-0.431776,0.117838
797,4183421680,0.828569,-0.483986,-0.281457,-0.004356,-0.168259,-0.422720,0.119096
798,4183455014,0.828533,-0.484423,-0.280844,0.000292,-0.335961,-0.421345,-0.041652
799,4183488348,0.828581,-0.484075,-0.281243,0.005713,-0.408453,-0.423073,0.082980
800,4183521682,0.829235,-0.482103,-0.282494,0.012160,-0.437540,-0.489911,0.201966
801,4183555016,0.829847,-0.479965,-0.283926,0.019489,-0.360532,-0.442092,0.015361
802,4183588350,0.829935,-0.478673,-0.285195,0.027376,-0.383993,-0.416640,0.266868
803,4183621684,0.829992,-0.477586,-0.285871,0.036185,-0.330292,-0.426614,0.514904
804,4183655018,0.830114,-0.476656,-0.285638,0.046114,-0.285099,-0.389972,0.292466
805,4183688352,0.829998,-0.476628,-0.284130,0.056616,-0.205691,-0.197332,0.157825
806,4183721686,0.829579,-0.477905,-0.280983,0.066777,-0.131668,-0.259031,-0.015779
807,4183755020,0.829475,-0.479035,-0.276811,0.076673,0.119628,-0.469284,-0.018617
808,4183788354,0.829573,-0.479645,-0.272621,0.086220,0.430544,-0.567803,0.195606
809,4183821688,0.828917,-0.480888,-0.269176,0.095881,0.487425,-0.387446,0.401383
810,4183855022,0.826689,-0.483855,-0.266680,0.106567,0.336234,-0.283215,0.222768
811,4183888356,0.823109,-0.488161,-0.265006,0.118188,0.172713,-0.152224,0.019004
812,4183921690,0.818747,-0.493280,-0.263794,0.129408,0.080439,-0.132774,-0.572704
813,4183955024,0.813873,-0.498557,-0.263865,0.139402,-0.272488,-0.280977,-0.225902
814,4183988358,0.810527,-0.500448,-0.265058,0.149490,-0.169891,-0.427593,0.174810
815,4184021692,0.809124,-0.498716,-0.266049,0.160696,0.183066,-0.679837,0.367409
816,4184055026,0.808321,-0.496115,-0.265867,0.172649,0.767287,-0.282688,0.628916
817,4184088360,0.805192,-0.498360,-0.263934,0.183435,0.665815,-0.272468,-0.591608
818,4184121694,0.797913,-0.506929,-0.263512,0.192159,0.068306,-0.463023,-0.121309
819,4184155028,0.791262,-0.512440,-0.265338,0.202265,0.006321,-0.232570,0.674854
820,4184188362,0.787694,-0.511324,-0.268200,0.214851,0.143073,0.055927,1.229577
821,4184221696,0.786042,-0.506023,-0.270272,0.230297,0.360167,0.617795,1.122686
822,4184255030,0.783615,-0.502676,-0.269664,0.246070,0.295125,0.812531,0.174148
823,4184288364,0.779247,-0.504583,-0.267235,0.258381,-0.129822,0.285555,-0.240188
824,4184321698,0.773938,-0.509188,-0.265135,0.267314,-0.235120,-0.374275,0.355447
825,4184355032,0.770036,-0.511211,-0.263077,0.276594,-0.326165,-0.417188,1.049851
826,4184388366,0.767604,-0.508989,-0.260582,0.289510,-0.253102,-0.047258,1.127207
827,4184421700,0.764563,-0.505718,-0.257806,0.305344,-0.056527,0.061426,0.589370
828,4184455034,0.759726,-0.504385,-0.255122,0.321451,-0.109185,-0.249068,-0.040371
829,4184488368,0.755406,-0.502331,-0.251725,0.337142,0.023592,-0.518540,-0.302452
830,4184521702,0.752810,-0.498399,-0.247692,0.351468,0.393012,-0.162978,-0.984818
831,4184555036,0.748613,-0.497582,-0.245826,0.362720,-0.006111,-0.187844,-1.755832
832,4184588370,0.743002,-0.498250,-0.247994,0.371752,-0.246296,0.101375,-1.301784
833,4184621704,0.739381,-0.495501,-0.252773,0.379348,0.279163,0.336045,-0.891226
834,4184655038,0.738304,-0.488971,-0.259567,0.385287,0.805247,0.681395,-0.779596
835,4184688372,0.737892,-0.481296,-0.267552,0.390246,1.223360,1.317619,0.515318
836,4184721706,0.737685,-0.473485,-0.272811,0.396500,1.574746,1.739466,0.827835
837,4184755040,0.736112,-0.469712,-0.274745,0.402530,0.930013,1.597141,-0.574244
838,4184788374,0.731195,-0.474631,-0.277599,0.403761,0.351438,1.368987,-1.145952
839,4184821708,0.725735,-0.483479,-0.281777,0.400207,0.122175,1.230817,-0.881934
840,4184855042,0.723124,-0.489803,-0.285764,0.394373,0.111656,1.205879,-0.390819
841,4184888376,0.723014,-0.493217,-0.289941,0.387205,-0.120536,1.006963,-0.201734
842,4184921710,0.723422,-0.495915,-0.294995,0.379094,-0.249934,0.636254,0.253687
843,4184955044,0.723836,-0.498451,-0.299799,0.371125,-0.345810,0.081097,0.877394
844,4184988378,0.724629,-0.500600,-0.302753,0.364224,-0.296556,-0.266468,1.267585
845,4185021712,0.725209,-0.503270,-0.303640,0.358609,-0.461179,-0.381180,1.090207
846,4185055046,0.724792,-0.507085,-0.303322,0.354319,-0.670399,-0.335151,0.903591
847,4185088380,0.724053,-0.510541,-0.302219,0.351802,-0.532842,-0.169983,0.863223
848,4185121714,0.724252,-0.511699,-0.300335,0.351323,-0.299264,0.064294,0.531336
849,4185155048,0.724821,-0.511690,-0.298561,0.351675,-0.149098,0.438284,0.187119
850,4185188382,0.724991,-0.512226,-0.296909,0.351942,0.051775,0.506937,-0.301558
851,4185221716,0.724704,-0.513704,-0.295706,0.351392,0.032942,0.502067,-0.299779
852,4185255050,0.725201,-0.514629,-0.294977,0.349619,0.292256,0.527609,-0.079021
853,4185288384,0.726614,-0.514691,-0.294538,0.346957,0.363953,0.458335,-0.201421
854,4185321718,0.727429,-0.515231,-0.295575,0.343548,-0.038967,0.285034,0.039157
855,4185355052,0.728564,-0.514433,-0.297720,0.340472,-0.068332,0.176522,0.727128
856,4185388386,0.730653,-0.511448,-0.299260,0.339140,-0.311363,0.221981,0.804294
857,4185421720,0.732383,-0.508872,-0.299503,0.339069,-0.600132,0.332381,0.526897
858,4185455054,0.733428,-0.508445,-0.298104,0.338683,-0.478642,0.351548,0.269864
859,4185488388,0.734788,-0.509286,-0.294757,0.337400,-0.328327,0.368586,-0.019979
860,4185521722,0.736335,-0.511438,-0.290109,0.334789,-0.114267,0.429466,-0.358611
861,4185555056,0.737027,-0.515738,-0.285649,0.330477,0.018495,0.020246,-0.541451
862,4185588390,0.737307,-0.520719,-0.282009,0.325126,-0.087692,-0.291317,-0.359893
863,4185621724,0.736947,-0.526097,-0.278656,0.320137,-0.131856,-0.427630,-0.850527
864,4185655058,0.734530,-0.533273,-0.276694,0.315487,-0.040770,-0.211747,-0.439076
865,4185688392,0.732512,-0.538815,-0.275728,0.311584,0.341751,-0.192095,0.963071
866,4185721726,0.732166,-0.540816,-0.274608,0.309914,0.074015,0.094235,0.998998
867,4185755060,0.730752,-0.542815,-0.273785,0.310485,-0.451023,0.537014,0.668205
868,4185788394,0.727594,-0.546530,-0.273383,0.311736,-0.639540,0.653775,0.673937
869,4185821728,0.725908,-0.548791,-0.271390,0.313433,-0.533346,0.507222,0.227552
870,4185855062,0.725180,-0.551315,-0.267912,0.313680,-0.239189,0.507417,-0.623950
871,4185888396,0.723435,-0.556539,-0.264989,0.310953,0.038411,0.289818,-0.447187
872,4185921730,0.721744,-0.561499,-0.263817,0.306937,0.144264,-0.019180,0.081462
873,4185955064,0.720861,-0.563618,-0.264777,0.304291,0.127404,0.269576,0.578786
874,4185988398,0.720747,-0.562692,-0.267623,0.303785,-0.094732,0.398090,0.798223
875,4186021732,0.721189,-0.559821,-0.271112,0.304943,-0.404483,0.564901,1.019297
876,4186055066,0.722315,-0.556993,-0.271893,0.306756,-0.438732,0.338786,0.169546
877,4186088400,0.722896,-0.556920,-0.270284,0.306941,-0.102454,-0.208104,-0.453522
878,4186121734,0.722980,-0.559068,-0.268480,0.304413,0.146151,0.085277,-0.363207
879,4186155068,0.723520,-0.560913,-0.267436,0.300630,0.205156,0.208767,-0.266695
880,4186188402,0.724227,-0.561559,-0.267911,0.297280,0.094409,0.257305,-0.129677
881,4186221736,0.725221,-0.560945,-0.269585,0.294492,0.024638,0.270824,0.073293
882,4186255070,0.726906,-0.559525,-0.270985,0.291741,0.008610,0.068957,0.165599
883,4186288404,0.729104,-0.558368,-0.270905,0.288529,0.155996,-0.011196,0.289879
884,4186321738,0.730653,-0.559262,-0.269678,0.283992,0.260586,-0.033628,0.397088
885,4186355072,0.731277,-0.561670,-0.268314,0.278879,-0.217213,-0.162330,0.423216
886,4186388406,0.732256,-0.563024,-0.266836,0.274971,-0.314232,-0.246232,0.498384
887,4186421740,0.733928,-0.563029,-0.265212,0.272059,-0.222069,-0.391907,0.319149
888,4186455074,0.735870,-0.562443,-0.263152,0.270016,-0.127351,-0.336550,0.317974
889,4186488408,0.738153,-0.561597,-0.260148,0.268455,0.304911,-0.233981,0.105765
890,4186521742,0.739890,-0.561788,-0.256950,0.266343,0.396672,-0.292542,-0.025876
891,4186555076,0.741311,-0.562203,-0.254092,0.264251,0.439772,-0.408755,-0.101567
892,4186588410,0.742432,-0.562530,-0.251931,0.262471,0.392389,-0.549490,-0.480944
893,4186621744,0.742898,-0.563010,-0.251320,0.260703,0.404543,-0.608396,-0.436527
894,4186655078,0.743006,-0.563222,-0.252243,0.259042,0.443903,-0.663212,-0.342868
895,4186688412,0.742573,-0.563354,-0.254245,0.258033,0.303392,-0.603712,-0.518920
896,4186721746,0.741177,-0.564090,-0.257557,0.257158,0.303902,-0.475394,-0.148911
897,4186755080,0.739629,-0.564608,-0.261608,0.256385,0.237686,-0.482168,0.209992
898,4186788414,0.738017,-0.564841,-0.265826,0.256179,0.090017,-0.376931,0.294859
899,4186821748,0.735494,-0.566002,-0.269995,0.256514,-0.142165,-0.337245,0.431889
900,4186855082,0.732721,-0.567429,-0.273566,0.257509,-0.168290,-0.310857,0.585626
901,4186888416,0.730457,-0.568358,-0.276076,0.259209,-0.114516,-0.241418,0.435500
902,4186921750,0.728005,-0.569657,-0.278194,0.260984,-0.089474,-0.279825,0.336404
903,4186955084,0.724910,-0.571597,-0.280425,0.262965,0.048933,-0.143952,0.400301
904,4186988418,0.720803,-0.574509,-0.283083,0.265053,0.099030,-0.105103,0.077641
905,4187021752,0.715433,-0.578645,-0.286684,0.266729,0.124836,0.078669,0.269650
906,4187055086,0.712277,-0.580072,-0.289515,0.269006,0.204466,0.004973,0.567126
907,4187088420,0.712253,-0.577849,-0.290911,0.272330,0.183326,0.045238,0.147655
908,4187121754,0.711470,-0.576835,-0.292315,0.275010,0.148822,0.146973,-0.142650
909,4187155088,0.709368,-0.577672,-0.293998,0.276881,0.069815,-0.082120,0.089780
910,4187188422,0.708362,-0.576940,-0.295696,0.279165,0.029871,-0.185764,0.094893
911,4187221756,0.707631,-0.575446,-0.297933,0.281712,0.057395,-0.180729,-0.024851
912,4187255090,0.705750,-0.574911,-0.300890,0.284368,0.055849,-0.302102,0.175266
913,4187288424,0.703400,-0.574626,-0.303925,0.287520,0.013298,-0.375367,0.300924
914,4187321758,0.701073,-0.574219,-0.306486,0.291275,-0.034709,-0.286022,0.280633
915,4187355092,0.698244,-0.574675,-0.308222,0.295312,-0.074544,-0.323745,0.105271
916,4187388426,0.694942,-0.575760,-0.309410,0.299711,-0.082747,-0.128853,0.238953
917,4187421760,0.691895,-0.576426,-0.310255,0.304569,0.020274,0.167467,0.184131
918,4187455094,0.689123,-0.576565,-0.311295,0.309489,0.113947,0.545623,0.261832
919,4187488428,0.686772,-0.576200,-0.312524,0.314122,0.086264,0.744826,0.128237
920,4187521762,0.684509,-0.576172,-0.313818,0.317799,-0.076162,0.727485,0.032187
921,4187555096,0.683248,-0.575915,-0.314448,0.320348,-0.077082,0.652533,0.066811
922,4187588430,0.683089,-0.575660,-0.313923,0.321656,-0.025928,0.545295,-0.043197
923,4187621764,0.683029,-0.576430,-0.312685,0.321610,0.016495,0.363779,-0.037539
924,4187655098,0.682886,-0.577897,-0.311293,0.320630,0.050414,0.238200,0.064072
925,4187688432,0.682833,-0.579203,-0.310181,0.319461,0.026651,0.113304,0.100574
926,4187721766,0.683071,-0.579598,-0.309573,0.318827,-0.014888,0.108890,0.110002
927,4187755100,0.683335,-0.579207,-0.309608,0.318937,-0.057632,0.109955,0.078746
928,4187788434,0.683425,-0.578605,-0.310192,0.319270,-0.009481,0.116770,0.065554
929,4187821768,0.683598,-0.577920,-0.310745,0.319600,-0.039447,0.187591,0.216847
930,4187855102,0.683847,-0.577371,-0.311014,0.319800,-0.120170,0.153039,0.097432
931,4187888436,0.684037,-0.576941,-0.311465,0.319731,-0.194591,0.121217,0.232820
932,4187921770,0.684515,-0.575912,-0.311880,0.320157,-0.198229,0.119796,0.297052
933,4187955104,0.684704,-0.574976,-0.312172,0.321150,-0.210885,0.107638,0.267195
934,4187988438,0.684691,-0.574188,-0.312363,0.322399,-0.253217,0.015298,0.297806
935,4188021772,0.684861,-0.573151,-0.312196,0.324039,-0.274107,0.071992,0.322524
936,4188055106,0.684761,-0.572512,-0.311618,0.325933,-0.358463,-0.116854,0.225071
937,4188088440,0.684432,-0.572052,-0.310894,0.328116,-0.626216,-0.393658,0.397877
938,4188121774,0.684411,-0.570784,-0.309830,0.331359,-0.665680,-0.580297,0.534228
939,4188155108,0.684286,-0.568944,-0.308390,0.336090,-0.642086,-0.517141,0.526323
940,4188188442,0.683704,-0.567032,-0.306553,0.342132,-0.401188,-0.270389,0.372770
941,4188221776,0.683075,-0.564989,-0.304545,0.348503,-0.244729,-0.099873,-0.010485
942,4188255110,0.682789,-0.562746,-0.302965,0.354025,-0.166475,0.095416,-0.469202
943,4188288444,0.682815,-0.560550,-0.302465,0.357867,0.040857,0.402842,-0.717032
944,4188321778,0.683225,-0.558477,-0.302867,0.359978,0.539476,0.743818,-0.141052
945,4188355112,0.684148,-0.556485,-0.302915,0.361268,0.798599,0.889638,0.063875
946,4188388446,0.683891,-0.556563,-0.302760,0.361763,0.834142,0.916987,-0.120394
947,4188421780,0.681899,-0.559241,-0.302755,0.361399,0.781893,0.895893,0.000504
948,4188455114,0.680073,-0.561840,-0.302532,0.360995,0.522500,0.804252,-0.091356
949,4188488448,0.678985,-0.563474,-0.302788,0.360280,0.268255,0.753390,-0.149446
950,4188521782,0.678055,-0.564882,-0.303776,0.358992,0.251901,0.702695,-0.001633
951,4188555116,0.677453,-0.566025,-0.304441,0.357763,0.207015,0.685163,0.331946
952,4188588450,0.677427,-0.566526,-0.304674,0.356819,0.309056,0.925690,0.283152
953,4188621784,0.677373,-0.567290,-0.304767,0.355627,0.156921,0.926185,0.113101
954,4188655118,0.678151,-0.567815,-0.304440,0.353579,0.088877,0.875768,0.216202
955,4188688452,0.680702,-0.567464,-0.302740,0.350690,0.173922,0.921574,0.087868
956,4188721786,0.684600,-0.566841,-0.299842,0.346576,0.179055,0.980047,-0.079899
957,4188755120,0.689375,-0.566439,-0.296372,0.340702,0.134588,1.038497,-0.172906
958,4188788454,0.695095,-0.566234,-0.292551,0.332628,0.250733,1.022699,-0.285793
959,4188821788,0.702372,-0.565573,-0.288247,0.322055,0.367810,0.891520,-0.347349
960,4188855122,0.711774,-0.563564,-0.283777,0.308626,0.426538,0.675898,-0.308289
961,4188888456,0.724458,-0.558285,-0.279146,0.292509,0.339202,0.516898,-0.394979
962,4188921790,0.740582,-0.548744,-0.274685,0.273810,0.222503,0.344338,-0.650233
963,4188955124,0.758330,-0.536404,-0.271575,0.251909,0.074134,-0.014273,-0.787336
964,4188988458,0.776686,-0.521801,-0.270157,0.226942,-0.016647,-0.346307,-0.031003
965,4189021792,0.797789,-0.500522,-0.268785,0.201919,-0.052282,-0.773054,0.993939
966,4189055126,0.820378,-0.472797,-0.267347,0.178814,-0.093595,-0.832398,0.154816
967,4189088460,0.835208,-0.454901,-0.267951,0.153948,0.044902,-0.116317,-0.726767
968,4189121794,0.837502,-0.458602,-0.269824,0.124404,-0.195140,-0.379292,-0.520021
969,4189155128,0.834375,-0.470667,-0.271173,0.093604,-0.446905,-1.203556,0.734854
970,4189188462,0.836945,-0.470824,-0.270751,0.067438,-0.784283,-1.732727,1.862820
971,4189221796,0.846897,-0.455856,-0.269639,0.047553,-0.686017,-1.216653,0.600160
972,4189255130,0.856777,-0.438772,-0.269252,0.030338,-0.435782,-0.621143,-0.438804
973,4189288464,0.861615,-0.430272,-0.268907,0.013379,-0.429719,-0.698803,0.497974
974,4189321798,0.864486,-0.425160,-0.268157,-0.001097,-0.629923,-0.749563,0.724151
975,4189355132,0.867230,-0.419525,-0.267894,-0.012260,-0.585647,-0.677848,0.101357
976,4189388466,0.869092,-0.414649,-0.268867,-0.021488,-0.487187,-0.748284,0.256680
977,4189421800,0.872108,-0.406453,-0.271009,-0.027974,-0.540686,-0.781923,0.794808
978,4189455134,0.876257,-0.395485,-0.273449,-0.031571,-0.341615,-0.336272,0.518410
979,4189488468,0.879013,-0.387924,-0.275111,-0.034204,-0.138683,-0.155455,0.427862
980,4189521802,0.879112,-0.387390,-0.275226,-0.036704,-0.083886,-0.388598,0.543483
981,4189555136,0.877898,-0.390815,-0.274051,-0.038219,-0.270472,-0.422990,0.576073
982,4189588470,0.876933,-0.393936,-0.272659,-0.038270,-0.308407,-0.409425,0.500617
983,4189621804,0.877230,-0.394538,-0.270968,-0.037268,-0.198597,-0.208226,0.566364
984,4189655138,0.877688,-0.395225,-0.268628,-0.036145,-0.120756,-0.184750,-0.039005
985,4189688472,0.877563,-0.397207,-0.266254,-0.034994,-0.143819,-0.394620,-0.037541
986,4189721806,0.877596,-0.398565,-0.264278,-0.033660,-0.143766,-0.259436,-0.040015
987,4189755140,0.877856,-0.398971,-0.262993,-0.032121,-0.101654,-0.380889,0.053533
988,4189788474,0.878028,-0.399239,-0.262245,-0.030132,0.014685,-0.344946,0.015086
989,4189821808,0.877682,-0.400468,-0.261801,-0.027672,0.083494,-0.405761,-0.086832
990,4189855142,0.877000,-0.402198,-0.261716,-0.024860,0.034839,-0.358931,0.168017
991,4189888476,0.876553,-0.403072,-0.262145,-0.021758,-0.004796,-0.389959,0.023984
992,4189921810,0.876437,-0.402947,-0.262984,-0.018321,0.042615,-0.312091,0.198947
993,4189955144,0.876213,-0.403018,-0.263852,-0.014634,0.027213,-0.292227,0.037416
994,4189988478,0.875826,-0.403299,-0.264885,-0.010947,0.022632,-0.248498,0.069152
995,4190021812,0.875535,-0.403158,-0.266182,-0.007363,-0.005174,-0.142906,0.112741
996,4190055146,0.875325,-0.402735,-0.267585,-0.003744,0.073927,-0.159736,0.079772
997,4190088480,0.874924,-0.402704,-0.268966,-0.000071,0.050269,-0.136051,0.111380
998,4190121814,0.874599,-0.402476,-0.270336,0.003596,0.041660,-0.069850,0.164001
999,4190155148,0.874345,-0.402201,-0.271496,0.007074,0.116487,0.030706,0.159184
1000,4190188482,0.873923,-0.402481,-0.272337,0.010261,0.083892,-0.031153,0.274293
1001,4190221816,0.873865,-0.402113,-0.272916,0.013675,0.101894,0.024239,0.227672
1002,4190255150,0.873923,-0.401577,-0.273328,0.017101,0.128352,0.047120,0.151571
1003,4190288484,0.873723,-0.401688,-0.273599,0.020097,0.102145,0.093770,0.121316
1004,4190321818,0.873454,-0.402015,-0.273769,0.022760,0.110319,0.051453,0.139218
1005,4190355152,0.873245,-0.402267,-0.273852,0.025218,0.060435,0.003489,0.176584
1006,4190388486,0.873160,-0.402331,-0.273799,0.027567,-0.015494,-0.030049,0.329370
1007,4190421820,0.873230,-0.402400,-0.273231,0.029885,0.034251,-0.004620,0.326836
1008,4190455154,0.873045,-0.403490,-0.271968,0.032060,-0.028137,-0.081125,0.286576
1009,4190488488,0.872924,-0.404792,-0.270130,0.034400,-0.128989,-0.151826,0.304114
1010,4190521822,0.873079,-0.405577,-0.268063,0.037250,-0.152218,-0.175598,0.338705
1011,4190555156,0.873259,-0.406251,-0.265932,0.040798,-0.120033,-0.181313,0.370145
1012,4190588490,0.873180,-0.407462,-0.263615,0.045203,-0.144875,-0.123045,0.428460
1013,4190621824,0.872686,-0.409622,-0.260927,0.050519,-0.199956,-0.151910,0.418665
1014,4190655158,0.871515,-0.413239,-0.257832,0.056775,-0.348532,-0.224726,0.469207
1015,4190688492,0.869944,-0.417638,-0.254265,0.064275,-0.439442,-0.372980,0.497964
1016,4190721826,0.868583,-0.421518,-0.250046,0.073273,-0.483893,-0.531903,0.643991
1017,4190755160,0.867352,-0.425044,-0.244991,0.083802,-0.423560,-0.556536,0.526199
1018,4190788494,0.865508,-0.429672,-0.239054,0.095581,-0.428536,-0.732325,0.487629
1019,4190821828,0.862979,-0.435162,-0.232421,0.109028,-0.423852,-0.917286,0.516097
1020,4190855162,0.860261,-0.439937,-0.225541,0.124668,-0.597197,-1.054625,0.298900
1021,4190888496,0.857087,-0.444031,-0.218957,0.142487,-0.438079,-0.966013,0.306874
1022,4190921830,0.852850,-0.448552,-0.212866,0.161683,-0.328487,-1.004960,0.186975
1023,4190955164,0.847514,-0.453296,-0.207546,0.182136,-0.403216,-1.093593,0.233035
1024,4190988498,0.841762,-0.456668,-0.202928,0.204246,-0.214625,-0.955240,0.390205
1025,4191021832,0.835208,-0.459369,-0.199009,0.227617,-0.019004,-0.859360,0.336625
1026,4191055166,0.829236,-0.459018,-0.195300,0.252057,0.223092,-0.624502,0.621562
1027,4191088500,0.825069,-0.453743,-0.191278,0.277125,0.472739,-0.167169,0.410157
1028,4191121834,0.824522,-0.440462,-0.185843,0.302696,0.622492,-0.130498,0.551848
1029,4191155168,0.825640,-0.421800,-0.180227,0.328522,0.569161,0.468526,-0.660884
1030,4191188502,0.823463,-0.408936,-0.177381,0.351030,0.382229,0.527316,-1.001927
1031,4191221836,0.820025,-0.399286,-0.176864,0.369938,0.430432,0.266453,-0.835212
1032,4191255170,0.817756,-0.387751,-0.178174,0.386244,0.441625,0.390148,-1.115424
1033,4191288504,0.815500,-0.377750,-0.182570,0.398671,0.281175,0.592107,-1.321010
1034,4191321838,0.812319,-0.371608,-0.190303,0.407229,0.540273,0.483158,-0.748373
1035,4191355172,0.809499,-0.365855,-0.199441,0.413630,0.746718,0.521068,-0.494554
1036,4191388506,0.807128,-0.359777,-0.209023,0.418831,0.756567,0.529024,-0.297825
1037,4191421840,0.804444,-0.354817,-0.219491,0.422853,0.748076,0.716020,-0.336614
1038,4191455174,0.801658,-0.350961,-0.230353,0.425575,0.738871,0.835474,-0.074594
1039,4191488508,0.799491,-0.346620,-0.240235,0.427741,0.689806,0.931947,0.077658
1040,4191521842,0.796818,-0.344230,-0.249881,0.429128,0.582634,1.092784,-0.141794
1041,4191555176,0.792377,-0.347039,-0.260805,0.428590,0.376372,1.060314,-0.164330
1042,4191588510,0.788170,-0.350310,-0.271060,0.427320,0.503343,0.739521,0.468540
1043,4191621844,0.786059,-0.349091,-0.278717,0.427280,0.530763,0.852190,0.516455
1044,4191655178,0.784161,-0.347194,-0.285373,0.427920,0.498611,0.987242,-0.009955
1045,4191688512,0.780922,-0.347659,-0.292445,0.428690,0.792670,0.830328,0.483209
1046,4191721846,0.777954,-0.346531,-0.298103,0.431096,0.666625,0.738971,0.568728
1047,4191755180,0.775235,-0.344507,-0.302744,0.434370,0.171641,0.390996,0.054234
1048,4191788514,0.772253,-0.343489,-0.307584,0.437081,0.148662,0.359724,0.173412
1049,4191821848,0.769373,-0.343274,-0.311749,0.439370,0.052757,0.298782,0.131246
1050,4191855182,0.766549,-0.343888,-0.315443,0.441186,-0.199117,0.176949,0.328598
1051,4191888516,0.763973,-0.345012,-0.318312,0.442713,-0.040258,0.377309,0.469653
1052,4191921850,0.761471,-0.347314,-0.320113,0.443923,-0.142211,0.368709,0.345568
1053,4191955184,0.758778,-0.351116,-0.321761,0.444353,-0.339388,0.334042,0.248811
1054,4191988518,0.756432,-0.355193,-0.323012,0.444205,-0.086234,0.371334,0.510898
1055,4192021852,0.754972,-0.358008,-0.323106,0.444360,-0.071108,0.095432,0.482514
1056,4192055186,0.753764,-0.360010,-0.322757,0.445048,0.030032,0.177248,0.413884
1057,4192088520,0.751840,-0.362871,-0.322164,0.446404,0.150395,0.169831,0.352149
1058,4192121854,0.748851,-0.367173,-0.321839,0.448141,0.131948,0.052814,0.455788
1059,4192155188,0.745744,-0.371294,-0.320968,0.450546,0.106170,0.198118,0.370772
1060,4192188522,0.742489,-0.375846,-0.319635,0.453087,-0.099544,0.019676,0.254303
1061,4192221856,0.739103,-0.380717,-0.318364,0.455446,-0.057007,0.103454,0.274423
1062,4192255190,0.735709,-0.385657,-0.316878,0.457815,-0.106693,0.108429,0.001833
1063,4192288524,0.731886,-0.391292,-0.315843,0.459872,0.068955,0.220137,0.278438
1064,4192321858,0.727836,-0.396976,-0.315002,0.462000,-0.020454,0.379830,0.330229
1065,4192355192,0.723579,-0.402660,-0.314074,0.464393,0.008209,0.440998,0.247422
1066,4192388526,0.719266,-0.408389,-0.313143,0.466715,0.125281,0.407680,0.316363
1067,4192421860,0.714936,-0.414393,-0.312461,0.468528,0.042309,0.367014,-0.020145
1068,4192455194,0.711105,-0.420218,-0.311444,0.469845,0.277711,0.515443,0.439763
1069,4192488528,0.708323,-0.425324,-0.309694,0.470610,0.155267,0.588182,-0.042234
1070,4192521862,0.705731,-0.430891,-0.308226,0.470404,0.192156,0.578530,0.094514
1071,4192555196,0.704390,-0.435064,-0.306918,0.469426,-0.052473,0.451752,0.070718
1072,4192588530,0.703829,-0.438342,-0.306400,0.467552,-0.183232,0.396435,-0.020310
1073,4192621864,0.703281,-0.442220,-0.306832,0.464433,-0.221536,0.297112,-0.016795
1074,4192655198,0.703213,-0.446437,-0.307888,0.459779,-0.410928,-0.077109,-0.370356
1075,4192688532,0.704229,-0.450377,-0.309613,0.453176,-0.586863,-0.353740,-0.286050
1076,4192721866,0.709082,-0.449741,-0.309040,0.446582,-0.368141,-0.441618,0.420033
1077,4192755200,0.718448,-0.443134,-0.304974,0.440978,-0.326458,-0.426615,-0.020267
1078,4192788534,0.728803,-0.435433,-0.299918,0.435085,-0.303795,-0.361162,-0.119570
1079,4192821868,0.737020,-0.431124,-0.296171,0.428044,-0.354424,-0.136896,-0.173873
1080,4192855202,0.742046,-0.431716,-0.294593,0.419773,-0.374415,-0.037275,-0.112130
1081,4192888536,0.745065,-0.434916,-0.294326,0.411222,-0.241626,0.021459,0.192752
1082,4192921870,0.748157,-0.437276,-0.294039,0.403234,-0.262564,0.087579,0.244611
1083,4192955204,0.752390,-0.437112,-0.293240,0.396054,-0.341861,0.392862,0.141386
1084,4192988538,0.757283,-0.435699,-0.292380,0.388855,-0.278790,0.634387,0.025709
1085,4193021872,0.762085,-0.434764,-0.292120,0.380628,-0.247322,1.017625,-0.130861
1086,4193055206,0.766798,-0.434760,-0.292458,0.370783,-0.308824,1.117651,-0.299298
1087,4193088540,0.771566,-0.435775,-0.293498,0.358680,-0.316380,0.994587,-0.582457
1088,4193121874,0.774949,-0.440431,-0.296537,0.342852,-0.357550,1.088860,-1.032738
1089,4193155208,0.775100,-0.451821,-0.301948,0.322353,0.109049,0.741566,-0.216396
1090,4193188542,0.775405,-0.463463,-0.306265,0.300261,0.264635,0.162360,0.513188
1091,4193221876,0.779934,-0.468015,-0.307667,0.279305,0.051582,-0.081060,0.305532
1092,4193255210,0.790248,-0.462409,-0.306819,0.259909,0.199467,-0.338705,0.329461
1093,4193288544,0.803260,-0.451190,-0.304858,0.241387,0.242377,-0.267850,0.085585
1094,4193321878,0.814380,-0.441559,-0.303664,0.222721,0.114417,-0.199031,-0.771116
1095,4193355212,0.818242,-0.443634,-0.305023,0.201581,0.194161,-0.332624,-0.081347
1096,4193388546,0.819720,-0.448701,-0.305753,0.182339,0.079068,-1.365606,2.174020
1097,4193421880,0.826566,-0.441935,-0.303757,0.170940,-0.190191,-1.106187,1.238082
1098,4193455214,0.834556,-0.431171,-0.301320,0.163767,-0.241619,-0.591966,-0.032132
1099,4193488548,0.838970,-0.425783,-0.300434,0.156788,-0.164359,-0.216867,-0.403461
1100,4193521882,0.840193,-0.425581,-0.301088,0.149361,-0.020779,-0.393217,0.108624
1101,4193555216,0.841231,-0.425142,-0.301851,0.143094,0.059199,-0.419149,0.461120
1102,4193588550,0.842917,-0.423002,-0.302393,0.138290,0.097753,-0.214299,0.331986
1103,4193621884,0.844415,-0.421171,-0.302683,0.134039,0.033275,-0.046039,0.236896
1104,4193655218,0.845854,-0.419516,-0.302750,0.129943,0.024044,-0.062834,0.180847
1105,4193688552,0.848212,-0.415827,-0.302769,0.126341,0.103632,-0.079631,0.044630
1106,4193721886,0.851829,-0.409092,-0.303189,0.122932,0.149092,0.011070,-0.304802
1107,4193755220,0.857293,-0.397968,-0.304184,0.118940,-0.047263,0.267880,-0.395133
1108,4193788554,0.864068,-0.382441,-0.306830,0.113958,0.148893,0.136880,-0.687904
1109,4193821888,0.871614,-0.363340,-0.310990,0.107539,0.124704,0.172110,-0.409349
1110,4193855222,0.879427,-0.340908,-0.316835,0.100061,0.056626,0.275419,-0.518497
1111,4193888556,0.885751,-0.318979,-0.324556,0.091466,0.078575,0.196554,-0.339370
1112,4193921890,0.889714,-0.300144,-0.334206,0.081457,0.012720,0.549296,-0.828829
1113,4193955224,0.891910,-0.283559,-0.345251,0.069982,-0.036301,0.162181,0.235981
1114,4193988558,0.892193,-0.271236,-0.356555,0.057421,0.141383,-0.025181,0.178249
1115,4194021892,0.890876,-0.263723,-0.367300,0.043444,0.061259,-0.175367,0.065557
1116,4194055226,0.888787,-0.258590,-0.377341,0.028426,0.099422,-0.362776,0.251354
1117,4194088560,0.886487,-0.253707,-0.386806,0.012666,0.103516,-0.457795,0.039879
1118,4194121894,0.884102,-0.247846,-0.396145,-0.003334,0.218302,-0.683584,0.473274
1119,4194155228,0.881384,-0.242773,-0.404804,-0.019026,0.325830,-0.593610,0.702532
1120,4194188562,0.877920,-0.241524,-0.412012,-0.034261,0.277922,-0.718300,0.977555
1121,4194221896,0.874252,-0.243599,-0.417241,-0.047527,0.239019,-0.908659,1.090733
1122,4194255230,0.870571,-0.249109,-0.420287,-0.058436,0.191965,-0.746156,0.574585
1123,4194288564,0.866891,-0.256624,-0.422068,-0.067143,0.032648,-0.692038,0.324666
1124,4194321898,0.863708,-0.262377,-0.423927,-0.073876,-0.130419,-0.501825,0.070298
1125,4194355232,0.861064,-0.264116,-0.427220,-0.079373,-0.115614,-0.291153,-0.245559
1126,4194388566,0.858722,-0.261713,-0.432431,-0.084326,-0.054720,-0.248166,0.149482
1127,4194421900,0.856345,-0.257184,-0.438875,-0.089016,0.139058,-0.130521,0.193534
1128,4194455234,0.853814,-0.253610,-0.444977,-0.093193,-0.123397,-0.397811,1.247714
1129,4194488568,0.851056,-0.257064,-0.447610,-0.096290,0.163706,-0.408465,1.081731
1130,4194521902,0.847551,-0.270001,-0.446341,-0.097688,-0.188215,-0.698404,0.830633
1131,4194555236,0.845251,-0.283502,-0.442930,-0.094846,-0.793987,-0.684414,0.997964
1132,4194588570,0.845163,-0.292579,-0.438670,-0.087584,-0.787309,-0.462951,0.644808
1133,4194621904,0.845859,-0.301252,-0.433175,-0.078330,-0.649697,-0.509357,0.511826
1134,4194655238,0.844852,-0.317925,-0.424523,-0.070250,-0.067610,-0.511640,0.472207
1135,4194688572,0.843636,-0.339635,-0.411075,-0.062837,-1.464028,-0.997939,1.828060
1136,4194721906,0.845981,-0.353656,-0.395859,-0.050445,-0.277583,-0.258361,1.039984
1137,4194755240,0.845835,-0.375560,-0.376878,-0.038554,-0.263564,-0.486066,0.769571
1138,4194788574,0.845486,-0.395218,-0.358329,-0.023711,-0.266023,-0.525702,0.562899
1139,4194821908,0.846452,-0.408122,-0.341963,-0.004852,0.033263,0.057898,0.323574
1140,4194855242,0.847852,-0.416433,-0.327884,0.015095,0.156756,0.508093,-0.095640
1141,4194888576,0.848374,-0.423518,-0.315891,0.033355,0.419180,0.689252,-0.530510
1142,4194921910,0.847752,-0.430553,-0.305842,0.049067,0.522142,0.653278,-0.650841
1143,4194955244,0.846342,-0.437444,-0.297454,0.062241,0.728525,0.653320,-0.743107
1144,4194988578,0.844288,-0.444420,-0.290473,0.072795,0.711844,0.562742,-0.609480
1145,4195021912,0.841692,-0.451556,-0.284855,0.080715,0.571984,0.428557,-0.507854
1146,4195055246,0.838563,-0.459001,-0.280489,0.086386,0.619477,0.325086,-0.352308
1147,4195088580,0.836150,-0.464614,-0.276983,0.090963,0.565268,0.183023,-0.326724
1148,4195121914,0.833991,-0.469592,-0.273625,0.095278,0.467450,0.344878,0.035262
1149,4195155248,0.830924,-0.476176,-0.270306,0.098802,0.420844,0.428127,0.188715
1150,4195188582,0.827397,-0.483521,-0.267044,0.101565,0.354154,0.104997,0.224985
1151,4195221916,0.824052,-0.490490,-0.263793,0.103814,0.246634,0.081600,0.133656
1152,4195255250,0.820940,-0.497413,-0.259945,0.105224,0.118618,0.261984,0.082346
1153,4195288584,0.818509,-0.503579,-0.255495,0.105728,-0.002205,0.248122,0.188549
1154,4195321918,0.816885,-0.508703,-0.250527,0.105653,0.032261,0.190248,0.195639
1155,4195355252,0.815676,-0.513298,-0.245075,0.105549,0.110062,0.049576,0.192996
1156,4195388586,0.814083,-0.518540,-0.239244,0.105605,-0.060536,0.022524,0.060246
1157,4195421920,0.812123,-0.524237,-0.233199,0.106089,0.028220,-0.046180,0.271713
1158,4195455254,0.810066,-0.530115,-0.226446,0.107236,0.079427,-0.056068,0.470676
1159,4195488588,0.808532,-0.535249,-0.219233,0.108296,0.073931,-0.138308,0.361778
1160,4195521922,0.807687,-0.539232,-0.212077,0.109085,0.146248,-0.237166,0.228821
1161,4195555256,0.806695,-0.543142,-0.205402,0.109798,0.015446,-0.124764,-0.054391
1162,4195588590,0.805011,-0.547683,-0.199551,0.110385,-0.222270,0.007645,-0.034601
1163,4195621924,0.804041,-0.550771,-0.194551,0.111021,-0.257804,-0.113524,0.098055
1164,4195655258,0.804839,-0.550871,-0.190397,0.111939,-0.292346,-0.054592,-0.013762
1165,4195688592,0.806254,-0.549808,-0.186902,0.112863,-0.282515,-0.003204,-0.168788
1166,4195721926,0.806357,-0.550511,-0.184131,0.113258,-0.212492,-0.158744,-0.097882
1167,4195755260,0.805886,-0.551846,-0.182009,0.113541,-0.257117,-0.182463,0.016898
1168,4195788594,0.806166,-0.551794,-0.180564,0.114118,-0.210361,-0.209928,-0.067156
1169,4195821928,0.806207,-0.551802,-0.179897,0.114836,-0.094748,-0.259515,-0.146235
1170,4195855262,0.805437,-0.552632,-0.180439,0.115396,-0.117307,-0.311935,0.079128
1171,4195888596,0.805700,-0.551511,-0.181922,0.116584,-0.126287,-0.214507,0.078455
1172,4195921930,0.806880,-0.548813,-0.183587,0.118532,-0.113480,-0.104924,-0.045461
1173,4195955264,0.807263,-0.547314,-0.185225,0.120296,-0.085890,-0.141150,-0.184686
1174,4195988598,0.806710,-0.547332,-0.186765,0.121534,-0.006920,-0.086905,0.084678
1175,4196021932,0.806436,-0.547078,-0.187972,0.122637,-0.111607,0.031480,0.098286
1176,4196055266,0.805790,-0.547368,-0.189352,0.123459,-0.216709,0.122710,-0.118000
1177,4196088600,0.804503,-0.548487,-0.191172,0.124084,-0.242269,0.100824,0.131148
1178,4196121934,0.803992,-0.548319,-0.193165,0.125048,-0.237323,0.138432,0.418463
1179,4196155268,0.804506,-0.546617,-0.194897,0.126497,-0.127287,0.105975,0.403289
1180,4196188602,0.805162,-0.544706,-0.196417,0.128200,-0.009908,-0.016468,0.309967
1181,4196221936,0.805253,-0.543599,-0.197958,0.129945,-0.105864,0.033560,0.175509
1182,4196255270,0.805560,-0.542089,-0.199690,0.131691,-0.131683,-0.078863,0.167757
1183,4196288604,0.805777,-0.540686,-0.201412,0.133493,-0.132011,-0.042872,0.036790
1184,4196321938,0.805522,-0.540123,-0.202717,0.135324,-0.108747,-0.063174,-0.006816
1185,4196355272,0.805094,-0.539989,-0.203635,0.137016,-0.066334,-0.078589,0.059136
1186,4196388606,0.804648,-0.540042,-0.204354,0.138353,-0.003421,-0.080413,0.050639
1187,4196421940,0.804076,-0.540345,-0.205083,0.139411,0.008014,-0.082606,0.068278
1188,4196455274,0.803464,-0.540646,-0.205851,0.140637,-0.028043,-0.032727,0.041340
1189,4196488608,0.802704,-0.541057,-0.206840,0.141936,-0.060505,0.001781,-0.062693
1190,4196521942,0.802073,-0.541173,-0.208177,0.143106,-0.040619,0.012485,-0.029747
1191,4196555276,0.801616,-0.541005,-0.209598,0.144223,-0.012846,0.029422,-0.027061
1192,4196588610,0.801046,-0.541095,-0.210800,0.145291,-0.027213,-0.047488,-0.067349
1193,4196621944,0.800077,-0.541874,-0.211897,0.146134,-0.067068,-0.179511,0.002362
1194,4196655278,0.798847,-0.543015,-0.213047,0.146947,-0.133996,-0.233706,0.138186
1195,4196688612,0.797283,-0.544477,-0.214370,0.148105,-0.220714,-0.335547,0.122065
1196,4196721946,0.795399,-0.546036,-0.216187,0.149847,-0.327504,-0.371910,0.313669
1197,4196755280,0.793911,-0.546457,-0.218551,0.152747,-0.347116,-0.392878,0.345556
1198,4196788614,0.792547,-0.546126,-0.221342,0.156934,-0.352702,-0.376605,0.347404
1199,4196821948,0.790942,-0.545590,-0.224507,0.162311,-0.343711,-0.236562,0.401962
1200,4196855282,0.789613,-0.544032,-0.227964,0.169051,-0.242710,-0.319541,0.362326
1201,4196888616,0.788375,-0.541765,-0.231780,0.176748,-0.231322,-0.220231,0.231984
1202,4196921950,0.786997,-0.539220,-0.235939,0.184974,-0.209767,-0.142901,0.203983
1203,4196955284,0.785337,-0.536671,-0.240374,0.193534,-0.282977,-0.264680,0.203416
1204,4196988618,0.783704,-0.533702,-0.244913,0.202469,-0.435223,-0.275144,0.256709
1205,4197021952,0.781225,-0.531706,-0.249349,0.211679,-0.511554,-0.384824,0.431970
1206,4197055286,0.778191,-0.530286,-0.253197,0.221614,-0.588342,-0.406050,0.502562
1207,4197088620,0.775061,-0.528807,-0.256107,0.232505,-0.574725,-0.388430,0.458623
1208,4197121954,0.771909,-0.527297,-0.258166,0.243864,-0.412355,-0.337462,0.280137
1209,4197155288,0.768591,-0.526134,-0.259714,0.254963,-0.322440,-0.165876,0.044941
1210,4197188622,0.764758,-0.525830,-0.261405,0.265180,-0.147265,-0.121570,-0.097569
1211,4197221956,0.760716,-0.525996,-0.263691,0.274066,0.070827,0.007097,-0.262603
1212,4197255290,0.756724,-0.526360,-0.266924,0.281195,0.262656,0.093725,-0.382365
1213,4197288624,0.752565,-0.527186,-0.271344,0.286528,0.751781,0.221980,0.170054
1214,4197321958,0.750155,-0.525665,-0.275344,0.291781,0.735821,0.329014,-0.104087
1215,4197355292,0.748221,-0.523328,-0.279158,0.297270,0.779426,0.294996,-0.104264
1216,4197388626,0.745222,-0.522549,-0.283680,0.301857,0.641734,0.300157,-0.415666
1217,4197421960,0.741386,-0.523185,-0.289096,0.305046,0.424353,0.145739,-0.198638
1218,4197455294,0.738125,-0.523214,-0.294720,0.307514,0.203613,0.143648,-0.002398
1219,4197488628,0.735350,-0.522684,-0.300252,0.309704,0.081606,0.089468,-0.056309
1220,4197521962,0.732422,-0.522682,-0.305930,0.311085,-0.139148,0.142858,-0.119927
1221,4197555296,0.729240,-0.523232,-0.311669,0.311939,-0.144287,0.191986,0.010946
1222,4197588630,0.725574,-0.524746,-0.317962,0.311593,-0.168567,0.279694,-0.315615
1223,4197621964,0.721690,-0.526960,-0.324635,0.309991,0.136802,0.322571,0.281652
1224,4197655298,0.719544,-0.527081,-0.330197,0.308898,0.075051,0.199994,0.238610
1225,4197688632,0.718016,-0.526477,-0.335540,0.307722,-0.008658,0.256803,-0.079793
1226,4197721966,0.715878,-0.527148,-0.341016,0.305527,0.056691,0.319442,0.217156
1227,4197755300,0.713635,-0.528195,-0.346405,0.302892,-0.183870,0.053609,0.036002
1228,4197788634,0.711553,-0.529121,-0.351566,0.300216,0.215116,0.226832,0.663655
1229,4197821968,0.709930,-0.530243,-0.355261,0.297719,0.354589,0.353342,0.655687
1230,4197855302,0.707925,-0.532847,-0.357080,0.295660,0.662670,0.401618,0.639690
1231,4197888636,0.704294,-0.538351,-0.357595,0.293734,0.546650,0.429041,0.572156
1232,4197921970,0.700940,-0.543477,-0.357120,0.292894,0.102086,0.358788,0.240803
1233,4197955304,0.698146,-0.547127,-0.357012,0.292901,-0.082332,0.379120,-0.110454
1234,4197988638,0.695832,-0.549522,-0.357938,0.292795,-0.060066,0.480148,-0.069179
1235,4198021972,0.694700,-0.550465,-0.359203,0.292162,-0.084378,0.259024,-0.085841
1236,4198055306,0.694170,-0.550879,-0.360713,0.290778,-0.015551,0.252029,-0.033995
1237,4198088640,0.693011,-0.552353,-0.362446,0.288582,0.062833,0.277976,-0.083227
1238,4198121974,0.691380,-0.554497,-0.364303,0.286035,-0.002268,0.294338,0.140513
1239,4198155308,0.690740,-0.555414,-0.365776,0.283915,-0.187335,0.327799,0.170705
1240,4198188642,0.691403,-0.554910,-0.366776,0.281988,-0.122440,0.216906,-0.035338
1241,4198221976,0.692394,-0.554175,-0.367878,0.279557,-0.231456,0.029433,-0.131638
1242,4198255310,0.693497,-0.552521,-0.370123,0.277124,-0.432095,0.137669,0.106256
1243,4198288644,0.695123,-0.549547,-0.373155,0.274888,-0.202241,0.154565,0.344072
1244,4198321978,0.696958,-0.546369,-0.376117,0.272529,-0.102614,-0.056168,0.192166
1245,4198355312,0.698306,-0.544102,-0.378620,0.270137,-0.021754,-0.080176,0.284822
1246,4198388646,0.700591,-0.540749,-0.380574,0.268201,-0.093425,-0.188999,0.255910
1247,4198421980,0.703038,-0.536872,-0.382728,0.266518,-0.027178,-0.140101,-0.065114
1248,4198455314,0.704293,-0.534300,-0.385418,0.264489,0.008568,-0.088771,0.253465
1249,4198488648,0.706472,-0.530356,-0.387515,0.263546,-0.040159,-0.159051,0.326736
1250,4198521982,0.708996,-0.525847,-0.389212,0.263306,-0.000969,0.072390,0.146195
1251,4198555316,0.710536,-0.523065,-0.390970,0.262086,0.350381,0.106590,0.096856
1252,4198588650,0.710722,-0.521768,-0.392595,0.261739,0.325153,-0.028328,0.274470
1253,4198621984,0.710276,-0.520744,-0.393933,0.262976,0.314517,0.203688,0.348204
1254,4198655318,0.709032,-0.520856,-0.394687,0.264973,0.339273,0.185440,0.013531
1255,4198688652,0.706948,-0.522132,-0.395130,0.267359,0.200607,0.186177,0.027877
1256,4198721986,0.705099,-0.523362,-0.395346,0.269509,0.044632,0.168576,0.020337
1257,4198755320,0.703405,-0.524544,-0.395507,0.271394,0.052920,0.135870,0.049116
1258,4198788654,0.701058,-0.526474,-0.395743,0.273378,0.180813,0.131039,0.363622
1259,4198821988,0.698260,-0.528295,-0.396038,0.276582,0.317853,0.120035,0.555337
1260,4198855322,0.694380,-0.530065,-0.397000,0.281537,0.059068,0.245238,0.544477
1261,4198888656,0.690083,-0.531104,-0.398548,0.287887,-0.152167,0.269307,0.103551
1262,4198921990,0.685362,-0.531955,-0.400909,0.294245,-0.107743,0.151516,0.250923
1263,4198955324,0.681700,-0.531298,-0.403102,0.300869,-0.084538,0.304146,0.426206
1264,4198988658,0.678605,-0.530527,-0.404546,0.307221,0.061188,0.330601,0.058910
1265,4199021992,0.675419,-0.530951,-0.405490,0.312222,0.129324,0.291808,0.194959
1266,4199055326,0.673309,-0.531464,-0.405061,0.316435,0.078467,0.506833,0.136513
1267,4199088660,0.671760,-0.533095,-0.403534,0.318927,0.449236,0.534381,-0.279236
1268,4199121994,0.669793,-0.537592,-0.401175,0.318491,0.401621,0.588300,-0.250305
1269,4199155328,0.668290,-0.543643,-0.397696,0.315728,0.469216,0.486622,-0.070747
1270,4199188662,0.666457,-0.550879,-0.394245,0.311359,0.391022,0.195309,-0.097239
1271,4199221996,0.662877,-0.559038,-0.392755,0.306300,-0.085713,0.010750,0.143022
1272,4199255330,0.660061,-0.564073,-0.392640,0.303283,-0.528641,0.094073,0.465717
1273,4199288664,0.658959,-0.565156,-0.393142,0.303012,-0.388907,-0.037435,0.536340
1274,4199321998,0.657995,-0.564536,-0.394473,0.304528,-0.339575,-0.149377,0.536231
1275,4199355332,0.656390,-0.563452,-0.396561,0.307277,-0.150556,-0.322622,0.562251
1276,4199388666,0.654735,-0.561577,-0.398485,0.311720,-0.235386,-0.093418,0.863241
1277,4199422000,0.653757,-0.558592,-0.399540,0.317726,0.051701,-0.242070,0.284682
1278,4199455334,0.652645,-0.555188,-0.400639,0.324522,-0.065943,-0.174221,-0.064224
1279,4199488668,0.651100,-0.551922,-0.402074,0.331350,-0.276260,0.057751,-0.298293
1280,4199522002,0.649065,-0.549586,-0.403642,0.337266,-0.218246,0.005908,-0.391830
1281,4199555336,0.646555,-0.548758,-0.405207,0.341532,-0.350451,0.157515,-0.401096
1282,4199588670,0.643238,-0.550465,-0.406708,0.343260,-0.527365,0.198601,-0.116879
1283,4199622004,0.640717,-0.552959,-0.407095,0.343506,-0.421498,0.174619,0.257491
1284,4199655338,0.640356,-0.554329,-0.405841,0.343454,-0.515762,0.261348,0.393095
1285,4199688672,0.641867,-0.554400,-0.403421,0.343372,-0.530827,0.218827,0.373672
1286,4199722006,0.644099,-0.553965,-0.400557,0.343247,-0.467858,0.138342,0.087878
1287,4199755340,0.646531,-0.553096,-0.397663,0.343443,-0.363698,0.040849,0.076736
1288,4199788674,0.649711,-0.550937,-0.394678,0.344352,-0.193695,0.067964,0.209291
1289,4199822008,0.653010,-0.548543,-0.391644,0.345397,-0.171359,0.262555,0.014282
1290,4199855342,0.655550,-0.547717,-0.388512,0.345433,-0.034858,0.186025,-0.150653
1291,4199888676,0.657696,-0.548431,-0.384950,0.344206,-0.040583,0.213819,0.103487
1292,4199922010,0.660196,-0.549674,-0.380651,0.342214,-0.104610,0.237297,0.024871
1293,4199955344,0.662451,-0.551835,-0.376033,0.339471,-0.081908,0.314323,0.117364
1294,4199988678,0.664350,-0.554831,-0.371211,0.336169,-0.019419,0.303596,0.063846
1295,4200022012,0.665982,-0.558319,-0.366424,0.332396,-0.142983,0.349066,0.071617
1296,4200055346,0.668459,-0.560815,-0.361474,0.328621,-0.213476,0.406236,0.318617
1297,4200088680,0.673443,-0.560520,-0.355572,0.325370,-0.260605,0.398985,0.309132
1298,4200122014,0.682086,-0.556152,-0.348140,0.322890,-0.175333,0.416567,0.541753
1299,4200155348,0.694290,-0.547632,-0.338966,0.321198,-0.108431,0.321162,0.237460
1300,4200188682,0.706533,-0.539077,-0.329703,0.318603,-0.036354,0.264492,-0.271020
1301,4200222016,0.712642,-0.538633,-0.323302,0.312245,-0.012174,0.300154,-0.918248
1302,4200255350,0.707441,-0.552901,-0.321656,0.300617,0.218080,0.021763,-0.897817
1303,4200288684,0.686270,-0.585930,-0.325189,0.282803,0.363412,-0.080504,-0.513430
1304,4200322018,0.657011,-0.624993,-0.329045,0.263543,-0.046159,-0.102791,1.317370
1305,4200355352,0.644820,-0.643453,-0.325735,0.253135,-0.453690,0.183147,2.553775
1306,4200388686,0.655204,-0.638562,-0.315546,0.251759,-0.231294,0.166067,0.557605
1307,4200422020,0.669542,-0.629369,-0.304724,0.250514,0.052166,0.185738,-0.867100
1308,4200455354,0.676543,-0.628016,-0.296441,0.244977,-0.072632,0.340043,-0.844365
1309,4200488688,0.679270,-0.631300,-0.289705,0.236917,-0.226220,0.284842,-0.312812
1310,4200522022,0.683067,-0.633252,-0.283375,0.228287,-0.274325,0.153756,-0.271976
1311,4200555356,0.690386,-0.631027,-0.277583,0.219376,-0.365970,0.152110,-0.326579
1312,4200588690,0.703790,-0.621349,-0.272287,0.210881,-0.318703,-0.001561,0.063451
1313,4200622024,0.726337,-0.599513,-0.267233,0.203986,-0.297604,-0.188752,-0.305227
1314,4200655358,0.754283,-0.567883,-0.263880,0.197328,-0.306563,-0.219084,-1.468711
1315,4200688692,0.779078,-0.536441,-0.264841,0.187435,-0.161584,-0.135988,-2.186688
1316,4200722026,0.795405,-0.513678,-0.271493,0.172518,0.268301,-0.307731,-1.669553
1317,4200755360,0.806307,-0.496720,-0.281775,0.154100,0.409506,-0.467643,-0.299622
1318,4200788694,0.815913,-0.479864,-0.292788,0.135270,0.637856,-0.421098,0.324466
1319,4200822028,0.823176,-0.465604,-0.302910,0.117667,0.617072,-0.441308,1.061154
1320,4200855362,0.827610,-0.455508,-0.311942,0.101348,0.464067,-0.426826,1.055067
1321,4200888696,0.829881,-0.448781,-0.319985,0.086654,0.375357,-0.638781,0.743088
1322,4200922030,0.830801,-0.443613,-0.327984,0.073545,0.135108,-0.703128,0.027599
1323,4200955364,0.830919,-0.437921,-0.337723,0.061214,-0.009523,-0.609751,-0.061336
1324,4200988698,0.831232,-0.429385,-0.349569,0.049886,0.036491,-0.377490,0.118423
1325,4201022032,0.831492,-0.418899,-0.362774,0.039295,0.108887,-0.148399,-0.309098
1326,4201055366,0.830703,-0.409715,-0.375855,0.028368,0.190561,0.002390,0.611849
1327,4201088700,0.829693,-0.401351,-0.387551,0.018308,0.045830,-0.538230,1.103566
1328,4201122034,0.830615,-0.389416,-0.397885,0.011259,-0.035698,-0.476988,0.530931
1329,4201155368,0.831056,-0.379354,-0.406712,0.005220,0.122463,-0.089169,0.308407
1330,4201188702,0.829129,-0.375437,-0.414238,-0.002096,-0.028268,-0.189135,0.132708
1331,4201222036,0.826037,-0.374439,-0.421140,-0.010252,-0.113850,-0.522732,0.909700
1332,4201255370,0.823003,-0.374289,-0.426935,-0.017495,-0.002319,-0.432209,0.581687
1333,4201288704,0.820523,-0.373810,-0.431840,-0.022964,-0.168954,-0.328059,0.558473
1334,4201322038,0.818984,-0.371098,-0.436863,-0.026599,0.288251,-0.619029,0.287645
1335,4201355372,0.818599,-0.367257,-0.440682,-0.028695,-0.445306,0.959097,1.084055
1336,4201388706,0.821045,-0.358317,-0.443812,-0.023026,-0.127801,-0.476010,0.964499
1337,4201422040,0.819256,-0.361728,-0.444543,-0.018962,0.334545,-0.959869,0.890553
1338,4201455374,0.815200,-0.374543,-0.441497,-0.015906,-0.678130,-0.636191,1.418265
1339,4201488708,0.814519,-0.382284,-0.436268,-0.009660,-0.605928,-0.537736,0.779006
1340,4201522042,0.814905,-0.389364,-0.429326,-0.003195,-0.324130,-0.245498,-0.032387
1341,4201555376,0.814762,-0.397911,-0.421698,0.002483,-0.466903,-0.271134,0.041128
1342,4201588710,0.815645,-0.404062,-0.413980,0.009083,-0.392890,-0.137108,0.138762
1343,4201622044,0.817272,-0.408942,-0.405671,0.016412,-0.085225,-0.046559,-0.221600
1344,4201655378,0.818488,-0.415127,-0.396534,0.022674,0.136660,-0.046129,-0.180235
1345,4201688712,0.818657,-0.422907,-0.387518,0.028043,0.418386,-0.110656,0.329237
1346,4201722046,0.818058,-0.430723,-0.379664,0.033461,0.405639,-0.116055,0.310806
1347,4201755380,0.817093,-0.437411,-0.373475,0.039413,0.143598,-0.179569,0.429543
1348,4201788714,0.816552,-0.441599,-0.368851,0.046777,0.033090,-0.172971,0.474977
1349,4201822048,0.816519,-0.443563,-0.365301,0.055762,0.062960,-0.299538,0.386310
1350,4201855382,0.816782,-0.444443,-0.361920,0.066001,0.022282,-0.238589,0.744208
1351,4201888716,0.816905,-0.445668,-0.357926,0.077076,0.155402,-0.197490,0.317137
1352,4201922050,0.816362,-0.448010,-0.353542,0.088622,0.107901,-0.294556,0.254702
1353,4201955384,0.816100,-0.449409,-0.349159,0.100531,-0.002932,-0.312415,0.295121
1354,4201988718,0.816126,-0.449708,-0.345026,0.112538,0.076779,-0.330511,-0.132133
1355,4202022052,0.815658,-0.450331,-0.341403,0.123914,0.034921,-0.318855,-0.184837
1356,4202055386,0.814837,-0.452029,-0.337382,0.133752,-0.083922,0.188360,-0.452497
1357,4202088720,0.813957,-0.455290,-0.332273,0.140659,-0.158474,0.126847,-0.042870
1358,4202122054,0.812754,-0.459791,-0.327040,0.145169,-0.107047,0.077941,-0.190279
1359,4202155388,0.809857,-0.466163,-0.323281,0.149395,0.450407,-0.394953,-0.322442
1360,4202188722,0.806360,-0.472333,-0.320655,0.154501,0.283209,0.195828,0.239209
1361,4202222056,0.802738,-0.477705,-0.318786,0.160596,0.330995,0.251375,0.084880
1362,4202255390,0.799164,-0.481701,-0.318137,0.167616,0.376386,-0.008933,-0.048406
1363,4202288724,0.796151,-0.483622,-0.318557,0.175443,0.365365,0.112846,-0.002462
1364,4202322058,0.793981,-0.483793,-0.319336,0.183214,0.221168,0.080934,0.087640
1365,4202355392,0.792216,-0.483295,-0.320228,0.190470,0.243460,0.166817,-0.041467
1366,4202388726,0.789912,-0.484278,-0.320904,0.196316,0.087449,0.154010,-0.137774
1367,4202422060,0.788091,-0.485185,-0.321335,0.200643,-0.193100,0.351720,-0.119539
1368,4202455394,0.786910,-0.485391,-0.322078,0.203566,-0.186461,0.254304,-0.163299
1369,4202488728,0.786923,-0.483641,-0.323150,0.205972,-0.162871,0.386637,0.163081
1370,4202522062,0.788212,-0.480022,-0.323859,0.208379,-0.029455,0.585429,0.216050
1371,4202555396,0.789391,-0.477175,-0.324030,0.210181,0.044614,0.607772,0.371914
1372,4202588730,0.789673,-0.476561,-0.323636,0.211118,0.176727,0.494181,0.268688
1373,4202622064,0.789566,-0.477378,-0.322597,0.211265,0.056895,0.450804,0.165590
1374,4202655398,0.789807,-0.477998,-0.321200,0.211090,0.036473,0.407993,0.051521
1375,4202688732,0.790004,-0.478875,-0.319847,0.210421,0.142405,0.293680,-0.291776
1376,4202722066,0.789453,-0.480851,-0.319249,0.208882,0.196170,0.165311,-0.271800
1377,4202755400,0.788014,-0.483982,-0.319577,0.206570,0.124538,0.044350,-0.182424
1378,4202788734,0.786616,-0.486236,-0.320889,0.204562,0.129446,-0.186857,0.040943
1379,4202822068,0.786116,-0.486394,-0.322419,0.203700,0.125418,-0.262312,0.263044
1380,4202855402,0.785590,-0.486275,-0.323958,0.203573,-0.048894,-0.082839,0.155046
1381,4202888736,0.784008,-0.488004,-0.325369,0.203282,-0.102491,-0.108237,0.085053
1382,4202922070,0.781570,-0.491366,-0.326543,0.202688,-0.154645,-0.194042,0.171690
1383,4202955404,0.779508,-0.494199,-0.327405,0.202353,-0.292140,-0.112193,0.238526
1384,4202988738,0.777805,-0.496400,-0.328046,0.202479,-0.304668,-0.060783,0.094973
1385,4203022072,0.775673,-0.499039,-0.328907,0.202773,-0.290245,-0.045627,0.053579
1386,4203055406,0.772988,-0.502183,-0.330116,0.203300,-0.309139,0.033172,0.281865
1387,4203088740,0.771044,-0.503898,-0.331118,0.204802,-0.267208,-0.046805,0.380951
1388,4203122074,0.769525,-0.504473,-0.332013,0.207632,-0.263987,0.083464,0.345533
1389,4203155408,0.767670,-0.505409,-0.332606,0.211240,-0.122221,0.106166,0.613068
1390,4203188742,0.767873,-0.502988,-0.332286,0.216715,-0.100882,-0.119913,0.812778
1391,4203222076,0.770834,-0.495758,-0.330923,0.224800,-0.092882,0.364891,0.352192
1392,4203255410,0.772071,-0.491555,-0.329224,0.232159,0.040575,0.478601,-0.191833
1393,4203288744,0.770623,-0.492211,-0.327786,0.237548,0.096620,0.341295,-0.047982
1394,4203322078,0.768439,-0.494479,-0.326638,0.241465,0.014212,0.477443,-0.034727
1395,4203355412,0.765711,-0.498035,-0.325634,0.244164,0.064429,0.515673,-0.082911
1396,4203388746,0.761954,-0.503461,-0.324977,0.245660,0.016041,0.485830,0.068933
1397,4203422080,0.758216,-0.509069,-0.324330,0.246524,-0.057388,0.504544,0.241437
1398,4203455414,0.755310,-0.513728,-0.323256,0.247185,-0.060368,0.478377,0.338548
1399,4203488748,0.752032,-0.519214,-0.321919,0.247463,-0.031100,0.275602,0.253200
1400,4203522082,0.748295,-0.525343,-0.320219,0.248062,-0.115502,0.019461,0.568898
1401,4203555416,0.746291,-0.528611,-0.317879,0.250157,-0.154005,0.105286,0.117026
1402,4203588750,0.743997,-0.532313,-0.315712,0.251881,-0.141744,0.196472,-0.250765
1403,4203622084,0.741036,-0.537279,-0.313884,0.252347,-0.100250,0.056168,-0.197019
1404,4203655418,0.738421,-0.541814,-0.312453,0.252093,-0.066099,0.041241,-0.198494
1405,4203688752,0.737106,-0.544439,-0.311249,0.251773,-0.071112,0.188049,0.027771
1406,4203722086,0.736907,-0.545542,-0.310030,0.251476,-0.042496,0.285786,-0.008671
1407,4203755420,0.737048,-0.546236,-0.308706,0.251182,-0.057982,0.235610,0.164397
1408,4203788754,0.737205,-0.546958,-0.306984,0.251261,0.001344,0.307383,0.654402
1409,4203822088,0.737798,-0.547396,-0.304151,0.252010,0.000481,0.212040,0.347928
1410,4203855422,0.738480,-0.548217,-0.300362,0.252772,0.113571,0.082032,0.506034
1411,4203888756,0.740081,-0.548406,-0.295383,0.253546,0.119337,-0.053158,0.378383
1412,4203922090,0.742288,-0.548393,-0.289701,0.253680,0.155671,-0.142339,0.055630
1413,4203955424,0.744247,-0.549224,-0.283955,0.252635,0.209762,-0.258146,0.023830
1414,4203988758,0.746413,-0.550075,-0.278475,0.250484,0.128389,-0.406445,-0.190313
1415,4204022092,0.748465,-0.550872,-0.273926,0.247607,-0.015026,-0.528378,-0.430710
1416,4204055426,0.749790,-0.551971,-0.270703,0.244680,-0.061649,-0.559702,-0.284821
1417,4204088760,0.751232,-0.552076,-0.268507,0.242431,-0.042908,-0.557192,-0.193109
1418,4204122094,0.752946,-0.551181,-0.267213,0.240571,0.081895,-0.547255,-0.204486
1419,4204155428,0.754129,-0.550690,-0.266932,0.238291,0.141576,-0.531168,-0.156761
1420,4204188762,0.754869,-0.550515,-0.267183,0.236061,0.270403,-0.526372,0.345364
1421,4204222096,0.755517,-0.550121,-0.267448,0.234602,0.239583,-0.492729,0.286050
1422,4204255430,0.755374,-0.550357,-0.268061,0.233807,0.142981,-0.314649,0.259894
1423,4204288764,0.754720,-0.550986,-0.268886,0.233490,0.124038,-0.334535,0.327603
1424,4204322098,0.754351,-0.550950,-0.269713,0.233813,-0.054205,-0.307233,0.070992
1425,4204355432,0.753883,-0.550788,-0.271011,0.234202,-0.178603,-0.225052,-0.022777
1426,4204388766,0.753402,-0.550429,-0.272669,0.234671,-0.154844,-0.338599,0.131602
1427,4204422100,0.753539,-0.549037,-0.274055,0.235877,-0.128397,-0.386886,0.233007
1428,4204455434,0.753730,-0.547634,-0.275043,0.237372,-0.012022,-0.412387,0.047690
1429,4204488768,0.753224,-0.547356,-0.276034,0.238465,0.002978,-0.522191,0.186849
1430,4204522102,0.752939,-0.546469,-0.277085,0.240176,-0.059783,-0.546636,0.314238
1431,4204555436,0.753301,-0.544099,-0.278223,0.243087,-0.076885,-0.500977,0.152635
1432,4204588770,0.753262,-0.541830,-0.279697,0.246562,-0.063501,-0.381884,0.240656
1433,4204622104,0.754810,-0.537072,-0.280775,0.250972,-0.046717,-0.450721,0.304416
1434,4204655438,0.757199,-0.530938,-0.281400,0.256074,0.086192,-0.405810,0.133085
1435,4204688772,0.757980,-0.527069,-0.282135,0.260902,0.151970,-0.332671,0.130834
1436,4204722106,0.757550,-0.524840,-0.283063,0.265598,0.251743,-0.399863,0.228790
1437,4204755440,0.756955,-0.522524,-0.284026,0.270780,0.248182,-0.421118,0.175911
1438,4204788774,0.755719,-0.520522,-0.285473,0.276507,0.158544,-0.373628,0.007523
1439,4204822108,0.753674,-0.518971,-0.287699,0.282630,0.115974,-0.546653,0.064770
1440,4204855442,0.751400,-0.516932,-0.290556,0.289417,0.001100,-0.608366,0.122748
1441,4204888776,0.748486,-0.515043,-0.293895,0.296868,-0.086926,-0.631637,0.090273
1442,4204922110,0.744550,-0.513870,-0.297737,0.304863,-0.196690,-0.735609,0.123776
1443,4204955444,0.740105,-0.512564,-0.301833,0.313727,-0.348985,-0.665097,0.114308
1444,4204988778,0.734712,-0.511934,-0.306342,0.322927,-0.443389,-0.635898,-0.052285
1445,4205022112,0.727943,-0.512864,-0.311563,0.331670,-0.410916,-0.646480,-0.019971
1446,4205055446,0.720261,-0.514763,-0.317410,0.339853,-0.458111,-0.476615,0.032208
1447,4205088780,0.711320,-0.517920,-0.324403,0.347205,-0.717937,-0.593187,-0.087837
1448,4205122114,0.701518,-0.521196,-0.332623,0.354393,-0.746990,-0.560045,-0.058537
1449,4205155448,0.692730,-0.522574,-0.340984,0.361631,-0.527653,-0.501825,0.317595
1450,4205188782,0.687344,-0.519900,-0.348066,0.368940,-0.372173,-0.408385,-0.093760
1451,4205222116,0.682893,-0.517174,-0.355158,0.374242,-0.019314,-0.059011,-0.500728
1452,4205255450,0.678922,-0.515278,-0.362187,0.377332,0.286191,0.365839,0.271486
1453,4205288784,0.679407,-0.508947,-0.366709,0.380669,0.343397,0.607597,0.044753
1454,4205322118,0.685369,-0.497058,-0.368273,0.384167,0.640162,0.940834,0.251643
1455,4205355452,0.699603,-0.474642,-0.365246,0.389707,0.734754,1.140871,-0.138606
1456,4205388786,0.714029,-0.451711,-0.362026,0.393779,1.127833,1.596090,-0.193977
1457,4205422120,0.721940,-0.439213,-0.362124,0.393403,1.062209,1.654901,-0.099566
1458,4205455454,0.726084,-0.433251,-0.363050,0.391530,0.891627,1.076342,0.597131
1459,4205488788,0.728205,-0.430892,-0.364226,0.389094,0.392639,0.904913,0.257019
1460,4205522122,0.729369,-0.430119,-0.365286,0.386769,0.142172,0.644138,0.328582
1461,4205555456,0.731111,-0.428395,-0.365620,0.385074,0.088264,0.496950,0.314335
1462,4205588790,0.732494,-0.427550,-0.366091,0.382931,-0.116726,0.480892,-0.053024
