sep=,
DeviceTag:,R_Wrist
FirmwareVersion:,2.2.1
AppVersion:,2023.6.0
SyncStatus:,Synced
OutputRate:,30Hz
FilterProfile:,General
Measurement Mode:,Sensor fusion Mode - Complete(Quaternion)
StartTime: ,2026-09-07_14:39:40_520 AEST
© Movella Technologies B. V. 2005-2026

PacketCounter,SampleTimeFine,Quat_W,Quat_X,Quat_Y,Quat_Z,FreeAcc_X,FreeAcc_Y,FreeAcc_Z
1,3363968655,-0.654512,-0.316070,0.014317,0.686668,0.114284,0.213521,0.022365
2,3364001989,-0.655478,-0.313142,0.016216,0.687047,-0.137066,0.526318,-0.121568
3,3364035323,-0.658710,-0.306624,0.017179,0.686872,-0.974592,1.296342,-0.614737
4,3364068657,-0.666097,-0.293790,0.016474,0.685373,-1.824261,1.480637,-1.030755
5,3364101991,-0.675094,-0.279065,0.019377,0.682642,-1.619786,-0.843044,-0.169871
6,3364135325,-0.681368,-0.270323,0.028010,0.679619,0.920737,-1.798724,0.947733
7,3364168659,-0.687476,-0.261700,0.031390,0.676690,1.241050,-1.967171,1.489478
8,3364201993,-0.690917,-0.257593,0.032478,0.674706,0.590742,-1.855125,1.458591
9,3364235327,-0.691875,-0.259151,0.034103,0.673046,1.091153,-0.510909,0.314868
10,3364268661,-0.693685,-0.259674,0.032287,0.671068,1.129410,0.287224,-0.187431
11,3364301995,-0.696263,-0.259258,0.028326,0.668734,0.348275,-0.090342,0.565863
12,3364335329,-0.697164,-0.261464,0.025446,0.667050,1.317160,0.124490,0.618237
13,3364368663,-0.697717,-0.261433,0.019844,0.666674,1.784299,-0.314240,1.191920
14,3364401997,-0.697772,-0.258339,0.010355,0.668036,0.445611,-0.268309,0.386999
15,3364435331,-0.695785,-0.255880,-0.001153,0.671127,-0.438605,0.748657,-0.675720
16,3364468665,-0.693501,-0.253926,-0.014528,0.674070,-1.025304,2.127117,-0.565436
17,3364501999,-0.692181,-0.254269,-0.024835,0.674996,-2.190784,3.380300,-1.011128
18,3364535333,-0.691864,-0.256489,-0.028598,0.674333,-0.922958,3.002208,-1.432935
19,3364568667,-0.694620,-0.253651,-0.030146,0.672503,-0.848120,3.029306,-2.636048
20,3364602001,-0.702833,-0.239477,-0.035558,0.668892,-0.716760,1.878157,-3.185634
21,3364635335,-0.716142,-0.211221,-0.044597,0.663733,-1.419285,0.300738,-3.271660
22,3364668669,-0.726412,-0.184845,-0.043707,0.660494,0.682544,-3.205947,-0.710088
23,3364702003,-0.728848,-0.172521,-0.027360,0.662022,2.127003,-4.062396,1.047457
24,3364735337,-0.725625,-0.170949,-0.010829,0.666433,3.517011,-2.954601,1.458365
25,3364768671,-0.720881,-0.170397,-0.007227,0.671750,3.843574,-1.031135,0.957258
26,3364802005,-0.710577,-0.180233,0.000763,0.680148,0.251977,-0.037724,1.651792
27,3364835339,-0.694284,-0.198136,0.019493,0.691619,2.169176,0.766502,0.060081
28,3364868673,-0.681627,-0.195294,0.023242,0.704776,1.664577,-0.049658,-0.163943
29,3364902007,-0.667290,-0.189837,0.022771,0.719841,1.350302,-0.165216,-0.507471
30,3364935341,-0.651823,-0.184703,0.021216,0.735232,1.786931,-0.043322,-0.085051
31,3364968675,-0.631165,-0.181012,0.026623,0.753764,2.303602,0.668454,0.270742
32,3365002009,-0.600763,-0.182083,0.046127,0.777050,2.079474,1.309151,-0.122359
33,3365035343,-0.563270,-0.181769,0.072010,0.802811,1.812950,1.813913,-0.178320
34,3365068677,-0.524615,-0.171575,0.091692,0.828817,1.413936,1.696401,0.944057
35,3365102011,-0.481043,-0.160593,0.118808,0.853637,2.071880,-0.429970,2.214160
36,3365135345,-0.433117,-0.145146,0.139736,0.878533,2.640780,-3.513589,3.176682
37,3365168679,-0.382078,-0.122386,0.135723,0.905882,0.400216,-3.857303,2.647268
38,3365202013,-0.327915,-0.103235,0.127130,0.930407,-0.721551,-2.326330,-0.710703
39,3365235347,-0.274074,-0.085809,0.127642,0.949332,-0.381745,0.326990,-5.124628
40,3365268681,-0.230791,-0.056260,0.121067,0.963804,-0.761186,1.379356,-7.718739
41,3365302015,-0.199798,-0.006549,0.101635,0.974532,-3.419369,0.517730,-5.707405
42,3365335349,-0.180365,0.061889,0.064626,0.979523,-6.284051,0.222713,-0.744164
43,3365368683,-0.169822,0.128829,0.025238,0.976694,-9.780002,-1.678114,2.153248
44,3365402017,-0.166915,0.173565,0.001276,0.970576,-10.009899,2.391947,3.576032
45,3365435351,-0.170598,0.191791,0.007023,0.966472,-8.207870,1.899637,3.759166
46,3365468685,-0.183703,0.190420,0.025819,0.964018,-4.283806,0.013944,5.768219
47,3365502019,-0.208507,0.173041,0.051298,0.961226,-4.754910,0.859646,5.935080
48,3365535353,-0.240551,0.139439,0.088461,0.956489,-5.179075,-1.509762,1.971296
49,3365568687,-0.277457,0.096553,0.127856,0.947287,-4.617668,-1.807976,1.331368
50,3365602021,-0.316929,0.046432,0.166958,0.932486,-3.169339,-3.339543,1.320272
51,3365635355,-0.360847,-0.005750,0.194294,0.912146,-1.374474,-3.878387,-0.950652
52,3365668689,-0.407822,-0.057190,0.212967,0.886036,0.170280,-2.969927,-0.110079
53,3365702023,-0.458008,-0.103093,0.223649,0.854158,0.924049,-1.426679,-0.268460
54,3365735357,-0.509841,-0.142213,0.225334,0.817965,3.875916,-0.712681,-2.285820
55,3365768691,-0.561135,-0.174070,0.219702,0.778821,5.194119,1.570602,-2.331935
56,3365802025,-0.605028,-0.204177,0.215568,0.738774,3.733488,1.224988,-0.233912
57,3365835359,-0.640417,-0.230911,0.207282,0.702556,5.820399,0.951196,0.583842
58,3365868693,-0.671680,-0.248333,0.188657,0.672004,2.860435,2.591581,0.413188
59,3365902027,-0.697538,-0.264218,0.169935,0.644016,0.742524,3.758438,0.375783
60,3365935361,-0.717469,-0.284641,0.160370,0.615227,-1.491305,4.035534,-0.582871
61,3365968695,-0.728812,-0.316103,0.167793,0.583748,-1.398929,3.298774,-1.390178
62,3366002029,-0.742000,-0.334175,0.176016,0.553883,-0.615090,3.671933,-2.945720
63,3366035363,-0.752490,-0.347672,0.193172,0.524949,-0.991734,1.397049,-3.190251
64,3366068697,-0.751435,-0.373442,0.228229,0.493765,1.291984,0.927741,-1.477408
65,3366102031,-0.754154,-0.381942,0.258850,0.467305,3.172592,0.987790,0.982346
66,3366135365,-0.751755,-0.385028,0.289359,0.450437,1.715500,0.511547,-1.272863
67,3366168699,-0.725599,-0.420960,0.334028,0.429800,2.558871,0.971444,-2.601008
68,3366202033,-0.700735,-0.449642,0.369915,0.412261,6.812078,3.174366,4.276445
69,3366235367,-0.702621,-0.433186,0.378615,0.418724,4.929830,1.459546,5.376841
70,3366268701,-0.708584,-0.403491,0.376708,0.439544,0.668928,-2.687579,0.599208
71,3366302035,-0.697799,-0.395277,0.381174,0.459938,1.796622,-3.543687,1.854387
72,3366335369,-0.691100,-0.377925,0.370132,0.492504,5.670970,-3.907861,5.318035
73,3366368703,-0.698733,-0.340938,0.329760,0.535533,-1.963990,-4.650055,-0.969606
74,3366402037,-0.686336,-0.340945,0.306789,0.564432,-2.917115,-3.176049,-0.957335
75,3366435371,-0.674890,-0.340250,0.278675,0.592535,3.052685,-1.633879,3.861708
76,3366468705,-0.671518,-0.323568,0.233467,0.624392,1.251621,-0.000423,0.408420
77,3366502039,-0.660885,-0.313746,0.187758,0.655397,3.429029,-0.702500,1.473605
78,3366535373,-0.650965,-0.294038,0.131324,0.687419,0.800423,1.660864,0.629788
79,3366568707,-0.633956,-0.278367,0.084543,0.716567,-1.650019,4.218501,-2.720393
80,3366602041,-0.598208,-0.286075,0.078727,0.744389,-0.590887,5.637298,-4.082305
81,3366635375,-0.552926,-0.298342,0.099065,0.771658,1.733943,3.436276,-2.871763
82,3366668709,-0.514177,-0.288508,0.109730,0.800218,2.515338,1.425949,-2.445222
83,3366702043,-0.473931,-0.271724,0.123454,0.828443,1.763276,1.572581,-2.635470
84,3366735377,-0.429497,-0.255613,0.146613,0.853641,4.470813,-2.724580,-0.949391
85,3366768711,-0.390479,-0.228060,0.151263,0.878999,2.549909,-2.724847,-1.460652
86,3366802045,-0.348853,-0.195480,0.155788,0.903230,0.542918,-1.328867,-3.117261
87,3366835379,-0.307075,-0.155513,0.167185,0.923891,0.340935,-1.517863,-5.016460
88,3366868713,-0.273560,-0.096374,0.154983,0.944384,-1.879839,-2.649242,-4.753021
89,3366902047,-0.245865,-0.018975,0.118849,0.961805,-4.961290,-1.036570,-3.546551
90,3366935381,-0.223204,0.068375,0.072091,0.969697,-7.283021,-2.230180,2.808218
91,3366968715,-0.210813,0.144297,0.009492,0.966773,-9.943509,1.795533,2.090810
92,3367002049,-0.199889,0.186968,-0.027303,0.961429,-10.170143,3.492298,9.751608
93,3367035383,-0.203579,0.191838,-0.023864,0.959786,-6.008429,2.166574,9.772310
94,3367068717,-0.220926,0.175270,-0.015449,0.959290,-2.813708,1.111086,6.697464
95,3367102051,-0.243177,0.150085,-0.007720,0.958272,-2.109982,-0.095931,3.281096
96,3367135385,-0.266612,0.120472,-0.007402,0.956219,-0.833564,-2.157557,3.656843
97,3367168719,-0.293165,0.086930,-0.013813,0.952004,-1.693693,-0.001290,2.692867
98,3367202053,-0.319680,0.048479,-0.015870,0.946154,-1.179614,-1.804882,0.918948
99,3367235387,-0.345972,0.010128,-0.024621,0.937869,-0.561977,-1.277767,0.360310
100,3367268721,-0.373567,-0.026064,-0.037679,0.926473,-0.721627,-0.178639,0.271929
101,3367302055,-0.401961,-0.061113,-0.049225,0.912291,-0.555616,0.042869,-1.254126
102,3367335389,-0.430552,-0.091149,-0.064180,0.895657,0.206983,0.314807,-0.707038
103,3367368723,-0.460432,-0.116014,-0.083377,0.876125,-1.103942,0.472816,-0.055213
104,3367402057,-0.490926,-0.138106,-0.100116,0.854342,0.385658,1.125291,-1.166676
105,3367435391,-0.522819,-0.154352,-0.117355,0.830101,0.436643,2.120209,-1.721840
106,3367468725,-0.554552,-0.164144,-0.134326,0.804667,0.325951,2.256520,-0.726805
107,3367502059,-0.585598,-0.168396,-0.148969,0.778801,1.293586,2.294327,-0.699120
108,3367535393,-0.617306,-0.167240,-0.161298,0.751633,0.207213,1.067128,-0.238906
109,3367568727,-0.646636,-0.166391,-0.164792,0.725964,0.497797,0.170849,-0.909554
110,3367602061,-0.672065,-0.164846,-0.163728,0.703102,1.845512,0.129991,-2.811195
111,3367635395,-0.696554,-0.152431,-0.166596,0.681049,1.258078,0.352463,-2.686184
112,3367668729,-0.718538,-0.130178,-0.167575,0.662328,1.967595,-0.879300,-1.345977
113,3367702063,-0.732593,-0.112884,-0.157365,0.652537,1.682967,-1.427909,-1.413327
114,3367735397,-0.740070,-0.101976,-0.141886,0.649439,3.373838,0.661225,-4.471087
115,3367768731,-0.743507,-0.081398,-0.138220,0.649208,5.452965,-1.303233,-2.272156
116,3367802065,-0.737420,-0.069939,-0.138065,0.657467,4.142410,-2.554137,-0.848574
117,3367835399,-0.724972,-0.059925,-0.151388,0.669261,5.102961,-2.161932,0.791468
118,3367868733,-0.704773,-0.062498,-0.164806,0.687191,2.643197,-1.401189,0.577281
119,3367902067,-0.677458,-0.074624,-0.174146,0.710746,3.415841,-1.416329,-0.095628
120,3367935401,-0.645265,-0.089473,-0.183478,0.736185,1.072294,-1.126933,-1.501431
121,3367968735,-0.609108,-0.101119,-0.195413,0.761958,1.813659,-0.179948,-2.382389
122,3368002069,-0.571834,-0.106986,-0.208672,0.786143,0.424218,-0.862673,-2.248395
123,3368035403,-0.531918,-0.116250,-0.210023,0.812061,-0.947850,-0.971791,-2.100869
124,3368068737,-0.489496,-0.127601,-0.197731,0.839654,-0.179903,0.826151,-1.722950
125,3368102071,-0.450056,-0.130602,-0.187229,0.863332,0.721958,0.222438,-1.995128
126,3368135405,-0.412208,-0.130262,-0.171976,0.885181,-1.007473,0.666387,-0.758847
127,3368168739,-0.372586,-0.131714,-0.143058,0.907398,0.512272,0.803225,0.054095
128,3368202073,-0.334685,-0.128898,-0.118309,0.925947,-0.176114,-1.000077,-0.043281
129,3368235407,-0.295486,-0.124535,-0.097861,0.942129,-0.060328,-0.466007,-0.286521
130,3368268741,-0.254109,-0.116500,-0.079555,0.956834,-0.426343,-0.808139,0.934608
131,3368302075,-0.215613,-0.105791,-0.058901,0.968945,-1.175490,-0.810902,1.928510
132,3368335409,-0.183235,-0.093311,-0.041459,0.977754,-1.679698,0.285197,0.825371
133,3368368743,-0.154990,-0.082153,-0.018583,0.984321,-1.596726,0.105041,-0.470089
134,3368402077,-0.133595,-0.067066,-0.000654,0.988766,-1.542780,0.775015,-1.660594
135,3368435411,-0.118907,-0.043422,0.010263,0.991904,-2.188569,1.672719,-2.258764
136,3368468745,-0.110635,-0.011415,0.017920,0.993636,-3.152127,0.973014,-1.718010
137,3368502079,-0.107550,0.027000,0.022882,0.993572,-3.606932,0.026277,1.498802
138,3368535413,-0.110023,0.069017,0.015346,0.991413,-3.513852,-1.109855,3.831807
139,3368568747,-0.115534,0.106918,-0.007431,0.987507,-2.356491,1.710697,2.937355
140,3368602081,-0.125378,0.138580,-0.018210,0.982216,-3.882824,5.886905,0.590956
141,3368635415,-0.139166,0.158525,-0.011492,0.977433,-3.561486,2.510278,4.278606
142,3368668749,-0.162976,0.163105,0.001043,0.973056,-2.950488,1.628127,5.709485
143,3368702083,-0.196129,0.153014,0.018695,0.968388,-2.177856,1.847299,1.706994
144,3368735417,-0.234845,0.137982,0.039275,0.961390,-1.181449,0.744741,0.360162
145,3368768751,-0.276738,0.120826,0.055806,0.951687,-0.225677,0.622206,0.475164
146,3368802085,-0.319657,0.103765,0.070983,0.939158,0.724380,0.665577,1.238325
147,3368835419,-0.361348,0.086923,0.084514,0.924518,0.825027,0.383780,0.874862
148,3368868753,-0.399213,0.071895,0.095873,0.908996,1.281570,-0.440458,0.587868
149,3368902087,-0.432010,0.061035,0.100168,0.894211,1.037013,-0.719324,0.139984
150,3368935421,-0.459093,0.053944,0.101239,0.880953,1.159434,-0.757433,-0.060354
151,3368968755,-0.481553,0.049499,0.099359,0.869361,1.129184,-1.163985,0.102436
152,3369002089,-0.500663,0.046342,0.095389,0.859124,0.602399,-0.563197,0.127158
153,3369035423,-0.517076,0.043927,0.090905,0.849967,0.948216,-0.525284,-0.174362
154,3369068757,-0.531024,0.043748,0.085540,0.841895,0.648679,-0.422225,-0.377485
155,3369102091,-0.542917,0.046177,0.078850,0.834803,0.204422,0.580910,-0.432899
156,3369135425,-0.552788,0.050734,0.072981,0.828571,0.292866,1.246015,-0.605536
157,3369168759,-0.560612,0.057218,0.069588,0.823166,0.987118,1.377618,-1.145784
158,3369202093,-0.567965,0.068418,0.061965,0.817863,0.418062,1.630984,0.023923
159,3369235427,-0.574472,0.080846,0.053582,0.812761,0.999346,1.248358,-0.549373
160,3369268761,-0.580019,0.096322,0.043162,0.807739,0.671853,1.049273,-1.016733
161,3369302095,-0.584818,0.116451,0.028300,0.802266,0.602321,0.849216,-0.394240
162,3369335429,-0.588408,0.141352,0.010116,0.796052,0.062916,1.058134,-0.101851
163,3369368763,-0.590606,0.171683,-0.010400,0.788420,0.314628,0.739240,0.160770
164,3369402097,-0.591165,0.205264,-0.031480,0.779361,-0.712390,-0.138263,0.651288
165,3369435431,-0.592064,0.233434,-0.044767,0.770045,-1.010131,-0.650473,0.429474
166,3369468765,-0.593397,0.255261,-0.054511,0.761416,-0.033966,-1.786924,1.774353
167,3369502099,-0.594345,0.265582,-0.059304,0.756775,0.257450,-2.525221,-0.128509
168,3369535433,-0.591714,0.271270,-0.064896,0.756359,-0.294854,-2.162239,-0.924450
169,3369568767,-0.586873,0.269846,-0.064708,0.760645,1.049653,-1.254979,0.690527
170,3369602101,-0.579703,0.265460,-0.061806,0.767893,2.909787,-1.592966,0.790115
171,3369635435,-0.568248,0.259733,-0.059473,0.778524,1.408960,-1.491171,-0.214363
172,3369668769,-0.553935,0.249273,-0.053027,0.792597,1.644088,-1.181930,-0.857889
173,3369702103,-0.538952,0.232283,-0.038884,0.808745,1.258165,-1.195008,0.297535
174,3369735437,-0.519994,0.214032,-0.024941,0.826546,1.092006,-1.794646,-1.478153
175,3369768771,-0.495204,0.202189,-0.016488,0.844764,0.570828,-0.576451,0.084171
176,3369802105,-0.470819,0.186557,0.000727,0.862282,-0.483804,-1.193123,1.178337
177,3369835439,-0.445573,0.166462,0.024357,0.879298,0.706388,-1.498675,-2.205372
178,3369868773,-0.416186,0.153465,0.035195,0.895546,1.285619,-1.453573,0.898886
179,3369902107,-0.385346,0.139520,0.047153,0.910946,0.441739,-1.585383,0.625957
180,3369935441,-0.352617,0.124243,0.061713,0.925430,-0.036758,-1.340507,0.313309
181,3369968775,-0.318481,0.110882,0.070581,0.938775,-1.382459,-0.581287,0.481313
182,3370002109,-0.284128,0.099232,0.079021,0.950360,-2.125704,0.241564,-0.434410
183,3370035443,-0.251390,0.089887,0.086661,0.959801,-3.067029,0.894377,-1.344199
184,3370068777,-0.219250,0.083179,0.094216,0.967543,-3.448397,1.777543,-0.753035
185,3370102111,-0.191358,0.083451,0.102589,0.972573,-2.829729,1.950376,-2.321942
186,3370135445,-0.173630,0.095440,0.109098,0.974087,-2.539536,1.953010,-4.303629
187,3370168779,-0.169265,0.120751,0.110525,0.971883,-3.091233,3.739680,-0.301731
188,3370202113,-0.179775,0.152818,0.109453,0.965584,-3.222790,0.797481,0.036710
189,3370235447,-0.199790,0.184323,0.096876,0.957459,-5.840124,2.917445,1.196965
190,3370268781,-0.225226,0.199510,0.113411,0.946896,-5.914767,2.011034,1.286933
191,3370302115,-0.261306,0.197253,0.146681,0.933434,-4.737857,-0.930195,3.523767
192,3370335449,-0.305836,0.177543,0.193781,0.915094,-2.257233,-1.679263,2.756124
193,3370368783,-0.355013,0.149753,0.239725,0.891110,0.068125,-2.073922,0.946424
194,3370402117,-0.404982,0.124709,0.269343,0.864810,1.188191,-1.771394,-0.058763
195,3370435451,-0.455195,0.104561,0.289656,0.835445,1.593574,-0.374847,-2.069874
196,3370468785,-0.504810,0.090065,0.306801,0.801831,1.577001,0.213172,-3.116374
197,3370502119,-0.551243,0.081732,0.321130,0.765723,2.040128,-0.533604,-0.641452
198,3370535453,-0.594152,0.076950,0.332408,0.728403,0.899478,-0.232814,0.119708
199,3370568787,-0.633553,0.060355,0.354927,0.684835,-0.785505,0.606766,0.984684
200,3370602121,-0.669439,0.032438,0.377706,0.638859,3.981827,0.290775,3.586295
201,3370635455,-0.701162,0.004001,0.385182,0.599997,0.026537,3.119296,2.476469
202,3370668789,-0.725291,-0.055054,0.405080,0.553929,-1.255268,4.642133,1.864728
203,3370702123,-0.736339,-0.143444,0.437252,0.496028,-0.727554,5.017657,-0.895926
204,3370735457,-0.731449,-0.244679,0.470256,0.428927,-0.196134,4.080130,-0.727332
205,3370768791,-0.710809,-0.344255,0.498247,0.357762,0.886198,2.522638,-2.076825
206,3370802125,-0.677159,-0.431406,0.520240,0.291032,2.161152,1.998081,-0.267086
207,3370835459,-0.653281,-0.477667,0.529859,0.253599,2.859500,2.468617,2.698070
208,3370868793,-0.647887,-0.486333,0.531317,0.247849,4.159495,1.831990,1.149913
209,3370902127,-0.641485,-0.490262,0.534531,0.249843,1.930239,-0.383767,0.993862
210,3370935461,-0.630355,-0.499424,0.539077,0.250257,1.140608,-1.559330,-0.989345
211,3370968795,-0.620469,-0.505837,0.544160,0.251081,1.409749,-0.241297,0.790781
212,3371002129,-0.623482,-0.494944,0.544964,0.263285,0.912860,-1.958259,0.559980
213,3371035463,-0.634997,-0.473193,0.539072,0.286832,1.787286,-2.684697,1.146559
214,3371068797,-0.643908,-0.453019,0.528939,0.316836,0.036741,-4.309250,-0.146508
215,3371102131,-0.640496,-0.448125,0.522304,0.340811,0.716635,-4.019883,0.061660
216,3371135465,-0.639245,-0.436561,0.512421,0.371765,1.201206,-3.154279,1.244589
217,3371168799,-0.643721,-0.413069,0.495737,0.411396,0.060714,-3.406663,-1.868502
218,3371202133,-0.642558,-0.396136,0.484683,0.441907,0.918941,-3.248956,-1.283440
219,3371235467,-0.649583,-0.370236,0.466155,0.472940,-0.678141,-2.718711,0.058117
220,3371268801,-0.647910,-0.360594,0.458257,0.490092,0.628718,-0.802563,-0.981981
221,3371302135,-0.644530,-0.358213,0.459497,0.495107,0.973960,0.898858,0.687688
222,3371335469,-0.636508,-0.360971,0.468692,0.494863,1.150251,1.525113,-0.077973
223,3371368803,-0.626685,-0.360651,0.477707,0.498996,2.423725,3.342930,0.404830
224,3371402137,-0.617348,-0.344944,0.479008,0.520048,2.231638,5.288758,0.487437
225,3371435471,-0.598763,-0.321647,0.482299,0.552647,1.124330,6.767276,0.149334
226,3371468805,-0.565759,-0.297014,0.493866,0.589747,2.480818,6.277065,1.642030
227,3371502139,-0.527742,-0.265074,0.498975,0.634233,4.062726,3.786930,1.674831
228,3371535473,-0.487378,-0.230565,0.490169,0.684866,2.883673,1.613161,2.483954
229,3371568807,-0.442094,-0.195647,0.471986,0.737230,1.233475,-0.034262,1.276822
230,3371602141,-0.394079,-0.159429,0.444182,0.788664,1.607389,-2.663731,-0.493544
231,3371635475,-0.347261,-0.119578,0.404275,0.837662,-0.648048,-4.016549,-2.694064
232,3371668809,-0.303213,-0.075297,0.364366,0.877288,-2.800124,-3.424250,-4.384893
233,3371702143,-0.266585,-0.019564,0.318630,0.909411,-3.232596,-1.756432,-4.443960
234,3371735477,-0.241405,0.049952,0.259438,0.933769,-5.090741,-1.394081,-3.792713
235,3371768811,-0.229450,0.120679,0.200191,0.944837,-7.798815,-0.757538,-2.775087
236,3371802145,-0.228493,0.176605,0.145638,0.946253,-9.553871,-0.778564,0.120122
237,3371835479,-0.241182,0.206051,0.129554,0.939465,-11.130613,3.891229,-0.653202
238,3371868813,-0.263428,0.212215,0.149929,0.929030,-6.557082,-2.670154,3.769917
239,3371902147,-0.292678,0.203242,0.174410,0.917942,-3.663390,-1.139705,5.222869
240,3371935481,-0.331191,0.181569,0.207112,0.902471,-3.396886,-0.975813,4.183959
241,3371968815,-0.373698,0.151815,0.240771,0.882800,-2.264209,-2.682477,1.506356
242,3372002149,-0.418967,0.118232,0.269538,0.858977,-0.656107,-2.919640,0.734765
243,3372035483,-0.466277,0.084204,0.289747,0.831593,0.178438,-3.216980,1.506506
244,3372068817,-0.513328,0.048788,0.302372,0.801679,1.313308,-2.414125,0.836449
245,3372102151,-0.557363,0.008076,0.313707,0.768683,2.519968,-1.394199,1.768426
246,3372135485,-0.597903,-0.031621,0.313223,0.737162,3.489631,-0.228199,2.348884
247,3372168819,-0.633849,-0.069890,0.300932,0.709080,2.890183,1.381605,2.657809
248,3372202153,-0.664866,-0.112470,0.284929,0.681266,1.838738,2.400273,1.508315
249,3372235487,-0.689768,-0.156702,0.264554,0.655500,1.385007,3.361384,0.946666
250,3372268821,-0.711387,-0.194671,0.234624,0.633236,0.297526,3.531352,0.521723
251,3372302155,-0.729573,-0.228625,0.202194,0.612026,-0.647027,3.837986,-1.009443
252,3372335489,-0.744104,-0.258101,0.170819,0.592046,-0.555367,3.171144,-0.311793
253,3372368823,-0.757015,-0.277392,0.139723,0.574860,0.554721,3.059219,-0.612997
254,3372402157,-0.766487,-0.291915,0.113851,0.560648,0.406211,3.718283,-1.910789
255,3372435491,-0.767640,-0.315246,0.102943,0.548411,0.172802,3.133162,-3.289178
256,3372468825,-0.770119,-0.328508,0.095144,0.538471,1.805165,1.818853,-2.751278
257,3372502159,-0.772622,-0.333975,0.093432,0.531781,0.735832,-0.205048,-2.681429
258,3372535493,-0.766647,-0.347733,0.105240,0.529398,4.157827,-0.650872,-2.072226
259,3372568827,-0.759459,-0.354837,0.115906,0.532806,6.228674,-1.070509,-3.057173
260,3372602161,-0.745467,-0.360988,0.121531,0.546993,7.686855,-1.847126,-0.742399
261,3372635495,-0.725448,-0.367117,0.125240,0.568569,4.087686,-1.839320,-1.155755
262,3372668829,-0.696842,-0.378761,0.133511,0.594248,3.256588,-0.667432,-0.773827
263,3372702163,-0.663784,-0.387242,0.144426,0.623361,2.507816,1.613859,-0.293527
264,3372735497,-0.627563,-0.388724,0.160016,0.655330,1.509258,1.638773,0.155473
265,3372768831,-0.589401,-0.381262,0.180841,0.688873,0.502252,1.063043,-0.395750
266,3372802165,-0.549086,-0.366477,0.207329,0.721955,-0.593171,0.761569,0.284325
267,3372835499,-0.509675,-0.343360,0.231997,0.754000,0.332452,-0.250689,0.290501
268,3372868833,-0.471674,-0.313100,0.252112,0.784816,-0.139460,-2.250469,0.742720
269,3372902167,-0.431068,-0.282004,0.269417,0.813678,0.124695,-2.785070,-0.151129
270,3372935501,-0.388691,-0.251831,0.280639,0.840682,0.259024,-3.130548,-0.100783
271,3372968835,-0.346258,-0.221944,0.287907,0.864847,-0.142281,-2.865221,-0.619819
272,3373002169,-0.304049,-0.193714,0.294643,0.884997,-0.288024,-2.577467,-0.867446
273,3373035503,-0.264341,-0.165296,0.298054,0.902202,-0.787635,-2.503492,-0.830108
274,3373068837,-0.228544,-0.134218,0.294762,0.918081,-1.759311,-1.951686,-0.785851
275,3373102171,-0.196776,-0.099953,0.282747,0.933460,-2.235536,-1.405231,-1.215381
276,3373135505,-0.169689,-0.061826,0.258566,0.948963,-2.706283,-0.347722,-2.302863
277,3373168839,-0.146341,-0.019022,0.228534,0.962288,-3.175565,-0.002752,-3.077251
278,3373202173,-0.127021,0.031242,0.192077,0.972626,-4.012208,0.496078,-2.437098
279,3373235507,-0.111746,0.091407,0.146538,0.978616,-5.352763,1.075144,0.971512
280,3373268841,-0.104962,0.150426,0.102245,0.977704,-5.827534,1.891495,3.984761
281,3373302175,-0.106784,0.188935,0.073850,0.973371,-6.253327,4.114272,3.619113
282,3373335509,-0.117930,0.203739,0.081287,0.968493,-5.136908,5.965740,2.577087
283,3373368843,-0.133872,0.207429,0.094201,0.964459,-3.200622,2.693237,1.413803
284,3373402177,-0.156064,0.199096,0.114236,0.960708,-2.167768,2.051601,3.751932
285,3373435511,-0.185058,0.175792,0.141752,0.956432,-0.631270,0.946870,4.377339
286,3373468845,-0.216860,0.145338,0.167113,0.950750,0.726469,0.768070,4.521403
287,3373502179,-0.248859,0.110594,0.182083,0.944822,-0.224585,-1.106179,3.285184
288,3373535513,-0.280000,0.069146,0.194728,0.937499,-1.588542,0.001486,2.514795
289,3373568847,-0.308766,0.020995,0.210979,0.927208,0.125000,-0.532938,2.601271
290,3373602181,-0.336189,-0.026966,0.214513,0.916645,-0.015135,-1.946408,2.300016
291,3373635515,-0.362397,-0.072445,0.204566,0.906409,0.993438,-0.754252,0.701245
292,3373668849,-0.388126,-0.113995,0.186863,0.895237,0.927241,1.269125,0.785515
293,3373702183,-0.412493,-0.150883,0.165097,0.883081,0.958650,-0.133572,-0.354388
294,3373735517,-0.436282,-0.181087,0.134923,0.871014,1.173259,0.346739,-0.708581
295,3373768851,-0.461775,-0.205945,0.100747,0.856857,0.012802,0.801971,-0.854019
296,3373802185,-0.488183,-0.228527,0.074545,0.838988,0.292241,0.272934,-2.058212
297,3373835519,-0.518473,-0.243899,0.049674,0.818068,0.134907,0.728564,-3.598584
298,3373868853,-0.547502,-0.254780,0.031834,0.796442,-0.684590,1.330111,-1.690799
299,3373902187,-0.574289,-0.260711,0.016029,0.775867,1.356127,0.387109,-0.096744
300,3373935521,-0.600350,-0.260565,-0.002078,0.756099,0.584685,1.398137,-0.007073
301,3373968855,-0.621197,-0.264946,-0.011374,0.737423,0.100157,1.229674,-0.125125
302,3374002189,-0.638850,-0.272160,-0.015939,0.719409,0.596794,-0.054849,0.114303
303,3374035523,-0.653206,-0.281150,-0.018817,0.702799,0.942564,-0.784003,-0.519521
304,3374068857,-0.664646,-0.288709,-0.023430,0.688729,1.723036,-0.200199,-1.314894
305,3374102191,-0.675945,-0.290183,-0.029949,0.676756,0.044506,0.392513,-2.269003
306,3374135525,-0.681807,-0.294550,-0.027205,0.669061,0.285726,-1.308122,-2.231954
307,3374168859,-0.684979,-0.293433,-0.021408,0.666519,4.182551,-0.950821,-1.812518
308,3374202193,-0.690074,-0.273558,-0.026502,0.669527,4.287593,-1.156654,-3.991114
309,3374235527,-0.682149,-0.260798,-0.028520,0.682531,1.798388,-0.648831,-1.822378
310,3374268861,-0.664614,-0.260148,-0.019873,0.700157,2.601807,0.522649,-0.278223
311,3374302195,-0.642205,-0.258502,-0.010598,0.721555,3.003280,0.379082,-0.956466
312,3374335529,-0.615305,-0.254700,-0.005555,0.745990,0.393374,-0.264743,-0.806339
313,3374368863,-0.585654,-0.249251,0.002162,0.771287,0.775500,0.805583,-1.701367
314,3374402197,-0.558410,-0.232176,0.001343,0.796414,0.811260,0.113718,-1.760918
315,3374435531,-0.527327,-0.213645,0.007140,0.822336,-0.692106,0.433643,-2.173508
316,3374468865,-0.491761,-0.199147,0.027341,0.847212,-0.469749,0.554179,-1.185485
317,3374502199,-0.455445,-0.183318,0.053634,0.869536,-0.550019,0.539195,-0.836600
318,3374535533,-0.423416,-0.162810,0.077449,0.887816,-0.298868,0.075477,-1.201957
319,3374568867,-0.393059,-0.143515,0.101009,0.902613,-0.396784,-1.701446,1.307560
320,3374602201,-0.360084,-0.129394,0.128661,0.914903,0.831431,-2.424422,2.144254
321,3374635535,-0.323765,-0.116592,0.150051,0.926861,0.728439,-2.358264,2.348608
322,3374668869,-0.284767,-0.103209,0.165976,0.938463,0.018080,-2.125479,1.735105
323,3374702203,-0.245140,-0.088646,0.175905,0.949268,-1.252127,-2.719952,2.042356
324,3374735537,-0.204369,-0.075757,0.182210,0.958800,-1.478918,-2.271895,1.390997
325,3374768871,-0.163575,-0.064399,0.188094,0.966292,-1.575432,-1.522942,-0.035108
326,3374802205,-0.124855,-0.051776,0.197482,0.970946,-1.229081,-1.001816,-2.290855
327,3374835539,-0.092681,-0.032695,0.200101,0.974836,-1.028204,-1.071595,-4.074183
328,3374868873,-0.067896,-0.005058,0.194911,0.978457,-1.817579,0.265441,-5.284430
329,3374902207,-0.047637,0.031775,0.192948,0.979539,-2.752643,0.203165,-4.603433
330,3374935541,-0.031484,0.078061,0.184491,0.979226,-4.007616,-0.758517,-1.931146
331,3374968875,-0.018160,0.129732,0.144896,0.980739,-4.652951,0.600761,1.064216
332,3375002209,-0.007901,0.181809,0.100402,0.978165,-4.817771,3.061090,4.053723
333,3375035543,-0.005751,0.221963,0.093481,0.970549,-5.085981,4.284942,8.953354
334,3375068877,-0.017268,0.240342,0.114935,0.963707,-4.266438,5.867177,3.231592
335,3375102211,-0.031099,0.244967,0.129497,0.960343,-4.710217,5.793413,2.229442
336,3375135545,-0.050113,0.235229,0.166405,0.956279,-3.208209,1.339093,4.227927
337,3375168879,-0.074132,0.214032,0.197562,0.953765,-0.795931,1.379952,6.089842
338,3375202213,-0.103463,0.184050,0.223948,0.951459,-2.106605,1.231192,3.739986
339,3375235547,-0.137175,0.146158,0.250162,0.947230,-2.131939,-0.495454,0.780431
340,3375268881,-0.175278,0.103090,0.271446,0.940729,-0.390951,-1.101331,1.988574
341,3375302215,-0.218324,0.056621,0.284219,0.931854,-1.183042,-0.510344,0.984130
342,3375335549,-0.263993,0.007351,0.291941,0.919254,-1.564518,-2.507245,0.518673
343,3375368883,-0.310124,-0.042553,0.289068,0.904686,0.152052,-2.259152,1.953582
344,3375402217,-0.357245,-0.092066,0.276612,0.887350,0.337959,-1.596033,-0.025463
345,3375435551,-0.402272,-0.138925,0.256440,0.867825,0.069973,-2.009818,-0.995516
346,3375468885,-0.445275,-0.181985,0.227565,0.846658,1.208988,-1.380932,-0.871485
347,3375502219,-0.487282,-0.219153,0.193470,0.822862,2.045270,-0.474970,-0.624387
348,3375535553,-0.525505,-0.252213,0.161520,0.796335,1.683150,-0.630632,-0.822140
349,3375568887,-0.559160,-0.279400,0.128551,0.769906,2.709705,-0.015672,-0.566912
350,3375602221,-0.588808,-0.299987,0.095452,0.744451,1.502939,0.751103,-0.393053
351,3375635555,-0.615267,-0.314801,0.065345,0.719779,1.731089,0.813816,-0.668140
352,3375668889,-0.639491,-0.323286,0.038546,0.696460,2.023737,2.006562,-1.067670
353,3375702223,-0.660772,-0.328301,0.013490,0.674848,0.760914,1.040879,0.308899
354,3375735557,-0.677816,-0.332690,-0.008892,0.655598,0.531697,1.206276,0.677550
355,3375768891,-0.690869,-0.340356,-0.025377,0.637353,0.550791,2.862838,-0.400036
356,3375802225,-0.705833,-0.343038,-0.044009,0.618218,-0.208490,2.243562,-0.529373
357,3375835559,-0.724806,-0.336520,-0.064493,0.597709,-0.578837,2.509612,-2.591681
358,3375868893,-0.747218,-0.322299,-0.080207,0.575639,-1.806122,0.250062,-3.122325
359,3375902227,-0.766999,-0.310747,-0.081930,0.555375,-0.959537,-0.996595,-3.156355
360,3375935561,-0.782967,-0.305211,-0.069117,0.537621,-1.620048,-1.719207,-3.144119
361,3375968895,-0.793021,-0.309795,-0.039362,0.523068,1.277742,-1.726952,-1.972348
362,3376002229,-0.801024,-0.315225,-0.002809,0.508911,1.845032,-0.400520,-5.274970
363,3376035563,-0.803694,-0.313097,0.026406,0.505326,10.189099,0.348495,-3.476117
364,3376068897,-0.803197,-0.300134,0.035559,0.513357,3.373039,-1.067769,0.104321
365,3376102231,-0.791411,-0.305806,0.049220,0.527003,1.189777,-1.274547,0.883708
366,3376135565,-0.773800,-0.317861,0.063501,0.544215,1.921692,2.216671,0.006712
367,3376168899,-0.758671,-0.319155,0.073109,0.563222,1.137629,2.429051,-0.252301
368,3376202233,-0.737914,-0.323570,0.091769,0.585123,1.462654,1.667822,-0.223670
369,3376235567,-0.714848,-0.322691,0.114041,0.609805,1.433626,3.426236,-0.520931
370,3376268901,-0.690864,-0.312861,0.138317,0.636944,1.800898,1.755835,0.465887
371,3376302235,-0.663788,-0.297290,0.164911,0.666193,0.394288,0.400697,0.919543
372,3376335569,-0.634743,-0.276152,0.189150,0.696469,-0.212645,1.044466,0.237568
373,3376368903,-0.601641,-0.255825,0.216538,0.725050,-0.195933,0.449007,0.933269
374,3376402237,-0.569650,-0.229758,0.236155,0.752957,-0.213257,0.049274,1.134481
375,3376435571,-0.536814,-0.203056,0.251200,0.779424,-0.100666,0.097647,0.285193
376,3376468905,-0.501207,-0.179790,0.267958,0.802913,1.117132,-1.831550,1.416736
377,3376502239,-0.465927,-0.152690,0.275076,0.827004,0.769295,-2.981611,1.077158
378,3376535573,-0.426705,-0.127280,0.280470,0.850331,0.443311,-2.820979,0.526161
379,3376568907,-0.384026,-0.103858,0.287580,0.871229,1.135705,-3.437840,0.088950
380,3376602241,-0.340620,-0.078529,0.286188,0.892139,-0.244633,-2.507724,0.365317
381,3376635575,-0.298137,-0.053953,0.281325,0.910529,-0.892089,-1.409436,-0.789268
382,3376668909,-0.258947,-0.031517,0.277360,0.924678,-1.345278,-0.978457,-0.975922
383,3376702243,-0.224657,-0.008040,0.270845,0.936009,-1.607936,-0.270567,-1.091887
384,3376735577,-0.195445,0.018919,0.259631,0.945536,-2.118343,0.009238,-1.390508
385,3376768911,-0.170881,0.049791,0.245848,0.952829,-2.825447,-0.002858,-1.565056
386,3376802245,-0.150727,0.084649,0.225105,0.958879,-3.839077,0.037358,-1.045227
387,3376835579,-0.135730,0.122920,0.200736,0.962381,-4.364981,1.361586,-0.654217
388,3376868913,-0.127433,0.163242,0.178826,0.961841,-4.356812,1.136639,2.249742
389,3376902247,-0.127975,0.201891,0.148080,0.959656,-4.017629,0.986205,4.293188
390,3376935581,-0.135045,0.225325,0.115307,0.957967,-5.241593,2.019117,2.343162
391,3376968915,-0.147370,0.231551,0.103394,0.956023,-2.932356,4.583592,2.189514
392,3377002249,-0.167688,0.228447,0.111013,0.952561,-1.477619,0.411063,2.355234
393,3377035583,-0.191852,0.218865,0.112185,0.950111,-0.274975,2.859290,4.712776
394,3377068917,-0.219017,0.199578,0.121975,0.947273,0.336670,1.265957,4.620233
395,3377102251,-0.246392,0.175647,0.126002,0.944758,0.924879,1.117264,3.294702
396,3377135585,-0.272917,0.149948,0.124327,0.942114,0.721688,1.143039,2.196263
397,3377168919,-0.297375,0.121908,0.120928,0.939195,0.791447,0.358214,0.873856
398,3377202253,-0.318941,0.094678,0.112073,0.936353,0.949698,0.771764,0.511938
399,3377235587,-0.338234,0.069235,0.099442,0.933231,0.399195,0.232458,0.139186
400,3377268921,-0.355524,0.045946,0.085690,0.929598,1.141175,-0.059588,-1.457119
401,3377302255,-0.372027,0.026835,0.071047,0.925112,1.234084,-0.061949,-1.516888
402,3377335589,-0.388312,0.011550,0.059068,0.919563,1.077422,0.706399,-1.557988
403,3377368923,-0.403672,-0.000484,0.052824,0.913380,1.788368,1.112317,-1.707555
404,3377402257,-0.419439,-0.005907,0.044083,0.906696,1.729333,0.715223,-1.417950
405,3377435591,-0.435381,-0.004643,0.030427,0.899723,1.374956,1.362773,-0.769320
406,3377468925,-0.451460,0.000753,0.016525,0.892141,0.614381,1.261793,-1.034450
407,3377502259,-0.468423,0.006936,0.009272,0.883431,0.448969,0.870721,-2.006123
408,3377535593,-0.486928,0.014129,0.004386,0.873319,-0.299778,-0.166725,-1.022053
409,3377568927,-0.505478,0.023022,-0.002389,0.862531,-0.534639,-0.381883,0.185340
410,3377602261,-0.522950,0.034333,-0.013863,0.851561,-0.834658,0.285775,0.337389
411,3377635595,-0.539291,0.047591,-0.026479,0.840359,-1.054217,0.626523,-0.022758
412,3377668929,-0.555199,0.061786,-0.038772,0.828515,-1.669861,-0.041967,-0.280358
413,3377702263,-0.569246,0.075499,-0.048011,0.817287,0.182872,-0.665180,-1.882183
414,3377735597,-0.582520,0.093721,-0.060885,0.805099,-1.123079,0.406935,-0.072136
415,3377768931,-0.594550,0.113577,-0.074221,0.792532,0.163399,-0.362595,-0.161325
416,3377802265,-0.606596,0.138255,-0.091396,0.777546,-1.133208,-0.195645,-0.370044
417,3377835599,-0.619128,0.164641,-0.106867,0.760367,-1.173436,-1.381778,1.517684
418,3377868933,-0.633083,0.186226,-0.108335,0.743501,0.044045,-3.699809,-1.348661
419,3377902267,-0.639196,0.206778,-0.110110,0.732497,0.425419,-5.962028,-3.660308
420,3377935601,-0.634475,0.222077,-0.122573,0.730139,1.813783,-5.678863,2.884013
421,3377968935,-0.630211,0.214760,-0.114340,0.737322,2.032306,-3.941985,-0.667921
422,3378002269,-0.623293,0.211984,-0.110613,0.744539,-0.698759,-1.028240,-1.192052
423,3378035603,-0.616294,0.206610,-0.106656,0.752411,-1.122867,-1.379405,1.652392
424,3378068937,-0.611870,0.188379,-0.092359,0.762629,-0.336646,-2.061497,-0.739740
425,3378102271,-0.606293,0.169265,-0.076343,0.773263,-0.000776,-0.025599,-1.088643
426,3378135605,-0.598324,0.151243,-0.058422,0.784682,1.128756,-1.899637,-1.188334
427,3378168939,-0.586618,0.128658,-0.035987,0.798771,1.136671,-2.233860,-2.814961
428,3378202273,-0.571623,0.109721,-0.016646,0.812980,2.101645,1.543582,-1.731398
429,3378235607,-0.555674,0.098333,0.002997,0.825562,0.318965,1.161832,-1.142162
430,3378268941,-0.536669,0.082664,0.033189,0.839080,0.953773,0.288468,-1.746571
431,3378302275,-0.515741,0.072330,0.059734,0.851596,2.107961,2.524661,-0.632596
432,3378335609,-0.494731,0.067024,0.090014,0.861772,0.505724,1.918538,0.952550
433,3378368943,-0.471232,0.059976,0.126155,0.870881,1.449215,0.655677,1.008016
434,3378402277,-0.445770,0.055466,0.156016,0.879702,1.558898,1.469824,2.402404
435,3378435611,-0.417315,0.049434,0.186817,0.887980,2.190367,0.348009,3.051647
436,3378468945,-0.384618,0.045869,0.205997,0.898630,1.707621,-0.236464,3.149537
437,3378502279,-0.349027,0.041446,0.219780,0.910035,0.154893,0.271743,2.026798
438,3378535613,-0.311702,0.035267,0.232186,0.920702,-0.282476,-0.901288,1.417480
439,3378568947,-0.273984,0.031338,0.235285,0.931985,-1.199061,-1.013201,0.205596
440,3378602281,-0.236541,0.029885,0.236371,0.941960,-1.753837,-0.637053,-0.608194
441,3378635615,-0.200820,0.032653,0.243237,0.948391,-1.716960,-0.096858,-1.959386
442,3378668949,-0.168101,0.042100,0.253394,0.951717,-0.973867,0.276779,-2.400069
443,3378702283,-0.141182,0.061352,0.258344,0.953712,-1.475774,0.253965,-2.635549
444,3378735617,-0.122510,0.092128,0.248199,0.956507,-2.577330,0.650855,-2.290344
445,3378768951,-0.113145,0.132415,0.222570,0.959235,-4.004757,1.391771,-1.302874
446,3378802285,-0.114473,0.175071,0.189913,0.959262,-6.482700,0.177111,-1.010239
447,3378835619,-0.124596,0.208339,0.164950,0.955964,-6.580386,2.209418,1.080582
448,3378868953,-0.143711,0.229937,0.165089,0.948276,-7.883399,4.241088,1.105951
449,3378902287,-0.175349,0.235575,0.178868,0.939025,-7.755116,-1.566479,2.309507
450,3378935621,-0.217575,0.223269,0.211234,0.926389,-6.757648,-0.999907,3.074667
451,3378968955,-0.270034,0.194589,0.254845,0.907896,-3.538865,-3.700138,3.869120
452,3379002289,-0.330926,0.156806,0.297069,0.881847,-2.560859,-2.940853,2.758143
453,3379035623,-0.396792,0.110667,0.338762,0.845904,-0.176028,-4.140316,0.772238
454,3379068957,-0.464633,0.061342,0.370720,0.801826,3.179239,-4.098666,0.768775
455,3379102291,-0.534167,0.012001,0.388635,0.750659,1.389917,-0.774586,-0.749311
456,3379135625,-0.595173,-0.040547,0.402447,0.694382,4.592630,0.411743,1.735841
457,3379168959,-0.645090,-0.087739,0.405532,0.641645,5.843464,1.298486,0.678140
458,3379202293,-0.684079,-0.126602,0.397663,0.598228,6.307548,2.696735,0.514188
459,3379235627,-0.714436,-0.157544,0.381814,0.564787,4.087255,2.905402,0.845038
460,3379268961,-0.736160,-0.184937,0.363683,0.540005,4.145778,3.277948,0.305134
461,3379302295,-0.751133,-0.207251,0.342774,0.524745,1.903353,2.702782,0.668263
462,3379335629,-0.763107,-0.223216,0.317851,0.516544,-0.097924,2.026373,1.234843
463,3379368963,-0.772253,-0.236187,0.294487,0.511001,-0.279541,2.243626,-0.438905
464,3379402297,-0.776934,-0.251866,0.278395,0.505408,-1.258731,1.932223,-1.720853
465,3379435631,-0.777122,-0.271032,0.270137,0.499653,-1.716258,1.902697,-2.711726
466,3379468965,-0.772017,-0.296196,0.274007,0.491104,-1.862379,1.765280,-3.917732
467,3379502299,-0.760833,-0.327351,0.293303,0.477443,-1.378274,1.155279,-4.784515
468,3379535633,-0.746003,-0.356233,0.326094,0.458524,-1.088845,0.286597,-5.517329
469,3379568967,-0.728731,-0.377686,0.370538,0.434754,1.532762,-0.709518,-6.590235
470,3379602301,-0.721657,-0.368890,0.408874,0.419473,7.734975,-0.147456,0.118117
471,3379635635,-0.731811,-0.320290,0.422580,0.428132,7.449950,-1.310312,5.766799
472,3379668969,-0.736586,-0.274421,0.423355,0.450454,3.939774,-4.745735,4.108921
473,3379702303,-0.719782,-0.276949,0.431158,0.468316,2.683386,-2.051222,4.450379
474,3379735637,-0.699394,-0.285401,0.437196,0.488118,4.711729,1.046706,3.407729
475,3379768971,-0.680297,-0.282474,0.438003,0.515327,1.392661,0.761868,-0.760073
476,3379802305,-0.652219,-0.280940,0.449960,0.541501,1.542562,2.115741,-0.723337
477,3379835639,-0.620632,-0.264731,0.467142,0.571417,0.671523,3.694783,-0.534386
478,3379868973,-0.589310,-0.231367,0.478248,0.608659,1.615317,3.172934,0.158792
479,3379902307,-0.556570,-0.193033,0.484581,0.646648,0.093181,2.204846,1.151530
480,3379935641,-0.522442,-0.153845,0.484491,0.684587,-0.130093,1.092905,1.758460
481,3379968975,-0.484991,-0.120596,0.479907,0.721064,0.029747,-0.469385,2.461797
482,3380002309,-0.445587,-0.091917,0.465271,0.759296,-0.105373,-1.228332,4.280179
483,3380035643,-0.404382,-0.068372,0.441843,0.797859,-0.626573,-1.505237,2.268938
484,3380068977,-0.362441,-0.051407,0.415125,0.832869,-0.550092,-2.121699,1.072356
485,3380102311,-0.321216,-0.037073,0.387858,0.863143,-0.704886,-1.882367,-0.773870
486,3380135645,-0.282018,-0.019748,0.356336,0.890565,-0.526604,-2.335953,-3.131960
487,3380168979,-0.245145,0.001958,0.323473,0.913931,-0.792611,-1.451683,-4.645431
488,3380202313,-0.213443,0.032629,0.289512,0.932504,-1.298050,-1.665046,-4.628424
489,3380235647,-0.189803,0.074642,0.244737,0.947899,-2.458048,-1.128333,-3.827537
490,3380268981,-0.175469,0.125972,0.189058,0.957916,-3.400001,-1.540679,-0.607390
491,3380302315,-0.172346,0.175895,0.127079,0.960840,-6.162959,0.082144,1.846850
492,3380335649,-0.175876,0.204061,0.086749,0.959117,-8.765367,6.739907,3.219414
493,3380368983,-0.185769,0.203067,0.102855,0.955865,-7.990778,5.553359,4.611255
494,3380402317,-0.207037,0.182035,0.139355,0.951096,-2.553657,-1.221018,5.280941
495,3380435651,-0.237054,0.151276,0.155398,0.946983,-2.123907,1.252047,7.755039
496,3380468985,-0.270092,0.109229,0.161097,0.942959,-1.764007,1.472336,6.830654
497,3380502319,-0.302106,0.060276,0.156150,0.938467,-1.092049,-1.170485,4.752765
498,3380535653,-0.330552,0.008752,0.137699,0.933650,-0.642788,-2.006894,2.954470
499,3380568987,-0.353887,-0.044444,0.112972,0.927378,-0.225356,-1.814110,1.369551
500,3380602321,-0.374189,-0.093079,0.078642,0.919314,0.653122,-2.160298,-0.658406
501,3380635655,-0.395857,-0.131542,0.033322,0.908233,1.166069,-0.741070,-2.202453
502,3380668989,-0.418849,-0.160872,-0.012707,0.893604,0.289346,-0.016445,-2.525371
503,3380702323,-0.442102,-0.182230,-0.052378,0.876698,1.189947,1.005483,-2.805344
504,3380735657,-0.468346,-0.192832,-0.089102,0.857632,1.757827,1.452204,-3.127230
505,3380768991,-0.495082,-0.195719,-0.116874,0.838411,0.912548,2.491675,-3.117266
506,3380802325,-0.519336,-0.196317,-0.130553,0.821407,1.300194,1.172823,-2.928633
507,3380835659,-0.544575,-0.190874,-0.141377,0.804377,0.986190,1.431270,-2.219610
508,3380868993,-0.569140,-0.182348,-0.147225,0.788136,0.631722,1.368101,-3.402371
509,3380902327,-0.593193,-0.169006,-0.149222,0.772849,0.429535,0.125364,-3.097264
510,3380935661,-0.612768,-0.155968,-0.143115,0.761388,1.131119,-1.099292,-2.636927
511,3380968995,-0.626976,-0.139974,-0.135078,0.754365,1.499570,-1.193391,-2.224251
512,3381002329,-0.637310,-0.119865,-0.127402,0.750494,1.137461,-0.499835,-1.677583
513,3381035663,-0.642974,-0.107584,-0.109363,0.750369,0.870143,-0.606413,-1.957285
514,3381068997,-0.643737,-0.103897,-0.087708,0.753074,2.685622,-3.147817,-0.976729
515,3381102331,-0.637616,-0.106457,-0.071848,0.759575,2.128596,-1.976047,-0.343664
516,3381135665,-0.619449,-0.124872,-0.047392,0.773595,3.967016,-2.306382,-0.129763
517,3381168999,-0.596480,-0.136742,-0.042871,0.789734,6.993211,-4.325843,0.369196
518,3381202333,-0.567537,-0.144800,-0.050421,0.808948,1.511995,-1.689373,-0.708422
519,3381235667,-0.527413,-0.159021,-0.042543,0.833512,3.704493,-1.706780,-3.042341
520,3381269001,-0.483004,-0.167972,-0.031335,0.858787,0.501150,-1.900861,-3.859404
521,3381302335,-0.433809,-0.172291,-0.013080,0.884284,0.829269,0.236342,-4.112674
522,3381335669,-0.387907,-0.163190,0.003549,0.907132,0.279324,-0.346150,-3.113707
523,3381369003,-0.346517,-0.144927,0.021755,0.926528,-2.044768,-0.114999,-2.114139
524,3381402337,-0.307146,-0.123339,0.045295,0.942551,-0.151385,0.274722,-0.403306
525,3381435671,-0.271428,-0.098129,0.064593,0.955264,-1.431793,-2.165881,1.770782
526,3381469005,-0.238822,-0.074826,0.080409,0.964833,-1.850606,-0.049705,1.728519
527,3381502339,-0.204370,-0.055794,0.103974,0.971758,-1.458118,-1.327282,2.275362
528,3381535673,-0.169939,-0.036428,0.116173,0.977907,-2.608342,-0.332417,1.697085
529,3381569007,-0.136574,-0.013407,0.112702,0.984109,-2.548404,0.998952,0.758307
530,3381602341,-0.109988,0.016199,0.098910,0.988869,-2.321477,0.753133,-1.327363
531,3381635675,-0.095192,0.051071,0.076912,0.991171,-3.323747,4.466227,-1.355745
532,3381669009,-0.091240,0.089359,0.065160,0.989671,-4.186527,4.425485,0.718557
533,3381702343,-0.098530,0.127628,0.059650,0.985114,-4.775486,3.182087,2.467373
534,3381735677,-0.115867,0.160786,0.057266,0.978493,-4.606208,1.938378,2.493663
535,3381769011,-0.140810,0.186126,0.071948,0.969720,-4.692495,0.169395,1.954541
536,3381802345,-0.172371,0.202971,0.075463,0.960937,-3.903364,-2.291651,5.376454
537,3381835679,-0.212284,0.205304,0.081773,0.951895,-5.921045,2.330216,2.034665
538,3381869013,-0.260371,0.188153,0.111885,0.940368,-5.089869,-2.501107,2.316371
539,3381902347,-0.315325,0.152161,0.146820,0.925130,-2.496785,-2.760213,4.666941
540,3381935681,-0.376139,0.101939,0.182947,0.902586,-1.045294,-2.418496,3.517200
541,3381969015,-0.435422,0.044440,0.207646,0.874826,2.062809,-3.375143,2.345064
542,3382002349,-0.490606,-0.013633,0.216329,0.843994,1.372824,-1.237374,1.932978
543,3382035683,-0.539178,-0.073685,0.221386,0.809228,2.494261,-0.913392,0.076117
544,3382069017,-0.580975,-0.129606,0.216696,0.773768,2.905950,-0.090062,-0.464470
545,3382102351,-0.616557,-0.178545,0.204273,0.739091,2.071995,0.499186,-1.749968
546,3382135685,-0.646587,-0.220367,0.189770,0.705234,2.295199,2.785967,-1.368348
547,3382169019,-0.673125,-0.250554,0.172182,0.674153,1.330493,3.087638,-0.531437
548,3382202353,-0.693530,-0.271925,0.155997,0.648647,2.038332,3.748102,-0.762485
549,3382235687,-0.709309,-0.284629,0.139525,0.629606,2.905772,3.220712,-0.060731
550,3382269021,-0.720991,-0.289528,0.123430,0.617345,1.047315,2.642433,-0.172591
551,3382302355,-0.728782,-0.291432,0.114019,0.609055,1.297119,2.951205,-1.727476
552,3382335689,-0.736059,-0.289139,0.110813,0.601948,-0.122518,1.229634,-1.594893
553,3382369023,-0.739557,-0.291429,0.116738,0.595401,-0.112229,-0.635531,-0.973089
554,3382402357,-0.741062,-0.296054,0.125606,0.589412,0.845847,-0.695615,-1.665165
555,3382435691,-0.744371,-0.297821,0.130141,0.583337,-0.140914,-1.737780,-0.403440
556,3382469025,-0.741734,-0.311131,0.141463,0.577080,1.527770,-2.008971,-0.735442
557,3382502359,-0.737125,-0.324586,0.150378,0.573308,4.994469,-2.221099,-0.617604
558,3382535693,-0.732120,-0.331660,0.147232,0.576480,2.677928,-3.282610,1.212811
559,3382569027,-0.718525,-0.348407,0.149498,0.583085,2.099851,-2.054349,-0.319715
560,3382602361,-0.698715,-0.366234,0.155084,0.594663,3.882271,-0.520197,-1.082133
561,3382635695,-0.681053,-0.368585,0.153814,0.613724,3.835891,0.184930,-0.482575
562,3382669029,-0.660380,-0.365640,0.155747,0.637145,0.386334,0.424516,-1.757473
563,3382702363,-0.625887,-0.377792,0.177488,0.658818,1.606392,3.027789,-0.844847
564,3382735697,-0.591206,-0.381862,0.200835,0.681415,1.966641,3.075373,0.104388
565,3382769031,-0.556087,-0.373469,0.221077,0.708814,2.119407,2.572027,-0.322375
566,3382802365,-0.516645,-0.357759,0.240550,0.739748,2.551712,1.356722,1.724312
567,3382835699,-0.476058,-0.334759,0.257511,0.771361,0.814390,0.918010,0.048023
568,3382869033,-0.435360,-0.305250,0.264172,0.804675,-0.394666,-0.144109,0.232567
569,3382902367,-0.391194,-0.274196,0.270010,0.835992,0.643453,-1.269221,0.528606
570,3382935701,-0.347893,-0.241045,0.270862,0.864584,0.673877,-1.731102,-0.694339
571,3382969035,-0.303031,-0.209786,0.269119,0.889799,-0.363620,-1.044634,-0.213652
572,3383002369,-0.259291,-0.178326,0.266129,0.911124,-0.050880,-2.176250,-0.421576
573,3383035703,-0.222459,-0.143690,0.250463,0.931202,-1.075140,-1.496812,-1.381001
574,3383069037,-0.192001,-0.104792,0.229036,0.948526,-1.268187,-0.732228,-3.337417
575,3383102371,-0.168957,-0.056555,0.199617,0.963542,-2.259901,-0.501646,-4.351717
576,3383135705,-0.153365,0.004788,0.164755,0.974329,-3.617244,-0.336565,-4.214742
577,3383169039,-0.146002,0.076957,0.115014,0.979560,-5.120722,-1.561084,-1.471841
578,3383202373,-0.144863,0.146753,0.053372,0.977054,-7.817685,-0.146245,1.684341
579,3383235707,-0.149455,0.194993,0.028622,0.968930,-7.744828,5.724758,2.803359
580,3383269041,-0.168105,0.221005,0.045027,0.959622,-7.245080,1.888402,2.313015
581,3383302375,-0.197183,0.229706,0.066486,0.950756,-5.047384,1.617697,4.943605
582,3383335709,-0.237558,0.221114,0.094411,0.941151,-2.138278,0.980657,7.522842
583,3383369043,-0.283580,0.196757,0.126779,0.929947,-2.400965,1.359849,5.821323
584,3383402377,-0.331357,0.159571,0.163234,0.915477,-1.586464,-1.237692,1.282551
585,3383435711,-0.376326,0.119504,0.189785,0.898935,1.073617,-1.513472,1.426020
586,3383469045,-0.417891,0.082030,0.203242,0.881666,0.776007,-0.626973,1.236712
587,3383502379,-0.455302,0.043903,0.217903,0.862146,1.671861,-0.220136,-0.825344
588,3383535713,-0.487459,0.009858,0.228509,0.842660,2.619473,-0.981858,-0.662228
589,3383569047,-0.513879,-0.018454,0.233589,0.825244,1.962977,-0.000705,-0.836395
590,3383602381,-0.534740,-0.041281,0.235341,0.810536,2.416065,0.314703,-1.023950
591,3383635715,-0.552141,-0.056666,0.232049,0.798804,2.132346,0.911087,-1.022935
592,3383669049,-0.568941,-0.064468,0.223715,0.788737,1.005701,1.098201,-0.645924
593,3383702383,-0.586647,-0.065547,0.211638,0.778949,-0.404107,1.373716,-1.491141
594,3383735717,-0.604016,-0.062154,0.201483,0.768577,-1.234399,1.127438,-2.171450
595,3383769051,-0.619582,-0.055988,0.197256,0.757680,-0.526885,0.156802,-1.318370
596,3383802385,-0.632192,-0.045144,0.196884,0.748021,-0.078125,-0.683593,-1.048027
597,3383835719,-0.640489,-0.032750,0.200252,0.740678,1.190828,-1.335313,-2.247779
598,3383869053,-0.644363,-0.016781,0.201166,0.737598,2.384141,-1.882381,-1.631615
599,3383902387,-0.644072,-0.001143,0.201630,0.737915,1.676360,-1.265559,0.993206
600,3383935721,-0.638767,0.000973,0.216499,0.738314,1.574755,-0.718740,1.302179
601,3383969055,-0.626980,-0.007164,0.244273,0.739716,6.182400,-1.935888,-0.729679
602,3384002389,-0.609772,-0.002395,0.252516,0.751274,5.084961,-2.067307,0.608495
603,3384035723,-0.583777,-0.001849,0.260967,0.768831,2.722342,-1.605927,0.785135
604,3384069057,-0.549413,-0.010372,0.283673,0.785857,2.638318,-2.138765,-0.186492
605,3384102391,-0.510734,-0.010756,0.301042,0.805241,2.202633,-2.212495,0.809738
606,3384135725,-0.471341,0.002134,0.301739,0.828729,-1.031388,-1.060158,0.051434
607,3384169059,-0.429030,0.012065,0.308555,0.848873,-1.580884,-0.648790,0.239619
608,3384202393,-0.386007,0.020234,0.318912,0.865383,-1.408979,-0.700839,1.708331
609,3384235727,-0.343175,0.031873,0.318459,0.883065,-1.967737,-0.618146,1.651314
610,3384269061,-0.298381,0.042404,0.312393,0.900881,-2.239359,-0.466574,1.252711
611,3384302395,-0.252997,0.051170,0.305246,0.916626,-2.331907,-1.051176,1.318248
612,3384335729,-0.209719,0.058883,0.294489,0.930501,-2.615164,0.023065,-0.128141
613,3384369063,-0.169236,0.064975,0.284758,0.941305,-2.580531,0.215252,-0.719449
614,3384402397,-0.135259,0.072596,0.270578,0.950382,-2.322966,-0.612230,-2.064510
615,3384435731,-0.109484,0.081068,0.247779,0.959193,-2.625241,1.622773,-3.477320
616,3384469065,-0.091724,0.092479,0.229201,0.964627,-2.792552,3.309875,-3.864438
617,3384502399,-0.083977,0.111625,0.217182,0.966087,-2.963291,3.291953,-3.396019
618,3384535733,-0.088435,0.138973,0.203674,0.965084,-3.940854,2.419552,-2.754391
619,3384569067,-0.105487,0.168090,0.198670,0.959767,-4.856247,2.613539,-0.776093
620,3384602401,-0.132857,0.191413,0.205452,0.950528,-4.325732,1.383816,1.789233
621,3384635735,-0.169987,0.204995,0.222451,0.937871,-5.583444,1.587261,0.975196
622,3384669069,-0.210910,0.206825,0.240898,0.924507,-4.228675,-2.260855,2.778466
623,3384702403,-0.256402,0.193954,0.270278,0.907521,-3.204357,-0.891043,3.923336
624,3384735737,-0.307420,0.167224,0.312212,0.883209,-1.313241,-1.851647,3.267308
625,3384769071,-0.359880,0.133970,0.350447,0.854242,0.119682,-2.989218,1.206225
626,3384802405,-0.410122,0.097631,0.383249,0.821823,1.325923,-2.254434,0.749637
627,3384835739,-0.457303,0.060382,0.408712,0.787520,2.016497,-2.056509,0.478309
628,3384869073,-0.500565,0.023869,0.426958,0.752712,2.312238,-2.052150,-0.389329
629,3384902407,-0.539110,-0.017622,0.448368,0.712755,2.476082,-0.804746,-1.001561
630,3384935741,-0.572546,-0.064077,0.471303,0.667805,3.040018,-0.031030,-0.256239
631,3384969075,-0.599747,-0.111281,0.490586,0.622294,3.573354,0.535466,-1.836360
632,3385002409,-0.619114,-0.165326,0.514189,0.570070,0.895387,1.256432,-0.386977
633,3385035743,-0.629581,-0.229587,0.542461,0.506614,-2.167105,1.712309,-0.097878
634,3385069077,-0.628284,-0.300325,0.569597,0.436610,1.384900,2.860808,1.579189
635,3385102411,-0.628951,-0.345249,0.576164,0.391490,1.164093,3.481904,0.604291
636,3385135745,-0.633156,-0.369310,0.568276,0.373886,-0.433091,3.495291,1.404645
637,3385169079,-0.628546,-0.399855,0.562787,0.358219,-1.113351,2.505757,-0.528744
638,3385202413,-0.615139,-0.439102,0.561751,0.336502,-0.463807,2.148601,-0.050427
639,3385235747,-0.604453,-0.468529,0.558956,0.320452,0.012991,1.617256,-0.298119
640,3385269081,-0.597408,-0.485751,0.556455,0.312269,1.958191,1.504462,1.093458
641,3385302415,-0.598427,-0.479311,0.555171,0.322391,5.505233,1.304601,2.602952
642,3385335749,-0.600039,-0.457172,0.556373,0.348424,5.075211,-0.548536,1.528784
643,3385369083,-0.595296,-0.430488,0.560792,0.381865,4.877484,-0.883740,-0.912089
644,3385402417,-0.585880,-0.400039,0.565305,0.420889,5.853694,-0.072730,0.366129
645,3385435751,-0.572544,-0.365195,0.570262,0.462204,4.847522,-0.403005,-0.888318
646,3385469085,-0.554758,-0.327845,0.573849,0.505434,2.160558,-0.138891,-0.173093
647,3385502419,-0.532013,-0.289401,0.574897,0.550189,0.508378,0.397345,-0.864635
648,3385535753,-0.504487,-0.254117,0.574957,0.591901,0.695046,0.511202,0.406923
649,3385569087,-0.476412,-0.216987,0.568889,0.634286,-0.401837,0.449740,0.687987
650,3385602421,-0.446119,-0.180753,0.558435,0.675619,-0.030415,-0.691076,1.501193
651,3385635755,-0.414148,-0.146022,0.542018,0.716506,-0.344145,-1.405445,1.728600
652,3385669089,-0.379637,-0.114287,0.521531,0.755529,-0.433081,-2.259511,2.013124
653,3385702423,-0.343131,-0.084515,0.494488,0.794106,-1.209332,-2.368130,1.066797
654,3385735757,-0.304893,-0.057679,0.464023,0.829699,-1.684988,-1.847860,0.088929
655,3385769091,-0.266953,-0.032232,0.431531,0.861094,-1.600351,-1.794837,-0.512823
656,3385802425,-0.232242,-0.004811,0.386474,0.892571,-1.715299,-1.813050,-1.341193
657,3385835759,-0.201084,0.022188,0.333312,0.920859,-2.266185,-0.218091,-3.053648
658,3385869093,-0.175378,0.047866,0.286346,0.940724,-2.447157,0.614284,-4.087204
659,3385902427,-0.159060,0.078126,0.234928,0.955724,-3.007473,0.371677,-3.451921
660,3385935761,-0.156392,0.115955,0.174079,0.965296,-3.302533,0.144212,-3.371369
661,3385969095,-0.167135,0.152372,0.124786,0.966065,-6.083214,2.515271,-0.215749
662,3386002429,-0.189256,0.169685,0.126308,0.958874,-7.830466,4.471326,-0.031338
663,3386035763,-0.219668,0.168789,0.153962,0.948449,-7.081932,-0.656866,4.581000
664,3386069097,-0.257012,0.146649,0.199146,0.934229,-6.783021,-0.214727,4.882786
665,3386102431,-0.299431,0.107094,0.246229,0.915559,-4.479850,-2.606857,3.628205
666,3386135765,-0.344536,0.059909,0.277200,0.894914,-2.933725,-2.728997,1.993101
667,3386169099,-0.389632,0.008214,0.299534,0.870864,-0.556027,-2.993578,1.747970
668,3386202433,-0.432590,-0.044884,0.314564,0.843745,0.322845,-3.193543,0.961820
669,3386235767,-0.472685,-0.095734,0.315634,0.817180,1.247701,-3.189282,0.863665
670,3386269101,-0.507741,-0.146627,0.312650,0.789274,2.720818,-1.606629,-0.173734
671,3386302435,-0.537526,-0.195884,0.306836,0.760626,3.468613,-1.555641,-0.800367
672,3386335769,-0.562717,-0.239476,0.294297,0.734435,3.453434,-0.893624,-0.093972
673,3386369103,-0.582760,-0.279093,0.280209,0.709919,2.909899,0.886231,-0.505563
674,3386402437,-0.600642,-0.312957,0.262805,0.687186,2.170362,2.189051,-1.153650
675,3386435771,-0.618985,-0.338160,0.239701,0.667123,0.882818,3.019423,-0.542286
676,3386469105,-0.637958,-0.352773,0.214051,0.650191,-0.273115,3.910148,-1.017025
677,3386502439,-0.652643,-0.364207,0.196916,0.634538,-1.131625,3.289868,-0.877135
678,3386535773,-0.660972,-0.377309,0.192441,0.619454,-0.632209,2.665778,-0.656905
679,3386569107,-0.668134,-0.384696,0.192050,0.607230,-0.142628,2.375970,-2.111606
680,3386602441,-0.670377,-0.393223,0.196167,0.597908,2.342258,0.853894,-0.399470
681,3386635775,-0.671899,-0.395719,0.197899,0.593968,1.929628,0.115655,0.366932
682,3386669109,-0.670005,-0.396764,0.200397,0.594573,2.463296,0.827735,-1.025816
683,3386702443,-0.665450,-0.398719,0.202505,0.597659,3.833878,-0.192645,0.216857
684,3386735777,-0.659630,-0.398019,0.200097,0.605339,3.873857,-0.676553,0.437668
685,3386769111,-0.649007,-0.397302,0.197206,0.618106,2.614975,0.055190,-0.421729
686,3386802445,-0.628933,-0.401926,0.202184,0.634053,3.307196,0.442102,-0.427496
687,3386835779,-0.604678,-0.402408,0.207980,0.655119,3.140262,0.939695,0.065376
688,3386869113,-0.575260,-0.398498,0.215423,0.681082,2.941719,1.143572,0.219711
689,3386902447,-0.542613,-0.387087,0.223015,0.711339,2.814644,1.355394,-0.102883
690,3386935781,-0.509865,-0.366198,0.225796,0.744954,3.273809,0.591107,-0.831141
691,3386969115,-0.474894,-0.338978,0.226408,0.779944,1.936930,0.079834,-1.019209
692,3387002449,-0.435748,-0.308471,0.229210,0.813902,1.469823,0.007928,-0.783115
693,3387035783,-0.395893,-0.273198,0.228880,0.846316,1.822014,-0.930220,-1.825468
694,3387069117,-0.353209,-0.238443,0.229992,0.874927,1.177951,-2.032558,-0.673165
695,3387102451,-0.308603,-0.205597,0.235681,0.898305,0.419202,-2.982603,0.627352
696,3387135785,-0.265034,-0.173331,0.234143,0.919182,-1.165980,-3.333389,0.657823
697,3387169119,-0.221915,-0.144171,0.227589,0.937111,-2.130783,-2.686188,0.081635
698,3387202453,-0.181482,-0.118243,0.219111,0.951356,-2.664665,-2.596115,-1.170672
699,3387235787,-0.145158,-0.095555,0.208104,0.962546,-3.209679,-1.677569,-1.131454
700,3387269121,-0.111621,-0.075665,0.203543,0.969737,-3.173753,-1.275303,-1.409781
701,3387302455,-0.082145,-0.056188,0.199944,0.974742,-2.943347,-1.293961,-1.682390
702,3387335789,-0.058395,-0.035289,0.189284,0.979551,-2.489333,-0.257328,-2.403735
703,3387369123,-0.039660,-0.010519,0.178072,0.983164,-2.140561,0.674976,-2.846684
704,3387402457,-0.025185,0.021161,0.170501,0.984810,-1.255925,-0.343034,-3.081997
705,3387435791,-0.014362,0.061666,0.143531,0.987620,-2.906308,-0.613105,-2.297476
706,3387469125,-0.006582,0.108420,0.091851,0.989833,-4.799895,1.295038,-1.081162
707,3387502459,-0.005208,0.153991,0.026336,0.987710,-5.198460,3.944145,5.424519
708,3387535793,-0.017959,0.184169,-0.019311,0.982543,-6.346954,4.607340,4.878612
709,3387569127,-0.036131,0.192675,-0.021232,0.980370,-4.997663,4.918625,7.420294
710,3387602461,-0.054748,0.189608,-0.007139,0.980309,-3.194288,2.013428,3.006309
711,3387635795,-0.077956,0.179883,-0.002832,0.980592,-3.960314,3.943221,4.494623
712,3387669129,-0.106776,0.155417,0.031356,0.981563,-3.488284,0.545885,4.639748
713,3387702463,-0.138510,0.122049,0.060819,0.980930,-0.625914,-1.209442,3.875370
714,3387735797,-0.173820,0.085637,0.077573,0.977977,-2.729295,-0.227513,3.436169
715,3387769131,-0.209615,0.043799,0.089808,0.972667,-0.956919,-0.866440,2.326648
716,3387802465,-0.245034,0.001129,0.090488,0.965284,-0.726783,-1.695678,2.020327
717,3387835799,-0.278450,-0.039439,0.080192,0.956287,-0.342120,-2.377107,0.712353
718,3387869133,-0.308459,-0.076547,0.063281,0.946041,1.267515,-2.291593,-0.561257
719,3387902467,-0.336463,-0.107425,0.036849,0.934826,1.483976,-1.955851,-1.134052
720,3387935801,-0.362140,-0.132581,0.006672,0.922625,0.944379,-1.707932,-1.378698
721,3387969135,-0.385090,-0.154284,-0.020772,0.909656,1.587127,-0.930985,-1.910660
722,3388002469,-0.408131,-0.171058,-0.049771,0.895375,1.051588,0.554713,-1.776724
723,3388035803,-0.431956,-0.183422,-0.078522,0.879551,0.749602,1.468393,-1.551453
724,3388069137,-0.458639,-0.191678,-0.106545,0.861140,0.734808,2.374698,-1.730679
725,3388102471,-0.486393,-0.197336,-0.127296,0.841594,-0.026576,2.390587,-0.953367
726,3388135805,-0.512011,-0.200886,-0.139407,0.823444,1.353011,1.686289,-1.410767
727,3388169139,-0.538866,-0.197104,-0.151056,0.804960,1.167123,2.250357,-1.984291
728,3388202473,-0.565984,-0.188521,-0.159438,0.786578,0.655076,2.079798,-2.258921
729,3388235807,-0.590549,-0.179433,-0.159059,0.770558,0.453750,0.690590,-2.217933
730,3388269141,-0.608209,-0.177259,-0.145318,0.759965,2.529182,-0.529174,-2.176707
731,3388302475,-0.622905,-0.168433,-0.139223,0.751160,3.478486,-0.219407,-1.922113
732,3388335809,-0.632768,-0.155812,-0.136232,0.746172,1.608345,-0.569256,-0.495175
733,3388369143,-0.634737,-0.150931,-0.128057,0.746950,3.320721,-1.065018,0.036215
734,3388402477,-0.630891,-0.147839,-0.122053,0.751816,4.632908,-1.444715,-0.947703
735,3388435811,-0.619129,-0.148126,-0.116268,0.762380,3.457950,-2.062920,-1.174882
736,3388469145,-0.594760,-0.160544,-0.098847,0.781486,2.678640,-1.959524,-0.374681
737,3388502479,-0.560590,-0.175349,-0.078273,0.805524,4.703354,-3.280934,-0.143604
738,3388535813,-0.523058,-0.180805,-0.069374,0.830007,4.703485,-2.886903,-3.359533
739,3388569147,-0.482258,-0.176255,-0.073781,0.854940,2.336316,-3.142051,-1.458461
740,3388602481,-0.437528,-0.170503,-0.078131,0.879430,-0.546446,-2.065222,-1.519669
741,3388635815,-0.387911,-0.165321,-0.070977,0.903969,-0.906254,-1.580673,-3.110787
742,3388669149,-0.334172,-0.156279,-0.050131,0.928115,-0.351641,0.329065,-3.371439
743,3388702483,-0.282610,-0.136902,-0.026812,0.949039,-0.398063,-1.152528,-2.987483
744,3388735817,-0.236019,-0.109743,-0.005922,0.965516,-2.301521,0.736460,-1.738940
745,3388769151,-0.191259,-0.079206,0.018739,0.978161,-2.031331,-0.020217,-0.262977
746,3388802485,-0.153281,-0.046176,0.041398,0.986237,-2.841061,0.105026,0.160755
747,3388835819,-0.121035,-0.013843,0.064224,0.990474,-4.326474,3.046875,0.523255
748,3388869153,-0.090380,0.018130,0.078083,0.992678,-3.362249,0.170784,0.765085
749,3388902487,-0.069233,0.056324,0.065318,0.993867,-3.410838,-0.977991,-0.964298
750,3388935821,-0.059240,0.097463,0.062157,0.991530,-4.472791,2.310660,0.548456
751,3388969155,-0.056684,0.138562,0.055872,0.987153,-4.182600,0.246488,3.042690
752,3389002489,-0.066018,0.179325,0.033822,0.980992,-4.433150,2.183836,1.386886
753,3389035823,-0.082690,0.212090,0.013403,0.973655,-5.129917,4.120831,6.075449
754,3389069157,-0.106226,0.231896,0.019832,0.966722,-5.291821,3.556381,4.299529
755,3389102491,-0.138961,0.233975,0.030809,0.961770,-6.076800,0.848051,8.336172
756,3389135825,-0.179973,0.210819,0.067740,0.958426,-3.347049,-0.580297,8.842714
757,3389169159,-0.228679,0.168140,0.104693,0.953141,-1.322920,-1.948477,5.426348
758,3389202493,-0.278818,0.117612,0.127266,0.944582,-0.374001,-1.778541,2.285492
759,3389235827,-0.327000,0.062415,0.143327,0.932007,0.032387,-1.558683,2.253779
760,3389269161,-0.372123,0.004935,0.148666,0.916190,-0.223933,-2.586636,0.798272
761,3389302495,-0.412717,-0.052552,0.144570,0.897779,1.600977,-2.830894,0.134073
762,3389335829,-0.450172,-0.108506,0.131118,0.876575,0.991547,-1.313194,-0.935985
763,3389369163,-0.485830,-0.159955,0.108910,0.852366,1.383911,-1.428008,-1.979648
764,3389402497,-0.519674,-0.205133,0.081885,0.825323,0.813810,-0.139130,-2.403870
765,3389435831,-0.552293,-0.244734,0.055028,0.795018,0.432193,0.545311,-2.874719
766,3389469165,-0.583824,-0.275508,0.028383,0.763180,0.786560,1.359706,-1.793533
767,3389502499,-0.614438,-0.296989,0.000197,0.730936,0.356658,0.151709,-1.458052
768,3389535833,-0.643675,-0.310792,-0.030699,0.698679,1.213770,0.852285,0.172992
769,3389569167,-0.669332,-0.323742,-0.054997,0.666457,-0.405122,0.266981,1.332872
770,3389602501,-0.689053,-0.338975,-0.067976,0.636934,1.075734,2.425778,-1.375912
771,3389635835,-0.703635,-0.355596,-0.071059,0.611069,0.206263,4.246259,-3.133357
772,3389669169,-0.712852,-0.372142,-0.065219,0.590850,1.687275,1.768496,-1.605274
773,3389702503,-0.720331,-0.381971,-0.056975,0.576176,1.218646,-0.041658,-1.107599
774,3389735837,-0.721182,-0.395439,-0.038563,0.567487,0.394067,-0.720055,-2.338460
775,3389769171,-0.708123,-0.423121,-0.005888,0.565244,5.166656,-0.553474,-3.018996
776,3389802505,-0.694741,-0.438686,0.012039,0.569868,10.316314,-1.148371,0.179410
777,3389835839,-0.684271,-0.439075,0.009500,0.582151,3.332629,-0.360853,-0.184855
778,3389869173,-0.656720,-0.452461,0.016683,0.603096,5.227246,2.698544,0.273289
779,3389902507,-0.635867,-0.450280,0.016828,0.626612,3.531986,3.163872,-0.871314
780,3389935841,-0.619302,-0.435028,0.015315,0.653442,-0.476205,4.003479,-2.854165
781,3389969175,-0.593315,-0.422086,0.033269,0.684630,-1.631782,3.368356,-2.861620
782,3390002509,-0.563631,-0.405867,0.066705,0.716343,-0.527765,1.753281,-1.530407
783,3390035843,-0.539505,-0.380301,0.100140,0.744501,0.165726,1.887790,-2.243688
784,3390069177,-0.514807,-0.353678,0.132671,0.769603,0.844360,-1.056444,0.358247
785,3390102511,-0.486977,-0.329088,0.163874,0.792278,1.506567,-2.366366,2.746003
786,3390135845,-0.457645,-0.304859,0.186305,0.814197,1.124187,-1.492041,2.378698
787,3390169179,-0.420928,-0.287026,0.209499,0.834596,1.360664,-1.641582,2.859030
788,3390202513,-0.381429,-0.269452,0.224549,0.855272,1.381774,-2.013964,2.242427
789,3390235847,-0.339727,-0.251219,0.229751,0.876751,0.601732,-1.283917,1.079082
790,3390269181,-0.293490,-0.234683,0.237342,0.895802,0.907508,-1.760467,-0.004779
791,3390302515,-0.247850,-0.214310,0.239471,0.913947,0.078505,-2.297127,-0.667018
792,3390335849,-0.205220,-0.187662,0.233988,0.931623,-0.380893,-1.292240,-1.933059
793,3390369183,-0.168519,-0.153935,0.218493,0.948773,-0.584677,-1.102993,-3.644001
794,3390402517,-0.138661,-0.112935,0.193169,0.964733,-1.909314,0.033948,-4.548508
795,3390435851,-0.115919,-0.063441,0.165496,0.977320,-2.523076,-0.114750,-4.918353
796,3390469185,-0.102300,-0.003602,0.129410,0.986296,-4.187366,-0.248681,-4.576881
797,3390502519,-0.097787,0.067313,0.082809,0.989471,-6.358253,-0.700695,-0.113610
798,3390535853,-0.103868,0.134233,0.032691,0.984951,-8.606408,-0.672388,1.190605
799,3390569187,-0.112663,0.178014,0.011519,0.977492,-8.544543,5.905300,8.439144
800,3390602521,-0.134882,0.195397,0.037588,0.970679,-7.135602,1.037036,3.419734
801,3390635855,-0.162713,0.199669,0.061714,0.964289,-4.095012,0.262275,3.814054
802,3390669189,-0.196147,0.189821,0.085245,0.958244,-2.218450,0.723105,6.972944
803,3390702523,-0.236726,0.166143,0.111712,0.950727,-0.552187,1.820363,5.292320
804,3390735857,-0.281310,0.134352,0.138668,0.939994,-0.377896,-0.963433,2.515421
805,3390769191,-0.324388,0.099983,0.154708,0.927818,-0.155390,-1.190091,0.435008
806,3390802525,-0.362551,0.065254,0.167077,0.914543,1.476873,-0.481791,0.155497
807,3390835859,-0.396662,0.032406,0.175856,0.900382,1.128269,-0.312498,0.237321
808,3390869193,-0.426131,0.002359,0.184305,0.885688,2.153053,0.973706,-1.612585
809,3390902527,-0.450038,-0.021695,0.191039,0.872069,2.545793,1.032683,-1.297778
810,3390935861,-0.470190,-0.037177,0.189874,0.861099,2.056344,1.303141,-1.204252
811,3390969195,-0.489398,-0.044776,0.183439,0.851375,1.029377,1.837633,-1.630285
812,3391002529,-0.508476,-0.049176,0.179671,0.840688,0.322759,1.032240,-1.534633
813,3391035863,-0.528903,-0.047988,0.173913,0.829288,-0.315633,0.476644,-1.467058
814,3391069197,-0.550382,-0.041456,0.165722,0.817252,-0.792804,0.059817,-1.501631
815,3391102531,-0.570939,-0.034065,0.161093,0.804314,-1.361689,-0.022003,-1.373713
816,3391135865,-0.588342,-0.033390,0.170234,0.789787,-0.561405,-0.629850,-1.011130
817,3391169199,-0.602905,-0.036899,0.187145,0.774677,1.398764,-1.101238,-0.933618
818,3391202533,-0.613888,-0.032421,0.200289,0.762876,0.762066,-0.330367,-0.507276
819,3391235867,-0.617308,-0.025036,0.220474,0.754784,1.824222,-0.808683,-0.443637
820,3391269201,-0.612655,-0.010011,0.239549,0.753109,6.877620,-2.835065,-3.270305
821,3391302535,-0.601230,0.020183,0.238920,0.762258,6.116034,-2.748731,-1.180570
822,3391335869,-0.582404,0.045121,0.238873,0.775702,2.696084,-0.376194,1.322012
823,3391369203,-0.558892,0.058148,0.250107,0.788486,4.057041,-1.402596,1.382244
824,3391402537,-0.530716,0.067872,0.257229,0.804718,2.671138,-1.821290,1.464149
825,3391435871,-0.496998,0.073823,0.262218,0.823886,0.836630,-1.249148,2.229060
826,3391469205,-0.458109,0.077717,0.268370,0.843847,0.683015,-2.287378,1.830328
827,3391502539,-0.414825,0.083855,0.266986,0.865801,-0.833353,-2.652366,1.623737
828,3391535873,-0.368010,0.089913,0.260499,0.888048,-2.560944,-1.592131,1.996156
829,3391569207,-0.319036,0.095211,0.251298,0.908848,-3.001068,-1.177600,1.422684
830,3391602541,-0.269482,0.099185,0.238982,0.927596,-3.112892,-1.434708,1.174905
831,3391635875,-0.222012,0.100117,0.226606,0.943049,-3.763689,0.403724,0.533902
832,3391669209,-0.179205,0.098202,0.216251,0.954715,-3.590595,1.550970,0.256713
833,3391702543,-0.143234,0.094572,0.204710,0.963659,-3.238147,1.750799,-0.440709
834,3391735877,-0.114670,0.089508,0.199170,0.969110,-2.725733,1.939095,-1.635357
835,3391769211,-0.094512,0.085801,0.199319,0.971587,-2.510118,1.777330,-2.192876
836,3391802545,-0.083528,0.085571,0.204242,0.971592,-2.074767,1.979472,-3.000884
837,3391835879,-0.083344,0.091344,0.214305,0.968910,-1.639407,1.235905,-3.097190
838,3391869213,-0.098502,0.108344,0.219400,0.964587,-1.592492,3.805250,-4.298213
839,3391902547,-0.124998,0.134627,0.219056,0.958264,-3.883589,1.240012,-2.360155
840,3391935881,-0.160047,0.158964,0.221820,0.948639,-5.368900,1.525182,0.731113
841,3391969215,-0.199959,0.175433,0.233717,0.935211,-5.739604,0.290708,1.104232
842,3392002549,-0.240588,0.181966,0.243874,0.921703,-5.633999,-3.109443,2.486271
843,3392035883,-0.284935,0.168308,0.272775,0.903373,-4.375822,-1.590277,4.576869
844,3392069217,-0.333889,0.135751,0.313033,0.878695,-1.348479,-2.730892,4.154013
845,3392102551,-0.384666,0.095972,0.341559,0.852152,0.246951,-3.349833,3.169086
846,3392135885,-0.434447,0.049588,0.362473,0.823052,1.242067,-2.280675,2.877296
847,3392169219,-0.482698,-0.002089,0.375923,0.791003,2.397741,-2.088683,2.225678
848,3392202553,-0.528862,-0.053548,0.378699,0.757647,2.388951,-1.612711,0.067233
849,3392235887,-0.570027,-0.104001,0.375576,0.723325,2.989101,-0.281906,-0.408868
850,3392269221,-0.606090,-0.152116,0.369115,0.687950,2.674711,1.402466,-1.586124
851,3392302555,-0.636040,-0.199600,0.363750,0.650617,3.810695,2.729401,-1.736264
852,3392335889,-0.661444,-0.238472,0.353079,0.617222,3.034341,2.985368,-0.634861
853,3392369223,-0.682011,-0.268474,0.338794,0.589920,1.828952,2.574333,-0.534795
854,3392402557,-0.696108,-0.295533,0.327194,0.566606,0.433476,2.037556,-0.515635
855,3392435891,-0.704702,-0.319106,0.318928,0.547591,-0.587884,1.259545,-0.317030
856,3392469225,-0.711225,-0.337308,0.311017,0.532593,-0.986520,1.137776,-1.359863
857,3392502559,-0.716444,-0.352200,0.305984,0.518692,-0.651308,1.312710,-1.442357
858,3392535893,-0.718064,-0.368221,0.308084,0.503872,0.013810,0.952373,-1.785926
859,3392569227,-0.717789,-0.380706,0.313491,0.491498,1.277571,0.965198,-1.387631
860,3392602561,-0.716574,-0.385746,0.320011,0.485097,2.267380,1.361196,-1.334552
861,3392635895,-0.714737,-0.384534,0.326065,0.484737,2.711628,1.486543,-0.848996
862,3392669229,-0.710539,-0.375785,0.335683,0.491163,3.236181,2.623974,-1.398531
863,3392702563,-0.704419,-0.354879,0.349626,0.505590,6.130698,2.799913,-2.358945
864,3392735897,-0.695344,-0.323752,0.364786,0.527841,4.493073,0.802846,-0.699331
865,3392769231,-0.675552,-0.289469,0.387415,0.556553,4.354168,0.401593,0.828699
866,3392802565,-0.647859,-0.245936,0.409438,0.593431,4.827783,-0.314341,-0.150871
867,3392835899,-0.613415,-0.197447,0.425261,0.635527,2.210774,-0.732310,1.006000
868,3392869233,-0.570779,-0.154606,0.444066,0.673140,1.576290,-0.755931,1.747622
869,3392902567,-0.525595,-0.111911,0.457387,0.708539,0.987447,-1.190644,2.050312
870,3392935901,-0.479069,-0.069400,0.459050,0.744952,-1.063130,-0.829323,2.223822
871,3392969235,-0.431523,-0.030249,0.454587,0.778606,-1.495696,-1.098240,2.177696
872,3393002569,-0.384296,0.004584,0.445198,0.808764,-1.776789,-2.012750,1.806355
873,3393035903,-0.337273,0.036226,0.426742,0.838350,-1.978189,-2.156356,2.023428
874,3393069237,-0.291009,0.065285,0.399964,0.866651,-2.197892,-1.707804,0.786871
875,3393102571,-0.246362,0.089898,0.371213,0.890746,-2.126108,-1.834598,0.055169
876,3393135905,-0.204701,0.110412,0.341379,0.910698,-1.687660,-1.719078,-0.710661
877,3393169239,-0.165709,0.127265,0.313637,0.926272,-1.458156,-1.199015,-1.132360
878,3393202573,-0.130354,0.142939,0.287726,0.937973,-2.034288,-0.987450,-1.029777
879,3393235907,-0.101457,0.159346,0.260636,0.946778,-2.792803,-0.203515,-1.822300
880,3393269241,-0.081575,0.176537,0.231381,0.953230,-3.555857,1.065814,-2.158656
881,3393302575,-0.072991,0.196106,0.202834,0.956597,-4.327938,1.888875,-0.915174
882,3393335909,-0.078951,0.218098,0.173304,0.957168,-4.842688,2.282809,-1.234011
883,3393369243,-0.095369,0.236843,0.146372,0.955714,-5.579617,2.680101,0.468930
884,3393402577,-0.119570,0.248171,0.115263,0.954376,-5.256971,3.542414,1.818557
885,3393435911,-0.153028,0.247010,0.107391,0.950810,-4.026859,4.191299,6.474251
886,3393469245,-0.196254,0.226055,0.122579,0.946236,-2.294537,1.000468,8.496264
887,3393502579,-0.245338,0.187361,0.134612,0.941589,-1.418319,1.617262,8.034851
888,3393535913,-0.292790,0.130709,0.156387,0.934204,-1.065245,-1.912457,6.083047
889,3393569247,-0.332510,0.067243,0.162123,0.926626,0.636753,-3.343980,3.248255
890,3393602581,-0.364093,0.005877,0.149631,0.919248,-0.261543,-2.358893,1.916905
891,3393635915,-0.387369,-0.053437,0.130813,0.911034,0.716361,-2.782739,-0.101906
892,3393669249,-0.405555,-0.103911,0.099805,0.902646,1.668851,-1.321041,-1.997311
893,3393702583,-0.423938,-0.142596,0.058126,0.892507,0.234385,0.415803,-2.002671
894,3393735917,-0.443672,-0.173879,0.017433,0.878989,-0.059346,1.470813,-2.517798
895,3393769251,-0.464245,-0.198047,-0.015584,0.863143,1.639201,2.812852,-3.672512
896,3393802585,-0.488288,-0.211621,-0.045233,0.845429,0.541380,2.306791,-2.630944
897,3393835919,-0.513035,-0.219954,-0.062506,0.827353,0.532586,2.172614,-3.113332
898,3393869253,-0.535273,-0.226417,-0.064441,0.811215,1.778584,1.522461,-3.949345
899,3393902587,-0.556251,-0.228294,-0.059941,0.796793,1.760719,-0.751489,-3.009265
900,3393935921,-0.572851,-0.227681,-0.049874,0.785825,1.278148,-0.406167,-2.349640
901,3393969255,-0.579011,-0.232405,-0.025882,0.781069,1.345259,-0.203131,-2.508579
902,3394002589,-0.580459,-0.233709,-0.001548,0.780032,2.090101,-0.575808,-2.035956
903,3394035923,-0.580670,-0.227143,0.011420,0.781730,3.016074,-1.824713,-2.654988
904,3394069257,-0.571177,-0.226180,0.029242,0.788510,6.091078,-2.736066,-1.796044
905,3394102591,-0.557701,-0.222672,0.035461,0.798833,2.192295,-2.210668,-1.760105
906,3394135925,-0.537196,-0.222057,0.043325,0.812551,1.685115,0.107470,-2.793860
907,3394169259,-0.508080,-0.230861,0.068243,0.826986,4.408245,-1.422018,-1.187346
908,3394202593,-0.481450,-0.227531,0.079896,0.842648,2.243286,-0.553540,-1.832544
909,3394235927,-0.451195,-0.218028,0.090562,0.860633,0.455281,-1.072696,-2.761639
910,3394269261,-0.418988,-0.200219,0.097646,0.880245,3.080882,-2.966144,-2.378838
911,3394302595,-0.393528,-0.165274,0.077276,0.901029,-2.676051,-0.784107,-1.581196
912,3394335929,-0.359479,-0.139304,0.083677,0.918897,-4.982674,2.145862,-1.550368
913,3394369263,-0.320448,-0.125491,0.133277,0.929412,0.135772,-0.250417,-1.734057
914,3394402597,-0.293622,-0.099520,0.154108,0.938156,0.033026,-3.094294,1.281743
915,3394435931,-0.270555,-0.073165,0.162435,0.946079,-2.548638,1.360183,1.112505
916,3394469265,-0.243066,-0.058011,0.198499,0.947711,-0.554972,-2.116858,1.180860
917,3394502599,-0.218174,-0.042767,0.220921,0.949615,-0.650787,-3.391715,1.758333
918,3394535933,-0.195087,-0.025400,0.230454,0.952991,-0.674436,-0.677735,-0.534934
919,3394569267,-0.173675,-0.002994,0.233612,0.956691,-1.060474,-0.913934,-1.365492
920,3394602601,-0.155710,0.027567,0.229514,0.960376,-1.594893,0.333154,-2.006308
921,3394635935,-0.140786,0.066981,0.225583,0.961670,-2.847216,2.184718,0.009794
922,3394669269,-0.131179,0.116815,0.207919,0.962248,-3.475173,-1.150031,1.052532
923,3394702603,-0.130124,0.170702,0.155245,0.964278,-5.397949,1.898841,-0.317180
924,3394735937,-0.139637,0.215156,0.122169,0.958795,-7.943114,8.946596,1.042815
925,3394769271,-0.160507,0.240278,0.137600,0.947404,-7.494846,2.528490,4.772074
926,3394802605,-0.187184,0.245625,0.150763,0.939098,-4.387843,-1.220967,7.130089
927,3394835939,-0.224379,0.230475,0.174370,0.930664,-4.680951,0.578879,5.903847
928,3394869273,-0.269765,0.194929,0.215459,0.918048,-2.174918,-2.381752,4.311542
929,3394902607,-0.319465,0.148844,0.250448,0.901703,-1.239703,-2.289294,3.269320
930,3394935941,-0.372505,0.095199,0.278418,0.880151,-0.190482,-2.562135,1.443670
931,3394969275,-0.427731,0.037653,0.295417,0.853441,0.250256,-2.695942,2.231694
932,3395002609,-0.483013,-0.022134,0.303743,0.820947,0.191794,-2.538396,0.367022
933,3395035943,-0.534562,-0.079650,0.301182,0.785617,1.773579,-3.251595,0.296390
934,3395069277,-0.582108,-0.129065,0.284493,0.750707,2.612519,-2.317475,0.820715
935,3395102611,-0.623878,-0.175583,0.266660,0.713332,2.896338,-0.704981,-0.762047
936,3395135945,-0.658847,-0.217587,0.248498,0.675892,3.585349,0.856858,-2.116943
937,3395169279,-0.689127,-0.248172,0.225562,0.642371,2.925339,2.042444,-1.626793
938,3395202613,-0.714761,-0.269231,0.202679,0.612827,1.975981,2.647037,-1.662539
939,3395235947,-0.735325,-0.283035,0.183233,0.587893,1.759939,3.626260,-1.269905
940,3395269281,-0.751836,-0.290660,0.166426,0.567949,0.750086,2.765068,-0.672436
941,3395302615,-0.765705,-0.294063,0.151082,0.551726,0.703715,2.894127,-0.164400
942,3395335949,-0.777721,-0.295226,0.137755,0.537605,-0.336432,2.701427,0.159760
943,3395369283,-0.785522,-0.299436,0.130042,0.525725,0.039526,1.621468,0.411148
944,3395402617,-0.788892,-0.307737,0.125414,0.516936,1.158738,0.494872,1.270709
945,3395435951,-0.785949,-0.321894,0.125106,0.512855,1.865305,0.525744,0.573188
946,3395469285,-0.775635,-0.342742,0.130836,0.513620,1.053550,0.924178,-1.598460
947,3395502619,-0.762858,-0.361555,0.137313,0.518146,2.887191,1.413135,-1.335517
948,3395535953,-0.752485,-0.368520,0.139335,0.527778,4.089796,2.217820,-2.231585
949,3395569287,-0.741499,-0.368988,0.138024,0.543121,4.575881,1.118545,-1.785855
950,3395602621,-0.725474,-0.370573,0.137624,0.563407,3.552524,1.433011,-0.681638
951,3395635955,-0.703543,-0.371410,0.144819,0.588314,2.336213,1.771639,-2.280411
952,3395669289,-0.674776,-0.369382,0.162770,0.617855,4.638638,1.250764,-2.150129
953,3395702623,-0.643316,-0.355675,0.184802,0.652298,3.542830,0.648583,-1.769130
954,3395735957,-0.607205,-0.333017,0.210936,0.689864,2.249888,0.293073,-1.009734
955,3395769291,-0.566342,-0.303056,0.239620,0.728011,0.707700,0.100777,-0.615438
956,3395802625,-0.523264,-0.267238,0.265647,0.764339,0.962633,-0.995216,0.399593
957,3395835959,-0.477346,-0.231774,0.288811,0.796878,0.571564,-2.647410,2.091882
958,3395869293,-0.431342,-0.197340,0.301173,0.827224,-1.073095,-3.005122,3.084314
959,3395902627,-0.384231,-0.168591,0.304023,0.855288,-1.230962,-2.648504,2.847146
960,3395935961,-0.336192,-0.146860,0.302863,0.879594,-1.158227,-3.307630,2.707521
961,3395969295,-0.288449,-0.129232,0.294580,0.901845,-1.626862,-2.676693,1.509672
962,3396002629,-0.241399,-0.113622,0.280578,0.922007,-1.655934,-2.600206,0.211638
963,3396035963,-0.198327,-0.096619,0.257395,0.940789,-2.195805,-1.813312,-1.295155
964,3396069297,-0.160317,-0.078451,0.230395,0.956591,-1.937894,-0.248284,-3.311330
965,3396102631,-0.128829,-0.055763,0.205028,0.968639,-1.323399,0.478140,-4.588989
966,3396135965,-0.105189,-0.022837,0.174663,0.978729,-1.732886,0.939037,-5.347482
967,3396169299,-0.088805,0.023454,0.135062,0.986573,-3.015276,1.457660,-4.012120
968,3396202633,-0.081612,0.081762,0.093062,0.988938,-5.243701,1.848979,-0.788915
969,3396235967,-0.088691,0.136457,0.064331,0.984571,-7.943818,1.890793,0.851410
970,3396269301,-0.109713,0.171319,0.070077,0.976579,-7.713381,6.103735,5.731874
971,3396302635,-0.147505,0.181928,0.108842,0.966076,-7.640550,2.516207,2.214409
972,3396335969,-0.191109,0.178134,0.148082,0.953846,-6.919215,0.507643,2.226234
973,3396369303,-0.236557,0.159129,0.190029,0.939474,-3.323869,-1.820662,5.387782
974,3396402637,-0.286586,0.126103,0.226268,0.922374,-2.656611,-1.168976,5.087197
975,3396435971,-0.335613,0.083439,0.258119,0.902098,0.020989,-3.132900,1.438314
976,3396469305,-0.379976,0.044028,0.271747,0.883084,1.878681,-3.150210,0.720846
977,3396502639,-0.418866,0.008457,0.275723,0.865136,2.065371,-1.226057,0.712760
978,3396535973,-0.453313,-0.026327,0.278160,0.846432,3.068181,-0.758737,-0.033407
979,3396569307,-0.483365,-0.058465,0.277165,0.828326,3.851413,-1.412091,-0.611163
980,3396602641,-0.508741,-0.085735,0.269765,0.813058,3.370695,-0.396768,-0.764834
981,3396635975,-0.529169,-0.110450,0.261936,0.799484,2.804368,0.331390,-1.348826
982,3396669309,-0.544853,-0.131460,0.253876,0.788293,2.366585,1.152415,-0.677815
983,3396702643,-0.557021,-0.146752,0.244195,0.780106,0.950307,1.898728,-0.439529
984,3396735977,-0.566011,-0.157569,0.236759,0.773792,1.022496,2.402598,-1.567428
985,3396769311,-0.573285,-0.163918,0.231626,0.768654,-0.330826,2.471663,-1.220153
986,3396802645,-0.580255,-0.164351,0.227055,0.764685,-0.405028,2.284224,-1.205553
987,3396835979,-0.588517,-0.158207,0.222098,0.761114,-0.327231,1.931170,-1.583739
988,3396869313,-0.595934,-0.150612,0.221700,0.756989,-0.501441,1.306549,-1.005598
989,3396902647,-0.603416,-0.139750,0.220981,0.753346,0.228587,0.774253,-1.368133
990,3396935981,-0.612178,-0.124642,0.218381,0.749678,-0.153785,0.506821,-0.852882
991,3396969315,-0.620273,-0.112999,0.223249,0.743409,-0.560593,0.395839,0.976614
992,3397002649,-0.624612,-0.101720,0.241899,0.735529,2.212102,0.054494,2.170863
993,3397035983,-0.625842,-0.077299,0.254643,0.733150,4.796828,-1.359915,-1.678284
994,3397069317,-0.619569,-0.044143,0.254092,0.741369,7.142251,-2.464145,-4.966173
995,3397102651,-0.600962,-0.015316,0.252469,0.758205,3.031142,-2.476548,2.348880
996,3397135985,-0.578010,-0.006556,0.262680,0.772570,1.314569,-0.788103,3.811301
997,3397169319,-0.552440,-0.003214,0.273623,0.787359,2.682493,-1.393844,0.337584
998,3397202653,-0.522480,0.004145,0.274867,0.807125,1.221134,-1.827589,1.067204
999,3397235987,-0.488508,0.010725,0.275502,0.827857,1.284638,-2.888669,1.078912
1000,3397269321,-0.450596,0.018068,0.273599,0.849579,0.624276,-2.851115,0.821666
1001,3397302655,-0.408200,0.025697,0.268439,0.872157,-0.845917,-2.415957,1.123269
1002,3397335989,-0.362287,0.031673,0.262010,0.893924,-0.990655,-2.587300,1.411386
1003,3397369323,-0.315647,0.036034,0.253155,0.913776,-2.423829,-1.431636,1.240490
1004,3397402657,-0.270785,0.037413,0.241543,0.931095,-3.344078,-0.282155,0.013667
1005,3397435991,-0.229199,0.035429,0.232378,0.944573,-3.323172,0.716121,-0.899425
1006,3397469325,-0.190328,0.032796,0.226532,0.954666,-2.818102,1.103517,-2.463533
1007,3397502659,-0.153773,0.033397,0.211513,0.964627,-2.239119,0.499460,-1.887245
1008,3397535993,-0.122879,0.041976,0.189618,0.973236,-1.820588,1.901427,-3.188711
1009,3397569327,-0.101193,0.062632,0.166031,0.978915,-2.002837,1.523618,-4.421202
1010,3397602661,-0.091755,0.096692,0.136191,0.981676,-3.066254,2.766694,-2.567928
1011,3397635995,-0.097540,0.137685,0.111263,0.979364,-4.381132,2.996175,-1.185439
1012,3397669329,-0.115146,0.171028,0.103082,0.973072,-6.162180,3.643897,2.161657
1013,3397702663,-0.140307,0.188556,0.122981,0.964179,-5.698598,1.313035,0.758193
1014,3397735997,-0.168900,0.192072,0.143667,0.956005,-6.183403,-1.461018,3.020747
1015,3397769331,-0.202425,0.175167,0.180301,0.946487,-4.508322,-2.327697,3.956082
1016,3397802665,-0.243515,0.143101,0.223194,0.932958,-2.946429,-2.412460,2.455260
1017,3397835999,-0.289935,0.103443,0.264404,0.913965,-2.403712,-2.730595,1.152322
1018,3397869333,-0.341421,0.058668,0.301832,0.888196,-1.281074,-2.650683,0.436524
1019,3397902667,-0.397139,0.009921,0.331940,0.855571,-0.207221,-2.785480,0.143394
1020,3397936001,-0.454336,-0.042810,0.354155,0.816287,0.540035,-2.207928,0.408902
1021,3397969335,-0.509519,-0.095389,0.365463,0.773132,1.612557,-1.448701,0.896467
1022,3398002669,-0.561165,-0.142835,0.365176,0.728933,2.948702,0.006469,0.169717
1023,3398036003,-0.606420,-0.188903,0.358828,0.683972,4.327475,0.274837,0.665697
1024,3398069337,-0.644646,-0.230055,0.344919,0.642294,4.302000,0.829864,0.825006
1025,3398102671,-0.674982,-0.263821,0.325583,0.607287,3.821442,1.387274,0.094604
1026,3398136005,-0.695867,-0.291722,0.306986,0.580027,3.648466,1.664804,-0.344457
1027,3398169339,-0.709152,-0.311925,0.291195,0.561263,2.850179,1.495192,-0.278358
1028,3398202673,-0.717709,-0.324238,0.278650,0.549656,1.634009,1.744669,-1.012418
1029,3398236007,-0.724595,-0.329702,0.268866,0.542194,0.204350,1.732330,-1.716812
1030,3398269341,-0.731193,-0.332016,0.262794,0.534851,-0.641598,1.818677,-2.118495
1031,3398302675,-0.738398,-0.331495,0.260348,0.526405,-0.901480,1.930783,-2.516984
1032,3398336009,-0.744089,-0.331882,0.263783,0.516341,-1.096984,1.630701,-2.053428
1033,3398369343,-0.749232,-0.330369,0.271763,0.505626,-0.306205,1.567071,-1.499888
1034,3398402677,-0.755795,-0.319732,0.281364,0.497377,-0.156664,1.278626,-1.271254
1035,3398436011,-0.758917,-0.307216,0.297784,0.490909,-0.743921,0.870159,0.202297
1036,3398469345,-0.757506,-0.294312,0.322587,0.485291,0.601064,1.862262,0.993485
1037,3398502679,-0.753266,-0.271681,0.349480,0.486465,7.502982,4.129405,-4.843107
1038,3398536013,-0.746816,-0.230943,0.368229,0.503331,8.210670,1.998068,0.844748
1039,3398569347,-0.734065,-0.189604,0.381072,0.529139,0.177372,-0.233179,2.862696
1040,3398602681,-0.711767,-0.153344,0.396089,0.559456,4.892540,1.167234,1.563607
1041,3398636015,-0.686385,-0.116917,0.403664,0.593520,1.510967,0.038506,1.293611
1042,3398669349,-0.657440,-0.091988,0.410006,0.625468,1.061215,0.377184,3.234400
1043,3398702683,-0.626666,-0.070021,0.410314,0.658813,1.283036,0.237565,2.133953
1044,3398736017,-0.591867,-0.051225,0.408432,0.693006,1.710166,-0.355575,1.711059
1045,3398769351,-0.552911,-0.033068,0.403755,0.728135,1.638930,-1.328433,2.401553
1046,3398802685,-0.509907,-0.014413,0.392564,0.765301,1.016149,-2.065126,2.367538
1047,3398836019,-0.463226,0.002222,0.376042,0.802504,0.701691,-2.780743,2.083187
1048,3398869353,-0.413677,0.014694,0.357595,0.837130,0.224103,-3.599530,1.795054
1049,3398902687,-0.362392,0.025277,0.332983,0.870149,-1.109233,-3.304654,1.096968
1050,3398936021,-0.310610,0.034036,0.304235,0.899894,-1.883079,-3.088517,-0.256288
1051,3398969355,-0.260123,0.040875,0.274647,0.924791,-2.435858,-2.748566,-1.375896
1052,3399002689,-0.212843,0.046628,0.247127,0.944170,-2.748522,-1.923428,-2.450654
1053,3399036023,-0.171011,0.053725,0.221384,0.958573,-2.980982,-0.953668,-3.613124
1054,3399069357,-0.140180,0.066611,0.188511,0.969732,-2.891406,0.269302,-6.094949
1055,3399102691,-0.121773,0.088149,0.146151,0.977776,-3.429377,3.176891,-4.915177
1056,3399136025,-0.116355,0.118808,0.115896,0.979244,-4.039307,3.833376,-3.632059
1057,3399169359,-0.123879,0.153159,0.101781,0.975111,-5.446957,2.141934,0.317206
1058,3399202693,-0.138997,0.179727,0.085097,0.970124,-4.955892,0.786020,1.944729
1059,3399236027,-0.159625,0.197593,0.068027,0.964807,-4.962533,3.687692,2.987572
1060,3399269361,-0.185963,0.202656,0.069965,0.958883,-3.494177,0.877470,4.512193
1061,3399302695,-0.216743,0.191357,0.080051,0.953940,-2.484382,-0.058282,8.002287
1062,3399336029,-0.253259,0.160150,0.097051,0.949103,-1.824457,-0.719516,6.787558
1063,3399369363,-0.290637,0.114467,0.114026,0.943096,-1.755100,-1.951275,4.579566
1064,3399402697,-0.324751,0.060478,0.122825,0.935841,-0.734245,-3.450302,2.921121
1065,3399436031,-0.355671,0.004452,0.119174,0.926974,-0.245804,-1.913019,3.090655
1066,3399469365,-0.385531,-0.051325,0.103378,0.915451,-0.739181,-2.310826,1.321021
1067,3399502699,-0.414871,-0.102978,0.075856,0.900848,-0.201607,-1.675444,-0.511665
1068,3399536033,-0.444146,-0.148337,0.040572,0.882660,-1.196783,-0.164912,-1.153785
1069,3399569367,-0.472734,-0.186635,0.003432,0.861210,0.550248,0.580939,-2.157173
1070,3399602701,-0.500640,-0.212873,-0.035794,0.838313,0.031346,1.571502,-1.760715
1071,3399636035,-0.527249,-0.230094,-0.069296,0.815026,0.928534,2.682016,-2.012290
1072,3399669369,-0.554030,-0.237924,-0.097499,0.791796,2.007380,1.408436,-1.773359
1073,3399702703,-0.579501,-0.238138,-0.117899,0.770437,1.660702,2.366540,-0.983801
1074,3399736037,-0.602407,-0.236579,-0.129257,0.751288,2.952345,1.313927,-1.442414
1075,3399769371,-0.624589,-0.229490,-0.139457,0.733334,2.634964,1.825579,-2.503721
1076,3399802705,-0.644902,-0.218518,-0.148104,0.717231,0.750795,0.951127,-2.734926
1077,3399836039,-0.661567,-0.206805,-0.150372,0.704950,1.454956,-0.499252,-1.848854
1078,3399869373,-0.670807,-0.200213,-0.141671,0.699905,2.561659,-1.496359,-1.113110
1079,3399902707,-0.675836,-0.194180,-0.130920,0.698859,2.122048,-0.178921,-1.189770
1080,3399936041,-0.673625,-0.196946,-0.109648,0.703863,3.708941,1.212908,-4.690828
1081,3399969375,-0.656715,-0.209055,-0.079524,0.720210,5.716607,-1.384261,-1.977761
1082,3400002709,-0.627015,-0.225521,-0.050949,0.743909,8.125225,-1.337034,-1.463749
1083,3400036043,-0.599524,-0.225515,-0.049101,0.766360,4.143709,-0.242518,0.556677
1084,3400069377,-0.566670,-0.228470,-0.044445,0.790390,0.081531,0.885634,-0.609706
1085,3400102711,-0.525968,-0.234844,-0.026837,0.817001,1.840313,-0.134169,-1.654878
1086,3400136045,-0.489252,-0.230511,-0.015356,0.840991,-0.852140,-0.094490,-1.597587
1087,3400169379,-0.457548,-0.219854,-0.005347,0.861562,-1.485960,-0.341835,-2.316198
1088,3400202713,-0.428795,-0.207806,0.008539,0.879138,-2.900681,-0.030392,-2.043902
1089,3400236047,-0.402696,-0.194123,0.026008,0.894137,-1.478242,-0.412029,-1.439783
1090,3400269381,-0.381409,-0.176507,0.042282,0.906416,-1.862425,-0.868187,-0.991482
1091,3400302715,-0.364894,-0.159193,0.059155,0.915432,-2.375968,-0.310404,-0.448063
1092,3400336049,-0.348639,-0.147112,0.084677,0.921761,-0.773849,-0.989102,0.624279
1093,3400369383,-0.333196,-0.135827,0.107911,0.926763,0.522814,-1.906766,1.192878
1094,3400402717,-0.316393,-0.123307,0.126643,0.932018,0.909575,-1.969579,0.746942
1095,3400436051,-0.296134,-0.109656,0.145562,0.937601,1.032178,-1.967051,0.905540
1096,3400469385,-0.273536,-0.092341,0.157836,0.944322,0.590792,-2.103415,0.735718
1097,3400502719,-0.248650,-0.072053,0.163956,0.951895,-0.248963,-1.072619,0.513380
1098,3400536053,-0.223865,-0.050323,0.166832,0.958918,-0.262867,-0.574149,-0.441001
1099,3400569387,-0.202093,-0.027537,0.165872,0.964827,-0.552296,0.372244,-1.131891
1100,3400602721,-0.184709,-0.002158,0.161751,0.969391,-0.903417,1.277156,-2.090202
1101,3400636055,-0.170998,0.028787,0.154355,0.972682,-2.210838,1.631645,-1.844561
1102,3400669389,-0.160577,0.067736,0.140684,0.974597,-3.488749,0.338363,-0.395845
1103,3400702723,-0.153875,0.115318,0.104070,0.975806,-4.257345,0.776204,0.410873
1104,3400736057,-0.152678,0.166790,0.041347,0.973224,-4.483294,1.984223,0.162656
1105,3400769391,-0.154399,0.218186,-0.020018,0.963410,-5.146570,3.328471,-1.338014
1106,3400802725,-0.165122,0.262009,-0.053776,0.949315,-6.135518,5.897107,8.179216
1107,3400836059,-0.189241,0.281428,-0.050666,0.939374,-5.287129,-0.178635,8.046459
1108,3400869393,-0.224220,0.272209,-0.025500,0.935405,-3.081113,-2.896954,8.965071
1109,3400902727,-0.269164,0.235817,0.004176,0.933771,-2.454968,-2.113798,7.123325
1110,3400936061,-0.321222,0.177349,0.047196,0.929053,-2.924014,-2.874853,2.479592
1111,3400969395,-0.375537,0.107433,0.092721,0.915881,-1.979844,-4.605194,0.426719
1112,3401002729,-0.429736,0.034442,0.126803,0.893346,-1.534361,-4.487390,-2.088820
1113,3401036063,-0.480685,-0.036959,0.151743,0.862876,-0.272188,-3.298700,-2.360420
1114,3401069397,-0.527691,-0.105216,0.172987,0.824955,0.572536,-2.346637,-3.590498
1115,3401102731,-0.570963,-0.166096,0.186058,0.782177,2.968978,-0.442309,-2.910042
1116,3401136065,-0.612503,-0.215223,0.186991,0.737264,3.082042,-0.480544,-0.514221
1117,3401169399,-0.647484,-0.261019,0.183085,0.692183,2.957658,0.476476,-0.559639
1118,3401202733,-0.670885,-0.311498,0.181811,0.647944,2.217765,1.931347,-0.555387
1119,3401236067,-0.683293,-0.363570,0.183387,0.606054,2.428612,2.533334,-1.135578
1120,3401269401,-0.701434,-0.389721,0.168984,0.572326,0.701961,2.723079,-1.183864
1121,3401302735,-0.719830,-0.403096,0.153587,0.543851,-1.171920,2.762534,-2.245747
1122,3401336069,-0.725670,-0.429949,0.157018,0.513709,-2.051495,2.434250,-2.664699
1123,3401369403,-0.728960,-0.457968,0.168043,0.480259,-0.453500,2.782860,-0.821347
1124,3401402737,-0.747010,-0.457243,0.171790,0.450996,-1.656415,2.847542,-0.947382
1125,3401436071,-0.751817,-0.468559,0.189715,0.423362,-0.647976,2.736619,-1.231611
1126,3401469405,-0.757763,-0.472492,0.209701,0.398216,1.525460,4.210426,0.597683
1127,3401502739,-0.765156,-0.465973,0.230893,0.379603,0.794992,2.844558,-1.979207
1128,3401536073,-0.751532,-0.483342,0.268918,0.359538,2.212621,1.743561,-0.989049
1129,3401569407,-0.742652,-0.487463,0.302965,0.345057,5.549375,2.056614,2.184459
1130,3401602741,-0.732160,-0.487978,0.335695,0.336351,5.445331,1.035793,0.203789
1131,3401636075,-0.720381,-0.486487,0.364134,0.334355,3.469995,-0.487173,1.560854
1132,3401669409,-0.715844,-0.478877,0.379335,0.338162,1.171794,-2.743264,2.036974
1133,3401702743,-0.711281,-0.477928,0.388281,0.338979,0.243202,-3.143726,-0.421402
1134,3401736077,-0.710222,-0.472941,0.391661,0.344264,1.050465,-3.690233,2.870972
1135,3401769411,-0.718872,-0.456497,0.380720,0.360403,0.640432,-5.781035,1.648702
1136,3401802745,-0.718505,-0.458359,0.365889,0.373882,-0.588766,-7.843981,-1.175243
1137,3401836079,-0.704282,-0.483923,0.351455,0.382478,1.777359,-4.225626,3.103430
1138,3401869413,-0.703970,-0.495341,0.323346,0.393085,0.983885,-4.129036,1.483425
1139,3401902747,-0.690687,-0.522178,0.299052,0.401066,1.290449,-0.104335,1.482066
1140,3401936081,-0.677311,-0.544265,0.275427,0.411302,3.422966,3.881168,4.113074
1141,3401969415,-0.664635,-0.558201,0.252118,0.427917,3.437956,5.415573,1.765882
1142,3402002749,-0.647205,-0.566577,0.230000,0.455214,3.940855,5.026258,3.313757
1143,3402036083,-0.637935,-0.553110,0.199985,0.497110,2.367068,4.992823,1.096123
1144,3402069417,-0.616882,-0.536694,0.176001,0.548128,2.634204,5.283302,-1.688775
1145,3402102751,-0.584222,-0.516415,0.162192,0.604730,3.891237,3.960254,-3.069460
1146,3402136085,-0.546802,-0.486892,0.152384,0.663873,2.991856,2.140527,-3.697076
1147,3402169419,-0.507734,-0.447947,0.147127,0.721046,1.916969,1.318553,-4.452333
1148,3402202753,-0.466412,-0.404378,0.154312,0.771447,2.219407,1.082339,-5.695333
1149,3402236087,-0.425622,-0.357740,0.173919,0.812788,0.984656,0.274718,-6.897858
1150,3402269421,-0.388841,-0.303595,0.204483,0.845473,-1.008925,-1.650591,-6.652620
1151,3402302755,-0.367458,-0.228401,0.218243,0.874747,-3.166298,-3.694173,-4.771173
1152,3402336089,-0.356510,-0.133281,0.205949,0.901513,-5.252686,-4.079819,-3.200389
1153,3402369423,-0.347003,-0.032303,0.184529,0.918966,-6.759432,-5.900379,-1.887498
1154,3402402757,-0.332517,0.057107,0.168637,0.926141,-8.061424,-4.730492,7.078188
1155,3402436091,-0.320566,0.130701,0.143607,0.927112,-5.622910,-4.249366,7.262209
1156,3402469425,-0.312770,0.177938,0.111670,0.926308,-5.779851,3.145488,5.438434
1157,3402502759,-0.323024,0.192866,0.113780,0.919520,-7.410057,4.035934,1.156816
1158,3402536093,-0.344780,0.185202,0.139575,0.909588,-4.678384,2.660435,3.820460
1159,3402569427,-0.376423,0.156589,0.171098,0.896948,-1.867870,1.031872,7.296392
1160,3402602761,-0.412463,0.116535,0.193822,0.882457,-0.994801,2.248337,4.320458
1161,3402636095,-0.446680,0.072816,0.210475,0.866533,0.957337,0.577645,1.150832
1162,3402669429,-0.477204,0.033839,0.212246,0.852107,0.951662,1.246172,1.555200
1163,3402702763,-0.504406,-0.001918,0.208357,0.837951,-0.164451,0.991958,0.793371
1164,3402736097,-0.527589,-0.035983,0.206402,0.823261,1.481219,-0.308850,-1.380999
1165,3402769431,-0.547616,-0.062999,0.204490,0.808911,0.795288,0.541997,-1.885894
1166,3402802765,-0.562552,-0.085344,0.208749,0.795412,1.635570,0.101580,-2.427970
1167,3402836099,-0.574335,-0.099924,0.213189,0.784034,2.735153,0.332664,-2.749058
1168,3402869433,-0.585888,-0.105961,0.215188,0.774084,0.275672,0.423556,-2.084640
1169,3402902767,-0.594913,-0.110227,0.219840,0.765247,2.593988,-1.171667,-1.856729
1170,3402936101,-0.604812,-0.106144,0.215667,0.759229,0.374408,-1.462310,-0.000847
1171,3402969435,-0.613567,-0.101144,0.209299,0.754654,-1.480972,-0.873952,0.046670
1172,3403002769,-0.621083,-0.098671,0.205148,0.749959,1.129150,-0.884575,-0.435353
1173,3403036103,-0.629601,-0.092158,0.198481,0.745466,-1.064655,0.402549,-1.713078
1174,3403069437,-0.637847,-0.083134,0.193964,0.740690,-0.290814,0.155776,-0.551968
1175,3403102771,-0.644163,-0.071097,0.193606,0.736560,-0.723917,0.579914,1.540691
1176,3403136105,-0.647209,-0.056534,0.204391,0.732225,2.700483,0.202326,0.387540
1177,3403169439,-0.650493,-0.033455,0.213416,0.728147,1.653739,-1.371619,-3.925414
1178,3403202773,-0.646908,-0.006417,0.212403,0.732365,2.754277,-2.165898,-1.995302
1179,3403236107,-0.636627,0.013215,0.209838,0.741960,1.197039,-2.109076,0.690533
1180,3403269441,-0.621081,0.021063,0.213364,0.753853,3.381308,-1.805470,0.227634
1181,3403302775,-0.601832,0.026216,0.215031,0.768685,2.308300,-1.222197,1.469154
1182,3403336109,-0.576927,0.028160,0.218706,0.786470,3.291044,-2.164521,0.530432
1183,3403369443,-0.546685,0.031896,0.219946,0.807308,2.897462,-2.544646,-0.089725
1184,3403402777,-0.510452,0.037881,0.217950,0.830967,1.267630,-2.478027,0.689111
1185,3403436111,-0.467240,0.043162,0.215973,0.856262,0.333781,-2.892052,0.454621
1186,3403469445,-0.418555,0.048848,0.213060,0.881496,-0.402395,-3.260207,0.722618
1187,3403502779,-0.368296,0.054826,0.206277,0.904879,-2.582394,-1.039857,0.902413
1188,3403536113,-0.316834,0.059587,0.200943,0.925036,-3.690045,1.070382,0.744668
1189,3403569447,-0.263664,0.066715,0.193624,0.942627,-2.191868,-0.690897,-0.296006
1190,3403602781,-0.213164,0.075509,0.191257,0.955136,-2.764838,0.391094,-2.496161
1191,3403636115,-0.174349,0.090348,0.191776,0.961596,-2.826906,1.289385,-2.843958
1192,3403669449,-0.150299,0.113076,0.180580,0.965412,-4.210342,3.690943,-1.447554
1193,3403702783,-0.140521,0.138499,0.162886,0.966719,-4.763461,3.438695,-2.367401
1194,3403736117,-0.143588,0.160428,0.153053,0.964481,-5.811318,7.074111,0.377254
1195,3403769451,-0.161656,0.174842,0.153376,0.959050,-5.924508,3.382160,1.974513
1196,3403802785,-0.186752,0.181004,0.158853,0.952435,-7.247890,1.220876,1.871507
1197,3403836119,-0.217642,0.171018,0.182538,0.943435,-5.525878,-1.764727,2.950844
1198,3403869453,-0.256545,0.147497,0.213607,0.931024,-3.823490,-2.880523,2.813959
1199,3403902787,-0.301765,0.116460,0.244663,0.914067,-3.564463,-2.055085,0.573717
1200,3403936121,-0.351864,0.079498,0.277982,0.890282,-2.330236,-3.645157,0.581903
1201,3403969455,-0.405526,0.040795,0.301704,0.861896,-1.053270,-4.023155,0.846689
1202,3404002789,-0.460702,-0.000867,0.320957,0.827493,-0.317176,-4.666154,0.366045
1203,3404036123,-0.512763,-0.048285,0.339190,0.787209,2.540071,-4.510902,0.516955
1204,3404069457,-0.560484,-0.095938,0.350364,0.744246,4.040960,-3.683736,0.151574
1205,3404102791,-0.603594,-0.140362,0.351938,0.701510,5.185619,-1.268761,-0.849962
1206,3404136125,-0.640329,-0.184998,0.351941,0.657188,4.175682,1.106598,-0.851519
1207,3404169459,-0.673427,-0.224900,0.345906,0.613408,3.684371,2.485083,-0.141419
1208,3404202793,-0.704409,-0.254498,0.331623,0.573645,1.307517,3.574382,-0.567160
1209,3404236127,-0.730463,-0.280593,0.316312,0.536323,-0.509143,4.101560,-0.242198
1210,3404269461,-0.751267,-0.306290,0.302507,0.500278,-1.350143,3.775371,-0.477804
1211,3404302795,-0.766722,-0.332988,0.290791,0.465511,-1.888574,3.326209,0.226159
1212,3404336129,-0.778069,-0.357081,0.280167,0.434296,-1.388590,3.324626,0.450386
1213,3404369463,-0.788616,-0.371534,0.269246,0.409338,-0.748279,3.990524,0.542607
1214,3404402797,-0.799534,-0.375018,0.258141,0.391758,-0.153042,2.473287,1.397876
1215,3404436131,-0.809189,-0.369442,0.249982,0.382411,1.638520,3.174603,0.730693
1216,3404469465,-0.819081,-0.354776,0.242638,0.379963,1.882520,0.956274,-0.411842
1217,3404502799,-0.827556,-0.335743,0.235150,0.383585,2.084016,0.057878,-0.326880
1218,3404536133,-0.832361,-0.316324,0.231174,0.392017,1.417859,-1.031618,-0.851585
1219,3404569467,-0.831382,-0.303203,0.235604,0.401705,1.933472,-1.139869,-0.158613
1220,3404602801,-0.831825,-0.280952,0.240347,0.413969,3.467045,-0.323668,0.776223
1221,3404636135,-0.830029,-0.256788,0.247080,0.429032,3.648233,-0.738448,-3.577103
1222,3404669469,-0.825670,-0.228070,0.254580,0.448828,6.161559,0.367506,-3.097100
1223,3404702803,-0.817161,-0.200714,0.264989,0.470901,3.096842,-3.346870,-3.766675
1224,3404736137,-0.802226,-0.183322,0.277334,0.495900,2.319078,-1.526200,-2.028051
1225,3404769471,-0.786109,-0.164018,0.289292,0.521004,0.961809,-1.781281,-1.255338
1226,3404802805,-0.769999,-0.147881,0.302841,0.541778,3.309311,-1.177651,2.054939
1227,3404836139,-0.759135,-0.123658,0.303126,0.562621,-0.483100,-1.198662,2.746889
1228,3404869473,-0.736886,-0.126050,0.318870,0.582612,1.825336,1.418071,1.760078
1229,3404902807,-0.705061,-0.123901,0.327670,0.616582,8.193555,1.343064,5.627157
1230,3404936141,-0.669028,-0.109408,0.317506,0.663043,0.339802,1.327285,3.525056
1231,3404969475,-0.621583,-0.114336,0.321094,0.705312,-2.384016,3.334010,3.130637
1232,3405002809,-0.569101,-0.118523,0.329545,0.743963,0.167524,2.187040,0.043809
1233,3405036143,-0.517040,-0.117293,0.332041,0.780170,-1.353866,0.922436,0.384635
1234,3405069477,-0.466632,-0.115493,0.329299,0.812701,-1.112905,0.296549,1.441880
1235,3405102811,-0.417140,-0.113385,0.321272,0.842571,-0.616425,-0.684295,0.172048
1236,3405136145,-0.368939,-0.110599,0.307539,0.870101,-0.508728,-2.418532,0.264001
1237,3405169479,-0.324771,-0.105114,0.290866,0.893799,-1.445901,-2.028281,-2.002624
1238,3405202813,-0.285618,-0.095930,0.275830,0.912766,-1.874378,-0.887152,-3.488114
1239,3405236147,-0.254831,-0.079170,0.264479,0.926741,-1.523063,0.017050,-5.064383
1240,3405269481,-0.236479,-0.050312,0.246066,0.938617,-1.457882,-1.286357,-4.899388
1241,3405302815,-0.230945,-0.006260,0.218430,0.948113,-2.648872,0.440153,-3.805301
1242,3405336149,-0.234963,0.042589,0.216556,0.946618,-3.632264,0.735082,-2.649199
1243,3405369483,-0.252585,0.088076,0.224401,0.937066,-4.751528,-1.522464,-2.450726
1244,3405402817,-0.275072,0.131239,0.211334,0.928684,-7.652485,0.409068,-0.317030
1245,3405436151,-0.301196,0.154998,0.217761,0.915337,-7.929853,-0.308848,3.590661
1246,3405469485,-0.332424,0.155657,0.233536,0.900406,-5.830922,0.547391,7.252625
1247,3405502819,-0.367279,0.137809,0.262048,0.881731,-5.939679,-0.700527,1.476954
1248,3405536153,-0.403442,0.108344,0.299807,0.857681,-2.110806,-2.306560,0.302653
1249,3405569487,-0.443679,0.080461,0.327257,0.830411,0.053077,-1.074504,0.925476
1250,3405602821,-0.488207,0.052852,0.352901,0.796446,1.197602,-0.158873,0.028433
1251,3405636155,-0.531963,0.025776,0.374664,0.758935,5.162262,-0.775156,1.599528
1252,3405669489,-0.573209,0.011768,0.373588,0.729198,4.054552,0.269855,2.388103
1253,3405702823,-0.608618,-0.002276,0.370246,0.701783,2.893533,0.663002,0.687407
1254,3405736157,-0.636761,-0.022753,0.372126,0.674940,4.172264,0.548972,0.776994
1255,3405769491,-0.660587,-0.041299,0.370744,0.651516,3.120434,0.700034,1.045977
1256,3405802825,-0.682696,-0.054695,0.363878,0.631294,1.497107,0.545098,1.074207
1257,3405836159,-0.701540,-0.068681,0.357322,0.612740,0.860168,0.165420,-0.575515
1258,3405869493,-0.715402,-0.084525,0.350417,0.598555,2.952367,0.711125,0.491590
1259,3405902827,-0.726283,-0.093161,0.337623,0.591480,0.409182,1.601767,-1.232772
1260,3405936161,-0.733201,-0.100983,0.326080,0.588129,-0.089989,2.381736,-1.363125
1261,3405969495,-0.739529,-0.102222,0.312171,0.587538,-0.457924,2.548292,0.413200
1262,3406002829,-0.747051,-0.100521,0.299048,0.585137,-2.006200,0.959502,-2.227330
1263,3406036163,-0.753019,-0.106138,0.291066,0.580502,-0.864629,0.751246,0.136415
1264,3406069497,-0.758384,-0.105405,0.282131,0.578057,-1.007772,1.339012,-0.835645
1265,3406102831,-0.763644,-0.098470,0.277086,0.574787,-0.291805,0.736063,-1.393884
1266,3406136165,-0.767772,-0.094282,0.284885,0.566111,-2.559885,-0.373574,-1.879272
1267,3406169499,-0.768398,-0.087350,0.310893,0.552526,-0.111037,-0.469370,-0.852898
1268,3406202833,-0.765674,-0.068332,0.339931,0.541779,3.635655,-2.116682,-4.518450
1269,3406236167,-0.757706,-0.034371,0.351161,0.548990,6.070391,-1.239383,2.148459
1270,3406269501,-0.741759,-0.004011,0.350716,0.571647,1.696961,-1.099367,3.659726
1271,3406302835,-0.720637,0.008297,0.356261,0.594723,3.708111,1.362622,1.090786
1272,3406336169,-0.696737,0.018444,0.360951,0.619626,3.047301,1.624925,1.030955
1273,3406369503,-0.669199,0.028802,0.364095,0.647134,2.468813,0.853892,0.571860
1274,3406402837,-0.636566,0.036792,0.367348,0.677119,2.926567,-0.212357,1.948897
1275,3406436171,-0.598292,0.046461,0.363245,0.712703,2.472572,-1.675592,2.885368
1276,3406469505,-0.554704,0.052938,0.353237,0.751484,0.531840,-2.125989,2.538671
1277,3406502839,-0.507953,0.053438,0.342180,0.788699,-0.358830,-2.596668,1.868301
1278,3406536173,-0.459594,0.053138,0.326127,0.824376,-1.699353,-2.356108,0.940633
1279,3406569507,-0.411128,0.053209,0.308706,0.856065,-2.631692,-1.874991,-0.885027
1280,3406602841,-0.364064,0.054743,0.292205,0.882656,-2.739615,-1.933673,-1.258029
1281,3406636175,-0.321793,0.060072,0.278493,0.902932,-3.346796,-0.858664,-3.059286
1282,3406669509,-0.286037,0.071900,0.267554,0.917296,-2.847267,0.137377,-3.759197
1283,3406702843,-0.258555,0.094953,0.257408,0.926217,-2.827497,1.250669,-3.889529
1284,3406736177,-0.239952,0.130231,0.245213,0.930235,-2.608654,1.682034,-3.089428
1285,3406769511,-0.229481,0.171749,0.227437,0.930655,-4.192900,-1.072991,-2.796620
1286,3406802845,-0.226690,0.211122,0.200253,0.929485,-4.285071,0.628830,1.729687
1287,3406836179,-0.231951,0.240858,0.170821,0.926828,-4.135003,5.499739,4.163685
1288,3406869513,-0.251422,0.254810,0.165176,0.919011,-4.854901,1.317412,2.373046
1289,3406902847,-0.276547,0.256809,0.165649,0.911118,-2.765434,0.000425,3.925161
1290,3406936181,-0.303435,0.247885,0.164722,0.905180,-0.875978,1.789588,6.777580
1291,3406969515,-0.331711,0.228020,0.163342,0.900721,0.310142,0.599152,5.833045
1292,3407002849,-0.358105,0.203562,0.155221,0.897906,0.227457,0.149517,3.415511
1293,3407036183,-0.381379,0.178432,0.139990,0.896169,0.635155,0.004601,2.118881
1294,3407069517,-0.402411,0.153488,0.121063,0.894346,0.509469,0.359546,2.183243
1295,3407102851,-0.421865,0.128339,0.100991,0.891832,0.652411,-0.637913,1.164951
1296,3407136185,-0.439262,0.106701,0.076339,0.888730,1.016710,-1.246994,-0.572708
1297,3407169519,-0.455178,0.090341,0.048253,0.884493,0.520989,-1.094649,-0.445593
1298,3407202853,-0.469365,0.075362,0.024447,0.879445,1.036794,-0.896129,-0.472280
1299,3407236187,-0.481036,0.061382,0.005350,0.874536,1.831103,-0.942673,-1.868518
1300,3407269521,-0.490959,0.053668,-0.018402,0.869336,1.445191,0.606484,-2.519829
1301,3407302855,-0.500502,0.051607,-0.042875,0.863134,0.131040,1.507594,-1.951520
1302,3407336189,-0.511151,0.050926,-0.062131,0.855731,0.756795,1.643482,-2.702606
1303,3407369523,-0.524804,0.053161,-0.080664,0.845726,-0.388686,1.658261,-1.879934
1304,3407402857,-0.542099,0.054884,-0.094263,0.833207,-1.031324,1.529080,-1.427790
1305,3407436191,-0.561026,0.054695,-0.100414,0.819866,-1.136221,0.475187,-1.586431
1306,3407469525,-0.579650,0.054788,-0.103366,0.806427,0.129668,-1.514863,-1.060859
1307,3407502859,-0.595132,0.057694,-0.106142,0.794498,0.372707,-2.404387,-0.904714
1308,3407536193,-0.604690,0.059295,-0.098651,0.788103,1.887294,-2.455055,-1.000687
1309,3407569527,-0.607953,0.065686,-0.089185,0.786212,2.064451,-2.689059,-2.668348
1310,3407602861,-0.604783,0.074720,-0.082329,0.788594,1.753824,-3.001576,-4.774876
1311,3407636195,-0.594138,0.082769,-0.081201,0.795965,1.245845,-2.933591,-4.028086
1312,3407669529,-0.576938,0.086489,-0.078919,0.808356,2.122739,-1.532094,-1.328718
1313,3407702863,-0.556879,0.082581,-0.065799,0.823857,2.190221,-1.318731,-0.654014
1314,3407736197,-0.534895,0.075631,-0.047260,0.840201,2.406203,-0.072626,-2.540417
1315,3407769531,-0.510746,0.071859,-0.028580,0.856249,1.962212,-0.229504,0.057328
1316,3407802865,-0.484241,0.067997,-0.009723,0.872237,1.501671,-2.314009,1.300730
1317,3407836199,-0.453827,0.063248,0.009139,0.888798,1.972567,-0.503549,1.366307
1318,3407869533,-0.420025,0.058294,0.027147,0.905234,1.255125,-2.131266,2.959165
1319,3407902867,-0.381698,0.050870,0.041549,0.921953,-1.008843,-1.892717,2.309442
1320,3407936201,-0.338196,0.041152,0.055025,0.938566,-0.116601,-0.821253,1.143118
1321,3407969535,-0.294894,0.034825,0.064773,0.952698,-1.425990,0.395907,-0.223561
1322,3408002869,-0.252589,0.031863,0.074459,0.964180,-1.741541,0.107734,-1.398596
1323,3408036203,-0.214068,0.034663,0.083727,0.972608,-1.405124,0.807999,-2.585300
1324,3408069537,-0.181889,0.045914,0.093236,0.977814,-1.638266,0.679742,-3.750239
1325,3408102871,-0.158342,0.067835,0.097083,0.980258,-2.594351,2.331542,-3.421600
1326,3408136205,-0.142587,0.101653,0.094228,0.980031,-3.326376,2.624679,-1.534517
1327,3408169539,-0.135321,0.142184,0.091251,0.976294,-4.623067,2.406439,1.226499
1328,3408202873,-0.136741,0.179995,0.082668,0.970605,-4.752822,1.627038,3.016563
1329,3408236207,-0.146203,0.207515,0.074286,0.964390,-4.716728,3.896457,1.824456
1330,3408269541,-0.167644,0.218930,0.095017,0.956526,-2.404957,1.408097,7.535124
1331,3408302875,-0.197391,0.216980,0.115475,0.949013,-2.677879,3.328307,6.086742
1332,3408336209,-0.234189,0.202880,0.127101,0.942255,-4.457438,0.178404,4.437704
1333,3408369543,-0.273081,0.171002,0.159233,0.933185,-1.227844,-0.087735,5.695979
1334,3408402877,-0.313921,0.128666,0.184887,0.922345,0.059057,-1.005383,5.515428
1335,3408436211,-0.354528,0.080931,0.195392,0.910816,-1.594755,-1.100887,3.031989
1336,3408469545,-0.391869,0.025829,0.198703,0.897938,-0.959569,-1.958082,2.000095
1337,3408502879,-0.426289,-0.030375,0.192412,0.883367,-0.214030,-1.841536,1.609268
1338,3408536213,-0.458107,-0.082941,0.175580,0.867430,-0.489222,-1.855457,0.480241
1339,3408569547,-0.487713,-0.129126,0.148310,0.850571,0.614328,-1.432454,-0.276074
1340,3408602881,-0.515037,-0.168534,0.116179,0.832370,1.088361,-0.908300,-0.790174
1341,3408636215,-0.539944,-0.199824,0.080600,0.813658,0.940874,-0.449721,-1.321400
1342,3408669549,-0.563731,-0.220553,0.040469,0.794941,1.682604,-0.444380,-1.113863
1343,3408702883,-0.586474,-0.233152,-0.000921,0.775688,1.466459,0.162020,-0.902095
1344,3408736217,-0.604902,-0.243491,-0.038421,0.757188,2.071218,-1.052383,-0.024805
1345,3408769551,-0.615501,-0.261776,-0.062688,0.740747,1.011177,0.910425,-0.740255
1346,3408802885,-0.624736,-0.276608,-0.086398,0.725074,2.224886,2.568227,-1.154170
1347,3408836219,-0.640394,-0.280419,-0.115514,0.705635,-1.284907,3.483716,-1.019531
1348,3408869553,-0.656140,-0.282639,-0.135332,0.686502,-0.452822,4.178337,-2.024198
1349,3408902887,-0.672757,-0.280758,-0.145993,0.668778,-0.138711,2.865433,-1.700086
1350,3408936221,-0.689448,-0.275905,-0.149076,0.652931,0.389420,2.043228,-2.129233
1351,3408969555,-0.703080,-0.271936,-0.141926,0.641553,0.410104,0.635792,-1.900248
1352,3409002889,-0.704023,-0.286192,-0.113603,0.639956,2.676276,-1.183959,-2.476044
1353,3409036223,-0.694814,-0.308051,-0.079210,0.645034,4.202511,-0.139343,-2.388707
1354,3409069557,-0.671941,-0.337834,-0.037757,0.657983,6.461152,1.634058,-3.127714
1355,3409102891,-0.647944,-0.349039,-0.012880,0.676889,11.567079,-0.432616,-2.357821
1356,3409136225,-0.623382,-0.340796,-0.008003,0.703699,7.367645,-0.590763,-3.588832
1357,3409169559,-0.582591,-0.337203,0.008076,0.739474,4.901193,-0.676916,-2.720072
1358,3409202893,-0.537655,-0.325373,0.024020,0.777487,4.852449,-0.362550,-3.490602
1359,3409236227,-0.492980,-0.304256,0.039063,0.814173,-0.514661,-0.132928,-4.091454
1360,3409269561,-0.442595,-0.284413,0.071118,0.847446,-1.283870,0.548121,-2.725573
1361,3409302895,-0.401513,-0.253891,0.099442,0.874324,0.942127,-1.870740,-2.533509
1362,3409336229,-0.373606,-0.213811,0.109693,0.895921,-4.744823,-0.908442,0.176556
1363,3409369563,-0.340245,-0.184791,0.140199,0.911282,-4.487061,0.704169,2.138467
1364,3409402897,-0.308757,-0.160037,0.171181,0.921824,-0.849930,-4.358855,3.086019
1365,3409436231,-0.282560,-0.135221,0.185156,0.931449,-2.040487,-0.855964,1.691002
1366,3409469565,-0.256742,-0.111982,0.195270,0.939903,-1.525026,-0.209556,-0.589378
1367,3409502899,-0.231925,-0.088598,0.203924,0.946985,-2.453652,1.137483,-1.169739
1368,3409536233,-0.207534,-0.064764,0.225733,0.949623,-1.078718,-1.502099,-0.032166
1369,3409569567,-0.192898,-0.031911,0.222998,0.955012,-2.730005,0.306075,-0.514804
1370,3409602901,-0.183341,0.006754,0.205031,0.961409,-3.900014,1.718250,-0.496899
1371,3409636235,-0.180980,0.045093,0.202877,0.961280,-4.371436,1.362330,-0.204538
1372,3409669569,-0.188900,0.083530,0.200472,0.957682,-4.789692,0.904901,0.131335
1373,3409702903,-0.203502,0.124106,0.187812,0.952846,-5.189362,1.328784,1.354946
1374,3409736237,-0.227389,0.163674,0.186305,0.941701,-5.085091,1.045837,2.704185
1375,3409769571,-0.259323,0.196596,0.181017,0.928084,-6.205344,-2.797257,-0.119390
1376,3409802905,-0.292805,0.214443,0.188835,0.912483,-4.913890,0.733576,5.631762
1377,3409836239,-0.331960,0.213793,0.216619,0.892847,-4.984574,-2.097353,1.194513
1378,3409869573,-0.372611,0.201559,0.240060,0.873448,-2.215753,-4.279757,4.491296
1379,3409902907,-0.416136,0.166120,0.279577,0.849162,-1.056255,-3.928056,4.379267
1380,3409936241,-0.459491,0.116344,0.320566,0.820106,2.722093,-2.920888,4.013077
1381,3409969575,-0.501368,0.066038,0.344706,0.790855,2.365384,-1.486514,1.847016
1382,3410002909,-0.541564,0.014495,0.354731,0.762016,2.313020,-1.450406,2.096071
1383,3410036243,-0.580644,-0.043712,0.359419,0.729222,1.473448,-0.734541,0.795300
1384,3410069577,-0.616503,-0.109718,0.362851,0.690094,0.908871,0.618783,1.015348
1385,3410102911,-0.649233,-0.171806,0.356988,0.649263,0.512230,1.649087,-0.833789
1386,3410136245,-0.678417,-0.226888,0.341700,0.609523,0.986184,2.859186,-0.981004
1387,3410169579,-0.703287,-0.274759,0.321175,0.571617,0.764043,2.818670,-0.925855
1388,3410202913,-0.724446,-0.313838,0.295813,0.537757,1.535087,2.845726,-0.633974
1389,3410236247,-0.743321,-0.340736,0.266744,0.510123,-0.250665,2.391732,-0.289107
1390,3410269581,-0.753563,-0.370027,0.247437,0.483738,0.199630,1.864614,-0.553607
1391,3410302915,-0.757014,-0.397925,0.237052,0.460864,1.636020,2.601302,-1.206294
1392,3410336249,-0.760051,-0.416528,0.227672,0.443842,0.563412,1.543347,-0.671788
1393,3410369583,-0.760755,-0.430991,0.221892,0.431586,1.737437,2.050452,0.373741
1394,3410402917,-0.765886,-0.431509,0.216106,0.424878,1.468361,2.199787,0.549272
1395,3410436251,-0.771827,-0.424245,0.213392,0.422808,0.609944,2.178398,-1.222153
1396,3410469585,-0.776751,-0.415983,0.215153,0.421105,-0.122811,2.127912,-3.322536
1397,3410502919,-0.776741,-0.415179,0.225986,0.416214,-0.468017,0.503983,-3.064828
1398,3410536253,-0.775354,-0.416446,0.242164,0.408362,1.610151,0.365805,-1.226316
1399,3410569587,-0.778090,-0.409153,0.257137,0.401316,0.800793,-0.847749,-2.239399
1400,3410602921,-0.783566,-0.394696,0.270711,0.396180,0.445651,-1.826594,-1.578609
1401,3410636255,-0.798941,-0.354200,0.278476,0.398361,2.670057,-1.783798,2.006802
1402,3410669589,-0.816393,-0.290106,0.282720,0.411599,4.853667,-2.138684,1.284784
1403,3410702923,-0.822487,-0.241454,0.291443,0.424594,4.794836,-3.112965,-4.264863
1404,3410736257,-0.818516,-0.216158,0.301494,0.438650,1.485170,-5.733801,-1.717670
1405,3410769591,-0.806775,-0.225982,0.318844,0.443158,1.820253,-2.868445,0.692690
1406,3410802925,-0.797301,-0.236667,0.336865,0.441392,1.821402,-0.738467,-0.434702
1407,3410836259,-0.785466,-0.243980,0.358122,0.441893,4.729280,1.532872,0.656809
1408,3410869593,-0.767874,-0.245294,0.382807,0.451292,2.665851,2.979286,0.977084
1409,3410902927,-0.743793,-0.236889,0.409146,0.472503,1.424380,4.965305,4.077359
1410,3410936261,-0.716545,-0.223136,0.431923,0.500221,-1.181970,5.396394,4.476820
1411,3410969595,-0.687302,-0.212531,0.449087,0.529880,-0.535439,5.452279,3.224342
1412,3411002929,-0.654259,-0.205752,0.462174,0.562149,0.028620,5.434055,3.025307
1413,3411036263,-0.617019,-0.194367,0.469262,0.601088,1.379907,3.620199,2.809505
1414,3411069597,-0.575792,-0.176210,0.464765,0.649162,1.480920,1.300718,3.017693
1415,3411102931,-0.529006,-0.160190,0.453328,0.699278,1.975154,-0.490785,3.360123
1416,3411136265,-0.479837,-0.143131,0.432870,0.749599,1.699555,-2.128286,1.589913
1417,3411169599,-0.429239,-0.125513,0.404242,0.797868,0.841565,-3.124123,0.271532
1418,3411202933,-0.378057,-0.108832,0.372732,0.840419,0.132617,-3.885235,-0.956719
1419,3411236267,-0.327796,-0.092126,0.340516,0.876422,-0.653586,-3.614483,-2.156732
1420,3411269601,-0.280198,-0.074095,0.312257,0.904709,-0.750107,-2.881921,-3.749698
1421,3411302935,-0.238587,-0.050805,0.284409,0.927152,-0.845828,-2.127375,-5.356525
1422,3411336269,-0.205949,-0.018270,0.245747,0.947029,-1.689922,-1.539955,-5.586172
1423,3411369603,-0.182131,0.024797,0.194409,0.963547,-3.093607,-0.584980,-5.679957
1424,3411402937,-0.164681,0.077803,0.131963,0.974380,-5.040965,-0.591327,-3.723763
1425,3411436271,-0.154788,0.136840,0.061453,0.976496,-6.001239,-0.952408,0.616143
1426,3411469605,-0.155659,0.184389,0.000613,0.970451,-7.636397,3.018783,3.369560
1427,3411502939,-0.161538,0.207878,-0.014321,0.964620,-4.753604,4.248334,6.132959
1428,3411536273,-0.177106,0.215700,-0.020716,0.960043,-4.372500,4.072426,3.628138
1429,3411569607,-0.201121,0.212459,-0.006167,0.956231,-4.039589,3.490665,1.078986
1430,3411602941,-0.227366,0.201385,0.009887,0.952709,-1.645153,-0.609837,4.080694
1431,3411636275,-0.257019,0.182653,0.019325,0.948794,-1.025347,-0.324844,4.575968
1432,3411669609,-0.288584,0.157224,0.031371,0.943939,-1.547637,-0.573688,2.400002
1433,3411702943,-0.318763,0.128976,0.041566,0.938100,-0.769541,-1.669229,1.191230
1434,3411736277,-0.347161,0.101933,0.042998,0.931260,-0.170773,-1.231606,0.996047
1435,3411769611,-0.374508,0.075670,0.041270,0.923211,0.031393,-1.213409,0.143456
1436,3411802945,-0.400092,0.050270,0.039286,0.914254,0.460174,-0.790720,-0.715920
1437,3411836279,-0.423642,0.028112,0.034555,0.904736,1.014221,-1.524371,-1.228251
1438,3411869613,-0.445222,0.011882,0.024179,0.895017,0.950055,-0.755618,-1.456124
1439,3411902947,-0.464161,-0.001678,0.016721,0.885594,1.160593,-0.066670,-1.701685
1440,3411936281,-0.480003,-0.012733,0.012640,0.877086,1.644103,0.044956,-1.762255
1441,3411969615,-0.493720,-0.018871,0.007570,0.869386,1.847215,0.183443,-1.893727
1442,3412002949,-0.506201,-0.020205,0.000433,0.862181,1.323818,0.459361,-1.537202
1443,3412036283,-0.517839,-0.019398,-0.006548,0.855236,0.397928,0.984173,-1.097716
1444,3412069617,-0.528655,-0.018105,-0.010064,0.848587,0.245096,1.361320,-1.184168
1445,3412102951,-0.539417,-0.013979,-0.012261,0.841836,0.092017,1.761391,-1.665945
1446,3412136285,-0.551389,-0.004714,-0.015469,0.834094,-0.437063,1.966061,-1.350884
1447,3412169619,-0.564182,0.008909,-0.018947,0.825387,-0.281774,0.862701,-0.372901
1448,3412202953,-0.576875,0.023818,-0.019026,0.816266,-0.561579,0.713888,-0.368872
1449,3412236287,-0.588363,0.038813,-0.015281,0.807523,0.603435,-0.210801,-0.666121
1450,3412269621,-0.597615,0.057324,-0.011530,0.799651,1.672755,-0.233523,-0.347925
1451,3412302955,-0.603040,0.080235,-0.009600,0.793610,3.898843,-1.749558,-0.738526
1452,3412336289,-0.602315,0.100481,-0.003269,0.791905,1.338678,-1.138240,-1.457932
1453,3412369623,-0.593657,0.114157,0.006363,0.796557,4.256168,-2.600114,-2.085060
1454,3412402957,-0.577550,0.126668,0.008331,0.806428,3.363238,-1.482359,1.100164
1455,3412436291,-0.558689,0.130971,0.015563,0.818826,2.475060,0.073283,1.094609
1456,3412469625,-0.537010,0.131297,0.026920,0.832863,3.415531,-0.948062,-0.040870
1457,3412502959,-0.510349,0.133866,0.031572,0.848900,2.077940,-1.670529,0.597062
1458,3412536293,-0.479249,0.132282,0.039079,0.866775,1.034785,-1.822245,1.645370
1459,3412569627,-0.444312,0.127517,0.047192,0.885496,0.956423,-2.305557,1.435189
1460,3412602961,-0.406010,0.122078,0.051155,0.904235,-0.145160,-1.848183,1.461809
1461,3412636295,-0.364996,0.114525,0.055338,0.922282,-1.289159,-1.402580,1.640864
1462,3412669629,-0.322987,0.105070,0.061429,0.938547,-1.915715,-0.831629,0.791521
1463,3412702963,-0.281875,0.094723,0.066950,0.952416,-2.219921,-1.040841,0.371630
1464,3412736297,-0.242415,0.083806,0.072562,0.963821,-2.497460,-0.155800,-0.150420
1465,3412769631,-0.204789,0.074897,0.077569,0.972851,-2.394192,-0.069759,-0.547082
1466,3412802965,-0.170298,0.070264,0.080336,0.979598,-2.696531,1.039256,-1.321486
1467,3412836299,-0.140579,0.070418,0.083297,0.984045,-2.635309,1.897441,-2.050065
