SampleTimeFine,D_Upper_Arm_Acc_X,D_Upper_Arm_Acc_Y,D_Upper_Arm_Acc_Z,L_Wrist_Acc_X,L_Wrist_Acc_Y,L_Wrist_Acc_Z,R_Wrist_Acc_X,R_Wrist_Acc_Y,R_Wrist_Acc_Z,Activity
187494457,0.06513,-0.0207,0.064411,-0.081818,0.067787,-0.093854,-0.119757,-0.32042,0.080263,0
187527791,-0.046171,-0.029225,0.07566,-0.024442,0.094358,-0.069182,-0.252261,-0.35544,0.24609,0
187561125,0.076359,-0.039082,0.128725,-0.070813,0.100664,-0.199053,-0.425926,0.48253,0.268662,0
187594459,0.020553,-0.147627,0.118006,-0.060253,0.030867,-0.125594,-0.677767,0.498764,0.659991,0
187627793,-0.10204,-0.171151,0.259142,-0.108347,0.016114,-0.133312,-0.445277,0.519926,0.656734,0
187661127,0.026211,-0.101152,0.157396,-0.044286,-0.058106,-0.030151,-0.197101,0.539387,0.727771,0
187694461,0.021013,-0.116308,0.103168,-0.081788,-0.011447,-0.054741,0.035646,0.221776,0.562865,0
187727795,0.026127,-0.27576,0.175174,-0.030684,0.008619,-0.289755,0.14596,-0.015304,-0.720217,0
187761129,-0.460997,-0.367377,0.467906,-0.130716,0.119954,-0.232944,0.080288,0.214096,-0.552711,0
187794463,-0.257422,-0.275278,0.608542,-0.04419,0.230175,-0.206416,-0.159103,-0.338869,-0.045056,0
187827797,-0.13527,-0.447494,0.184807,-0.219008,-0.068699,-0.394527,0.104527,0.191348,-0.268311,0
187861131,-0.297519,-0.524697,-0.042056,-0.326486,-0.326,-0.322984,0.269247,-0.108871,-0.674256,0
187894465,-0.323929,-0.464546,-0.162951,-0.390527,-0.312317,-0.319965,0.283206,-0.175709,-1.050549,0
187927799,-0.147674,-0.611822,-0.68068,-0.48275,-0.429233,-0.527367,0.222724,-0.243692,-1.058637,0
187961133,-0.291896,-0.571609,-0.850886,-0.623183,-0.597077,-0.679154,0.250249,-0.373212,-1.026822,0
187994467,-0.301637,-0.398446,-1.077147,-0.736143,-0.86703,-0.43038,0.447419,-0.508354,-1.258454,0
188027801,-0.208094,0.083979,-0.925398,-0.475512,-0.976053,0.419302,0.709304,-0.396647,-0.994584,0
188061135,0.045156,0.613292,-0.249164,-0.039096,-0.687565,0.560961,0.890656,-0.134669,-0.804108,0
188094469,0.304937,0.543696,0.039708,0.066982,-0.332819,0.735916,0.911608,-0.317275,-0.594222,0
188127803,0.639667,0.501993,-0.212177,0.394843,-0.301475,0.745659,0.399013,-0.374731,-0.756845,0
188161137,0.566854,0.501716,0.566053,0.388116,0.202962,0.578279,0.852814,-0.785896,-0.295217,0
188194471,0.546247,0.27499,-0.211823,0.705397,-0.726524,2.242253,1.229655,-0.164432,-0.176085,0
188227805,0.405252,0.21407,-0.481178,0.880873,-0.997106,1.7123,0.68017,-0.491432,0.77769,0
188261139,0.537456,0.337197,-0.097623,0.417982,-0.531176,1.527513,-0.013971,-0.753736,1.33863,0
188294473,0.33136,0.274338,-0.003413,0.277606,0.109179,0.92211,-0.171517,-0.301099,-0.567637,0
188327807,0.181667,0.128324,-0.501557,-0.075666,0.157292,-0.376611,-1.042636,0.491973,-0.000269,0
188361141,0.011611,0.101712,-0.788158,0.43511,0.494599,-1.54395,-2.097779,1.837632,0.931808,0
188394475,0.342573,0.327312,-0.816057,0.143145,1.299232,-2.67983,-1.811636,1.892431,0.585457,0
188427809,0.429571,0.359295,-0.64485,-0.04765,1.89628,-3.26467,-1.818692,1.505704,0.617937,0
188461143,0.36104,0.389545,-1.271715,0.014925,1.57326,-3.905235,-2.027056,1.241422,1.410024,0
188494477,-0.079463,0.142638,-1.711303,0.53141,1.0483,-3.82869,-2.033173,0.982705,0.796311,0
188527811,0.62333,-0.603751,-1.395434,-0.478753,0.894552,-4.311597,-1.351796,0.134697,1.338657,0
188561145,0.504735,-0.023966,-0.885537,0.170786,0.166177,0.398229,-0.372915,0.116015,0.023723,0
188594479,-0.226162,0.303651,-0.508896,1.879576,-0.625967,-1.092858,0.097753,-0.32281,-0.496818,0
188627813,-0.176649,0.219181,0.007583,0.445222,0.076596,-1.335281,0.248122,-0.25199,-1.151967,0
188661147,-0.120448,0.362808,-0.062819,-0.131105,0.601744,-0.218608,0.595391,-0.310884,-1.906963,0
188694481,-0.45152,0.560476,-0.15916,0.370503,-0.046229,2.052039,1.231178,-0.561118,-2.201892,0
188727815,-0.140619,0.185624,0.638031,-0.601537,-0.462778,1.970155,1.400533,-0.755914,-2.221794,0
188761149,0.348493,-0.367931,1.07175,-0.289306,-0.465689,1.095161,2.375635,-1.799366,-1.574458,0
188794483,0.403202,-0.416593,0.332131,-1.269022,-0.333141,0.186519,2.369947,-2.286532,-1.302799,0
188827817,-0.106109,-0.420009,0.607451,-2.135772,0.102121,0.56697,2.521563,-1.739534,-1.084985,0
188861151,-0.340873,-0.279158,-0.294986,-0.279541,-1.2046,2.747681,2.069451,-0.903604,-0.644308,0
188894485,-0.222168,-0.342983,-0.475704,0.975222,-2.099892,1.508143,1.515893,-0.213794,-0.620778,0
188927819,0.374564,0.084688,0.551766,0.330298,-1.194292,1.492666,0.415321,0.147513,0.073699,0
188961153,0.310594,-0.135116,0.1674,-0.480859,-0.100318,1.316771,-0.388631,1.671934,1.072107,0
188994487,0.517963,-0.431306,-0.401623,0.027671,-0.013055,-0.475574,-0.941545,0.102486,0.998674,0
189027821,-0.253812,-0.545883,0.078753,0.559552,0.817749,-1.911492,-2.611347,3.120813,0.470951,0
189061155,-0.033644,0.312029,0.345676,-0.495546,1.29315,-2.962366,-2.551406,2.211769,2.463689,0
189094489,0.581944,1.148291,0.841488,-0.579309,2.172046,-2.997879,-2.574383,1.4559,3.062185,0
189127823,0.497061,0.87698,0.505403,-0.464468,2.080489,-3.054706,-2.210772,1.167157,2.513237,0
189161157,0.203301,0.255851,-0.416487,0.01479,1.614516,-1.892561,-1.332295,0.593445,1.847596,0
189194491,-0.133168,0.274291,-0.864046,0.826207,0.719712,0.859188,-0.395342,0.24558,1.35815,0
189227825,-0.496142,-0.079488,-0.208842,-1.034573,-0.03682,-2.8682,0.63702,0.113547,-0.395366,0
189261159,0.527205,0.269402,-0.393052,-0.29809,0.322368,2.918802,1.657528,-0.032261,-1.179743,0
189294493,0.032356,0.754992,0.303946,1.671777,-1.967825,3.067698,2.138206,-1.441,-3.060259,0
189327827,-0.292575,-0.379495,0.424013,1.124317,-2.520386,2.82859,2.302747,-1.715381,-2.400901,0
189361161,-0.207776,-0.340316,-0.045829,0.181705,-2.192423,3.575209,2.158515,-1.118047,-2.744678,0
189394495,-0.419728,-0.512327,0.491578,-0.063635,-2.08175,2.430263,2.00772,-1.095212,-2.487204,0
189427829,-0.07478,-0.148964,0.588038,0.424101,-1.856025,0.487173,1.143632,-0.8514,-1.278143,0
189461163,-0.486249,-0.180453,0.321563,0.174807,-0.530073,0.270644,0.312256,0.831868,0.901106,0
189494497,-0.388625,0.11849,0.129915,-2.824972,2.222819,-0.623773,-0.703135,0.295389,5.307421,0
189527831,-0.287554,0.780247,0.372005,-2.807582,1.637997,-0.995842,-0.456327,-0.115782,1.942068,0
189561165,-1.088736,0.186474,-0.553823,1.518567,0.598173,-0.841957,-1.060408,5.999972,-3.796177,0
189594499,0.263802,-0.050432,-0.171003,0.740339,-0.085092,-2.719969,-1.853504,3.233939,-0.762473,0
189627833,0.681562,-0.230219,0.52704,-1.563521,0.686507,-2.338706,-1.48961,-0.196363,2.033906,0
189661167,-1.070619,-0.528091,1.138151,-0.897257,0.594286,-1.936355,-1.045216,-1.376614,3.37111,0
189694501,0.117779,-0.358385,0.429863,0.221406,-0.430199,-1.061036,-0.859298,-1.184129,2.01623,0
189727835,0.731668,0.089157,0.518272,0.229991,0.385144,1.266595,-0.338456,-0.060569,1.185556,0
189761169,-0.500961,0.377217,0.817182,1.112077,-0.930885,2.157254,0.444228,-0.21389,-0.14511,0
189794503,-0.38024,-0.518517,0.666189,0.14838,-2.074965,1.061954,1.186688,-1.347796,-0.041196,0
189827837,-0.153447,-0.762872,0.4623,-2.19277,-1.111331,0.802945,2.579414,-0.593715,-0.630672,0
189861171,-0.283385,-0.611466,0.883127,-3.312694,1.154573,-1.824373,2.911843,0.318499,-0.72486,0
189894505,0.068126,0.195128,0.458714,-2.823812,1.905427,2.223428,3.024427,0.694612,-0.311642,0
189927839,0.119099,-0.112526,0.103962,-0.470141,0.982162,2.19895,2.392153,0.394864,0.556755,0
189961173,0.341658,0.288989,0.960322,-0.641272,0.230307,1.519468,1.558744,0.019338,0.082822,0
189994507,0.340543,0.214046,0.804223,-0.595086,0.371989,1.977995,1.633403,0.456056,-0.621042,0
190027841,0.19835,0.090379,0.560295,-0.733502,1.274548,-0.951185,1.43398,3.280291,-1.122902,0
190061175,-0.153398,0.538402,0.444265,-1.524588,1.993768,0.36796,1.354209,2.105486,0.518847,0
190094509,-0.202017,0.423858,-0.290981,-0.227509,1.511045,-1.442616,-0.196474,0.43945,1.561343,0
190127843,0.319239,0.52142,-0.57023,-0.205419,1.121409,-0.28189,-0.278032,0.454972,0.503996,0
190161177,0.145364,0.25386,-0.865451,0.73671,1.181192,0.014377,-1.32764,-1.101258,-0.196777,0
190194511,0.914657,0.112934,-0.368971,0.751282,1.474925,0.040653,-1.734334,-0.877921,-0.260344,0
190227845,0.271528,0.597445,0.670238,2.01848,0.775458,1.72964,-2.56674,-2.138842,1.14498,0
190261179,1.142723,0.779024,1.298298,2.557507,0.0486,2.441792,-2.114016,-0.956212,0.857353,0
190294513,1.082035,0.362642,1.030682,2.778895,-1.120908,0.56026,-2.499222,-1.412124,2.742062,0
190327847,0.685653,0.313776,0.862517,3.261694,-2.160214,0.049855,-3.458013,-1.736361,2.100877,0
190361181,1.198034,0.357704,0.721057,3.094589,-1.802312,-0.180928,-2.901242,-1.2611,1.748623,0
190394515,0.983674,0.271929,0.465948,2.44639,-2.162983,-0.986665,-2.524318,-2.408865,0.796716,0
190427849,0.566217,0.110191,0.473267,2.350325,-2.048261,-1.072322,-2.474599,-1.562686,2.602682,0
190461183,0.542369,0.018975,1.00845,1.681937,-1.439258,-1.903184,-1.803159,-0.458002,2.120364,0
190494517,0.104695,-0.135602,0.843145,1.138856,-0.549288,-0.846579,-2.296603,-0.632889,2.955261,0
190527851,0.316741,-0.378404,0.726722,1.324732,-1.209448,0.638761,-0.135361,0.128127,3.122547,0
190561185,0.206144,0.014146,0.247928,0.975851,-1.428232,1.517849,1.115784,-0.40081,1.91332,0
190594519,0.629599,-0.148259,-0.235656,1.207236,-2.233107,1.377655,1.03232,-1.506109,-0.650681,0
190627853,0.119818,-0.13279,-0.22176,1.034712,-1.949123,1.218577,1.391286,0.058159,-0.491811,0
190661187,0.48752,-0.896399,-0.202269,1.333661,-1.321122,2.743669,1.536372,0.541693,-1.930673,0
190694521,0.74447,-1.042822,-0.095268,-0.775092,0.135256,2.046172,1.161255,-1.586949,-3.467752,0
190727855,-0.080511,-0.250181,0.4709,-1.322551,0.779038,1.912084,1.560539,-0.009907,-1.86889,0
190761189,0.049534,-0.561524,0.476406,-0.297655,0.419717,0.673964,0.661525,1.788697,-1.841829,0
190794523,0.238015,-0.81841,0.157104,-0.909847,1.180036,0.181129,0.830128,1.435614,-0.159684,0
190827857,0.299012,-0.694806,-0.431759,-0.613437,0.931582,0.275283,0.385833,0.445541,0.331141,0
190861191,0.694334,-0.950068,-1.182235,-0.339162,1.091314,0.277435,0.887158,1.08549,1.491522,0
190894525,0.684958,-0.010435,-0.369699,-0.295076,-0.01942,0.599294,0.876946,0.963304,1.463369,0
190927859,-0.68174,-0.332999,0.56183,0.166383,-0.771231,-0.068412,-0.256475,2.57189,1.104989,0
190961193,-0.999685,0.08989,1.878592,0.144607,-1.28408,-0.541185,-1.256563,2.016283,1.844848,0
190994527,-1.814608,-0.163623,2.222589,-3.936896,2.055928,-1.953804,-1.937883,1.461454,1.001008,0
191027861,-0.452112,0.558216,1.09343,-4.442683,3.584043,-1.209528,-2.129798,-0.599547,-0.055264,0
191061195,-0.69321,2.655351,-0.418294,-0.347937,4.658563,1.614287,-1.282654,-2.169724,0.762299,0
191094529,2.078131,0.85556,0.459051,2.990989,1.523882,0.952424,1.504554,-0.359061,-0.570068,0
191127863,1.214717,0.36189,1.301457,3.80343,-0.670425,-1.020074,1.674861,-1.720093,-0.888035,0
191161197,0.358433,-0.728076,2.244555,3.069756,-3.818693,-0.883161,3.234042,-1.54385,-0.944425,0
191194531,-1.496004,-0.998311,1.996339,-0.982152,-2.197218,0.532664,2.005911,-2.00118,-2.991698,0
191227865,-1.759287,-0.434758,1.806556,-3.477252,0.268923,2.517433,1.679936,0.477801,-1.034619,0
191261199,-0.323026,-0.008456,2.337181,-2.805717,1.247452,1.979959,0.68514,0.787345,0.639836,0
191294533,0.721244,-0.244626,1.193028,-0.791379,0.177296,0.416668,0.275496,-1.665836,0.753954,0
191327867,0.371794,-0.172195,1.379467,-2.002427,0.487427,0.550982,0.469915,2.752604,5.839514,0
191361201,-0.335043,-0.01215,0.633717,-1.15777,1.325492,2.125215,-0.311864,3.694842,3.783006,0
191394535,0.771068,0.347844,0.100115,0.177734,-0.178685,1.916071,-0.354475,1.797255,2.724466,0
191427869,0.013787,-0.01756,0.01707,-0.165203,-0.483291,1.008072,-0.712089,0.578077,2.519973,0
191461203,-0.145064,-0.054671,-0.525331,1.727983,-1.082417,-0.28982,0.093853,0.311542,-0.453763,0
191494537,0.125176,0.428106,-0.853808,0.972032,-0.565985,-1.432992,-0.285583,-0.253799,-2.154187,0
191527871,0.52952,0.77637,-1.038485,0.766075,-0.057862,-1.071676,-0.258996,-1.526231,-3.441724,0
191561205,-0.185186,0.347478,-0.684343,1.146777,-0.66569,-0.496009,0.551841,-1.573508,-2.001452,0
191594539,-0.621013,-0.164297,-0.902596,-0.029073,-0.108227,-0.982849,1.22964,-1.832434,-1.851479,0
191627873,-0.248184,0.458236,-0.344197,0.526953,0.786129,-1.400391,1.781897,-2.14902,-1.771057,0
191661207,-0.565672,1.309232,-0.882337,0.964219,2.737573,-3.440152,2.411998,-4.750404,-3.7516,0
191694541,0.846855,1.570647,-0.714086,-1.326195,3.894491,-3.526893,0.682692,-2.279292,0.665617,0
191727875,0.393679,-0.048961,1.320168,-4.162588,1.289635,-0.87624,-0.263059,1.851327,1.332392,0
191761209,1.084185,-0.897304,2.01198,-0.201891,-1.190216,2.493456,-2.320478,2.077227,4.220946,0
191794543,-0.322714,-1.687415,0.336246,2.851552,-2.541844,3.365612,-3.891201,3.935667,5.030957,0
191827877,0.056117,-0.774,-0.064979,1.220792,-3.087293,4.113483,-3.776937,4.133893,5.613632,0
191861211,0.513266,0.151348,-0.266311,0.681359,-2.263646,3.754405,-2.170552,2.867243,3.418938,0
191894545,0.698112,0.599061,-0.232288,-1.296299,-0.458181,2.3311,-0.32665,0.972518,1.289956,0
191927879,0.522218,0.6463,0.108091,-1.080179,0.726786,1.130103,1.048725,-0.227233,-0.76618,0
191961213,0.2139,0.136452,-0.901938,0.810149,-0.260405,-0.561266,1.60063,-0.01583,-3.026103,0
191994547,-0.255438,0.055743,-0.895144,0.886292,-0.432012,-1.145555,1.490273,-1.334009,-3.932341,0
192027881,-0.364155,-0.111653,-0.319035,0.058093,0.453953,-2.082193,1.470391,-2.147192,-4.075487,0
192061215,-0.098712,0.001909,-0.508232,-0.900989,0.62869,-1.704091,1.519792,-1.487058,-2.917132,0
192094549,-0.112504,-0.243875,-0.727148,-0.52205,0.200695,-1.657783,0.999278,-0.842081,-1.294132,0
192127883,-0.143738,-0.253025,-0.121819,0.240682,0.103041,-1.666413,0.308369,-0.009294,0.093155,0
192161217,0.09532,-0.185349,-0.102999,0.09632,0.42646,-0.529845,-0.494392,1.297597,1.85056,0
192194551,0.183662,-0.09801,0.006758,-0.154981,0.386299,-1.049497,-1.869862,2.134762,3.38346,0
192227885,-0.038954,0.010153,0.350361,0.74047,0.840268,-2.891777,-1.87952,1.047886,2.23119,0
192261219,0.580192,0.438199,-0.065744,-1.049233,1.589061,-0.599876,0.081213,-0.477783,-0.156196,0
192294553,0.549868,0.119263,0.509453,-1.127489,1.77546,-1.085307,0.489582,-0.661821,0.476013,0
192327887,-0.622186,0.23012,0.401623,0.944824,0.430882,0.958072,-0.025682,-0.092845,-0.2846,0
192361221,0.031227,0.140337,0.067393,1.054559,-1.098504,2.126933,0.0961,-0.182231,-0.687373,0
192394555,0.224159,-0.13095,0.684519,-2.695487,0.043624,2.283539,0.483307,-0.000773,-1.374755,0
192427889,0.602945,0.026515,0.390932,-2.331813,1.134364,-0.54617,0.374446,0.169072,-0.333962,0
192461223,-0.739042,0.143559,-0.399677,-0.284528,0.400197,0.777189,0.208761,-0.223099,0.158312,0
192494557,-0.798585,0.619408,-0.163359,1.494531,-0.391686,-0.030162,0.529285,-0.618274,-0.451012,0
192527891,0.650513,0.954086,0.001727,1.773236,0.333854,-1.452218,1.536748,-1.009074,-2.820562,0
192561225,0.634618,0.82377,-0.940592,-0.154378,0.340842,-0.000274,0.426618,0.88982,1.919754,0
192594559,-0.213817,-7e-06,-1.25046,-0.764663,-0.607524,0.669602,0.041146,-2.250394,0.799582,0
192627893,-0.236948,-0.773985,-0.173963,0.134773,-2.007469,0.369864,0.30811,0.317629,-1.077846,0
192661227,-0.183057,-0.730217,-0.13991,-0.640425,-1.975034,1.938399,-0.758361,-0.123812,1.597483,0
192694561,-0.23889,-0.421145,0.267401,0.504968,-1.202886,0.70903,-0.227248,0.370465,0.0803,0
192727895,-0.243955,-0.085038,-0.024908,-0.47329,-0.745957,0.833449,-0.256219,0.67625,0.039167,0
192761229,0.350385,-0.18276,-0.828749,0.275946,-0.089083,-0.964045,-0.993468,0.574455,0.315341,0
192794563,0.299398,-0.065844,-0.240428,-0.316692,0.276937,-1.374181,-0.701818,1.123083,0.626756,0
192827897,0.097989,-0.106997,-0.2654,0.020077,0.59859,-1.826785,-0.837535,0.830577,-0.230275,0
192861231,0.024382,-0.089931,-0.642815,0.40705,0.156982,-0.249475,-0.8562,0.899815,-0.071935,0
192894565,0.362257,0.444903,-0.375023,1.004522,0.01776,-0.338545,-0.471242,0.546296,0.099243,0
192927899,0.148332,0.157742,-0.246862,-0.521314,0.467671,-0.724316,-0.095721,0.228042,-0.559746,0
192961233,-0.159736,-0.09348,-0.651262,-0.784503,0.554759,-0.636868,0.201701,0.209352,-1.3528,0
192994567,-0.10951,0.071531,-0.689358,-0.924032,0.707282,-0.800915,0.466972,-0.180017,-1.238856,0
193027901,0.009967,0.061485,-0.532863,-0.400254,0.666511,-1.095426,0.732557,-0.092102,-1.309373,0
193061235,0.071967,0.116507,-0.505939,0.469305,0.074491,-1.104711,0.949435,-0.170335,-1.306672,0
193094569,-0.012984,0.071618,-0.311227,0.902344,-0.252168,-0.788189,0.81671,-0.317364,-1.111572,0
193127903,0.127847,-0.078049,-0.512463,0.587895,-0.67494,-0.375627,0.644007,-0.240008,-1.37864,0
193161237,0.021393,-0.242764,-0.407115,0.351617,-0.70597,-0.169592,0.218001,-0.589133,-0.951199,0
193194571,0.132563,-0.01034,-0.245214,0.027403,-0.461555,0.087708,0.172062,-0.202084,-1.083671,0
193227905,-0.040327,-0.216348,-0.371085,-0.156733,-0.433761,0.182086,-0.109633,-0.235971,-1.026646,0
193261239,-0.055913,-0.267086,0.322118,0.112666,-0.002502,-0.058687,-0.330167,-0.768237,1.497117,0
193294573,-0.067002,-0.238915,1.558149,0.069275,0.745612,-0.664416,0.522538,0.158535,-0.313526,0
193327907,-0.094027,-0.238744,0.781357,-0.257719,0.509238,-0.12391,0.0445,-0.579749,0.752107,0
193361241,0.332379,-0.035955,-0.613071,-0.335822,-0.267678,0.47651,-0.629537,-0.162983,1.021114,0
193394575,0.245553,0.198079,-0.802021,-0.072026,-0.226452,0.171226,-0.910042,0.079768,0.458628,0
193427909,0.143843,0.049258,-0.262673,0.224207,0.086677,-0.340158,-0.550864,0.273286,0.395955,0
193461243,-0.131938,-0.110818,0.196198,0.307364,-0.053003,-0.775164,-0.141041,0.275169,0.262463,0
193494577,-0.295297,-0.24344,0.457231,0.04435,-0.273027,-0.531203,-0.138346,0.390066,0.13766,0
193527911,-0.252687,-0.426939,0.359604,-0.27533,-0.1018,-0.00771,-0.051275,0.437387,0.187147,0
193561245,0.195373,-0.138339,0.005463,-0.26769,-0.041737,0.217199,-0.026639,0.212293,0.2104,0
193594579,0.223303,0.090847,-0.106413,-0.17458,-0.058448,0.240438,0.102105,0.125201,0.045543,0
193627913,0.178816,0.138371,-0.059604,-0.117432,0.0558,0.331264,0.195548,-0.004282,0.069501,0
173360841,-0.052361,-0.125808,-0.275846,-0.292305,0.00159,-0.105703,-0.104533,-0.010951,0.348419,0
173394175,-0.318813,-0.152687,-0.163536,-0.466432,-0.158594,-0.154662,-0.290437,0.472415,0.455441,0
173427509,-0.300386,-0.219331,0.039819,-0.527586,-0.483166,0.112196,-0.189805,0.469313,0.460375,0
173460843,-0.396261,-0.420637,0.18779,-0.540733,-0.624416,0.307168,-0.555728,0.519485,0.732599,0
173494177,-0.385034,-0.530283,0.231748,-0.497081,-0.4878,0.233736,-0.986741,1.123519,0.942123,0
173527511,-0.333316,-0.4965,-0.281079,-0.307571,-0.696148,0.279035,-1.119418,1.195545,0.559639,0
173560845,-1.015443,-0.309476,-0.189241,-0.377292,-0.932672,0.326308,-1.561546,1.334749,0.393653,0
173594179,-1.864394,-0.073332,0.715822,-0.985589,-0.891194,0.93018,-1.459994,1.654151,1.105588,0
173627513,-1.535528,0.654402,1.010043,-1.289442,-0.769284,1.718336,-0.911692,1.728037,1.134411,0
173660847,-0.887019,1.103746,0.766103,-1.075035,-0.539738,1.615654,-0.811942,1.199278,1.050393,0
173694181,-1.286017,0.961279,0.449035,-1.250609,0.138593,1.16991,-0.783649,1.36859,1.465264,0
173727515,-1.360901,0.599732,0.088574,-1.004057,0.116457,0.718421,-0.233169,0.93002,0.604982,0
173760849,-1.322358,0.392757,0.104648,-0.665981,0.50322,0.196143,0.040122,0.668647,-0.311033,0
173794183,-0.741131,0.017108,0.204201,-0.327845,0.881446,-0.514111,0.517917,0.264358,-0.824657,0
173827517,-0.176044,-0.304808,-1.184945,-0.129518,0.465964,-1.468823,0.531293,-0.474259,-1.542733,0
173860851,0.477466,-0.374173,-1.301337,-0.146297,0.216821,-2.1956,1.128644,-0.567834,-2.532907,0
173894185,0.531387,-0.616631,-0.963688,-0.138526,0.569035,-1.941151,1.943566,-0.627529,-2.912796,0
173927519,1.041898,-0.395805,-1.68729,-0.940866,1.32089,-1.541877,1.96582,-1.009501,-2.277423,0
173960853,1.032678,-0.401597,-1.371573,-0.473964,1.166896,-1.904716,2.304744,-0.910086,-2.263628,0
173994187,1.2029,-0.453618,-1.878218,0.853494,0.431608,-3.041589,2.456333,-1.160969,-2.797978,0
174027521,1.001095,-0.243424,-2.959927,1.039693,-0.670862,-3.386127,1.507941,-0.944504,-3.067567,0
174060855,0.381964,-0.095998,-2.231835,0.523735,-0.532042,-2.492959,0.272732,-0.700015,-2.064485,0
174094189,0.379792,0.876338,-1.321219,0.883859,-0.452644,-2.174469,-0.489327,-0.208787,-1.767427,0
174127523,0.194965,0.65973,0.247394,1.404444,-0.24337,-0.904425,-1.251481,-0.442289,-0.537753,0
174160857,0.1784,0.256057,0.295028,1.782593,0.091716,0.057379,-1.181863,-0.370388,1.248268,0
174194191,0.567069,0.431316,0.117914,1.555211,-0.074645,0.821228,-0.888067,-0.65373,1.49942,0
174227525,0.003311,0.468342,0.227312,1.46781,-0.272763,0.745886,-1.177513,-0.759385,1.010996,0
174260859,0.268366,0.25487,-0.356171,0.866447,-0.365566,0.322632,-1.234533,-0.415845,0.88453,0
174294193,0.007229,0.443784,-0.151656,0.517503,0.3725,-0.042902,-0.851337,-0.376612,0.105536,0
174327527,0.17909,0.456847,-0.011148,0.22937,0.801713,-0.609065,-0.326696,-0.260445,-0.181052,0
174360861,0.107925,0.375536,-0.148205,-0.292333,0.805031,-0.842726,0.737234,-0.085655,-0.221174,0
174394195,0.212232,0.384576,-0.042001,-0.492584,0.73347,-0.880467,0.58064,-0.625614,-0.226412,0
174427529,0.239232,0.161283,-0.245508,-0.653043,0.350391,-0.165267,1.780332,-0.163913,-0.396421,0
174460863,0.154374,0.350897,-0.16769,-0.402993,-0.10684,0.524149,2.351308,-0.464604,-1.548291,0
174494197,-0.291458,0.184425,0.63674,-0.235754,-0.307636,1.338459,2.337085,-1.269105,-1.539077,0
174527531,-0.216086,-0.05341,0.361402,-0.576844,-0.637593,1.836231,2.093507,-1.62333,-0.564765,0
174560865,-0.000488,-0.15048,0.020923,-0.474099,-0.691931,1.247389,1.708013,0.329099,-0.131334,0
174594199,-0.388072,-0.284705,0.224216,-1.514583,0.186556,-0.470083,1.300954,-0.347394,-1.669489,0
174627533,-0.290804,-0.352612,-0.017305,-0.577753,0.475124,1.251435,1.056461,0.053925,-0.36981,0
174660867,0.257272,0.004822,0.047455,1.076731,0.042296,-0.898794,-0.476023,4.854606,0.806698,0
174694201,0.12741,0.021356,0.185156,-0.309602,1.117105,-1.579265,-2.415189,4.017632,-0.182685,0
174727535,0.090514,0.06364,0.104686,-1.794056,1.719891,-2.129004,-2.797063,2.034044,0.694617,0
174760869,0.178768,0.829401,1.052917,-1.735872,2.212992,-2.229275,-2.450863,1.255064,1.028217,0
174794203,0.503317,0.926578,1.549909,1.105653,1.158128,-0.531529,-1.85829,0.058538,2.702737,0
174827537,-0.29421,0.057895,0.469157,-1.161275,1.244779,0.605154,-1.165674,-0.392535,2.096714,0
174860871,-1.427467,0.432376,0.712287,1.058777,0.618901,-1.583982,-0.005378,-1.107827,1.572223,0
174894205,-0.032265,0.991328,-0.060603,1.518893,-0.123861,0.161415,1.267743,-1.730567,0.775421,0
174927539,0.327254,0.934426,-0.275167,1.732608,-1.813222,1.897387,1.480473,-1.82555,0.390764,0
174960873,-0.171712,0.072055,0.239037,1.044284,-1.96478,2.422636,1.841138,-1.900016,-0.611433,0
174994207,0.044258,-0.552957,0.632844,0.279551,-1.754984,0.880712,2.019135,-1.32993,-0.598568,0
175027541,-0.383395,-0.462476,1.118348,-1.137426,-1.354689,2.053376,1.938729,-0.400127,0.108267,0
175060875,-0.420274,-0.38001,1.273932,-0.897695,-0.689556,0.329364,1.787799,0.802324,0.966017,0
175094209,-0.086636,-0.194364,1.120089,-1.099867,0.957621,1.003629,1.160924,0.19757,1.323927,0
175127543,0.297733,-0.083358,0.30987,-0.493977,1.818407,0.917342,1.608167,-1.963921,-0.162362,0
175160877,0.895839,0.461364,-0.09022,1.050486,0.047103,1.495204,0.229435,2.510992,-0.780241,0
175194211,0.161807,0.414622,-0.051375,0.802235,0.167343,0.447812,-1.088732,4.252898,-1.292806,0
175227545,0.329953,0.434654,0.956966,-1.396057,0.809636,-0.91149,-1.734933,2.066199,1.04908,0
175260879,-1.267636,-0.024467,1.161232,-0.175036,-0.287712,-0.669203,-1.97461,1.114452,1.915388,0
175294213,-0.093018,-0.004612,0.600285,-0.759276,0.173211,1.238771,-1.438503,0.275863,1.510242,0
175327547,0.529641,0.538671,1.048364,-1.076803,0.381769,2.511065,-0.758459,-0.281743,0.864171,0
175360881,-0.491702,-0.047608,1.016026,-1.924047,0.998574,-2.824151,-0.108761,-1.104984,-0.269895,0
175394215,-0.018994,-0.004703,0.765702,-0.073231,0.838928,1.018646,0.187824,-1.351758,0.923248,0
175427549,-1.010555,-0.152635,0.124054,-0.028874,-0.855923,-0.925675,1.092602,-0.862457,0.803663,0
175460883,0.207588,0.578625,0.724182,-2.228723,0.436237,0.98675,2.878862,-0.63192,-0.103174,0
175494217,0.191286,-0.16771,0.141864,-1.19567,0.255661,1.388181,4.294304,-0.400711,0.189522,0
175527551,0.362906,-0.269486,-0.043344,-0.716034,-0.317798,0.903519,5.133456,-0.043136,0.26227,0
175560885,0.253835,0.118768,-0.001722,-1.08763,-0.368557,1.326648,5.053514,0.38294,0.596202,0
175594219,0.513297,-0.263156,0.010462,-1.368773,1.116771,1.050413,5.449429,1.753917,0.118403,0
175627553,0.061746,-0.495993,-0.260185,-2.034403,2.16895,0.961812,2.447576,2.842727,-0.081986,0
175660887,-0.452605,-0.659972,-1.115312,-0.768604,1.571489,-1.468308,0.621637,2.585213,0.510636,0
175694221,-0.589406,0.117821,-0.596858,-0.807029,1.521944,2.759968,-0.470609,3.147471,0.866225,0
175727555,0.890624,0.881185,0.657937,0.485003,0.220783,0.531825,-1.650693,1.815685,1.304666,0
175760889,0.334248,1.074552,2.830754,1.559875,0.931503,-0.862178,-0.902683,0.652102,-0.150476,0
175794223,0.944451,0.779174,2.702232,3.781417,-0.152317,1.646049,-1.569137,-0.911785,0.514093,0
175827557,1.323918,-0.11974,1.824794,2.703955,0.990307,2.199861,-1.535732,-2.819717,1.819077,0
175860891,0.425145,-0.031911,1.239081,2.867755,-2.84914,0.031036,-3.614585,-2.874826,1.249057,0
175894225,0.518248,-0.007704,-0.678719,3.100102,-1.710083,1.409643,-4.606718,-3.285568,0.087792,0
175927559,2.279118,0.528319,-0.426501,3.166679,-1.655232,-1.675957,-5.514582,-5.372151,-0.831649,0
175960893,1.958972,1.511105,0.32475,3.055645,-1.157783,-3.293547,-3.786292,-3.467703,-0.491865,0
175994227,1.477591,1.387326,0.969603,3.892426,-1.620707,-2.289674,-3.425457,-2.825397,1.578857,0
176027561,0.924363,0.475274,0.865916,3.154033,-0.970997,0.020879,-2.973698,-2.300631,2.02388,0
176060895,0.848139,0.412321,1.036947,2.105204,-0.81378,1.138763,-2.820755,-1.737764,3.399992,0
176094229,0.449318,0.767076,1.916328,1.301557,-0.720979,1.491627,-2.209649,-0.803901,3.621822,0
176127563,-0.216841,0.503605,1.570637,1.174862,-0.041872,1.595334,-1.863068,-0.062226,3.192169,0
176160897,-0.325414,-0.540018,0.880341,1.504812,0.741874,0.868937,-0.843398,1.279086,2.777374,0
176194231,0.362454,-1.119741,0.740101,0.939667,0.836604,0.518245,-1.012484,0.939546,3.324003,0
176227565,0.3838,0.564593,2.082209,-0.870942,-1.725831,1.73618,1.435223,1.215494,0.363689,0
176260899,-1.881662,-0.336263,1.504395,0.408399,-2.114292,1.632825,2.887688,2.254157,-1.087461,0
176294233,0.43,-0.4522,-0.451878,-2.063545,0.074702,3.165181,3.31905,0.855501,-2.497585,0
176327567,-0.236519,0.137836,0.261612,-2.562253,0.501576,0.999134,2.892286,-1.288005,-4.102499,0
176360901,-1.082685,0.609314,-0.167426,-1.629711,0.721358,1.568481,3.269107,-0.500176,-4.743021,0
176394235,-0.128596,0.389163,-0.758951,-1.028579,0.493049,1.724878,4.127096,0.638937,0.341772,0
176427569,0.22294,0.182451,-0.103251,-0.370894,0.281275,-0.450325,2.577247,1.103567,-1.920444,0
176460903,0.668072,-0.517761,0.371519,-2.921385,1.508499,-0.857361,0.754049,-0.661986,2.472994,0
176494237,0.521371,-1.13411,0.756327,-3.101589,-0.185433,-1.206816,-1.125242,0.961407,3.301246,0
176527571,-1.799416,-0.778084,1.914616,-1.838841,-0.756261,-1.235361,-2.807567,1.729414,2.453857,0
176560905,-1.172288,-0.322924,1.258975,-1.583629,0.575341,-0.984101,-2.56581,2.447734,2.954934,0
176594239,-0.253027,0.560844,0.457966,-0.827466,1.778383,-1.057505,-1.431586,2.111557,1.503563,0
176627573,0.093182,0.828903,-0.835152,0.510799,1.445857,0.10859,-0.303973,-0.092871,0.711229,0
176660907,0.223992,0.924342,-1.273702,1.535128,1.325008,-1.311138,0.323757,-1.411846,0.270708,0
176694241,-0.030669,-0.495048,-1.900843,-2.291793,3.112367,-1.839589,0.763501,-0.750282,0.304133,0
176727575,0.779188,1.102301,-1.172366,1.320478,-0.029147,1.418521,1.899712,0.032954,-2.331968,0
176760909,0.832807,0.77396,-0.67573,1.290285,-0.499354,-0.511111,2.287276,-0.870389,-3.817229,0
176794243,0.52204,0.496823,-0.372236,-0.015747,-0.48277,0.61367,1.472363,-1.132554,-1.226043,0
176827577,0.141591,0.679709,0.338147,1.138011,-1.471064,1.314948,1.412807,-0.367812,-1.005707,0
176860911,-0.339147,0.44161,0.698829,0.789188,-0.728909,0.861153,1.902853,0.004652,-1.738006,0
176894245,0.770235,-0.327501,0.093566,0.280257,-1.444212,1.419122,1.220821,-0.124079,-0.415464,0
176927579,-0.58854,0.095467,0.563304,-0.56086,-0.53444,1.571722,0.614351,0.297468,1.341097,0
176960913,-0.124405,0.047876,0.269035,-0.494105,0.617103,0.490154,-0.65893,0.220887,1.620754,0
176994247,0.22232,0.010218,-0.607507,-1.708807,-0.528992,1.309999,-1.450806,-0.062682,1.658166,0
177027581,-0.629537,0.10858,-0.035596,1.879569,-1.191655,1.326474,-1.657545,1.469072,1.755546,0
177060915,0.340036,-0.029982,0.162655,0.48611,0.268241,-1.026716,-1.190378,2.244234,0.905076,0
177094249,0.38911,-0.318798,0.472313,-0.391705,0.823887,-2.00456,-1.426212,-0.04377,1.202292,0
177127583,0.671075,-0.281711,0.548636,-1.077479,1.251005,-2.681232,-0.674608,-0.845193,1.207937,0
177160917,0.255071,-0.253834,0.773758,-0.565955,0.684892,-1.215533,-0.305176,-0.804422,-0.435832,0
177194251,-0.412135,-0.190891,-0.101135,0.994983,-0.170489,0.246363,-0.027913,-0.38774,-1.284246,0
177227585,-0.205276,0.071849,-0.27558,-0.292195,0.340742,-0.664751,0.58185,-0.085205,-1.917099,0
177260919,0.258135,0.172205,-0.388175,-0.291254,0.615864,-0.896203,0.867126,-0.295923,-2.433876,0
177294253,0.528281,0.17039,-0.959867,-0.258081,0.040463,-0.320324,1.197801,-0.859912,-2.834132,0
177327587,0.241316,0.228786,-0.587525,-0.597397,-0.315955,0.139774,1.322683,-0.33763,-1.012995,0
177360921,-0.404868,0.433797,0.007648,0.23619,-0.082506,-0.093989,1.913335,-0.167742,-0.506554,0
177394255,0.232347,0.299146,0.37501,0.429166,0.672673,-0.784547,1.487086,-0.136012,-0.188766,0
177427589,0.396912,-0.29982,-0.109208,-0.434225,0.630206,-0.178843,0.723339,-0.319214,0.689648,0
177460923,0.172963,-0.16436,-0.244596,-0.528666,0.388616,0.536035,0.224532,0.046691,0.93741,0
177494257,0.083142,0.060709,-0.541045,0.088411,-1.300509,1.582529,-0.046065,0.256829,1.139744,0
177527591,-0.261781,0.32179,0.000976,1.033064,-1.729195,0.626717,-0.051462,-0.909996,-0.10168,0
177560925,0.066452,0.186922,-0.289731,0.991833,-1.264307,0.416657,0.57086,-4.294145,-0.587914,0
177594259,0.381948,0.478739,-0.594942,1.930074,-1.870972,0.329903,1.463659,-7.16982,0.476357,0
177627593,-0.132639,0.464941,0.391138,2.04886,0.214529,-1.431832,0.685806,0.340788,-0.978187,0
177660927,0.523065,-0.098592,-0.26265,-1.494496,1.292259,-0.09827,-0.266459,2.169971,-1.735847,0
177694261,0.141623,-0.139102,-0.001493,-1.866611,0.338821,1.174896,-0.853862,2.971179,-0.530939,0
177727595,-0.104778,0.01797,0.726405,-1.022315,0.386152,0.079741,-1.394981,3.200092,0.688809,0
177760929,0.263534,-0.23669,0.210567,-0.974157,0.347878,-0.215425,-2.042393,3.249423,1.392698,0
177794263,0.198816,-0.135281,-0.12116,-0.242494,0.331805,-0.549665,-1.536603,2.726898,1.205168,0
177827597,-0.063415,0.03587,-0.232881,0.010758,0.404459,-1.272565,-0.385589,1.462791,0.747281,0
177860931,0.252385,0.228366,-0.333277,0.291481,0.412216,-2.587978,-0.191527,0.529121,0.446715,0
177894265,0.116317,0.266308,-0.567814,0.68032,0.506436,-2.142289,0.007427,0.930642,0.070419,0
177927599,0.061262,0.326658,-1.196111,0.403193,0.667418,-0.053465,-0.325658,0.461201,0.016685,0
177960933,0.37652,0.454469,-0.433264,-0.975954,1.231184,-0.728516,-0.417695,0.929202,0.130956,0
177994267,0.340263,0.179592,-1.210988,-0.728701,0.669608,-0.406116,-0.848059,0.795799,0.233737,0
178027601,0.038729,0.209173,-0.917504,-0.234242,0.274185,-0.944554,-0.955383,0.498768,0.241702,0
178060935,-0.091703,0.117259,-0.634785,0.404504,0.041973,-1.22742,-0.89424,0.259188,0.273627,0
178094269,0.030955,-0.101078,-0.995306,0.359362,-0.512755,-0.551488,-0.462249,0.067612,-0.044948,0
178127603,0.066541,0.104042,-0.275764,0.247855,-0.884865,0.14146,-0.071752,-0.40853,-0.479374,0
178160937,0.155251,-0.150814,-0.385455,0.732863,-1.058202,-0.073008,0.084047,-1.033559,-0.122641,0
178194271,0.276776,-0.121063,0.022717,0.235055,-0.937835,0.281503,0.363239,-1.37616,0.070794,0
178227605,0.221148,-0.403262,0.11939,0.541373,-0.934062,1.070692,1.200266,-0.744156,-1.428839,0
178260939,0.147729,-0.412499,0.055659,0.060881,-1.267529,1.206398,1.090533,-1.081894,-1.068501,0
178294273,-0.249714,-0.474529,0.278153,-0.074517,-1.568263,1.412225,1.227684,-1.115752,-0.564352,0
178327607,0.04069,-0.221177,0.220474,-0.14503,-1.378404,1.385527,1.277606,-1.372473,-0.955359,0
178360941,-0.041577,-0.237128,-0.001182,0.35417,-1.124011,1.172034,1.350812,-0.859615,-0.618337,0
178394275,0.085866,0.08546,-0.11495,0.106106,-0.447797,0.747643,1.380102,-0.588676,0.332956,0
178427609,0.01186,0.249574,0.141951,0.460096,0.285185,-0.408697,1.143151,-1.803304,0.54544,0
178460943,0.34647,0.057583,-1.089975,0.726645,-0.011135,0.709858,0.571034,1.121841,-0.278645,0
178494277,-0.030958,0.593908,0.45074,0.424654,0.391153,0.188169,0.139396,1.32075,-2.016186,0
178527611,0.216594,0.397403,2.033732,0.176149,1.233534,-1.173285,-0.293993,1.200403,-2.042419,0
178560945,0.050827,-0.645088,0.976625,-0.975111,0.912397,-1.239996,-1.127888,0.154211,0.216163,0
178594279,-0.20164,-1.112384,0.034592,-0.944667,-0.186458,-1.3403,-1.459985,0.320789,0.725368,0
178627613,-0.018483,-0.445863,-0.550658,-0.900082,-0.330652,-1.644427,-1.14165,0.428807,0.660396,0
178660947,0.10639,0.308732,-0.418467,-0.638978,0.174305,-1.39782,-0.365131,-0.296074,0.939112,0
178694281,-0.006136,0.327214,-0.308745,-0.397036,0.636329,-0.866882,-0.065418,-0.400014,0.971229,0
178727615,-0.146868,0.146532,-0.380783,0.108364,0.499849,-0.773141,-0.039431,0.038923,0.551143,0
178760949,-0.069843,-0.053226,-0.272751,0.185448,0.401257,-0.706072,-0.080507,0.081784,0.464615,0
178794283,-0.007552,-0.075769,0.177115,-0.204635,0.319155,-0.569943,-0.09181,-0.041614,0.678588,0
178827617,0.07261,-0.063493,0.049124,-0.383892,0.007301,0.001882,0.051891,0.120325,0.384172,0
178860951,0.197864,0.117468,-0.093188,-0.274922,-0.216974,0.492455,-0.076964,0.168684,0.192788,0
178894285,0.068582,0.194021,0.028127,-0.130784,-0.129885,0.497692,-0.16916,0.226917,0.056174,0
178927619,0.135186,0.242552,0.125174,0.031939,0.013335,0.470277,-0.281197,0.384326,-0.157241,0
178960953,0.047452,0.084664,0.195354,0.013811,0.058049,0.411173,-0.157801,0.206394,0.053773,0
178994287,0.052384,-0.03163,0.234365,-0.01225,0.049433,0.1736,-0.14056,0.004256,0.159916,0
179027621,0.071479,-0.044724,0.208412,0.032134,-0.13003,0.132327,0.002547,-0.095656,0.338979,0
179060955,0.021552,-0.094456,0.224607,-0.070241,-0.226405,0.09164,0.125427,-0.001936,0.246118,0
4126687971,-0.116073,-0.083183,0.216956,0.096848,-0.114636,0.169231,-0.233479,0.040086,0.184324,1
4126721305,-0.064883,0.044631,0.188956,0.100685,-0.07714,0.17679,-0.106752,0.083458,0.174693,1
4126754639,-0.057558,-0.065878,0.238399,0.012964,0.006341,0.240361,-0.008696,0.12194,0.081003,1
4126787973,0.014672,-0.016173,0.190925,-0.062547,-0.019968,0.205577,-0.03286,0.12005,0.162379,1
4126821307,-0.025186,-0.058531,0.091536,-0.141514,0.013476,0.043444,-0.033022,0.122241,0.045715,1
4126854641,-0.063984,-0.148988,0.037018,-0.241811,0.028544,-0.080495,0.05776,0.127988,-0.12025,1
4126887975,-0.022021,-0.454942,-0.153504,-0.265034,0.159753,-0.27887,0.088981,0.037042,-0.303963,1
4126921309,-0.145163,-0.992466,-0.422604,-0.132411,0.678957,-0.594022,0.080297,-0.039898,-0.419271,1
4126954643,-0.885899,-0.913619,-0.122403,-0.48066,0.603527,-0.56638,-0.075418,-0.117927,-0.439042,1
4126987977,-0.255442,-0.123505,0.257765,-0.839518,0.104859,-0.265982,-0.252471,-0.188474,0.048624,1
4127021311,-0.027318,0.456176,0.635589,-1.036987,-0.241697,0.492666,-0.266106,-0.071622,0.673279,1
4127054645,0.061506,0.519747,0.623656,-0.106613,-0.102881,0.724482,-0.046241,0.039805,0.945435,1
4127087979,0.121403,0.635152,0.509978,0.28406,0.065804,0.894986,0.174599,0.178191,0.729624,1
4127121313,0.5715,0.720535,0.010679,0.409344,-0.104684,0.437769,0.416971,0.234821,0.394277,1
4127154647,0.647536,0.465444,-0.146259,0.579931,-0.239538,0.086489,0.432604,0.354473,0.237455,1
4127187981,0.036013,-0.008809,0.073146,0.489264,-0.249678,0.056198,0.368574,0.273072,0.148971,1
4127221315,-0.086573,-0.204101,0.139324,0.659411,-0.364703,0.003307,0.340993,0.267019,0.015996,1
4127254649,-0.112873,-0.341481,0.185663,0.769159,-0.232468,-0.050994,0.375208,0.250359,-0.147757,1
4127287983,-0.090775,-0.317188,0.36705,0.482987,-0.003923,0.011395,0.389004,0.194172,-0.09324,1
4127321317,0.03559,-0.10143,0.358897,0.031103,-0.013821,0.245403,0.249835,0.129848,0.045663,1
4127354651,0.07072,0.045471,0.211211,-0.069314,0.042969,0.260626,0.15056,0.002289,0.087093,1
4127387985,0.068325,-0.06725,0.271372,-0.018422,0.297043,0.201637,0.09841,-0.032723,0.121196,1
4127421319,0.002518,-0.025285,0.282389,-0.091788,0.223776,0.216048,0.076247,-0.076811,0.249035,1
4127454653,0.118037,0.109496,0.1139,-0.140518,0.200123,0.049233,-0.186968,-0.118497,0.268286,1
4127487987,-0.028987,0.014534,0.088565,-0.139572,0.248347,0.007477,-0.153829,-0.092243,0.170326,1
4127521321,-0.05406,-0.020751,0.065142,-0.027571,0.199538,-0.018121,-0.216833,-0.104821,0.120944,1
4127554655,-0.038828,0.005869,0.143414,0.073826,0.177016,-0.00015,-0.283117,-0.076255,0.1719,1
4127587989,-0.018763,-0.029437,0.206811,0.136908,0.107336,0.078023,-0.17884,-0.041993,0.172584,1
4127621323,0.056822,-0.065017,0.212376,0.183068,-0.002876,0.132361,-0.100362,-0.025159,0.159891,1
4127654657,0.095542,-0.057956,0.253307,0.222059,-0.053988,0.185528,-0.141747,0.017241,0.191247,1
4127687991,0.119046,-0.072795,0.214523,0.137301,-0.137211,0.17917,-0.089663,0.072603,0.174068,1
4127721325,0.141448,-0.066052,0.114063,0.102849,-0.184473,0.108533,-0.032242,0.068266,0.157323,1
4127754659,0.048736,-0.114356,0.067025,0.027996,-0.096614,0.06883,-0.01989,0.094263,0.11838,1
4127787993,-0.001209,-0.128371,0.106817,-0.035433,-0.027088,0.041943,-0.018967,0.073364,0.125643,1
4127821327,0.043533,-0.053581,0.132955,-0.07591,0.012892,0.045017,-0.022199,0.033639,0.167895,1
4127854661,0.016535,-0.083078,0.141397,-0.065572,0.093582,0.081159,0.005966,-0.008174,0.19644,1
4127887995,0.037763,-0.081704,0.122581,-0.016941,0.059874,0.099959,0.032967,-0.05384,0.159384,1
4127921329,0.103769,-0.036142,0.117386,0.08986,0.03592,0.053799,0.056669,-0.079728,0.118993,1
4127954663,0.123351,-0.086081,0.155396,0.130582,0.088566,0.044663,0.093138,-0.100004,0.087075,1
4127987997,0.061547,-0.08964,0.164122,0.204421,0.117248,0.080412,0.06237,-0.028475,0.056314,1
4128021331,-0.005866,-0.105808,0.238448,0.178259,0.098958,0.0916,0.102191,-0.066268,0.123168,1
4128054665,0.17339,0.000825,0.15955,0.161169,-0.063492,0.119907,-0.008492,-0.005424,0.162883,1
4128087999,0.048325,-0.023183,0.179024,0.110309,-0.034079,0.118102,-0.011968,0.007868,0.11878,1
4128121333,-0.049335,-0.130779,0.165376,-0.032272,-0.015953,0.087498,0.000121,0.016092,0.101761,1
4128154667,-0.04971,-0.108202,0.163051,-0.060649,0.011707,0.093653,-0.077388,0.037706,0.110947,1
4128188001,-0.011696,-0.084616,0.190061,-0.027078,0.051569,0.096379,-0.014229,0.020996,0.097997,1
4128221335,0.037979,-0.077361,0.163056,0.011951,0.057696,0.08239,-0.026454,-0.017786,0.159222,1
4128254669,0.056198,-0.077422,0.200381,0.074489,0.015712,0.141829,-0.008184,-0.030352,0.134049,1
4128288003,0.043313,-0.09779,0.220683,0.125651,-0.005253,0.114784,-0.028661,-0.016435,0.126366,1
4128321337,0.061202,-0.129807,0.180896,0.075747,-0.040464,0.099962,-0.00979,-0.018875,0.113323,1
4128354671,0.029667,-0.126296,0.170599,0.068899,-0.040597,0.11202,-0.034661,0.025078,0.124681,1
4128388005,-0.010794,-0.10129,0.162673,0.052438,-0.027128,0.095506,-0.054813,0.04248,0.14241,1
4128421339,0.02551,-0.069985,0.146628,-0.00729,-0.02929,0.068231,-0.031089,0.05152,0.152347,1
4128454673,0.036126,-0.065155,0.136997,-0.035366,-0.031592,0.078594,-0.033381,0.06081,0.162285,1
4128488007,-0.002307,-0.099009,0.172819,-0.009648,-0.03164,0.103885,-0.016796,0.023901,0.158563,1
4128521341,-0.000998,-0.100947,0.182635,0.044961,-0.00473,0.096157,0.001271,0.004091,0.136343,1
4128554675,0.043565,-0.112478,0.18651,0.034401,0.044718,0.086426,-0.002288,-0.018065,0.110585,1
4128588009,0.02439,-0.099192,0.210203,0.096136,0.061451,0.11833,0.008071,-0.019992,0.115851,1
4128621343,0.027744,-0.145281,0.169475,0.085669,0.082504,0.054816,0.039927,-0.044605,0.091777,1
4128654677,0.045795,-0.077623,0.18693,0.083319,0.061522,0.081048,0.045698,-0.040764,0.181393,1
4128688011,0.031961,-0.018379,0.141091,0.072488,0.037035,0.082877,-0.051682,-0.021786,0.156538,1
4128721345,0.036541,-0.031651,0.17233,0.063082,0.019391,0.082166,0.027917,0.027525,0.09558,1
4128754679,-0.022319,-0.053211,0.155961,0.035971,-0.020986,0.110518,0.025301,0.044728,0.101298,1
4128788013,0.057845,-0.03204,0.177072,0.003239,0.047388,0.09333,0.00556,0.034031,0.153296,1
4128821347,0.015964,-0.062629,0.170393,-0.002016,0.056564,0.10484,-0.036979,-0.024602,0.131362,1
4128854681,0.019648,-0.088863,0.143322,0.035768,0.054528,0.079623,0.011386,0.00182,0.103277,1
4128888015,0.050299,-0.058142,0.173308,0.056786,0.016564,0.057429,-0.061662,-0.039995,0.136806,1
4128921349,0.01257,-0.105832,0.214898,0.063307,0.043533,0.101159,-0.036327,-0.008379,0.120503,1
4128954683,0.018182,-0.098016,0.188784,0.070856,-0.017329,0.092034,-0.035277,0.02898,0.117964,1
4128988017,0.033903,-0.089738,0.144465,0.024923,-0.036513,0.106805,-0.073605,0.031129,0.163188,1
4129021351,0.006635,-0.097431,0.141842,-0.006916,-0.011509,0.09226,-0.039326,0.031763,0.143255,1
4129054685,-0.021948,-0.104417,0.198655,-0.00281,-0.006371,0.114809,-0.050455,0.029594,0.145386,1
4129088019,0.01505,-0.104864,0.17611,0.027673,-0.034655,0.071795,-0.039759,0.028352,0.148001,1
4129121353,0.006868,-0.094986,0.172161,0.064457,-0.030824,0.101546,-0.002842,0.021992,0.146442,1
4129154687,0.030818,-0.101053,0.210979,0.050755,-0.014972,0.086817,0.006272,0.002675,0.133325,1
4129188021,0.010261,-0.121804,0.217564,0.088967,-0.054452,0.074986,-0.007534,0.016114,0.082356,1
4129221355,0.044081,-0.170395,0.127385,0.041591,-0.069613,0.019375,-0.056018,0.025573,0.029375,1
4129254689,-0.040184,-0.206809,0.187539,-0.048771,-0.094792,0.108224,-0.017762,0.0012,0.163641,1
4129288023,0.022161,-0.167979,0.15467,-0.07871,-0.071474,0.096835,-0.108519,0.04954,0.215429,1
4129321357,0.00898,-0.158722,0.162438,0.020945,-0.040981,0.08247,-0.095498,0.038022,0.137714,1
4129354691,-0.018011,-0.141804,0.131293,0.033367,-0.066825,0.052906,-0.161023,0.025913,0.120889,1
4129388025,0.056838,-0.079567,0.142585,0.067181,-0.023109,0.066575,-0.123343,0.015578,0.114839,1
4129421359,0.04934,-0.061638,0.220569,0.04805,-0.035481,0.119848,-0.066232,-0.016118,0.160063,1
4129454693,0.039659,-0.090069,0.172221,0.035223,-0.015587,0.099568,-0.004728,-0.015876,0.093539,1
4129488027,0.056615,-0.116094,0.159501,0.037415,-0.027244,0.089302,0.051869,-0.027775,0.136877,1
4129521361,0.057263,-0.103487,0.166267,0.03957,0.022819,0.066178,0.025129,-0.00801,0.150292,1
4129554695,0.022362,-0.137193,0.185197,0.058799,0.042366,0.081767,0.017962,0.02816,0.127993,1
4129588029,0.012544,-0.14378,0.13608,0.006019,0.025683,0.064814,-0.006366,0.031256,0.0931,1
4129621363,0.023166,-0.110562,0.124433,0.040504,0.052854,0.042006,-0.021533,-0.009545,0.131077,1
4129654697,0.058482,-0.047027,0.172563,0.064549,0.073885,0.094811,-0.052135,-0.028989,0.169133,1
4129688031,0.039701,-0.011059,0.171762,0.077944,0.072772,0.095129,-0.075932,-0.028873,0.177436,1
4129721365,0.065903,0.00295,0.146445,0.073146,0.079175,0.063552,-0.004652,-0.023508,0.140471,1
4129754699,0.048026,-0.007051,0.151951,0.073698,0.0488,0.059631,0.056003,0.030495,0.117078,1
4129788033,0.027316,-0.057867,0.19187,0.017928,0.018788,0.087934,0.069644,0.0312,0.094721,1
4129821367,0.012503,-0.064043,0.176653,0.010001,-0.036672,0.124118,0.111468,0.008217,0.136186,1
4129854701,0.062542,-0.13421,0.150379,0.022287,0.039537,0.067289,0.040239,0.043678,0.09805,1
4129888035,-0.00352,-0.107363,0.190581,0.002037,0.014483,0.132754,0.015816,0.012752,0.176514,1
4129921369,0.050262,-0.018652,0.159986,0.044671,0.062416,0.064381,-0.076612,0.024846,0.187924,1
4129954703,0.012444,-0.076674,0.193666,0.079731,0.068748,0.073646,-0.004142,0.024409,0.087224,1
4129988037,-0.056341,-0.071923,0.143745,0.01905,0.015116,0.066237,-0.008616,0.032762,0.086267,1
4130021371,0.026731,-0.03148,0.174443,-0.018486,0.032067,0.10041,0.000796,0.017195,0.128779,1
4130054705,0.022726,-0.053359,0.235242,-0.040203,-0.00369,0.147142,0.011373,-0.032649,0.134581,1
4130088039,0.018895,-0.087726,0.208708,0.005221,0.022626,0.148677,0.023142,-0.023443,0.080934,1
4130121373,0.014971,-0.07916,0.183666,0.058643,0.030592,0.086445,0.025374,-0.024976,0.125015,1
4130154707,-0.01302,-0.079473,0.198546,0.075945,0.045769,0.089611,0.029837,0.007633,0.144798,1
4130188041,5.3e-05,-0.075068,0.190642,0.060139,0.045282,0.104014,0.044077,0.018166,0.094707,1
4130221375,-0.016094,-0.080007,0.175221,0.015017,0.031447,0.087088,-0.009567,0.034043,0.117547,1
4130254709,-0.000249,-0.047625,0.185931,0.004849,-0.029107,0.120942,-0.064526,0.048479,0.148694,1
4130288043,0.008384,-0.038656,0.160132,-0.006898,-0.01036,0.091206,-0.089821,0.04288,0.135991,1
4130321377,-0.034993,-0.06415,0.169459,0.008926,-0.01212,0.108505,-0.072529,0.041779,0.129757,1
4130354711,-0.026955,-0.068848,0.192066,0.030322,0.018429,0.094726,-0.042713,0.033205,0.115679,1
4130388045,-0.005959,-0.049842,0.185522,0.005762,0.03166,0.124084,-0.001738,0.021865,0.106196,1
4130421379,0.006581,-0.045044,0.184172,-0.003646,0.027988,0.105142,0.002556,0.021696,0.102124,1
4130454713,0.016308,-0.051119,0.181867,0.027733,0.033619,0.090358,0.029946,0.024831,0.089804,1
4130488047,-0.010512,-0.005223,0.170165,0.038652,0.044094,0.101945,0.029472,0.064745,0.097227,1
4130521381,-0.01332,-0.097176,0.185747,0.016058,0.084434,0.085888,0.045467,0.014636,0.110119,1
4130554715,0.067081,-0.02163,0.125328,0.009626,0.043746,0.063125,0.021615,0.088476,0.179359,1
4130588049,-0.011512,-0.04145,0.16202,0.005912,0.077691,0.061194,-0.017192,0.079445,0.156898,1
4130621383,-0.065095,-0.098302,0.134646,-0.019146,0.039169,0.040054,-0.02927,0.090037,0.149702,1
4130654717,-0.036192,-0.053146,0.117988,-0.039084,0.020463,0.054174,-0.047602,0.088354,0.109712,1
4130688051,-0.00968,-0.032333,0.18556,-0.059909,0.049013,0.088512,0.04417,0.092762,0.116607,1
4130721385,-0.00737,-0.021447,0.183722,-0.027912,0.038869,0.122297,0.02843,0.044112,0.136694,1
4130754719,-0.05802,-0.068787,0.199748,-0.003749,0.051067,0.117161,0.05468,0.039922,0.126727,1
4130788053,0.001488,-0.04336,0.127986,-0.000155,0.014902,0.065315,-0.055251,0.044727,0.125919,1
4130821387,-0.047716,-0.07773,0.188667,0.023058,0.037043,0.089304,-0.012643,0.04524,0.115861,1
4130854721,-0.077329,-0.080024,0.187883,-0.071561,0.007723,0.124599,0.000721,0.100834,0.126801,1
4130888055,-0.073146,-0.058628,0.170285,-0.069524,-0.002518,0.09562,-0.085741,0.098933,0.130729,1
4130921389,-0.080887,-0.07215,0.156747,-0.073046,-0.005362,0.096739,-0.052861,0.129116,0.119636,1
4130954723,-0.101936,-0.080603,0.170406,-0.072754,-0.023189,0.077507,-0.059821,0.140286,0.150123,1
4130988057,-0.114295,-0.069584,0.161614,-0.126437,-0.040512,0.095244,-0.068419,0.147196,0.139936,1
4131021391,-0.118253,-0.082943,0.156804,-0.093463,-0.029489,0.086525,-0.084216,0.167409,0.110115,1
4131054725,-0.139085,-0.086569,0.172443,-0.18909,-0.037132,0.065455,-0.0635,0.199997,0.129431,1
4131088059,-0.145587,-0.058935,0.17252,-0.185982,-0.062627,0.081912,-0.072253,0.209048,0.16221,1
4131121393,-0.093884,-0.054948,0.166207,-0.146501,-0.013296,0.080365,-0.069732,0.213402,0.160112,1
4131154727,-0.141117,-0.076218,0.188994,-0.118625,-0.047571,0.134101,-0.029572,0.194999,0.16888,1
4131188061,-0.068287,-0.073117,0.094662,-0.112047,-0.044507,0.062995,0.045441,0.214478,0.092945,1
4131221395,-0.15746,-0.070547,0.128691,-0.118841,-0.045262,0.086893,0.150693,0.161735,0.138206,1
4131254729,-0.08081,-0.008278,0.096708,-0.082204,0.024632,0.018754,0.089452,0.203657,0.144693,1
4131288063,-0.123406,-0.040499,0.153387,-0.142114,0.03782,0.066451,0.163478,0.182965,0.123611,1
4131321397,-0.162955,-0.089548,0.058571,-0.164968,-0.034521,0.037447,0.129281,0.213536,0.118047,1
4131354731,-0.152441,-0.056115,0.061084,-0.173137,0.004418,0.028192,0.118536,0.224523,0.136956,1
4131388065,-0.111292,-0.005228,0.088945,-0.236663,-0.023538,0.076899,0.121754,0.19835,0.162574,1
4131421399,-0.131036,0.010234,0.064393,-0.157277,-0.025913,0.068904,0.160904,0.233875,0.133307,1
4131454733,-0.048693,0.05901,0.073709,-0.096574,0.022463,0.053555,0.174166,0.241487,0.11976,1
4131488067,-0.005971,0.106867,0.040229,-0.055092,0.006851,0.003439,0.080977,0.186464,0.098051,1
4131521401,-0.018901,0.090532,0.090067,0.008264,-0.133599,0.147842,0.123244,0.167389,0.089558,1
4131554735,-0.012593,0.035988,0.080715,0.04976,-0.024583,-0.028043,0.113125,0.135882,0.029368,1
4131588069,0.017383,0.002276,-0.009981,-0.117159,-0.111384,-0.016895,0.051989,0.043886,-0.084785,1
4131621403,0.01616,-0.024348,-0.059989,0.704846,-0.136444,-0.223965,0.025624,-0.027502,-0.141691,1
4131654737,0.337505,0.052326,0.071565,0.905366,0.006701,-0.130159,-0.001617,-0.174433,-0.135548,1
4131688071,0.298576,0.031322,0.308027,0.880499,0.185709,0.155534,0.000612,-0.302251,0.145641,1
4131721405,0.406311,-0.019074,0.551973,0.655032,0.272434,0.408886,0.052268,-0.415624,0.408018,1
4131754739,0.585908,-0.031488,0.605698,0.243663,0.246103,0.592582,-0.055186,-0.53896,0.525596,1
4131788073,0.680534,-0.118546,0.412029,-0.048531,0.093243,0.519707,-0.122707,-0.581502,0.391368,1
4131821407,0.623519,-0.20563,0.22441,-0.35818,-0.455828,0.453336,-0.219819,-0.59968,0.228706,1
4131854741,0.263616,-0.331099,0.280081,-0.105301,-0.127287,0.166582,-0.331676,-0.59581,0.115953,1
4131888075,0.045641,-0.378162,0.2503,0.364309,-0.110895,0.035125,-0.391988,-0.585097,0.080049,1
4131921409,0.252302,-0.124221,0.203165,0.7532,-0.014854,-0.078911,-0.351047,-0.561967,0.107298,1
4131954743,0.330995,-0.061393,0.177694,0.698314,0.146432,-0.07688,-0.35883,-0.576356,0.074436,1
4131988077,0.462106,0.028859,0.1606,-0.137254,0.153413,0.258344,-0.354547,-0.60421,0.136762,1
4132021411,0.311956,0.058996,0.075173,-0.130891,0.331286,0.102569,-0.358578,-0.615633,0.12383,1
4132054745,0.114875,0.111202,0.089645,0.414675,-0.087664,0.380752,-0.258109,-0.564178,0.242779,1
4132088079,0.340788,0.326827,0.129363,1.832198,-0.704642,0.543754,-0.183803,-0.477807,0.384368,1
4132121413,0.392832,0.234385,0.150296,1.689381,-0.720962,0.302398,-0.05827,-0.263148,0.200583,1
4132154747,0.848454,0.167566,0.202482,1.610383,0.090049,-0.348114,-0.091459,-0.021754,0.106293,1
4132188081,0.554648,-0.078391,0.051081,0.495452,0.637444,-0.55184,0.167355,0.387063,-0.005337,1
4132221415,0.069977,-0.435127,0.203564,-0.761446,1.0306,-0.571915,0.439446,0.530842,0.014249,1
4132254749,-0.10061,-0.673695,0.121411,-1.338468,1.118259,-0.440405,0.706644,0.651181,0.039122,1
4132288083,0.126187,-0.621906,0.046972,-1.256953,1.202115,-0.557566,0.400182,0.18251,0.399126,1
4132321417,0.431586,-0.489428,-0.160802,-1.37503,0.899856,-0.8043,0.244516,-0.126795,0.137918,1
4132354751,0.414257,-0.395717,-0.28632,-1.200826,0.288627,-0.515883,0.199984,-0.38443,-0.059367,1
4132388085,0.206008,-0.349308,-0.008037,0.159289,-0.300818,0.075702,-0.039231,-0.734549,0.153814,1
4132421419,0.158571,-0.243503,0.721678,1.495013,-0.886631,0.932758,0.057334,-0.959859,0.628404,1
4132454753,0.677211,0.065649,1.065935,2.838523,-1.418729,1.334137,0.321069,-1.026185,0.674268,1
4132488087,0.865585,0.35779,0.939282,2.967597,-1.288139,1.211328,0.174661,-1.160192,0.582419,1
4132521421,0.696275,0.171441,0.191998,1.653148,-0.513166,0.221557,-0.232738,-1.159357,-0.118487,1
4132554755,0.446207,-0.008952,-0.448418,-0.198545,-0.03746,-0.337964,-0.511088,-0.973438,-0.757655,1
4132588089,-0.092437,-0.053803,-0.170489,-0.828508,0.391419,-0.187222,-0.309919,-0.733223,-0.419131,1
4132621423,-0.234698,0.115482,0.296506,-0.938947,0.477985,0.048987,-0.099055,-0.404832,0.081974,1
4132654757,-0.080878,0.316059,0.377185,-0.398108,0.156324,0.495345,0.308551,-0.152747,0.111253,1
4132688091,0.159169,0.332847,0.076356,-0.509383,-0.365107,0.397076,0.279745,-0.015302,-0.05251,1
4132721425,0.061877,0.072147,-0.102825,-0.725066,-0.60428,0.166576,-0.079541,-0.087812,0.004098,1
4132754759,-0.107696,-0.302782,0.047497,-0.407719,-0.32914,0.007102,-0.200125,-0.005327,0.221164,1
4132788093,-0.141195,-0.377908,0.241941,0.120003,-0.028317,-0.049738,-0.258005,0.304305,0.319644,1
4132821427,-0.020028,-0.204127,0.169008,0.650714,-0.020942,0.032711,-0.231665,0.69563,0.377458,1
4132854761,-0.010589,-0.217191,-0.222363,0.697244,0.224167,-0.135187,0.178545,0.890721,-0.046586,1
4132888095,-0.199752,-0.326911,0.234317,0.782643,0.76934,-0.284771,0.556144,0.920025,0.037826,1
4132921429,-0.031622,-0.005154,0.380563,0.131573,0.156338,-0.128669,-0.01305,0.782631,0.307084,1
4132954763,0.013127,0.293438,0.085521,-0.152261,-0.429003,0.11873,-0.206514,0.62709,0.078815,1
4132988097,0.164313,0.214573,-0.122363,-0.163841,-0.41906,0.084715,-0.154884,0.399592,-0.146386,1
4133021431,0.085153,0.067506,0.060307,-0.008518,-0.15679,0.178401,-0.051549,0.243682,-0.129397,1
4133054765,-0.16082,-0.161104,0.242909,0.040046,-0.064993,0.357441,0.160426,0.117912,0.131152,1
4133088099,-0.137579,-0.103009,0.346688,-0.020865,-0.027054,0.427463,0.269893,-0.162745,0.298623,1
4133121433,0.040027,0.181398,0.309548,0.065648,-0.004821,0.262842,0.513421,-0.395186,0.452013,1
4133154767,0.323622,0.382537,0.054002,0.355629,-0.059233,-0.006864,0.144969,-0.415816,0.159168,1
4133188101,0.071473,0.22142,-0.036251,0.603184,-0.09078,-0.127305,-0.362102,-0.438052,-0.298089,1
4133221435,-0.047181,-0.032506,0.06708,0.567641,-0.051283,-0.038031,-0.45302,-0.252088,-0.524194,1
4133254769,-0.250922,-0.13335,0.236707,0.189746,0.086338,0.121882,-0.255676,-0.059079,-0.335814,1
4133288103,-0.400277,-0.069463,0.418118,-0.083141,0.366694,0.322069,0.186306,0.07206,0.073652,1
4133321437,-0.299477,0.159682,0.462878,-0.360317,0.547486,0.358844,0.450543,0.070582,0.364108,1
4133354771,-0.138484,0.357019,0.270765,-0.48481,0.610242,0.111259,-0.154535,0.379795,0.562801,1
4133388105,-0.331537,0.149454,0.057894,-0.650942,0.527673,-0.14086,-0.408333,0.693698,0.770943,1
4133421439,-0.643361,-0.07449,0.050462,-1.198242,0.402244,-0.186108,-0.223551,1.290103,0.813142,1
4133454773,-0.69965,-0.192851,0.07684,-1.309781,0.239232,-0.144283,-0.250713,1.334329,0.460385,1
4133488107,-0.697109,-0.241424,0.025488,-1.102812,0.113688,-0.180516,-0.199707,1.169923,0.335456,1
4133521441,-0.631133,-0.245407,-0.036769,-1.019857,-0.031013,-0.1697,-0.053752,0.56556,0.196502,1
4133554775,-0.60804,-0.151353,0.081662,-0.960558,-0.212503,0.010787,0.088142,0.344786,0.135538,1
4133588109,-0.554116,-0.106379,0.038339,-0.686777,-0.488477,0.113718,0.50905,0.338976,-0.087493,1
4133621443,-0.457962,-0.04329,-0.037531,-0.480612,-0.73743,0.137048,0.794705,0.312822,-0.153243,1
4133654777,-0.368841,0.010823,-0.006103,-0.349928,-0.833731,0.226082,0.928383,0.172377,-0.079216,1
4133688111,-0.410758,-0.037222,0.138622,-0.243449,-0.593423,0.242543,0.875475,0.101996,-0.10178,1
4133721445,-0.392669,-0.076954,0.183893,-0.179477,-0.383116,0.197255,0.684644,0.17732,-0.059712,1
4133754779,-0.363463,-0.084141,0.294348,-0.164433,-0.215279,0.266932,0.443188,0.329623,0.034681,1
4133788113,-0.238824,-0.023877,0.310195,-0.41206,0.046886,0.245224,0.181569,0.482833,0.080594,1
4133821447,-0.275287,-0.130808,0.209406,-0.487554,0.258486,0.101974,0.054533,0.60223,0.167126,1
4133854781,-0.377319,-0.072867,0.105873,-0.499872,0.347039,-0.013287,-0.195696,0.655897,0.352823,1
4133888115,-0.427211,-0.176757,0.069216,-0.467804,0.440653,-0.122589,-0.202525,0.545986,0.324929,1
4133921449,-0.388699,-0.035749,-0.002628,-0.343496,0.394272,-0.249156,-0.159691,0.430973,0.242192,1
4133954783,-0.378769,0.078966,-0.049239,-0.224591,0.288804,-0.26513,-0.084229,0.447668,0.21207,1
4133988117,-0.302972,0.273292,0.031202,-0.103136,0.133676,-0.14455,0.050262,0.385755,0.256245,1
4134021451,-0.1987,0.459218,0.08336,0.099977,0.059217,0.020265,0.078997,0.483942,0.329507,1
4134054785,-0.183986,0.335126,0.372638,0.172218,0.31857,0.315271,0.097725,0.437682,0.381121,1
4134088119,-0.205534,0.117938,0.577855,-0.032695,0.27393,0.518036,-0.008763,0.356136,0.588717,1
4134121453,-0.098409,-0.01371,0.392093,-0.365082,0.075476,0.379421,-0.171926,0.239443,0.439058,1
4134154787,-0.026204,-0.163913,0.023982,-0.633304,-0.049934,0.005675,-0.223866,0.249328,0.206584,1
4134188121,-0.216684,-0.360248,-0.178406,-0.741419,-0.139661,-0.185587,0.021535,0.294948,0.066583,1
4134221455,-0.37878,-0.402685,-0.201177,-0.725236,-0.126803,-0.30985,-0.052889,0.153011,0.032471,1
4134254789,-0.499598,-0.454772,-0.00037,-0.745783,-0.108071,-0.16554,-0.014435,-0.023324,0.076506,1
4134288123,-0.515177,-0.419882,0.283689,-0.590484,-0.086192,0.075733,0.174243,-0.12996,0.176111,1
4134321457,-0.281106,-0.288499,0.443397,-0.394992,-0.176054,0.301441,0.231167,-0.212108,0.202551,1
4134354791,-0.049236,-0.21299,0.371446,-0.301861,-0.284456,0.463228,0.194218,-0.166326,0.040905,1
4134388125,0.121619,-0.136627,0.290549,-0.099796,-0.328929,0.407171,0.200781,-0.117731,-0.113936,1
4134421459,0.026053,-0.154062,0.372608,0.182137,-0.292015,0.370081,0.163497,-0.057896,-0.115245,1
4134454793,-0.110111,-0.237422,0.415606,0.376714,-0.158867,0.282277,0.130608,0.063112,-0.080853,1
4134488127,-0.151607,-0.19142,0.31789,0.449442,-0.135968,0.144715,0.188291,0.15676,-0.124038,1
4134521461,-0.067001,-0.218234,0.250054,0.334797,-0.062162,0.013272,0.224832,0.244987,-0.144252,1
4134554795,-0.13349,-0.119982,0.240723,0.092883,-0.097215,0.101875,0.277389,0.304385,0.025462,1
4134588129,-0.067818,-0.055797,0.123397,-0.071206,-0.063948,0.07872,0.077949,0.370931,0.158792,1
4134621463,-0.027447,-0.04782,0.126613,-0.347673,-0.083032,0.153013,-0.075283,0.313642,0.139613,1
4134654797,-0.13386,-0.086032,0.080625,-0.268696,-0.150608,0.086988,-0.05183,0.244766,0.0183,1
4134688131,-0.148852,-0.119019,0.107583,-0.33326,-0.166198,0.11448,0.025741,0.203934,0.015746,1
4134721465,-0.113501,-0.127515,0.066796,-0.304067,-0.181398,0.084604,0.079654,0.051134,0.04413,1
4134754799,-0.06999,-0.162721,0.060915,-0.228182,-0.124829,0.04282,0.081946,0.010021,-0.058035,1
4134788133,-0.073428,-0.106806,0.136858,-0.219682,-0.200081,0.104082,-0.020561,-0.012059,-0.005322,1
4134821467,-0.055554,-0.05313,0.146902,-0.073626,-0.193412,0.080411,0.008437,-0.030927,-0.031962,1
4134854801,-0.09949,-0.097984,0.223191,-0.035624,-0.191243,0.178608,0.045632,-0.031472,-0.011257,1
4134888135,-0.047346,-0.091103,0.247869,-0.015072,-0.151319,0.20347,0.040273,-0.087954,0.061803,1
4134921469,-0.042053,-0.079225,0.292064,-0.253963,-0.105163,0.301902,0.12483,-0.191594,0.026165,1
4134954803,0.043718,-0.040123,0.307589,-0.111981,-0.018219,0.321074,0.236509,-0.35539,-0.044705,1
4134988137,0.122715,-0.014697,0.27688,-0.141431,0.029933,0.328088,0.21716,-0.439263,-0.0466,1
4135021471,0.205322,0.0546,0.232544,-0.186197,0.163482,0.282394,0.211499,-0.527625,-0.020852,1
4135054805,0.348474,0.162524,0.045965,-0.177711,0.182421,0.123308,0.107343,-0.517066,-0.027783,1
4135088139,0.290011,0.243634,0.01703,-0.025209,0.222596,0.044132,-0.02109,-0.426541,0.009692,1
4135121473,0.405407,0.36661,-0.093312,0.142085,0.208625,0.013227,-0.088777,-0.332834,0.065995,1
4135154807,0.349753,0.277058,-0.068707,0.270711,0.377759,-0.089427,-0.180125,-0.192431,0.122023,1
4135188141,0.343367,0.259285,0.056788,0.454584,0.441763,-0.079925,-0.277049,-0.151189,0.233752,1
4135221475,0.290991,0.253109,0.327357,0.581069,0.538524,0.106612,-0.502704,-0.028035,0.360697,1
4135254809,0.494368,0.222887,0.24764,0.649202,0.539834,0.058574,-0.647909,0.001271,0.329687,1
4135288143,0.50607,0.154689,0.032346,0.7609,0.554116,-0.093622,-0.620889,0.045773,0.175247,1
4135321477,0.577378,0.153827,0.025928,0.883629,0.536273,-0.123858,-0.728463,0.059886,0.190812,1
4135354811,0.677059,0.17586,0.000669,0.942089,0.451278,-0.126905,-0.778078,0.016009,0.162148,1
4135388145,0.682398,0.175442,0.179472,1.041882,0.451419,-0.109245,-0.666303,-0.060865,0.145944,1
4135421479,0.669542,0.169039,0.30059,1.202132,0.349376,0.0127,-0.717479,-0.099691,0.088252,1
4135454813,0.741135,0.149392,0.379556,1.354324,0.225204,0.058201,-0.775705,-0.193567,0.042262,1
4135488147,0.833512,0.106448,0.375115,1.35326,0.038884,0.064981,-0.823727,-0.150489,0.129441,1
4135521481,0.734719,0.060545,0.348363,1.313311,-0.131439,0.186728,-0.817826,-0.194886,0.308445,1
4135554815,0.545708,0.041738,0.296289,1.136785,-0.32524,0.212427,-0.724482,-0.193498,0.466868,1
4135588149,0.42539,-0.015464,0.157237,0.893187,-0.474152,0.041627,-0.613427,-0.221769,0.454052,1
4135621483,0.278127,-0.032309,0.051538,0.422613,-0.480105,0.112266,-0.550572,-0.190276,0.35712,1
4135654817,0.102332,-0.047454,0.075665,0.212962,-0.550512,0.069485,-0.450977,-0.184029,0.287427,1
4135688151,0.115809,-0.023225,0.055865,-0.02572,-0.445156,0.094581,-0.311308,-0.147474,0.230451,1
4135721485,0.023909,0.01034,0.124627,-0.02856,-0.160688,-0.007149,-0.095531,-0.154169,0.113301,1
4135754819,0.05491,0.055927,0.208339,0.227622,-0.02586,-0.006124,0.058133,-0.141571,0.025006,1
4135788153,0.1658,0.158187,0.307963,0.262969,0.19168,0.199038,0.247715,-0.201238,-0.002837,1
4135821487,0.657391,0.269571,0.287799,0.283872,0.248354,0.35316,0.323244,-0.185334,-0.043245,1
4135854821,0.764286,0.334297,0.255403,0.274059,0.30307,0.4018,0.155729,-0.157055,-0.129971,1
4135888155,0.822505,0.314937,0.088203,0.269787,0.329576,0.305624,-0.092418,-0.151932,-0.149417,1
4135921489,0.582731,0.207888,-0.154493,0.270731,0.372095,0.014752,-0.287303,-0.151208,-0.284097,1
4135954823,0.24751,0.121862,-0.530496,0.241501,0.342014,-0.507879,-0.326158,-0.119511,-0.595737,1
4135988157,-0.017765,0.257854,-0.296553,0.2065,0.358631,-0.583176,-0.371907,-0.201848,-0.467042,1
4136021491,-0.028626,0.382728,0.565285,0.43165,0.407959,0.137235,-0.222952,-0.232666,0.236849,1
4136054825,0.146067,0.490913,1.158913,0.75144,0.32529,0.787316,-0.253017,-0.158533,0.879075,1
4136088159,0.642225,0.410652,0.822151,0.764562,0.277794,0.847622,-0.414112,-0.096547,0.829031,1
4136121493,0.597448,0.225825,0.14725,0.642166,-0.038543,0.489699,-0.783057,0.142417,0.711932,1
4136154827,0.188909,-0.004327,-0.240395,0.374201,-0.155133,-0.0388,-1.127058,0.40305,0.700866,1
4136188161,-0.029374,-0.056346,-0.251853,0.240022,-0.047561,-0.415339,-0.883134,0.434528,0.460337,1
4136221495,-0.358298,-0.114326,-0.0182,-0.095704,0.097563,-0.352289,-0.432944,0.488259,0.232986,1
4136254829,-0.521845,-0.183268,0.126867,-0.449141,0.059996,-0.156062,-0.145461,0.440106,0.133974,1
4136288163,-0.43302,-0.135303,0.108779,-0.537825,-0.225895,0.130659,-0.122285,0.289694,0.290605,1
4136321497,-0.25226,-0.176015,0.090065,-0.641812,-0.355781,0.281756,-0.049666,0.154257,0.084745,1
4136354831,-0.034504,-0.18468,0.073924,-0.685111,-0.545228,0.243423,-0.113798,0.007025,0.059904,1
4136388165,-0.041178,-0.266203,0.20576,-0.458614,-0.426875,0.189628,-0.205438,-0.122619,0.182861,1
4136421499,-0.253377,-0.510126,0.344529,-0.385276,-0.172477,0.065108,0.09159,-0.218964,0.32655,1
4136454833,-0.189117,-0.53237,0.256169,-0.561763,-0.211576,0.042484,0.275675,-0.243813,0.284931,1
4136488167,-0.3536,-0.587711,0.245657,-0.679531,-0.359121,0.108184,0.363697,-0.28007,0.252961,1
4136521501,-0.409252,-0.578966,0.106409,-0.7381,-0.534128,0.109038,0.448026,-0.260232,0.196595,1
4136554835,-0.370315,-0.55979,0.103085,-0.849611,-0.373975,0.04476,0.556775,-0.238059,0.112369,1
4136588169,-0.406045,-0.572323,0.079822,-0.506981,-0.28934,-0.043993,0.787655,-0.210618,0.015703,1
4136621503,-0.296153,-0.485701,0.057158,-0.087871,-0.235001,-0.135415,0.891911,-0.176145,-0.114213,1
4136654837,-0.176418,-0.374022,0.176195,-0.007813,-0.176725,-0.027395,1.03853,-0.078669,-0.139418,1
4136688171,-0.076535,-0.232419,0.162512,-0.092178,-0.154506,0.041394,1.182287,0.071485,-0.188142,1
4136721505,-0.107374,-0.127872,0.133707,-0.330825,-0.176379,0.065468,1.214731,0.30058,-0.205812,1
4136754839,-0.18233,-0.107464,0.083542,-0.47281,-0.134475,0.018353,1.181988,0.544758,-0.278486,1
4136788173,-0.232542,-0.150675,0.044457,-0.593585,-0.076573,-0.039821,1.060102,0.811827,-0.149615,1
4136821507,-0.247597,-0.152045,0.004191,-0.524369,-0.028569,-0.051884,0.660686,0.818751,0.012062,1
4136854841,-0.201498,-0.151278,0.021664,-0.444977,-0.091894,-0.042396,0.404545,0.613997,0.249793,1
4136888175,-0.073184,-0.096687,0.093437,-0.231078,-0.031866,-0.025357,0.376795,0.510735,0.159574,1
4136921509,-0.109409,-0.043504,0.160479,-0.099886,-0.050896,0.070475,0.319808,0.229077,0.166034,1
4136954843,-0.076989,-0.026193,0.206816,0.051297,0.002994,0.195204,0.33525,0.044786,0.121547,1
4136988177,-0.055043,-0.076171,0.157069,-0.013993,0.037878,0.000916,0.146036,-0.103774,0.188807,1
4137021511,-0.052225,-0.011635,0.105979,-0.012576,-0.008826,-0.012321,-0.023915,-0.150897,0.169607,1
4137054845,-0.171933,-0.033971,0.293907,-0.105543,0.048505,0.19905,-0.106841,-0.295671,0.24544,1
4137088179,-0.012615,0.042832,0.274838,-0.175116,-0.017856,0.156748,-0.21835,-0.315525,0.31282,1
4137121513,0.009789,0.09747,0.224817,-0.180138,-0.038669,0.223452,-0.382291,-0.304779,0.203292,1
4137154847,-0.013119,0.09848,0.127233,-0.086851,-0.047693,0.157368,-0.515169,-0.270723,0.13408,1
4137188181,0.056401,0.113458,0.073417,0.023864,0.016229,0.075821,-0.637087,-0.17714,0.186949,1
4137221515,-0.030317,0.111275,0.174368,0.076387,0.2085,0.159744,-0.635166,-0.085489,0.084287,1
4137254849,0.031248,0.09155,0.148769,0.022562,0.213192,0.034476,-0.637117,-0.031474,0.10352,1
4137288183,0.135152,0.115534,0.197471,0.1259,0.174904,0.074607,-0.655214,0.039334,0.208399,1
4137321517,0.169114,0.148176,0.267362,0.139491,0.135581,0.294568,-0.647093,0.103498,0.290461,1
4137354851,0.157631,0.144073,0.29337,0.32178,-0.011599,0.239735,-0.485654,0.134256,0.287082,1
4137388185,0.138798,0.091622,0.170748,0.16005,-0.203502,0.11826,-0.407516,0.168961,0.205708,1
4137421519,0.056379,0.020793,0.265837,-0.128649,-0.343958,0.291744,-0.287132,0.200114,0.283454,1
4137454853,-0.01828,-0.071394,0.3364,-0.277242,-0.298922,0.421395,-0.147627,0.239358,0.273467,1
4137488187,0.039757,-0.104988,0.059968,-0.279185,-0.191565,0.08716,0.095414,0.117272,0.000251,1
4137521521,0.070015,-0.109408,0.027658,-0.068688,0.080541,0.00917,0.17183,0.025419,-0.076196,1
4137554855,0.141851,0.025323,0.256171,0.258536,0.319233,0.082974,0.166262,-0.04425,0.007332,1
4137588189,0.245959,0.155662,0.330874,0.533826,0.365659,0.134548,0.31324,-0.190128,0.038204,1
4137621523,0.418767,0.274966,0.333398,0.702078,0.401522,0.068874,0.323502,-0.246615,0.01975,1
4137654857,0.423935,0.346363,0.292074,0.460855,0.510663,0.127851,0.258318,-0.256048,0.001203,1
4137688191,0.396388,0.350753,0.09532,0.420299,0.437175,0.094968,0.136742,-0.213167,-0.036849,1
4137721525,0.349606,0.320538,0.145749,0.658522,0.346451,-0.031815,0.028651,-0.235478,0.02735,1
4137754859,0.452359,0.382066,0.101132,0.704351,0.001483,0.004353,-0.037936,-0.144587,0.102116,1
4137788193,0.536222,0.434109,0.146498,0.464577,0.144607,0.233717,-0.053069,-0.155268,0.14117,1
4137821527,0.364132,0.422697,0.086226,0.479624,0.077663,0.219419,-0.100118,-0.114496,0.234077,1
4137854861,0.394514,0.394475,0.029417,0.590998,0.162969,0.010792,-0.204132,-0.05184,0.168546,1
4137888195,0.341404,0.345702,0.098544,0.567317,0.065116,0.075852,-0.273699,-0.004709,0.100458,1
4137921529,0.439923,0.318446,0.15233,0.740774,-0.165583,0.043554,-0.443677,0.050674,0.057965,1
4137954863,0.410095,0.266993,0.158927,0.911558,0.012713,-0.111003,-0.382025,0.075447,0.047024,1
4137988197,0.364259,0.124028,0.170558,0.639803,0.311411,-0.162996,-0.447261,0.130279,0.145205,1
4138021531,0.140636,0.115774,0.203497,0.281633,0.605346,-0.08783,-0.498967,0.175935,0.117859,1
4138054865,0.192514,0.121645,0.091215,-0.088114,0.630535,-0.020093,-0.592167,0.192858,0.097055,1
4138088199,0.107787,0.067095,0.217066,-0.040062,0.525394,0.114513,-0.6445,0.161833,0.399679,1
4138121533,0.030406,0.118588,0.226627,-0.031729,0.177039,0.172838,-0.587409,0.184744,0.473246,1
4138154867,-0.010603,0.075829,0.076381,-0.384841,-0.097897,0.19489,-0.721683,0.177419,0.263969,1
4138188201,-0.063473,0.042683,0.053135,-0.383907,-0.561019,0.502419,-0.806931,0.175085,0.236144,1
4138221535,0.002118,-0.021438,0.205535,0.161158,-0.781677,0.301373,-0.748182,0.232231,0.274926,1
4138254869,-0.087335,-0.204696,0.307211,0.333033,-0.433743,0.094378,-0.452102,0.178129,0.264205,1
4138288203,-0.044971,-0.26702,0.246317,0.350648,-0.166915,-0.031786,-0.395464,0.208287,0.238747,1
4138321537,-0.0441,-0.281053,0.208496,0.116532,0.08545,-0.068727,-0.262568,0.157027,0.178811,1
4138354871,0.023766,-0.180353,0.247978,-0.160278,0.173047,0.043952,-0.094089,0.087481,0.182308,1
4138388205,-0.014112,-0.234125,0.17588,-0.548955,0.015175,0.152571,0.052484,0.000337,0.0863,1
4138421539,-0.132322,-0.27742,0.210762,-0.798754,-0.202727,0.253225,0.159625,-0.083261,0.209888,1
4138454873,-0.215452,-0.367982,0.178272,-0.764751,-0.407122,0.206462,0.257709,-0.311618,0.203606,1
4138488207,-0.268603,-0.448441,0.225287,-0.552056,-0.387321,0.137086,0.490064,-0.510013,0.083642,1
4138521541,-0.231411,-0.473226,0.168373,-0.113027,-0.364169,0.06413,0.241743,-0.908481,-0.035234,1
4138554875,0.00805,-0.332953,0.111964,0.203291,-0.194449,-0.051851,0.941239,0.080371,-0.15268,1
4138588209,0.207691,-0.122888,0.195906,0.34296,-0.016783,-0.036483,0.794505,0.106803,-0.056019,1
4138621543,0.281233,-0.066458,0.188731,0.407461,0.049938,0.010693,0.430174,-0.176059,-0.001425,1
4138654877,0.423367,0.045588,0.188685,0.124863,0.082586,0.012555,0.698042,-0.173165,-0.171746,1
4138688211,0.285476,-0.019401,0.143737,0.048356,-0.099169,0.142209,0.693319,-0.098056,-0.150496,1
4138721545,0.214075,-0.012542,0.130786,-0.040107,-0.105058,0.079781,0.549186,-0.27064,-0.171869,1
4138754879,0.168207,-0.076351,0.023028,-0.15028,-0.182277,0.10576,0.252748,-0.411295,-0.0119,1
4138788213,0.15894,-0.12397,-0.018603,0.081241,-0.214115,-0.050799,0.12966,-0.136999,0.077745,1
4138821547,0.177728,-0.162696,0.102433,0.285855,-0.287301,0.055963,0.252509,0.000878,0.200679,1
4138854881,0.266113,-0.202984,0.175866,0.273532,-0.28797,0.081038,-0.068591,-0.182855,0.385108,1
4138888215,0.2514,-0.295249,0.079788,0.293063,-0.27623,-0.015014,-0.193293,-0.042701,0.362064,1
4138921549,0.342563,-0.347627,0.058752,0.169354,-0.17322,-0.086105,-0.18154,-0.102325,0.149894,1
4138954883,0.286623,-0.296939,0.305169,-0.05522,-0.157996,0.252386,-0.37921,-0.247289,0.184362,1
4138988217,0.339989,-0.09228,0.329179,-0.049439,-0.204439,0.287716,-0.180756,-0.202602,0.033947,1
4139021551,0.266689,-0.288675,0.105587,0.152438,-0.08642,0.078376,-0.34198,-0.260901,0.171447,1
4139054885,0.064762,-0.193347,0.211818,0.404418,0.093158,0.219056,-0.580178,-0.149445,0.434518,1
4139088219,0.318495,0.071316,0.169994,0.476003,0.021987,0.191536,-0.595345,-0.275388,0.383187,1
4139121553,0.365146,0.161359,-0.002491,0.556987,0.080581,-0.065164,-1.548826,-0.165129,0.969574,1
4139154887,0.25041,0.15558,-0.037223,0.729102,0.048004,-0.292216,-0.238052,0.024782,0.285179,1
4139188221,0.244413,0.296588,0.202553,0.609702,0.092084,0.103721,-0.590817,-0.0569,0.474975,1
4139221555,0.344447,0.273383,0.326315,0.689484,0.151808,0.14816,-0.610871,-0.24072,0.277286,1
4139254889,0.470641,0.269887,0.366617,0.793133,0.250983,0.270187,-0.400886,-0.236988,0.042248,1
4139288223,0.472983,0.240497,0.409716,0.721846,0.19819,0.421792,-0.305461,-0.166251,-0.014374,1
4139321557,0.501364,0.221502,0.270284,0.591159,0.075285,0.281639,-0.43981,-0.310648,-0.057511,1
4139354891,0.326323,0.138707,0.210948,0.475369,0.060249,0.126623,-0.299128,-0.294526,-0.049272,1
4139388225,0.093111,0.121973,0.280073,0.254873,0.02449,0.178325,-0.177393,-0.271634,0.114069,1
4139421559,0.025629,0.048418,0.212904,0.159882,0.062526,0.119306,0.102582,-0.128475,-0.033179,1
4139454893,0.002414,0.038645,0.166118,-0.113257,0.07427,0.008882,-0.083011,-0.079494,0.049793,1
4139488227,0.035101,0.064319,0.05621,-0.346772,0.152444,0.045762,-0.113933,0.05025,0.164375,1
4139521561,0.002195,0.081436,-0.033107,-0.263585,0.161296,-0.085736,-0.055602,-0.025748,0.196731,1
4139554895,-0.021036,0.076768,-0.053613,-0.234973,0.11252,-0.113734,0.142609,0.063746,0.135304,1
4139588229,-0.089927,0.067143,0.019024,-0.327187,0.101273,-0.049938,0.287261,0.065409,0.070997,1
4139621563,-0.077839,0.084478,0.028631,-0.327066,0.030162,-0.019678,0.172998,-0.043069,0.004041,1
4139654897,-0.009212,0.154466,0.095225,-0.178652,-0.017442,0.054726,0.285047,0.17663,-0.121142,1
4139688231,0.100757,0.22834,0.123093,-0.048702,-0.057935,0.156184,0.326839,0.316887,-0.088053,1
4139721565,0.118771,0.184812,0.036493,0.033231,-0.017024,0.11484,0.258177,0.220129,-0.112716,1
4139754899,0.008244,0.118958,0.122139,0.062237,-0.095902,0.132208,0.186712,0.158437,-0.043437,1
4139788233,-0.015612,0.090999,0.199362,-0.075705,-0.056254,0.145543,0.278237,0.172694,-0.015869,1
4139821567,-0.112575,0.132908,0.336054,-0.013974,-0.001168,0.211297,0.410161,0.293172,0.097629,1
4139854901,-0.009991,0.201051,0.156434,0.029767,0.108401,0.148246,0.237889,0.194276,0.133132,1
4139888235,0.033506,0.208955,0.3174,0.017869,0.243216,0.173499,-0.048843,0.347962,0.158528,1
4139921569,-0.179638,0.189524,0.505152,-0.079652,0.172993,0.440197,0.071868,0.476797,-0.073357,1
4139954903,-0.076831,0.164073,0.208629,0.013235,0.212944,0.146955,-0.046401,0.539077,0.058004,1
4139988237,-0.205548,0.029951,0.161114,0.057817,0.233529,-0.037441,-0.078975,0.504111,0.271791,1
4140021571,-0.202857,0.028253,-0.186112,-0.105288,0.07181,-0.241131,-0.217519,0.509691,0.277166,1
4140054905,-0.289148,-0.068971,-0.281298,-0.249705,0.25999,-0.444458,-0.310375,0.671316,0.479473,1
4140088239,-0.421445,-0.165308,0.003707,-0.269556,0.40818,-0.326412,-0.401119,0.474442,0.367416,1
4140121573,-0.459095,-0.064988,0.157019,-0.437674,0.318259,-0.158632,0.103243,0.512951,0.206523,1
4140154907,-0.58875,-0.076661,0.185289,-0.708167,0.32213,0.026575,0.419018,0.204291,0.314239,1
4140188241,-0.580381,-0.005942,0.361755,-0.701807,0.339729,0.192569,0.59981,-0.022204,0.162124,1
4140221575,-0.418426,0.136372,0.37646,-0.688189,0.218724,0.301669,0.50488,-0.060805,0.397758,1
4140254909,-0.168625,0.08686,0.26413,-0.690275,0.165523,0.237665,0.705078,0.275301,0.222088,1
4140288243,-0.232268,-0.258697,0.177973,-0.723924,0.080037,0.133094,0.518873,0.245846,0.172706,1
4140321577,-0.407022,-0.478209,0.034619,-0.801025,-0.113363,-0.028804,0.705195,0.45569,0.129075,1
4140354911,-0.535421,-0.538789,-0.079532,-0.813992,-0.244622,-0.18823,0.718533,0.596067,0.031907,1
4140388245,-0.580863,-0.429786,-0.037973,-0.716808,-0.343206,-0.178218,0.553498,0.714195,0.008152,1
4140421579,-0.44693,-0.273508,0.034614,-0.676164,-0.450661,-0.017013,0.562238,0.836518,-0.112,1
4140454913,-0.37811,-0.161509,0.269072,-0.496878,-0.519459,0.282201,0.378289,1.36999,0.247094,1
4140488247,-0.31315,-0.275342,0.386692,-0.533621,-0.538931,0.495198,0.512697,2.999596,0.823893,1
4140521581,-0.228231,-0.306432,0.172095,-0.611736,-0.550819,0.345169,1.565604,1.38387,-0.53605,1
4140554915,-0.389784,-0.456077,0.175252,-0.555639,-0.397527,0.252435,0.900137,0.792187,-0.375671,1
4140588249,-0.557106,-0.485504,0.42583,-0.43727,-0.317752,0.165406,0.473824,0.555773,-0.22226,1
4140621583,-0.752066,-0.223502,0.43574,-0.395954,-0.402291,0.196916,0.00991,0.193381,-0.144996,1
4140654917,-0.74846,0.04475,0.331515,-0.332715,-0.347322,0.193089,-0.354727,-0.03646,0.039984,1
4140688251,-0.67668,0.335359,0.338806,-0.280504,-0.317547,0.323317,-0.216787,-0.110423,0.028671,1
4140721585,-0.567007,0.573767,0.205678,-0.296538,-0.307612,0.37697,-0.121789,-0.145795,-0.123116,1
4140754919,-0.502684,0.519757,-0.007206,-0.490869,-0.204591,0.194422,-0.047331,0.023449,-0.044572,1
4140788253,-0.738195,0.352889,-0.054963,-0.68573,-0.117485,0.031893,-0.435669,-0.105356,-0.025648,1
4140821587,-0.904565,0.151915,0.446813,-0.73174,0.109318,0.333987,-0.344652,-0.006575,0.353732,1
4140854921,-0.814658,-0.126482,0.413624,-0.961679,0.188958,0.186512,-0.480011,-0.00103,0.362664,1
4140888255,-0.277824,-0.111366,0.341043,-1.102644,0.239619,0.189857,-0.664671,0.223662,0.545912,1
4140921589,0.349674,-0.162725,-0.466806,-1.098419,0.205167,-0.409865,-0.896968,0.271488,0.195841,1
4140954923,-0.002113,-0.190581,-0.326385,-0.950996,0.253543,-0.269924,0.265567,0.416868,0.037294,1
4140988257,-0.408431,-0.147058,0.248197,-0.680336,0.265009,0.234286,-0.81273,0.421663,0.436766,1
4141021591,-0.378341,-0.024854,0.463868,-0.43316,0.280353,0.359184,-0.591754,0.35007,0.288584,1
4141054925,0.047511,0.109841,0.154981,-0.08711,0.28141,-0.036395,-0.343704,0.363212,0.132795,1
4141088259,0.209197,0.139227,-0.23103,0.113346,0.123018,-0.236263,-0.392585,0.149351,0.128036,1
4141121593,0.335924,0.198136,-0.10861,0.46627,-0.052178,0.007628,-0.439594,0.139219,0.283543,1
4141154927,0.259827,0.188806,0.24932,0.999091,0.075654,0.082296,-0.351083,0.018844,0.117617,1
4141188261,0.107634,0.008187,0.327555,0.745911,0.350989,0.076131,-0.531027,-0.108235,0.080972,1
4141221595,-0.009603,0.000774,0.146708,0.755943,0.169316,-0.128509,-0.2665,-0.332847,-0.032821,1
4141254929,0.009206,0.05162,-0.275393,0.648755,0.086051,-0.493037,-0.220809,-0.445229,0.068766,1
4141288263,-0.025415,-0.026785,-0.235586,0.396814,0.182557,-0.522744,-0.033775,-0.423075,0.032317,1
4141321597,-0.058132,0.004815,-0.115499,0.305378,0.058268,-0.330698,0.204083,-0.255206,-0.108885,1
4141354931,0.049095,0.105284,0.044022,0.148587,-0.081915,-0.054233,0.476392,-0.127326,-0.024007,1
4141388265,0.164569,0.082493,0.192186,0.132017,-0.090398,0.192602,0.771919,-0.166051,-0.13807,1
4141421599,0.305551,0.039368,0.284593,0.109068,-0.240449,0.550676,0.900955,-0.059119,-0.305285,1
4141454933,0.479054,0.13098,0.556421,0.149607,-0.586451,1.029415,-1.991491,-1.665621,1.265098,1
4141488267,0.805092,0.170089,0.691768,0.509625,-0.513735,0.988222,0.661419,0.002856,0.324893,1
4141521601,0.80715,0.003649,0.665026,0.980328,-0.35982,0.7801,0.351607,0.011195,-0.048903,1
4141554935,0.683593,-0.146832,0.375563,1.042456,-0.140628,0.244114,1.007774,0.419208,-0.437511,1
4141588269,0.662844,-0.166908,0.097777,0.837815,0.125672,-0.071751,0.25093,0.545158,0.803117,1
4141621603,0.496651,-0.095206,0.319484,0.671063,0.083396,0.147738,0.157457,-0.752897,-0.421871,1
4141654937,0.480349,0.024994,0.474558,0.513224,0.024893,0.251608,-0.264705,0.133406,0.539338,1
4141688271,0.578113,-0.052769,0.226508,0.490435,0.060509,0.022964,-0.206287,-0.882439,-0.03925,1
4141721605,0.638861,-0.135927,-0.031759,0.387642,0.241035,-0.102993,0.535174,-0.562941,-0.512676,1
4141754939,0.489858,-0.139867,0.147945,0.600124,0.634961,-0.152085,-0.630679,-0.414809,0.450229,1
4141788273,0.337361,-0.180236,0.183522,0.382697,0.630501,-0.13641,-0.480119,-0.337914,0.358731,1
4141821607,0.203001,-0.230713,-0.040548,0.465559,0.518608,-0.336894,-0.213258,-0.546288,0.081708,1
4141854941,-0.068672,-0.14991,-0.105538,0.614968,0.404596,-0.449522,-0.371312,-0.708382,0.24367,1
4141888275,-0.131593,-0.025292,-0.0509,0.375684,-0.226689,-0.022184,-0.592803,-0.748042,0.39979,1
4141921609,-0.030944,0.246693,0.255483,0.720464,-0.712011,0.323374,-0.51304,-0.791181,0.354755,1
4141954943,0.066256,0.170014,0.302169,0.523466,-0.566897,0.196826,-0.483319,-0.584274,0.16338,1
4141988277,0.092585,-0.019373,0.334077,0.219741,-0.205641,0.299561,-0.341058,-0.28767,-0.044648,1
4142021611,0.148606,-0.06859,0.278473,0.064634,0.092597,0.287297,-0.41893,-0.144339,-0.167345,1
4142054945,0.418225,0.032942,0.217553,-0.085994,0.334942,0.300296,-0.366152,0.017403,-0.076532,1
4142088279,0.51402,0.063053,0.216937,-0.152762,0.449841,0.256552,-0.237837,0.068787,0.033658,1
4142121613,0.274985,-0.077622,0.237364,-0.008266,0.397455,0.143555,-0.116837,0.065475,0.084357,1
4142154947,0.155876,-0.065998,0.247427,0.163194,0.017997,0.151251,0.095472,0.090653,0.169064,1
4142188281,0.292723,-0.079831,0.050718,0.25591,-0.287015,0.018428,-0.040734,0.06652,0.160276,1
4142221615,0.34486,-0.151704,-0.095486,0.495989,-0.38437,-0.041146,-0.211627,0.039381,0.284969,1
4142254949,0.292657,-0.132595,-0.146069,0.535492,-0.405314,-0.152952,-0.26198,0.14606,0.382996,1
4142288283,0.344962,-0.04123,-0.123309,0.438884,-0.314769,-0.157793,-0.113258,0.096604,0.502176,1
4142321617,0.344244,-0.126827,-0.064361,0.095858,0.094148,-0.244125,0.145018,0.067066,0.520853,1
4142354951,0.216555,-0.277162,-0.131524,-0.374754,0.356875,-0.303996,0.364881,0.11383,0.294633,1
4142388285,0.393345,-0.226098,-0.185664,-0.536427,0.413882,-0.463168,0.3129,0.121753,0.321517,1
4142421619,0.295697,-0.289803,-0.049266,-0.563623,0.284513,-0.333841,0.076443,0.139431,0.429663,1
4142454953,0.284367,-0.446149,0.003438,-0.195921,-0.09364,-0.137091,0.124933,0.038506,0.331396,1
4142488287,-0.161424,-0.572047,0.409156,0.219064,-0.545291,0.428941,0.376475,-0.005158,0.598314,1
4142521621,-0.12062,-0.697728,0.2979,0.36876,-1.219216,0.526332,0.533239,-0.127012,0.205546,1
4142554955,0.087905,-0.585623,0.085404,0.49308,-1.048983,0.371583,0.391406,-0.221565,0.077024,1
4142588289,-0.087551,-0.387306,0.25444,0.343201,-0.85354,0.238359,0.59113,-0.402152,-0.148114,1
4142621623,0.453077,0.059782,0.146284,-0.418663,-0.755978,0.354757,0.327704,-0.309258,-0.052584,1
4142654957,0.330908,0.113974,0.206831,-0.142849,-0.133297,0.203769,0.008204,-0.702831,0.092068,1
4142688291,0.314461,0.100293,0.242075,0.226231,0.112211,0.096674,0.861175,-0.310172,-0.223278,1
4142721625,0.396152,0.184821,0.013842,-0.064483,0.163737,0.034658,0.815026,-0.30894,-0.164991,1
4142754959,0.318032,0.090349,0.131825,-0.131177,0.288203,0.034963,-0.140045,-1.213345,0.32459,1
4142788293,0.2781,0.131305,0.054611,0.191239,0.168672,0.06188,0.256473,-0.436487,0.334206,1
4142821627,0.249669,0.105586,0.175745,0.456367,0.172361,0.064415,-0.480798,-0.718195,0.243701,1
4142854961,0.165838,0.01332,0.202889,0.626124,0.121809,0.079975,-0.967018,-0.993191,0.693332,1
4142888295,0.301238,0.069021,0.17413,0.827391,0.059975,0.001615,3.239438,0.840269,-1.983403,1
4142921629,0.219604,0.023812,0.157739,0.906589,0.037443,-0.056524,-2.808786,-0.807227,1.161697,1
4142954963,0.298889,0.07645,0.136829,0.751595,-0.041282,-0.005267,-0.987286,-0.072161,0.085619,1
4142988297,0.470489,0.151077,0.169305,0.497398,0.00629,-2.2e-05,-0.502073,-0.180855,-0.028675,1
4143021631,0.300156,0.099369,0.274027,0.318935,0.046496,0.115067,-0.118966,0.283815,0.172558,1
4143054965,0.148327,0.012468,0.168157,0.260631,0.082005,0.147546,-0.746661,0.165268,0.226271,1
4143088299,0.057812,-0.104662,0.114274,0.073103,0.129397,0.049897,-0.451002,-0.061005,-0.151364,1
4143121633,0.095806,-0.018738,0.214356,-0.105234,0.029967,0.109228,0.575673,0.37277,-0.17037,1
4143154967,0.230946,0.075455,0.154224,-0.108446,-0.040452,0.081074,-0.515173,-0.168517,0.372441,1
4143188301,0.169216,0.128955,0.158817,-0.044746,-0.014535,0.130558,-0.78574,-0.268257,0.399506,1
4143221635,0.214193,0.20853,0.16344,0.047535,-0.03086,0.224918,-0.530783,-0.244371,0.254888,1
4143254969,0.162564,0.205372,0.19718,0.17011,0.015487,0.291397,0.130037,-0.247043,0.176741,1
4143288303,0.238548,0.243011,0.095771,0.167487,0.106567,0.19052,-0.175993,-0.054307,0.203758,1
4143321637,0.256135,0.314871,0.174974,0.236327,0.208481,0.178454,-0.18541,0.23576,-0.12739,1
4143354971,0.313087,0.346398,0.164902,0.354719,0.265684,0.103301,-0.211914,0.373206,-0.282863,1
4143388305,0.266657,0.303045,0.347942,0.513364,0.445931,0.152146,-0.21067,1.019915,0.35987,1
4143421639,0.223136,0.35246,0.561356,0.635416,0.469536,0.355193,0.345576,0.948115,0.974814,1
4143454973,0.368802,0.511064,0.385231,0.6975,0.448103,0.348174,2.686306,1.150855,0.583829,1
4143488307,0.193576,0.357435,-0.115493,0.654717,0.56796,-0.089824,2.178753,0.964991,-0.462519,1
4143521641,-0.122358,0.122925,-0.401508,0.449065,0.590921,-0.504395,1.229703,0.939796,-0.924179,1
4143554975,-0.45337,0.024637,-0.448602,0.169131,0.569701,-0.838547,-0.086602,0.61323,-0.544057,1
4143588309,-0.978126,-0.065344,0.078225,0.004512,0.66688,-0.682177,-0.220754,0.428977,-0.054755,1
4143621643,-1.306096,-0.072046,0.634664,-0.145782,0.664593,-0.187833,0.42413,0.427736,0.397137,1
4143654977,-0.966646,0.038636,0.638812,-0.39896,0.707912,0.060236,-0.113091,0.301677,0.910814,1
4143688311,-0.662565,-0.017144,0.317806,-0.747337,0.600853,0.132179,-0.315524,-0.001513,0.313294,1
4143721645,-0.656114,-0.068494,0.076783,-1.060989,0.33871,0.185921,-0.528383,-0.120117,-0.171173,1
4143754979,-0.675339,0.016628,-0.121367,-1.470252,-0.078769,0.314999,-2.432884,-0.516173,0.838408,1
4143788313,-0.344879,0.216661,-0.255172,-1.535653,-0.280764,0.215565,1.194388,1.377312,0.392337,1
4143821647,-0.327459,0.226025,0.041594,-1.232731,-0.251884,0.252366,-1.56707,-0.989903,-0.020015,1
4143854981,-0.333396,0.168814,0.062992,-1.093412,-0.421078,0.345572,1.650829,0.622583,-0.592755,1
4143888315,-0.180903,0.154303,0.085716,-1.319619,-0.454768,0.215824,-0.980753,0.296382,0.192384,1
4143921649,-0.378441,-0.290336,0.137994,-1.365383,-0.527001,0.218695,-0.881541,0.822424,0.605365,1
4143954983,-0.4175,-0.556277,0.289118,-1.342016,-0.510632,0.331072,-0.534002,0.789594,0.136155,1
4143988317,-0.374605,-0.795264,0.343503,-1.255642,-0.488528,0.261156,-0.584285,0.649265,0.07083,1
4144021651,-0.467058,-0.900003,0.313556,-0.957458,-0.58398,0.200336,-0.985365,0.798169,0.443191,1
4144054985,-0.357686,-0.680191,0.332226,-0.554642,-0.613838,0.264861,-1.229844,0.36529,0.454109,1
4144088319,-0.308166,-0.464597,0.351688,-0.258178,-0.621957,0.249599,-0.78379,-0.031921,0.432467,1
4144121653,-0.42853,-0.403298,0.341664,0.043624,-0.626866,0.254673,-0.381365,0.044607,0.320781,1
4144154987,-0.537132,-0.265494,0.31714,0.281353,-0.571678,0.18592,-0.075787,0.055007,0.11946,1
4144188321,-0.492923,0.098795,0.450728,0.336558,-0.551339,0.361856,0.043542,-0.073144,-0.144971,1
4144221655,-0.280829,0.29569,0.515882,0.382254,-0.38592,0.475292,0.019882,0.030611,-0.127633,1
4144254989,-0.413581,0.079581,0.340647,0.536535,-0.136274,0.527427,0.077088,0.081413,-0.000456,1
4144288323,-0.190131,0.122342,0.279183,0.242512,0.089338,0.335478,0.40195,0.089193,0.059073,1
4144321657,-0.386717,-0.008946,0.147346,-0.181529,0.030294,0.12347,0.551512,0.093709,-0.033816,1
4144354991,-0.550485,-0.124501,-0.056602,-0.405709,0.105163,-0.177617,0.633577,0.009443,-0.190515,1
4144388325,-0.706642,-0.204022,-0.10237,-0.527212,0.215416,-0.350513,0.668495,0.176518,-0.199899,1
4144421659,-0.86302,-0.180554,0.467953,-0.636243,0.430444,0.066453,0.802306,0.264378,-0.044584,1
4144454993,-0.673938,-0.179631,0.722573,-0.572562,0.625608,0.329467,0.758565,0.315909,0.182491,1
4144488327,-0.251953,-0.082994,0.163919,-0.703485,0.594961,0.145197,0.637453,0.337192,-0.453707,1
4144521661,0.267145,0.104962,-0.118068,-0.901909,0.56146,-0.106787,0.460248,0.075458,-0.867359,1
4144554995,0.113593,0.259259,0.127725,-0.852779,0.21025,0.222106,0.470133,0.055955,-0.291119,1
4144588329,0.123507,0.312346,0.185205,-0.657321,0.263793,0.26521,0.379596,0.065721,0.059216,1
4144621663,0.209669,0.230665,0.247027,-0.443347,0.168124,0.211331,0.324901,0.012966,-0.040874,1
4144654997,0.137698,0.066703,0.049764,-0.224119,0.06979,0.107255,0.027355,-0.027268,-0.010492,1
4144688331,0.102285,-0.098557,0.031024,-0.088306,0.026535,-0.004169,-0.318051,0.027337,0.198414,1
4144721665,0.000775,-0.27058,0.086578,-0.04668,-0.031811,-0.043136,-0.20467,0.254517,0.2991,1
4144754999,0.091303,-0.262044,0.189215,0.147896,-0.078924,-0.009091,-0.554674,0.400869,0.657931,1
4144788333,0.197278,-0.259478,0.21801,0.323971,-0.112516,-0.051326,-0.48846,0.543627,0.65512,1
4144821667,0.205455,-0.331946,0.274569,0.541709,-0.085403,0.018817,-0.71349,0.246755,0.660536,1
4144855001,0.175621,-0.440587,0.269507,0.727517,-0.142145,0.007725,-0.526938,0.098702,0.368455,1
4144888335,0.05365,-0.425607,0.128877,0.768514,-0.199574,-0.087104,-0.35487,0.029981,0.131746,1
4144921669,-0.078643,-0.268923,0.003351,0.59969,-0.28641,-0.206841,-0.018055,0.052675,-0.025276,1
4144955003,-0.093577,-0.07537,-0.012846,0.391998,-0.28007,-0.095814,0.05572,0.033348,0.001875,1
4144988337,-0.1483,0.106628,0.112786,0.331512,-0.229892,0.107517,0.112079,0.080605,0.147132,1
4145021671,0.096607,0.441818,0.341623,0.473306,0.070673,0.53334,0.202572,0.156807,0.26595,1
4145055005,0.426139,0.260086,0.081633,0.403366,0.335862,0.383543,0.205694,0.208159,0.3752,1
4145088339,0.180922,0.057336,0.215024,-0.099212,0.176573,0.292043,0.365918,0.212661,0.205153,1
4145121673,-0.036434,-0.014232,0.18701,-0.414813,0.124519,0.192261,0.306673,0.198021,0.17152,1
4145155007,0.100245,-0.086767,0.085812,-0.491093,0.118866,-0.102546,0.465142,0.254315,-0.082516,1
4145188341,-0.03502,0.011404,-0.034638,-0.26957,0.062423,-0.333039,0.54762,0.263287,-0.170781,1
4145221675,-0.22431,0.109848,-0.076387,-0.038953,0.038607,-0.21845,0.097314,0.069033,-0.022462,1
4145255009,-0.021389,0.182813,-0.081865,0.063823,0.1812,-0.178549,-0.020584,0.028914,-0.010509,1
4145288343,0.06137,0.082624,-0.025155,0.115246,0.108535,-0.125731,-0.111048,-0.001328,-0.00168,1
4145321677,0.014175,0.033815,0.101301,-0.118898,-0.030997,0.065143,-0.141791,-0.04776,0.08722,1
4145355011,0.20487,-0.017553,0.101272,-0.200715,-0.11741,0.107191,-0.028845,-0.119691,0.106174,1
4145388345,0.136323,-0.076216,0.081835,-0.066207,-0.249745,0.152821,-0.06086,-0.060974,0.077157,1
4145421679,0.175107,-0.027241,0.113616,0.162542,-0.34249,0.199229,-0.251653,-0.183854,0.180922,1
4145455013,0.112227,-0.028446,0.186242,0.403395,-0.399271,0.202993,-0.327444,-0.219388,0.251024,1
4145488347,0.144973,-0.132943,0.265965,0.637664,-0.181874,0.169212,-0.329541,-0.170818,0.219615,1
4145521681,0.132278,-0.206784,0.331753,0.512247,0.033231,0.117629,-0.302984,-0.304865,0.164618,1
4145555015,0.187313,-0.171404,0.192657,0.188935,0.093541,0.095423,-0.191936,-0.279127,0.150507,1
4145588349,0.144643,-0.152843,0.045058,-0.073963,0.041855,-0.020819,-0.374099,-0.153175,0.304789,1
4145621683,0.018999,-0.138206,0.091865,-0.013762,0.003108,-0.042827,-0.233048,-0.165058,0.203245,1
4145655017,-0.013025,-0.079146,0.149664,-0.0472,-0.087693,0.052967,-0.507876,-0.503549,0.106722,1
4145688351,-0.089852,0.035207,0.326458,0.114339,-0.219632,0.400435,-1.804925,-0.364634,1.127759,1
4145721685,0.342217,0.287577,0.464145,0.28093,-0.076464,0.621051,-0.049682,-0.173723,0.387172,1
4145755019,0.532018,0.334689,0.479443,0.484746,-0.179141,0.682169,0.261885,-0.879399,-0.011771,1
4145788353,0.499935,0.115027,0.392322,0.563415,-0.124406,0.35434,0.466707,-0.093213,0.184767,1
4145821687,0.547721,-0.057142,0.172508,0.713656,-0.059646,0.089304,0.589112,-0.319413,-0.27749,1
4145855021,0.42768,-0.110775,0.068247,0.61826,-0.01386,-0.042745,0.469748,0.081697,-0.280056,1
4145888355,0.477824,-0.090344,-0.005142,0.721452,-0.021494,-0.080013,0.198619,0.021351,-0.222295,1
4145921689,0.398267,-0.174298,-0.049809,0.506063,-0.028468,-0.191479,0.448111,-0.131357,-0.457954,1
4145955023,0.412388,-0.210057,0.054704,0.369632,0.088419,-0.154486,0.105651,-0.378072,-0.020308,1
4145988357,0.385297,-0.201886,0.209828,0.09313,0.12758,-0.033143,-0.048773,-0.341961,0.612019,1
4146021691,0.4497,-0.201376,0.213055,-0.148791,0.314628,-0.110869,-0.080544,-0.430473,0.537649,1
4146055025,0.35101,-0.235784,0.320072,0.162344,0.145733,0.003529,-0.153924,-0.345291,0.876764,1
4146088359,0.298122,-0.113625,0.251608,0.356838,-0.340331,0.243238,-0.316535,-0.136351,0.623732,1
4146121693,0.458523,-0.13572,-0.026419,0.042403,-0.58006,0.19961,-0.142258,-0.271853,0.171651,1
4146155027,0.200329,-0.393452,0.085792,-0.189322,-0.622541,0.266902,-0.022684,-0.351081,0.035239,1
4146188361,0.1633,-0.548252,0.08985,-0.786343,-1.474767,0.976397,-0.01233,-0.346337,-0.046894,1
4146221695,0.244808,-0.562791,0.316382,2.197007,0.624664,-0.941447,0.045966,-0.405139,-0.04816,1
4146255029,-0.083686,-0.420711,0.342482,2.100618,0.368435,-0.025135,0.020976,-0.37705,-0.004318,1
4146288363,0.549144,-0.011378,0.186895,0.500914,0.147652,0.080969,-0.037879,-0.396559,0.044249,1
4146321697,0.150786,-0.43366,0.578292,0.963033,0.557014,-0.095682,0.10266,-0.528072,0.17662,1
4146355031,-0.205226,-0.962731,0.692558,0.673507,0.094847,0.483039,0.25648,-0.646682,0.428051,1
4146388365,-0.555049,-0.432755,1.121502,0.569411,0.158694,1.144628,-0.162956,-0.37575,1.370379,1
4146421699,0.13875,0.308264,0.471628,-0.10663,-0.197834,0.771121,-0.238477,-0.072406,0.689681,1
4146455033,1.073005,0.989962,-0.738824,-0.932975,-0.885056,-0.271602,-0.091373,-0.355024,-0.290722,1
4146488367,0.812295,0.883856,-1.291672,-0.204414,-0.565513,-0.758804,0.257092,-0.097024,-0.703159,1
4146521701,0.427609,0.80189,-1.152779,-0.012945,-0.144025,-0.859775,0.086509,-0.143608,-0.463354,1
4146555035,0.205932,0.733118,-0.925568,0.093532,0.308124,-0.799186,0.302538,-0.218488,-0.193627,1
4146588369,-0.093786,0.587691,-0.432484,0.16913,0.813342,-0.707192,0.452202,-0.220471,-0.02933,1
4146621703,-0.146283,0.245544,0.437469,0.236249,1.279858,-0.069611,0.501569,-0.221771,0.315737,1
4146655037,-0.457388,-0.239624,0.987246,0.245899,1.481582,0.1578,0.262423,-0.324056,0.281829,1
4146688371,-0.23588,-0.416088,0.798248,0.247033,0.781746,0.091029,0.226612,-0.086823,0.034709,1
4146721705,-0.357158,-0.511091,0.406917,-0.120099,-0.414473,0.395704,-0.273398,0.228916,0.092693,1
4146755039,-0.213401,-0.52139,0.09301,-0.564261,-0.917868,0.534128,-0.421554,0.645843,0.204028,1
4146788373,-0.353501,-0.265581,-0.052121,-1.590516,-0.86008,0.36644,-0.359251,1.346717,0.423438,1
4146821707,-0.562428,-0.032322,-0.139885,-0.80977,-0.273458,-0.227152,-0.50636,1.755305,0.682512,1
4146855041,-0.624364,0.171336,-0.208024,-0.131308,-0.078293,-0.332071,0.138009,1.630091,0.433043,1
4146888375,-0.393706,0.255561,-0.088552,0.232305,0.019231,-0.249958,0.285525,0.948074,0.432051,1
4146921709,-0.323826,0.122339,0.135629,-0.234469,0.319035,-0.023016,0.143649,0.349056,0.356458,1
4146955043,-0.331233,-0.192684,0.235907,-0.719505,0.273977,0.136308,0.279347,0.036315,0.263134,1
4146988377,-0.409,-0.472577,0.310855,-0.719709,0.073707,0.295022,0.273852,-0.218742,0.146873,1
4147021711,-0.155202,-0.539398,0.22965,-0.778489,-0.06561,0.207208,0.384645,-0.241841,0.085871,1
4147055045,-0.383263,-0.653967,0.414475,-0.732075,-0.124507,0.339815,0.367932,-0.161386,-0.013049,1
4147088379,-0.358221,-0.454206,0.176193,-0.594165,-0.224065,0.147265,0.304088,-0.256324,-0.013139,1
4147121713,-0.684957,-0.379184,0.215452,-0.463354,-0.222663,0.09319,0.045239,-0.069099,0.003947,1
4147155047,-0.638689,-0.240649,0.100911,-0.424118,-0.345763,0.019684,0.392663,0.110168,-0.121476,1
4147188381,-0.60739,-0.10913,-0.07006,-0.365595,-0.488107,-0.052425,0.65934,0.344653,-0.072057,1
4147221715,-0.502021,-0.070085,0.144555,-0.495932,-0.411786,0.060843,0.594253,0.424042,0.104763,1
4147255049,-0.559776,-0.102854,0.402892,-0.664235,-0.448954,0.385401,1.004314,0.681387,0.007852,1
4147288383,-0.451578,-0.02265,0.467082,-0.618031,-0.431715,0.473214,1.208957,0.771389,-0.118264,1
4147321717,-0.511293,0.039395,0.203112,-0.395,-0.351718,0.337148,0.834639,0.512702,-0.071877,1
4147355051,-0.369806,0.104948,0.094815,-0.431268,-0.211141,0.264166,0.160089,0.258595,0.154293,1
4147388385,-0.089358,0.248523,0.401705,-0.332644,-0.066229,0.365651,0.002484,0.150914,0.212321,1
4147421719,-0.248945,0.226712,0.545204,-0.120609,0.035063,0.474897,-0.205269,-0.051281,0.02944,1
4147455053,-0.246049,0.071972,0.340908,-0.088364,0.123809,0.270331,-0.207739,-0.098965,-0.217068,1
4147488387,-0.355723,0.018767,0.212964,-0.292904,0.184526,0.09341,-0.447294,0.078818,-0.162077,1
4147521721,-0.26169,0.145208,0.114786,-0.363966,0.120503,0.039396,-0.199741,0.310858,-0.168492,1
4147555055,-0.141018,0.204643,0.018675,-0.198458,0.097729,-0.029647,-0.669832,0.171301,0.188527,1
4147588389,-0.18185,0.271863,0.099336,-0.104649,0.167318,-0.001887,-0.656677,0.217302,0.288643,1
4147621723,-0.15571,0.316464,0.269221,-0.006748,0.168561,0.147099,-0.735991,0.288655,0.466336,1
4147655057,-0.029736,0.344996,0.333951,-0.072658,0.192204,0.272964,-0.653033,0.44865,0.480566,1
4147688391,0.246052,0.224293,0.194583,-0.019022,0.287079,0.183908,-0.638476,0.494269,0.247175,1
4147721725,0.324596,0.191396,0.030556,-0.003769,0.252981,0.119536,-0.694709,0.465833,0.120295,1
4147755059,0.252051,0.173164,0.136411,0.031288,0.308826,0.141256,-0.615635,0.572281,0.050854,1
4147788393,0.127009,0.134461,0.205585,0.188584,0.305355,0.166286,-0.165339,0.185544,0.02644,1
4147821727,0.109659,0.090917,0.040807,0.257503,0.303599,-0.03603,-0.312789,0.040353,0.075131,1
4147855061,0.152562,0.058268,-0.021804,0.293223,0.336167,-0.156384,0.008725,-0.257821,-0.184962,1
4147888395,0.14295,0.084864,0.044103,0.328373,0.322283,-0.148155,-0.184249,0.119326,0.250401,1
4147921729,0.155701,0.119372,0.138466,0.367952,0.285921,-0.108799,0.516446,0.347552,0.053053,1
4147955063,0.149849,0.16553,0.088577,0.408327,0.187003,-0.129359,0.211384,-0.137283,0.052037,1
4147988397,0.148274,0.174983,0.024066,0.37563,0.182361,-0.144836,-0.009281,0.078297,0.289527,1
4148021731,0.19902,0.189171,0.05883,0.278024,0.100995,-0.061399,0.195243,0.360968,0.269655,1
4148055065,0.246575,0.186936,0.07171,0.290871,0.03209,-0.057897,-0.361854,0.160683,0.247462,1
4148088399,0.186159,0.199023,0.125307,0.263847,0.024848,0.078798,-0.178548,0.019126,0.107715,1
4148121733,0.176253,0.271666,0.252972,0.185632,-0.064,0.284974,0.000383,0.005773,-0.102626,1
4148155067,0.249829,0.217712,0.180929,0.167466,0.070785,0.208471,0.040189,-0.193982,-0.221264,1
4148188401,0.32924,0.209826,0.212672,0.250209,0.06687,0.180567,-0.163964,0.002039,0.030129,1
4148221735,0.222288,0.313877,0.277666,0.270831,0.079052,0.26836,-0.048733,-0.101219,0.022782,1
4148255069,0.370662,0.346907,0.113389,0.239223,-0.006585,0.144368,-0.19466,0.112024,0.057158,1
4148288403,0.445532,0.425262,-0.056499,0.345498,-0.032792,-0.01122,-0.312594,0.165052,0.124655,1
4148321737,0.449378,0.406837,-0.007277,0.464188,0.093784,-0.020954,-0.426546,0.277049,0.148414,1
4148355071,0.378029,0.408835,-0.040638,0.433161,0.19625,-0.043976,-0.441204,0.235301,0.166039,1
4148388405,0.438043,0.389766,0.050012,0.501426,0.322645,-0.066758,-0.433231,0.246376,0.158332,1
4148421739,0.411969,0.374443,0.197598,0.533083,0.451844,0.083838,-0.567575,0.335598,0.459604,1
4148455073,0.409401,0.383022,0.066928,0.560195,0.47405,-0.024227,-0.875407,0.268897,0.452119,1
4148488407,0.391992,0.286892,0.032694,0.706574,0.388056,-0.068233,-0.657181,0.246902,0.08987,1
4148521741,0.387149,0.210754,0.090065,0.530443,0.362408,-0.002675,-0.45062,0.034658,-0.160295,1
4148555075,0.560266,0.119335,0.447433,0.810432,0.649149,-0.008179,-0.604542,-0.119864,-0.048485,1
4148588409,0.657991,0.126353,0.640669,0.798462,0.451068,0.412787,-0.431351,-0.220659,0.148726,1
4148621743,0.569024,-0.021403,0.488644,0.877056,0.037809,0.388151,-0.345142,-0.236975,0.291797,1
4148655077,0.472845,-0.133707,0.440063,0.916444,-0.361959,0.361906,-0.268461,-0.406473,0.179935,1
4148688411,0.279566,-0.183889,0.265799,0.836793,-0.596541,0.270875,-0.257215,-0.60863,0.034432,1
4148721745,0.122683,-0.147322,0.141556,0.63853,-0.570964,0.107709,-0.386585,-0.498884,0.085007,1
4148755079,0.169917,-0.051258,0.125707,0.363577,-0.318807,0.077859,-0.616873,-0.311418,0.220115,1
4148788413,0.176354,-0.135457,0.085246,0.25661,-0.003276,-0.008484,-0.513715,-0.456856,0.080095,1
4148821747,0.097207,-0.373687,0.135082,0.278271,0.103992,-0.099089,-0.346353,-0.63424,0.155618,1
4148855081,-0.061486,-0.580371,0.289035,0.267682,-0.163279,0.051313,-0.084444,-0.811827,0.451052,1
4148888415,0.095377,-0.635634,0.407775,0.209379,-0.642448,0.163086,0.772441,-1.348505,0.191478,1
4148921749,0.275964,-0.57718,0.334369,-0.343925,-0.625774,0.247019,0.073551,-0.83225,0.433938,1
4148955083,0.286624,-0.454348,0.147465,-0.840888,-0.339153,0.394131,0.625001,-0.263907,-0.361043,1
4148988417,0.168765,-0.309265,0.503098,-1.011981,0.152261,0.636644,0.349086,-0.573707,-0.220428,1
4149021751,0.117094,-0.013304,0.5518,-0.130488,-0.067353,0.368927,0.438098,-0.809677,-0.171416,1
4149055085,0.205486,0.122353,0.290385,0.28672,-0.350281,0.203239,0.376851,-0.83169,-0.37571,1
4149088419,0.516483,0.144823,0.216846,0.571158,-0.353943,0.257812,0.413432,-0.722359,-0.142536,1
4149121753,0.608027,0.231734,0.230794,0.56488,-0.314562,0.537181,0.2798,-0.382072,0.082532,1
4149155087,0.687193,0.271949,0.413615,0.76772,0.004891,0.388428,0.289378,-0.14787,0.435946,1
4149188421,0.286687,0.070883,0.314295,0.677113,0.018191,0.444416,0.042586,-0.08625,0.6942,1
4149221755,0.235703,-0.172875,-0.134402,0.900693,0.132585,-0.294516,-0.401429,-0.229135,0.353007,1
4149255089,0.265576,-0.159977,-0.353758,0.917254,0.163071,-0.746572,-0.508859,-0.263882,0.057792,1
4149288423,0.220913,-0.025845,-0.119077,1.164258,0.178775,-0.6566,-0.563101,0.008178,0.255479,1
4149321757,0.151236,0.081234,0.101558,0.767036,0.237753,-0.229654,-0.623114,0.349764,0.480094,1
4149355091,0.228575,0.132233,0.073635,-0.142001,0.445814,0.207862,-0.530531,0.54033,0.310899,1
4149388425,0.194994,-0.01351,-0.106096,0.160583,0.22869,-0.146343,-0.647808,0.669524,0.267005,1
4149421759,0.041304,-0.117411,-0.162127,-0.198487,0.131717,-0.21012,-0.350539,0.615376,0.134663,1
4149455093,-0.051105,-0.21986,-0.129091,-0.340927,-0.029024,-0.169358,-0.396086,0.231907,0.206272,1
4149488427,-0.09137,-0.214021,-0.001804,-0.454304,-0.09169,-0.12172,-0.108894,0.269293,0.155204,1
4149521761,-0.217482,-0.247562,0.096184,-0.592574,-0.10327,-0.050912,0.130302,0.134188,0.13247,1
4149555095,-0.225809,-0.219715,0.019051,-0.649606,-0.28382,-0.008259,-0.352531,-0.316225,0.380201,1
4149588429,-0.151705,-0.155066,-0.033165,-0.533771,-0.2871,-0.016994,-0.054531,-0.209544,0.150943,1
4149621763,-0.142683,-0.041246,0.033948,-0.506091,-0.426124,0.124034,0.035179,-0.21748,0.217874,1
4149655097,-0.06677,-0.027385,0.152952,-0.429515,-0.45547,0.270129,0.076684,-0.229654,0.320683,1
4149688431,-0.038716,0.029975,0.287449,-0.308523,-0.516576,0.361768,0.329087,-0.095367,0.283708,1
4149721765,-0.032396,-0.029822,0.406339,-0.219838,-0.532102,0.49485,0.42457,-0.23482,0.415487,1
4149755099,-0.061961,-0.013465,0.477326,-0.017713,-0.486368,0.503568,0.005329,-0.106615,0.99022,1
4149788433,-0.089003,0.013634,0.254516,0.169478,-0.36764,0.557769,0.157748,0.083364,1.051632,1
4149821767,0.183009,-0.160415,-0.050967,0.237238,-0.104231,-0.015441,0.756144,0.316351,-0.167538,1
4149855101,0.006202,-0.465945,-0.171792,0.126645,-0.060569,-0.354692,0.848162,0.209711,-0.866654,1
4149888435,-0.288642,-0.671966,-0.096673,-0.239654,0.011845,-0.388228,0.451563,0.388842,-0.781137,1
4149921769,-0.367397,-0.698407,-0.019863,-0.404834,0.003861,-0.445406,0.381051,0.118469,-1.06081,1
4149955103,-0.401021,-0.556467,0.269385,-0.423752,0.07613,-0.170356,0.668989,0.12709,-0.766483,1
4149988437,-0.264937,-0.293345,0.304102,-0.336379,0.063302,-0.010033,0.842143,0.258912,-0.693291,1
4150021771,-0.214777,-0.090106,0.189942,-0.350727,-0.04187,0.157321,0.464892,0.409922,-0.225202,1
4150055105,-0.168442,0.071678,0.098494,-0.361599,-0.035898,0.210435,0.580402,-0.020853,0.036092,1
4150088439,-0.230295,0.093109,0.023694,-0.399935,0.065773,0.146973,0.641539,0.432733,0.334886,1
4150121773,-0.442904,-0.085954,-0.027024,-0.506327,0.141321,-0.077558,0.3989,1.234558,0.686822,1
4150155107,-0.649453,-0.172166,0.093005,-0.679821,0.149866,-0.126286,0.307797,1.32795,0.547791,1
4150188441,-0.785427,-0.336215,0.39294,-0.784194,0.236855,0.04804,-0.30861,0.742937,0.850386,1
4150221775,-0.796018,-0.592254,0.743497,-0.573904,0.388389,0.357319,1.119403,-0.670996,0.837156,1
4150255109,-0.652432,-0.640416,0.687113,-0.753149,0.00422,0.418958,1.616095,1.800596,0.517822,1
4150288443,-0.759212,-0.771094,0.828031,-0.72252,0.154287,0.62688,-0.464156,-0.423687,0.26031,1
4150321777,-0.854181,-0.189233,0.153964,-1.225868,-0.738208,0.257093,0.860541,0.191998,-0.385983,1
4150355111,-0.070631,0.556194,-0.342961,-1.316581,-1.141541,0.023353,0.570975,0.456198,-0.03135,1
4150388445,0.100772,0.677099,-0.733972,-0.73561,-0.87818,-0.251309,0.846393,0.568556,-0.461585,1
4150421779,0.071545,0.44269,-0.363807,-0.064099,-0.597297,-0.173546,0.834466,0.473179,-0.391065,1
4150455113,-0.60166,-0.051774,0.246899,0.177993,-0.144579,0.274486,0.542319,0.451455,0.202422,1
4150488447,-0.984316,-0.268978,0.365651,-0.150266,-0.16804,0.194819,0.062212,0.590822,0.635102,1
4150521781,-0.976985,-0.306112,0.370677,-0.725188,-0.150227,0.241489,-0.114267,0.635045,0.79172,1
4150555115,-0.447425,0.013606,0.026201,-1.117656,-0.240428,0.057184,0.036726,0.402543,0.404201,1
4150588449,-0.274681,0.040985,-0.327647,-1.025843,-0.140919,-0.205372,0.104914,0.23668,0.099617,1
4150621783,-0.349841,0.024744,-0.101445,-0.507924,0.210455,-0.156393,0.245591,0.151071,0.092868,1
4150655117,-0.424888,-0.028695,0.58276,-0.324404,0.446123,0.370368,0.347206,-0.157671,0.266687,1
4150688451,-0.699331,-0.13288,0.59303,-0.523323,0.418069,0.362749,0.854662,0.154204,-0.091022,1
4150721785,-0.564789,-0.01919,0.289671,-0.891069,0.300576,0.240808,-0.095262,0.404524,0.368316,1
4150755119,-0.087198,0.162732,-0.100053,-0.803389,0.330609,-0.092125,0.327758,0.54682,0.08518,1
4150788453,0.124678,0.402912,-0.450021,-0.596407,0.312957,-0.387993,-0.449807,0.327135,0.005275,1
4150821787,-0.027751,0.446141,-0.764157,-0.490028,0.147538,-0.510104,-0.539125,0.143271,0.099285,1
4150855121,-0.339395,0.289477,0.149838,0.042784,0.583037,0.01038,-0.533098,0.022725,0.439954,1
4150888455,-0.606597,-0.10663,1.512896,0.677492,0.930839,0.822048,0.132959,-0.501696,0.259726,1
4150921789,-0.629232,-0.090542,0.964891,-0.043624,0.492461,0.601035,-0.090503,0.430242,1.272785,1
4150955123,-0.240216,-0.028771,0.233449,-0.77663,0.281052,0.357838,0.027635,-0.366889,-1.358794,1
4150988457,0.411668,0.060471,-0.091554,-0.218159,0.028402,0.075104,-1.003222,-0.080206,0.07506,1
4151021791,0.604333,0.154533,-0.121409,0.456729,-0.309727,-0.009296,-0.105228,0.273869,-0.221918,1
4151055125,0.287838,0.405145,-0.040978,0.723323,-0.317437,-0.020085,0.656069,0.331301,-0.25094,1
4151088459,0.205109,0.514219,0.439988,0.932086,-0.259677,0.308872,-0.33129,-0.063255,0.382833,1
4151121793,-0.034436,0.248299,0.536491,0.966463,-0.066506,0.275298,-0.531787,-0.039035,0.41911,1
4151155127,0.19584,0.210714,0.188282,0.474855,-0.028401,0.09707,-0.560631,0.155979,0.132611,1
4151188461,0.341922,0.055843,0.125857,0.239341,0.142473,0.020205,-0.372771,0.288183,0.084582,1
4151221795,0.179863,-0.047591,0.236691,0.048963,0.24812,0.137143,-0.540855,0.240658,0.313638,1
4151255129,0.096782,-0.06927,0.199422,0.022505,0.190459,0.105653,-0.493167,0.274464,0.274948,1
4151288463,0.008851,-0.057267,0.181015,0.132228,0.230604,0.072148,-0.514668,0.290046,0.196537,1
4151321797,0.121402,-0.088126,0.099104,0.112533,0.19341,0.005904,-0.479134,0.248042,0.060789,1
4151355131,0.091929,0.008717,0.043575,0.063292,0.117334,-0.093912,-0.378861,-0.037446,-0.013079,1
4151388465,-0.071968,0.04274,0.128574,0.031548,0.055934,-0.011414,-0.33188,0.127398,0.249119,1
4151421799,-0.11295,0.101153,0.227807,-0.032817,-0.001575,0.100043,-0.223565,0.297407,0.171192,1
4151455133,0.054303,0.100369,0.178068,-0.033836,-0.040474,0.121075,-0.282675,0.07017,0.05405,1
4151488467,0.211153,0.07116,0.098047,-0.159123,-0.103704,0.139235,-0.402614,0.305183,0.205533,1
4151521801,0.259951,0.091231,0.007564,-0.189053,-0.121398,0.138494,-0.266718,0.345359,0.17528,1
4151555135,0.238017,0.138124,0.044379,-0.139091,-0.166795,0.13878,-0.163949,0.345837,0.187625,1
4151588469,0.247477,0.061201,0.060489,-0.065771,-0.124031,0.118081,-0.385284,0.303917,0.263467,1
4151621803,0.238673,0.099565,0.086566,-0.039461,-0.042218,0.134815,-0.191469,0.254347,0.362268,1
4151655137,0.208883,0.08033,0.073284,0.075035,0.024939,0.075923,0.181309,0.277205,0.061016,1
4151688471,0.264076,0.084445,0.184386,0.173612,0.126852,0.143204,0.121887,0.208445,0.192019,1
4151721805,0.225904,0.05755,0.034524,0.267591,0.125975,-0.037788,0.310836,0.314822,-0.020204,1
4151755139,0.200539,0.078932,0.038716,0.356064,0.206495,-0.072143,-0.547626,-0.169739,0.117972,1
4151788473,0.275935,0.080685,0.040587,0.415347,0.197255,-0.090199,-0.36308,-0.183922,0.169765,1
4151821807,0.395102,0.146261,0.086175,0.54003,0.232143,-0.107757,0.165379,-0.383393,-0.262352,1
4151855141,0.417723,0.243752,0.326327,0.70192,0.192311,0.215211,-0.097362,-0.203616,0.229042,1
4151888475,0.490018,0.239948,0.161835,0.758432,0.241436,0.063095,-0.190578,-0.359144,0.039488,1
4151921809,0.474158,0.247616,0.204103,0.863613,0.100083,0.043895,-0.165486,-0.415945,0.02534,1
4151955143,0.563036,0.207351,0.357108,0.798491,0.085181,0.394507,-0.073873,-0.190113,0.099133,1
4151988477,0.747486,0.072749,0.471573,0.964787,-0.011051,0.300565,-0.26659,-0.365784,-0.024366,1
4152021811,0.701192,-0.132588,0.452334,0.930973,-0.404621,0.303829,-0.15997,-0.344932,-0.138638,1
4152055145,0.55692,-0.294372,0.43496,1.18207,-0.512848,0.15057,-0.198714,-0.354767,-0.153578,1
4152088479,0.288181,-0.365864,0.353079,0.828885,-0.216519,0.061348,-0.210822,-0.428732,-0.143068,1
4152121813,0.184436,-0.280463,0.162249,0.508913,0.014178,0.102047,-0.257281,-0.380757,-0.072425,1
4152155147,0.218461,-0.158116,0.147061,0.186699,0.365369,0.057608,-0.333343,-0.54645,-0.01068,1
4152188481,0.299018,-0.123716,0.08987,0.298361,0.330439,-0.268207,-0.504667,-0.500956,0.064097,1
4152221815,0.201792,-0.098574,0.080218,0.455108,0.32622,-0.22015,-0.454203,-0.577639,0.177383,1
4152255149,0.21764,-0.147403,0.089523,0.40157,0.214524,-0.130052,-0.487667,-0.448148,0.363685,1
4152288483,0.028679,-0.116332,0.23016,0.191943,0.185209,0.024821,-0.138764,-0.26991,0.406147,1
4152321817,-0.156256,0.04715,0.328189,0.11972,-0.011125,0.292918,-0.263511,-0.317032,1.053346,1
4152355151,-0.06457,-0.029439,-0.246099,-0.169204,-0.360657,-0.132041,-0.091034,-0.072338,0.347155,1
4152388485,-0.078269,0.038241,-0.254236,-1.010506,-0.685516,0.256715,0.209727,0.189083,0.258874,1
4152421819,-0.099351,0.124159,0.041951,-1.003562,-1.022738,0.30968,0.489082,0.557455,0.235561,1
4152455153,-0.27555,-0.002237,0.261249,-0.875073,-0.587561,0.17282,0.8984,0.711656,0.050917,1
4152488487,-0.198272,-0.19798,0.391487,-0.376568,-0.183244,0.186274,0.856613,0.52231,-0.000653,1
4152521821,-0.026179,-0.187001,0.413369,-0.302533,0.1567,0.416684,0.379119,0.394423,0.060735,1
4152555155,0.278407,-0.181647,0.331886,-0.213428,0.388603,0.431188,-0.03414,0.156564,0.058742,1
4152588489,0.49199,-0.147758,0.113706,-0.060511,0.408315,0.209722,0.044465,-0.047457,-0.046599,1
4152621823,0.40053,-0.105754,-0.028213,-0.010561,0.341223,0.070601,-0.055282,-0.162107,0.054154,1
4152655157,0.160694,-0.088023,-0.047334,0.212666,0.141337,-0.150904,-0.18303,-0.200528,0.17158,1
4152688491,-0.108405,-0.116088,0.051695,0.265725,0.003991,-0.232807,-0.205779,-0.261398,0.19841,1
4152721825,-0.215285,-0.135474,0.115821,0.231699,-0.241178,-0.19164,-0.344296,-0.325329,0.222863,1
4152755159,-0.140297,-0.1484,0.142731,0.445806,-0.646476,-0.050797,-0.302802,-0.329277,0.213151,1
4152788493,0.048237,-0.130358,0.168399,0.563559,-0.772128,0.104474,-0.370298,-0.288514,0.166448,1
4152821827,0.222459,-0.102587,0.198664,0.390117,-0.551799,0.17841,-0.305309,-0.257043,0.076898,1
4152855161,0.399741,-0.02872,-0.049865,0.163808,-0.220823,0.05829,-0.315783,-0.131856,-0.106782,1
4152888495,0.167748,0.077546,-0.123048,-0.012046,0.116349,-0.123168,-0.337483,-0.050518,-0.257754,1
4152921829,0.092134,0.200248,0.270421,0.12044,0.263095,0.095587,-0.213863,0.005236,0.152357,1
4152955163,0.250468,0.166719,0.458686,0.270467,0.351794,0.307744,-0.230293,0.161611,0.350553,1
4152988497,0.261622,0.067806,0.474698,0.245152,0.438753,0.393489,-0.087083,0.070106,0.473099,1
4153021831,0.214025,-0.035114,0.241941,0.078605,0.296066,0.263021,-0.02235,0.051961,0.477376,1
4153055165,0.120284,-0.084789,0.165864,0.052068,0.010276,0.169861,0.104248,0.048958,0.308104,1
4153088499,0.250778,-0.075423,0.148879,0.147169,-0.315165,0.087516,0.12763,0.112806,0.268278,1
4153121833,0.282719,-0.058889,0.109495,0.200625,-0.243964,-0.013736,1.144296,-1.230052,-0.442208,1
4153155167,0.200506,-0.109124,0.089602,0.283724,-0.105182,-0.025579,1.364491,0.786536,-0.122674,1
4153188501,0.255135,-0.174401,0.125071,0.528764,-0.032496,-0.036211,-1.074174,0.098071,0.302062,1
4153221835,0.359572,-0.245416,0.259539,0.581785,0.025745,0.075228,0.24278,-0.188355,0.033717,1
4153255169,0.35685,-0.135853,0.401827,0.604519,0.033624,0.285462,-0.116051,-0.326094,0.468489,1
4153288503,0.400134,0.012177,0.360527,0.555231,-0.01302,0.336247,0.152125,-0.478488,0.313146,1
4153321837,0.448639,0.11035,0.253135,0.668841,-0.138495,0.219431,-0.240261,-0.546559,0.248605,1
4153355171,0.466094,0.158006,0.130557,0.563645,-0.216081,0.222635,-0.301076,-0.515738,0.019056,1
4153388505,0.340931,0.203794,0.263403,0.382393,-0.118197,0.173471,-0.333654,-0.425957,0.184981,1
4153421839,0.300969,0.112642,0.148834,0.328442,-0.117069,0.075762,-0.474521,-0.323079,0.070843,1
4153455173,0.173326,0.050989,0.166504,0.17507,0.067287,0.043772,-0.355854,-0.3229,0.126796,1
4153488507,0.090059,0.003827,0.13441,0.044562,0.177412,0.042551,-0.388063,-0.168501,0.131473,1
4153521841,-0.052818,0.047602,0.197153,0.012596,0.233675,0.08261,-0.378191,-0.067374,0.140028,1
4153555175,-0.122378,0.033718,0.071845,-0.006597,0.214971,-0.035519,-0.315751,-0.038665,0.10745,1
4153588509,-0.123794,0.046204,0.026597,0.009875,0.208557,-0.067778,-0.290481,0.013981,0.153149,1
4153621843,-0.128058,0.043095,0.045105,-0.181362,0.14018,-0.1,-0.243372,0.16897,0.206113,1
4153655177,-0.223191,-0.012248,0.010791,-0.342694,0.084044,-0.05896,-0.122205,0.264273,0.166864,1
4153688511,-0.339639,-0.077185,0.085909,-0.503481,0.034274,0.044127,0.028984,0.332205,0.180364,1
4153721845,-0.356601,-0.096438,0.076262,-0.57085,-0.033071,0.003531,0.144131,0.401698,0.141344,1
4153755179,-0.388737,-0.128002,0.114883,-0.580429,-0.077817,0.079893,0.253208,0.431647,0.11337,1
4153788513,-0.319978,-0.076718,0.072317,-0.573631,-0.085536,0.085955,0.427554,0.40576,0.06258,1
4153821847,-0.221523,-0.019559,0.101223,-0.367271,-0.078039,0.075611,0.430358,0.377476,0.049531,1
4153855181,-0.136264,-0.01074,0.154538,-0.377507,-0.07397,0.141196,0.520815,0.375671,0.038981,1
4153888515,-0.114599,-0.00936,0.100188,-0.372629,-0.045956,0.119184,0.533536,0.307782,0.028057,1
4153921849,-0.192937,-0.049951,0.123544,-0.245384,-0.06674,0.073929,0.595898,0.25728,-0.013095,1
4153955183,-0.206861,-0.081699,0.155261,-0.220009,-0.053753,0.064264,0.597077,0.1738,-0.032504,1
4153988517,-0.199491,-0.067146,0.148313,-0.150854,-0.028859,0.083762,0.52651,0.108282,-0.01202,1
4154021851,-0.104255,-0.039267,0.154349,-0.08135,-0.010067,0.076213,0.333039,0.124564,0.083791,1
4154055185,-0.070957,-0.012985,0.179993,-0.040517,0.02281,0.077929,0.308914,0.069487,0.102678,1
4154088519,-0.05268,-0.017198,0.111028,-0.042008,0.055075,0.046496,0.232076,0.091171,0.131717,1
4154121853,-0.155611,-0.004321,0.112265,-0.06372,0.168645,0.014995,0.242847,0.045383,0.150816,1
4154155187,-0.071011,-0.002734,0.075233,-0.07468,0.129823,-0.048014,0.098881,0.15029,0.20928,1
4154188521,-0.132223,0.021523,0.188228,-0.142603,0.091057,0.095025,0.012848,0.179071,0.207793,1
4154221855,-0.033827,0.112293,0.130877,-0.172667,-0.031158,0.118365,-0.052721,0.144515,0.171967,1
4154255189,-0.117607,0.04627,0.044927,-0.194614,-0.058603,0.077825,-0.146736,0.160358,0.087108,1
4154288523,-0.110348,-0.040057,0.142721,-0.204823,-0.025654,0.075212,-0.198604,0.147327,0.108341,1
4154321857,-0.190008,-0.091873,0.254501,-0.217113,-0.030548,0.152719,-0.236419,0.150349,0.194211,1
4154355191,-0.204823,-0.072396,0.296164,-0.27579,-0.018866,0.234827,-0.198053,0.161337,0.12528,1
4154388525,-0.062709,0.055249,0.191488,-0.110168,-0.049802,0.147436,-0.273897,0.083748,0.091604,1
4154421859,-0.042608,0.049731,0.234995,0.061029,-0.001451,0.169499,-0.262145,0.114797,0.183987,1
4154455193,0.007303,0.0723,0.191308,0.054668,0.044657,0.118194,-0.244046,0.149467,0.127044,1
4154488527,0.015113,0.079257,0.149673,0.069669,0.102705,0.086333,-0.334352,0.164553,0.099824,1
4154521861,0.130592,0.112479,0.124104,0.16678,0.179599,0.031376,-0.25463,0.173667,0.115097,1
4154555195,0.136863,0.12336,0.163678,0.252783,0.166764,0.072272,-0.171806,0.214782,0.154758,1
4154588529,0.148566,0.099089,0.162804,0.286773,0.14879,0.056306,-0.110826,0.144082,0.159159,1
4154621863,0.073555,0.029335,0.217735,0.264555,0.145661,0.054021,-0.187661,0.13895,0.185576,1
4154655197,0.07277,-0.007168,0.248569,0.254903,0.060586,0.092386,-0.188764,0.161373,0.158787,1
4154688531,0.085053,0.00566,0.175364,0.227199,0.033104,0.100588,-0.214663,0.176844,0.15804,1
4154721865,0.106549,0.024072,0.161361,0.214213,-0.014614,0.084799,-0.193263,0.18276,0.187503,1
4154755199,0.154941,0.012904,0.169275,0.128564,-0.040708,0.078536,-0.224876,0.167548,0.221031,1
4154788533,0.132837,0.048435,0.170448,0.126261,-0.034146,0.144127,-0.239255,0.121515,0.203197,1
4154821867,0.112725,-0.013279,0.169109,0.169686,-0.021657,0.14272,-0.231316,0.023988,0.131449,1
4154855201,0.234205,-0.024677,0.063789,0.189185,-0.041906,0.101155,-0.248088,-0.042959,0.254215,1
4154888535,0.349761,0.039823,0.157014,0.199258,0.038673,0.100344,-0.029116,0.04082,0.101278,1
4154921869,0.07053,-0.026303,0.149948,0.237437,-0.010944,0.080867,-0.123233,-0.11801,0.109999,1
4154955203,0.179963,-0.068797,0.067526,0.284188,0.029674,-0.017069,-0.058779,-0.14204,0.052175,1
4154988537,0.177628,-0.011528,0.227735,0.196731,0.037275,0.071975,-0.167781,-0.108162,0.166709,1
4155021871,0.171751,0.004581,0.17485,0.262677,-0.066238,0.063004,-0.012959,-0.154906,0.059116,1
4155055205,0.170205,-0.041061,0.221396,0.320198,0.029203,0.108068,-0.009814,-0.248227,-0.040847,1
4155088539,0.221104,-0.048467,0.182025,0.300883,-0.050877,0.11624,-0.079453,-0.367727,0.045025,1
4155121873,0.183967,-0.045099,0.174035,0.360717,-0.087842,0.122935,-0.067765,-0.324016,0.03561,1
4155155207,0.113528,-0.093382,0.231668,0.379653,-0.048554,0.101347,-0.1085,-0.374076,0.116441,1
4155188541,0.157655,-0.08645,0.193963,0.301299,-0.14234,0.12107,-0.085203,-0.322647,0.118079,1
4155221875,0.158576,-0.148221,0.176187,0.200167,-0.104458,0.09043,-0.08955,-0.174578,0.156912,1
4155255209,0.049745,-0.209553,0.13912,0.139029,-0.072187,0.047612,0.001015,-0.161302,0.058325,1
4155288543,0.100152,-0.171432,0.189244,0.093042,0.025938,0.065294,0.007487,-0.038353,0.182386,1
4155321877,0.0279,-0.156254,0.206528,0.098881,0.092917,0.057808,0.049773,0.023512,0.154264,1
4155355211,0.022687,-0.177987,0.132951,0.087676,0.1406,-0.027588,0.134977,0.025651,0.114972,1
4155388545,-0.077702,-0.138463,0.17522,-0.033062,0.117071,0.021264,0.124638,0.093568,0.170608,1
4155421879,0.021574,-0.031669,0.15186,0.015867,0.041351,0.061554,0.169485,0.108999,0.200035,1
4155455213,0.086709,0.003921,0.187619,0.011744,0.049132,0.120784,0.218516,0.122964,0.226424,1
4155488547,0.057105,0.10068,0.180642,-0.079961,-0.065428,0.196774,0.273022,0.229743,0.17489,1
4155521881,-0.003731,0.090782,0.186377,-0.13589,-0.024311,0.166909,0.191581,0.158751,0.097599,1
4155555215,0.034646,0.109714,0.174604,-0.176589,-0.053986,0.188953,0.040672,0.217204,0.091022,1
4155588549,0.164135,0.248696,0.17309,-0.216916,0.009312,0.196121,0.143284,0.376009,0.082466,1
4155621883,-0.016188,0.251724,0.223741,-0.144403,0.057853,0.245879,0.19411,0.334077,0.044106,1
4155655217,-0.056123,0.361646,0.276608,-0.123314,0.166904,0.248777,0.159581,0.405481,0.324492,1
4155688551,-0.130565,0.423788,0.490674,-0.233967,0.249759,0.424593,0.211252,0.415529,0.019941,1
4155721885,-0.38102,0.475377,0.651793,-0.368575,0.19772,0.591224,0.120904,0.532694,-0.141508,1
4155755219,-0.732015,0.428343,0.655452,-0.574917,0.200961,0.672141,0.443436,0.309371,-0.427104,1
4155788553,-0.48013,0.456994,0.337748,-0.628609,0.168406,0.436809,0.53148,-0.180607,-0.08269,1
4155821887,-0.246434,0.310961,-0.42816,-0.476639,0.203499,-0.265085,0.728331,-0.475501,0.479557,1
4155855221,-0.384463,0.028204,-0.418262,-0.470568,0.3788,-0.449059,0.271165,-0.126408,0.523897,1
4155888555,-0.468377,0.002089,-0.115749,-0.576417,0.532722,-0.438401,0.044351,0.189277,0.292414,1
4155921889,-0.624927,-0.049208,-0.213733,-0.714635,0.580025,-0.494564,-0.017349,0.419104,0.173991,1
4155955223,-0.510079,-0.227231,-0.614492,-0.565858,0.586067,-0.665223,-0.16421,0.612073,0.07765,1
4155988557,-0.097424,-0.041418,-0.335894,-0.677216,0.189952,-0.499694,-0.013787,0.725203,0.009806,1
4156021891,-0.128179,-0.175126,-0.18057,-0.030084,-0.658396,0.34783,-0.03035,0.624122,0.185155,1
4156055225,0.066446,0.033817,0.248411,0.742941,-0.940304,0.775308,-0.502399,0.867258,0.426183,1
4156088559,-0.3553,-0.064316,0.245216,2.113076,-1.644126,0.844977,-0.980462,0.789214,0.183642,1
4156121893,-0.321528,-0.506718,0.75491,1.582173,-0.473007,-0.03599,-1.079876,0.830007,0.215881,1
