sep=,
DeviceTag:,2C_Leg
FirmwareVersion:,2.2.1
AppVersion:,2023.6.0
SyncStatus:,Synced
OutputRate:,30Hz
FilterProfile:,General
Measurement Mode:,Sensor fusion Mode - Complete(Quaternion)
StartTime: ,2026-05-27_15:44:04_353 AEST
© Movella Technologies B. V. 2005-2026

PacketCounter,SampleTimeFine,Quat_W,Quat_X,Quat_Y,Quat_Z,FreeAcc_X,FreeAcc_Y,FreeAcc_Z
1,1217784487,0.581849,-0.607610,-0.448086,0.302468,3.128397,0.075714,0.106069
2,1217817821,0.579004,-0.609309,-0.447847,0.304854,3.211532,-0.055102,-0.026042
3,1217851155,0.574940,-0.615545,-0.447095,0.301097,0.583187,-0.602767,0.402429
4,1217884489,0.571251,-0.619536,-0.448806,0.297364,-0.332365,-1.057877,0.556823
5,1217917823,0.569430,-0.622934,-0.449361,0.292888,0.358871,-0.063561,-0.315729
6,1217951157,0.567378,-0.627381,-0.447816,0.289728,-0.876497,-0.451401,-0.152176
7,1217984491,0.564919,-0.629761,-0.448113,0.288911,-1.828437,-0.583004,0.294017
8,1218017825,0.562067,-0.627926,-0.451368,0.293366,-1.077008,0.032991,0.246968
9,1218051159,0.559351,-0.624207,-0.455120,0.300605,-0.434385,0.565751,0.017745
10,1218084493,0.556706,-0.621761,-0.457314,0.307182,0.355982,0.395320,-0.102199
11,1218117827,0.554105,-0.621677,-0.458072,0.310904,0.721476,0.530125,0.393630
12,1218151161,0.551997,-0.623250,-0.458523,0.310839,0.557594,0.519748,0.254613
13,1218184495,0.550035,-0.625383,-0.458380,0.310242,-0.092913,-0.039695,0.125440
14,1218217829,0.547431,-0.626129,-0.459190,0.312142,-0.324854,-0.232077,0.080662
15,1218251163,0.544256,-0.625241,-0.461491,0.316055,-0.116977,-0.532066,0.059272
16,1218284497,0.540220,-0.623446,-0.465174,0.321086,0.077465,-0.233599,0.156393
17,1218317831,0.536329,-0.621402,-0.468904,0.326106,-0.030837,0.020895,0.066147
18,1218351165,0.532156,-0.619325,-0.472785,0.331250,0.309355,0.287656,0.097064
19,1218384499,0.528305,-0.618574,-0.475592,0.334781,0.757734,0.327618,0.208303
20,1218417833,0.525515,-0.618867,-0.476873,0.336801,0.031563,-0.143778,0.092997
21,1218451167,0.522873,-0.618775,-0.478189,0.339209,-0.233822,-0.022606,-0.084516
22,1218484501,0.520157,-0.618357,-0.479409,0.342409,-0.602580,0.003916,-0.019410
23,1218517835,0.517810,-0.616901,-0.480286,0.347329,-1.249175,0.243444,-0.059574
24,1218551169,0.517467,-0.614104,-0.479392,0.353968,-2.174741,0.730764,0.046996
25,1218584503,0.522544,-0.610273,-0.472292,0.362575,-3.070854,0.674180,0.251740
26,1218617837,0.529638,-0.605834,-0.460215,0.375042,-2.507706,-1.318705,0.011148
27,1218651171,0.535317,-0.597580,-0.447585,0.394979,-1.594464,-0.934753,0.237601
28,1218684505,0.537859,-0.587175,-0.438242,0.416994,0.677430,-1.179268,1.297438
29,1218717839,0.535742,-0.573819,-0.435594,0.440427,1.876814,-2.115909,0.990816
30,1218751173,0.534784,-0.561585,-0.433301,0.459222,1.852379,0.300193,0.137879
31,1218784507,0.534297,-0.553675,-0.430337,0.472003,2.393072,0.470755,-0.546591
32,1218817841,0.533478,-0.552072,-0.425728,0.478935,2.606353,0.415990,-0.769172
33,1218851175,0.533502,-0.556135,-0.419562,0.479649,1.591877,0.638650,-0.540190
34,1218884509,0.534847,-0.563436,-0.411152,0.476906,0.475346,0.369508,0.137670
35,1218917843,0.538211,-0.570228,-0.402106,0.472743,-0.345845,0.038289,0.260411
36,1218951177,0.541796,-0.572771,-0.395456,0.471181,-1.292545,-0.072637,0.339992
37,1218984511,0.543883,-0.571097,-0.391862,0.473804,-1.334653,-0.738048,0.719382
38,1219017845,0.545537,-0.565876,-0.389927,0.479726,-0.989866,-1.030534,0.832391
39,1219051179,0.547891,-0.558379,-0.387949,0.487370,-0.659021,-0.334045,0.638957
40,1219084513,0.549224,-0.549396,-0.386975,0.496763,0.232047,-0.044018,0.215520
41,1219117847,0.550095,-0.540932,-0.387230,0.504823,1.068318,0.132150,-0.035780
42,1219151181,0.551173,-0.533680,-0.387403,0.511194,1.528497,0.234682,-0.250705
43,1219184515,0.554534,-0.528873,-0.385594,0.513914,1.666785,0.635717,-0.559020
44,1219217849,0.560085,-0.526303,-0.382183,0.513080,1.305994,0.606428,-0.547617
45,1219251183,0.566213,-0.524018,-0.379336,0.510802,0.855547,0.517386,-0.550680
46,1219284517,0.570658,-0.521329,-0.380103,0.508029,0.500267,0.175440,-0.553823
47,1219317851,0.573720,-0.519857,-0.382824,0.504029,0.893053,-0.280849,-0.487295
48,1219351185,0.575841,-0.522786,-0.383638,0.497925,1.172544,-1.338198,-0.366420
49,1219384519,0.576538,-0.527814,-0.382427,0.492719,-0.238308,-1.613846,0.924718
50,1219417853,0.577949,-0.529131,-0.381422,0.490427,-1.913183,-0.164499,3.056692
51,1219451187,0.580093,-0.528692,-0.380383,0.489175,0.346076,-0.595130,0.967747
52,1219484521,0.579973,-0.526180,-0.381689,0.491005,0.083450,-0.033054,-0.620279
53,1219517855,0.577938,-0.520870,-0.386494,0.495287,0.251881,0.430642,-0.508928
54,1219551189,0.577071,-0.517910,-0.388981,0.497452,0.022989,1.280625,0.551586
55,1219584523,0.578565,-0.516401,-0.389079,0.497209,-0.247590,1.117287,0.235940
56,1219617857,0.581707,-0.515573,-0.388435,0.494900,0.047241,0.765340,-0.243428
57,1219651191,0.586652,-0.516550,-0.385403,0.490394,0.088921,0.661330,0.058023
58,1219684525,0.592669,-0.518274,-0.380680,0.485000,0.188290,0.936028,0.054933
59,1219717859,0.599587,-0.520512,-0.375131,0.478378,-0.104758,0.673812,0.155374
60,1219751193,0.608139,-0.524059,-0.367917,0.469224,-0.342417,-0.446405,0.158758
61,1219784527,0.616351,-0.526433,-0.361238,0.460969,-1.020378,-1.909802,-0.171597
62,1219817861,0.621832,-0.526142,-0.356919,0.457290,-0.958691,-1.773061,-0.670367
63,1219851195,0.624233,-0.524251,-0.354414,0.458138,-0.609832,-1.022494,-0.214539
64,1219884529,0.624673,-0.521262,-0.353227,0.461852,-0.070670,0.085056,0.497840
65,1219917863,0.625245,-0.516833,-0.352965,0.466234,-0.019060,0.448705,0.290751
66,1219951197,0.625551,-0.511300,-0.354327,0.470868,-0.005635,0.411744,0.173507
67,1219984531,0.625077,-0.505103,-0.356691,0.476368,0.160757,0.723011,0.119013
68,1220017865,0.625130,-0.499792,-0.357584,0.481207,0.148715,1.014468,0.185176
69,1220051199,0.626266,-0.496369,-0.356186,0.484299,0.228746,0.870788,-0.127699
70,1220084533,0.627553,-0.495180,-0.353845,0.485565,0.061919,0.217612,0.224792
71,1220117867,0.628215,-0.493548,-0.352710,0.487193,0.127473,0.282660,0.318417
72,1220151201,0.628680,-0.491567,-0.352630,0.488654,0.215405,0.621329,0.174277
73,1220184535,0.629776,-0.490429,-0.351889,0.488919,0.413624,0.569537,0.179069
74,1220217869,0.631620,-0.490136,-0.349877,0.488277,0.382990,0.234288,0.205555
75,1220251203,0.633643,-0.490616,-0.347161,0.487111,0.245223,-0.151312,0.153955
76,1220284537,0.635519,-0.490808,-0.344678,0.486236,0.097409,-0.110628,0.137115
77,1220317871,0.636281,-0.490441,-0.343449,0.486481,-0.138620,-0.226479,-0.007098
78,1220351205,0.636070,-0.489956,-0.343193,0.487424,0.060372,0.012706,0.178480
79,1220384539,0.635537,-0.489066,-0.343368,0.488888,0.306197,0.195691,0.329210
80,1220417873,0.635259,-0.488596,-0.343645,0.489524,0.189485,0.102294,0.165344
81,1220451207,0.634932,-0.488337,-0.344229,0.489796,0.188381,0.157336,0.202168
82,1220484541,0.634568,-0.488105,-0.344461,0.490335,0.374256,0.259718,0.182795
83,1220517875,0.634227,-0.488805,-0.344083,0.490345,0.231276,-0.022307,0.261816
84,1220551209,0.633406,-0.489687,-0.344354,0.490336,0.057463,-0.165956,0.357966
85,1220584543,0.631994,-0.489525,-0.346012,0.491152,0.192649,0.236993,0.219869
86,1220617877,0.630608,-0.489481,-0.347569,0.491877,0.103166,0.326638,0.022932
87,1220651211,0.629573,-0.490021,-0.348492,0.492013,-0.074557,0.349451,0.127516
88,1220684545,0.628744,-0.490819,-0.349368,0.491656,-0.011537,0.342980,0.033946
89,1220717879,0.628263,-0.491697,-0.349947,0.490982,-0.000727,0.060028,0.042652
90,1220751213,0.627954,-0.492456,-0.350215,0.490424,0.109196,0.043533,0.000224
91,1220784547,0.627988,-0.492497,-0.350225,0.490333,0.221575,0.025153,0.014519
92,1220817881,0.628486,-0.492617,-0.349466,0.490115,0.133930,0.004404,0.102298
93,1220851215,0.629106,-0.492699,-0.348349,0.490033,0.046338,-0.206260,0.018703
94,1220884549,0.629635,-0.492481,-0.347362,0.490273,-0.144480,-0.354251,-0.081244
95,1220917883,0.629659,-0.491887,-0.346794,0.491241,0.067091,-0.021958,0.127679
96,1220951217,0.629521,-0.490843,-0.346394,0.492741,0.119124,0.074039,0.167377
97,1220984551,0.629571,-0.489938,-0.345845,0.493961,0.187750,0.078817,0.125673
98,1221017885,0.629723,-0.489061,-0.345261,0.495044,0.146155,0.146565,0.356405
99,1221051219,0.630003,-0.488251,-0.344500,0.496017,0.146073,0.160496,0.153174
100,1221084553,0.630238,-0.487379,-0.343613,0.497191,0.005034,-0.000990,-0.036218
101,1221117887,0.630261,-0.486317,-0.343140,0.498526,-0.038342,0.069129,0.106113
102,1221151221,0.630567,-0.485592,-0.341903,0.499694,0.109356,0.243252,0.086161
103,1221184555,0.631122,-0.485304,-0.340172,0.500454,-0.021093,0.260722,-0.083563
104,1221217889,0.631662,-0.485110,-0.338571,0.501045,-0.069039,0.347173,0.063099
105,1221251223,0.632315,-0.485128,-0.336590,0.501540,0.036697,0.344599,0.092674
106,1221284557,0.633013,-0.485151,-0.334428,0.502083,0.016718,0.421494,0.019101
107,1221317891,0.633761,-0.485061,-0.332613,0.502432,0.171577,0.282160,0.006509
108,1221351225,0.634803,-0.485248,-0.330317,0.502450,0.139713,0.106399,0.250501
109,1221384559,0.635770,-0.485245,-0.327914,0.502804,0.104479,-0.079103,0.104309
110,1221417893,0.636091,-0.484797,-0.326308,0.503873,-0.003198,-0.226333,0.078122
111,1221451227,0.636004,-0.484188,-0.325013,0.505404,0.156179,-0.183590,0.235448
112,1221484561,0.635743,-0.483134,-0.323961,0.507412,0.310041,0.261306,0.088195
113,1221517895,0.635324,-0.482269,-0.323220,0.509230,0.216613,0.306902,0.278175
114,1221551229,0.635211,-0.481686,-0.322161,0.510592,0.393223,0.261489,0.307730
115,1221584563,0.635247,-0.480975,-0.321350,0.511728,0.146191,0.133179,0.294683
116,1221617897,0.635067,-0.480037,-0.321319,0.512848,0.186427,0.067106,0.113435
117,1221651231,0.634957,-0.479016,-0.321323,0.513936,0.248292,-0.138241,0.191980
118,1221684565,0.634800,-0.477855,-0.321385,0.515172,0.031080,-0.402382,0.115403
119,1221717899,0.634316,-0.477106,-0.321459,0.516414,0.134507,-0.297675,-0.015751
120,1221751233,0.633625,-0.476870,-0.321059,0.517726,0.152727,0.084727,0.205702
121,1221784567,0.633005,-0.476641,-0.320296,0.519167,0.152595,0.255620,0.113887
122,1221817901,0.632585,-0.476346,-0.319582,0.520389,-0.051639,0.145316,0.099430
123,1221851235,0.632452,-0.476143,-0.318974,0.521109,0.070418,0.567805,0.239828
124,1221884569,0.632610,-0.475561,-0.318261,0.521883,0.132062,0.334205,0.089233
125,1221917903,0.632777,-0.475317,-0.317727,0.522228,-0.052963,-0.029433,0.111921
126,1221951237,0.632883,-0.475366,-0.317162,0.522399,0.082600,0.136065,0.152835
127,1221984571,0.632792,-0.475113,-0.316767,0.522978,0.110147,0.231354,0.165432
128,1222017905,0.632762,-0.475043,-0.316056,0.523508,0.218897,-0.013554,0.276797
129,1222051239,0.632746,-0.474670,-0.315648,0.524111,0.211770,-0.070649,0.381305
130,1222084573,0.632731,-0.473792,-0.315819,0.524821,0.283700,0.044677,0.167932
131,1222117907,0.632588,-0.472968,-0.316151,0.525536,0.294319,0.111350,0.191216
132,1222151241,0.632475,-0.472533,-0.315998,0.526156,0.453351,-0.072500,0.121121
133,1222184575,0.632489,-0.472526,-0.315665,0.526344,0.349644,-0.209379,0.153487
134,1222217909,0.632542,-0.472529,-0.314982,0.526687,0.342557,-0.100702,0.197512
135,1222251243,0.632395,-0.472362,-0.314591,0.527247,0.128003,0.090094,0.188520
136,1222284577,0.632473,-0.471951,-0.313828,0.527975,0.129279,0.237222,0.158673
137,1222317911,0.632639,-0.471326,-0.312914,0.528876,0.024978,0.325736,0.037363
138,1222351245,0.632980,-0.470667,-0.311955,0.529621,-0.041480,0.352554,0.189680
139,1222384579,0.633592,-0.469744,-0.311168,0.530172,0.018001,0.166478,0.195302
140,1222417913,0.634126,-0.468675,-0.310707,0.530750,0.129710,-0.116383,0.016685
141,1222451247,0.634284,-0.468105,-0.310474,0.531200,0.118238,-0.129377,0.062917
142,1222484581,0.634492,-0.467822,-0.309764,0.531615,0.227509,-0.148551,0.222149
143,1222517915,0.634693,-0.467027,-0.308918,0.532565,0.265279,-0.033244,0.208167
144,1222551249,0.634478,-0.466021,-0.308866,0.533732,0.128771,-0.142337,0.284582
145,1222584583,0.634200,-0.464928,-0.308933,0.534976,0.183281,0.418486,0.273912
146,1222617917,0.633967,-0.464008,-0.308565,0.536261,0.251015,0.548748,0.213731
147,1222651251,0.634010,-0.463510,-0.308167,0.536869,0.156538,0.612228,0.305364
148,1222684585,0.634919,-0.463553,-0.307241,0.536288,0.136326,0.690532,0.314482
149,1222717919,0.636320,-0.463492,-0.306135,0.535311,0.163235,0.342876,0.188866
150,1222751253,0.637375,-0.463150,-0.305619,0.534648,0.406339,0.094244,0.183953
151,1222784587,0.637917,-0.463132,-0.305172,0.534272,0.536928,0.039787,0.548195
152,1222817921,0.638102,-0.463865,-0.304502,0.533798,0.466907,-0.079567,0.444897
153,1222851255,0.637591,-0.464505,-0.304431,0.533892,0.185263,0.025460,0.109645
154,1222884589,0.636629,-0.465318,-0.304102,0.534519,0.063879,-0.194823,0.210786
155,1222917923,0.635485,-0.465195,-0.304314,0.535865,0.041563,-0.452910,0.276785
156,1222951257,0.633495,-0.464115,-0.305728,0.538347,0.228596,-0.080719,0.035238
157,1222984591,0.630759,-0.462981,-0.307335,0.541611,0.523245,-0.235091,-0.352053
158,1223017925,0.628185,-0.462642,-0.308106,0.544447,0.214269,0.025334,0.139927
159,1223051259,0.626147,-0.463331,-0.307124,0.546759,0.177328,0.193886,0.286027
160,1223084593,0.623955,-0.463207,-0.306783,0.549554,-0.164883,0.260532,-0.078787
161,1223117927,0.621738,-0.462027,-0.307083,0.552882,-0.192435,0.354330,-0.142918
162,1223151261,0.620299,-0.461396,-0.306135,0.555544,-0.148315,0.362552,-0.102148
163,1223184595,0.619124,-0.460633,-0.304973,0.558122,-0.325777,0.203158,-0.299643
164,1223217929,0.617854,-0.459731,-0.303858,0.560874,-0.285803,0.417503,-0.355971
165,1223251263,0.616812,-0.459558,-0.301697,0.563324,-0.194850,-0.074911,0.191031
166,1223284597,0.615416,-0.458762,-0.299752,0.566530,-0.128509,-0.112025,0.210760
167,1223317931,0.613427,-0.456317,-0.299288,0.570889,-0.039430,-0.061651,0.190374
168,1223351265,0.611795,-0.453299,-0.299200,0.575076,0.024565,0.416804,0.339765
169,1223384599,0.610441,-0.451315,-0.298981,0.578181,0.265274,0.358642,0.327435
170,1223417933,0.609538,-0.450015,-0.298690,0.580293,0.377140,0.546396,0.076924
171,1223451267,0.610039,-0.450016,-0.296671,0.580802,0.523158,1.118192,0.224933
172,1223484601,0.612331,-0.451987,-0.291228,0.579613,0.917749,-0.303362,0.609969
173,1223517935,0.614283,-0.452914,-0.286994,0.578935,0.559133,-0.634153,-0.059718
174,1223551269,0.615237,-0.451429,-0.284474,0.580324,0.272261,0.036568,0.326454
175,1223584603,0.616573,-0.450574,-0.279720,0.581878,0.577670,-0.299032,0.001604
176,1223617937,0.617399,-0.449637,-0.275931,0.583534,-0.578134,0.489273,-0.084929
177,1223651271,0.618466,-0.448847,-0.271643,0.585024,-0.047944,0.460315,0.240175
178,1223684605,0.619857,-0.448045,-0.268441,0.585644,0.111812,0.364780,0.194275
179,1223717939,0.621430,-0.447514,-0.266172,0.585418,0.108568,0.260032,-0.183406
180,1223751273,0.623677,-0.447611,-0.262711,0.584517,0.024627,0.154486,0.504623
181,1223784607,0.625727,-0.448780,-0.259071,0.583052,0.086240,-0.481687,-0.078398
182,1223817941,0.626931,-0.449502,-0.257122,0.582065,-0.339757,-0.103445,-0.110942
183,1223851275,0.627834,-0.450225,-0.255332,0.581320,-0.261356,-0.464743,0.171569
184,1223884609,0.628349,-0.450438,-0.254295,0.581054,-0.140871,0.094425,0.328478
185,1223917943,0.628367,-0.450400,-0.254059,0.581166,0.110887,0.466794,-0.290760
186,1223951277,0.628917,-0.450664,-0.253439,0.580637,0.179803,0.333568,-0.060589
187,1223984611,0.630381,-0.451935,-0.251051,0.579097,0.264019,0.073726,0.097089
188,1224017945,0.631752,-0.452973,-0.248528,0.577879,-0.013501,-0.577665,0.015773
189,1224051279,0.632488,-0.453310,-0.246586,0.577642,0.062967,-0.293833,-0.104080
190,1224084613,0.633381,-0.453245,-0.244045,0.577794,0.513564,-0.238108,-0.014621
191,1224117947,0.634879,-0.452948,-0.240857,0.577720,0.317040,-0.601722,-0.047189
192,1224151281,0.636298,-0.452069,-0.237987,0.578036,0.045552,-0.451171,-0.028253
193,1224184615,0.637208,-0.451935,-0.234752,0.578462,-0.107813,-0.022185,0.242768
194,1224217949,0.638292,-0.451753,-0.230315,0.579192,0.026569,0.087270,0.255441
195,1224251283,0.639195,-0.450917,-0.226609,0.580309,-0.201747,0.295373,-0.248518
196,1224284617,0.640600,-0.450355,-0.222445,0.580807,0.044447,0.556682,0.280922
197,1224317951,0.642194,-0.449606,-0.218368,0.581173,0.163889,0.432239,0.039268
198,1224351285,0.643544,-0.448335,-0.215074,0.581891,0.394803,0.416970,0.291821
199,1224384619,0.645148,-0.447164,-0.211101,0.582470,0.899965,-0.058885,0.285851
200,1224417953,0.646171,-0.446074,-0.207843,0.583342,0.517070,-0.672894,0.258277
201,1224451287,0.645974,-0.444447,-0.204721,0.585901,0.273061,-0.841849,0.248986
202,1224484621,0.644579,-0.442600,-0.201296,0.590008,0.227051,-0.395451,-0.118139
203,1224517955,0.642153,-0.441663,-0.198015,0.594449,0.081228,-0.038249,-0.281539
204,1224551289,0.639848,-0.440797,-0.194122,0.598844,-0.284524,0.518390,-0.232736
205,1224584623,0.637868,-0.439477,-0.189311,0.603449,-0.377660,1.068908,0.001780
206,1224617957,0.637034,-0.438463,-0.183638,0.606812,-0.520235,0.977337,-0.241890
207,1224651291,0.636807,-0.437895,-0.177043,0.609415,-0.376697,0.534079,0.104245
208,1224684625,0.636777,-0.435872,-0.170202,0.612836,0.185099,0.319244,-0.082720
209,1224717959,0.636532,-0.433555,-0.164277,0.616341,-0.037545,0.181548,-0.085575
210,1224751293,0.636140,-0.431964,-0.156863,0.619784,0.492158,-0.122911,0.555923
211,1224784627,0.635157,-0.429445,-0.150496,0.624107,0.538806,-0.999950,-0.131751
212,1224817961,0.633682,-0.426307,-0.146038,0.628799,-0.025984,0.293021,0.054421
213,1224851295,0.632202,-0.425261,-0.139331,0.632508,0.110960,0.432890,0.270893
214,1224884629,0.630922,-0.424976,-0.132770,0.635382,-0.204247,0.273955,-0.287540
215,1224917963,0.630341,-0.423556,-0.127581,0.637964,0.030543,1.051582,0.283883
216,1224951297,0.631144,-0.422493,-0.121653,0.639033,0.046294,0.471403,0.190412
217,1224984631,0.632256,-0.421099,-0.117353,0.639658,0.168346,0.023767,0.310524
218,1225017965,0.632351,-0.420876,-0.113346,0.640433,0.774966,-0.334277,0.395239
219,1225051299,0.631324,-0.420249,-0.109708,0.642488,0.421601,-0.512457,0.623291
220,1225084633,0.629385,-0.420720,-0.106280,0.644655,0.632333,0.215933,0.110051
221,1225117967,0.627953,-0.420833,-0.103221,0.646472,-0.025061,0.572735,0.047794
222,1225151301,0.627297,-0.422037,-0.098805,0.647014,-0.072798,0.500831,0.292456
223,1225184635,0.626728,-0.422440,-0.094499,0.647945,-0.218195,-0.177173,-0.207854
224,1225217969,0.626413,-0.421667,-0.091125,0.649235,-0.355871,0.637105,-0.606702
225,1225251303,0.626906,-0.422902,-0.085322,0.648744,0.158922,0.568895,-0.080790
226,1225284637,0.627761,-0.423636,-0.079175,0.648217,0.043347,0.086038,-0.305650
227,1225317971,0.628867,-0.422733,-0.073499,0.648403,0.290898,0.105325,-0.409691
228,1225351305,0.629642,-0.421625,-0.067816,0.648992,0.041754,-0.465752,-0.145055
229,1225384639,0.629828,-0.419259,-0.062944,0.650832,0.178434,0.009704,0.098219
230,1225417973,0.629373,-0.418345,-0.058274,0.652293,0.051998,0.222668,-0.037282
231,1225451307,0.628087,-0.418348,-0.052703,0.654003,0.711177,0.341582,0.785242
232,1225484641,0.625930,-0.419005,-0.047481,0.656047,0.940061,-0.709385,0.653051
233,1225517975,0.622599,-0.419012,-0.044106,0.659440,1.072012,-0.408007,1.133354
234,1225551309,0.618475,-0.418318,-0.041405,0.663920,0.899939,-0.398100,1.023708
235,1225584643,0.614143,-0.417759,-0.040117,0.668358,0.431351,0.069788,0.191573
236,1225617977,0.608890,-0.419387,-0.038352,0.672237,0.461063,-0.163791,0.425799
237,1225651311,0.604059,-0.418869,-0.037338,0.676958,0.004810,0.242168,-0.034333
238,1225684645,0.599544,-0.418077,-0.036167,0.681511,-0.079300,0.117420,-0.276545
239,1225717979,0.594499,-0.417916,-0.034568,0.686096,-0.000259,-0.031685,-0.275202
240,1225751313,0.589492,-0.417514,-0.033097,0.690718,-0.222724,1.178897,-0.401417
241,1225784647,0.585554,-0.418312,-0.029667,0.693734,0.010549,0.719236,0.283233
242,1225817981,0.582690,-0.418837,-0.026027,0.695972,0.399720,-0.379133,0.019115
243,1225851315,0.578994,-0.418856,-0.022517,0.699160,0.535590,-0.742964,-0.047878
244,1225884649,0.573381,-0.418833,-0.019057,0.703886,0.913114,-0.569586,-0.040730
245,1225917983,0.568495,-0.417406,-0.015945,0.708758,-0.467775,1.118108,-0.644216
246,1225951317,0.564993,-0.416441,-0.011038,0.712211,-0.630710,1.339850,0.093266
247,1225984651,0.564183,-0.413845,-0.005833,0.714424,-0.873133,1.562033,-0.362367
248,1226017985,0.564325,-0.411853,0.001311,0.715485,-0.340402,-0.233020,0.063545
249,1226051319,0.564260,-0.407735,0.006940,0.717859,-0.236327,-0.420029,-0.135417
250,1226084653,0.562476,-0.406043,0.012260,0.720143,-0.143563,-0.106987,0.064070
251,1226117987,0.560527,-0.403566,0.016115,0.722974,-0.166391,0.776040,0.255057
252,1226151321,0.560156,-0.400370,0.020249,0.724931,-0.486025,2.047337,0.108045
253,1226184655,0.562399,-0.397355,0.025336,0.724694,-0.141091,1.325621,0.484982
254,1226217989,0.566515,-0.392794,0.030475,0.723776,0.210923,0.306627,0.166209
255,1226251323,0.570584,-0.387953,0.035950,0.722938,0.611163,-0.443581,-0.077767
256,1226284657,0.572965,-0.383544,0.040895,0.723145,0.503388,-0.455790,0.029939
257,1226317991,0.573862,-0.379384,0.045676,0.724341,0.478916,0.001065,0.397377
258,1226351325,0.574940,-0.374646,0.049795,0.725680,0.354703,0.240065,0.387010
259,1226384659,0.576509,-0.370410,0.053881,0.726317,0.053279,0.455716,-0.003197
260,1226417993,0.578409,-0.367504,0.057339,0.726018,0.010724,0.175866,-0.255636
261,1226451327,0.580963,-0.364306,0.059727,0.725398,0.172606,0.109300,0.135667
262,1226484661,0.583793,-0.362344,0.061818,0.723931,-0.093147,0.357087,0.101303
263,1226517995,0.586428,-0.363386,0.064484,0.721041,0.086893,0.445531,-0.095208
264,1226551329,0.589132,-0.364376,0.067135,0.718089,0.489962,-0.672350,0.149101
265,1226584663,0.590678,-0.365932,0.069296,0.715820,0.122708,-0.451109,-0.290016
266,1226617997,0.589755,-0.371978,0.072183,0.713174,0.210571,-0.092900,-0.553662
267,1226651331,0.588739,-0.378333,0.073766,0.710503,0.301156,-1.065279,0.230135
268,1226684665,0.589172,-0.378394,0.073467,0.710143,0.637163,0.164584,1.501283
269,1226717999,0.590617,-0.376039,0.073905,0.710148,0.135218,1.222299,0.311226
270,1226751333,0.591003,-0.378129,0.076394,0.708451,0.279452,0.357935,-0.056446
271,1226784667,0.591487,-0.380388,0.078225,0.706636,0.371051,-0.533800,-0.443787
272,1226818001,0.590451,-0.383555,0.079473,0.705651,-0.087523,-0.449330,-0.845753
273,1226851335,0.585163,-0.392760,0.082070,0.704695,-0.268021,-0.631416,-0.369617
274,1226884669,0.578946,-0.401049,0.083290,0.705018,0.254944,-1.173390,1.117031
275,1226918003,0.574962,-0.402829,0.081516,0.707466,0.123600,0.409524,0.019691
276,1226951337,0.571593,-0.404475,0.080697,0.709349,0.094378,1.515555,-0.228716
277,1226984671,0.569528,-0.407883,0.080772,0.709050,0.203386,1.480397,0.184004
278,1227018005,0.570088,-0.409563,0.080916,0.707614,0.573813,1.091799,0.593864
279,1227051339,0.573250,-0.408913,0.080695,0.705456,0.487262,0.823948,0.461308
280,1227084673,0.577273,-0.408119,0.080616,0.702639,0.418409,0.245497,0.754291
281,1227118007,0.581034,-0.407129,0.080957,0.700069,0.543533,-0.097937,0.861151
282,1227151341,0.584861,-0.405000,0.080788,0.698134,0.577384,-0.368764,0.216532
283,1227184675,0.588528,-0.401970,0.079876,0.696907,0.218745,-0.198045,-0.341752
284,1227218009,0.590970,-0.400089,0.079316,0.695987,0.151050,-0.148665,-0.003979
285,1227251343,0.592430,-0.398570,0.079372,0.695610,0.232111,0.128594,0.223559
286,1227284677,0.593610,-0.396759,0.079748,0.695597,0.171334,0.243263,0.101726
287,1227318011,0.594495,-0.395586,0.080129,0.695466,0.129480,0.125433,-0.240886
288,1227351345,0.594933,-0.395543,0.080285,0.695097,0.199173,0.102569,-0.121390
289,1227384679,0.594824,-0.396153,0.080806,0.694783,0.228566,0.113213,0.303375
290,1227418013,0.594593,-0.396645,0.081451,0.694625,0.165820,-0.039659,0.305646
291,1227451347,0.594446,-0.396242,0.081981,0.694918,0.289998,0.075993,0.230355
292,1227484681,0.594352,-0.395921,0.083002,0.695060,0.108560,-0.102914,0.129875
293,1227518015,0.594414,-0.395621,0.083563,0.695110,0.121985,-0.132900,-0.194750
294,1227551349,0.594393,-0.395415,0.083661,0.695234,0.161038,0.069703,-0.180362
295,1227584683,0.593959,-0.395488,0.083672,0.695562,0.266906,0.163472,0.053774
296,1227618017,0.593078,-0.396604,0.083953,0.695645,0.185064,0.250854,-0.094911
297,1227651351,0.591393,-0.398715,0.084595,0.695794,0.127806,0.247047,-0.054249
298,1227684685,0.590236,-0.399688,0.084795,0.696194,0.256226,-0.039667,0.552071
299,1227718019,0.590764,-0.398171,0.083747,0.696742,-0.012145,0.343994,-0.118572
300,1227751353,0.591104,-0.397205,0.083238,0.697066,0.157112,0.196632,0.134815
301,1227784687,0.591796,-0.396069,0.082784,0.697179,0.476906,-0.037470,0.347620
302,1227818021,0.593466,-0.393181,0.081779,0.697513,0.481526,-0.114628,0.306407
303,1227851355,0.594890,-0.389999,0.080858,0.698194,0.442615,0.095360,0.146038
304,1227884689,0.595492,-0.387718,0.080847,0.698952,0.485778,-0.200574,0.506273
305,1227918023,0.595537,-0.385123,0.081304,0.700294,0.331538,-0.697140,0.350039
306,1227951357,0.594314,-0.382559,0.081441,0.702718,0.313032,-0.761975,-0.029887
307,1227984691,0.591973,-0.380320,0.080869,0.705968,0.301310,-0.513950,-0.080309
308,1228018025,0.589256,-0.377780,0.079524,0.709748,0.332249,-0.181227,0.106441
309,1228051359,0.586732,-0.373996,0.077641,0.714038,0.379263,0.100880,0.188087
310,1228084693,0.584727,-0.368810,0.075963,0.718547,0.476771,0.384085,0.403648
311,1228118027,0.583544,-0.362528,0.074836,0.722811,0.420128,0.625539,0.292626
312,1228151361,0.582551,-0.357362,0.073533,0.726310,0.383761,0.781578,0.018651
313,1228184695,0.582182,-0.352647,0.073405,0.728918,0.070057,0.950580,-0.471540
314,1228218029,0.582860,-0.348812,0.074546,0.730105,-0.363013,0.974267,-0.591415
315,1228251363,0.585078,-0.346254,0.075942,0.729405,-0.613621,0.761935,-0.452195
316,1228284697,0.588759,-0.344042,0.079248,0.727134,-0.317394,0.520986,-0.524759
317,1228318031,0.594852,-0.341703,0.090173,0.721987,-0.376094,0.193709,0.404369
318,1228351365,0.599091,-0.339723,0.089274,0.719524,-0.200243,-0.100777,0.351376
319,1228384699,0.601860,-0.336808,0.082573,0.719384,0.382489,-0.276058,-0.411040
320,1228418033,0.604160,-0.334552,0.080838,0.718705,0.352145,-0.276843,0.227238
321,1228451367,0.605534,-0.332300,0.079237,0.718772,0.038599,-0.254374,0.115314
322,1228484701,0.605832,-0.331112,0.077353,0.719274,-0.167527,0.130378,-0.261430
323,1228518035,0.605420,-0.330931,0.075299,0.719922,-0.001792,0.492752,-0.018006
324,1228551369,0.605259,-0.330742,0.073443,0.720336,0.016052,0.863151,0.042047
325,1228584703,0.605718,-0.331156,0.072112,0.719893,0.221565,0.757452,0.345900
326,1228618037,0.606876,-0.331590,0.071640,0.718765,0.282361,0.606299,0.247921
327,1228651371,0.608362,-0.331281,0.071374,0.717677,0.422640,-0.059524,0.243567
328,1228684705,0.609518,-0.330306,0.071027,0.717180,0.353003,-0.034804,0.195018
329,1228718039,0.610422,-0.328771,0.070675,0.717151,0.750721,-0.337490,0.679832
330,1228751373,0.613185,-0.323226,0.068676,0.717509,0.589535,0.515954,0.160125
331,1228784707,0.616595,-0.316123,0.066785,0.717929,0.814625,0.681813,0.821702
332,1228818041,0.620368,-0.307677,0.065909,0.718429,0.686922,0.438061,0.432514
333,1228851375,0.623376,-0.303725,0.067057,0.717401,-0.080023,0.694132,-0.943106
334,1228884709,0.624407,-0.305218,0.068984,0.715685,-0.169920,0.228319,-0.465259
335,1228918043,0.623841,-0.308765,0.071011,0.714458,0.248898,-0.856410,0.925837
336,1228951377,0.623185,-0.310575,0.071845,0.714162,-0.468093,0.350839,-0.431616
337,1228984711,0.621799,-0.315556,0.072004,0.713170,-0.685053,0.712107,-0.922785
338,1229018045,0.620387,-0.320796,0.071725,0.712090,-0.218772,0.589397,-0.341089
339,1229051379,0.619768,-0.326646,0.071904,0.709948,-0.150209,0.820340,0.978710
340,1229084713,0.620322,-0.332068,0.071449,0.706988,0.488312,0.768440,0.912227
341,1229118047,0.621256,-0.338390,0.071500,0.703155,0.529405,0.203163,0.005218
342,1229151381,0.621927,-0.347054,0.071259,0.698347,0.627476,-0.438730,-0.054602
343,1229184715,0.622480,-0.356094,0.069150,0.693498,0.827498,-0.634731,0.959979
344,1229218049,0.623236,-0.363736,0.066027,0.689144,0.469640,-0.306118,1.251971
345,1229251383,0.624529,-0.370501,0.061071,0.684813,0.046887,0.293063,0.254455
346,1229284717,0.626384,-0.376629,0.055722,0.680216,0.018619,0.653893,-0.146290
347,1229318051,0.628586,-0.382263,0.050374,0.675443,0.126718,0.818109,0.913001
348,1229351385,0.632072,-0.385535,0.044861,0.670702,0.050564,0.546285,0.163566
349,1229384719,0.635993,-0.388041,0.038574,0.665925,0.358704,0.476460,-0.061178
350,1229418053,0.640424,-0.389376,0.033358,0.661162,0.208339,0.395985,0.439554
351,1229451387,0.644884,-0.392021,0.027756,0.655500,0.542348,0.743510,0.155485
352,1229484721,0.650796,-0.393392,0.022792,0.648994,0.584973,0.205863,0.490444
353,1229518055,0.656516,-0.394632,0.016747,0.642634,0.592895,-0.260367,-0.143586
354,1229551389,0.661710,-0.397641,0.009552,0.635559,0.402164,-0.869826,0.218722
355,1229584723,0.666181,-0.402936,0.001482,0.627574,0.237496,-0.554752,0.176451
356,1229618057,0.669616,-0.408202,-0.006438,0.620443,0.221619,-0.491345,0.581426
357,1229651391,0.673025,-0.411280,-0.014614,0.614555,-0.015579,-0.002990,0.379361
358,1229684725,0.675932,-0.413983,-0.023024,0.609270,0.270195,0.053791,-0.678959
359,1229718059,0.678606,-0.417532,-0.031217,0.603483,0.235877,0.101225,-0.548912
360,1229751393,0.680937,-0.423088,-0.037545,0.596588,0.233212,-0.435853,0.080883
361,1229784727,0.682023,-0.427946,-0.043281,0.591472,-0.256763,-0.930086,-0.123898
362,1229818061,0.681944,-0.430117,-0.050811,0.589386,-0.285607,-0.750043,-0.626060
363,1229851395,0.681559,-0.431841,-0.058591,0.587846,-0.385252,0.112634,-0.895454
364,1229884729,0.680319,-0.435668,-0.064652,0.585820,-0.221917,0.530912,-0.482936
365,1229918063,0.679883,-0.437826,-0.070675,0.584018,-0.287388,0.111783,-0.292263
366,1229951397,0.680203,-0.438413,-0.077207,0.582377,-0.121980,0.426790,-0.001637
367,1229984731,0.680974,-0.438821,-0.082169,0.580487,0.220071,0.304105,0.223283
368,1230018065,0.682257,-0.438528,-0.087486,0.578421,0.329939,0.060679,-0.006812
369,1230051399,0.683316,-0.438974,-0.092287,0.576081,0.432182,-0.333198,0.355091
370,1230084733,0.683535,-0.440505,-0.096335,0.573986,0.259113,-0.315432,0.519009
371,1230118067,0.683620,-0.441942,-0.100085,0.572137,0.736979,0.538647,0.509985
372,1230151401,0.683958,-0.443802,-0.103140,0.569745,1.112020,-0.045546,0.760851
373,1230184735,0.684217,-0.445359,-0.106826,0.567535,0.418420,-0.300197,0.565613
374,1230218069,0.684282,-0.444872,-0.111978,0.566846,0.135080,-0.291872,0.215872
375,1230251403,0.683438,-0.444972,-0.117361,0.566697,-0.344233,-0.057857,-0.438221
376,1230284737,0.681716,-0.446727,-0.121702,0.566474,-0.572311,0.415537,-0.566812
377,1230318071,0.680546,-0.449049,-0.125136,0.565296,-0.243245,0.400924,-0.154998
378,1230351405,0.680305,-0.451112,-0.128533,0.563177,-0.112816,0.256936,0.142261
379,1230384739,0.680365,-0.452099,-0.132831,0.561312,0.090100,0.140935,0.359242
380,1230418073,0.680723,-0.451883,-0.137790,0.559854,0.359437,0.144325,0.100692
381,1230451407,0.680692,-0.452503,-0.142256,0.558273,0.290813,-0.333037,0.194601
382,1230484741,0.679835,-0.454214,-0.146228,0.556900,-0.004698,-0.485845,-0.128287
383,1230518075,0.678152,-0.455784,-0.151017,0.556391,-0.076694,0.029991,-0.267590
384,1230551409,0.676229,-0.457759,-0.154860,0.556054,0.011672,0.278696,-0.246149
385,1230584743,0.674492,-0.459225,-0.158188,0.556017,0.021369,-0.161355,-0.148518
386,1230618077,0.673033,-0.458268,-0.162792,0.557245,-0.278611,-0.093556,-0.780254
387,1230651411,0.671318,-0.457280,-0.166358,0.559069,-0.593319,-0.109263,-0.516079
388,1230684745,0.669337,-0.458021,-0.167412,0.560521,-0.576103,0.107081,-0.354853
389,1230718079,0.667311,-0.457213,-0.167998,0.563413,-0.493787,0.423313,-0.360321
390,1230751413,0.666028,-0.456117,-0.168166,0.565765,-0.164854,0.377767,-0.009023
391,1230784747,0.666041,-0.454671,-0.166756,0.567328,0.189181,0.637894,0.223902
392,1230818081,0.666364,-0.452554,-0.166066,0.568842,0.057409,0.160848,0.254704
393,1230851415,0.666937,-0.450888,-0.164908,0.569830,0.153069,0.128849,0.439692
394,1230884749,0.667619,-0.449335,-0.164092,0.570494,0.531321,0.044367,0.467150
395,1230918083,0.668037,-0.448519,-0.163402,0.570844,0.627091,0.347700,0.659462
396,1230951417,0.668533,-0.448449,-0.162931,0.570453,0.609346,-0.161998,0.681977
397,1230984751,0.668820,-0.448365,-0.164076,0.569854,0.370618,-0.315311,0.450194
398,1231018085,0.668437,-0.448602,-0.166181,0.569506,0.189863,0.219158,0.365237
399,1231051419,0.667994,-0.449081,-0.168634,0.568928,0.147710,0.188183,0.262801
400,1231084753,0.668085,-0.449722,-0.171000,0.567607,-0.002172,0.279938,0.114314
401,1231118087,0.668365,-0.450601,-0.173281,0.565885,0.115125,0.596539,0.287882
402,1231151421,0.668725,-0.452686,-0.174482,0.563423,0.125354,0.732086,-0.139339
403,1231184755,0.669059,-0.454639,-0.175635,0.561090,0.100734,-0.406279,-0.163595
404,1231218089,0.669208,-0.454308,-0.178063,0.560414,-0.041828,-0.490347,0.074462
405,1231251423,0.668861,-0.452425,-0.180756,0.561490,-0.009758,0.194300,-0.171183
406,1231284757,0.668042,-0.452218,-0.182503,0.562066,0.174965,0.222713,-0.427352
407,1231318091,0.667648,-0.453187,-0.183206,0.561524,-0.077945,-0.155644,0.270866
408,1231351425,0.667809,-0.452864,-0.184243,0.561254,0.083976,0.148101,0.377320
409,1231384759,0.667874,-0.451842,-0.185881,0.561460,0.212051,0.038786,-0.012232
410,1231418093,0.667848,-0.452740,-0.186748,0.560479,0.315424,-0.051943,0.191644
411,1231451427,0.667875,-0.453999,-0.187374,0.559218,0.364266,-0.540026,0.342116
412,1231484761,0.667218,-0.454453,-0.188457,0.559270,-0.060594,-0.563382,0.086026
413,1231518095,0.665602,-0.454744,-0.190554,0.560248,-0.115988,-0.047000,-0.003327
414,1231551429,0.664043,-0.455185,-0.192840,0.560956,-0.096347,0.406678,0.011396
415,1231584763,0.662790,-0.455366,-0.194739,0.561634,-0.309919,0.173421,0.092894
416,1231618097,0.661494,-0.455056,-0.196844,0.562680,-0.202564,0.260631,-0.067612
417,1231651431,0.660243,-0.455218,-0.198341,0.563492,0.127519,0.114016,0.048234
418,1231684765,0.658787,-0.455888,-0.199601,0.564209,0.097168,-0.141906,0.142065
419,1231718099,0.657359,-0.455990,-0.200970,0.565305,-0.046863,0.207454,0.114306
420,1231751433,0.656207,-0.456242,-0.202270,0.565975,0.056782,0.369456,-0.089105
421,1231784767,0.655300,-0.456954,-0.203405,0.566046,0.008624,0.038375,-0.018278
422,1231818101,0.654814,-0.457576,-0.204440,0.565733,-0.025663,0.137873,0.179155
423,1231851435,0.654311,-0.458339,-0.205710,0.565235,0.200460,0.035003,0.124083
424,1231884769,0.653600,-0.459782,-0.206660,0.564540,0.279021,-0.180661,-0.104126
425,1231918103,0.652619,-0.460675,-0.208110,0.564413,0.066678,-0.192431,0.130443
426,1231951437,0.651468,-0.461777,-0.209367,0.564379,0.170390,-0.193658,0.392656
427,1231984771,0.649753,-0.461926,-0.211480,0.565445,0.003255,-0.301339,0.006604
428,1232018105,0.647633,-0.461339,-0.214329,0.567280,0.074144,-0.099377,-0.122494
429,1232051439,0.645935,-0.461382,-0.216166,0.568483,-0.119230,0.144496,0.316886
430,1232084773,0.644296,-0.461706,-0.217656,0.569510,-0.253073,0.020247,-0.169164
431,1232118107,0.642944,-0.462440,-0.219079,0.569897,-0.178215,0.166903,-0.310449
432,1232151441,0.642425,-0.463262,-0.219930,0.569487,-0.486711,0.079108,0.283256
433,1232184775,0.642763,-0.463770,-0.219999,0.568665,-0.382203,0.368416,0.338502
434,1232218109,0.643681,-0.464443,-0.219818,0.567145,0.068697,0.286583,-0.177936
435,1232251443,0.644815,-0.465559,-0.219546,0.565043,0.380707,-0.164449,-0.219540
436,1232284777,0.645897,-0.466402,-0.219709,0.563046,0.310349,-0.395080,0.385648
437,1232318111,0.646597,-0.466698,-0.220164,0.561818,0.295413,-0.289416,0.654105
438,1232351445,0.646210,-0.466517,-0.221352,0.561947,0.279492,-0.369942,-0.116250
439,1232384779,0.645233,-0.466426,-0.222993,0.562495,0.103836,-0.070684,-0.142707
440,1232418113,0.644406,-0.466680,-0.224168,0.562765,0.061246,0.311987,0.372679
441,1232451447,0.643274,-0.467015,-0.225710,0.563167,-0.098015,0.233946,0.227493
442,1232484781,0.642019,-0.467295,-0.227536,0.563631,-0.058475,0.496631,0.070109
443,1232518115,0.641299,-0.467616,-0.229286,0.563476,-0.111041,0.540171,0.274828
444,1232551449,0.641293,-0.468467,-0.230704,0.562196,-0.052362,0.419658,0.165833
445,1232584783,0.641438,-0.469943,-0.232016,0.560255,0.132935,0.298868,0.021449
446,1232618117,0.641688,-0.471731,-0.233110,0.558007,0.207628,0.042529,0.244600
447,1232651451,0.642128,-0.473627,-0.233943,0.555541,0.253483,-0.231537,0.261211
448,1232684785,0.642108,-0.474634,-0.235571,0.554014,0.034608,-0.250604,0.109634
449,1232718119,0.641706,-0.475747,-0.237572,0.552669,0.217139,-0.037146,0.219731
450,1232751453,0.640948,-0.477305,-0.240053,0.551133,0.250827,-0.362388,0.214993
451,1232784787,0.639933,-0.478414,-0.243222,0.549959,0.056436,-0.315158,0.269471
452,1232818121,0.638448,-0.479146,-0.247000,0.549363,0.003252,-0.126610,0.213276
453,1232851455,0.636411,-0.479230,-0.251505,0.549610,-0.012036,-0.150158,0.162199
454,1232884789,0.634153,-0.479411,-0.256452,0.549776,0.190020,0.020747,0.227797
455,1232918123,0.631834,-0.479975,-0.261334,0.549655,0.148032,0.077767,0.157264
456,1232951457,0.629567,-0.481105,-0.265529,0.549257,-0.019103,0.322904,-0.039485
457,1232984791,0.627378,-0.483231,-0.269152,0.548131,-0.041898,0.218110,-0.061952
458,1233018125,0.625214,-0.485964,-0.272538,0.546512,-0.365050,-0.036225,-0.066814
459,1233051459,0.623293,-0.488590,-0.275463,0.544896,-0.653831,0.227430,-0.021344
460,1233084793,0.621509,-0.490825,-0.278264,0.543501,-0.363551,0.121662,-0.053267
461,1233118127,0.620003,-0.492706,-0.280664,0.542283,-0.127052,0.039463,0.002223
462,1233151461,0.618860,-0.494900,-0.282811,0.540472,0.245182,0.209311,0.217464
463,1233184795,0.618104,-0.497311,-0.284138,0.538425,0.245833,0.058661,0.321016
464,1233218129,0.617652,-0.499534,-0.285202,0.536318,0.176254,-0.184141,0.128034
465,1233251463,0.617397,-0.501932,-0.286175,0.533849,0.172757,-0.251027,-0.035492
466,1233284797,0.616857,-0.503987,-0.287342,0.531907,-0.007939,-0.563972,0.013982
467,1233318131,0.615421,-0.505800,-0.289208,0.530837,-0.355269,-0.210986,0.160781
468,1233351465,0.612888,-0.506982,-0.291570,0.531348,-0.313834,0.123752,-0.008289
469,1233384799,0.610116,-0.507305,-0.294255,0.532748,-0.307503,0.313877,-0.099595
470,1233418133,0.607842,-0.507431,-0.296777,0.533827,-0.280508,0.632625,-0.099912
471,1233451467,0.605808,-0.507301,-0.298867,0.535094,-0.192756,-0.103303,0.187707
472,1233484801,0.604022,-0.506689,-0.301301,0.536329,-0.063594,-0.094112,0.221364
473,1233518135,0.602641,-0.506370,-0.303071,0.537184,0.242962,-0.231144,0.182316
474,1233551469,0.602011,-0.507197,-0.304326,0.536401,0.314616,-0.306250,0.331089
475,1233584803,0.601731,-0.508746,-0.305402,0.534634,0.156948,-0.330315,0.050652
476,1233618137,0.601701,-0.510568,-0.306012,0.532577,0.020156,-0.184332,0.262987
477,1233651471,0.601875,-0.512089,-0.306264,0.530772,0.229268,0.123453,0.130501
478,1233684805,0.602115,-0.513588,-0.306271,0.529045,0.191443,-0.169146,-0.023440
479,1233718139,0.602339,-0.514118,-0.307052,0.527822,0.304498,-0.204119,0.151464
480,1233751473,0.602753,-0.513831,-0.307972,0.527092,0.116502,-0.006113,0.348282
481,1233784807,0.603161,-0.512935,-0.309198,0.526780,0.081981,0.166176,0.330286
482,1233818141,0.603306,-0.512060,-0.311004,0.526402,0.203398,0.229953,0.298435
483,1233851475,0.603657,-0.511765,-0.312930,0.525144,0.273711,0.153663,0.330573
484,1233884809,0.604441,-0.512633,-0.314438,0.522488,0.245616,0.228692,0.247334
485,1233918143,0.605422,-0.514275,-0.315606,0.519022,0.112025,0.236091,0.036270
486,1233951477,0.606381,-0.515989,-0.316952,0.515370,0.107219,0.251503,0.043734
487,1233984811,0.607605,-0.517762,-0.318430,0.511220,0.156352,0.095929,-0.132196
488,1234018145,0.608538,-0.519558,-0.320257,0.507131,-0.308669,-0.219904,-0.034481
489,1234051479,0.609261,-0.520714,-0.322640,0.503554,-0.265317,-0.036549,0.366980
490,1234084813,0.609363,-0.521384,-0.325236,0.501062,-0.079129,-0.067800,0.379046
491,1234118147,0.608883,-0.521946,-0.327777,0.499402,0.090329,0.018320,0.265089
492,1234151481,0.607885,-0.521965,-0.330903,0.498535,0.212114,0.008451,0.276715
493,1234184815,0.606917,-0.521803,-0.334495,0.497486,0.225166,0.403015,0.200940
494,1234218149,0.606213,-0.521795,-0.338157,0.495874,0.053709,0.569974,0.269612
495,1234251483,0.606051,-0.522255,-0.341624,0.493204,0.051459,0.929460,0.323670
496,1234284817,0.606710,-0.522392,-0.345244,0.489716,0.360406,1.288330,0.561114
497,1234318151,0.609651,-0.523917,-0.346978,0.483166,0.853851,0.694767,0.415885
498,1234351485,0.613980,-0.526468,-0.347385,0.474541,0.475367,-0.339248,0.075607
499,1234384819,0.617707,-0.528492,-0.349102,0.466120,0.523846,-0.869475,-0.054966
500,1234418153,0.620634,-0.531255,-0.351302,0.457355,0.682177,-0.812530,-0.119004
501,1234451487,0.622473,-0.535744,-0.352918,0.448286,0.149064,-0.958389,-0.046072
502,1234484821,0.622573,-0.539378,-0.356108,0.441211,-0.101021,-0.391451,0.366626
503,1234518155,0.621351,-0.540731,-0.362133,0.436347,0.442449,0.466592,0.402062
504,1234551489,0.620782,-0.542050,-0.368396,0.430235,0.398455,0.818773,0.128467
505,1234584823,0.622076,-0.544243,-0.372609,0.421888,0.284713,0.746598,0.230798
506,1234618157,0.624304,-0.546576,-0.375666,0.412770,-0.175879,0.018361,-0.169463
507,1234651491,0.626412,-0.549466,-0.377692,0.403795,-0.287713,-0.474083,-0.127254
508,1234684825,0.628362,-0.552711,-0.378172,0.395806,-0.685544,-0.944544,0.043941
509,1234718159,0.629222,-0.554069,-0.379441,0.391301,-0.779117,-1.108899,-0.046586
510,1234751493,0.628362,-0.552860,-0.383823,0.390119,-0.187524,-0.354763,-0.174948
511,1234784827,0.627050,-0.550952,-0.389620,0.389181,0.418809,0.426916,0.026732
512,1234818161,0.626747,-0.550486,-0.394276,0.385623,0.434719,0.420073,0.134225
513,1234851495,0.626452,-0.551227,-0.398761,0.380397,0.355718,-0.285552,0.015470
514,1234884829,0.625605,-0.552088,-0.403729,0.375267,-0.352223,-0.700817,-0.518074
515,1234918163,0.623725,-0.552394,-0.409459,0.371722,-0.643384,-0.391301,0.210434
516,1234951497,0.621041,-0.551715,-0.415801,0.370182,-0.492622,-1.085315,0.555830
517,1234984831,0.617207,-0.548747,-0.423760,0.371975,-0.385561,-0.854396,0.042497
518,1235018165,0.612738,-0.545962,-0.432197,0.373750,0.349413,0.362491,0.403136
519,1235051499,0.609243,-0.544039,-0.439476,0.373779,0.191752,0.467771,0.150716
520,1235084833,0.605742,-0.542977,-0.446184,0.373066,-0.088307,0.657441,0.101466