sep=,
DeviceTag:,D_leg_new
FirmwareVersion:,2.2.1
AppVersion:,2023.6.0
SyncStatus:,Synced
OutputRate:,30Hz
FilterProfile:,General
Measurement Mode:,Sensor fusion Mode - Complete(Quaternion)
StartTime: ,2026-09-07_14:37:54_466 AEST
© Movella Technologies B. V. 2005-2026

PacketCounter,SampleTimeFine,Quat_W,Quat_X,Quat_Y,Quat_Z,FreeAcc_X,FreeAcc_Y,FreeAcc_Z
1,3257899867,0.545898,-0.311576,-0.755433,-0.185042,-0.093317,0.386632,0.232830
2,3257933201,0.545737,-0.311314,-0.755873,-0.184161,0.038239,0.513481,0.174478
3,3257966535,0.545579,-0.310994,-0.756353,-0.183193,0.076206,0.359629,0.191577
4,3257999869,0.545566,-0.310713,-0.756616,-0.182620,-0.014928,0.299909,0.190330
5,3258033203,0.545745,-0.310297,-0.756772,-0.182151,0.022171,0.239028,0.138103
6,3258066537,0.545943,-0.309790,-0.757016,-0.181403,-0.082021,0.099790,0.174874
7,3258099871,0.546125,-0.309148,-0.757325,-0.180659,-0.072115,0.028923,0.196545
8,3258133205,0.546205,-0.308593,-0.757615,-0.180150,-0.004406,0.033805,0.164909
9,3258166539,0.546381,-0.307894,-0.757939,-0.179445,-0.050645,-0.026913,0.161572
10,3258199873,0.546566,-0.307034,-0.758313,-0.178776,0.126034,0.070778,0.199454
11,3258233207,0.546607,-0.306391,-0.758678,-0.178207,0.084158,-0.065268,0.191696
12,3258266541,0.546738,-0.305837,-0.758916,-0.177738,0.072669,-0.009095,0.229702
13,3258299875,0.546930,-0.305156,-0.759175,-0.177212,0.155548,0.018023,0.179668
14,3258333209,0.547223,-0.304419,-0.759415,-0.176549,0.183248,0.014549,0.161613
15,3258366543,0.547281,-0.304054,-0.759653,-0.175971,0.091858,-0.037451,0.256754
16,3258399877,0.547321,-0.303650,-0.759946,-0.175278,0.036360,0.033028,0.119230
17,3258433211,0.547288,-0.302951,-0.760562,-0.173915,0.018341,-0.060554,0.122753
18,3258466545,0.547050,-0.302176,-0.761459,-0.172077,-0.050208,-0.092872,0.133463
19,3258499879,0.546686,-0.301575,-0.762384,-0.170182,-0.147719,0.022410,0.134956
20,3258533213,0.546235,-0.300503,-0.763713,-0.167546,-0.065778,0.113770,0.191451
21,3258566547,0.545885,-0.298684,-0.765378,-0.164311,-0.030859,0.126270,0.244079
22,3258599881,0.545756,-0.296394,-0.767088,-0.160879,-0.089695,0.249986,0.180242
23,3258633215,0.545930,-0.294178,-0.768372,-0.158203,0.043507,0.562205,0.280981
24,3258666549,0.546133,-0.292736,-0.768977,-0.157236,0.174134,0.388165,0.239908
25,3258699883,0.546365,-0.292452,-0.768719,-0.158215,0.314987,0.095789,0.274511
26,3258733217,0.546687,-0.294215,-0.767089,-0.161707,0.287248,-0.085416,0.115346
27,3258766551,0.546468,-0.298235,-0.764371,-0.167839,0.391442,-0.289678,0.156386
28,3258799885,0.545863,-0.303328,-0.761257,-0.174691,0.098463,-0.619749,0.155908
29,3258833219,0.544767,-0.308912,-0.758135,-0.181764,-0.022341,-0.837889,0.135916
30,3258866553,0.543703,-0.314459,-0.754927,-0.188657,0.007857,-0.637180,0.215892
31,3258899887,0.542642,-0.320037,-0.751647,-0.195314,0.160120,-0.343109,0.001624
32,3258933221,0.541013,-0.325918,-0.748607,-0.201677,-0.092563,-0.287552,0.038321
33,3258966555,0.539028,-0.331759,-0.746100,-0.206695,-0.411022,-0.150237,0.080907
34,3258999889,0.537061,-0.336746,-0.744259,-0.210356,-0.356993,0.217070,0.216253
35,3259033223,0.535802,-0.340139,-0.742836,-0.213122,-0.221733,0.477249,0.299422
36,3259066557,0.535318,-0.342317,-0.741469,-0.215595,0.297320,0.564675,0.264748
37,3259099891,0.535383,-0.344804,-0.739287,-0.218939,0.711019,0.399847,0.158991
38,3259133225,0.535226,-0.349265,-0.735570,-0.224694,0.734556,0.167138,0.363962
39,3259166559,0.534789,-0.355531,-0.730337,-0.232832,0.636640,-0.074483,0.198333
40,3259199893,0.533917,-0.362611,-0.724641,-0.241548,-0.006004,-0.258381,0.049610
41,3259233227,0.532833,-0.368919,-0.719983,-0.248227,-0.506471,-0.401586,0.220949
42,3259266561,0.531530,-0.374017,-0.716848,-0.252427,-0.814348,-0.204939,-0.069567
43,3259299895,0.530304,-0.377394,-0.715239,-0.254534,-0.650192,-0.097233,0.067496
44,3259333229,0.530254,-0.378769,-0.714349,-0.255095,-0.422538,0.403512,0.305451
45,3259366563,0.530589,-0.378593,-0.714372,-0.254596,0.076250,0.991900,0.161922
46,3259399897,0.530950,-0.377489,-0.715078,-0.253499,0.172327,0.959343,0.194842
47,3259433231,0.531798,-0.375840,-0.715808,-0.252108,0.123507,0.783418,0.220171
48,3259466565,0.532896,-0.373376,-0.716826,-0.250553,-0.191960,0.483616,0.239552
49,3259499899,0.534330,-0.369828,-0.718574,-0.247738,-0.072314,0.054461,0.127373
50,3259533233,0.535595,-0.366164,-0.720633,-0.244447,0.125866,-0.155021,0.045340
51,3259566567,0.536861,-0.362496,-0.722893,-0.240430,-0.088876,-0.191343,0.173990
52,3259599901,0.538038,-0.358347,-0.725740,-0.235388,-0.192724,0.005210,0.201008
53,3259633235,0.539250,-0.353337,-0.729241,-0.229290,-0.269527,0.168011,0.279228
54,3259666569,0.540961,-0.347353,-0.732932,-0.222534,0.034488,0.338934,0.045557
55,3259699903,0.542582,-0.341199,-0.736561,-0.216029,0.109775,0.103934,0.178163
56,3259733237,0.543669,-0.335567,-0.740275,-0.209323,-0.132967,-0.233357,0.048033
57,3259766571,0.544159,-0.330203,-0.744310,-0.202146,-0.106340,-0.427505,0.097965
58,3259799905,0.544639,-0.325162,-0.747964,-0.195425,-0.263634,-0.435780,0.210138
59,3259833239,0.544681,-0.319951,-0.751945,-0.188513,-0.252184,-0.460693,0.018425
60,3259866573,0.544760,-0.313657,-0.756566,-0.180187,-0.240975,-0.527659,0.258587
61,3259899907,0.545157,-0.307101,-0.760968,-0.171533,-0.146384,0.169321,0.063393
62,3259933241,0.545125,-0.301112,-0.765130,-0.163557,-0.070621,0.408233,0.193599
63,3259966575,0.545389,-0.295080,-0.768732,-0.156635,0.009304,0.514005,0.212123
64,3259999909,0.546048,-0.289153,-0.771721,-0.150575,0.137900,0.697297,0.332492
65,3260033243,0.547036,-0.284128,-0.773769,-0.145972,0.092006,0.580022,0.175187
66,3260066577,0.548396,-0.279617,-0.775096,-0.142503,0.018432,0.224002,0.208113
67,3260099911,0.549702,-0.276056,-0.775816,-0.140476,0.391305,-0.087577,0.307782
68,3260133245,0.551096,-0.273860,-0.775580,-0.140621,0.740029,-0.280598,0.212591
69,3260166579,0.552266,-0.274084,-0.774223,-0.143048,0.425034,-0.348433,0.043532
70,3260199913,0.552497,-0.276120,-0.772681,-0.146539,0.307124,-0.367967,0.180172
71,3260233247,0.552103,-0.278700,-0.771357,-0.150069,0.119912,-0.454198,0.230623
72,3260266581,0.551455,-0.281051,-0.770411,-0.152899,-0.053277,-0.426793,0.263503
73,3260299915,0.550951,-0.282691,-0.769774,-0.154891,0.048794,-0.051719,0.192111
74,3260333249,0.550036,-0.284605,-0.769295,-0.156998,-0.104908,0.158241,0.144511
75,3260366583,0.549147,-0.286382,-0.768863,-0.158986,-0.265017,0.166978,0.198674
76,3260399917,0.548669,-0.287379,-0.768432,-0.160911,0.055219,0.202074,0.195541
77,3260433251,0.548751,-0.287842,-0.767903,-0.162322,0.224674,0.062316,0.099789
78,3260466585,0.548781,-0.288654,-0.767327,-0.163498,0.175469,-0.028646,0.038596
79,3260499919,0.548347,-0.290168,-0.766752,-0.164967,0.215084,-0.027601,0.203081
80,3260533253,0.547645,-0.292299,-0.766007,-0.166983,0.291666,0.039774,0.210619
81,3260566587,0.547060,-0.294070,-0.765424,-0.168459,0.414417,-0.077895,0.375166
82,3260599921,0.546774,-0.296268,-0.764373,-0.170298,0.594705,-0.072636,0.218774
83,3260633255,0.546364,-0.299547,-0.762699,-0.173357,0.110300,-0.277533,0.264051
84,3260666589,0.545991,-0.302950,-0.760840,-0.176752,-0.044233,-0.137426,-0.064028
85,3260699923,0.545323,-0.306153,-0.759501,-0.179041,-0.447417,-0.367276,0.103605
86,3260733257,0.544729,-0.308227,-0.758945,-0.179648,-0.539518,-0.128503,0.072541
87,3260766591,0.544291,-0.308993,-0.759047,-0.179226,-0.577423,0.344606,0.082184
88,3260799925,0.544317,-0.308431,-0.759522,-0.178100,-0.169645,0.674111,0.150433
89,3260833259,0.544532,-0.307851,-0.759743,-0.177502,0.260305,0.819990,0.301232
90,3260866593,0.544785,-0.307869,-0.759426,-0.178051,0.463295,0.609254,0.307295
91,3260899927,0.545247,-0.309021,-0.758160,-0.180026,0.415073,0.265786,0.233899
92,3260933261,0.545621,-0.311089,-0.756341,-0.182957,0.130033,-0.257304,0.236798
93,3260966595,0.545893,-0.313057,-0.754682,-0.185619,0.031434,-0.625757,0.137300
94,3260999929,0.546050,-0.314196,-0.753824,-0.186716,-0.074837,-0.650247,0.148503
95,3261033263,0.546110,-0.315005,-0.753460,-0.186647,-0.180239,-0.348492,0.050555
96,3261066597,0.545501,-0.315452,-0.753941,-0.185727,-0.298834,-0.218983,0.098348
97,3261099931,0.544752,-0.314935,-0.755286,-0.183326,-0.235512,0.129701,0.170645
98,3261133265,0.544266,-0.313550,-0.756957,-0.180223,-0.163793,0.574810,0.175632
99,3261166599,0.544162,-0.311787,-0.758452,-0.177288,-0.018930,0.601515,0.157810
100,3261199933,0.544234,-0.310014,-0.759677,-0.174919,0.113435,0.472209,0.223835
101,3261233267,0.544554,-0.308483,-0.760443,-0.173290,0.110124,0.298777,0.183375
102,3261266601,0.544909,-0.307537,-0.760738,-0.172560,0.122930,0.061817,0.148951
103,3261299935,0.545167,-0.306846,-0.760978,-0.171916,-0.036313,-0.236966,0.234597
104,3261333269,0.545344,-0.305996,-0.761416,-0.170926,-0.108981,-0.185190,0.135158
105,3261366603,0.545630,-0.304939,-0.761918,-0.169664,-0.007313,-0.092134,0.114312
106,3261399937,0.545895,-0.303933,-0.762373,-0.168565,0.067631,0.056602,0.162566
107,3261433271,0.546001,-0.303097,-0.762833,-0.167645,0.130589,-0.048492,0.207033
108,3261466605,0.546033,-0.302855,-0.762962,-0.167391,0.154030,0.028051,0.234302
109,3261499939,0.545939,-0.303548,-0.762533,-0.168391,0.085129,0.042363,0.158067
110,3261533273,0.545428,-0.304871,-0.761994,-0.170092,0.047025,-0.158764,0.279282
111,3261566607,0.544951,-0.306444,-0.761217,-0.172260,0.001846,-0.075964,0.172488
112,3261599941,0.544408,-0.308326,-0.760295,-0.174673,-0.013700,-0.007260,0.103458
113,3261633275,0.543687,-0.310356,-0.759435,-0.177046,-0.212348,-0.063259,0.161336
114,3261666609,0.542979,-0.312081,-0.758812,-0.178848,-0.164556,0.174103,0.135314
115,3261699943,0.542277,-0.313345,-0.758469,-0.180220,-0.044277,0.201666,0.127801
116,3261733277,0.541780,-0.314451,-0.758016,-0.181687,0.041279,0.084572,0.215989
117,3261766611,0.541245,-0.315680,-0.757518,-0.183221,0.061309,-0.077399,0.239794
118,3261799945,0.540742,-0.317185,-0.756815,-0.185006,0.086180,-0.124828,0.155903
119,3261833279,0.540206,-0.318983,-0.755877,-0.187297,0.266505,-0.179684,0.212052
120,3261866613,0.539772,-0.321122,-0.754608,-0.189995,0.321617,-0.288604,0.284286
121,3261899947,0.539396,-0.324111,-0.752673,-0.193626,0.331818,-0.229942,0.304618
122,3261933281,0.539127,-0.327800,-0.750065,-0.198232,0.388519,-0.306481,0.110989
123,3261966615,0.539150,-0.332280,-0.746558,-0.203868,0.276412,-0.261589,0.195846
124,3261999949,0.538944,-0.337625,-0.742497,-0.210358,0.303856,-0.250876,0.154392
125,3262033283,0.538215,-0.344146,-0.737924,-0.217624,0.224027,-0.316998,0.119179
126,3262066617,0.536558,-0.352010,-0.733125,-0.225225,-0.149910,-0.217957,0.078911
127,3262099951,0.534608,-0.359622,-0.728830,-0.231684,-0.701411,0.023512,0.138983
128,3262133285,0.532973,-0.365062,-0.725929,-0.236012,-0.632494,0.396514,0.177295
129,3262166619,0.532285,-0.367507,-0.724474,-0.238227,-0.330661,0.711238,0.157046
130,3262199953,0.532208,-0.368352,-0.723798,-0.239149,0.062539,0.889508,0.181910
131,3262233287,0.531978,-0.368965,-0.723480,-0.239675,0.126250,0.664640,0.210788
132,3262266621,0.531974,-0.369068,-0.723407,-0.239746,-0.005653,0.244382,0.228887
133,3262299955,0.532396,-0.368193,-0.723834,-0.238865,-0.062858,-0.001924,0.123897
134,3262333289,0.533143,-0.366261,-0.725001,-0.236621,0.084826,-0.010332,0.184637
135,3262366623,0.534014,-0.363943,-0.726485,-0.233663,0.012999,0.080686,0.224201
136,3262399957,0.534977,-0.360905,-0.728569,-0.229648,-0.135013,0.005620,0.082616
137,3262433291,0.536234,-0.356535,-0.731577,-0.223908,-0.212265,-0.072103,0.138585
138,3262466625,0.537573,-0.350909,-0.735441,-0.216814,-0.330607,-0.112201,0.183517
139,3262499959,0.538937,-0.344050,-0.740016,-0.208701,-0.301944,-0.109192,0.019319
140,3262533293,0.540458,-0.335415,-0.745504,-0.199072,-0.055745,-0.179895,0.007019
1,3267833399,0.545216,-0.299636,-0.765912,-0.162298,0.048536,0.007640,0.153514
2,3267866733,0.546069,-0.295735,-0.767529,-0.158909,0.196423,0.095131,0.043713
3,3267900067,0.546454,-0.293480,-0.768464,-0.157239,-0.015032,-0.076096,0.165374
4,3267933401,0.546632,-0.291839,-0.769189,-0.156128,-0.013323,-0.097259,0.239386
5,3267966735,0.546887,-0.290909,-0.769497,-0.155451,-0.058344,0.236953,0.203619
6,3268000069,0.547255,-0.290891,-0.769123,-0.156038,-0.332862,0.277733,0.061810
7,3268033403,0.547863,-0.290814,-0.768481,-0.157206,-0.138925,0.462149,0.168772
8,3268066737,0.548928,-0.290382,-0.767585,-0.158663,-0.027196,0.469930,0.307413
9,3268100071,0.549834,-0.290009,-0.766695,-0.160499,0.395784,-0.068123,0.322524
10,3268133405,0.550933,-0.290221,-0.765242,-0.163257,0.369388,-0.348420,0.205186
11,3268166739,0.551702,-0.291695,-0.763159,-0.167724,0.793800,-0.317702,0.209443
12,3268200073,0.551930,-0.294746,-0.760559,-0.173358,0.591753,-0.495504,0.141018
13,3268233407,0.551616,-0.298893,-0.757872,-0.178931,0.536072,-0.619514,0.179697
14,3268266741,0.550904,-0.303710,-0.755154,-0.184420,0.238350,-0.633931,0.148320
15,3268300075,0.550058,-0.308632,-0.752451,-0.189746,-0.018809,-0.298654,0.055613
16,3268333409,0.548998,-0.312829,-0.750414,-0.193964,0.000608,-0.076641,0.179818
17,3268366743,0.548184,-0.316234,-0.748752,-0.197145,-0.248049,-0.084450,0.172619
18,3268400077,0.547441,-0.319328,-0.747099,-0.200461,0.086919,0.253872,0.228576
19,3268433411,0.546977,-0.321733,-0.745730,-0.202966,-0.258340,0.072011,0.167529
20,3268466745,0.547022,-0.323427,-0.744548,-0.204486,-0.357256,0.028887,0.177096
21,3268500079,0.546702,-0.325289,-0.743435,-0.206428,-0.207954,0.045673,0.115818
22,3268533413,0.546375,-0.326862,-0.742482,-0.208229,-0.157925,0.171781,0.068135
23,3268566747,0.546211,-0.328455,-0.741513,-0.209605,0.038496,0.235331,0.246828
24,3268600081,0.545792,-0.330187,-0.740650,-0.211018,-0.270184,0.161608,0.095292
25,3268633415,0.545001,-0.331778,-0.740045,-0.212682,0.192853,0.192121,0.304078
26,3268666749,0.544764,-0.333419,-0.738894,-0.214718,-0.154387,0.234719,0.126529
27,3268700083,0.544505,-0.335094,-0.737557,-0.217345,0.009351,0.134955,0.132674
28,3268733417,0.544240,-0.336970,-0.735945,-0.220552,0.040170,-0.135995,0.261590
29,3268766751,0.543614,-0.339428,-0.734130,-0.224343,0.128271,-0.123159,0.094278
30,3268800085,0.542700,-0.342483,-0.732273,-0.227954,0.139014,-0.191181,0.210940
31,3268833419,0.541997,-0.345788,-0.730096,-0.231591,0.108396,-0.148011,0.085853
32,3268866753,0.541176,-0.349646,-0.727583,-0.235589,0.184293,-0.216329,0.205816
33,3268900087,0.540162,-0.354629,-0.724410,-0.240202,0.311286,0.073925,0.248878
34,3268933421,0.538693,-0.360728,-0.720459,-0.246228,0.222173,0.002751,0.084778
35,3268966755,0.536854,-0.368046,-0.715738,-0.253087,0.466573,-0.067418,0.213423
36,3269000089,0.534585,-0.376311,-0.710418,-0.260614,-0.185335,-0.165435,0.240547
37,3269033423,0.532502,-0.383310,-0.705789,-0.267171,-0.335823,-0.065293,0.139013
38,3269066757,0.531280,-0.387883,-0.702311,-0.272122,-0.111048,0.159068,0.326555
39,3269100091,0.530833,-0.391016,-0.699194,-0.276502,-0.053857,0.364259,0.214102
40,3269133425,0.530533,-0.393661,-0.696311,-0.280571,-0.144651,0.266012,0.122726
41,3269166759,0.530064,-0.395903,-0.694161,-0.283615,-0.099203,0.096851,0.097855
42,3269200093,0.529683,-0.397521,-0.692735,-0.285544,-0.371588,0.006653,0.053585
43,3269233427,0.529869,-0.397663,-0.692384,-0.285852,-0.563110,0.025165,0.097017
44,3269266761,0.530550,-0.395622,-0.693497,-0.284721,-0.300940,0.139269,0.167957
45,3269300095,0.531848,-0.392330,-0.695497,-0.281961,-0.133506,0.263583,0.052938
46,3269333429,0.533145,-0.388544,-0.698382,-0.277589,0.068545,0.329478,0.178075
47,3269366763,0.534774,-0.383547,-0.701427,-0.273703,-0.328221,0.314599,0.434645
48,3269400097,0.536767,-0.376978,-0.704598,-0.270766,-0.029324,0.353008,0.421159
49,3269433431,0.538927,-0.369982,-0.708581,-0.265683,-0.349383,0.374961,-0.135229
50,3269466765,0.540545,-0.361683,-0.713842,-0.259674,0.018134,-0.453256,0.418350
51,3269500099,0.543307,-0.352818,-0.718425,-0.253392,-0.074367,-0.053528,-0.108492
52,3269533433,0.545969,-0.343804,-0.723951,-0.244161,0.214421,-0.396654,0.166648
53,3269566767,0.547861,-0.337433,-0.728289,-0.235770,0.352512,-0.273613,0.051409
54,3269600101,0.548520,-0.332968,-0.732102,-0.228667,-0.012110,-0.183899,0.161030
55,3269633435,0.549070,-0.328987,-0.735325,-0.222692,0.100486,-0.050678,0.223947
56,3269666769,0.550085,-0.324412,-0.738393,-0.216665,-0.347869,0.297538,0.225271
57,3269700103,0.550654,-0.319898,-0.741814,-0.210145,0.133014,0.369329,0.131612
58,3269733437,0.551035,-0.315940,-0.744952,-0.203942,0.036660,0.333257,0.285675
59,3269766771,0.551286,-0.312230,-0.747385,-0.200041,0.309376,0.170348,0.277325
61,3269833439,0.551188,-0.308725,-0.750083,-0.195603,-0.075441,-0.038285,0.105380
66,3270000109,0.551682,-0.302269,-0.753697,-0.190328,0.400390,-0.196333,0.170403
69,3270100111,0.549872,-0.312655,-0.747156,-0.204083,0.058437,-0.431850,0.217072
70,3270133445,0.549368,-0.317060,-0.743956,-0.210239,0.054908,-0.338589,0.192369
71,3270166779,0.548717,-0.321498,-0.740322,-0.217887,0.205442,-0.351747,0.194084
72,3270200113,0.548045,-0.325853,-0.736636,-0.225474,0.055610,-0.264162,0.186255
82,3270533453,0.543199,-0.346801,-0.718058,-0.262794,0.082701,0.163933,0.277205
83,3270566787,0.543655,-0.347418,-0.716605,-0.264993,0.014310,0.458820,0.177553
84,3270600121,0.543953,-0.348007,-0.715545,-0.266470,-0.080939,0.531002,0.239590
85,3270633455,0.543710,-0.349034,-0.714791,-0.267641,-0.243765,0.275544,0.096982
86,3270666789,0.543067,-0.349998,-0.714368,-0.268818,-0.284275,-0.011297,0.081965
87,3270700123,0.542963,-0.350339,-0.713941,-0.269714,-0.214613,0.018719,0.104963
88,3270733457,0.543054,-0.350243,-0.713868,-0.269851,-0.267187,0.038935,0.120280
89,3270766791,0.543447,-0.349394,-0.714366,-0.268839,-0.143854,0.098059,0.216122
90,3270800125,0.543912,-0.348461,-0.714888,-0.267719,0.068122,0.128765,0.156879
91,3270833459,0.543975,-0.347861,-0.715388,-0.267032,0.282163,0.120599,0.193188
92,3270866793,0.543966,-0.347464,-0.715666,-0.266826,0.561513,-0.168416,0.228864
93,3270900127,0.544587,-0.347477,-0.715170,-0.266872,0.170132,-0.194263,0.161953
94,3270933461,0.545206,-0.347048,-0.715343,-0.265701,-0.125226,-0.056313,0.199941
95,3270966795,0.545844,-0.345916,-0.716073,-0.263893,-0.029241,-0.218936,0.112108
96,3271000129,0.547042,-0.343826,-0.717283,-0.260840,-0.280305,0.104589,0.143005
97,3271033463,0.548264,-0.340360,-0.719675,-0.256189,-0.249336,0.114845,0.055770
98,3271066797,0.549567,-0.334858,-0.723526,-0.249720,-0.334683,0.155243,0.224355
99,3271100131,0.551284,-0.328157,-0.727803,-0.242294,0.014042,0.225181,0.153589
100,3271133465,0.552776,-0.321604,-0.731995,-0.234940,0.159258,0.140219,0.228261
101,3271166799,0.554271,-0.315017,-0.736133,-0.227289,-0.069745,-0.423869,0.208134
102,3271200133,0.555667,-0.307772,-0.740776,-0.218551,0.148183,-0.540948,0.069987
103,3271233467,0.557093,-0.301495,-0.744655,-0.210336,0.152094,-0.487196,0.144279
104,3271266801,0.557916,-0.297480,-0.747593,-0.203333,0.056841,-0.040781,0.009584
105,3271300135,0.557705,-0.295371,-0.750264,-0.197049,-0.013365,0.124232,0.107009
106,3271333469,0.557077,-0.294068,-0.752774,-0.191112,-0.175301,0.497060,0.203440
107,3271366803,0.556365,-0.292869,-0.755054,-0.185964,-0.075006,1.046368,0.332851
108,3271400137,0.555900,-0.291498,-0.756692,-0.182825,-0.128000,0.905084,0.285823
109,3271433471,0.556364,-0.289070,-0.757971,-0.179951,0.106348,0.469211,0.262455
110,3271466805,0.557004,-0.286905,-0.758845,-0.177738,0.547867,0.327106,0.287825
111,3271500139,0.557611,-0.286287,-0.758671,-0.177573,0.578114,-0.290096,0.326328
112,3271533473,0.558200,-0.287943,-0.757039,-0.179994,0.687071,-0.430819,0.088806
113,3271566807,0.558385,-0.291175,-0.754635,-0.184266,0.290581,-0.824369,0.261029
114,3271600141,0.558357,-0.294946,-0.752060,-0.188825,0.305439,-0.924694,0.050444
115,3271633475,0.557614,-0.299919,-0.749521,-0.193228,0.074935,-0.676887,0.070699
116,3271666809,0.556336,-0.305710,-0.746876,-0.198021,-0.121143,-0.391452,0.169636
117,3271700143,0.554909,-0.311188,-0.744264,-0.203256,-0.224350,-0.210543,0.130876
118,3271733477,0.553485,-0.316025,-0.742074,-0.207639,0.018343,0.059008,0.202519
119,3271766811,0.552184,-0.320969,-0.739623,-0.212211,0.041754,0.192808,0.132671
120,3271800145,0.550746,-0.326526,-0.736714,-0.217524,0.096958,0.197602,0.278008
121,3271833479,0.549427,-0.332415,-0.733426,-0.222982,-0.343250,0.113401,0.132830
122,3271866813,0.547603,-0.338154,-0.730554,-0.228206,-0.193197,0.078126,0.137759
123,3271900147,0.545904,-0.342777,-0.728240,-0.232729,-0.186218,0.017870,0.216036
124,3271933481,0.544773,-0.346427,-0.726206,-0.236304,-0.216968,0.110008,0.185184
125,3271966815,0.543911,-0.349651,-0.724256,-0.239503,-0.061612,0.251795,0.112928
126,3272000149,0.542699,-0.352944,-0.722465,-0.242809,-0.050694,0.033914,0.143046
127,3272033483,0.541834,-0.355372,-0.720968,-0.245632,0.042616,-0.031621,0.230912
128,3272066817,0.541454,-0.357246,-0.719433,-0.248239,0.122511,0.128247,0.185583
129,3272100151,0.541344,-0.358936,-0.717793,-0.250778,0.105873,-0.045005,0.234818
130,3272133485,0.541045,-0.360929,-0.716121,-0.253328,0.142399,-0.139461,0.189273
131,3272166819,0.540631,-0.363286,-0.714176,-0.256316,-0.014578,-0.134066,0.130137
132,3272200153,0.540022,-0.365777,-0.712178,-0.259596,0.106730,-0.073527,0.095758
133,3272233487,0.539486,-0.368286,-0.710113,-0.262800,-0.124039,-0.089817,0.101057
134,3272266821,0.538722,-0.370941,-0.708096,-0.266057,-0.187181,0.141665,0.110875
135,3272300155,0.537835,-0.373394,-0.706234,-0.269347,-0.117922,0.298385,0.098977
136,3272333489,0.536958,-0.375183,-0.705329,-0.270978,-0.299383,-0.092747,0.199531
137,3272366823,0.536525,-0.375702,-0.705491,-0.270694,-0.308965,-0.108920,0.144141
138,3272400157,0.536408,-0.375198,-0.706309,-0.269488,0.005663,0.109480,0.186340
139,3272433491,0.536378,-0.374549,-0.707067,-0.268462,0.123599,0.264083,0.146834
140,3272466825,0.536259,-0.374077,-0.707730,-0.267609,0.140150,0.281596,0.181867
141,3272500159,0.536290,-0.373353,-0.708581,-0.266304,0.231070,0.196329,0.210067
142,3272533493,0.536657,-0.372197,-0.709539,-0.264626,-0.006830,-0.067741,0.225087
143,3272566827,0.537503,-0.370300,-0.710729,-0.262367,-0.091850,-0.042208,0.183638
144,3272600161,0.538440,-0.367674,-0.712649,-0.258907,-0.209561,0.064083,0.061135
145,3272633495,0.539281,-0.364069,-0.715799,-0.253507,-0.222609,0.008656,0.115311
146,3272666829,0.540358,-0.359168,-0.719987,-0.246240,-0.241688,0.126001,0.237920
147,3272700163,0.541830,-0.353088,-0.724707,-0.237807,-0.220417,0.152874,0.238474
148,3272733497,0.543451,-0.346313,-0.729569,-0.229044,-0.114328,0.207151,0.144337
149,3272766831,0.544687,-0.339603,-0.734556,-0.220040,-0.046467,-0.013299,0.119256
150,3272800165,0.545395,-0.333213,-0.739630,-0.210865,-0.196671,-0.213774,0.127484
151,3272833499,0.545894,-0.326863,-0.744497,-0.202207,-0.144589,0.113842,0.208385
152,3272866833,0.546169,-0.320762,-0.749089,-0.194116,-0.305793,-0.015540,0.180991
153,3272900167,0.546365,-0.314505,-0.753556,-0.186357,-0.140002,0.049105,0.131334
154,3272933501,0.546676,-0.308114,-0.757690,-0.179223,0.020255,0.152740,0.363561
155,3272966835,0.547565,-0.302215,-0.760783,-0.173356,0.143955,0.433816,0.144798
156,3273000169,0.548229,-0.297320,-0.763267,-0.168741,0.229916,0.131324,0.270538
157,3273033503,0.548727,-0.293336,-0.765218,-0.165224,0.239429,-0.117449,0.229272
158,3273066837,0.548943,-0.290030,-0.766908,-0.162479,0.248892,-0.230779,0.165054
159,3273100171,0.549213,-0.287830,-0.767906,-0.160760,0.211568,-0.120382,0.165088
160,3273133505,0.549323,-0.286506,-0.768507,-0.159872,0.098731,-0.332270,0.204427
161,3273166839,0.549432,-0.285340,-0.769008,-0.159173,0.022291,-0.312571,0.146923
162,3273200173,0.549800,-0.284033,-0.769411,-0.158289,0.082715,-0.163334,0.160614
163,3273233507,0.550375,-0.283114,-0.769334,-0.158312,0.167561,-0.082271,0.276099
164,3273266841,0.551122,-0.283424,-0.768314,-0.160103,0.510046,0.046274,0.268676
165,3273300175,0.551582,-0.285758,-0.766255,-0.164183,0.627763,-0.066750,0.184705
166,3273333509,0.551420,-0.289910,-0.763603,-0.169714,0.473644,-0.489221,0.172104
167,3273366843,0.550700,-0.295034,-0.760805,-0.175684,-0.001211,-0.816879,0.121612
168,3273400177,0.549787,-0.299914,-0.758256,-0.181213,-0.105479,-0.669558,0.209965
169,3273433511,0.549074,-0.304087,-0.755854,-0.186379,-0.314965,-0.239784,0.088504
170,3273466845,0.548474,-0.307307,-0.753891,-0.190765,-0.066598,-0.088529,0.093652
171,3273500179,0.547938,-0.310271,-0.752123,-0.194451,-0.187417,0.247661,0.239837
172,3273533513,0.547291,-0.313978,-0.749977,-0.198568,-0.124068,0.476175,0.081840
173,3273566847,0.546356,-0.318064,-0.747630,-0.203428,0.128162,0.262909,0.239793
174,3273600181,0.545761,-0.321816,-0.745167,-0.208107,-0.185611,0.257907,0.133506
175,3273633515,0.545102,-0.325109,-0.743205,-0.211701,-0.050053,0.297710,0.213178
176,3273666849,0.544611,-0.328230,-0.741130,-0.215394,0.062948,0.199581,0.227471
177,3273700183,0.544209,-0.331354,-0.738795,-0.219606,-0.007057,0.101886,0.088217
178,3273733517,0.543626,-0.334665,-0.736394,-0.224046,0.147900,-0.080072,0.224703
179,3273766851,0.542770,-0.338580,-0.733720,-0.228958,0.363149,-0.232851,0.192963
180,3273800185,0.542007,-0.343236,-0.730362,-0.234503,0.358112,-0.318584,0.196301
181,3273833519,0.541303,-0.348684,-0.726226,-0.240854,0.113439,-0.285138,0.193078
182,3273866853,0.540568,-0.354351,-0.721749,-0.247597,0.103491,-0.165686,0.300565
183,3273900187,0.539679,-0.360076,-0.717208,-0.254380,-0.039046,0.011582,0.119579
184,3273933521,0.538503,-0.365763,-0.712977,-0.260574,-0.012740,0.124163,0.202670
185,3273966855,0.537049,-0.371630,-0.708799,-0.266604,-0.088410,0.182593,0.112229
186,3274000189,0.535296,-0.377558,-0.704769,-0.272420,-0.279951,0.216877,0.043672
187,3274033523,0.533144,-0.382824,-0.701789,-0.276948,-0.229093,0.231842,0.014118
188,3274066857,0.531838,-0.385897,-0.700249,-0.279082,-0.699338,0.281829,0.210265
189,3274100191,0.531518,-0.386478,-0.700159,-0.279114,-0.248350,0.567107,0.274965
190,3274133525,0.531461,-0.385841,-0.700804,-0.278483,0.274285,0.385406,0.219708
191,3274166859,0.531525,-0.385287,-0.701245,-0.278019,0.486173,0.059021,0.166804
192,3274200193,0.531695,-0.385557,-0.700835,-0.278352,0.282768,-0.293677,0.170647
193,3274233527,0.531861,-0.386234,-0.700088,-0.278976,0.018751,-0.427996,0.087075
194,3274266861,0.532139,-0.386064,-0.700281,-0.278194,-0.484709,-0.373539,0.106129
195,3274300195,0.532984,-0.383647,-0.702373,-0.274626,-0.594113,-0.139603,0.116560
196,3274333529,0.534182,-0.378845,-0.706490,-0.268332,-0.209377,0.130153,0.063580
197,3274366863,0.535465,-0.372803,-0.711542,-0.260782,0.045717,0.253091,0.129605
198,3274400197,0.537074,-0.366734,-0.716374,-0.252723,-0.066375,0.360494,0.244500
199,3274433531,0.538300,-0.361557,-0.720548,-0.245611,-0.113096,0.414033,0.215661
200,3274466865,0.539026,-0.357039,-0.724304,-0.239504,0.152684,0.228269,0.196926
201,3274500199,0.539902,-0.352531,-0.727742,-0.233717,-0.016324,-0.199912,0.201066
202,3274533533,0.541092,-0.347616,-0.731075,-0.227849,-0.071017,-0.249803,0.148203
203,3274566867,0.542277,-0.342733,-0.734353,-0.221808,-0.099242,-0.214546,0.136982
204,3274600201,0.543194,-0.337900,-0.737736,-0.215672,-0.142357,-0.154736,0.147178
205,3274633535,0.543835,-0.333218,-0.741032,-0.209965,0.106459,0.001618,0.305101
206,3274666869,0.544435,-0.329085,-0.743910,-0.204684,0.061876,0.022610,0.229164
207,3274700203,0.544751,-0.325350,-0.746687,-0.199642,0.018744,-0.077321,0.129741
208,3274733537,0.545374,-0.321786,-0.748931,-0.195260,-0.059988,0.052773,0.240318
209,3274766871,0.546076,-0.318497,-0.750760,-0.191635,-0.215787,0.008810,0.142165
210,3274800205,0.546816,-0.314904,-0.752650,-0.188014,-0.160114,-0.018171,0.120274
215,3274966875,0.547840,-0.307345,-0.756758,-0.180917,0.390022,-0.041534,0.220884
216,3275000209,0.547149,-0.310551,-0.755080,-0.184512,0.182824,-0.124493,0.121222
221,3275166879,0.540926,-0.326405,-0.749033,-0.199534,0.048769,0.302083,0.166024
222,3275200213,0.539947,-0.328915,-0.748007,-0.201895,0.179034,0.220371,0.208892
224,3275266881,0.538467,-0.334670,-0.744684,-0.208564,0.142203,-0.136267,0.274484
225,3275300215,0.538084,-0.337717,-0.742527,-0.212297,0.312737,-0.248143,0.300835
226,3275333549,0.537672,-0.341565,-0.739628,-0.217248,0.433424,-0.313813,0.217503
227,3275366883,0.537379,-0.346261,-0.735876,-0.223199,0.359607,-0.396101,0.194776
228,3275400217,0.536853,-0.351955,-0.731444,-0.230022,0.514283,-0.306693,0.192730
229,3275433551,0.535272,-0.359456,-0.726328,-0.238176,0.173222,-0.454860,0.039351
230,3275466885,0.533255,-0.366923,-0.721686,-0.245318,-0.627997,-0.367544,0.038984
231,3275500219,0.531623,-0.372506,-0.718340,-0.250216,-0.737710,0.178746,0.175084
232,3275533553,0.530654,-0.375605,-0.716484,-0.252946,-0.733340,0.514973,0.124121
233,3275566887,0.530510,-0.375980,-0.716235,-0.253396,-0.356200,0.628161,0.251482
234,3275600221,0.530814,-0.374582,-0.717152,-0.252234,0.116418,0.630759,0.180035
235,3275633555,0.531177,-0.372633,-0.718607,-0.250207,0.233331,0.215777,0.148155
236,3275666889,0.531698,-0.370800,-0.719871,-0.248181,0.030408,-0.158175,0.148910
237,3275700223,0.532129,-0.369082,-0.721073,-0.246323,-0.097993,-0.300861,0.115735
238,3275733557,0.532580,-0.366837,-0.722810,-0.243598,-0.114225,-0.352068,0.170809
239,3275766891,0.533315,-0.363808,-0.725125,-0.239616,-0.078583,-0.141930,0.189187
240,3275800225,0.534241,-0.360065,-0.727858,-0.234876,-0.017322,0.157278,0.149827
242,3275866893,0.536257,-0.351133,-0.734270,-0.223575,-0.010391,0.353659,0.185858
244,3275933561,0.538342,-0.341095,-0.740939,-0.211791,-0.046364,0.056901,0.205234
245,3275966895,0.539289,-0.335816,-0.744301,-0.205950,-0.096959,-0.155696,0.201768
246,3276000229,0.540236,-0.329913,-0.747965,-0.199636,-0.203994,-0.376074,0.146338
247,3276033563,0.541238,-0.323714,-0.751694,-0.192954,-0.096434,-0.240347,0.200089
248,3276066897,0.542086,-0.318603,-0.754723,-0.187169,-0.030424,0.096747,0.181818
249,3276100231,0.542229,-0.314868,-0.757185,-0.183088,0.179125,0.181294,0.166926
250,3276133565,0.542371,-0.311453,-0.759396,-0.179310,0.018460,0.268210,0.187336
251,3276166899,0.542620,-0.308029,-0.761489,-0.175558,-0.210911,0.189515,0.167138
252,3276200233,0.543134,-0.304175,-0.763533,-0.171768,-0.278008,0.101738,0.169745
253,3276233567,0.543932,-0.299763,-0.765562,-0.167925,-0.161677,0.018830,0.049747
254,3276266901,0.544888,-0.295054,-0.767555,-0.164021,-0.013932,-0.148227,0.256589
255,3276300235,0.546004,-0.291057,-0.768889,-0.161177,0.377165,0.046752,0.261180
256,3276333569,0.546933,-0.289332,-0.768958,-0.160806,0.591312,0.061052,0.211155
257,3276366903,0.547454,-0.290593,-0.767530,-0.163560,0.613831,-0.197689,0.169267
258,3276400237,0.547153,-0.294763,-0.764934,-0.169169,0.432365,-0.522772,0.299106
259,3276433571,0.546621,-0.300241,-0.761643,-0.175965,0.227931,-0.635531,0.044688
260,3276466905,0.545961,-0.305992,-0.758233,-0.182706,0.047628,-0.642178,0.091038
261,3276500239,0.545267,-0.311664,-0.754866,-0.189027,-0.088127,-0.417988,0.181255
262,3276533573,0.544153,-0.317270,-0.751719,-0.195345,-0.202337,-0.214050,0.110869
263,3276566907,0.543017,-0.321987,-0.749256,-0.200189,-0.209203,0.001585,0.182353
264,3276600241,0.542017,-0.325846,-0.747393,-0.203592,0.062028,0.282315,0.264472
265,3276633575,0.541258,-0.329317,-0.745493,-0.206963,-0.161568,0.384054,0.251817
266,3276666909,0.540953,-0.331718,-0.743759,-0.210142,-0.037034,0.407428,0.276146
267,3276700243,0.540893,-0.333670,-0.742022,-0.213324,0.246726,0.386714,0.182239
268,3276733577,0.540657,-0.336164,-0.739996,-0.217009,0.327910,0.127309,0.215546
269,3276766911,0.540446,-0.339218,-0.737478,-0.221313,0.176580,-0.231311,0.103330
270,3276800245,0.540081,-0.342560,-0.734876,-0.225667,0.136382,-0.628181,0.177244
271,3276833579,0.539710,-0.345405,-0.732796,-0.228958,-0.338729,-0.545211,0.045568
272,3276866913,0.540008,-0.345894,-0.732077,-0.229818,-0.623902,-0.226908,-0.006172
273,3276900247,0.540661,-0.344191,-0.732823,-0.228456,-0.402217,0.069295,0.156981
274,3276933581,0.541320,-0.341408,-0.734561,-0.225471,0.012434,0.201442,0.103455
275,3276966915,0.541832,-0.338671,-0.736506,-0.221996,0.058864,0.280027,0.203057
276,3277000249,0.542245,-0.336563,-0.738065,-0.218996,0.031407,0.418292,0.194164
278,3277066917,0.542703,-0.332116,-0.741729,-0.212164,-0.289586,0.452028,0.152714
279,3277100251,0.542655,-0.329614,-0.743864,-0.208687,-0.112745,0.355871,0.167980
283,3277233587,0.544678,-0.314435,-0.753746,-0.190598,0.205475,-0.006961,0.148794
285,3277300255,0.545297,-0.309971,-0.756431,-0.185433,0.511249,-0.105477,0.216908
287,3277366923,0.545234,-0.311292,-0.755771,-0.186093,-0.185589,-0.276451,0.155778
288,3277400257,0.545541,-0.311725,-0.755191,-0.186822,-0.168526,-0.273688,0.178267
289,3277433591,0.545841,-0.312329,-0.754480,-0.187811,-0.008040,-0.004687,0.148731
290,3277466925,0.545849,-0.313857,-0.753350,-0.189764,0.205216,0.100504,0.187063
291,3277500259,0.545800,-0.316195,-0.751624,-0.192840,0.101466,-0.002278,0.219106
292,3277533593,0.545799,-0.319166,-0.749335,-0.196817,-0.146408,0.010162,0.096974
293,3277566927,0.545527,-0.322611,-0.746828,-0.201431,-0.215461,-0.092864,0.157452
294,3277600261,0.545210,-0.326073,-0.744251,-0.206197,-0.226204,-0.139485,0.190095
295,3277633595,0.544804,-0.329673,-0.741460,-0.211530,0.033921,-0.055319,0.176063
296,3277666929,0.544450,-0.333720,-0.738112,-0.217715,0.112673,0.052412,0.201409
297,3277700263,0.544111,-0.338476,-0.734104,-0.224662,0.250895,-0.007254,0.221015
298,3277733597,0.543555,-0.343769,-0.729721,-0.232123,0.152193,-0.008881,0.136634
299,3277766931,0.542877,-0.349122,-0.725341,-0.239339,0.121743,-0.103244,0.266644
300,3277800265,0.542450,-0.353898,-0.721194,-0.245740,-0.063750,-0.070843,0.164338
301,3277833599,0.541968,-0.357925,-0.717715,-0.251097,-0.017547,-0.108590,0.102917
302,3277866933,0.541410,-0.361482,-0.714744,-0.255636,0.019402,-0.118365,0.076005
303,3277900267,0.540620,-0.365235,-0.711932,-0.259788,-0.003077,-0.049710,0.128893
304,3277933601,0.539680,-0.369059,-0.709222,-0.263721,-0.286602,0.052710,0.084328
305,3277966935,0.538767,-0.372023,-0.707233,-0.266748,-0.238654,0.191505,0.106961
306,3278000269,0.538154,-0.373882,-0.706125,-0.268316,-0.159961,0.277105,0.216778
307,3278033603,0.537812,-0.374833,-0.705625,-0.268989,-0.264050,0.328975,0.154696
308,3278066937,0.537697,-0.374754,-0.705839,-0.268768,-0.166604,0.300880,0.174176
309,3278100271,0.537856,-0.373857,-0.706580,-0.267751,0.083002,0.199278,0.257107
310,3278133605,0.538205,-0.372522,-0.707649,-0.266082,-0.026785,-0.091446,0.205142
311,3278166939,0.538688,-0.370942,-0.708862,-0.264075,-0.029127,-0.138361,0.125400
312,3278200273,0.539046,-0.369527,-0.710044,-0.262146,0.097907,-0.038149,0.142994
313,3278233607,0.539391,-0.368168,-0.711228,-0.260132,-0.171888,-0.044198,0.196888
314,3278266941,0.539967,-0.365925,-0.712998,-0.257238,-0.271983,0.040252,0.129004
315,3278300275,0.540824,-0.362593,-0.715453,-0.253312,-0.112774,0.154999,0.201405
316,3278333609,0.541872,-0.358722,-0.718098,-0.249063,-0.032441,0.221479,0.217366
317,3278366943,0.543003,-0.354471,-0.720915,-0.244507,-0.085972,0.127088,0.300258
318,3278400277,0.544027,-0.349893,-0.723976,-0.239734,0.019746,0.082917,0.083864
319,3278433611,0.545143,-0.344631,-0.727476,-0.234160,-0.099163,-0.007860,0.164311
320,3278466945,0.546544,-0.338609,-0.731152,-0.228153,0.058700,0.029959,0.188621
321,3278500279,0.547930,-0.332397,-0.734752,-0.222325,0.015256,-0.026433,0.147155
322,3278533613,0.549117,-0.326733,-0.738157,-0.216438,-0.109705,-0.174161,0.140556
323,3278566947,0.549726,-0.321537,-0.741722,-0.210400,-0.004695,-0.211064,0.108929
324,3278600281,0.550266,-0.316102,-0.745391,-0.204163,0.028926,-0.259062,0.218207
325,3278633615,0.551040,-0.310699,-0.748782,-0.197868,0.001078,-0.084116,0.149563
326,3278666949,0.551537,-0.306046,-0.751844,-0.192035,0.040448,-0.013671,0.197736
327,3278700283,0.551610,-0.302504,-0.754428,-0.187245,0.088985,0.069747,0.189917
328,3278733617,0.551633,-0.299571,-0.756492,-0.183523,0.007838,0.154527,0.171489
329,3278766951,0.551801,-0.296786,-0.758281,-0.180132,-0.102062,0.227840,0.165551
330,3278800285,0.552120,-0.293933,-0.759916,-0.176914,-0.017215,0.131706,0.190162
331,3278833619,0.552595,-0.291021,-0.761384,-0.173907,-0.042169,-0.046259,0.169652
332,3278866953,0.553029,-0.288373,-0.762706,-0.171124,0.071620,-0.078757,0.250315
333,3278900287,0.553327,-0.286835,-0.763339,-0.169918,0.430848,-0.008518,0.253542
334,3278933621,0.553518,-0.287087,-0.762896,-0.170857,0.441433,-0.112246,0.204654
335,3278966955,0.553478,-0.289164,-0.761535,-0.173536,0.208482,-0.360015,0.146276
336,3279000289,0.552987,-0.292426,-0.759742,-0.177450,0.139073,-0.455477,0.151466
337,3279033623,0.552360,-0.296399,-0.757615,-0.181853,-0.048658,-0.426202,0.186049
338,3279066957,0.551924,-0.300446,-0.755088,-0.186970,0.040420,-0.224222,0.128861
339,3279100291,0.551343,-0.304917,-0.752386,-0.192264,0.096395,-0.025106,0.194722
340,3279133625,0.550572,-0.310080,-0.749466,-0.197549,-0.015582,0.166599,0.128771
341,3279166959,0.549226,-0.315532,-0.746758,-0.202845,-0.158546,0.014291,0.168015
342,3279200293,0.548075,-0.319931,-0.744524,-0.207231,-0.085072,0.026641,0.201433
343,3279233627,0.547323,-0.323359,-0.742651,-0.210594,-0.107503,0.054985,0.183697
344,3279266961,0.546527,-0.326375,-0.741117,-0.213393,-0.008285,0.143394,0.253790
345,3279300295,0.545588,-0.329435,-0.739669,-0.216102,-0.020369,0.257766,0.111555
346,3279333629,0.544373,-0.332570,-0.738405,-0.218673,-0.014382,0.188363,0.243427
347,3279366963,0.543521,-0.335228,-0.737061,-0.221252,-0.169090,0.246227,0.145504
348,3279400297,0.542863,-0.337154,-0.735997,-0.223471,-0.076159,0.126860,0.132202
349,3279433631,0.542368,-0.338703,-0.734996,-0.225612,0.257048,0.031209,0.314646
350,3279466965,0.542131,-0.340792,-0.733272,-0.228628,0.211988,-0.110704,0.160584
351,3279500299,0.542020,-0.343297,-0.731082,-0.232131,0.151613,-0.369427,0.220999
352,3279533633,0.541881,-0.346477,-0.728318,-0.236380,0.137806,-0.368026,0.203574
353,3279566967,0.541501,-0.350250,-0.725303,-0.240916,-0.133115,-0.304406,-0.022716
354,3279600301,0.540622,-0.354104,-0.722735,-0.244942,-0.235499,-0.349490,0.063990
355,3279633635,0.539727,-0.357264,-0.720795,-0.248022,-0.385223,-0.017553,0.158053
356,3279666969,0.538831,-0.359585,-0.719594,-0.250098,-0.176642,0.396446,0.203240
357,3279700303,0.538209,-0.360858,-0.718943,-0.251472,0.016937,0.489328,0.270256
358,3279733637,0.538018,-0.361262,-0.718564,-0.252380,0.130133,0.464504,0.194388
359,3279766971,0.537845,-0.361318,-0.718511,-0.252822,0.145868,0.169291,0.269093
360,3279800305,0.537922,-0.361193,-0.718360,-0.253266,0.095759,-0.066835,0.098447
361,3279833639,0.538210,-0.361023,-0.718093,-0.253650,0.077356,-0.284175,0.044512
362,3279866973,0.538597,-0.360736,-0.718054,-0.253350,-0.078217,-0.440642,0.203177
363,3279900307,0.539151,-0.359794,-0.718561,-0.252067,-0.310887,-0.082392,0.097977
364,3279933641,0.539681,-0.357681,-0.720282,-0.249013,-0.196691,0.149190,0.160901
365,3279966975,0.540441,-0.354515,-0.722659,-0.244971,-0.134497,0.275486,0.195197
366,3280000309,0.541631,-0.350336,-0.725372,-0.240294,-0.228855,0.333079,0.135677
367,3280033643,0.542830,-0.345509,-0.728480,-0.235119,-0.147048,0.204997,0.174122
368,3280066977,0.543789,-0.340423,-0.731809,-0.229924,0.025084,-0.017517,0.138317
369,3280100311,0.544718,-0.335252,-0.735191,-0.224469,-0.133537,-0.156283,0.163559
370,3280133645,0.545724,-0.329912,-0.738601,-0.218667,0.000488,-0.208909,0.238145
371,3280166979,0.546595,-0.324639,-0.742041,-0.212654,-0.052657,-0.230118,0.115722
372,3280200313,0.547147,-0.319743,-0.745498,-0.206473,0.070117,-0.125655,0.247535
373,3280233647,0.547421,-0.315649,-0.748568,-0.200864,0.071880,0.067862,0.154894
374,3280266981,0.547592,-0.311838,-0.751390,-0.195746,0.103600,0.218594,0.204388
1,3291100531,0.545974,-0.328882,-0.740394,-0.213471,-0.209637,0.175031,0.128996
2,3291133865,0.545889,-0.330184,-0.739085,-0.216195,0.323689,0.330206,0.151672
3,3291167199,0.545984,-0.332381,-0.736850,-0.220184,0.204007,0.253340,0.177240
4,3291200533,0.545558,-0.336042,-0.733807,-0.225773,0.201601,0.013445,0.144621
5,3291233867,0.544389,-0.340851,-0.730590,-0.231742,0.095916,-0.343532,0.143632
6,3291267201,0.542839,-0.346247,-0.727294,-0.237669,-0.234792,-0.412492,0.062578
7,3291300535,0.541232,-0.351139,-0.724463,-0.242748,-0.174615,-0.326797,0.118493
8,3291333869,0.539871,-0.355156,-0.722223,-0.246580,-0.101652,-0.258147,0.123315
9,3291367203,0.538552,-0.358599,-0.720505,-0.249489,-0.072322,-0.244702,0.233378
10,3291400537,0.537393,-0.361710,-0.718875,-0.252183,0.074782,-0.033817,0.131492
11,3291433871,0.536459,-0.364562,-0.717188,-0.254855,0.183795,0.068485,0.290689
12,3291467205,0.535733,-0.367568,-0.715040,-0.258080,0.107252,0.148106,0.213108
13,3291500539,0.535047,-0.370812,-0.712552,-0.261720,0.074583,0.116799,0.264832
14,3291533873,0.534617,-0.373828,-0.709935,-0.265392,-0.065434,0.119726,0.170862
15,3291567207,0.534359,-0.376329,-0.707631,-0.268513,-0.188687,0.095795,0.086803
16,3291600541,0.534188,-0.378013,-0.706129,-0.270435,-0.246666,0.137990,0.188066
17,3291633875,0.534023,-0.378905,-0.705449,-0.271287,-0.135303,0.319967,0.072297
18,3291667209,0.533732,-0.379440,-0.705267,-0.271583,0.049557,0.452697,0.164699
19,3291700543,0.533519,-0.379604,-0.705387,-0.271463,-0.031752,0.339614,0.191077
20,3291733877,0.533344,-0.379691,-0.705525,-0.271327,0.114907,0.289344,0.251061
21,3291767211,0.533308,-0.379635,-0.705618,-0.271232,-0.015135,0.128489,0.186981
22,3291800545,0.533472,-0.379124,-0.705925,-0.270824,0.102392,0.005328,0.234322
23,3291833879,0.534011,-0.377862,-0.706713,-0.269469,-0.141197,-0.030089,0.081077
24,3291867213,0.534605,-0.375668,-0.708475,-0.266717,-0.162624,-0.004833,0.086813
25,3291900547,0.535230,-0.372499,-0.711189,-0.262655,-0.264547,-0.019043,0.148881
26,3291933881,0.536152,-0.368359,-0.714494,-0.257595,-0.281678,0.094159,0.141418
27,3291967215,0.537413,-0.363047,-0.718449,-0.251436,-0.403802,0.059346,0.116901
28,3292000549,0.539170,-0.356006,-0.722974,-0.244681,-0.387572,-0.276670,0.353391
29,3292033883,0.541333,-0.346912,-0.727473,-0.239579,-0.484345,-0.114455,0.336498
30,3292067217,0.544500,-0.335929,-0.731746,-0.234995,-0.353830,0.116526,0.162771
31,3292100551,0.548435,-0.323717,-0.736363,-0.228476,0.004880,0.561850,0.242156
32,3292133885,0.550209,-0.312365,-0.742768,-0.219085,0.225621,-0.207889,-0.460645
33,3292167219,0.550593,-0.303648,-0.749037,-0.208788,-0.147264,-1.481502,0.267361
34,3292200553,0.551941,-0.294264,-0.754868,-0.197352,-0.306970,-0.992668,0.111317
35,3292233887,0.553108,-0.285338,-0.760294,-0.186039,0.217474,-0.147601,0.207018
36,3292267221,0.553865,-0.277204,-0.765013,-0.176496,0.444154,0.089624,0.267082
37,3292300555,0.554726,-0.270598,-0.768490,-0.168766,0.342413,0.703134,0.271163
1,3311900947,0.551801,-0.282184,-0.767632,-0.163199,-0.159102,0.095973,0.168965
2,3311934281,0.552238,-0.278146,-0.769682,-0.158937,-0.000092,0.033916,0.208507
3,3311967615,0.552678,-0.275300,-0.770941,-0.156237,0.262286,0.084067,0.224522
4,3312000949,0.552873,-0.274666,-0.771047,-0.156143,0.390208,-0.061774,0.249511
5,3312034283,0.552689,-0.276024,-0.770263,-0.158255,0.219717,-0.367897,0.153421
6,3312067617,0.552161,-0.278263,-0.769225,-0.161202,0.142200,-0.578254,0.112470
7,3312100951,0.551507,-0.280502,-0.768284,-0.164019,0.192116,-0.564005,0.157909
8,3312134285,0.550977,-0.283207,-0.766992,-0.167167,0.197561,-0.328434,0.185968
9,3312167619,0.550393,-0.286716,-0.765273,-0.170947,0.214910,-0.172128,0.192216
10,3312200953,0.549453,-0.291200,-0.763233,-0.175451,0.236410,0.008302,0.158990
11,3312234287,0.548264,-0.296421,-0.760944,-0.180305,0.044063,0.062104,0.191365
12,3312267621,0.547234,-0.301532,-0.758452,-0.185386,-0.042105,0.100001,0.190241
13,3312300955,0.546501,-0.306057,-0.755976,-0.190183,-0.038758,0.034980,0.191132
14,3312334289,0.545906,-0.310304,-0.753535,-0.194646,0.027480,0.031335,0.150439
15,3312367623,0.545332,-0.314543,-0.750992,-0.199225,0.102932,-0.012820,0.209537
16,3312400957,0.544903,-0.318867,-0.748142,-0.204186,0.055079,-0.044444,0.210826
17,3312434291,0.544562,-0.323415,-0.744892,-0.209748,0.077425,-0.082521,0.285477
18,3312467625,0.544418,-0.328041,-0.741260,-0.215723,0.063562,-0.097463,0.152109
19,3312500959,0.544245,-0.332916,-0.737306,-0.222145,0.043842,-0.170134,0.206035
20,3312534293,0.544179,-0.337941,-0.732914,-0.229143,0.057212,-0.169377,0.273785
21,3312567627,0.544026,-0.343042,-0.728327,-0.236436,0.038684,-0.158175,0.157161
22,3312600961,0.543720,-0.348116,-0.723862,-0.243335,0.012399,-0.294535,0.121457
23,3312634295,0.543385,-0.353007,-0.719600,-0.249596,-0.246542,-0.289542,0.059079
24,3312667629,0.542740,-0.357296,-0.716180,-0.254683,-0.371964,-0.056879,0.097968
25,3312700963,0.541890,-0.360677,-0.713770,-0.258465,-0.338329,0.293997,0.078761
26,3312734297,0.541150,-0.363043,-0.712186,-0.261059,-0.344314,0.479526,0.187987
27,3312767631,0.540774,-0.364052,-0.711428,-0.262497,-0.074074,0.613497,0.262444
28,3312800965,0.540720,-0.364070,-0.711231,-0.263114,0.104900,0.526517,0.248000
29,3312834299,0.540739,-0.363795,-0.711268,-0.263356,0.164296,0.217267,0.086977
30,3312867633,0.540666,-0.363797,-0.711183,-0.263733,0.075626,-0.129218,0.111370
31,3312900967,0.540610,-0.363844,-0.711204,-0.263726,-0.052538,-0.261143,0.137277
32,3312934301,0.540463,-0.363713,-0.711650,-0.263001,-0.058580,-0.187729,0.132797
33,3312967635,0.540391,-0.363321,-0.712374,-0.261730,-0.029061,-0.007127,0.105570
34,3313000969,0.540425,-0.362491,-0.713443,-0.259894,-0.120066,0.059549,0.205502
35,3313034303,0.540601,-0.360872,-0.715088,-0.257244,-0.080298,0.154988,0.183272
36,3313067637,0.540951,-0.358479,-0.717259,-0.253789,-0.096889,0.133797,0.119953
37,3313100971,0.541465,-0.355329,-0.719887,-0.249647,-0.193262,0.020645,0.178163
38,3313134305,0.542245,-0.351277,-0.722979,-0.244705,-0.275675,-0.078670,0.205425
39,3313167639,0.543176,-0.346429,-0.726507,-0.239035,-0.099863,-0.009082,0.131127
40,3313200973,0.544221,-0.340993,-0.730309,-0.232810,-0.033537,-0.075142,0.187725
41,3313234307,0.545301,-0.335441,-0.734030,-0.226564,-0.114198,-0.040875,0.173347
42,3313267641,0.546165,-0.329839,-0.737814,-0.220328,0.003578,0.019856,0.139901
43,3313300975,0.547107,-0.323775,-0.741759,-0.213639,-0.246157,-0.162465,0.165848
44,3313334309,0.548240,-0.316671,-0.746135,-0.206007,-0.250374,-0.166695,0.280638
45,3313367643,0.549529,-0.309309,-0.750327,-0.198389,-0.159515,-0.006061,0.156610
46,3313400977,0.550610,-0.302570,-0.754036,-0.191609,-0.030467,-0.035638,0.198561
47,3313434311,0.551435,-0.296791,-0.757062,-0.186268,0.311326,0.043640,0.169919
48,3313467645,0.552101,-0.292289,-0.759327,-0.182151,0.373612,0.036653,0.246211
49,3313500979,0.552699,-0.288876,-0.760934,-0.179048,0.238470,-0.089269,0.148706
50,3313534313,0.553014,-0.286505,-0.762098,-0.176920,0.187533,-0.171558,0.218783
51,3313567647,0.553021,-0.285177,-0.762887,-0.175640,0.115561,-0.125029,0.135310
52,3313600981,0.552774,-0.284685,-0.763425,-0.174879,0.053545,-0.089801,0.085930
53,3313634315,0.552380,-0.284281,-0.764056,-0.174020,-0.105445,-0.015320,0.045607
54,3313667649,0.551908,-0.283070,-0.765231,-0.172322,-0.106268,0.009108,0.286584
55,3313700983,0.551790,-0.281355,-0.766355,-0.170500,-0.071411,0.168791,0.257414
56,3313734317,0.551851,-0.280191,-0.766849,-0.169999,0.399719,0.154392,0.269935
57,3313767651,0.552052,-0.280755,-0.766151,-0.171557,0.508415,-0.004316,0.160799
58,3313800985,0.551886,-0.283634,-0.764367,-0.175273,0.550706,-0.274450,0.185313
59,3313834319,0.551235,-0.288501,-0.761717,-0.180826,0.501340,-0.421514,0.201791
60,3313867653,0.550408,-0.294775,-0.758282,-0.187541,0.234929,-0.474367,0.115224
61,3313900987,0.549440,-0.301693,-0.754555,-0.194288,0.007312,-0.448647,0.202561
62,3313934321,0.548351,-0.308560,-0.750860,-0.200787,-0.219759,-0.163448,0.153298
63,3313967655,0.547189,-0.314772,-0.747490,-0.206798,-0.344241,0.145785,0.128887
64,3314000989,0.546289,-0.319879,-0.744527,-0.211965,-0.184858,0.369822,0.189292
65,3314034323,0.545730,-0.324116,-0.741702,-0.216816,-0.020690,0.395414,0.295802
66,3314067657,0.545425,-0.327817,-0.738854,-0.221689,0.097473,0.222625,0.288874
67,3314100991,0.545362,-0.331486,-0.735705,-0.226806,0.197885,0.105219,0.275236
68,3314134325,0.545497,-0.335328,-0.732096,-0.232438,0.168960,-0.017135,0.203832
69,3314167659,0.545491,-0.339317,-0.728396,-0.238218,-0.006103,-0.247161,0.172013
70,3314200993,0.545489,-0.342921,-0.725053,-0.243203,-0.121688,-0.280271,0.095905
71,3314234327,0.545480,-0.345875,-0.722334,-0.247104,-0.280745,-0.339618,0.057422
72,3314267661,0.545586,-0.347830,-0.720371,-0.249840,-0.247529,-0.305601,0.132699
73,3314300995,0.545787,-0.348980,-0.719053,-0.251589,-0.058957,-0.030781,0.148533
74,3314334329,0.545837,-0.350098,-0.718081,-0.252700,-0.005837,0.148800,0.181960
75,3314367663,0.545571,-0.351560,-0.717188,-0.253778,-0.062587,0.223901,0.117595
76,3314400997,0.545239,-0.352784,-0.716579,-0.254511,-0.165107,0.323006,0.166665
77,3314434331,0.545059,-0.353384,-0.716259,-0.254966,-0.193124,0.420319,0.162879
78,3314467665,0.545021,-0.353281,-0.716352,-0.254926,-0.072545,0.243219,0.232679
79,3314500999,0.545148,-0.352773,-0.716621,-0.254603,0.088125,0.050360,0.181731
80,3314534333,0.545214,-0.352443,-0.716790,-0.254444,0.104433,-0.057614,0.156407
81,3314567667,0.545179,-0.352658,-0.716572,-0.254835,0.157841,-0.124436,0.136033
82,3314601001,0.544967,-0.353649,-0.715845,-0.255956,0.020320,-0.103612,0.115915
83,3314634335,0.544505,-0.354772,-0.715410,-0.256600,-0.124516,-0.111216,0.079961
84,3314667669,0.543797,-0.355714,-0.715524,-0.256478,-0.130812,-0.163037,0.189589
85,3314701003,0.543397,-0.356136,-0.715766,-0.256068,-0.062174,0.076588,0.237576
86,3314734337,0.543345,-0.355967,-0.716146,-0.255348,0.034428,0.198313,0.197287
87,3314767671,0.543499,-0.355206,-0.716904,-0.253949,-0.005852,0.178221,0.204021
88,3314801005,0.543760,-0.353890,-0.718209,-0.251530,-0.204539,0.106657,0.176404
89,3314834339,0.544034,-0.351962,-0.719953,-0.248640,-0.332600,0.150864,0.136302
90,3314867673,0.544443,-0.349104,-0.722277,-0.245006,-0.239415,0.142125,0.141737
91,3314901007,0.544963,-0.345298,-0.725255,-0.240405,-0.091905,0.064154,0.194636
92,3314934341,0.545618,-0.341136,-0.728345,-0.235468,-0.051049,0.066792,0.199662
93,3314967675,0.546445,-0.337053,-0.731037,-0.231046,-0.017742,0.060387,0.183830
94,3315001009,0.547197,-0.333148,-0.733500,-0.227088,0.029973,-0.041702,0.170583
95,3315034343,0.547739,-0.329222,-0.736192,-0.222755,-0.054227,-0.151697,0.143368
96,3315067677,0.548124,-0.325153,-0.739179,-0.217841,-0.147640,-0.156441,0.055383
97,3315101011,0.548236,-0.320931,-0.742446,-0.212647,-0.246308,-0.254757,0.184908
98,3315134345,0.548340,-0.316138,-0.746003,-0.207035,-0.267859,-0.128445,0.110216
99,3315167679,0.548530,-0.310448,-0.749987,-0.200649,-0.179548,-0.081013,0.242607
100,3315201013,0.548959,-0.304381,-0.753788,-0.194432,-0.084026,0.077582,0.240758
101,3315234347,0.549145,-0.298632,-0.757423,-0.188607,0.000868,0.168698,0.163339
102,3315267681,0.549211,-0.293180,-0.760841,-0.183133,0.137116,0.000800,0.213740
103,3315301015,0.549622,-0.287944,-0.763490,-0.179140,0.068893,-0.079046,0.320526
104,3315334349,0.550127,-0.283305,-0.765547,-0.176180,0.129667,0.075266,0.140003
105,3315367683,0.550651,-0.279159,-0.767376,-0.173184,0.155788,-0.074193,0.185540
106,3315401017,0.551039,-0.275571,-0.768960,-0.170648,0.073697,-0.208333,0.153222
107,3315434351,0.551579,-0.272165,-0.770317,-0.168231,0.132419,-0.131518,0.133423
108,3315467685,0.552131,-0.269298,-0.771285,-0.166596,0.241589,-0.179522,0.165217
109,3315501019,0.552542,-0.267360,-0.771892,-0.165536,0.375391,-0.167868,0.141212
110,3315534353,0.552529,-0.267066,-0.772121,-0.164987,0.568804,-0.112069,0.267875
111,3315567687,0.552251,-0.269022,-0.771302,-0.166568,0.482354,-0.173679,0.264797
112,3315601021,0.551891,-0.272381,-0.769641,-0.169943,0.458663,-0.231715,0.148196
113,3315634355,0.551068,-0.276963,-0.767634,-0.174235,0.194210,-0.279777,0.140982
114,3315667689,0.550020,-0.282151,-0.765456,-0.178747,-0.069978,-0.300159,0.174012
115,3315701023,0.548947,-0.287079,-0.763400,-0.182941,-0.274450,-0.197475,0.060985
116,3315734357,0.547931,-0.290935,-0.761906,-0.186094,-0.343910,0.014409,0.149906
117,3315767691,0.546915,-0.294196,-0.760677,-0.188963,-0.061850,0.262957,0.193725
118,3315801025,0.546202,-0.297266,-0.759216,-0.192073,0.024069,0.389770,0.219478
119,3315834359,0.545901,-0.300360,-0.757247,-0.195850,0.135005,0.504030,0.201280
120,3315867693,0.545553,-0.303764,-0.755112,-0.199777,0.097233,0.191325,0.235772
121,3315901027,0.545319,-0.307398,-0.752658,-0.204068,0.277087,-0.071896,0.255695
122,3315934361,0.545194,-0.311885,-0.749363,-0.209643,0.327032,-0.160061,0.238524
123,3315967695,0.545165,-0.317201,-0.745297,-0.216135,0.400820,-0.263627,0.116883
124,3316001029,0.544819,-0.323036,-0.741078,-0.222771,0.159770,-0.608800,0.235958
125,3316034363,0.544529,-0.328855,-0.736805,-0.229053,-0.140149,-0.566264,0.257234
126,3316067697,0.544043,-0.334614,-0.732490,-0.235612,0.026949,-0.191968,-0.000201
127,3316101031,0.543174,-0.340557,-0.728197,-0.242313,-0.231263,-0.202309,0.108039
128,3316134365,0.542395,-0.345936,-0.724176,-0.248415,-0.488411,0.061486,0.096255
129,3316167699,0.541705,-0.349942,-0.721122,-0.253148,-0.298299,0.415415,0.161770
130,3316201033,0.541332,-0.352414,-0.718951,-0.256665,-0.202592,0.478677,0.158259
131,3316234367,0.541409,-0.353490,-0.717554,-0.258923,-0.168147,0.466345,0.219272
132,3316267701,0.541327,-0.354265,-0.716711,-0.260367,-0.163910,0.298091,0.126501
133,3316301035,0.541374,-0.354264,-0.716453,-0.260979,-0.158331,0.120449,0.157194
134,3316334369,0.541794,-0.353212,-0.716791,-0.260604,-0.139686,-0.015126,0.184717
135,3316367703,0.542348,-0.351104,-0.717413,-0.260591,-0.233994,-0.206090,0.350256
136,3316401037,0.542868,-0.348087,-0.717812,-0.262449,-0.157614,-0.121091,0.318623
137,3316434371,0.543368,-0.344373,-0.718241,-0.265127,0.166557,0.076292,0.225959
138,3316467705,0.544136,-0.340413,-0.719460,-0.265362,0.407028,0.249110,-0.028917
139,3316501039,0.544683,-0.337543,-0.720964,-0.263817,0.241001,0.058198,0.087165
140,3316534373,0.544742,-0.335318,-0.722794,-0.261515,-0.295643,-0.495493,0.189164
141,3316567707,0.545046,-0.332514,-0.725258,-0.257611,-0.209659,-0.272253,0.023475
142,3316601041,0.545858,-0.328594,-0.728286,-0.252325,-0.073203,0.161571,0.186042
143,3316634375,0.547324,-0.323732,-0.731303,-0.246647,0.055973,0.387713,0.125771
144,3316667709,0.548925,-0.318357,-0.734643,-0.240072,-0.525205,0.398006,0.243124
145,3316701043,0.549929,-0.311712,-0.739335,-0.231954,-0.239090,0.103159,0.250400
146,3316734377,0.551453,-0.303976,-0.743909,-0.223834,-0.027434,0.118208,0.099885
147,3316767711,0.553063,-0.295569,-0.748709,-0.214938,-0.356775,-0.328096,0.257866
148,3316801045,0.554614,-0.287309,-0.753199,-0.206281,0.074132,-0.130430,0.210338
149,3316834379,0.555745,-0.280469,-0.756954,-0.198768,0.209952,0.076501,0.099365
150,3316867713,0.556652,-0.274710,-0.759999,-0.192556,0.306109,-0.043082,0.200053
151,3316901047,0.557577,-0.270038,-0.762187,-0.187784,0.189659,0.099666,0.225102
152,3316934381,0.557993,-0.267453,-0.763587,-0.184530,0.241412,0.230290,0.153528
153,3316967715,0.557815,-0.266810,-0.764308,-0.183010,0.142803,0.211669,0.191348
154,3317001049,0.557414,-0.267096,-0.764594,-0.182619,0.022674,0.042743,0.234882
155,3317034383,0.557249,-0.267500,-0.764566,-0.182649,-0.032783,0.066269,0.112011
156,3317067717,0.556543,-0.268186,-0.764728,-0.183116,0.122034,-0.259768,0.196683
157,3317101051,0.555773,-0.270111,-0.764253,-0.184600,0.210822,-0.183595,0.180542
158,3317134385,0.554946,-0.272943,-0.763202,-0.187255,0.373027,-0.237179,0.233945
159,3317167719,0.554520,-0.276878,-0.761103,-0.191237,0.331727,-0.139501,0.224162
160,3317201053,0.553638,-0.282097,-0.758551,-0.196243,0.380403,-0.150198,0.282154
161,3317234387,0.552631,-0.288333,-0.755322,-0.202375,0.281271,-0.257356,0.177891
162,3317267721,0.551700,-0.295194,-0.751538,-0.209004,-0.083419,-0.222393,0.210440
163,3317301055,0.550797,-0.302164,-0.747436,-0.216019,-0.038323,-0.061600,0.168930
164,3317334389,0.549751,-0.309107,-0.743205,-0.223332,0.015290,0.076577,0.134867
165,3317367723,0.548654,-0.315973,-0.739133,-0.229838,-0.048998,0.028781,0.170465
166,3317401057,0.547382,-0.322579,-0.735222,-0.236153,-0.069285,-0.043274,0.237056
167,3317434391,0.546115,-0.328954,-0.731398,-0.242093,-0.082223,-0.011391,0.153944
168,3317467725,0.544864,-0.334607,-0.728262,-0.246577,-0.171526,-0.122858,0.125986
169,3317501059,0.543916,-0.338796,-0.725945,-0.249763,-0.293948,-0.033123,0.162403
170,3317534393,0.543223,-0.341998,-0.724140,-0.252134,-0.007890,0.170606,0.190218
171,3317567727,0.542655,-0.344635,-0.722691,-0.253917,-0.069475,0.348675,0.140716
172,3317601061,0.542154,-0.346532,-0.721645,-0.255378,-0.004043,0.279881,0.156393
173,3317634395,0.541766,-0.348107,-0.720753,-0.256572,-0.094834,0.327740,0.149331
174,3317667729,0.541510,-0.349360,-0.720028,-0.257445,-0.041708,0.147918,0.247818
175,3317701063,0.541199,-0.350474,-0.719415,-0.258297,-0.110935,-0.060229,0.065504
176,3317734397,0.541015,-0.350990,-0.719306,-0.258287,-0.186818,-0.184670,0.115017
177,3317767731,0.540940,-0.351174,-0.719383,-0.257978,-0.102649,-0.085778,0.106715
178,3317801065,0.541015,-0.350837,-0.719774,-0.257187,-0.184818,-0.069569,0.213737
179,3317834399,0.541136,-0.349690,-0.720785,-0.255660,-0.117705,-0.049411,0.220809
180,3317867733,0.541489,-0.348010,-0.722076,-0.253553,0.020228,0.075028,0.106900
181,3317901067,0.541804,-0.346564,-0.723147,-0.251801,0.120480,-0.038561,0.187422
182,3317934401,0.542108,-0.345513,-0.723850,-0.250571,-0.024326,-0.083132,0.205677
183,3317967735,0.542307,-0.344505,-0.724491,-0.249673,0.101273,-0.025984,0.230459
184,3318001069,0.542483,-0.343805,-0.724867,-0.249163,0.159412,0.021303,0.147701
185,3318034403,0.542870,-0.343284,-0.724957,-0.248775,0.146716,0.073719,0.202733
186,3318067737,0.543078,-0.342979,-0.725177,-0.248102,0.159162,-0.012949,0.158292
187,3318101071,0.543325,-0.342694,-0.725561,-0.246826,-0.018171,-0.067761,0.158315
188,3318134405,0.543660,-0.342029,-0.726187,-0.245167,-0.098458,-0.127449,0.227519
189,3318167739,0.544042,-0.340916,-0.727060,-0.243276,-0.151512,-0.060988,0.118011
190,3318201073,0.544448,-0.339164,-0.728519,-0.240434,-0.078100,0.091822,0.119682
191,3318234407,0.544842,-0.336913,-0.730399,-0.236977,-0.215918,0.085880,0.209598
192,3318267741,0.545293,-0.334290,-0.732279,-0.233833,-0.044952,0.162772,0.170354
193,3318301075,0.545875,-0.331568,-0.734018,-0.230881,-0.186792,0.149119,0.190411
194,3318334409,0.546596,-0.328057,-0.736171,-0.227307,-0.214248,0.011633,0.126886
195,3318367743,0.547534,-0.323579,-0.738629,-0.223462,-0.106183,-0.075230,0.253772
196,3318401077,0.548730,-0.318613,-0.740926,-0.220032,-0.207080,-0.096987,0.114027
197,3318434411,0.550255,-0.312683,-0.743054,-0.217541,-0.227047,-0.260805,0.446800
198,3318467745,0.551914,-0.305911,-0.744960,-0.216444,-0.070612,0.318521,0.388947
199,3318501079,0.553217,-0.298111,-0.748233,-0.212681,0.530583,0.197930,-0.503316
200,3318534413,0.554222,-0.293207,-0.750444,-0.209061,0.110946,-0.428533,0.302887
201,3318567747,0.553365,-0.290336,-0.753362,-0.204797,-0.220623,-1.093013,-0.060079
202,3318601081,0.552602,-0.287981,-0.755887,-0.200839,0.202378,-0.554191,0.212702
203,3318634415,0.553070,-0.285665,-0.757136,-0.198135,0.258688,0.192641,0.208184
204,3318667749,0.553305,-0.284380,-0.757895,-0.196422,0.051282,0.485398,0.233287
205,3318701083,0.553380,-0.283609,-0.758427,-0.195266,0.103337,0.811849,0.203070
206,3318734417,0.552895,-0.283949,-0.758527,-0.195755,0.055581,0.557135,0.344643
207,3318767751,0.552094,-0.285052,-0.758230,-0.197557,0.214215,-0.158889,0.239616
208,3318801085,0.551676,-0.287085,-0.756980,-0.200550,0.210590,-0.202012,0.169636
209,3318834419,0.551072,-0.289962,-0.755396,-0.204017,0.179483,-0.316655,0.216980
210,3318867753,0.550685,-0.292913,-0.753512,-0.207778,0.210604,-0.160948,0.228254
211,3318901087,0.550404,-0.296294,-0.751120,-0.212342,0.232639,0.100617,0.185160
212,3318934421,0.549987,-0.300862,-0.747987,-0.217982,0.103291,-0.001463,0.224059
213,3318967755,0.549110,-0.306102,-0.744800,-0.223732,0.122375,-0.140204,0.116648
214,3319001089,0.548423,-0.311312,-0.741478,-0.229196,-0.052316,-0.151189,0.138530
215,3319034423,0.547805,-0.316015,-0.738600,-0.233489,-0.287132,-0.150925,0.156996
216,3319067757,0.547005,-0.319753,-0.736536,-0.236776,-0.236215,-0.301048,0.095168
217,3319101091,0.546494,-0.322385,-0.735143,-0.238707,0.036885,-0.070866,0.157368
218,3319134425,0.546010,-0.324690,-0.734065,-0.240002,-0.040474,0.124862,0.208330
219,3319167759,0.545581,-0.326670,-0.733092,-0.241266,0.041828,0.294320,0.201580
220,3319201093,0.545310,-0.328170,-0.732121,-0.242785,0.107658,0.469836,0.249289
221,3319234427,0.544888,-0.329577,-0.731218,-0.244542,0.066667,0.177722,0.186772
222,3319267761,0.544750,-0.330848,-0.730136,-0.246360,-0.006097,-0.035474,0.183909
223,3319301095,0.544609,-0.332171,-0.728970,-0.248334,-0.042959,-0.133889,0.134660
224,3319334429,0.544532,-0.333337,-0.727769,-0.250455,-0.155770,-0.300889,0.120333
225,3319367763,0.544706,-0.334328,-0.726797,-0.251575,-0.216531,-0.169918,0.094934
226,3319401097,0.544632,-0.335231,-0.726367,-0.251779,-0.152345,-0.119461,0.094143
227,3319434431,0.544751,-0.335658,-0.726145,-0.251592,-0.101583,0.095261,0.171219
228,3319467765,0.544888,-0.335732,-0.726176,-0.251107,-0.055786,0.183551,0.205562
229,3319501099,0.544904,-0.336004,-0.726126,-0.250852,0.094742,0.148235,0.153839
230,3319534433,0.544707,-0.336680,-0.725902,-0.251020,-0.004823,0.136456,0.227551
231,3319567767,0.544441,-0.337178,-0.725721,-0.251451,0.003747,-0.046971,0.197343
232,3319601101,0.544389,-0.337483,-0.725590,-0.251533,0.095149,0.008002,0.145520
233,3319634435,0.544285,-0.337936,-0.725618,-0.251069,-0.081271,-0.079304,0.118120
234,3319667769,0.544040,-0.338240,-0.725980,-0.250142,0.007431,-0.015623,0.210504
235,3319701103,0.544112,-0.338119,-0.726355,-0.249057,-0.064320,0.065840,0.195213
236,3319734437,0.544304,-0.337540,-0.726947,-0.247695,-0.056086,0.095581,0.109863
237,3319767771,0.544419,-0.336314,-0.728143,-0.245585,-0.117763,-0.040589,0.196132
238,3319801105,0.544619,-0.334785,-0.729573,-0.242972,-0.062806,0.038390,0.235667
239,3319834439,0.545189,-0.332675,-0.731008,-0.240265,-0.279394,0.162159,0.172651
240,3319867773,0.545767,-0.329888,-0.732783,-0.237374,-0.260119,0.011289,0.109134
241,3319901107,0.546483,-0.325935,-0.735419,-0.232993,-0.300663,-0.032405,0.101894
242,3319934441,0.547297,-0.320629,-0.738898,-0.227369,-0.106080,-0.002830,0.284347
243,3319967775,0.548140,-0.315378,-0.742111,-0.222160,-0.125625,0.001524,0.102226
244,3320001109,0.549068,-0.310447,-0.745091,-0.216773,-0.080927,-0.035878,0.172345
245,3320034443,0.549492,-0.306070,-0.748027,-0.211754,-0.127099,-0.211035,0.133250
246,3320067777,0.549817,-0.301576,-0.751042,-0.206622,-0.012973,-0.075242,0.217652
247,3320101111,0.550227,-0.297018,-0.753927,-0.201567,-0.068645,-0.029026,0.191906
248,3320134445,0.550592,-0.292751,-0.756515,-0.197061,0.058108,0.025409,0.165800
249,3320167779,0.550904,-0.288887,-0.758806,-0.193045,0.038981,0.037720,0.244332
250,3320201113,0.551169,-0.285390,-0.760875,-0.189310,0.045442,0.167642,0.176717
251,3320234447,0.551240,-0.282043,-0.762896,-0.185958,0.043454,0.097369,0.208118
252,3320267781,0.551499,-0.278748,-0.764536,-0.183402,0.060737,0.075742,0.186602
253,3320301115,0.551864,-0.276042,-0.765664,-0.181688,0.173318,0.142159,0.203243
254,3320334449,0.552033,-0.274280,-0.766242,-0.181405,0.339116,0.019158,0.269329
255,3320367783,0.552142,-0.274353,-0.765669,-0.183370,0.674870,-0.021091,0.155624
256,3320401117,0.552012,-0.276414,-0.764134,-0.187034,0.515104,-0.331190,0.185936
257,3320434451,0.551633,-0.279545,-0.762175,-0.191437,0.283736,-0.586957,0.284883
258,3320467785,0.551155,-0.283330,-0.759863,-0.196378,0.149440,-0.627637,0.163331
259,3320501119,0.550510,-0.287437,-0.757435,-0.201534,0.029354,-0.408053,0.119865
260,3320534453,0.549602,-0.291566,-0.755204,-0.206391,-0.154076,-0.298431,0.203098
261,3320567787,0.548708,-0.295432,-0.753017,-0.211207,0.014238,0.116116,0.131148
262,3320601121,0.548049,-0.298713,-0.750826,-0.216050,-0.119029,0.292433,0.245864
263,3320634455,0.547926,-0.301574,-0.748346,-0.220935,-0.033785,0.510972,0.216890
264,3320667789,0.547953,-0.304379,-0.745872,-0.225346,-0.020394,0.321064,0.184669
265,3320701123,0.547389,-0.307237,-0.743671,-0.230061,0.131496,-0.036031,0.417410
266,3320734457,0.546861,-0.310628,-0.740815,-0.235903,0.468030,-0.251870,0.208256
267,3320767791,0.546415,-0.315107,-0.737163,-0.242350,0.241257,-0.444529,0.033405
268,3320801125,0.545623,-0.320247,-0.733563,-0.248249,0.021162,-0.428344,0.156651
269,3320834459,0.544847,-0.325212,-0.730053,-0.253781,-0.144907,-0.174931,0.160354
270,3320867793,0.544542,-0.329202,-0.726748,-0.258731,-0.015894,0.279747,0.098750
271,3320901127,0.544012,-0.332917,-0.723893,-0.263059,-0.150413,0.282286,0.152200
272,3320934461,0.543398,-0.336156,-0.721617,-0.266440,-0.177137,0.129331,0.169002
273,3320967795,0.542961,-0.338799,-0.719663,-0.269253,-0.075388,0.267891,0.118493
274,3321001129,0.542471,-0.341293,-0.717931,-0.271706,-0.100087,0.366797,0.085329
275,3321034463,0.542191,-0.343008,-0.716756,-0.273202,-0.258596,0.279741,0.154401
276,3321067797,0.542152,-0.343932,-0.716066,-0.273926,-0.038031,0.267375,0.145903
277,3321101131,0.541929,-0.344822,-0.715717,-0.274159,0.035264,0.023822,0.112806
278,3321134465,0.541615,-0.345840,-0.715597,-0.273812,-0.187978,-0.121589,0.205317
279,3321167799,0.541387,-0.346139,-0.716042,-0.272719,-0.067865,-0.337642,0.092973
280,3321201133,0.541773,-0.345847,-0.716332,-0.271558,-0.037136,-0.063047,0.195580
281,3321234467,0.541960,-0.345579,-0.716920,-0.269971,-0.208435,0.012397,0.195935
282,3321267801,0.542169,-0.345057,-0.717701,-0.268136,-0.110696,0.069760,0.118357
283,3321301135,0.542353,-0.344255,-0.718730,-0.266032,-0.142909,0.092905,0.138705
284,3321334469,0.542621,-0.342678,-0.720171,-0.263613,-0.064412,0.098079,0.252330
285,3321367803,0.543271,-0.340540,-0.721456,-0.261523,-0.072416,0.097999,0.229836
286,3321401137,0.543775,-0.338398,-0.722587,-0.260132,0.064864,-0.053868,0.305234
287,3321434471,0.544185,-0.337186,-0.722885,-0.260019,0.149044,-0.074779,0.095395
288,3321467805,0.544751,-0.336484,-0.722790,-0.260007,-0.014076,-0.230124,0.201439
289,3321501139,0.545438,-0.335969,-0.722592,-0.259782,-0.156903,-0.095519,0.087544
290,3321534473,0.545325,-0.335639,-0.723047,-0.259181,-0.222308,-0.216848,0.077149
291,3321567807,0.545156,-0.335172,-0.723602,-0.258589,-0.298398,0.080232,0.239924
292,3321601141,0.544804,-0.334579,-0.724186,-0.258465,-0.175117,0.139542,0.064204
293,3321634475,0.544552,-0.333686,-0.724831,-0.258344,-0.077678,0.101232,0.218805
294,3321667809,0.544318,-0.332820,-0.725409,-0.258330,-0.064325,0.166617,0.154501
295,3321701143,0.543903,-0.331762,-0.726092,-0.258645,0.039396,0.064556,0.228320
296,3321734477,0.543745,-0.330628,-0.726288,-0.259877,0.182546,0.040528,0.281301
297,3321767811,0.543920,-0.329486,-0.725807,-0.262295,0.301882,-0.158762,0.405475
298,3321801145,0.544257,-0.329088,-0.724430,-0.265876,0.315904,-0.207906,0.224890
299,3321834479,0.544258,-0.329961,-0.722715,-0.269438,0.088960,-0.305143,0.084856
300,3321867813,0.543807,-0.331649,-0.720786,-0.273414,-0.035518,-0.549609,0.152919
301,3321901147,0.543680,-0.332976,-0.718840,-0.277150,-0.321573,-0.276478,0.152760
302,3321934481,0.543664,-0.333349,-0.717528,-0.280118,-0.356159,-0.015889,0.091146
303,3321967815,0.543672,-0.332921,-0.716928,-0.282138,-0.295516,0.206553,0.077044
304,3322001149,0.543614,-0.331750,-0.717131,-0.283113,-0.197355,0.349999,0.206051