Left_Wrist_Acc_X,Left_Wrist_Acc_Y,Left_Wrist_Acc_Z,Right_Wrist_Acc_X,Right_Wrist_Acc_Y,Right_Wrist_Acc_Z,Upper_Leg_Acc_X,Upper_Leg_Acc_Y,Upper_Leg_Acc_Z,Activity
-0.181282,0.317158,0.230988,-0.329957,0.089007,0.187693,0.006429,-0.026954,0.282495,1
-0.024196,0.245902,0.368808,-0.61715,0.040603,0.533144,0.20539,0.141407,0.468058,1
0.078245,0.438478,0.673453,-0.647932,0.155288,0.517734,0.399078,0.170603,0.46525,1
0.451113,0.593829,0.788295,-0.759882,0.045052,0.430446,0.541277,0.220371,0.375554,1
0.275055,0.915218,0.613256,-0.841357,-0.276763,0.27882,0.473911,0.126569,0.493573,1
0.300084,0.883614,0.10491,-0.802696,-0.542416,-0.103326,0.462545,0.325197,0.556401,1
0.629703,0.876195,-0.635834,-0.578835,-0.469867,-0.808716,1.408171,0.687602,0.225132,1
0.769603,0.797096,-1.131153,-0.339671,-0.382855,-1.32444,1.624738,1.652103,-0.091136,1
0.720151,0.647541,-1.598272,-0.252671,-0.442123,-1.91557,0.638107,0.212401,-0.178663,1
0.707531,0.709817,-2.24687,-0.213275,-0.478944,-2.672344,0.506208,0.48439,-0.367251,1
0.610618,0.641314,-2.972738,0.061166,-0.409165,-2.727424,0.203668,-2.070696,-0.489442,1
0.5737,0.45194,-2.746369,0.494966,0.042725,-1.609482,-0.741647,-3.783484,-1.468705,1
0.15242,-0.036632,-1.361172,0.322787,-0.004949,-1.403511,-0.50689,0.935544,1.517169,1
0.241351,0.251024,-1.323872,0.006476,-0.450751,-2.032857,0.753581,0.850471,-0.63946,1
0.271796,0.438892,-1.428846,-0.651959,-0.325327,-1.656164,-0.402472,-0.876764,-1.728788,1
-0.029282,0.500519,-0.964834,-1.28953,-0.128628,-0.735658,-1.554181,2.120166,0.301295,1
0.022812,0.913534,-0.999395,-1.186095,0.577954,-0.525405,0.320325,0.320552,-0.228963,1
-0.275225,0.872251,-0.684273,-1.343943,1.329689,-1.439679,-1.125395,-0.539776,-0.890983,1
-1.053649,0.941894,-1.033819,-1.662403,0.393665,-1.641411,-1.971049,-0.808921,0.310227,1
-0.344059,0.646642,-1.27326,-0.611663,0.045447,-0.597122,-0.228201,0.02959,0.059275,1
-0.507432,-0.107801,-0.659114,-0.017872,0.338814,-0.535963,-0.833626,-0.502823,-0.676989,1
-0.784001,0.166187,-0.751304,0.335797,-0.045005,-0.660746,-0.231247,-1.68435,-0.770735,1
-0.630461,-0.290869,-0.677442,0.94174,0.147016,1.008527,0.940538,-0.934264,-0.423868,1
-0.994515,-0.916155,0.268561,1.237223,0.333033,0.03371,-0.866886,0.727154,-0.425583,1
-0.789209,-0.754593,0.665756,0.841324,-0.057246,0.450436,0.686679,-0.161498,-0.680719,1
-1.714502,0.199412,0.786461,1.193527,0.575686,0.426174,0.246556,-1.035435,-0.014385,1
-0.732548,-0.468308,1.927185,0.651084,-0.043887,0.583637,-0.585467,-0.128016,-0.211411,1
0.9364,-1.927047,0.456813,0.294062,0.077501,1.690353,-1.022191,0.512917,0.340431,1
0.578937,-0.689258,1.5474,0.462886,0.334503,1.383708,-0.661253,0.391858,0.425252,1
-0.496933,-0.18794,1.620201,0.630718,0.441718,1.036172,0.74786,0.090911,-0.455873,1
0.470104,-0.969804,1.196437,0.615118,0.225781,1.379544,0.508464,-0.336722,0.108537,1
0.525252,-1.138207,1.413167,0.544791,0.238463,0.66049,0.207532,0.432663,-0.061538,1
0.288722,-0.709767,0.888297,0.526521,0.260635,0.418901,-0.045391,-0.863231,-0.053598,1
0.261363,-0.830602,1.04362,0.364956,0.321115,0.475121,0.042753,-0.13972,0.594256,1
-0.140178,0.004839,0.777024,0.546521,0.249998,0.582969,0.175598,-0.481955,0.370311,1
-0.087088,-0.570645,0.30387,0.381083,-0.157802,0.356239,-0.136824,-0.6105,0.230075,1
0.611163,-0.235279,0.41041,0.082493,-0.509443,0.143171,-0.197286,0.079765,0.169572,1
0.038161,0.330076,-0.051453,0.138675,-0.844633,0.622632,-0.082442,-0.597355,0.412141,1
-0.373649,-0.220617,0.706917,0.132939,-0.886321,1.461227,-0.242951,-0.630609,0.26005,1
0.029114,-0.55761,0.629496,-0.282062,-0.444945,1.802019,0.026428,-0.550736,0.164487,1
-0.558253,-0.633288,1.429677,0.219738,0.04937,0.940309,-0.735113,-0.963415,0.46049,1
0.894872,-0.872759,0.38273,-0.067654,0.070955,1.024333,-0.992059,-0.332491,0.429077,1
0.949638,-0.046747,2.094524,0.134228,-0.15486,0.586282,-0.555718,-0.414411,0.323547,1
0.574673,-0.483944,-1.729365,-0.220129,0.608662,0.28801,-1.082265,0.782118,1.106146,1
-1.737399,0.717028,0.134701,1.566261,-1.144283,1.081744,0.639551,-0.260897,-0.026917,1
-1.614114,0.048664,0.801415,0.930416,0.387881,-0.672274,0.91028,-0.244767,-0.472432,1
0.627926,-1.469662,0.728674,0.374082,0.850609,-0.141996,0.448059,-0.216265,0.102574,1
-0.320875,-0.326137,1.747405,0.14777,0.322807,0.552667,0.621743,-0.425996,0.110967,1
-0.189193,0.111685,1.438249,-0.358598,0.427774,-0.605722,0.005728,-0.249362,0.471903,1
0.195578,0.528634,1.919746,-0.831197,-0.27768,2.3643,-0.000461,-0.828985,0.526034,1
0.293071,0.718851,0.005481,-0.794357,0.856156,1.432014,-0.067162,-0.053297,0.193258,1
1.184124,-0.083497,1.237939,0.565084,-0.308513,1.093871,-0.000316,-0.911842,0.400729,1
-0.973848,0.388173,1.545981,0.196889,-0.744929,1.903404,0.539999,-0.565637,0.244109,1
-0.645499,0.227143,1.461999,0.166055,0.435039,0.680289,-0.230809,-0.112921,0.506233,1
-0.443835,0.126829,0.900788,0.205033,0.453144,0.38492,0.297655,-0.665272,0.329282,1
-0.720885,0.172876,0.430902,0.097548,0.401063,0.924059,0.242482,0.477325,-0.044291,1
0.117215,-0.759784,0.053843,-0.151096,0.381624,0.34775,0.199484,-0.224918,0.324873,1
0.895886,-0.755922,0.732338,0.226059,0.814398,0.294131,0.437639,-0.158769,0.058049,1
-0.421517,-0.283667,0.353047,0.715557,0.531742,0.55679,0.568521,-0.294432,0.011646,1
-0.869812,-1.069073,-0.093679,0.281574,0.118936,0.250645,0.028388,-0.533299,0.341271,1
-0.981824,-0.428221,0.808615,0.50823,-0.390018,0.652935,-0.207805,-0.917298,1.071188,1
-0.094532,-0.699983,0.60362,0.843944,-0.322514,1.196873,-0.035821,-0.631723,0.481479,1
-0.210571,-0.552306,1.029627,0.956227,-0.785033,0.516114,-0.860178,-0.326003,1.377912,1
-0.168065,0.540406,1.219562,1.684981,-1.547077,3.491305,-0.214692,1.321484,0.717433,1
0.011281,-0.914429,3.141514,0.8716,-2.142847,4.124119,-0.802101,-0.693369,0.954157,1
-0.467865,-0.206788,3.794046,1.004116,-0.609584,2.908709,0.202989,-0.725518,2.106273,1
0.897277,-0.598405,3.376106,0.582524,1.097217,2.250976,0.973907,-0.496989,0.913379,1
0.577673,-1.132791,2.998819,-0.093109,1.524244,1.198013,0.723533,-0.805179,0.8656,1
-0.36554,-0.196268,1.569679,-0.325062,1.046931,1.340587,0.333885,-0.17031,0.686248,1
-0.3005,-0.192139,1.19592,-0.587645,1.400302,1.122494,0.179813,-0.522259,0.747711,1
-0.008068,-0.127243,0.487566,-0.399766,1.624175,0.701165,0.513637,-0.84412,0.326388,1
-0.018548,0.038501,0.64931,0.016408,1.446365,0.234714,0.269996,-0.969607,0.418425,1
-0.805056,0.042054,-0.017588,0.092381,1.319405,0.415985,0.873446,-1.046651,0.341293,1
0.149426,-0.397827,0.101431,0.280356,1.230874,0.422094,0.302825,-1.045238,0.260935,1
-0.119759,-0.24433,0.339293,0.408243,1.238256,0.345649,-0.004456,-0.536682,-0.063516,1
-0.355395,-0.543152,0.148026,0.466932,0.570682,0.118894,-0.242509,-0.240443,-0.313321,1
0.414865,-0.253499,-0.392747,0.555084,0.784471,-0.115218,-0.24086,-0.219072,-0.145875,1
0.062162,-0.091984,-0.107598,0.296127,0.563957,-0.808362,0.058906,-0.152729,-0.550855,1
0.07354,-0.348042,-0.549248,0.128255,0.071872,-0.616456,-0.106273,0.57973,-0.373604,1
0.262712,0.337258,-0.252777,-0.375327,-0.48983,-0.708372,0.138357,-0.595316,-0.502033,1
-0.545299,-0.158622,-0.260835,-0.473937,-0.088893,-0.362371,-0.190042,-0.101455,0.019489,1
-0.018526,-0.363247,-0.544474,-0.296111,0.019248,-0.816707,-0.165446,0.275121,-0.607196,1
0.131421,0.411673,-0.476757,0.004773,-0.089669,-0.954907,-0.204839,-0.355403,-0.475074,1
-0.130197,0.234016,0.069346,0.096983,0.026831,-0.368399,-0.419385,-0.496291,0.38514,1
-0.063521,0.183825,-0.307305,0.296523,0.005765,-0.24051,0.184896,-0.937563,-0.349736,1
-0.213091,0.256476,0.315894,0.190802,-0.239739,-0.508254,-0.011773,-1.063373,0.218925,1
-0.127785,0.12956,-0.051423,-0.068375,-0.621777,-0.173473,-0.543497,0.146513,0.559245,1
0.431573,0.726188,-0.129626,-0.238553,-0.422338,-0.152546,-0.253046,-0.063226,-0.312438,1
-0.12949,0.807902,0.047154,-0.458746,-0.529833,-0.397782,0.057843,-0.389586,-0.708795,1
-0.005344,0.65437,-0.42707,-0.635401,-0.934588,-0.561571,-0.238749,0.118912,-0.359232,1
0.461448,0.490785,-0.397118,-0.606836,-0.652565,-0.542519,-0.189925,0.737692,-0.273621,1
0.135497,-0.170802,-0.473477,-0.434497,-0.437041,-0.969555,0.201702,0.154852,-0.420836,1
0.043678,0.284157,-0.411609,-0.629019,-0.509398,-0.921548,-0.040654,-0.05011,-0.404143,1
-0.107984,-0.116258,-0.445352,-0.096923,-0.446586,-0.91957,0.124432,-0.015945,-0.251341,1
0.053458,-0.385972,-0.372746,0.167927,-0.300019,-0.93193,-0.033262,-0.127061,-0.174799,1
-0.053529,-0.341841,-0.59516,0.513505,-0.396045,-0.946846,-0.167098,-0.492901,-0.012515,1
-0.111295,-0.254867,-0.548762,0.545736,-0.530108,-0.833565,1.14101,-0.742722,-0.185597,1
-0.007804,-0.334323,-0.399829,-0.305605,-0.288473,0.008356,-0.549765,-0.794115,-0.318896,1
-0.061598,-0.94388,-0.720509,0.071815,-0.011972,-0.33822,-0.607763,-0.03412,0.599767,1
0.675122,-0.966981,-0.798473,-0.305553,0.101245,-0.283067,-0.679726,0.31929,-0.41446,1
-0.090419,-0.730352,-0.630842,-0.167741,0.210439,-0.515175,-1.096526,0.935279,-0.339954,1
0.000119,-0.329553,-1.024879,-0.052468,0.277992,-0.382771,-0.645653,0.73931,-0.10131,1
-0.383222,-0.027244,-0.581781,-0.234808,0.606156,-0.645446,-0.256617,0.324888,-0.22271,1
-0.608116,-0.264584,-1.089918,0.246354,0.736887,-1.017461,-0.746991,-0.099689,0.215216,1
-0.034277,-0.303846,-0.887204,-0.18647,0.64951,-0.271088,-0.536679,-0.001774,-0.1003,1
-0.78104,-0.554469,-0.193308,0.0101,0.348257,-0.755866,0.274571,-0.335112,0.189735,1
-0.284851,-0.583163,-0.791802,0.055253,0.756586,-1.394387,0.435213,-0.383733,-0.212422,1
0.583711,-0.600782,-1.364453,-0.433817,0.909495,-1.027593,0.635372,-0.136113,-0.067464,1
-0.781111,-0.069339,-0.745557,-0.101348,0.601292,-0.865892,0.758096,-0.651846,0.011786,1
-0.889981,0.344936,-1.135063,-0.074629,0.909734,-0.579748,0.241296,-0.173443,-0.197179,1
-0.675086,0.017787,-0.661595,0.066099,0.617746,-0.253392,0.08054,0.109372,0.223978,1
-0.384142,-0.261895,-0.315827,0.063715,0.33752,-0.256613,-0.096544,-0.728173,-0.264511,1
0.318778,0.289714,-0.262868,-0.029482,0.319592,-0.235085,-0.238353,-0.140566,-0.491603,1
0.145302,0.32476,0.049826,-0.071435,0.112424,-0.247839,-0.830955,-0.154401,0.033,1
0.145047,0.383119,-0.16691,-0.060619,-0.198647,-0.045598,-0.475061,-0.705815,-0.382025,1
0.363677,0.488313,0.001029,0.019084,-0.118737,0.17819,0.773853,0.813791,0.916815,1
0.40561,0.070188,0.486137,0.138626,-0.030559,0.565087,3.269715,2.927202,2.089818,1
0.40212,-0.157469,0.896366,-0.153666,-0.043233,0.36587,2.532823,1.827869,0.872998,1
0.26247,0.021259,0.304514,-0.334523,-0.254134,-0.20669,-0.154563,-1.227504,-0.839454,1
0.287443,0.570833,-0.255221,-0.16373,0.024747,-0.498295,-1.788299,-1.354402,0.249101,1
0.458893,0.987033,-0.108255,0.008762,0.141658,-0.15655,-1.143441,0.281685,-0.284556,1
0.595466,0.72238,0.335971,0.105453,-0.005472,0.237,-0.296416,0.282411,-0.052148,1
0.434459,0.471246,0.50703,0.058676,-0.252505,0.281651,0.525176,0.225381,0.700614,1
0.117294,0.350793,0.560274,-0.151285,-0.482549,0.291786,0.900342,0.140907,0.221391,1
0.183392,0.285716,0.347221,-0.190753,-0.379618,0.250794,0.024029,-0.396567,-0.039685,1
0.310058,0.338155,0.365357,-0.092926,-0.16746,0.266807,-0.484027,-0.180682,0.082081,1
0.195546,0.334385,0.446209,-0.080116,-0.031921,0.3866,-0.32657,0.089473,0.065999,1
0.115543,0.188116,0.299332,-0.02517,-0.03983,0.371869,0.264198,0.239662,0.197736,1
-0.201052,0.19633,0.347047,-0.053554,-0.147585,0.301698,0.219673,0.005573,0.188409,1
-0.054808,0.177354,0.33282,-0.123829,-0.129105,0.238683,0.215445,-0.047236,0.161542,1
0.04115,0.070488,0.294966,-0.083444,-0.031121,0.163342,-0.003395,-0.000979,0.085602,1
0.024619,0.055105,0.261848,-0.061267,0.023941,0.076625,-0.191539,0.129241,0.111171,1
0.019143,0.058205,0.220655,-0.077187,0.097012,0.073216,-0.071496,0.029354,0.107045,1
-0.013102,-0.039308,0.180871,-0.113603,0.152287,0.059729,0.151442,0.025093,0.057276,1
-0.005551,-0.038006,0.12288,-0.049704,0.155306,-0.027314,0.053133,-0.044999,0.147817,1
0.049007,-0.012661,0.094348,-0.086949,0.179247,-0.023586,0.036704,0.142324,0.167836,1
0.063585,-0.034783,0.129229,-0.039421,0.208001,0.016951,0.012342,0.080543,0.05011,1
0.010586,-0.007371,0.141415,0.015258,0.222933,0.000154,-0.002033,0.095561,0.118539,1
-0.01182,-0.044162,0.111061,-0.00011,0.189414,0.004754,0.047298,0.042431,0.155746,1
-0.046681,-0.015976,0.192649,,,,0.002843,0.116379,0.048636,1
-0.003571,0.055914,0.075299,-0.277905,-0.437596,0.172461,0.174895,-0.009394,0.075212,2
0.045626,-0.050479,0.212209,-0.317904,-0.271949,0.06533,0.123041,0.044942,0.102756,2
-0.002498,-0.123953,0.173196,-0.322788,-0.115372,0.070686,-0.018653,0.164036,0.111642,2
-0.356792,0.189826,0.075933,-0.387413,0.026785,0.136553,0.172204,0.118135,0.092919,2
-0.207416,0.116482,0.06101,-0.384223,0.133783,0.166961,-0.019011,0.057909,0.088588,2
-0.251596,0.200956,0.071592,-0.301865,0.131371,0.127555,-0.268759,-0.004316,0.168015,2
-0.131185,-0.028467,0.134407,-0.312138,0.118136,0.080206,0.186825,-0.108005,0.091889,2
0.113423,-0.0138,0.334307,-0.283807,0.117104,-0.01766,0.141148,-0.019989,0.082716,2
0.045789,-0.109657,0.131333,-0.23523,0.113506,-0.046063,-0.012724,-0.05303,0.16292,2
-0.038389,0.035787,0.108127,-0.144023,0.103568,-0.060394,0.229367,-0.057159,0.080063,2
0.244572,-0.115534,0.207155,-0.038063,0.104949,0.00186,0.000815,-0.006429,0.118681,2
0.202987,-0.128027,0.075326,0.052339,0.068118,0.040854,-0.075377,0.076303,0.166228,2
0.016509,-0.149204,-0.211287,0.189806,0.042544,0.091401,0.137416,0.023075,0.082262,2
-0.145798,-0.18346,-0.150211,0.32697,0.102285,0.075364,0.029085,-0.045345,0.087739,2
0.050819,0.091144,0.21518,0.32533,-0.031394,-0.098459,-0.068969,-0.074757,0.179112,2
0.078794,0.420597,0.291778,0.258114,-0.200728,-0.278373,0.16356,-0.039537,0.13307,2
0.07206,0.700161,0.294964,0.30024,-0.082996,-0.297753,0.257363,0.027774,0.091883,2
0.165044,0.751024,0.286421,0.343269,0.008409,-0.247657,0.172539,-0.069351,0.114076,2
-0.157294,-0.065841,-0.287767,0.342081,0.024128,-0.222589,0.286974,-0.090438,-0.037513,2
0.750682,0.233203,0.751978,0.397237,-0.031006,0.01582,-0.31425,0.424779,0.126954,2
-0.544731,0.135455,0.346774,0.544656,-0.095647,0.428867,-1.278772,0.915367,0.558749,2
-0.159965,-0.349486,0.599987,0.446023,-0.057521,0.737748,-0.69942,0.619042,0.142521,2
0.007377,-0.53362,0.391043,0.326592,-0.159483,0.449867,-0.20536,0.083538,-0.031791,2
-0.245078,-0.228111,-0.096874,0.195718,-0.278294,0.037842,-0.047399,-0.414523,0.00293,2
-0.770539,0.074466,-0.355299,0.078921,-0.35562,-0.296375,-0.437204,-0.013146,0.092889,2
-0.901748,0.387501,-0.239054,-0.040562,-0.313556,-0.445633,-0.104752,0.021026,0.129569,2
-0.73059,0.691228,0.0767,-0.052875,-0.299879,-0.458617,0.530445,-0.24653,0.060097,2
-0.192562,0.398018,0.526721,-0.004883,-0.23567,-0.307308,0.011778,-0.067325,0.229003,2
0.239026,0.423443,0.669204,0.170691,-0.158293,-0.035407,-0.227476,0.151689,0.194642,2
0.68716,0.290905,0.40417,0.254931,-0.287216,0.018264,-0.354869,-0.047499,0.095961,2
0.415702,0.2249,0.171004,0.216662,-0.620829,0.057467,-0.22248,-0.44043,0.101601,2
0.153996,0.216144,0.097035,0.214423,-0.756292,0.216535,-0.217098,0.053905,0.131271,2
0.065316,-0.206569,-0.099814,0.094445,-0.619792,0.397991,-0.115465,0.578256,0.202935,2
0.024717,-0.258305,-0.098461,-0.017572,-0.441183,0.445135,0.023396,0.565782,0.099004,2
0.01215,-0.101675,-0.109085,-0.044842,-0.289842,0.336517,-0.194002,0.298177,0.130547,2
0.020499,0.146093,-0.088082,-0.071673,-0.196732,0.311221,-0.412372,0.196425,0.15011,2
0.148619,0.337705,0.193478,0.015927,-0.189899,0.298364,-0.259588,0.165826,0.079012,2
-0.302852,0.611978,0.457508,0.133004,-0.24089,0.316574,-0.240238,0.082001,0.095161,2
-1.149022,1.46663,0.170868,0.168157,-0.331738,0.349716,-0.180734,-0.00072,0.15174,2
0.63773,0.380915,0.792071,0.153849,-0.324767,0.097648,0.072418,-0.119212,0.055163,2
0.353971,-0.455198,0.362081,0.089784,-0.259943,0.044535,0.126804,-0.149901,-0.010546,2
0.149101,-0.303731,0.178784,-0.035007,-0.114945,0.011094,0.054897,-0.072546,0.099142,2
0.015013,-0.091397,-0.171318,-0.169609,0.071009,-0.079759,0.056975,0.172533,0.209831,2
-0.015106,0.328037,-0.152991,-0.148951,0.206794,-0.275728,0.027256,0.340586,0.098327,2
0.412363,-0.299012,-0.209197,-0.170352,0.236069,-0.27322,0.046773,0.319664,0.09957,2
-0.051803,0.247368,0.02947,-0.125198,0.171887,-0.200691,0.104429,0.300603,0.123523,2
-0.088702,-0.191961,0.134477,-0.022187,0.203771,-0.199938,0.107037,0.245642,0.180992,2
-0.361099,0.011509,0.001234,0.061567,0.209666,-0.241517,0.029957,0.101286,0.004639,2
-0.21363,-0.011123,0.366838,0.130233,0.111461,0.005452,-0.002382,-0.107821,0.088332,2
-0.192206,0.246577,0.364247,0.02398,0.044769,0.131288,-0.003631,-0.033306,0.189789,2
-0.224985,0.041075,0.027402,0.024129,0.107981,-0.035625,0.113527,0.156844,0.177695,2
-0.624124,0.365769,-0.049813,0.117956,0.110994,-0.091267,0.194246,-0.003139,0.120625,2
-0.365738,0.215901,-0.072334,0.042666,-0.11127,-0.024411,0.201422,-0.11033,0.145024,2
0.033098,0.003323,-0.028125,-0.002685,-0.143901,-0.007738,0.103317,-0.198094,0.098095,2
0.118452,0.085435,0.068336,0.055148,-0.128775,0.054336,0.024409,-0.151925,0.095604,2
0.117131,0.086261,0.086979,0.016466,-0.097629,0.075315,0.035836,0.018778,0.110522,2
0.093089,0.050106,0.126478,-0.013576,-0.080299,0.09541,0.123775,0.115392,0.254318,2
0.157127,-0.1523,0.242975,0.011689,-0.194729,0.179303,0.164045,0.174128,0.15159,2
0.243549,-0.399436,0.263555,0.090598,-0.18494,0.116344,0.23066,0.057806,0.060852,2
0.343198,-0.311781,0.170362,0.078923,-0.108845,0.10136,0.029756,-0.206323,0.077115,2
0.286147,-0.261174,0.142362,0.014847,-0.141698,-0.025949,-0.240184,-0.167587,0.017326,2
0.27778,-0.125447,0.057569,0.003404,-0.078726,-0.114402,-0.170871,-0.105913,0.06592,2
0.168574,0.037794,0.056003,-0.068079,-0.049918,-0.157507,-0.077616,-0.059066,0.103992,2
0.030505,0.181812,0.098086,-0.090018,0.100477,-0.161453,0.016436,0.173082,0.058043,2
-0.071283,0.164433,0.179681,-0.072435,0.135591,-0.085819,0.006374,0.188193,0.1305,2
-0.113636,0.27643,0.316975,-0.164456,0.091527,-0.020595,-0.080671,0.131488,0.200946,2
-0.209466,0.361629,0.284046,-0.134565,0.084337,-0.035705,0.019759,0.211849,0.138741,2
-0.226524,0.400114,0.248062,-0.25686,0.20401,0.036205,0.035888,0.262957,0.126629,2
-0.088209,1.158403,0.702682,-0.562104,0.610158,0.015718,-0.029524,0.200877,0.162125,2
-0.869771,5.890115,2.60953,-1.47381,0.812061,0.756429,-0.061732,0.209613,0.153723,2
-6.764223,8.404597,2.137647,-1.61337,1.009307,1.827332,-0.002109,0.259895,0.200175,2
-1.049816,-3.084955,1.496472,-1.450497,0.035476,2.793335,0.019079,0.118347,0.098846,2
5.421905,-3.349806,4.35113,-0.331194,-1.606,3.00917,0.128381,-0.053707,0.070897,2
2.963641,-0.269499,2.41497,-0.833613,-1.07934,2.595993,0.040624,-0.023114,0.332971,2
1.149004,0.067032,-0.478055,-1.190009,0.205763,1.224613,-0.015151,0.084678,0.210769,2
1.064338,1.087914,-1.850036,-0.525228,0.039326,-0.863033,0.214065,0.117903,0.138043,2
-0.509629,0.653637,-2.884582,-0.10711,-0.771569,-2.069288,0.210027,0.046384,0.133538,2
1.720268,-1.16353,-1.722576,0.300448,-0.694982,-2.872195,0.041151,-0.015471,0.095755,2
0.776956,-1.545265,-1.900756,0.887075,-0.987377,-3.326444,-0.1267,0.076669,-0.014832,2
-0.243049,-3.930391,-3.215121,0.975984,-0.826485,-3.369546,-0.065592,-0.045454,-0.38181,2
0.379371,-4.173555,-4.062648,1.19705,0.344942,-3.175336,0.077297,-0.177172,0.438667,2
1.854747,-5.111152,-0.875661,2.115906,-0.265757,-1.505932,0.582875,-0.281133,0.664969,2
1.923087,-5.294013,-0.631277,3.232104,-0.273121,-0.771737,0.942814,-0.498199,0.256486,2
0.459703,-4.81529,-1.088875,4.022034,0.901834,-0.832779,0.679798,-0.571162,-0.033946,2
-0.558922,-3.441947,-0.077254,3.669575,2.4076,-0.774352,0.458741,-0.441333,-0.147103,2
-1.817597,-2.123356,-0.599526,2.762819,2.520386,-0.15458,0.124301,-0.065584,-0.101264,2
-3.866054,0.433257,-1.295461,1.963225,1.724218,1.048592,-0.376905,0.292902,0.03968,2
-3.315934,1.014647,-1.195557,1.474773,1.228241,1.468103,-0.408375,0.464657,-0.000736,2
-2.144994,0.927843,0.447987,0.915446,1.258575,1.313462,-0.090887,0.393963,0.083784,2
-0.555147,0.250634,1.861886,-0.904553,1.752154,0.783031,0.23535,0.154402,0.19551,2
-0.295967,6.340256,2.613937,-13.463507,1.347888,9.313185,-0.968586,-0.299556,2.219102,2
-0.693506,17.583649,4.006049,-3.873408,0.051237,1.437551,1.343557,-1.752997,-0.690475,2
4.818688,-3.952246,2.729117,-1.632605,0.309393,1.062288,0.503436,1.647065,-0.291761,2
1.311815,-1.873056,0.029783,0.201248,-2.629934,0.366132,0.008203,-0.397828,1.288268,2
-0.011162,0.519336,-0.842301,-0.557991,-0.518519,-0.465221,-1.158122,-0.464663,0.30428,2
-0.804917,1.770622,-0.715359,0.060866,0.000266,-0.275121,0.060014,0.69037,-0.206702,2
-0.760223,1.138837,-0.021982,0.513475,0.352702,-0.374915,1.435866,-0.608311,0.195588,2
0.029606,-0.47283,0.268078,0.681261,-0.052085,-0.120583,0.507066,-0.352192,0.13132,2
0.54086,-1.94222,0.202378,0.885149,-0.631316,0.063502,-0.307029,0.31334,0.168579,2
0.926668,-2.564183,0.186702,1.176089,-0.626606,-0.128611,-0.113745,0.45334,0.074065,2
0.612095,-1.851845,0.102818,1.250852,-0.456051,-0.309529,0.531378,0.540432,0.18256,2
0.885904,-2.002543,0.145883,0.870228,-0.385185,-0.29457,0.611149,0.545726,0.269094,2
0.492671,-1.521644,0.130856,0.635124,-0.529776,-0.215307,0.187816,0.453198,0.254438,2
0.38763,-1.366799,0.05234,0.532939,-0.637883,-0.203824,-0.083212,0.768199,0.25396,2
0.172302,-1.138518,0.009912,0.492878,-0.559279,-0.192326,-0.489284,0.413967,-0.318604,2
-0.018795,-0.820617,-0.081777,0.319332,-0.260587,-0.052586,-0.553599,-0.077828,-0.179912,2
-0.092462,-0.39803,-0.002521,0.031294,-0.380561,-0.011172,-0.442238,-1.305748,-0.062146,2
0.059166,0.592348,0.389454,-2.177739,0.73468,0.653057,-0.04241,-0.5637,0.141754,2
0.131026,1.746778,0.907443,-2.439893,0.841221,0.604068,0.292812,-0.800619,0.196401,2
-0.202009,3.025781,1.198983,-1.457647,0.513577,0.426119,-0.079431,-0.862504,0.171945,2
-0.248282,1.799373,0.672585,-0.676969,0.038876,0.321543,-0.28767,-0.621883,0.179914,2
0.20053,0.328654,0.335335,-0.187381,-0.354377,0.278806,-0.100332,-0.653087,0.009149,2
-0.153092,0.786714,-0.008368,0.286584,-0.145659,0.035289,-0.197023,-0.249069,0.096222,2
-0.306655,0.560534,-0.086138,0.383167,-0.289723,0.077677,-0.239543,-0.08389,0.188987,2
-0.12441,-0.072217,-0.079432,0.291804,-0.114172,-0.04299,-0.065588,-0.329588,-0.035866,2
-0.013795,-0.306499,-0.043423,0.25964,0.065041,-0.228973,0.015787,-0.20191,0.031187,2
0.180967,-0.727881,-0.056993,0.264895,0.120191,-0.332266,-0.048861,0.03577,0.000374,2
0.216608,-0.921986,-0.006338,0.343563,-0.142079,-0.219944,0.006913,0.197749,-0.03738,2
0.243042,-0.892892,0.137316,0.238935,-0.340904,-0.188232,0.045353,0.274351,-0.110601,2
-0.012231,-0.61929,0.387183,0.40496,-0.220298,-0.052727,-0.065791,0.053547,0.051364,2
-0.163563,-0.19196,0.203239,0.492524,-0.109253,-0.047059,-0.118073,0.099564,0.029119,2
-0.162653,0.145326,-0.028409,0.437988,-0.157518,-0.035439,-0.156368,0.112524,0.149623,2
-0.227613,0.564114,-0.238468,0.339416,0.022515,-0.231271,0.043523,0.282663,0.239366,2
-0.396846,0.768369,-0.127899,0.227016,0.197473,-0.180919,0.307306,0.818406,0.48158,2
-0.341473,0.772763,0.162128,0.048023,0.213381,-0.011754,0.578964,1.291621,0.569047,2
-0.045691,0.598949,0.437374,-0.186455,0.126912,0.137527,0.543712,1.004324,0.305931,2
0.17814,0.333402,0.39173,-0.20645,0.126357,0.028635,0.171544,0.334712,0.146171,2
0.084973,0.274358,0.245607,-0.280006,0.156274,-0.026443,-0.224112,-0.193176,0.093852,2
-0.018155,0.296787,0.242875,-0.280193,0.102875,0.029866,-0.306975,-0.194385,0.003582,2
-0.033544,0.089298,0.231337,-0.321724,-0.015814,0.182521,-0.188925,-0.178874,0.028769,2
-0.075089,-0.032684,0.142757,-0.273912,-0.148297,0.23065,-0.082614,-0.258204,0.061638,2
0.00082,-0.333442,0.002462,-0.230466,-0.208684,0.282413,0.067838,-0.147938,0.096444,2
0.190761,-0.233843,0.016135,-0.296802,-0.285048,0.248385,0.128774,0.0321,0.155228,2
0.02214,0.122208,0.080506,-0.197732,-0.212931,0.155495,0.056046,0.203928,0.173018,2
0.264674,0.137446,0.38695,-0.144172,-0.156173,0.205084,-0.11431,0.219651,0.13716,2
-0.03518,0.350812,0.315639,-0.021997,-0.055342,0.031349,-0.208628,0.156861,0.13951,2
-0.110577,0.456666,0.333338,0.223686,0.044139,-0.064554,-0.026113,-0.027928,0.26533,2
-0.33611,0.616015,0.038997,0.379674,0.045793,-0.426739,0.178911,-0.150041,0.158063,2
-0.110355,-0.058968,-0.200686,0.523358,-0.032528,-0.57209,0.24219,-0.278484,0.065782,2
0.217317,-0.309092,0.08186,0.280743,-0.211779,-0.3544,0.153995,-0.344219,0.04749,2
0.295415,-0.355538,-0.011438,0.203451,-0.141306,-0.122236,-0.035644,-0.097609,0.007423,2
0.065921,0.117644,0.124114,0.428818,0.163992,0.258766,-0.367503,0.205459,0.060958,2
-0.308707,0.523474,0.133265,0.341913,0.211622,0.520619,-0.458114,0.222574,0.154597,2
0.381806,-0.174095,0.414402,0.177619,0.009908,0.40834,-0.114613,0.071966,0.124657,2
-0.02259,-0.186402,0.272933,0.160886,-0.233004,0.25406,0.089073,-0.156068,0.106771,2
-0.549364,-0.021449,0.200183,0.095272,-0.167623,0.279939,0.044589,-0.378263,0.072344,2
-0.334367,-0.512147,0.08628,0.156543,-0.038521,0.101355,-0.074909,-0.393237,0.091007,2
-0.10744,-0.655016,0.042422,0.160197,0.070512,-0.102172,-0.134939,-0.354753,0.097568,2
-0.132365,-0.457265,-0.130697,0.069607,0.141236,-0.179478,-0.112616,-0.26506,0.081747,2
-0.251127,-0.121242,-0.21679,0.050215,0.109478,-0.325482,0.014188,-0.143722,0.120613,2
-0.344713,0.062438,-0.141574,0.057684,0.098991,-0.2761,0.137036,-0.077911,0.080799,2
-0.221397,-0.011483,-0.059141,0.033059,0.056849,-0.022673,0.180887,0.1012,0.127913,2
-0.139553,0.161125,0.036138,-0.029245,0.014336,0.081361,0.140331,0.288017,0.176422,2
-0.140505,0.371006,0.131587,-0.061176,-0.019289,0.104887,0.116585,0.422381,0.152371,2
-0.075508,0.381528,0.240263,-0.138546,-0.087327,0.152003,0.144155,0.451975,0.186285,2
0.087888,0.38521,0.319805,-0.21381,-0.126647,0.208885,0.106974,0.251374,0.08943,2
0.040761,0.410195,0.337404,-0.208786,-0.15481,0.179553,0.00685,0.038769,0.124707,2
0.063928,0.535124,0.304499,-0.298267,-0.214728,0.162889,0.034266,-0.162811,0.109755,2
0.140959,0.455855,0.180674,-0.372804,-0.246412,0.119238,0.092237,0.064404,0.089209,2
0.196353,0.174738,0.049151,-0.409957,-0.208391,0.097861,0.184926,0.325262,0.085277,2
0.125514,0.123482,0.114882,-0.386874,-0.130834,0.124778,0.009066,0.39189,0.09717,2
0.23962,0.008397,0.237411,-0.414608,-0.127366,0.196004,-0.10863,0.287469,0.141204,2
0.21206,-0.079905,0.211987,-0.39133,-0.128368,0.046374,-0.066572,0.234313,0.154816,2
-0.204713,-0.158197,0.062634,-0.01885,-0.064924,-0.160207,-0.089568,0.043061,0.104553,2
-0.11042,-0.065397,0.165464,0.044165,-0.2618,0.055143,0.007713,-0.253243,0.075034,2
0.119053,0.329842,0.087741,-0.203273,-0.467011,0.038618,0.033905,-0.134929,0.063702,2
0.003524,0.564387,0.079442,-0.175142,-0.4719,0.071038,-0.004973,0.177916,0.079883,2
-0.005732,0.512539,0.268387,-0.213795,-0.310054,0.098487,-0.12479,0.426105,0.105272,2
-0.236438,0.671308,0.482882,-0.206497,-0.143061,0.129018,-0.199069,0.434905,0.127339,2
-0.240228,0.377961,0.64243,-0.09784,-0.21292,0.123731,-0.186452,0.332663,0.188107,2
-0.312073,0.160531,0.371518,0.235155,-0.298584,-0.01373,-0.106158,0.233189,0.161439,2
-0.422542,0.144355,0.173851,0.396915,-0.328435,-0.196455,-0.02015,0.111286,0.157409,2
-0.426323,0.049062,-0.015538,0.476545,-0.362424,-0.270815,-0.069183,-0.034205,0.079741,2
-0.437796,0.128128,-0.144884,0.515823,-0.344159,-0.258086,-0.111588,-0.155123,0.128117,2
-0.527503,0.208979,-0.251678,0.575678,-0.25686,-0.161538,-0.125627,-0.126361,0.139845,2
-0.277232,0.331018,-0.048872,0.438498,-0.223841,0.061081,0.015079,-0.026868,0.139989,2
0.197792,0.627729,0.462243,0.324006,-0.260993,0.086654,0.047223,0.066015,0.148633,2
0.046893,0.647095,0.449769,0.36395,-0.146176,0.163853,0.086654,0.163037,0.150352,2
1.240984,-1.297227,0.553189,0.332697,-0.087604,0.243526,0.059114,0.166707,0.117419,2
0.761053,-1.439367,0.276978,0.250784,-0.082566,0.044379,0.003716,0.313532,0.256246,2
0.464322,-2.029345,0.196506,0.271338,-0.019372,-0.125092,0.07005,0.337996,0.288498,2
-0.52371,0.203156,-0.102015,0.238719,0.139873,0.231767,0.205859,0.344478,0.264906,2
0.331193,1.108955,-0.057427,0.307519,0.635279,-0.087439,0.375715,0.119102,0.184023,2
-0.122756,1.338828,-0.304725,0.347775,0.136042,-0.077585,0.121747,0.164204,0.191254,2
-0.108366,0.986313,0.090545,0.273328,0.286788,-0.387883,-0.082089,0.408772,0.223093,2
-0.053699,0.242885,0.025903,0.106325,0.147341,-0.278279,0.110772,0.430279,0.151376,2
0.046796,-0.316402,-0.036414,-0.124962,0.391127,0.039391,0.383421,0.398491,0.164735,2
0.476645,-1.382832,-0.264268,-0.387564,0.862694,0.250376,0.526717,0.197178,0.196123,2
0.223366,-1.046402,0.017438,-0.828411,0.947035,0.5824,-0.121932,-0.515825,0.236061,2
0.569637,0.021881,0.201231,-1.198156,0.876563,0.76111,0.241335,-0.151578,0.309451,2
0.543588,0.050271,0.341451,-0.821906,0.760121,0.669636,-0.135585,-0.144251,0.530083,2
0.581951,-0.072825,0.316647,-0.066747,0.398851,0.498631,-0.510518,-0.329665,0.350112,2
0.598188,-0.56728,-0.162402,0.169476,0.171915,0.447343,0.020355,-0.883513,0.108209,2
0.59821,-0.721852,-0.385757,0.484049,0.370446,-0.012787,1.421833,-0.656848,0.545258,2
0.133552,-0.24148,-0.666279,0.505692,0.463662,-0.401319,1.913511,-1.134383,0.056941,2
-0.099908,0.177143,-0.908008,-0.101279,0.294783,0.020908,1.140544,-1.132819,0.106324,2
-0.440312,-1.050461,-0.959519,-0.526254,0.929273,-0.072359,0.228126,-1.197005,-0.125919,2
-1.290489,-1.125551,-0.835001,-0.179544,1.394672,-0.189256,-0.335442,-1.508445,0.097425,2
-1.880995,0.27044,-0.199263,0.362006,0.972789,-0.099138,-0.685707,-1.32442,-0.101566,2
-1.421346,1.010067,0.690524,0.391024,0.319492,-0.125375,-0.964146,-1.498819,-0.54199,2
-0.299659,1.009196,1.251911,0.029229,-0.244916,-0.25684,-0.707684,-1.238138,-0.744216,2
0.714675,0.078499,1.175579,-0.103924,-0.407953,-0.404493,-0.335414,-0.89677,-1.096107,2
1.439457,-0.859888,0.880087,-0.389636,-0.347395,-0.470506,0.033252,-0.618417,-1.033937,2
1.591277,-1.197355,0.830146,-0.588006,-0.003602,-0.893849,-0.116199,0.322404,-0.295833,2
1.172295,-0.671888,0.898408,-0.499967,0.487862,-0.40726,-0.05558,0.697824,0.182802,2
0.482727,0.646287,1.054138,-0.950029,0.660648,0.292994,0.196325,0.773197,1.031418,2
0.105032,0.792052,0.628546,-1.024055,0.590321,0.972593,0.40409,1.555962,1.163966,2
0.524355,-0.049958,0.16744,-1.319436,-0.424448,0.996048,-0.126946,1.604826,-0.033691,2
0.748397,-0.529639,-0.01924,-1.355723,-0.763457,0.395035,0.128556,1.026868,0.279156,2
0.895178,0.070233,-0.025274,-0.845143,-0.168216,-0.032319,0.639359,0.754911,0.053316,2
0.448753,0.128471,-0.189993,-0.398179,0.482028,-0.301736,0.901008,0.628089,0.030997,2
0.013593,-0.111072,-0.186353,-0.125098,0.415503,0.073889,1.099326,0.451495,0.657477,2
0.195646,-0.25029,0.063953,-0.08841,0.174819,0.315547,1.381904,0.415886,0.518906,2
0.436548,-0.220024,0.278175,-0.280387,-0.145611,0.304338,1.193061,0.424306,0.595251,2
0.726682,-0.20457,0.180771,-0.177633,-0.130379,-0.146976,0.235279,0.12852,-0.264007,2
0.789004,-0.434966,0.221371,-0.242889,0.19783,-0.331796,-0.553231,-0.140438,-0.111231,2
0.797959,-0.774035,0.5597,-0.328609,0.50004,-0.101212,-0.638099,-0.506358,-0.036264,2
0.594797,-0.658686,0.660286,-0.238652,0.109136,-0.026301,-0.069619,-0.177901,0.026691,2
0.220054,-0.655777,0.303026,-0.312914,-0.039452,-0.09403,0.636642,0.153602,0.260389,2
-0.186663,-0.755299,-0.099547,-0.009075,0.023951,-0.15236,1.222963,0.337031,0.210387,2
-0.499879,-0.442146,-0.432392,0.143252,0.05779,-0.054641,0.905258,0.062738,0.046549,2
-0.445838,-0.813772,-0.77614,0.235349,0.148128,-0.309057,-0.529919,-0.956242,-0.202526,2
-0.343758,-1.152782,-0.750255,0.33423,-0.057152,-0.33847,-1.16381,-0.767019,0.029449,2
-1.211166,1.050577,0.314766,0.35383,-0.229346,0.052827,-1.531976,-0.008501,0.335724,2
-0.814878,3.533366,0.922177,0.333654,-0.276311,0.593127,-0.821959,0.457814,0.579776,2
-0.119617,2.683437,1.05373,0.350761,-0.281393,0.854519,-0.032999,1.008561,0.170061,2
-0.56045,2.009856,0.65666,0.544252,-0.19516,0.525293,-0.185498,0.331021,-0.123326,2
-1.482661,2.564452,-0.052688,0.692503,-0.452439,0.230117,-0.629289,-0.007294,0.213858,2
-1.191152,1.862733,-0.142671,0.686195,-0.772827,-0.131352,-0.944616,0.047835,-0.110458,2
-1.082569,0.999683,0.207438,0.8908,-0.79859,-0.472054,-1.188367,0.031543,0.436933,2
-0.309376,-0.729287,0.577025,0.880845,-0.946124,-0.882006,-0.487781,0.174936,0.597141,2
-1.306914,-0.319143,0.051437,0.477929,-1.264344,-1.385711,0.264451,0.219218,-0.115277,2
-1.197213,-0.678174,0.26541,0.412798,-1.405057,-1.42279,-0.032936,0.030514,0.257648,2
-1.171311,-2.150538,-0.227613,0.687795,-0.867812,-0.818769,-0.015844,0.051938,0.027712,2
-1.102941,-1.864182,-0.49121,0.989025,-0.428331,0.006227,-0.41925,0.269158,-0.145704,2
-1.225354,0.287482,-0.543063,0.716828,-0.583943,1.519918,-1.225612,0.961595,0.421651,2
-0.14893,4.668872,1.195668,0.634966,-0.664282,1.886415,-1.109658,0.620608,0.396128,2
0.56366,2.835407,0.262156,0.383197,-0.689405,1.259244,-0.046342,-0.562164,-0.060024,2
0.05875,1.174599,-0.518912,0.281793,-0.352925,0.061852,0.6828,-0.523904,-0.011886,2
-0.612261,0.423008,-0.590564,0.19449,-0.266024,-0.292712,0.328532,0.152793,-0.068278,2
-0.52114,-0.169521,-0.246173,-0.081567,-0.307604,0.032655,-0.278805,0.463766,0.246366,2
-0.354026,-0.169599,-0.000626,-0.213781,-0.243425,0.142824,-0.282713,0.468691,0.222283,2
0.329764,-0.968168,0.160808,-0.360675,0.027475,-0.336962,-0.036093,0.240816,0.062392,2
0.121414,-0.801926,0.107993,-0.120525,0.473363,-0.3199,-0.002774,0.164105,0.069384,2
-0.339854,-0.678355,-0.095933,0.096922,0.887482,-0.128019,-0.425232,0.321052,0.17647,2
-0.494018,-1.106617,-0.33365,0.233504,0.693119,-0.076399,-0.883137,0.284602,0.188055,2
-0.591841,-1.134543,-0.343815,0.283825,-0.096332,0.140393,-0.908846,0.708009,0.373528,2
-0.602626,-0.97924,-0.262345,0.138093,-0.996148,0.468335,-0.440571,0.653873,0.100019,2
-0.439786,-0.705064,-0.09579,-0.092293,-1.428137,0.67312,-0.388743,0.379223,0.104574,2
-0.578938,-0.170044,0.145796,0.019575,-1.318961,0.69111,-0.662038,-0.184837,0.17047,2
0.956421,0.447174,0.605742,0.210562,-0.847888,0.651293,-0.384406,-0.675725,0.015852,2
-0.54677,4.514009,0.833586,0.06316,-0.905467,0.400858,-0.090275,-0.62875,-0.066487,2
-0.29888,2.442796,0.27973,0.009209,-0.820471,0.086167,0.176968,-0.325841,0.090319,2
-0.273491,0.964067,0.170523,0.047932,-0.740756,-0.193604,0.120572,-0.037158,0.204375,2
0.193771,-0.200395,0.130997,0.136497,-0.506455,-0.273793,-0.019995,0.230351,0.246723,2
-1.083504,0.665717,0.033958,0.176039,-0.501498,-0.359432,0.209426,0.418823,0.871027,2
-0.54674,-0.47996,0.234198,0.308949,-0.328624,-0.435252,0.658831,0.688049,0.932999,2
-0.419302,-0.392762,0.643031,0.652197,0.024409,-0.439201,0.50608,0.976723,0.915359,2
0.446953,-0.753712,0.737018,0.796967,0.269489,-0.294786,0.812181,0.02431,0.095311,2
0.859988,-0.919421,0.18296,0.668521,0.235752,-0.096188,0.895569,-0.993105,-0.146846,2
1.303382,-1.117846,-0.532504,0.5527,0.163286,-0.229285,0.906224,-1.757488,-0.650193,2
0.929494,-0.72962,-0.480782,0.634406,0.518052,-0.313034,0.211315,-1.393362,-0.615456,2
0.523986,-0.553689,0.221296,0.550396,0.828513,-0.063056,-0.516329,-0.604915,0.614943,2
0.141008,-0.328726,0.887963,-0.159242,0.974983,0.517341,-0.242031,0.348521,0.509047,2
0.208062,-0.234064,0.713531,-1.906157,3.009047,0.037183,0.106482,0.231545,-0.527852,2
0.659648,-0.414874,0.04646,-2.245838,2.306998,-0.289095,-0.390792,-0.183716,-0.88271,2
1.228091,-0.936605,-0.36391,-2.141163,2.105851,-0.688947,-0.834191,-0.721026,-1.142478,2
1.455572,-1.020768,-0.365578,-1.163758,1.378948,-0.597862,-0.335448,-1.023364,-1.248249,2
1.287268,-0.825563,-0.138489,-0.734117,0.710698,-0.034931,0.809855,-1.356025,-0.363564,2
1.083757,-0.628094,0.165324,-0.36229,0.785777,-0.041597,1.576304,-0.340541,0.642283,2
0.926398,-0.65146,0.305206,-0.643982,0.817891,0.633933,2.005806,1.016583,1.814051,2
0.993699,-0.540985,0.60381,-0.569921,0.578058,1.090687,0.885971,1.123524,0.645249,2
0.993294,-0.208484,0.386075,-0.294103,0.135696,1.062655,0.162999,0.717109,-0.097432,2
1.128973,-0.270506,-0.121617,-0.131744,-0.099901,0.840091,0.636242,0.327495,0.273244,2
1.057024,-0.085928,-0.201803,-0.206177,-0.002662,0.756682,0.86616,0.513434,0.269924,2
0.660348,0.24536,-0.029276,-0.305119,0.032264,0.807386,0.412229,0.881319,-0.028069,2
0.231078,0.463805,-0.067121,-0.243448,-0.150005,0.641094,0.093059,0.399112,0.147233,2
0.007655,0.539411,-0.200929,-0.217508,-0.210102,0.271541,0.057264,0.068595,0.233144,2
0.088962,0.347983,-0.083135,-0.28413,-0.103219,-0.13171,0.284026,0.337032,0.325159,2
0.13045,0.136543,0.356383,-0.181503,-0.056042,-0.355685,0.374419,0.334239,0.31434,2
-0.131059,0.169414,0.541813,0.009761,0.031274,-0.397282,0.197301,0.105811,0.156394,2
-0.007721,0.022646,0.415854,0.12597,0.043779,-0.229987,0.088141,0.254963,0.305811,2
0.167111,0.010624,0.3565,-0.099294,-0.198012,-0.290033,0.014325,0.268879,0.082003,2
0.048436,0.35738,0.489616,-0.091584,-0.464258,-0.473241,-0.043151,0.218935,0.171045,2
-0.615321,0.878743,0.456344,0.036539,-0.253225,-0.414718,-0.04766,0.147577,0.111169,2
-0.918035,0.874649,0.129132,0.220151,0.095296,-0.198895,-0.141253,0.082636,0.188116,2
-1.191652,0.716483,-0.208825,0.424579,0.151598,-0.265582,0.019541,-0.103194,0.059875,2
-0.610597,0.143353,-0.185251,0.648588,-0.103417,-0.103398,-0.063988,-0.23518,0.122362,2
-0.587471,-0.150743,-0.102805,0.993347,-0.097861,-0.094835,-0.051742,0.010726,-0.090678,2
-0.710541,-0.485089,0.192286,1.200247,-0.155535,-0.212677,-0.608317,-0.003603,0.257279,2
-0.379975,-0.159271,0.430798,0.916497,-0.412848,-0.263664,-0.75989,-0.108495,0.079742,2
-0.075163,-0.517477,0.197667,0.681521,-0.615863,-0.344509,-0.44305,-0.818805,-0.065002,2
-0.250131,-0.256559,0.227591,0.707686,-0.272545,-0.489711,-0.208228,-0.805184,0.102549,2
-0.487748,0.094571,0.411252,0.71176,0.078348,-0.333108,-0.257612,-0.716802,0.217554,2
-0.464042,-0.029932,0.374829,0.592194,0.155342,-0.197507,-0.244061,-0.703918,0.108241,2
-0.456732,-0.073401,0.337533,0.513256,-0.110398,-0.050488,-0.32775,-0.796032,0.107472,2
-0.462594,-0.026604,0.21397,0.27225,-0.307138,0.042804,-0.359862,-0.696672,0.076003,2
-0.643532,-0.069739,0.053118,0.171696,-0.371842,0.256096,-0.426642,-0.650119,0.020726,2
-0.707242,-0.126439,-0.109546,-0.215501,-0.152915,0.537413,-0.645418,-0.609572,-0.098468,2
-0.243833,-0.166808,-0.274693,-1.027547,-0.149429,0.758072,-0.477993,-0.478691,0.049986,2
-0.091086,-0.179298,-0.424577,-1.187546,-0.090715,0.408117,-0.065089,-0.314149,-0.081749,2
-0.203315,0.081589,-0.37732,-0.835031,-0.324127,0.213911,0.085567,-0.454738,-0.221435,2
-0.264981,0.256986,-0.106136,-0.445727,-0.281277,0.226073,-0.210597,-0.376302,-0.117055,2
-0.242178,0.303733,-0.134038,-0.228053,-0.172348,-0.028539,-0.384604,-0.34872,-0.263337,2
-0.138772,0.146125,-0.157761,-0.222675,0.128058,-0.354077,-0.343434,-0.395225,-0.129655,2
0.001776,0.025936,0.11656,-0.187369,-0.195793,-0.113505,0.412147,0.572953,0.572198,2
0.194297,-0.044503,0.62632,0.023468,-0.287826,0.316745,1.814726,2.679143,1.607248,2
0.166102,-0.045544,1.147364,0.11319,-0.073463,0.865781,1.822645,3.254689,0.746922,2
0.207812,0.097344,0.890781,0.000217,-0.15405,0.657082,0.421547,0.498952,-0.395309,2
0.362178,0.095789,0.204126,-0.042843,-0.257657,-0.16779,-0.614368,-1.368988,0.119937,2
0.622865,0.026768,-0.131667,-0.178079,-0.269778,-0.439259,-0.811072,-0.933775,-0.030698,2
1.652526,-1.601959,0.042125,-0.173303,-0.151812,-0.310128,-0.4157,0.079394,-0.224087,2
0.849675,-0.272023,0.67963,0.015565,0.085712,-0.10753,-0.049832,0.202609,-0.080582,2
-0.323111,1.383641,0.522918,0.125538,0.173395,-0.064898,0.171385,0.425739,0.304273,2
-0.44678,1.30933,0.08212,-0.02555,-0.12057,-0.121085,0.358773,0.672579,0.326252,2
-0.50927,1.007791,-0.061326,-0.155166,-0.404145,-0.093056,0.210878,0.39572,0.139973,2
-0.403471,1.201152,-0.076575,-0.131516,-0.283236,0.126612,0.004376,0.209924,0.049962,2
-0.295852,0.746384,-0.117673,-0.155373,-0.057412,0.245052,-0.138926,-0.008011,0.080544,2
-0.021548,0.11028,0.061879,-0.141166,0.014261,0.305095,-0.192919,-0.041866,0.152514,2
0.165805,-0.239224,0.238126,-0.12849,-0.181654,0.205391,-0.180307,-0.03648,0.027157,2
0.289079,-0.342314,0.269316,-0.166982,-0.20211,0.025256,-0.043655,-0.06301,0.117397,2
0.289711,-0.206053,0.178515,-0.01126,-0.133938,-0.112749,0.134056,-0.03513,0.126186,2
0.026171,-0.082244,0.113493,0.004298,-0.112033,-0.051558,0.131697,0.104458,0.142523,2
-0.045699,0.046968,0.104717,0.026823,-0.08622,0.052993,-0.043148,0.05815,0.146117,2
-0.104998,0.137271,0.187799,0.033178,-0.06072,-0.037182,-0.132103,-0.002983,0.111993,2
-0.222462,0.095589,0.341702,0.039474,-0.059969,-0.21523,-0.077074,-0.005546,0.147737,2
-0.283622,0.019287,0.726385,-0.049052,-0.11221,-0.72071,-0.086505,-0.047619,0.126698,2
0.122399,0.051066,0.147815,0.452959,0.180374,-0.505016,-0.107198,-0.070978,0.01098,2
0.236191,0.144061,-0.27972,0.510183,0.098449,0.296284,-0.128478,-0.210366,0.071691,2
0.03515,0.376721,-0.160675,0.421735,-0.287963,0.269433,-0.207748,-0.134471,0.142537,2
-0.063079,0.366186,0.037816,0.384047,-0.227386,0.037512,-0.153503,0.058692,0.177185,2
-0.367567,0.454878,0.074821,0.263129,-0.07158,-0.138975,-0.034705,0.235517,0.14354,2
-0.227985,0.228106,0.166489,0.207364,0.06046,-0.138882,0.058909,0.195155,0.11766,2
-0.056077,-0.069248,0.174726,0.292837,0.05017,-0.005661,0.062866,0.138675,0.106521,2
-0.091468,-0.01932,0.101082,0.261317,0.041151,0.127547,0.098282,0.123021,0.152624,2
-0.177548,-0.039716,-0.027073,0.004251,-0.015068,0.210946,0.10197,0.139993,0.27075,2
-0.284136,0.042113,-0.036173,-0.495359,0.131339,0.472054,-0.021141,0.096153,0.055313,2
-0.239564,-0.000895,0.009733,-0.595716,-2.716695,2.64336,0.046658,0.003175,0.085892,2
-0.262251,-0.159113,0.065794,-0.856155,-3.70193,5.370398,0.116126,-0.118302,0.146102,2
-0.212809,-0.202229,0.070013,-1.486902,-2.0177,7.233755,0.010052,-0.079085,0.119,2
0.038162,-0.26511,-0.033171,-0.047414,-2.217245,8.561312,0.138283,-0.173878,0.128452,2
0.17665,-0.116637,-0.269201,-0.876761,-0.514453,8.651449,0.210359,-0.233568,0.146782,2
0.047665,0.047891,-0.289971,-0.839452,0.65413,6.607504,0.20562,-0.216854,0.10406,2
0.032978,0.09145,-0.170442,0.48556,0.856342,2.917945,0.128607,-0.181389,0.131255,2
0.323211,-0.145829,0.017407,0.076332,2.331231,-0.199886,0.117071,-0.120472,0.160805,2
0.643897,-0.342256,0.389848,-0.012148,2.463756,-1.40326,0.208682,-0.11155,0.17245,2
0.823793,-0.33599,0.652313,1.877601,1.815663,-2.5119,0.20885,-0.035391,0.169655,2
0.538689,0.015101,0.846313,4.10474,4.641614,2.628365,0.080402,0.007291,0.087275,2
0.314628,0.174281,0.583976,1.638756,2.891485,-3.535846,-0.116427,0.163203,0.189127,2
0.291699,0.296045,0.320754,1.773358,1.760731,-5.173254,-0.231529,0.343223,0.019457,2
0.189761,0.271788,-0.011812,-0.623934,-0.686744,-7.127688,-0.131226,0.437985,0.069252,2
0.109049,0.039383,-0.076181,-0.767109,-0.941892,-6.268217,-0.081688,0.349005,0.12094,2
-0.020078,0.099314,-0.024683,-0.790831,-1.313369,-5.515414,0.187311,0.193409,0.131421,2
-0.292423,-0.032896,0.138595,-0.93494,-0.42179,-4.016789,0.25817,0.156386,0.16818,2
-0.359621,-0.071113,0.156591,-0.298456,0.858085,-2.71166,0.179407,-0.037998,0.11002,2
-0.360328,-0.070126,-0.017577,-1.439368,0.241211,-1.908961,0.079272,-0.025545,0.140931,2
-0.425045,-0.108801,-0.099946,-1.096737,-0.186359,-0.83077,0.117578,-0.08515,0.128726,2
-0.247589,-0.064731,-0.179059,0.15829,0.442251,-0.680468,0.105875,-0.254906,0.091146,2
-0.084325,-0.237223,-0.171725,-0.234878,0.27673,-0.308422,0.107609,-0.31432,0.17988,2
-0.033413,-0.16493,-0.077037,-0.429158,-0.964603,-0.36025,-0.00904,-0.243694,0.108862,2
0.04059,-0.196176,0.093594,-0.469675,-0.247042,0.250112,-0.024182,-0.243211,0.056388,2
0.173666,-0.227838,0.175026,1.413254,0.427331,0.493637,-0.022037,-0.200045,0.102216,2
0.252078,-0.231008,0.228778,0.77599,0.720068,0.338264,0.050405,-0.141652,0.189482,2
0.30877,-0.100661,0.357582,0.452024,-0.066642,0.576019,0.13226,-0.103116,0.103652,2
0.341323,-0.030616,0.319119,1.121532,-0.313842,0.337781,0.159396,-0.066384,0.16297,2
0.333538,-0.015925,0.37768,-1.18455,0.569005,0.784515,-0.018697,0.013509,0.144188,2
0.437286,0.100999,0.373571,-0.48071,1.734553,0.609923,-0.057848,0.056133,0.0844,2
0.383421,-0.058834,0.259835,-0.21977,1.858345,-0.227695,-0.030335,0.085162,0.133809,2
0.235503,-0.117071,0.26354,-0.722243,1.475798,0.037068,0.071882,0.048635,0.10885,2
0.013234,-0.135599,0.113658,-0.404909,0.846286,-0.091425,0.023962,0.030812,0.15099,2
-0.112921,-0.104193,0.133851,-0.982087,-1.171417,-0.132729,-0.019296,0.059734,0.151772,2
-0.062111,-0.019411,0.118155,-0.21423,-1.368256,-0.148198,-0.005959,-0.000111,0.088338,2
-0.127784,-0.03895,0.177351,2.038419,-0.047516,-0.026426,-0.016537,-0.09622,0.10779,2
-0.101104,0.077038,0.097344,0.729163,-2.113565,-0.072255,0.019841,-0.094518,0.140046,2
-0.127183,0.208846,0.082432,1.046422,-1.260183,0.210161,0.084329,0.034849,0.148817,2
-0.072622,0.268102,0.152579,1.987345,0.640975,-0.103406,0.119228,-0.017835,0.124951,2
-0.028894,0.227163,0.209106,-0.751183,0.960591,0.245601,0.10676,0.024853,0.134068,2
0.056742,0.118384,0.264323,-1.661584,2.027983,0.555206,0.027008,0.072875,0.155735,2
0.10731,-0.091969,0.279325,-1.793686,0.895315,0.15935,-0.00141,0.111903,0.10412,2
0.005413,-0.183117,0.209962,-0.306306,0.725493,0.009376,-0.040386,0.136465,0.130598,2
-0.073787,-0.157071,0.056846,0.090865,0.216219,-0.401444,-0.047376,0.136943,0.124789,2
-0.044895,-0.164376,-0.055238,-0.341057,-0.15306,-0.818651,0.072274,-0.003115,0.161173,2
0.041427,-0.06772,-0.070208,-0.902568,0.172908,-1.354246,0.031122,-0.011797,0.091915,2
0.026157,0.129639,-0.026353,-1.138339,0.046298,-2.551004,0.006094,-0.022585,0.146414,2
-0.001355,0.102713,0.133928,-1.495141,-0.370969,-3.527767,0.080807,0.021686,0.083596,2
-0.045367,0.040858,0.241691,-1.847166,-0.847801,-3.980129,0.08082,0.080809,0.091545,2
-0.101844,-0.005347,0.284429,-2.182926,-1.993122,-4.661404,0.019406,0.159712,0.085815,2
-0.1178,-0.128729,0.33447,-1.622995,-2.587154,-5.333609,0.053172,0.089977,0.05847,2
0.057521,-0.027656,0.301577,-0.45223,-1.526601,-6.32881,-0.023634,0.036468,0.070209,2
0.056939,0.140058,0.069873,-0.117619,-0.546417,-7.482876,-0.082304,-0.079074,0.096511,2
-0.064679,0.288969,-0.232798,1.487721,1.120675,-7.833105,-0.113376,-0.214601,0.212011,2
0.234071,-0.023298,-0.294093,4.880516,3.547001,-4.357075,0.135395,-0.192307,0.019525,2
0.356061,0.033459,-0.174698,4.139947,2.425941,-1.302489,0.239305,-0.196297,0.209224,2
0.447886,-0.227461,0.23352,7.101924,3.645358,5.341867,0.234298,-0.117366,0.252634,2
0.222683,0.022729,1.091238,7.748384,2.919441,6.703133,0.210726,-0.029615,0.036728,2
-0.226673,0.294342,1.002773,4.650738,2.822586,5.458713,0.015162,0.094942,0.234494,2
-0.437336,-0.040591,0.164704,2.745007,2.213291,6.783939,-0.308098,0.394698,0.094642,2
-0.208377,-0.157271,-0.26322,1.286301,-2.058749,9.832994,-0.3473,0.482842,0.032501,2
0.01377,-0.176909,-0.300797,-0.076656,-2.995389,7.22023,-0.02965,0.224714,0.137743,2
0.002601,-0.226766,-0.455717,-12.30881,8.752545,4.435404,-1.207725,-3.757092,-1.513227,2
-0.257008,0.026923,-0.360689,-6.778597,-8.236813,8.269508,1.523725,2.368318,-0.690361,2
-0.111971,-0.195815,-0.13826,-2.925774,-1.464264,0.502069,0.904443,-1.169758,-0.326071,2
0.198858,-0.187667,0.050303,-1.588569,-2.552814,1.126855,-0.15932,-0.37858,0.470321,2
0.505231,-0.119907,0.022518,-0.888145,-2.881589,-0.23506,-0.552017,0.767383,0.579783,2
1.056282,-0.32014,0.247837,-0.239423,-0.78256,-0.870076,0.225684,0.045923,0.096692,2
1.080256,-0.10314,0.568387,-0.219875,-0.379653,-0.61144,0.971336,-0.69309,0.127533,2
0.7033,0.397998,0.585636,0.436319,-0.288848,-0.480363,0.46966,-0.365177,0.094081,2
0.672642,0.419571,0.610241,0.706603,-0.220734,-0.386065,-0.383185,-0.412699,0.103969,2
0.637999,0.185105,0.528269,0.567331,-0.100622,0.01396,0.02201,-0.123647,0.033209,2
0.27078,0.128758,0.41008,0.650945,0.320551,0.105807,-0.118076,0.229679,-0.136491,2
0.141486,-0.189601,0.210915,1.09748,0.42966,0.00931,-0.3779,0.082653,0.039237,2
0.060207,-0.24952,0.082693,1.132263,0.163756,0.034258,-0.226032,0.144131,0.044945,2
-0.059279,-0.273086,0.000824,1.012712,0.082582,-0.028588,0.133831,0.373322,-0.019913,2
-0.151225,-0.317894,-0.068385,0.741049,0.182657,-0.117167,0.077375,0.168602,0.015793,2
-0.408877,-0.137432,-0.024182,0.606168,0.317964,-0.247843,-0.050197,0.055076,0.188475,2
-0.590532,0.043563,0.039071,0.522405,0.416731,-0.389501,0.022618,0.112784,0.191667,2
-0.693395,0.156094,0.079657,0.234889,0.545936,-0.427589,0.187946,0.148755,0.150305,2
-0.795819,0.301,0.064679,-0.115082,0.57392,-0.388304,0.290199,0.075547,0.154156,2
-0.886879,0.527136,0.034979,-0.386469,0.527784,-0.208334,0.270474,0.081861,0.132958,2
-0.882149,0.613627,-0.03898,-0.62005,0.395694,0.047121,0.108009,0.063775,0.137969,2
-0.423674,0.227903,0.006433,-0.774328,0.306012,0.174567,0.002756,0.00171,0.032216,2
0.005569,-0.178478,-0.003161,-0.730988,0.158941,0.280538,-0.028079,0.024299,0.128736,2
0.056939,-0.070238,0.008404,-0.69281,0.012609,0.345714,-0.066863,0.024645,0.148531,2
0.072462,-0.046338,0.058201,-0.647882,-0.151767,0.370852,0.11053,0.003791,0.156279,2
0.200551,-0.18701,0.112107,-0.599982,-0.328412,0.321848,0.273429,0.049513,0.115792,2
0.262097,-0.122091,0.196649,-0.511288,-0.509276,0.343719,0.220411,-0.050768,0.077021,2
0.501446,-0.200115,0.226876,-0.426721,-0.583332,0.335695,0.100013,-0.114993,0.135689,2
0.561165,-0.254237,0.205684,-0.299872,-0.611645,0.23277,0.069753,-0.187226,0.160606,2
0.509876,-0.179238,0.167692,-0.232586,-0.551189,0.177419,0.182373,-0.154582,0.074991,2
0.385121,-0.148434,0.054854,-0.179854,-0.488132,0.182693,0.290029,-0.213855,0.045717,2
0.193208,-0.066043,-0.133616,-0.054517,-0.411448,0.212954,0.432046,-0.327872,0.005033,2
0.112708,0.042578,-0.127004,-0.00874,-0.376905,0.023005,0.073117,0.028257,0.072083,2
-0.081456,0.021416,-0.077469,0.045753,-0.333524,-0.123348,-0.249346,0.09106,0.219778,2
-0.281807,0.152542,0.08095,0.13865,-0.283112,-0.180933,0.17096,-0.033273,0.069304,2
-0.298145,0.249906,0.290023,0.254859,-0.156547,-0.199794,-0.142971,0.203111,0.051261,2
-0.516127,0.375196,0.549228,0.394479,-0.025167,-0.093002,-0.358547,0.389076,0.177953,2
-0.744292,0.344171,0.686139,0.490774,0.016033,-0.044605,-0.616225,0.610229,0.155798,2
-0.696043,0.073682,0.629132,0.570211,-0.048979,0.061791,-1.12921,0.374387,0.352357,2
-0.808166,0.057722,0.181029,0.578242,-0.096749,0.043777,-0.584884,-0.157424,0.154395,2
-0.888031,-0.001621,-0.029185,0.51218,-0.162613,-0.102373,-0.10506,-0.375231,-0.030651,2
-0.931715,0.297165,-0.173748,0.456324,-0.291414,-0.283334,-0.075585,-0.104138,0.118005,2
-0.607737,0.397195,-0.117595,0.32896,-0.32377,-0.422999,-0.177938,0.215812,0.181645,2
-0.34944,0.469848,0.15276,0.317141,-0.273187,-0.429769,-0.014566,0.068948,0.034237,2
-0.199763,0.510835,0.301997,0.248309,-0.285314,-0.200643,-0.102504,0.086221,0.171124,2
-0.028555,0.40545,0.319792,0.264366,-0.283937,-0.135929,-0.125414,0.221019,0.17634,2
0.200697,0.295539,0.362288,0.255668,-0.364506,0.074612,-0.204182,0.095114,0.127872,2
0.404704,0.279982,0.392659,0.239403,-0.410984,0.340195,-0.10184,-0.045007,0.197359,2
0.741857,0.243819,0.270709,0.2915,-0.438497,0.402496,-0.032015,0.079644,0.122269,2
0.967677,0.147492,0.109424,0.240309,-0.49543,0.259334,-0.144371,0.16962,0.147779,2
0.836203,0.181159,-0.04178,0.212335,-0.466637,0.204742,-0.176124,0.337376,0.160622,2
0.49939,0.234743,-0.003503,0.07973,-0.409234,0.185208,-0.035234,0.214435,0.079382,2
0.325436,0.212478,0.104663,0.039594,-0.175035,0.126974,-0.157972,0.284856,0.166367,2
0.224828,0.256939,0.179726,0.003017,0.012711,0.008862,-0.198054,0.284787,0.157375,2
0.047966,0.284934,0.274397,0.011413,0.006049,-0.049463,0.009319,0.179551,0.088846,2
-0.013029,0.26575,0.378083,0.054674,-0.028655,0.044677,-0.024033,0.156548,0.179406,2
-0.241793,0.433697,0.305782,0.131415,-0.004043,0.165726,-0.117074,0.149788,0.180575,2
-0.115175,0.372032,0.116367,0.181067,-0.051229,0.141139,-0.153353,0.164956,0.012909,2
-0.540871,0.809588,-0.004235,0.169547,-0.107027,0.248987,-0.154571,0.110323,0.162074,2
-0.371333,0.215147,0.313038,0.178631,-0.012836,0.684374,0.119126,0.391491,0.25254,2
-0.242586,-0.092601,0.328212,0.224983,0.165993,0.743952,0.022598,-0.259898,-0.126523,2
0.159,-0.299098,0.157278,0.199684,0.160338,0.465266,-0.655977,-0.076551,0.234702,2
0.121163,-0.146774,-0.14747,0.125302,-0.100129,-0.000333,-0.501909,0.171508,0.218773,2
0.182735,-0.114996,-0.285569,0.010269,-0.298353,-0.269423,0.176252,-0.201973,-0.029737,2
0.166122,-0.06842,-0.254782,-0.077946,-0.210805,-0.487495,0.260979,-0.340389,-0.085918,2
0.064082,-0.058986,-0.019301,-0.139725,-0.091791,-0.597882,-0.051082,-0.22838,0.121511,2
0.080562,-0.148089,0.299037,-0.143406,-0.020261,-0.618355,-0.147885,0.042216,0.213304,2
-0.065092,-0.107835,0.54773,-0.060524,0.086516,-0.409057,0.196312,0.216808,0.167753,2
-0.243752,-0.029687,0.570416,-0.010367,0.018897,-0.115009,0.580667,0.218329,0.077183,2
-0.244809,-0.038688,0.372145,-0.056396,0.002107,0.041599,0.452099,0.165714,0.083219,2
-0.503554,0.247553,0.180057,-0.045544,-0.07493,0.282534,0.054213,-0.108315,0.114094,2
-0.20282,0.080939,0.039272,-0.113348,-0.339157,0.506193,-0.103762,-0.269061,0.06204,2
-0.667397,0.498543,-0.381081,-0.221053,-0.69809,0.524648,-0.016434,-0.116614,0.093477,2
-0.686739,0.478492,-0.329318,-0.340464,-0.537088,0.334523,0.101576,0.166335,0.121815,2
-0.442108,-0.03949,-0.196362,-0.407367,-0.429833,0.189023,0.320815,0.298288,0.076165,2
-0.302552,-0.261839,-0.020804,-0.337027,-0.244764,0.149714,0.450097,0.232278,0.146999,2
0.038465,-0.649613,0.110703,-0.276012,0.092242,0.065155,0.313532,0.206332,0.161887,2
-0.040247,-0.65336,0.212609,-0.534933,0.605336,0.358137,0.148782,0.167299,0.157942,2
-0.459077,-0.043697,0.382447,-0.507595,1.033928,0.585269,0.042084,0.088415,0.085411,2
-0.554547,0.089898,0.566508,-0.123665,1.480536,0.526999,-0.041762,0.113489,0.139444,2
-0.415237,-0.243261,0.414561,-0.164336,1.622005,0.351425,-0.005169,0.099417,0.175587,2
-0.429854,-0.127147,0.108367,-0.053284,1.303733,-0.318931,0.038828,-0.224466,0.035993,2
-0.55397,0.22644,0.251258,0.015896,0.941614,-0.888964,0.085708,-0.351305,0.066759,2
-0.449861,-0.048698,0.048134,0.045502,0.75456,-1.157663,0.139267,-0.390149,0.125634,2
-0.34184,-0.114046,-0.043873,0.101533,0.48782,-1.16391,0.099549,-0.367069,0.050571,2
-0.189019,-0.060094,-0.10824,0.280126,0.292597,-0.996187,0.115183,-0.339564,0.065486,2
0.026395,-0.100109,-0.277188,0.468097,0.046434,-0.683257,0.129292,-0.285242,0.086482,2
0.381205,-0.23961,-0.312443,0.996221,-1.271531,0.359992,0.187555,-0.182522,0.140073,2
0.585987,-0.191589,-0.166775,0.90473,-1.766996,0.497464,0.158405,-0.037904,0.098672,2
0.786193,-0.192729,-0.063188,0.765415,-0.913495,0.398654,0.059654,0.102584,0.125368,2
1.027723,-0.233261,0.02024,0.627105,-0.518406,0.271379,0.03667,0.248562,0.124475,2
0.975522,0.320212,0.394012,0.611209,-1.085004,0.295432,0.068604,0.258223,0.162601,2
0.19436,1.71578,0.784039,0.521187,-1.301743,0.064468,0.115427,0.096994,0.134877,2
-1.505662,3.56401,0.955235,0.134057,-1.43125,0.065465,0.15368,-0.057836,0.126849,2
-1.496096,-1.83933,-0.727785,-0.018911,-1.483619,0.195622,0.16826,-0.112764,0.12267,2
4.044763,-2.236733,0.121387,-0.067897,-1.343717,0.173108,0.138354,-0.156561,0.123786,2
4.853095,-0.190957,1.123344,-0.097591,-1.061148,0.118908,0.082918,-0.119797,0.085773,2
4.030376,0.017692,1.152749,-0.366515,-0.742435,0.308554,0.104423,0.007884,0.101643,2
3.063907,-0.330342,1.000732,-0.778681,-0.973351,0.708377,0.01107,0.343427,0.16566,2
1.681467,-1.280337,0.214217,-3.197206,0.177369,1.249249,-0.01602,0.77667,0.1141,2
0.879763,-1.631226,0.151159,-2.835678,5.038142,-0.448267,0.077072,0.061572,0.078956,2
-0.202494,-1.561275,0.097663,-1.200433,2.228939,0.100704,0.604489,0.148228,0.21589,2
-1.11073,-1.208887,-0.100346,-0.95932,1.395513,0.378193,0.640473,-0.193347,0.032856,2
-1.763777,-0.331401,-0.364065,-0.138667,-0.55991,0.552929,-0.146384,-0.413754,0.286515,2
-1.879583,0.356325,-0.576915,0.511392,-0.281089,-0.143296,-0.334546,0.089213,0.095337,2
-1.821592,0.507871,-0.64337,0.286603,0.116601,-0.188269,-0.136508,0.105059,0.105331,2
-1.575623,0.406533,-0.467072,0.327763,0.18961,-0.20487,-0.121552,-0.328102,0.07441,2
-1.15325,0.318934,-0.080654,0.763026,-0.074126,-0.243681,0.190494,-0.096879,0.140798,2
-0.849748,1.361169,0.506758,0.977333,-0.233365,-0.260959,0.31657,-0.049935,-0.011385,2
-1.348122,2.948909,0.716164,1.07339,-0.161778,-0.142507,0.038501,-0.235002,0.180837,2
-0.851942,0.813499,0.302517,1.128457,-0.061536,-0.215335,-0.176027,-0.145931,0.17041,2
-0.223591,-0.896967,0.083854,1.091338,-0.178632,-0.326931,-0.092818,-0.114609,0.107024,2
-1.091392,0.440916,-0.274906,0.973772,-0.194442,-0.248079,-0.010685,-0.186615,0.112647,2
-0.686517,-0.066442,-0.321107,0.801704,-0.01432,-0.286702,-0.047503,-0.357919,0.054799,2
-0.752211,-0.092592,-0.293011,0.735823,0.173182,-0.26858,-0.021032,-0.338395,0.068091,2
-0.378576,-0.586119,-0.143631,0.583163,0.236969,-0.132316,-0.051689,-0.277781,0.107342,2
-0.102806,-1.054085,-0.056738,0.361754,0.168084,-0.089283,-0.139766,-0.176762,0.084328,2
0.09612,-1.052727,0.117718,0.111555,0.048439,-0.080972,-0.086217,0.075112,0.095309,2
0.133618,-0.873179,0.136576,0.093401,0.065407,-0.044606,-0.065874,0.194664,0.102771,2
0.361245,-0.766776,0.194855,-0.406361,0.172432,0.222855,0.055924,-0.096288,0.035233,2
0.597858,-0.459489,0.34693,-0.83792,0.086888,0.239009,0.085336,0.070953,0.051487,2
0.769513,-0.204613,0.353504,-1.069119,-0.023802,0.239213,0.059473,0.310527,0.108398,2
0.742684,0.024403,0.33328,-1.101205,-0.002667,0.055515,0.138792,0.388116,0.054023,2
0.477405,0.364593,0.398363,-1.075287,0.010976,0.169016,0.268765,0.479947,0.160429,2
0.687644,1.000536,0.502613,-1.002298,-0.094806,0.306214,0.09983,0.536634,0.160435,2
1.096359,0.434505,0.84501,-0.637696,-0.271855,0.559281,-0.115138,0.403218,0.216125,2
1.232,0.398196,0.841736,-0.462973,-0.443633,0.373385,-0.153892,0.058382,0.132406,2
0.302407,1.620167,0.490742,-0.569135,-0.764021,-0.034891,-0.03205,0.101748,0.083723,2
-0.582162,1.738329,-0.011643,-0.582549,-1.007352,-0.113446,0.3311,0.222485,0.052608,2
-0.406824,0.832432,0.196697,-0.523324,-0.860077,0.159863,0.646837,0.414031,0.035506,2
-0.547255,0.702,0.194288,-0.460993,-0.536898,0.357165,0.409583,0.379914,0.18091,2
-0.335139,-0.03882,0.072185,-0.331834,-0.22858,0.335099,0.01821,0.337119,0.292004,2
-0.148701,-0.365729,-0.192123,-0.088384,-0.198228,0.165935,-0.123835,0.357128,0.226068,2
-0.173125,-0.332958,-0.342981,0.04031,-0.307302,0.057528,-0.003961,0.227996,0.071923,2
-0.120128,-0.390534,-0.399156,0.220351,-0.304886,-0.090108,0.112326,-0.068231,0.03717,2
-0.051613,-0.441754,-0.314354,0.409995,-0.258033,-0.102422,0.104525,-0.177733,0.135233,2
-0.2059,-0.162553,-0.187265,0.573533,-0.081227,-0.116657,-0.002387,-0.116969,0.146126,2
-0.160162,0.045394,0.009266,0.636437,-0.00806,-0.196333,-0.063373,-0.032096,0.125243,2
0.055331,0.200069,0.233104,0.65145,0.042185,-0.17743,-0.041324,-0.053657,0.162181,2
0.250479,0.158338,0.406478,0.627442,0.150746,-0.236276,0.028489,-0.099842,0.116039,2
0.130445,0.273151,0.477843,0.581604,0.252633,-0.183963,0.03804,-0.242777,0.160884,2
0.548567,-0.213058,0.360372,0.51693,0.391976,-0.146796,0.007618,-0.248675,0.200161,2
0.004603,-0.15433,0.215915,0.494815,0.502999,-0.190531,0.031324,-0.24161,0.150607,2
-0.43275,-0.247712,0.221171,0.52101,0.556133,-0.064467,0.01008,-0.39343,-0.070275,2
-0.480615,-0.30479,0.237646,0.453879,0.475799,0.216057,-0.231893,-0.411107,0.127057,2
-0.266422,-0.524142,0.036116,0.369687,0.31683,0.123923,-0.402487,-0.3034,0.112184,2
-0.289446,-0.426154,0.045053,0.29649,0.19646,0.084329,-0.137993,-0.371195,0.116791,2
-0.078456,-0.287849,0.166327,0.045349,0.183733,0.209059,-0.017817,-0.47555,0.088455,2
-0.013355,-0.273767,0.137663,-0.074675,0.210287,0.125883,0.118524,-0.507221,0.0783,2
0.028056,-0.119489,0.071063,-0.135269,0.204584,0.106708,0.040464,-0.470925,0.080778,2
0.118431,0.001471,0.093821,-0.152266,0.055385,0.182915,-0.029371,-0.380841,0.142996,2
0.151196,0.025385,0.092202,-0.121221,0.195283,0.072117,-0.042432,-0.342745,0.089114,2
0.296381,-0.060383,0.285419,-0.141383,0.119072,-0.126906,0.001582,-0.258938,0.16265,2
0.293771,0.06006,0.403956,-0.104565,0.086489,-0.318088,0.031347,-0.160225,0.172736,2
0.243018,-0.021016,0.468564,0.013102,-0.065694,-0.229298,0.100109,-0.043803,0.144001,2
0.088334,0.026417,0.395757,0.05343,-0.055488,-0.067609,0.099344,-0.004423,0.106618,2
-0.119651,0.083735,0.351007,0.164244,0.097581,0.07618,-0.010812,-0.017009,0.060289,2
-0.153417,-0.025808,0.254894,0.369257,0.246749,0.348886,-0.242458,-0.169019,0.035382,2
-0.050383,-0.10556,-0.029876,0.440795,0.232845,0.092821,-0.286211,-0.270069,0.172729,2
0.154091,-0.163708,-0.322411,0.441882,0.100915,-0.277246,0.014716,0.000591,0.075621,2
0.165397,-0.102175,-0.159122,0.44097,0.026644,-0.37174,0.134489,0.215583,0.143541,2
0.120498,0.067693,0.043439,0.340506,-0.088019,-0.297635,0.207556,0.126051,0.210192,2
0.103898,0.122005,0.010591,0.335493,-0.219953,-0.255567,0.225118,0.000839,0.125468,2
0.042726,0.163409,0.073006,0.385011,-0.340211,-0.26082,0.129086,0.005561,0.232995,2
0.125239,0.200562,0.229326,0.005217,-0.014644,0.138638,-0.121629,0.085104,0.27745,2
0.082074,0.130541,0.34624,-0.477148,0.290146,0.354276,-0.277033,0.225411,0.050829,2
0.078201,0.270193,0.328067,-0.332106,0.070416,0.150641,-0.322693,0.833191,-0.065124,2
0.017566,0.285543,0.138837,-0.361363,-0.504302,0.076124,0.282029,0.663454,-0.038932,2
-0.117484,0.339192,0.038199,-0.512586,-0.741669,0.126975,0.649339,0.592254,0.038822,2
-0.333191,0.76052,-0.046982,-0.490254,-0.676289,0.348017,0.511416,0.590728,0.322758,2
-0.594531,1.283015,-0.095616,-0.590254,-0.600784,0.507452,0.186587,0.311689,0.178718,2
-0.000777,0.20864,0.338528,-0.796206,-0.620055,0.427299,0.101368,0.179591,0.059884,2
0.279765,-0.294558,0.454556,-0.962227,-0.678994,0.345326,0.236245,0.291655,0.017601,2
0.063263,-0.160536,0.267869,-0.899783,-0.657714,0.296849,0.240256,0.2958,0.079009,2
-0.111982,-0.093569,0.1669,-0.881448,-0.515881,0.178063,0.202495,0.427635,0.146008,2
-0.008574,-0.439701,0.144353,-0.913378,-0.309567,0.285365,0.15312,0.468799,0.171204,2
0.14091,-0.484382,0.215508,-0.81794,-0.334398,0.224653,0.014062,0.426764,0.108333,2
-0.000387,-0.152075,0.156672,-0.659479,-0.322607,0.142059,-0.036558,0.394171,0.109328,2
-0.269237,0.103646,0.057715,-0.471088,-0.229699,-0.040284,0.005792,0.274762,0.03409,2
-0.484432,0.360735,0.010829,-0.227111,-0.142642,-0.069692,0.130103,0.099054,0.105777,2
-0.317665,0.231685,-0.083117,0.06402,-0.124863,-0.098125,0.089785,-0.009373,0.160907,2
-0.090598,-0.01776,-0.083609,0.201361,-0.071005,-0.162033,0.087867,-0.076443,0.150834,2
-0.016896,0.023875,-0.119343,0.433245,0.061311,-0.114664,0.0344,-0.184602,0.194773,2
-0.051771,0.002129,-0.132493,0.564615,0.098616,-0.169978,0.088214,-0.187879,0.234397,2
-0.042564,-0.022378,-0.090478,0.565502,0.111176,-0.251892,0.024019,-0.16896,0.155873,2
-0.03536,-0.066706,-0.021673,0.579005,0.197612,-0.308939,0.050211,-0.340182,0.031358,2
-0.054758,0.100372,0.206789,0.651438,0.243118,-0.216452,0.076889,-0.477254,-0.068134,2
0.000294,0.051337,0.396582,0.507877,0.331777,0.051474,-0.110877,-0.360083,-0.00953,2
-0.069716,0.174089,0.530348,0.472226,0.387144,0.257022,-0.446192,-0.24874,0.094324,2
0.045434,0.016209,0.321954,0.353787,0.349667,0.227401,-0.366064,-0.260127,0.042956,2
0.030044,-0.09809,0.062715,0.225455,0.30657,-0.033498,0.096135,-0.105061,0.060789,2
-0.028626,-0.233497,-0.018644,0.105739,0.172659,-0.127661,0.26748,-0.117892,0.180251,2
-0.091177,-0.444645,-0.03009,0.001528,0.090146,-0.151178,0.136601,-0.120961,0.189439,2
-0.212679,-0.481671,-0.010329,-0.04921,0.129786,-0.028135,0.077538,-0.092037,0.238789,2
-0.191738,-0.498459,0.093886,-0.121289,0.096363,0.081782,0.088163,-0.115409,0.245538,2
-0.158221,-0.342331,0.211344,-0.21173,0.034187,0.115291,-0.010286,-0.285791,0.082528,2
-0.077981,-0.372307,0.195083,-0.206258,-0.048762,0.068417,-0.049551,-0.41223,0.106114,2
-0.029042,-0.343867,0.304237,-0.147221,-0.080458,0.002429,-0.091439,-0.38162,0.089311,2
0.038888,-0.212038,0.329717,-0.05427,-0.090264,0.075911,0.009167,-0.441325,0.09317,2
0.180982,-0.266091,0.288931,0.043568,-0.013567,0.022784,0.01137,-0.375514,0.099396,2
0.043665,-0.134538,0.107108,0.205007,0.043176,-0.085191,0.004194,-0.190374,0.23024,2
0.03883,-0.16906,0.0712,0.290476,-0.028211,-0.102025,0.088305,-0.099693,0.148776,2
0.015145,-0.247534,0.161618,0.277102,-0.16775,-0.063036,0.259523,-0.073204,0.184422,2
-0.039256,-0.277114,0.076436,0.256924,-0.191295,-0.124088,0.24971,0.005215,0.151118,2
-0.031067,-0.30027,0.024738,0.182839,-0.087452,-0.139713,0.193918,0.069003,0.107327,2
0.032406,-0.316804,-0.003646,0.112708,-0.004633,-0.046231,0.174643,0.016569,0.05177,2
0.113118,-0.233531,-0.037845,0.094207,0.032904,0.099488,0.080795,-0.106368,0.035442,2
0.218824,-0.136741,-0.008164,-0.013826,-0.058418,0.079608,-0.00412,-0.163614,0.027006,2
0.184413,0.103335,0.045072,-0.08255,-0.149005,-0.006948,0.029622,-0.09452,0.009905,2
0.341853,0.164801,0.202355,-0.209067,-0.174505,-0.026429,0.129628,-0.083478,0.024148,2
0.511778,0.20715,0.322267,-0.326998,-0.129949,0.018604,0.105798,0.003801,0.074417,2
0.57377,0.249452,0.313955,-0.448909,-0.07683,0.065252,0.115084,0.143087,0.156989,2
0.592027,0.199921,0.297326,-0.452532,-0.034524,0.04804,0.252302,0.256851,0.208383,2
0.550014,0.175861,0.229283,-0.484947,-0.095925,0.124619,0.257039,0.361191,0.208518,2
0.494029,0.052098,0.168713,-0.469796,-0.154513,0.110307,0.371949,0.322949,0.205287,2
0.448879,0.036948,0.048556,-0.481282,-0.143576,0.151054,0.278306,0.226617,0.109989,2
0.422065,0.042742,-0.010328,-0.479945,-0.124805,0.138085,0.19309,0.071863,0.033545,2
0.383132,0.065003,-0.020572,-0.445702,-0.021047,0.122498,0.188276,-0.072871,-0.017877,2
0.276275,0.226063,0.066504,-0.353252,0.005742,0.203808,0.258315,-0.02883,0.059316,2
0.274006,0.231226,0.203079,-0.273707,0.099339,0.274384,0.36933,-0.015886,0.119205,2
0.458223,0.10971,0.248499,-0.16975,0.162529,0.235485,0.438507,0.223754,0.181335,2
0.458333,0.154327,0.290102,-0.060144,0.216191,0.202703,0.154867,0.178707,0.108711,2
0.380793,0.255027,0.195778,0.002526,0.238781,0.070008,-0.021903,-0.025199,0.194504,2
0.18927,0.356966,0.067977,0.064904,0.306139,-0.103095,0.103649,-0.034943,0.043229,2
0.396447,0.217648,0.216637,0.128399,0.354545,-0.137371,0.010435,0.125169,0.081859,2
0.283832,0.262635,0.183,0.202964,0.40788,-0.150467,0.005369,0.122517,0.225567,2
0.073666,0.335231,0.198798,0.305224,0.426601,-0.119984,0.002973,0.370788,0.084377,2
0.260863,0.244616,0.187411,0.358504,0.37193,-0.06798,-0.183355,0.48347,0.280831,2
0.169358,0.233322,0.10316,0.447089,0.288622,-0.113894,-0.387841,-0.31916,0.141201,2
0.122425,0.252561,0.165014,0.502662,0.117848,-0.271418,-0.256873,-0.182484,-0.049317,2
-0.143772,0.51548,0.312078,0.476714,-0.020365,-0.330306,-0.144789,-0.287956,0.107584,2
-0.479759,0.693505,0.466645,0.423127,-0.035773,-0.286459,0.0049,0.029411,0.156576,2
-0.523095,0.398268,0.485018,0.394106,-0.054212,-0.108341,0.026882,0.10619,0.038237,2
-0.396408,0.060859,0.234613,0.379668,-0.120814,-0.045485,-0.171693,0.148943,0.080208,2
-0.371811,-0.246441,0.027721,0.428992,-0.219816,0.147948,-0.490723,0.468555,0.197891,2
-0.223408,-0.203267,-0.090889,0.482939,-0.360373,0.268489,-0.662166,0.367962,0.134716,2
-0.378188,-0.022993,-0.099004,0.521064,-0.507792,0.244167,-0.687879,0.083101,0.164451,2
-0.187335,-0.002233,-0.060932,0.477354,-0.756002,0.076245,-0.37837,0.112431,0.149706,2
-0.395913,0.202155,-0.037313,0.486526,-0.884026,-0.072995,-0.070956,0.1192,0.068766,2
-0.527881,0.362071,0.157832,0.411209,-0.931246,-0.102594,-0.062334,-0.017657,0.106812,2
-0.057908,-0.076847,0.279921,0.365962,-0.920275,-0.084749,-0.156246,-0.012799,0.203159,2
-0.076533,-0.027769,0.404145,0.31249,-1.009502,0.054993,-0.430409,0.134101,0.133265,2
-0.523833,0.507088,0.354559,0.191161,-1.004784,0.16233,-0.463627,0.03911,0.198561,2
-0.355642,0.394119,0.184097,0.12721,-1.0639,0.191708,-0.285457,0.127794,0.183165,2
-0.160934,0.173217,0.037812,0.005276,-1.142697,0.128475,-0.042383,0.125526,0.068175,2
-0.685661,0.558863,-0.039116,-0.126287,-1.135928,0.18963,-0.085852,0.200965,0.149318,2
-0.594866,0.464881,0.034807,-0.175821,-1.050091,0.301366,-0.211524,0.158361,0.091126,2
-0.555066,0.399132,0.129143,-0.223439,-0.915342,0.366855,-0.379995,0.229264,0.100743,2
-0.363742,0.255782,0.137516,-0.254381,-0.809459,0.356371,-0.390832,0.383487,0.149874,2
-0.42374,0.439878,0.211553,-0.252095,-0.717646,0.383698,-0.3113,0.405045,0.141724,2
-0.428365,0.472294,0.19949,-0.222062,-0.661346,0.27279,-0.18492,0.37374,0.17732,2
-0.33312,0.474365,0.175743,-0.203166,-0.59728,0.110831,-0.012143,0.255171,0.130255,2
-0.267395,0.52306,0.204624,-0.17038,-0.501286,-0.017283,0.094941,0.096736,0.081354,2
0.060257,0.17823,0.060711,-0.134347,-0.410256,-0.08613,0.078818,0.063517,0.063943,2
-0.00448,0.180228,-0.02886,-0.103863,-0.353428,-0.090508,-0.079104,0.091251,0.08024,2
-0.173673,0.239128,-0.096698,-0.016901,-0.243252,-0.066124,-0.104377,0.122873,0.140313,2
-0.152581,0.081522,-0.082755,0.010033,-0.107633,-0.037584,0.037443,0.160779,0.177604,2
-0.210949,-0.081453,-0.02376,0.155007,0.148583,0.151153,0.285707,0.220233,0.227033,2
-0.239129,-0.153006,-0.026555,0.229687,0.365133,0.417822,0.489121,0.321149,0.303136,2
-0.393687,-0.088908,-0.178951,0.334091,0.409311,0.292053,0.663368,0.457175,0.287734,2
-0.546372,-0.335489,-0.679862,0.356322,0.451648,0.204002,0.86186,0.886109,0.316368,2
-0.499048,-0.545843,-0.588919,0.383201,0.316161,-0.105793,1.004244,1.215731,0.44228,2
-0.087187,-0.689234,-0.746093,0.155142,0.207273,-0.108976,1.046578,1.224681,0.427257,2
0.193227,-0.7748,-0.900883,0.053968,0.512102,-0.171232,0.776265,0.156156,0.769989,2
0.193956,-0.705639,-0.690984,-0.127857,0.591727,0.277672,0.151914,-0.697924,0.604891,2
-0.231724,-0.564022,0.261955,-0.964194,1.001082,0.850585,-0.396698,-1.94832,0.559081,2
-0.078098,-0.317702,0.770871,-1.260629,1.620166,0.590568,-0.212189,0.130806,0.441771,2
0.534066,-0.294363,0.619946,-0.426175,0.826155,0.3817,1.290471,0.808087,0.921149,2
1.244984,-0.43172,1.144828,-0.756855,0.841239,0.623913,0.017805,0.715108,0.716508,2
0.241332,0.717182,0.94023,-1.546647,0.62741,1.347952,0.47,-0.158266,0.176893,2
0.777703,-0.085555,0.425675,-0.777086,0.459786,0.248241,0.440847,0.481236,0.121495,2
0.570637,0.267638,0.263382,-0.388843,0.094105,-0.258701,-1.042755,0.293926,-0.067371,2
0.751259,0.278553,0.283447,0.259601,-0.259079,-0.640244,-1.501901,-0.531658,-0.063651,2
0.743551,0.134973,0.168401,0.630844,-0.993904,-0.357773,-0.569722,-0.453343,-0.037852,2
1.01265,-0.212231,-0.072464,0.623026,-1.252985,-0.363009,-0.131399,-0.973954,-0.652232,2
1.392042,-0.407782,0.24395,0.482614,-0.581239,-0.675847,0.836208,-1.257559,-0.455304,2
1.386279,-0.20784,0.595151,0.067425,-0.129686,-0.217869,0.346801,-0.852786,-0.507993,2
0.987385,-0.114739,0.598373,0.116044,0.724096,-0.63901,-0.263197,-0.616546,0.094481,2
0.544054,-0.187295,0.603911,0.042296,0.867051,-0.331161,0.155707,-0.77809,-0.21942,2
0.426419,-0.315286,0.654806,-0.045179,1.012616,-0.032767,0.679669,-1.437746,-0.26843,2
0.279334,-0.434357,0.507839,0.305197,0.742258,-0.172741,1.085464,-0.910994,-0.228088,2
0.26291,-0.526259,0.437446,0.092151,0.96075,-0.215995,0.419268,-1.466574,-0.399128,2
0.073531,-0.399269,0.368896,0.169486,0.800491,-0.232383,0.52889,-0.896238,-0.569357,2
-0.213143,-0.221658,0.197623,-0.304555,0.725416,-0.200756,0.715686,-0.857733,-0.404575,2
-0.482283,-0.060378,-0.11391,-0.211249,0.463138,-0.392134,-0.253948,-0.313475,0.163444,2
-0.736716,0.079412,-0.252234,-0.005884,0.234588,-0.268916,-0.805637,0.131114,0.137744,2
-0.744686,0.328456,-0.443747,0.068964,-0.452268,0.213482,-0.601179,-0.308913,-0.211601,2
-0.539106,0.392806,-0.38535,0.27195,-0.68633,0.19404,-0.177354,-0.55687,-0.469975,2
-0.171349,0.417346,-0.083168,0.35913,-0.168558,-0.239938,-0.698557,-1.025983,-0.622134,2
-0.018785,0.291759,0.079989,0.676287,0.264431,-0.599466,-0.290593,-1.585761,-0.630924,2
-0.053918,0.339715,0.276493,0.459241,0.337058,-0.393096,0.27026,-0.858316,-1.00862,2
-0.063438,0.331764,0.356685,0.007558,0.762367,-0.337388,-0.057432,-2.032259,-1.047998,2
0.438869,-0.314387,0.627549,0.568022,1.004602,-0.585088,-0.158888,-1.807972,-0.532027,2
0.711025,-0.359658,0.521714,0.406119,0.468324,-0.192676,-0.206916,0.012184,0.719445,2
0.519206,-0.082609,0.346565,-0.347692,0.710724,0.133733,0.404494,-0.367359,0.466214,2
0.373669,-0.111521,0.110879,-0.325792,0.980542,0.197795,-0.803176,0.893091,0.474218,2
0.8501,-0.374205,0.197862,-0.403359,0.330553,0.533617,-0.976194,1.508704,0.640293,2
0.904163,-0.21814,0.352829,-0.573841,0.051798,0.67404,0.465676,0.748468,1.379504,2
0.98232,-0.114793,0.393563,-0.938009,-0.133746,0.782806,1.506697,2.374067,1.157169,2
1.035086,-0.007894,0.356101,-1.594726,-0.08366,0.508162,0.159365,0.133617,-0.291493,2
1.02005,-0.161194,0.317796,-1.472449,-0.48474,0.097916,0.290645,1.65858,-0.143974,2
0.884353,-0.458175,0.302707,-1.384733,0.212234,-0.452399,-0.688737,2.512437,0.590625,2
0.716499,-0.911587,0.796794,-0.817869,-0.550667,0.713458,1.743575,-2.313919,0.159986,2
0.65861,-1.244529,0.690759,-0.057389,0.259887,0.133568,-0.228908,1.877018,1.488761,2
0.691078,-1.645929,0.408216,-0.279648,0.083418,0.535994,-0.016232,-1.129048,0.153791,2
0.836669,-1.813036,0.092294,0.06356,0.203003,0.004745,0.50467,-0.383397,0.125497,2
0.987273,-1.199185,0.179191,0.010214,0.074163,-0.287415,-0.777593,-0.463897,-0.160685,2
0.273294,-1.589684,-0.189822,0.009669,-0.160919,-0.394743,0.070865,0.132705,0.210477,2
-0.259553,-1.290345,0.05822,0.002267,-0.330253,-0.087322,0.155542,-0.446378,-0.159193,2
-1.140356,-0.450371,-0.066798,0.084273,-0.355912,0.066242,0.009488,-0.461512,-0.112879,2
-1.625106,0.247829,-0.454534,0.236571,-0.397584,0.152426,0.011448,-0.494476,-0.468189,2
-1.707553,0.668048,-0.959174,0.288459,-0.517761,0.139809,-0.144205,-0.282469,-0.58568,2
1.216772,-1.180352,0.074932,0.303446,-0.66164,-0.057916,-1.043024,-1.217202,0.898539,2
-2.791868,6.584046,-0.947258,0.347059,-0.754029,0.090281,2.1811,3.425734,2.566894,2
-2.49204,3.97747,-0.55264,0.407152,-0.59754,0.911193,2.254317,4.541023,0.111694,2
-2.32569,1.975394,-0.398514,0.36456,-0.33931,0.640974,0.515725,-1.527031,-0.619325,2
-0.974729,0.194134,-0.491598,0.318347,-0.235862,-0.333877,-1.222959,-2.610656,0.26854,2
-0.441041,-0.672315,-0.923979,0.300828,0.025642,-0.775347,-1.4703,0.215416,-0.368172,2
-0.226426,-0.092322,-0.058828,0.404962,0.071083,-0.555329,-1.087338,-0.337115,-0.070685,2
-0.410477,-0.950961,0.686125,0.639862,0.268292,-0.1102,-0.089043,-0.003151,0.200629,2
-0.988633,-0.840903,0.848468,0.695625,0.423537,0.034142,0.525979,0.118705,0.155844,2
-0.493957,-1.138969,0.887075,0.660979,0.271953,-0.084905,-0.214903,-0.076232,0.095716,2
-0.126999,-0.399601,1.075746,0.469667,0.139867,-0.053167,-0.559673,0.546221,0.258258,2
1.664081,0.343724,1.789638,0.261414,0.143996,-0.102067,-0.323875,0.443424,-0.013646,2
2.681212,0.87216,1.841654,0.134445,0.170085,-0.371377,-0.654305,0.213167,-0.081264,2
2.032299,1.523271,1.672169,0.003985,0.08356,-0.491598,-0.855303,0.017717,0.098648,2
0.275305,2.18792,1.181996,0.004663,-0.006019,-0.32003,-0.2778,0.25717,0.29608,2
-0.306482,2.229902,1.056493,-0.027117,-0.068403,-0.220035,0.858791,-0.163734,0.342497,2
-1.005871,0.013941,0.162265,-0.045937,-0.234343,0.015743,0.100933,0.160458,0.064719,2
-0.916778,-0.605719,0.092676,-0.059063,-0.47323,0.414354,-0.332304,0.531668,0.459341,2
-0.333501,-0.761095,0.406084,-0.20322,-0.543501,0.471209,-0.0491,0.743637,0.152686,2
-0.340272,-0.868004,-0.287521,-0.269716,-0.589557,0.325649,0.074678,0.254081,0.101926,2
-0.006087,-0.969835,-0.155129,-0.202804,-0.758048,0.36716,-0.007097,-0.233582,0.279244,2
-0.871319,-0.191985,-0.89073,-0.162098,-0.746633,0.639737,0.072237,-0.184982,0.270844,2
-1.208892,-0.507457,-1.502944,0.011439,-0.598783,0.795163,-0.051637,-0.292302,-0.117352,2
-0.688165,-0.660174,-0.97761,0.128036,-0.454021,0.696227,-0.251893,-0.685039,-0.233544,2
0.411144,0.212011,0.84905,0.19374,-0.472126,0.709467,-0.942058,0.368185,0.389271,2
3.015332,-0.03566,1.007824,0.211567,-0.597237,0.169815,0.005409,0.589728,0.492513,2
1.447624,-0.784814,-0.956208,-0.140159,-0.723301,-0.544955,0.565787,0.284454,-0.586406,2
0.321902,-0.814227,-1.979137,-0.420407,-0.597763,-0.721378,0.894152,-0.180398,0.032049,2
-0.454654,-0.767219,-2.10791,-0.200543,-0.085871,-0.327371,0.36887,-0.073963,0.048113,2
-0.197213,-1.099978,-1.570169,-0.12972,0.479181,0.224499,-0.380427,0.439944,0.043411,2
-0.917934,-0.888012,-1.330595,-0.111623,1.099746,0.500188,-0.133616,-0.161987,0.486548,2
-0.603663,-0.959193,-0.639958,0.124617,1.395835,0.428184,-0.023379,-0.610268,-0.111563,2
-1.549115,-0.035601,-0.393655,0.226636,1.138249,0.155412,-0.279105,-0.428529,0.193333,2
-1.956158,0.515833,0.176989,0.193989,0.732257,0.008331,0.014608,-0.34032,0.220095,2
-0.494189,-0.583135,0.351262,0.070049,0.419024,-0.241569,0.133641,-0.079622,-0.125662,2
-0.532258,0.08449,0.796427,-0.048629,0.206097,-0.331319,0.503756,0.239943,0.106444,2
-0.384067,-0.457828,0.846957,0.157474,0.578631,-0.080419,-0.301229,0.066557,0.023396,2
0.234574,-0.494106,1.198663,0.187715,0.784299,0.064852,-0.905816,0.672428,0.709947,2
0.374012,0.414111,1.477693,0.167068,0.58991,0.105383,-0.577549,0.76471,0.347861,2
0.222034,1.687508,1.372516,0.223549,0.117747,0.055261,-0.044102,0.196377,-0.222646,2
0.450133,2.867024,1.676397,0.158349,-0.354852,-0.075649,0.222125,-0.688369,-0.065386,2
0.928348,4.652503,1.624035,-0.057269,-0.705619,-0.338095,0.177083,-1.257352,0.219502,2
0.780827,4.455902,1.176679,-0.370858,-1.255508,-0.329473,0.187666,-0.366462,0.113888,2
-0.477544,2.311453,-0.220151,-0.445348,-1.258778,0.051947,0.56949,0.720606,-0.068248,2
-0.553845,-0.179267,-1.018605,-0.390253,-1.014574,0.56201,0.580147,1.199217,0.184533,2
-0.512767,-1.161307,-0.993138,-0.30872,-0.746641,0.866413,0.387812,1.761543,0.239841,2
-1.374947,0.104736,-0.186434,-0.200376,-0.582922,0.792844,-0.275795,1.24339,0.21777,2
0.306502,-0.862228,-0.217216,0.005534,-0.916204,0.50357,-0.771733,0.468615,0.391304,2
-1.241123,0.483412,-1.145936,0.026312,-1.139989,0.338502,-0.632939,0.444598,0.190987,2
-0.672251,0.571964,-0.494629,0.138907,-1.06391,-0.084745,-0.305936,0.316489,-0.001271,2
0.684252,-0.390923,1.316167,0.585274,-0.864688,0.524096,-0.140174,0.041415,0.294032,2
0.353995,-0.587134,1.483717,0.719757,-0.342583,0.293036,0.81435,-0.612206,0.260954,2
-0.298188,-1.312432,-0.562419,0.381179,-0.467191,-0.668324,1.10278,-0.83718,-0.436511,2
-0.701721,-0.658713,-0.535729,-0.142525,-0.622805,-1.013282,0.431443,-0.913661,-0.258513,2
-0.784638,0.885973,0.644536,-0.313935,-0.354291,-0.823259,-0.537743,-0.78762,0.081471,2
-0.061224,-1.304384,0.426254,-0.110245,0.344472,-0.181524,-0.586334,0.09868,0.160402,2
1.009163,-2.321572,0.420312,-0.211666,1.082939,-0.064284,0.286777,0.249032,0.15703,2
1.359172,-2.45405,0.293197,-0.263206,1.389782,-0.220045,0.688789,0.389467,0.163088,2
1.831424,-2.905694,-1.164286,-0.210597,1.356241,-0.296703,0.479435,0.135152,-0.106539,2
-0.845054,-1.048174,-2.256587,-0.253833,0.841879,-0.003102,-0.012094,-0.224767,-0.066947,2
-0.42591,2.513526,2.202333,-0.394663,0.765329,0.068553,-0.367948,-0.256263,0.180483,2
1.344317,4.663713,3.339574,-0.318283,0.883812,0.038539,-0.03672,0.037324,0.203636,2
6.743578,-7.006274,-0.631596,-0.175387,0.819676,0.180655,0.446434,0.235333,0.13362,2
1.746654,-3.360949,3.239774,-0.209098,0.569127,-0.160145,0.648548,0.235332,0.189414,2
-4.947922,6.060223,0.599953,-0.494201,0.196566,-0.263946,0.450571,0.345936,0.185813,2
-3.767156,5.819925,-1.118392,-0.637428,0.139541,0.088924,0.478546,-0.228669,0.168275,2
-2.441106,3.793604,-0.822495,-0.376241,0.504266,0.135405,0.64545,-0.951233,0.107895,2
0.358532,0.000748,-0.691665,-0.028524,0.851083,-0.180765,0.355428,-0.97719,-0.074393,2
0.606573,-1.227922,-1.29935,-0.069417,0.644381,-0.273159,-0.063295,-0.302696,0.088811,2
0.04709,-1.925122,-1.639598,-0.028496,0.017775,-0.136311,-0.298041,0.30019,0.219884,2
0.19977,-2.460648,-1.351008,0.170076,-0.316236,0.232267,0.27016,0.346628,0.255657,2
1.943281,-3.010574,-0.020909,0.213576,-0.303479,0.568189,0.466086,-0.177131,0.228859,2
1.493104,-0.162043,1.389178,0.239342,0.153142,0.41909,0.627908,-0.839776,-0.043084,2
5.856312,-1.145935,0.509647,0.262523,0.256522,0.043324,0.55715,-0.604274,-0.084052,2
4.926181,-6.006592,0.541251,0.172495,0.14199,-0.488627,-0.023001,-0.421358,-0.234252,2
1.481037,7.082663,7.983915,0.241077,-0.031227,-0.592626,-1.286492,0.869869,0.234079,2
-4.739613,6.05476,-0.410656,0.237278,0.030474,0.167129,-1.540599,1.742819,0.540136,2
-2.672055,1.480808,-0.115786,0.389792,0.446722,0.799549,-0.604634,1.346138,0.212934,2
0.35589,-2.73961,-1.07683,0.710379,0.708501,0.760418,-0.17618,0.277293,0.259386,2
0.161814,-3.163368,-1.476171,0.630094,0.297042,0.027856,-0.663327,-0.379153,0.152133,2
-0.083044,-1.475675,-0.998815,0.49916,-0.323793,-0.514602,-0.490587,-0.63579,-0.128716,2
0.339586,-1.610359,-0.432236,0.640997,-0.716073,-0.302311,-0.479988,-0.188044,0.301275,2
0.624742,-0.882513,0.518174,0.699403,-0.572839,-0.220573,0.450873,-0.676476,-0.130653,2
1.76058,-1.254568,0.725265,0.638214,-0.58038,-0.517437,0.322896,-0.469697,0.01654,2
1.336851,0.679166,1.293567,0.576674,-0.580036,-0.613437,-0.285264,0.187248,0.390357,2
-3.242713,5.32964,0.108077,0.641687,-0.635724,-0.383172,0.077326,0.237433,0.096741,2
-3.03578,3.804295,-0.140864,0.718791,-0.329722,-0.083444,-0.468414,0.415395,0.251769,2
-2.386153,2.102717,0.122881,0.789887,-0.361045,0.267654,-0.868055,0.412495,0.116057,2
-1.158947,0.756728,0.521014,0.709957,-0.632773,0.426755,-1.193302,0.185321,0.0536,2
0.409369,-0.839296,1.195047,0.529854,-0.843883,0.795917,-0.851359,0.280469,0.192335,2
1.202282,-1.620253,0.825468,0.29476,-1.071321,1.038139,-0.061249,0.426589,0.095673,2
0.333439,-0.767465,-0.339636,0.016383,-1.043285,1.176945,0.674223,0.113496,-0.169689,2
0.085076,-0.118875,-0.711349,-0.06634,-0.700486,0.807813,0.95026,-0.338663,-0.00192,2
0.165014,-0.092657,-0.850533,-0.289824,-0.636815,0.081302,0.67401,-0.148625,-0.012106,2
0.212583,-0.550133,-0.633623,-0.559933,-0.516143,-0.272851,0.070477,0.08447,0.114231,2
0.338761,-0.717362,-0.105159,-0.878778,-0.314594,-0.24482,-0.272322,-0.167353,0.169468,2
0.356451,-0.486585,0.288349,-1.291598,0.025844,-0.261438,-0.023449,-0.120855,0.204104,2
0.270461,-0.277983,0.370521,-2.061961,1.052745,-0.257106,0.347343,0.198887,0.160942,2
0.231715,-0.199012,0.42793,-1.657921,2.227782,-0.237942,0.447555,0.15895,0.136588,2
0.062492,0.13206,0.425073,-1.033426,1.914369,0.021632,0.397418,0.211136,-0.028311,2
-0.298304,0.545113,0.270237,-0.757197,0.813051,0.801362,-0.038628,0.192131,0.049587,2
-0.95224,0.615273,0.238633,-1.012303,0.354205,0.908886,-0.326456,-0.081273,0.381521,2
-1.485161,0.313334,0.741973,-0.538253,0.289175,0.245806,-0.036166,-0.023177,0.120058,2
-0.554334,0.463601,0.308282,-0.502036,0.251024,0.258108,0.326677,0.001753,0.160642,2
0.029837,-0.026457,-0.23726,-0.26724,0.245726,-0.108946,0.479215,-0.236304,0.084221,2
-0.342815,0.699457,-0.189746,-0.152152,0.214884,0.175701,0.130063,-0.279889,0.076698,2
-0.303534,1.265918,-0.06698,0.046965,0.744566,0.106209,-0.208467,-0.192998,0.050924,2
-0.73336,2.875103,-0.055201,0.854579,0.354857,-0.251832,-0.293819,-0.194353,0.112641,2
-1.713028,1.167993,-0.756578,1.586192,-0.236555,-0.491683,-0.149506,-0.0089,0.116784,2
-0.365672,-0.02025,-0.113628,1.410291,-0.575716,-0.536513,0.13791,0.118132,0.231288,2
0.279327,-0.49853,0.294988,1.030539,-0.406829,-1.019118,0.309419,0.16201,0.162469,2
0.95016,-1.194579,0.715554,1.403234,-0.50483,-1.126881,0.058058,0.246915,0.021754,2
1.034087,-1.51193,0.747608,1.463236,-1.519756,-0.44821,-0.256613,0.156719,0.100902,2
1.168831,-1.752221,0.402679,1.302996,-2.857688,0.142099,-0.312166,0.055604,0.011243,2
0.959651,-1.542629,0.172402,1.591603,-0.266216,-0.425487,-0.153266,-0.14178,0.054725,2
0.28551,-1.841091,-0.095223,1.011789,0.537968,-0.068408,0.008766,-0.254368,0.258601,2
0.2624,-1.991709,-0.077695,-0.020831,-0.321042,0.152625,0.1121,0.114564,0.275974,2
0.20009,-1.66581,-0.20391,0.422293,0.339836,-0.385609,0.262858,0.517895,0.155227,2
0.393247,-1.280493,-0.35714,1.48155,-3.029994,-0.74485,0.277491,0.391222,0.183932,2
0.407311,-1.15988,-0.584385,-1.764746,2.586188,1.38666,5.050387,9.384703,-1.762437,2
0.2767,-1.165503,-0.360816,-8.019807,1.21442,1.501288,0.739402,0.24012,-0.766455,2
0.431242,-1.124626,-0.219237,-1.659001,1.359819,-1.105342,1.262419,0.382119,-0.138806,2
0.323082,-0.655694,0.147025,-1.094542,-1.083271,0.258457,0.924256,-0.341846,0.378194,2
-0.043119,1.692204,1.022597,-0.53479,-2.521256,0.859335,0.708363,-0.744813,0.669765,2
-1.162785,5.944112,1.899444,0.870351,-0.878911,0.364051,0.012921,-0.242459,0.200779,2
-0.323201,2.503696,1.440531,1.072141,1.063786,0.057288,-0.456343,0.120697,0.133089,2
1.0341,0.60034,0.89702,0.341779,1.173261,0.334971,-0.416248,0.057226,0.174459,2
0.464021,0.462466,-0.143991,-0.4482,0.393939,0.405242,-0.250484,0.143041,0.10625,2
-0.303178,1.255657,-0.125213,0.221214,-0.149902,-0.001046,0.086857,-0.194214,0.495457,2
-0.357334,1.281782,0.018591,0.911081,-0.545309,-0.133823,0.43935,-0.126828,0.219711,2
0.535819,0.202875,0.084418,0.999559,-0.515629,0.028563,0.586306,-0.234919,0.076059,2
1.100752,-0.76397,-0.349824,0.859408,-0.114799,-0.155198,0.219895,-0.49789,-0.063441,2
0.664255,-1.00728,-0.541314,0.782209,0.406685,-0.560595,-0.205243,-0.222572,-0.276959,2
-0.158308,-0.755957,-0.373345,0.96091,0.857933,-0.652585,-0.398483,0.01327,-0.549095,2
0.186477,-0.900136,-0.336951,0.343013,0.83153,-0.367064,-0.3399,-0.037879,-0.364509,2
0.24946,-1.181807,-0.400579,-0.26297,1.452201,-0.294731,-0.252184,-0.211053,0.007577,2
-0.027718,-1.756878,-0.108201,-0.533231,1.945548,0.057781,0.128213,-0.20809,0.095825,2
-0.114105,-1.865358,0.412018,-0.722023,2.217661,0.309894,0.329738,-0.068443,0.496932,2
0.427001,-1.60923,0.388139,-0.998622,1.435589,0.276062,0.60978,0.081904,0.374698,2
0.756253,-1.393863,0.252967,-0.725908,0.570126,0.237827,0.829223,0.6398,0.440135,2
0.521266,-1.094975,-0.099484,-0.464296,0.29252,0.066123,0.521811,0.771768,0.249548,2
1.559396,-0.202748,0.901875,-0.359193,0.399292,-0.163417,0.199718,0.352607,0.044873,2
1.11968,2.001602,0.823426,-0.114586,0.458445,-0.157914,0.041274,-0.018482,0.16294,2
-0.305196,-2.279934,-0.363822,0.289654,0.357715,0.058925,-0.048697,-0.122618,-0.017214,2
-1.270139,-1.837528,-0.24094,0.566514,-0.124478,0.36798,0.153151,-0.133902,0.150335,2
-1.219691,0.639039,0.07116,0.336076,-0.515891,0.283385,0.253187,0.056665,0.208044,2
-1.080835,5.511299,0.369276,0.0634,-0.770815,0.079275,0.219288,0.152338,0.153295,2
-1.199257,2.21969,-0.641337,-0.039807,-0.778093,0.009562,-0.081439,0.014366,0.124189,2
-0.810885,0.193447,-0.22396,0.0116,-0.572469,0.18927,-0.14667,-0.155267,0.101262,2
0.646263,0.002548,0.658547,-0.577108,-0.399365,0.235977,0.135831,-0.068239,0.186988,2
0.57691,0.56711,0.836711,-1.055902,-0.398652,0.250429,0.080699,0.028511,0.077483,2
-0.057211,0.422114,0.344019,-0.868638,-0.258928,0.210968,-0.048002,0.079524,0.092969,2
-0.099513,0.440045,0.299337,-0.358282,-0.127722,0.065475,-0.306644,0.076088,0.102376,2
0.085311,0.122969,0.365034,0.015595,-0.148748,-0.033657,-0.294063,0.027993,0.06513,2
0.176903,-0.635799,0.240952,0.184077,-0.223759,-0.057136,-0.195868,-0.114609,0.136599,2
0.11096,-1.19583,0.116761,0.273149,-0.193245,-0.122003,-0.23679,-0.246538,0.045947,2
0.199081,-1.131806,0.341209,0.366915,-0.179369,-0.024497,-0.319283,-0.436469,0.05698,2
-0.266899,-0.487795,0.168402,0.370874,-0.045326,0.028399,-0.381514,-0.528574,0.016352,2
-0.28651,-0.566199,0.11514,0.335039,0.012635,-0.074036,-0.321248,-0.568221,0.080581,2
-0.305174,-0.499417,-0.021874,0.316826,-0.067896,-0.197283,-0.304992,-0.592271,-0.070061,2
-0.365619,-0.232239,-0.105818,0.263833,-0.045555,-0.200282,-0.22232,-0.550077,-0.036847,2
-0.303717,-0.136887,-0.097434,0.207926,-0.048459,-0.110743,-0.186725,-0.426249,0.078522,2
-0.228136,-0.024673,-0.089366,0.19528,-0.055139,-0.07044,-0.277701,-0.346666,-0.040545,2
-0.242046,0.276807,-0.085502,0.126236,-0.024655,0.042847,-0.313642,-0.352315,-0.055612,2
-0.246982,0.621764,-0.086218,0.005236,-0.034783,0.04654,-0.26568,-0.296918,-0.106221,2
-0.341751,0.929591,0.021247,-0.116898,-0.093521,0.069313,-0.204613,-0.077631,0.108003,2
-0.298202,1.114911,0.108982,-0.255254,0.012986,0.048635,-0.190383,0.199873,0.056955,2
-0.066248,0.719161,0.150989,-0.162555,0.066136,0.059395,0.251305,0.624987,0.346909,2
-0.019945,0.259774,0.401999,-0.040359,0.153324,0.206126,0.945869,1.117469,0.651456,2
-0.075893,0.155071,0.430903,-0.053869,0.235322,0.291789,1.026291,0.985804,0.600797,2
-0.05888,0.076509,0.248314,-0.116146,0.105274,0.210001,0.526089,0.454261,0.270519,2
0.185251,-0.223415,0.150789,-0.026946,-0.075108,-0.041536,0.022366,-0.015794,0.093421,2
0.303724,-0.389793,0.064819,-0.035216,-0.088954,-0.238522,-0.309085,-0.189322,-0.049413,2
0.25501,-0.275818,0.023199,0.031429,-0.047841,-0.105781,-0.439149,-0.169504,0.014998,2
0.108962,-0.094391,0.089466,0.108177,-0.088354,0.031445,-0.219173,-0.017153,0.041741,2
0.098174,-0.024537,0.137109,0.118356,-0.090213,0.160252,0.072533,0.059338,0.129331,2
0.125761,0.070625,0.115273,0.102811,-0.151027,0.100649,0.218205,0.068692,0.145821,2
0.249698,-0.014059,0.202596,0.057186,-0.145314,0.050889,0.238121,0.118001,0.164366,2
0.421819,-0.031945,0.299252,0.034277,-0.125254,0.049964,0.108336,0.189608,0.149584,2
0.447454,0.020103,0.343818,-0.015297,-0.008522,0.009465,-0.089019,0.116498,0.103804,2
0.242887,0.333492,0.278647,-0.046371,0.074787,-0.012585,-0.121142,0.066395,0.122219,2
0.098953,0.452781,0.231847,-0.070344,0.054306,-0.028157,0.014164,0.000545,0.117126,2
-0.047902,0.534233,0.173363,-0.119913,0.036034,0.055945,0.144844,-0.027009,0.110357,2
-0.01568,0.357495,0.138355,-0.148209,0.055099,0.083511,0.09594,-0.0571,0.12516,2
0.014353,0.077413,0.117367,-0.17112,0.055057,0.094722,0.041744,0.044246,0.147926,2
-0.021251,-0.015978,0.121254,-0.159419,0.067367,0.112045,0.03993,0.099811,0.168836,2
-0.057642,-0.084334,0.103591,-0.134403,0.056348,0.093765,0.097736,0.093615,0.141168,2
-0.0667,-0.162793,0.118815,-0.076928,0.043009,0.072945,0.087868,0.032359,0.120419,2
-0.072295,-0.199889,0.093275,0.036163,0.030314,0.018743,0.056731,0.012249,0.138344,2
-0.092195,-0.14339,0.057105,0.063787,0.020149,-0.069095,0.032678,0.053179,0.107101,2
-0.082998,-0.056629,0.084505,0.175688,0.012233,0.028355,0.011935,0.128652,0.150783,2
-0.086696,-0.084604,0.105749,0.170536,-0.065973,0.077429,0.035779,0.032307,0.120308,2
-0.034703,0.025669,0.154874,0.122538,-0.020974,0.036524,0.052622,-0.093533,0.138672,2
-0.02909,0.132081,0.13123,0.070828,-0.02554,-0.051112,0.067693,-0.052512,0.134526,2
-0.032823,0.133175,0.170471,-0.006017,0.000463,-0.030696,0.067868,0.045262,0.120413,2
-0.020142,0.124769,0.214655,0.002247,0.017649,0.009267,0.00666,-0.027939,0.128365,2
-0.048908,0.091117,0.188834,-0.021059,3e-05,0.046074,0.003294,-0.089208,0.111352,2
-0.034492,0.020036,0.107425,-0.031631,-0.030432,0.078069,0.024829,-0.128722,0.09087,2
-0.05383,-0.025575,0.101525,-0.035089,-0.029307,0.085609,-0.007003,-0.103262,0.093643,2
-0.082506,-0.023732,0.098983,-0.05195,0.012706,0.073713,-0.066864,-0.150036,0.079089,2
-0.075672,-0.059364,0.087253,-0.061362,0.003394,0.025656,-0.089044,-0.190051,0.092164,2
-0.041795,-0.053428,0.10746,-0.017269,0.022845,0.039072,-0.05207,-0.107727,0.098395,2
-0.026633,-0.047572,0.12503,0.036116,0.022054,0.027613,-0.06148,-0.119607,0.102443,2
-0.050058,-0.044318,0.175286,0.076625,-0.020224,0.036128,-0.077658,-0.189044,0.090896,2
-0.025931,-0.006528,0.150554,0.151199,-0.025809,0.025469,-0.008755,-0.168093,0.128181,2
-0.039378,0.000661,0.136533,0.133914,0.022092,-0.00585,0.02171,-0.143665,0.107761,2
-0.047236,0.042651,0.149324,0.162308,0.023767,-0.00117,-0.001364,-0.112691,0.151523,2
-0.055081,-0.006928,0.10518,0.072292,0.064785,-0.038925,-0.031658,-0.276828,-0.016139,2
-0.006484,0.023317,0.089739,0.171721,0.053662,0.02979,-0.12865,-0.269752,0.097543,2
-0.032042,-0.015502,0.090592,0.040163,0.043293,0.063526,-0.076083,-0.160084,0.105193,2
-0.119323,0.042728,0.117595,0.041012,0.056673,0.045094,-0.003453,-0.021071,0.099451,2
-0.072088,0.021145,0.130733,0.047073,0.064267,-0.00045,-0.047144,-0.159657,0.031237,2
-0.115759,0.000189,0.13004,0.010907,0.071731,-0.057481,-0.087252,-0.305972,0.05351,2
-0.092566,-0.025013,0.183352,0.047525,0.009323,-0.014126,-0.045772,-0.164705,0.145327,2
-0.087146,-0.002104,0.153895,0.028107,0.034832,-0.006795,0.038529,0.06579,0.102926,2
-0.077243,0.007409,0.164606,0.024341,-0.036035,-0.072269,0.017654,0.075995,0.16137,2
-0.040621,0.004511,0.168908,0.005916,-0.042055,-0.068156,0.079326,0.051814,0.14064,2
-0.000893,0.072984,0.127402,0.024481,-0.027958,-0.008658,0.094861,-0.015956,0.113646,2
0.041391,0.03304,0.09202,0.173797,-0.004169,0.051555,0.019834,-0.108517,0.101661,2
-0.119784,-0.019025,-0.029755,0.114179,-0.041996,0.076891,0.005751,-0.0276,0.159605,2
0.206818,-0.07018,0.26053,0.028042,-0.029492,0.08289,0.153435,0.195789,0.215422,2
0.193177,0.044998,0.350252,-0.092816,-0.036252,0.144091,0.265905,0.332944,0.244526,2
0.159082,-0.00549,0.286955,-0.145181,0.037709,0.118761,0.196708,0.258898,0.176896,2
0.119935,-0.069433,0.160468,-0.136731,0.029824,0.041978,0.049587,0.007238,0.090477,2
0.014013,-0.013025,0.005775,-0.119963,-0.040136,0.024642,-0.028243,-0.058036,0.121773,2
-0.06715,0.041455,-0.044329,-0.09536,-0.034037,0.023884,-0.041964,0.039735,0.117672,2
-0.058299,0.16121,0.083853,-0.074527,-0.061978,0.118823,-0.008975,0.101279,0.125982,2
-0.046146,0.08833,0.14797,-0.033761,-0.034165,0.065037,0.10832,-0.013017,0.130333,2
0.10647,0.137083,0.184871,-0.080653,-0.033752,0.122025,0.190801,0.016852,0.14042,2
0.161288,0.186133,0.209976,-0.088027,-0.004511,0.068711,0.136189,0.010712,0.119193,2
0.2745,0.202412,0.161205,-0.087226,0.006418,0.019839,0.019884,0.060167,0.110602,2
0.275729,0.21892,0.179472,-0.085631,0.014638,-0.000432,0.041877,0.179311,0.107158,2
0.300774,0.092669,0.224019,-0.076661,0.092452,0.016191,0.024337,0.134162,0.105227,2
0.25866,0.023955,0.228737,-0.039592,0.035023,0.044695,0.044334,0.027216,0.142699,2
0.150112,-0.003131,0.236749,-0.059552,0.037199,0.031364,0.063824,-0.052318,0.12688,2
0.034626,0.038045,0.1732,-0.050111,-0.037453,-0.016098,0.101301,-0.025712,0.108871,2
-0.03774,0.053421,0.139242,-0.037312,-0.027108,0.000231,0.072069,-0.045534,0.088285,2
-0.01265,0.053295,0.097168,-0.029801,0.044195,0.010949,0.019133,-0.048831,0.129964,2
-0.013971,0.063707,0.068306,-0.016829,0.006502,0.026021,-0.00574,0.034665,0.099377,2
0.023027,-0.042462,0.041451,0.020467,0.085341,0.031013,-0.002314,0.02963,0.105316,2
0.039011,0.006201,0.196045,0.037424,0.000985,0.04947,0.049603,-0.051518,0.120752,2
0.035936,0.094067,0.217499,0.061235,-0.073085,0.036665,0.0605,-0.074738,0.14353,2
0.061399,-0.060037,0.172763,0.078609,-0.019742,-0.031814,0.033218,-0.048843,0.129038,2
-0.031083,-0.045002,0.148191,0.072065,0.046735,-0.060539,0.069693,-0.069203,0.125863,2
-0.056452,-0.082442,0.091186,0.036259,0.057925,-0.037662,0.071995,-0.069,0.157474,2
-0.058846,-0.074616,0.066224,0.027099,0.085558,0.037281,0.064557,-0.012225,0.091125,2
-0.043338,-0.087222,0.104939,0.023147,0.102097,0.069122,0.012351,-0.06102,0.104897,2
-0.085679,-0.074396,0.06292,-0.026804,0.105656,0.015145,-0.02373,-0.067845,0.106395,2
-0.064593,-0.034656,0.068413,0.02726,0.07735,0.042097,0.045974,-0.039032,0.140091,2
-0.047452,-0.077066,0.087301,-0.051002,0.088106,0.107187,0.099385,-0.088688,0.08351,2
0.004059,0.019478,0.139673,-0.067923,0.059087,0.073513,0.047917,-0.123167,0.098034,2
0.080049,0.004775,0.108711,-0.069262,0.002835,0.028651,0.017894,0.019016,0.143644,2
0.080868,-0.002777,0.17382,-0.135641,0.023436,0.015005,0.06239,0.081291,0.13942,2
0.095123,-0.055084,0.246558,-0.019607,0.052551,0.022774,0.109549,-0.027638,0.122568,2
0.099027,-0.068743,0.222953,0.002553,0.098296,-0.001997,0.061477,-0.12462,0.118408,2
0.030305,0.024086,0.148025,0.007462,0.081235,-0.013946,0.034638,-0.038775,0.124773,2
0.000464,0.016131,0.115775,0.04695,0.031549,-0.015081,0.068716,0.007357,0.127999,2
0.002041,0.02503,0.121762,0.057043,0.067393,0.034228,0.093999,-0.013578,0.123938,2
0.053943,-0.013385,0.120239,0.049603,0.069631,0.026759,0.068945,-0.05169,0.11555,2
0.05331,-0.014999,0.089274,-0.031463,0.056745,0.037055,0.08294,-0.039205,0.111563,2
0.078691,-0.001119,0.113876,-0.041867,0.057004,0.047956,0.093614,-0.004329,0.119735,2
0.114123,-0.060865,0.124619,-0.072522,0.076147,0.066782,0.111905,-0.032402,0.134154,2
0.158193,-0.058199,0.136515,-0.085531,0.121466,0.06189,0.117548,-0.026944,0.145275,2
0.172521,-0.073696,0.147088,-0.092968,0.123853,0.048724,0.131512,-0.01309,0.131332,2
0.19026,-0.049793,0.153056,-0.141549,0.175522,0.059554,0.138085,-0.021815,0.108985,2
0.184538,-0.059984,0.128254,-0.126702,0.189019,0.045932,0.135945,-0.051425,0.110448,2
0.189398,-0.075515,0.111869,-0.129745,0.166316,0.065778,0.093778,-0.034682,0.103608,2
0.174168,-0.045522,0.107093,-0.130358,0.176293,0.06588,0.112732,-0.008725,0.104155,2
0.144956,-0.025836,0.154315,-0.090933,0.111437,0.090855,0.100591,0.02978,0.141796,2
0.088884,-0.12928,0.140959,-0.105415,0.113723,-0.010075,0.112778,0.05026,0.112576,2
0.115001,-0.057945,0.159022,-0.076765,0.078615,0.067719,0.164926,0.012578,0.125225,2
-0.016683,-0.055281,0.098607,-0.109643,0.091279,0.036386,0.199095,-0.002513,0.11959,2
0.012942,-0.084566,0.065296,-0.09377,0.08785,0.031629,0.209235,-0.047073,0.081284,2
-0.004505,-0.111019,0.02625,-0.160178,0.07635,0.013414,0.209536,-0.049993,0.106535,2
-0.021948,-0.173158,0.075825,-0.110474,0.15264,0.05037,0.341444,-0.090381,0.236835,2
-0.119771,-0.074264,0.085411,-0.204237,-0.053415,0.272975,0.383619,-0.180659,0.073827,2
0.061484,-0.266659,-0.069877,-0.294476,0.385022,0.096697,0.357545,-0.131647,0.121943,2
0.155981,-0.293995,-0.157608,-0.252246,0.227454,0.155832,0.288176,-0.127111,-0.007744,2
0.135372,-0.197512,-0.126248,-0.254909,0.424161,0.197674,0.013873,-0.171666,0.020679,2
0.446733,-0.399869,-0.046977,-0.177359,0.540865,0.086642,0.066479,-0.186016,0.044259,2
0.300135,-0.132337,0.148216,-0.065497,0.398335,0.090631,-0.014192,0.115363,0.171803,2
0.28615,-0.013018,0.30519,-0.072846,0.243141,0.085152,0.187644,0.087872,0.008859,2
0.313459,-0.084941,0.286667,0.019437,0.120855,0.089359,0.212096,0.114716,0.073572,2
0.182335,0.071948,0.23765,0.025415,0.014752,-0.005164,-0.205059,-0.152111,0.207917,2
-0.08465,0.333223,-0.011861,0.054911,-0.111677,-0.136234,0.156677,-0.280991,0.061028,2
-0.204382,0.434159,0.127039,0.107331,-0.107292,-0.090217,0.325565,-0.160617,-0.060071,2
-0.161322,0.344812,0.027891,0.19779,-0.102244,0.063002,-0.152315,0.156105,0.198606,2
-0.243683,0.363786,0.04019,0.234977,-0.156557,-0.041871,0.001659,0.24044,0.057594,2
-0.35575,0.218769,0.266562,0.153571,-0.359323,-0.253465,0.197717,0.032847,0.162566,2
-0.266562,-0.036216,0.216352,0.101285,-0.392663,-0.112503,0.241172,-0.256452,0.124295,2
-0.355801,0.002186,-0.158068,0.090688,-0.202767,0.413024,0.244504,-0.119785,0.010242,2
-0.286238,-0.104425,-0.763858,0.086574,0.077326,0.67876,-0.20073,0.229579,0.161981,2
-0.448359,-0.206861,-0.956435,-0.145925,-0.082782,0.613448,-0.533032,0.599366,0.187292,2
-0.774567,-0.024446,-0.639505,-0.299728,-0.132,0.364076,-0.12453,0.279993,0.040774,2
-0.777356,-0.019712,0.213167,-0.52016,-0.281719,0.303633,-0.471589,0.044426,0.055524,2
-0.701752,0.000278,0.319753,-0.430061,-0.372058,-0.046793,-0.418886,0.474246,0.396211,2
-0.51825,0.253014,0.226375,-0.300825,-0.471277,-0.052419,0.302962,0.377344,0.229583,2
-0.348949,0.797393,0.231494,-0.195589,-0.570242,-0.030068,0.686254,-0.253109,-0.023292,2
0.202305,0.55833,0.443187,-0.039047,-0.708929,-0.02119,-0.003149,-0.368029,-0.083755,2
0.353638,0.549896,0.63858,0.151941,-0.778944,-0.012082,-0.810642,0.174209,0.101655,2
0.81504,-0.109501,0.460404,0.236328,-0.688177,-0.133957,-0.406432,-0.070879,0.074107,2
0.11692,0.108805,0.344715,0.320744,-0.644715,-0.211111,-0.072135,-0.171721,-0.01883,2
0.163648,-0.127074,0.473499,0.334444,-0.598303,-0.143565,-0.518669,0.202192,0.098306,2
0.213479,-0.186188,0.53844,0.4845,-0.297609,-0.095292,0.057697,0.075877,0.176769,2
-0.687903,0.141762,0.166471,0.460089,-0.205473,-0.030266,-0.035683,0.202537,0.033741,2
-0.811881,0.547977,0.388123,0.352807,-0.053131,0.032046,-0.708986,0.329048,0.173151,2
0.421328,-0.212287,0.556355,0.142781,-0.123069,-0.115593,-0.302363,0.344988,0.173994,2
0.200768,0.052833,0.542817,0.077941,-0.028727,-0.336968,-0.011451,0.206107,0.196342,2
0.37105,-0.067559,0.424983,-0.065183,0.187342,-0.229942,0.038584,0.074534,0.12625,2
0.238907,-0.112085,0.156536,-0.0951,0.35946,-0.134012,0.202993,-0.092985,0.157494,2
0.090373,-0.058717,0.04445,0.042707,0.398758,0.015273,0.109718,-0.135229,0.183273,2
0.006254,-0.002042,-0.044724,0.043669,0.391838,0.081631,-0.096708,-0.232559,0.069974,2
0.084009,-0.046406,-0.148346,0.107986,0.332372,0.18894,-0.016123,-0.198095,0.124039,2
-0.116246,-0.076221,-0.05695,0.202979,0.278707,0.181763,0.187065,-0.074389,0.14854,2
0.007705,-0.170856,0.14968,0.254168,0.208617,0.134086,-0.146749,-0.047573,0.000371,2
-0.09584,-0.093998,0.142431,0.267186,-0.018537,0.061777,-0.321813,-0.053432,0.124717,2
-0.009001,-0.099865,0.255959,0.332135,-0.065001,-0.006198,-0.113802,0.151148,0.174006,2
-0.070869,0.020523,0.391339,0.228652,-0.061157,0.048834,-0.113097,0.114649,0.11173,2
0.093075,-0.057464,0.294372,0.177111,-0.11348,-0.030896,-0.005548,-0.001447,0.120336,2
-0.090222,0.04157,0.147983,-0.012678,-0.176236,-0.054984,0.044682,0.074821,0.150407,2
-0.201558,0.137595,0.191826,-0.156264,-0.232338,0.040029,-0.031279,0.022654,0.119508,2
-0.142002,0.071101,0.026745,-0.169448,-0.202379,0.167245,0.052882,0.027873,0.116351,2
-0.200203,0.0016,0.087774,-0.10909,-0.138312,0.204672,0.058713,0.062808,0.195439,2
-0.120547,-0.084501,0.119469,-0.039089,-0.208682,0.176533,0.022279,-0.110414,0.114255,2
-0.187603,-0.09252,0.278416,0.054452,-0.218702,0.144447,-0.24221,0.0087,0.123455,2
-0.150692,-0.055972,0.407022,0.161859,-0.1969,0.054179,-0.315358,0.069206,0.179101,2
-0.006439,-0.058907,0.450696,0.20455,-0.267932,-0.048987,-0.025579,-0.011437,0.095072,2
-0.027467,0.056649,0.535879,0.277061,-0.350965,-0.0606,-0.315682,0.106669,0.132821,2
-0.562615,0.398761,0.475517,0.243519,-0.379968,-0.106864,-0.064664,0.043112,-0.10837,2
-0.222342,0.690144,0.953149,0.280965,-0.421242,-0.00071,-0.701564,0.605059,0.213717,2
-0.194806,0.375568,1.118236,0.206203,-0.614068,0.019605,-1.17318,0.972688,0.421672,2
-0.556192,0.127934,0.427835,0.126033,-0.879564,-0.158915,-0.689067,0.521714,0.211085,2
-2.094916,0.708472,-0.230639,0.193232,-1.085778,-0.344917,-0.044758,-0.198311,-0.004602,2
-0.97293,-0.559688,0.081908,0.227534,-0.861359,-0.418571,0.013821,-0.202789,-0.029659,2
-0.531996,-0.794178,0.087957,0.13271,-0.56557,-0.230934,-0.259595,0.114001,0.204359,2
0.018528,-0.939277,0.175511,0.184967,-0.588228,-0.060386,-0.225065,0.096835,0.297791,2
-0.367595,-0.468002,-0.030178,0.246465,-0.617935,0.149899,-0.446718,0.112199,0.218006,2
-0.718907,0.35069,-0.063515,0.22776,-0.427226,0.216929,-0.586214,0.011871,0.168204,2
-0.498062,0.71795,0.327259,0.274218,-0.420008,0.156417,-0.40971,-0.067966,0.184861,2
-0.196499,0.892204,0.371839,0.332368,-0.399038,0.068499,-0.168512,-0.362817,0.006865,2
-0.090083,0.867822,0.371467,0.257754,-0.340581,-0.066797,-0.349074,-0.089434,0.187487,2
0.143567,0.490192,0.231266,0.268299,-0.130144,-0.104636,-0.168284,0.093878,0.227891,2
0.172811,0.373823,0.211503,0.304499,0.033994,-0.043531,0.118641,-0.220331,0.029525,2
0.183386,0.228109,0.278965,0.352912,0.107657,0.058059,0.076189,-0.279004,0.211018,2
0.26645,0.127506,0.261605,0.368927,0.057485,0.197083,0.336388,-0.283967,0.053854,2
0.338055,0.10726,0.156468,0.089866,-0.126403,0.272367,-0.187177,0.029986,-0.002485,2
0.4293,0.012265,0.011703,0.041573,-0.046378,0.189106,-0.440838,0.288549,0.026903,2
0.255643,-0.003598,-0.14869,-0.087154,0.080513,0.147202,-0.258049,0.60085,0.140467,2
0.282389,-0.139099,-0.258356,-0.093782,-0.013299,-0.056172,0.087023,0.353752,-0.044966,2
0.334472,-0.305038,-0.116469,-0.06141,-0.032366,-0.017223,0.124706,-0.006185,0.099431,2
0.31817,-0.376242,-0.097976,0.009879,0.045936,0.027426,0.268325,-0.407362,0.074262,2
0.208568,-0.393517,-0.155987,0.012574,0.129855,0.004928,0.373883,-0.428886,0.053069,2
0.348012,-0.407355,-0.231961,0.051566,0.176658,-0.027128,0.230154,-0.286072,-0.012223,2
0.208527,-0.206504,-0.143322,0.132763,0.156582,0.015941,0.188047,-0.195839,0.068427,2
0.034751,0.00038,-0.052156,0.129757,0.198202,0.128407,0.193187,-0.11385,0.081338,2
-0.019872,0.192373,0.022997,0.009545,0.204045,0.093311,0.130887,0.019844,0.094562,2
-0.111264,0.298813,0.110002,-0.123201,0.278863,0.082205,0.179923,0.173925,0.132327,2
8.4e-05,0.2085,0.121463,-0.201517,0.421321,0.068533,0.109997,0.196124,0.069592,2
-0.030232,0.14573,0.088747,-0.234056,0.553114,-0.082585,0.017215,0.159343,0.139723,2
-0.055884,0.063776,0.119068,-0.19056,0.494568,-0.176911,-0.061245,0.095063,0.167706,2
0.053456,-0.07206,0.06196,-0.142741,0.375292,-0.136639,0.018004,-0.087958,0.104502,2
0.150689,-0.166901,-0.03733,-0.124467,0.326551,-0.10578,-0.035067,0.022994,-0.025812,2
0.186469,-0.184193,-0.117793,-0.02031,0.239162,-0.09277,0.037488,-0.005362,0.055971,2
0.187666,-0.255655,-0.106008,0.074329,0.18335,-0.012321,-0.163077,-0.042537,0.191567,2
0.205334,-0.272993,-0.008404,0.115626,-0.048029,0.091435,0.231221,0.055332,0.208124,2
0.259726,-0.223839,0.046072,-0.014734,-0.236401,0.252729,0.820305,0.059595,0.12481,2
0.349485,-0.089592,-0.009654,-0.131476,-0.174659,0.223757,0.711278,-0.209031,0.159136,2
0.492339,-0.01207,0.050153,-0.197968,0.058394,0.135777,0.137678,-0.201028,0.040258,2
0.586658,0.061772,0.072688,-0.208674,0.00542,0.205153,-0.096505,-0.063623,-0.02413,2
0.536925,0.103347,0.186201,-0.230082,-0.139344,0.182402,-0.069024,0.06282,0.238059,2
0.499397,0.077745,0.253304,-0.182292,-0.184972,0.144805,-0.026947,0.083938,0.07608,2
0.411846,0.002648,0.21853,-0.217106,-0.229538,0.10955,-0.049777,0.080963,0.033693,2
0.351025,-0.079843,0.205916,-0.257961,-0.144807,-0.007581,-0.036976,0.01216,0.228416,2
0.168817,-0.07841,0.214011,-0.244139,-0.062325,-0.081232,-0.041288,0.053948,0.090682,2
0.005597,-0.032895,0.26886,-0.235498,0.064118,-0.050736,-0.061572,0.013835,0.167496,2
-0.107196,0.020785,0.213461,-0.240898,0.039188,-0.087393,0.042638,0.041977,0.126936,2
-0.187898,0.086315,0.174702,-0.165737,0.071241,-0.164666,0.129318,0.104562,0.181028,2
-0.108173,-0.008793,0.233405,-0.131515,0.065795,-0.072115,0.061108,0.046531,0.152412,2
-0.098132,0.017853,0.108025,-0.099578,0.084695,0.122658,0.005959,0.111569,0.131163,2
0.031715,-0.132965,-0.053929,-0.081854,0.157238,0.073322,-0.054489,0.267493,0.036929,2
0.206745,-0.203626,-0.085303,-0.009956,0.186125,-0.071769,-0.186784,0.278393,0.112371,2
0.245509,-0.191055,0.069884,0.063654,0.159213,-0.181196,-0.304914,0.132574,-0.016642,2
0.302188,-0.177315,0.230389,0.139671,0.133274,-0.171265,-0.149012,-0.047626,0.053958,2
0.170259,-0.025685,0.301044,0.153964,0.121304,-0.190784,0.019368,-0.175546,0.076442,2
0.181407,0.068367,0.324847,0.153397,0.047095,-0.151635,0.028103,-0.204466,0.147542,2
0.170723,0.033672,0.308588,0.093778,0.058047,-0.203392,0.083431,-0.163415,0.111979,2
0.068258,0.107062,0.254926,0.129284,0.023874,-0.039652,0.083323,-0.059724,0.211646,2
0.015772,0.14745,0.242537,0.027643,-0.098021,0.021813,0.057089,-0.002528,0.207058,2
-0.062633,0.115873,0.212983,-0.016417,-0.080298,-0.028771,0.0074,0.134942,0.194324,2
-0.031716,-0.002221,0.090237,-0.111683,0.00081,-0.080457,-0.03799,0.064552,0.049046,2
0.011781,-0.108817,0.083054,-0.119235,0.061167,-0.047355,-0.131766,0.058416,0.147338,2
-0.017644,-0.158529,0.077705,-0.161491,0.085197,-0.051731,-0.055445,0.031758,0.074086,2
-0.039508,-0.1954,0.136042,-0.145143,0.067756,-0.096906,-0.057301,0.005502,0.208952,2
-0.034513,-0.223191,0.17017,-0.147218,0.050398,-0.124034,-0.04959,-0.004553,0.175111,2
0.007311,-0.218045,0.135844,-0.201212,-0.016165,-0.100242,0.008237,-0.053616,-0.002567,2
-0.025425,-0.149424,0.183616,-0.208141,0.036228,-0.088326,-0.126406,-0.091032,0.166004,2
0.265192,-0.189707,0.354948,-0.180276,0.0973,-0.154944,0.02867,-0.10704,0.077359,2
0.301434,-0.050677,0.727431,-0.053481,0.178723,-0.247129,0.035608,-0.158653,0.199877,2
-0.140175,0.077382,0.910471,-0.047118,0.120026,-0.455599,0.234042,-0.108141,0.10638,2
-0.422482,0.415492,0.47454,-0.089635,0.054775,-0.369361,0.278848,-0.020488,-0.038419,2
-0.161944,0.262125,0.116137,-0.144329,0.014357,0.238625,-0.070603,0.086813,0.406172,2
0.123234,-0.322577,-0.090733,0.028946,0.25891,0.485527,-0.143277,0.18361,0.153316,2
0.12325,-0.398032,-0.302242,0.065224,0.372386,0.477156,-0.147089,0.254632,0.052658,2
-0.000747,-0.19689,-0.463276,0.074247,0.184034,0.426414,-0.027918,-0.034937,0.171217,2
-0.017141,-0.229057,-0.394722,-0.034632,-0.015965,0.357979,0.136769,-0.138457,0.039419,2
-0.012688,-0.301156,-0.356157,-0.099283,-0.138691,0.501314,0.156162,-0.23872,0.181104,2
-0.06067,-0.255673,-0.218906,-0.126138,-0.11641,0.521555,0.174736,-0.218746,0.106328,2
-0.022722,-0.199597,-0.126017,-0.106129,0.038448,0.485692,0.170009,-0.163408,0.19586,2
-0.001264,-0.238971,0.005307,-0.148297,0.148684,0.456745,0.161979,-0.109077,0.185903,2
-0.146124,-0.145654,0.020762,-0.087246,0.233361,0.26519,0.147694,0.006362,0.216298,2
-0.122451,-0.222485,0.116172,-0.094272,0.269758,0.215246,0.28442,-0.02005,0.299567,2
0.099444,-0.224331,0.233385,-0.185117,0.304279,0.059881,0.062863,-0.117435,0.101151,2
0.093797,-0.171816,0.136804,-0.201771,0.392839,0.177382,-0.281056,-0.013775,0.007051,2
-0.032117,0.107193,0.142319,-0.191338,0.389554,0.192552,-0.108691,0.208715,0.13021,2
-0.010018,0.266117,0.106174,-0.224055,0.350352,0.189859,0.155883,0.045969,0.238134,2
-0.050262,0.213227,-0.099219,-0.18204,0.361364,0.178152,0.176381,0.010547,0.120482,2
-0.136319,0.139901,-0.109515,-0.084266,0.324158,0.256465,0.019753,0.089849,0.162943,2
0.026382,-0.034294,0.051536,-0.028483,0.315353,0.173053,0.110395,-0.032218,0.220138,2
0.253666,-0.11033,0.142398,0.053283,0.291218,0.044387,0.062197,-0.178397,0.143901,2
0.357859,-0.15393,0.169237,0.136691,0.271514,0.02378,-0.367911,-0.291542,-0.06093,2
0.200717,0.136216,0.157321,0.166045,0.282342,-0.050356,-0.271558,-0.175417,0.011688,2
0.184028,0.245721,0.193336,0.254174,0.336307,-0.122512,-0.108497,-0.159769,0.110085,2
0.112304,0.28715,0.229837,0.229582,0.287873,-0.079144,0.057856,-0.035121,0.09286,2
0.122686,0.146676,0.187052,0.354056,0.23279,-0.025642,0.028534,0.19038,0.175671,2
-0.042964,0.105868,0.199324,0.330421,0.149263,0.0153,0.145843,0.223713,0.217768,2
-0.085848,-0.07453,0.244572,0.33665,0.006347,0.026536,0.253682,0.162822,0.389766,2
-0.07351,-0.183062,0.195383,0.219317,-0.111248,0.065808,0.179904,0.031172,0.077576,2
-0.061199,-0.228658,0.096998,0.177135,-0.089896,0.079952,0.105168,0.022133,0.098763,2
-0.119865,-0.218172,0.01627,0.133483,-0.047538,0.173489,-0.023295,-0.01547,0.183228,2
-0.15194,0.112753,0.101133,0.069012,-0.095283,0.169445,-0.012412,-0.024057,-0.063899,2
-0.567424,0.607627,0.353479,0.025423,-0.27487,0.244289,-0.038138,0.010403,-0.033927,2
-0.636646,0.223661,0.040844,-0.194599,-0.51319,0.27229,-0.078349,0.014021,0.152146,2
-0.10113,0.0867,-0.102939,-0.254165,-0.460747,-0.145683,-0.011991,-0.013498,0.261074,2
0.169418,-0.17451,-0.115647,-0.233933,-0.162036,-0.069811,0.061975,-0.295769,0.22372,2
0.082642,-0.273716,-0.047996,-0.278174,-0.060186,0.122119,0.138893,-0.319011,0.086019,2
0.008141,-0.273424,-0.061078,-0.303164,0.010675,0.104722,0.090233,-0.225697,0.155363,2
0.0374,-0.164394,0.021564,-0.27214,0.10929,0.18924,-0.037804,0.017392,0.164204,2
-0.058598,-0.164592,-0.039289,-0.188747,0.172029,0.200486,-0.045921,0.197028,0.138811,2
-0.051888,-0.146453,0.039331,-0.150128,0.24866,0.18012,0.006345,0.19356,0.11895,2
0.043981,-0.197206,0.113983,-0.139902,0.321293,0.085642,0.068989,0.10446,0.076633,2
0.066463,-0.199632,0.204725,-0.120457,0.448423,-0.014401,0.029918,-0.053488,0.110098,2
0.059411,-0.138556,0.28104,-0.107167,0.540741,-0.138024,0.059747,-0.144786,0.119206,2
0.153045,-0.189665,0.312479,-0.07506,0.582071,-0.19071,0.084664,-0.15637,0.137179,2
0.290247,-0.15751,0.274197,-0.025862,0.663319,-0.207096,0.113274,-0.186237,0.116114,2
0.259015,-0.056143,0.20477,-0.115724,0.494937,-0.201392,0.197959,-0.097017,0.16958,2
0.275709,0.00916,0.130244,-0.096877,0.406489,-0.206897,0.166347,0.115755,0.058015,2
0.269931,0.003659,0.056891,-0.106117,0.398836,-0.112789,0.17892,0.202864,0.065543,2
0.217278,-0.007965,0.143603,-0.089137,0.339929,-0.033463,0.067601,0.207548,0.126182,2
0.095101,0.158204,0.254452,-0.029545,0.239327,0.093458,-0.039519,0.168355,0.065737,2
-0.393737,0.557261,0.66041,0.029487,0.130205,0.216244,-0.059774,0.075479,0.095601,2
-0.862089,0.572804,0.364333,-0.010303,0.0106,0.374955,0.010958,-0.056407,0.066043,2
-0.578279,0.407717,-0.022738,-0.10031,-0.083116,0.209479,0.075702,-0.225616,0.126092,2
-0.416407,0.058156,-0.219787,-0.146675,-0.131207,-0.235408,0.118546,-0.193542,0.177804,2
-0.168776,-0.202014,-0.252254,-0.099965,-0.088811,-0.435463,0.092321,0.011583,0.16065,2
0.081397,-0.245588,-0.300117,-0.006917,0.040277,-0.375816,-0.014446,-0.05948,0.009594,2
0.389408,-0.349568,-0.359859,-0.017178,-0.106163,-0.250161,0.111509,0.001064,0.126355,2
0.254927,-0.253912,-0.356142,-0.019445,-0.189993,-0.195449,0.171053,0.060458,0.140556,2
-0.037624,-0.066821,-0.122279,0.052233,-0.097379,0.065346,0.267027,0.172798,0.197509,2
-0.120662,-0.116922,0.209353,0.244713,0.02556,0.532215,0.275112,0.064063,0.009363,2
0.06565,-0.076979,0.262388,0.056978,0.027169,0.483575,-0.011593,-0.342429,-0.097553,2
0.367787,-0.112448,0.320192,0.017338,-0.248811,0.010217,-0.07839,-0.274131,-0.001736,2
0.358472,0.105489,0.375524,-0.119309,-0.319816,-0.332253,-0.235402,-0.068202,0.099361,2
0.506217,0.09398,0.388805,-0.12041,-0.147061,-0.375029,-0.124919,-0.258782,0.047716,2
0.595933,0.15486,0.404642,-0.000657,0.08745,-0.239164,0.031505,0.115578,0.115065,2
0.582622,0.231134,0.51244,0.001305,0.199141,-0.082976,-0.033189,0.311696,0.204071,2
0.736982,0.152441,0.421636,0.088256,0.346739,-0.208065,-0.052648,0.246769,0.089847,2
0.983216,-0.159831,0.417269,0.309363,-0.184053,-0.174509,-0.189142,0.095392,-0.025949,2
0.752357,0.034425,0.448651,0.459187,-0.429945,0.036694,-0.670577,0.11075,0.023965,2
0.634357,0.005265,0.580762,0.657281,0.357786,0.245539,-1.040427,0.133707,0.223461,2
0.304145,0.198721,0.639943,0.605939,0.90125,0.141527,-0.656274,0.142587,0.227476,2
0.141675,-0.007211,0.681334,1.011787,0.220761,-0.774123,-0.138636,0.374033,0.187697,2
-0.330725,0.447353,0.645492,0.007913,-0.227621,-0.097629,0.182319,0.42043,0.155927,2
-0.456245,0.305972,0.313115,0.137344,0.220642,-0.586858,0.054261,0.408938,0.130242,2
-0.768252,0.694114,0.160393,-0.040421,0.383293,-0.839826,-0.403578,0.109265,0.150414,2
-0.556556,0.336518,0.286936,-0.361033,0.292562,-0.772245,-0.403702,0.006166,0.088808,2
-0.880148,0.499982,0.300265,-2.745277,0.183725,0.867909,-0.284046,-0.029631,0.088067,2
-0.806803,0.214316,0.539952,-4.370141,3.520127,2.254951,-0.297115,-0.014485,0.141141,2
-0.631513,-0.116949,0.697129,5.713613,7.325496,-1.581576,-0.237702,-0.084415,0.10831,2
-0.7285,-0.353708,0.072126,7.381979,-4.305514,-3.390749,-0.064725,0.126132,0.098283,2
-0.661376,-0.604758,-0.374875,-2.500896,-7.224868,1.082091,-0.360653,0.420423,0.204878,2
-0.426994,-0.735909,-0.557348,-3.666564,-3.368802,0.987802,-0.282994,0.145684,0.289512,2
-0.220172,-0.106261,-0.600628,-2.481683,-2.212698,-0.15879,0.19706,-0.370153,0.062635,2
-0.51347,0.736526,-0.520009,-0.986835,-2.810048,-0.738343,0.102067,-0.43803,0.024516,2
-0.356371,1.120333,-0.010968,-0.644532,-7.056801,0.561012,-0.114641,-0.045448,0.069297,2
0.061005,0.986456,0.666652,3.625057,-9.637376,3.185163,-0.216022,0.251855,0.276032,2
-0.191257,0.782512,0.436305,8.35388,0.825964,3.811675,-0.026,0.225675,0.143596,2
-0.025799,0.341357,0.336704,-2.035064,9.273075,-1.015267,0.111506,0.048801,0.110549,2
-0.148447,0.286414,0.152399,-4.176103,3.781967,-1.621587,0.245659,0.063136,0.115503,2
-0.291791,0.191005,0.045511,-3.601579,1.965763,-2.184718,0.01376,0.113548,0.162771,2
-0.59359,0.082888,-0.000617,-1.636742,1.180479,-1.85323,0.083017,-0.064547,0.107576,2
-1.026712,-0.126317,-0.052698,-0.541157,2.241344,-0.874628,0.516059,0.22994,-0.024007,2
-0.966252,-0.796635,-0.137208,0.684766,2.687978,-0.035944,0.029502,0.3016,0.145811,2
-0.556915,-1.117237,-0.151059,3.296917,1.148397,0.277357,-0.04393,0.332282,0.290685,2
0.14257,-1.189819,-0.290302,3.252758,-2.975436,0.934934,0.145011,-0.108967,0.13437,2
0.220861,-0.420419,-0.023894,-0.475165,-4.117531,1.65007,-0.061225,-0.352349,0.092869,2
0.01929,0.508272,0.571673,-3.293618,-2.429135,1.786961,-0.223965,-0.267296,0.085648,2
0.434311,1.207454,2.230122,-1.460064,0.269389,1.097712,-0.021204,-0.194717,0.105001,2
-0.163087,-0.527684,2.941051,-0.302296,-0.902718,1.645004,0.22483,-0.151776,0.115813,2
-0.491429,2.067446,2.791287,0.927047,0.077046,1.009219,0.343845,0.063404,0.099194,2
-1.372234,2.052471,-0.638906,1.210288,1.480377,-0.194546,0.247482,0.082483,0.076175,2
-0.577667,1.28507,-1.930245,0.885821,2.428615,-0.918894,0.01993,-0.090205,0.035564,2
1.283778,0.070681,-1.734471,0.128967,2.03103,-1.195054,-0.017979,0.120622,0.11446,2
2.649777,-0.236616,-1.89062,-0.505844,0.880747,-1.165265,-0.079523,0.459948,0.207697,2
2.562732,1.091163,-2.805259,-0.779923,0.236407,-1.055362,-0.277575,0.249066,0.159569,2
3.824628,3.729538,-1.688066,-0.459988,-0.45517,-0.772875,-0.535019,-0.156069,0.263729,2
3.997699,5.911891,0.917172,-0.043467,-1.375403,-0.103053,-0.316045,-0.842759,-0.084893,2
-2.183691,8.860526,4.445679,-0.32119,-0.247512,-0.257169,-0.136368,-0.931598,-0.13084,2
-15.52732,-0.58692,2.815477,-0.321244,0.670709,0.376162,-0.072212,-0.033699,0.223602,2
-11.208512,-16.634247,-6.98713,-0.147476,0.484753,1.012305,0.524425,0.760365,0.338154,2
7.409102,-17.023895,-6.031721,0.27485,-0.047927,1.006969,0.512138,0.646309,0.1532,2
16.139154,1.901264,9.107954,0.214228,-1.258781,1.263498,0.006914,0.207945,0.151862,2
7.131183,5.537011,1.425088,0.116547,-1.908669,0.480413,-0.107794,0.286606,0.111243,2
7.902529,-0.984045,-0.953192,0.999204,-2.321523,0.871966,0.024936,-0.136613,-0.098627,2
-2.169,-7.930916,1.448512,0.515908,0.413899,1.789807,-0.24536,-0.28668,0.121016,2
-9.768811,-4.470618,0.651746,1.445558,1.462184,-0.22577,0.020927,-0.182452,0.129983,2
-8.543229,5.313725,0.015752,0.166685,0.648013,0.351176,0.221565,-0.247894,0.159434,2
-1.964801,6.233527,0.013355,-0.70485,0.760048,-0.658984,0.050605,-0.450202,0.179114,2
0.216169,8.423444,-2.130831,-1.265717,0.965724,-2.499645,0.015065,-0.48059,0.173731,2
-0.420209,9.96426,-0.699659,-7.047845,0.779073,-2.692506,-0.240813,-0.097931,0.028361,2
-5.986537,4.60332,-1.25243,-9.955759,4.94006,-1.840894,-0.430362,-0.007459,0.032129,2
-7.949345,-4.105865,-0.984273,3.026204,8.372685,0.898591,-0.16257,-0.13738,-0.062682,2
-2.573378,-9.528297,-3.563533,15.31161,2.961172,-2.612797,-0.192951,0.45295,0.236248,2
8.61432,-8.772799,0.414265,8.803057,-10.610792,-1.357587,0.146727,1.098399,0.307648,2
17.068462,2.305752,4.55927,-6.002581,-9.568182,6.147046,0.309755,1.165328,0.21363,2
12.924785,-4.162457,4.217241,-8.731901,-9.263065,3.290747,0.041856,0.639617,0.043182,2
-13.929447,-5.007074,-5.045156,2.300648,-5.040158,1.449503,-0.065386,0.093349,0.137239,2
-4.031143,6.248611,1.940067,8.719083,2.803915,-2.585074,0.032658,-0.143369,0.132472,2
-4.634466,16.206875,2.181997,3.615444,6.42692,-2.176665,0.1213,-0.404503,0.128592,2
-9.15574,6.004777,1.947955,-5.300098,1.817231,1.070881,0.008183,-0.791661,-0.012023,2
-10.218475,-5.43025,-0.854903,-8.47008,4.862525,-0.706386,-0.258819,-0.67066,-0.003105,2
3.188722,-11.427751,-2.273841,-2.407896,9.483649,-1.710619,-0.005294,-0.03465,0.030318,2
15.399156,-1.37935,5.018506,8.519168,7.819766,-2.649412,0.350966,0.415055,0.042647,2
19.27202,-1.878444,1.651763,10.358683,-4.146679,-1.885705,0.193985,0.673232,0.348389,2
1.409881,-9.552442,-0.735137,-7.10969,-23.459324,5.76816,0.069966,0.219836,0.186394,2
-10.182355,3.064158,2.006519,-2.122017,-6.874317,3.865716,-0.096157,-0.130343,0.11585,2
-2.700012,7.518976,-1.556242,5.31741,0.768113,-0.001919,-0.199209,-0.053641,0.235588,2
-9.462065,16.871019,-2.655031,-0.363285,6.58484,0.975352,-0.065897,-0.353296,0.139297,2
-9.103814,-0.068859,-4.971619,-7.723732,4.942,-1.247454,-0.047674,-0.714993,0.039833,2
-5.622724,-9.895127,-6.620123,-6.161886,6.066075,-1.218513,-0.372714,-0.455333,0.009212,2
5.998867,-10.967022,-0.082522,1.054176,5.236039,-2.682553,-0.356156,0.315174,0.084335,2
14.257937,3.791641,8.570528,7.928227,1.051686,-2.667058,-0.085188,0.674304,0.042311,2
10.92643,0.242406,1.256943,4.74008,-3.608865,-0.217141,0.166436,0.377881,0.126298,2
