sep=,
DeviceTag:,2C_Leg
FirmwareVersion:,2.2.1
AppVersion:,2023.6.0
SyncStatus:,Synced
OutputRate:,30Hz
FilterProfile:,General
Measurement Mode:,Sensor fusion Mode - Complete(Quaternion)
StartTime: ,2026-05-01_14:29:12_728 AEST
© Movella Technologies B. V. 2005-2026

PacketCounter,SampleTimeFine,Quat_W,Quat_X,Quat_Y,Quat_Z,FreeAcc_X,FreeAcc_Y,FreeAcc_Z
1,1575131004,0.635859,-0.763162,0.065319,-0.094879,-0.457160,0.201479,-0.003354
2,1575164338,0.634426,-0.763843,0.067312,-0.097562,-0.807015,-0.029972,0.331288
3,1575197672,0.633479,-0.764259,0.068522,-0.099589,-0.098075,-0.251877,0.239545
4,1575231006,0.633306,-0.763932,0.070178,-0.102016,0.389038,-0.232569,-0.040728
5,1575264340,0.632931,-0.763825,0.072196,-0.103724,-0.495721,-0.160072,0.153461
6,1575297674,0.632848,-0.763575,0.073072,-0.105442,-0.518151,0.006007,0.095451
7,1575331008,0.633063,-0.763013,0.073100,-0.108168,-0.034181,0.347686,0.014181
8,1575364342,0.632844,-0.762698,0.073572,-0.111303,0.142242,0.534146,0.285446
9,1575397676,0.631997,-0.762858,0.074675,-0.114243,0.151557,0.399550,0.203245
10,1575431010,0.631376,-0.763017,0.075059,-0.116342,0.008626,-0.094439,0.155068
11,1575464344,0.631915,-0.762622,0.073507,-0.117000,-0.403350,-0.352517,0.067556
12,1575497678,0.632716,-0.762000,0.071953,-0.117682,-0.095086,-0.263843,0.045863
13,1575531012,0.632892,-0.761728,0.071426,-0.118815,0.195877,-0.083694,0.159347
14,1575564346,0.632889,-0.761374,0.071709,-0.120909,0.277758,-0.036910,0.213364
15,1575597680,0.632964,-0.760837,0.072379,-0.123472,0.036472,0.032742,0.112334
16,1575631014,0.632741,-0.760475,0.073443,-0.126186,-0.170750,0.086956,0.068815
17,1575664348,0.632307,-0.760391,0.073981,-0.128531,-0.219213,0.197555,0.182997
18,1575697682,0.632194,-0.760384,0.073250,-0.129546,-0.210387,0.197734,0.098728
19,1575731016,0.632396,-0.760260,0.071909,-0.130039,-0.123013,0.116716,0.151143
20,1575764350,0.632533,-0.760136,0.070652,-0.130785,-0.012303,-0.016397,0.127165
21,1575797684,0.632606,-0.759829,0.070145,-0.132476,0.059317,-0.036571,0.102506
22,1575831018,0.632562,-0.759456,0.070210,-0.134773,0.027521,0.035917,0.136744
23,1575864352,0.632407,-0.759212,0.070197,-0.136865,-0.123247,0.007923,0.146789
24,1575897686,0.632355,-0.758987,0.069871,-0.138511,-0.221866,-0.027867,0.094155
25,1575931020,0.632372,-0.758755,0.069206,-0.140028,-0.140550,-0.017794,0.140690
26,1575964354,0.632530,-0.758412,0.068411,-0.141558,-0.039924,-0.014836,0.138160
27,1575997688,0.632732,-0.757968,0.067849,-0.143285,-0.064350,0.084876,0.109971
28,1576031022,0.633042,-0.757400,0.067283,-0.145180,-0.116744,0.037708,0.139236
29,1576064356,0.633309,-0.756863,0.066569,-0.147132,-0.152614,-0.007581,0.070831
30,1576097690,0.633272,-0.756697,0.065532,-0.148602,-0.223384,0.021918,0.131147
31,1576131024,0.633163,-0.756738,0.064011,-0.149518,-0.196803,0.108458,0.127270
32,1576164358,0.633095,-0.756737,0.062342,-0.150511,-0.064572,0.037642,0.162873
33,1576197692,0.632874,-0.756823,0.060822,-0.151627,-0.055300,-0.017005,0.107447
34,1576231026,0.632606,-0.756871,0.059471,-0.153035,-0.137369,0.079461,0.130265
35,1576264360,0.632529,-0.756731,0.058055,-0.154582,-0.039805,-0.024093,0.130774
36,1576297694,0.632380,-0.756562,0.056942,-0.156425,-0.103497,0.048192,0.160098
37,1576331028,0.632200,-0.756414,0.055760,-0.158283,-0.071490,0.001523,0.149602
38,1576364362,0.632058,-0.756180,0.054656,-0.160338,-0.018888,0.031292,0.109802
39,1576397696,0.631925,-0.755800,0.053920,-0.162880,-0.032890,0.033611,0.184318
40,1576431030,0.631753,-0.755455,0.053193,-0.165373,-0.010024,0.026522,0.154090
41,1576464364,0.631658,-0.755046,0.052510,-0.167799,0.025801,-0.015942,0.188547
42,1576497698,0.631458,-0.754632,0.052231,-0.170482,0.164746,-0.030565,0.174931
43,1576531032,0.631314,-0.754030,0.052347,-0.173617,0.026068,-0.088070,0.158128
44,1576564366,0.631207,-0.753348,0.052657,-0.176840,0.014228,-0.239331,0.168594
45,1576597700,0.631279,-0.752683,0.052765,-0.179364,-0.005048,-0.021607,0.172908
46,1576631034,0.631702,-0.751897,0.052641,-0.181198,0.173527,0.091672,0.203326
47,1576664368,0.632360,-0.750792,0.052665,-0.183463,0.300998,0.108016,0.331923
48,1576697702,0.632933,-0.749835,0.052800,-0.185355,0.329819,-0.025498,0.118459
49,1576731036,0.632868,-0.749166,0.054050,-0.187903,0.313702,0.006462,-0.057324
50,1576764370,0.632056,-0.748990,0.056067,-0.190726,0.289400,0.205804,-0.019080
51,1576797704,0.630898,-0.749340,0.057446,-0.192762,0.209338,0.308617,0.144608
52,1576831038,0.630271,-0.749720,0.057289,-0.193383,0.220361,0.496873,0.312634
53,1576864372,0.631554,-0.748854,0.055596,-0.193048,0.257553,0.808177,0.568902
54,1576897706,0.635235,-0.745906,0.053298,-0.193033,0.462131,0.725915,0.341701
55,1576931040,0.639083,-0.742277,0.052227,-0.194605,0.537134,0.226750,0.281827
56,1576964374,0.642719,-0.738204,0.052825,-0.197933,0.493935,-0.146341,0.358369
57,1576997708,0.646738,-0.733277,0.054773,-0.202574,0.420774,-0.022490,0.172532
58,1577031042,0.651319,-0.727520,0.057455,-0.207840,0.078875,0.027734,0.303833
59,1577064376,0.656533,-0.721289,0.059675,-0.212476,0.024734,-0.109575,0.121695
60,1577097710,0.662015,-0.715033,0.060918,-0.216225,-0.381600,-0.142613,0.011379
61,1577131044,0.667577,-0.709072,0.060780,-0.218780,-0.483098,-0.828672,-0.204814
62,1577164378,0.670058,-0.706153,0.061087,-0.220542,-0.956800,-1.556783,-0.440254
63,1577197712,0.669853,-0.706118,0.061701,-0.221107,-1.009002,-1.234188,-0.339797
64,1577231046,0.668342,-0.707828,0.062122,-0.220092,-1.016538,-0.927720,-0.343372
65,1577264380,0.665632,-0.711090,0.062580,-0.217645,-0.714867,-0.796595,-0.148906
66,1577297714,0.661727,-0.715652,0.063328,-0.214359,-0.331567,-0.662883,0.018014
67,1577331048,0.656736,-0.721393,0.063868,-0.210265,-0.004510,-0.444673,0.127069
68,1577364382,0.650575,-0.728228,0.064347,-0.205661,0.227308,-0.094988,0.211855
69,1577397716,0.643426,-0.735880,0.064778,-0.200719,0.464997,0.318497,0.186788
70,1577431050,0.635509,-0.743808,0.066165,-0.196216,0.447620,0.594039,0.205808
71,1577464384,0.628833,-0.750312,0.067799,-0.192368,0.221802,0.403676,0.373544
72,1577497718,0.623227,-0.755464,0.069850,-0.189695,0.422544,0.257984,0.336829
73,1577531052,0.618675,-0.759486,0.071827,-0.187787,0.369762,0.765375,0.312946
74,1577564386,0.615353,-0.762602,0.072941,-0.185634,0.327522,1.032176,0.249321
75,1577597720,0.613438,-0.764708,0.073127,-0.183216,0.423528,0.995023,0.199577
76,1577631054,0.612513,-0.765887,0.073314,-0.181303,0.456514,0.640555,0.252002
77,1577664388,0.611880,-0.766549,0.074070,-0.180335,0.292248,0.307136,0.250857
78,1577697722,0.611177,-0.766996,0.075461,-0.180240,0.104436,0.074949,0.189348
79,1577731056,0.610468,-0.767397,0.077011,-0.180280,-0.036657,-0.015438,0.093696
80,1577764390,0.609910,-0.767783,0.078504,-0.179881,-0.271471,-0.131322,-0.015967
81,1577797724,0.609329,-0.768429,0.079416,-0.178684,-0.245269,-0.266961,0.148186
82,1577831058,0.609108,-0.768994,0.079598,-0.176917,-0.159081,-0.079947,0.165775
83,1577864392,0.609195,-0.769414,0.079550,-0.174803,-0.163371,-0.009561,0.043874
84,1577897726,0.608979,-0.770048,0.079596,-0.172730,-0.019013,-0.165653,0.162679
85,1577931060,0.608605,-0.770651,0.080014,-0.171160,-0.004927,-0.208504,0.159984
86,1577964394,0.608394,-0.770990,0.080867,-0.169978,-0.145634,-0.037602,0.083615
87,1577997728,0.608261,-0.771262,0.081719,-0.168809,-0.174683,-0.003619,0.162971
88,1578031062,0.607940,-0.771680,0.082622,-0.167609,-0.238752,-0.094227,0.140746
89,1578064396,0.607691,-0.772127,0.083245,-0.166141,-0.304343,0.038441,0.127753
90,1578097730,0.607571,-0.772451,0.083713,-0.164830,-0.185948,0.058731,0.145256
91,1578131064,0.607417,-0.772742,0.084195,-0.163788,-0.300280,-0.034157,0.086848
92,1578164398,0.607378,-0.773033,0.084360,-0.162468,-0.210649,-0.061288,0.083912
93,1578197732,0.607368,-0.773400,0.084149,-0.160858,-0.235829,0.047155,0.136239
94,1578231066,0.607435,-0.773834,0.083549,-0.158821,-0.221668,-0.054228,0.146720
95,1578264400,0.607581,-0.774188,0.082873,-0.156880,-0.175452,0.035569,0.104196
96,1578297734,0.607801,-0.774553,0.081932,-0.154706,-0.044674,0.061236,0.160828
97,1578331068,0.608072,-0.774782,0.081082,-0.152932,-0.064765,0.130208,0.093034
98,1578364402,0.608571,-0.774887,0.079892,-0.151028,-0.033911,0.183521,0.157656
99,1578397736,0.609581,-0.774584,0.078476,-0.149241,0.048632,0.357845,0.223896
100,1578431070,0.610931,-0.773936,0.077094,-0.147797,0.083743,0.353226,0.189181
101,1578464404,0.611996,-0.773293,0.076360,-0.147136,0.008618,0.191925,0.171257
102,1578497738,0.612696,-0.772760,0.076258,-0.147072,0.001130,-0.045822,0.136966
103,1578531072,0.613203,-0.772256,0.076558,-0.147456,-0.181053,-0.152886,0.069087
104,1578564406,0.613816,-0.771755,0.076567,-0.147519,-0.370530,-0.123858,0.075185
105,1578597740,0.614210,-0.771523,0.076255,-0.147257,-0.361204,-0.153877,0.061760
106,1578631074,0.614265,-0.771656,0.075647,-0.146641,-0.299433,-0.222663,0.108631
107,1578664408,0.613956,-0.772124,0.075021,-0.145789,-0.267272,-0.219329,0.096126
108,1578697742,0.613432,-0.772764,0.074456,-0.144897,-0.151652,-0.115824,0.134626
109,1578731076,0.613087,-0.773228,0.073834,-0.144192,-0.114592,0.044162,0.138301
110,1578764410,0.612800,-0.773668,0.073111,-0.143419,-0.086380,-0.011076,0.134286
111,1578797744,0.612538,-0.774032,0.072561,-0.142853,-0.078390,-0.007833,0.164295
112,1578831078,0.612633,-0.774078,0.072008,-0.142477,0.024511,0.203722,0.217883
113,1578864412,0.613819,-0.773264,0.071056,-0.142271,0.112354,0.445780,0.224669
114,1578897746,0.615869,-0.771724,0.069886,-0.142349,0.094949,0.001675,0.245352
115,1578931080,0.617110,-0.770730,0.069310,-0.142641,-0.003121,-0.151412,0.086663
116,1578964414,0.617879,-0.769976,0.069422,-0.143332,-0.165693,-0.278861,0.039289
117,1578997748,0.618376,-0.769385,0.069674,-0.144235,-0.207542,-0.253531,0.099669
118,1579031082,0.618715,-0.769114,0.069325,-0.144396,-0.272638,-0.256182,0.117226
119,1579064416,0.618777,-0.769215,0.068716,-0.143883,-0.219922,-0.410063,0.048966
120,1579097750,0.618387,-0.769616,0.068554,-0.143493,-0.156308,-0.550694,-0.028060
121,1579131084,0.617794,-0.770068,0.068775,-0.143514,-0.214986,-0.516472,0.122235
122,1579164418,0.617084,-0.770746,0.068639,-0.142992,-0.162901,-0.226923,0.141378
123,1579197752,0.616149,-0.771802,0.068007,-0.141628,-0.053979,0.058515,0.109990
124,1579231086,0.615414,-0.772770,0.067156,-0.139940,0.129092,0.444525,0.207853
125,1579264420,0.615556,-0.773064,0.065879,-0.138288,0.299868,0.694488,0.363569
126,1579297754,0.616366,-0.772757,0.064622,-0.136987,0.338649,0.654949,0.233076
127,1579331088,0.617238,-0.772182,0.064143,-0.136519,0.201562,0.347257,0.171751
128,1579364422,0.618236,-0.771251,0.064410,-0.137146,0.018932,0.095671,0.152831
129,1579397756,0.619546,-0.770060,0.064561,-0.137856,-0.162852,-0.064121,0.147965
130,1579431090,0.621286,-0.768694,0.064129,-0.137842,-0.226862,-0.079437,0.129025
131,1579464424,0.623314,-0.767109,0.063637,-0.137749,-0.160038,-0.066478,0.204455
132,1579497758,0.625431,-0.765355,0.063463,-0.137991,0.094870,-0.062880,0.079683
133,1579531092,0.627086,-0.763972,0.063434,-0.138157,-0.073464,0.019323,0.116503
134,1579564426,0.628886,-0.762408,0.063559,-0.138553,-0.003762,-0.003234,0.187383
135,1579597760,0.631000,-0.760598,0.063496,-0.138922,-0.188344,0.047197,0.147551
136,1579631094,0.633695,-0.758276,0.063349,-0.139411,-0.235499,0.014302,0.238647
137,1579664428,0.637002,-0.755565,0.062669,-0.139368,-0.102509,-0.031880,0.113508
138,1579697762,0.640214,-0.752942,0.061851,-0.139213,-0.050767,0.013400,0.046697
139,1579731096,0.642713,-0.751057,0.060550,-0.138448,-0.048711,-0.173371,0.028710
140,1579764430,0.644441,-0.749803,0.059393,-0.137712,-0.195297,-0.166492,0.167514
141,1579797764,0.646091,-0.748612,0.058210,-0.136965,-0.035424,0.012156,0.150059
142,1579831098,0.648020,-0.747193,0.056835,-0.136176,-0.052377,0.146190,0.101775
143,1579864432,0.650194,-0.745525,0.055517,-0.135497,-0.016832,0.032281,0.130602
144,1579897766,0.652445,-0.743660,0.054685,-0.135260,-0.019515,-0.061992,0.173212
145,1579931100,0.654298,-0.742124,0.053781,-0.135112,0.207403,0.142096,0.077096
146,1579964434,0.656205,-0.740338,0.053771,-0.135662,0.066696,0.281305,0.072516
147,1579997768,0.657558,-0.738800,0.054753,-0.137094,-0.051954,-0.229738,0.347809
148,1580031102,0.658083,-0.737980,0.055898,-0.138522,-0.139789,-0.263942,-0.012460
149,1580064436,0.658666,-0.737304,0.056362,-0.139160,-0.069484,0.064767,0.078548
150,1580097770,0.659733,-0.736390,0.055989,-0.139096,-0.069460,0.173783,0.142701
151,1580131104,0.661048,-0.735326,0.055292,-0.138763,-0.025918,0.111321,0.053102
152,1580164438,0.662162,-0.734197,0.055642,-0.139288,-0.118394,-0.173822,0.214846
153,1580197772,0.663246,-0.733042,0.056162,-0.140004,-0.014416,0.117275,0.147411
154,1580231106,0.665431,-0.731080,0.055788,-0.140045,0.014097,0.630273,0.232750
155,1580264440,0.668176,-0.728684,0.054763,-0.139866,0.074270,0.317816,0.123183
156,1580297774,0.670292,-0.726583,0.054853,-0.140628,0.252669,-0.122328,-0.023787
157,1580331108,0.671113,-0.725286,0.056760,-0.142641,-0.062485,0.091927,0.144881
158,1580364442,0.671783,-0.723966,0.059308,-0.145135,-0.166042,0.365196,0.162507
159,1580397776,0.672763,-0.722665,0.060445,-0.146603,-0.019842,0.495801,0.130857
160,1580431110,0.673799,-0.721732,0.060071,-0.146594,0.025070,0.551887,0.057792
161,1580464444,0.675229,-0.720701,0.058778,-0.145610,0.111851,0.310679,0.160697
162,1580497778,0.675934,-0.720121,0.058684,-0.145243,-0.115354,-0.284821,0.110155
163,1580531112,0.676220,-0.719837,0.058877,-0.145241,-0.133760,-0.143721,0.157786
164,1580564446,0.675535,-0.720560,0.059071,-0.144768,-0.271861,-0.016662,0.232163
165,1580597780,0.674569,-0.721964,0.057766,-0.142787,-0.178574,-0.018205,-0.011381
166,1580631114,0.674262,-0.723008,0.055422,-0.139853,-0.033319,0.455495,0.104581
167,1580664448,0.674399,-0.723677,0.052898,-0.136672,0.069292,0.504956,0.178746
168,1580697782,0.674436,-0.724312,0.050706,-0.133933,0.294197,0.223179,-0.072269
169,1580731116,0.674668,-0.724395,0.049548,-0.132743,0.111995,0.468335,0.018931
170,1580764450,0.675119,-0.724195,0.048585,-0.131895,-0.111796,0.345325,0.101039
171,1580797784,0.675641,-0.724076,0.046961,-0.130457,-0.078823,0.115541,-0.046796
172,1580831118,0.675723,-0.724404,0.045255,-0.128801,-0.200699,-0.148346,-0.260643
173,1580864452,0.674879,-0.725503,0.044143,-0.127421,-0.391721,-1.125402,-0.924137
174,1580897786,0.676586,-0.723985,0.042772,-0.127466,1.431492,1.279095,0.676741
175,1580931120,0.677250,-0.723157,0.042381,-0.128769,-0.801370,-1.790490,1.274363
176,1580964454,0.673875,-0.726064,0.044981,-0.129231,-0.584870,-1.176417,-0.754032
177,1580997788,0.672155,-0.728239,0.043668,-0.126367,-0.390671,-0.165538,0.344633
178,1581031122,0.671839,-0.729303,0.040341,-0.122975,-0.033846,0.534865,0.020217
179,1581064456,0.672554,-0.729491,0.037315,-0.118842,0.493582,0.332627,0.244204
180,1581097790,0.672765,-0.729653,0.036377,-0.116927,0.232245,0.269948,0.005655
181,1581131124,0.672068,-0.730224,0.037133,-0.117128,0.091451,0.133261,0.153552
182,1581164458,0.671195,-0.730783,0.038809,-0.118102,-0.191421,0.191590,0.247061
183,1581197792,0.670778,-0.731203,0.039056,-0.117790,-0.347115,0.072969,0.050895
184,1581231126,0.670655,-0.731698,0.037795,-0.115811,-0.001139,0.005119,0.127431
185,1581264460,0.670189,-0.732489,0.036800,-0.113811,0.101204,-0.092056,0.078708
186,1581297794,0.669444,-0.733391,0.036439,-0.112494,-0.009192,0.105822,0.181164
187,1581331128,0.668794,-0.734125,0.036400,-0.111584,0.082793,0.338385,0.160061
188,1581364462,0.668330,-0.734658,0.036517,-0.110817,0.090849,0.167104,0.116215
189,1581397796,0.667695,-0.735307,0.036809,-0.110241,-0.049750,-0.109684,0.065717
190,1581431130,0.666739,-0.736288,0.036973,-0.109421,-0.167461,-0.190535,0.116527
191,1581464464,0.665737,-0.737374,0.036912,-0.108227,-0.090779,0.068732,0.167600
192,1581497798,0.664865,-0.738346,0.036823,-0.106979,0.103859,0.021869,0.129889
193,1581531132,0.663583,-0.739500,0.037526,-0.106726,0.084169,-0.311004,0.119597
194,1581564466,0.662013,-0.740822,0.038720,-0.106879,-0.171864,-0.103440,0.136662
195,1581597800,0.660741,-0.741879,0.039968,-0.106961,-0.010094,0.087227,0.150455
196,1581631134,0.659964,-0.742466,0.041171,-0.107225,0.056044,0.072392,0.185785
197,1581664468,0.659007,-0.743083,0.042909,-0.108155,-0.030727,-0.104254,0.144995
198,1581697802,0.657899,-0.743788,0.044927,-0.109227,-0.084434,-0.032471,0.084433
199,1581731136,0.656817,-0.744468,0.046855,-0.110294,-0.057849,0.072209,0.129974
200,1581764470,0.655833,-0.745081,0.048611,-0.111244,-0.031345,0.125246,0.124885
201,1581797804,0.654892,-0.745627,0.050445,-0.112307,-0.103306,0.056463,0.133925
202,1581831138,0.654006,-0.746140,0.052108,-0.113299,-0.025430,0.030905,0.096874
203,1581864472,0.653022,-0.746740,0.053735,-0.114259,-0.058526,0.069921,0.119209
204,1581897806,0.652251,-0.747170,0.055242,-0.115124,-0.043718,0.113247,0.153788
205,1581931140,0.651300,-0.747705,0.056938,-0.116206,0.013110,-0.141133,0.111508
206,1581964474,0.650086,-0.748448,0.058753,-0.117314,-0.101786,-0.013797,0.098816
207,1581997808,0.648889,-0.749207,0.060454,-0.118225,-0.066793,0.027691,0.161952
208,1582031142,0.647630,-0.750058,0.061945,-0.118965,-0.071311,-0.056186,0.124955
209,1582064476,0.646155,-0.751154,0.063166,-0.119426,-0.106945,-0.081311,0.129096
210,1582097810,0.644161,-0.752741,0.064306,-0.119593,-0.028687,-0.046936,0.075614
211,1582131144,0.641677,-0.754727,0.065570,-0.119745,0.034492,0.183185,0.174137
212,1582164478,0.639327,-0.756669,0.066579,-0.119506,0.117728,0.140127,0.127458
213,1582197812,0.637115,-0.758368,0.067849,-0.119831,0.001258,0.239132,0.132735
214,1582231146,0.634730,-0.760268,0.068973,-0.119806,0.020386,0.196497,0.143428
215,1582264480,0.632050,-0.762393,0.070151,-0.119789,-0.028459,0.147743,0.126987
216,1582297814,0.630090,-0.763869,0.071259,-0.120059,-0.192076,-0.029687,0.221659
217,1582331148,0.629136,-0.764615,0.071767,-0.120009,-0.031100,-0.194746,0.110026
218,1582364482,0.628273,-0.765346,0.072071,-0.119692,-0.173368,-0.152872,0.162553
219,1582397816,0.626895,-0.766485,0.072526,-0.119351,-0.028690,-0.210416,0.127939
220,1582431150,0.626019,-0.767219,0.072900,-0.119002,-0.154716,-0.148334,0.192060
221,1582464484,0.625823,-0.767328,0.073306,-0.119079,-0.125832,-0.046687,0.190610
222,1582497818,0.625855,-0.767327,0.073493,-0.118807,-0.108791,-0.011977,0.065595
223,1582531152,0.625467,-0.767743,0.073413,-0.118213,-0.124099,0.067276,0.110213
224,1582564486,0.625328,-0.768000,0.073029,-0.117508,-0.152338,0.056897,0.188888
225,1582597820,0.625382,-0.768156,0.072364,-0.116606,0.024983,0.109062,0.085094
226,1582631154,0.624920,-0.768657,0.071956,-0.116037,-0.094726,0.083464,0.138039
227,1582664488,0.624320,-0.769184,0.071851,-0.115839,-0.137325,0.028674,0.152058
228,1582697822,0.623880,-0.769611,0.071555,-0.115557,-0.042014,0.033607,0.088270
229,1582731156,0.623601,-0.769939,0.071065,-0.115177,-0.139446,0.070374,0.122361
230,1582764490,0.623335,-0.770258,0.070542,-0.114804,-0.108538,0.050332,0.131237
231,1582797824,0.623189,-0.770478,0.069904,-0.114515,-0.168850,0.053127,0.153169
232,1582831158,0.623111,-0.770686,0.069025,-0.114067,-0.102141,0.073652,0.081109
233,1582864492,0.622932,-0.771032,0.067875,-0.113399,-0.132274,0.068619,0.153783
234,1582897826,0.622716,-0.771432,0.066585,-0.112623,-0.125534,-0.042446,0.148602
235,1582931160,0.622301,-0.772047,0.065140,-0.111544,-0.000211,-0.030750,0.074327
236,1582964494,0.622034,-0.772503,0.063763,-0.110674,-0.069541,0.079760,0.160265
237,1582997828,0.621861,-0.772883,0.062323,-0.109810,0.012720,0.060784,0.111879
238,1583031162,0.621243,-0.773633,0.060874,-0.108832,0.027839,0.030537,0.066255
239,1583064496,0.620246,-0.774668,0.059488,-0.107920,-0.050594,0.060511,0.081180
240,1583097830,0.619204,-0.775771,0.057902,-0.106833,-0.069046,-0.073386,0.203567
241,1583131164,0.618716,-0.776540,0.055759,-0.105204,-0.140015,-0.001325,0.186567
242,1583164498,0.618442,-0.777137,0.053516,-0.103556,-0.057306,0.148194,0.142441
243,1583197832,0.617789,-0.777983,0.051552,-0.102096,0.087859,0.030025,0.147920
244,1583231166,0.616779,-0.778901,0.050443,-0.101750,-0.030147,-0.014731,0.245171
245,1583264500,0.616319,-0.779261,0.049866,-0.102069,0.153638,0.083862,0.128208
246,1583297834,0.615657,-0.779699,0.049675,-0.102809,-0.038601,0.140310,0.077563
247,1583331168,0.614749,-0.780345,0.049481,-0.103427,-0.211683,0.000056,0.146755
248,1583364502,0.614311,-0.780713,0.048799,-0.103581,-0.198608,0.036703,0.193274
249,1583397836,0.614045,-0.780967,0.047880,-0.103667,-0.054871,0.046924,0.037781
250,1583431170,0.613365,-0.781487,0.047284,-0.104048,-0.037437,-0.071269,0.128636
251,1583464504,0.612556,-0.782027,0.047145,-0.104824,-0.106183,-0.044551,0.179163
252,1583497838,0.612256,-0.782042,0.047426,-0.106324,-0.012424,-0.061909,0.193642
253,1583531172,0.612058,-0.781977,0.047651,-0.107831,-0.042506,-0.017432,0.024786
254,1583564506,0.611516,-0.782153,0.048086,-0.109428,-0.187691,-0.018865,0.151356
255,1583597840,0.610988,-0.782298,0.048568,-0.111109,-0.058277,0.021430,0.152735
256,1583631174,0.610503,-0.782278,0.049330,-0.113554,-0.021493,0.169789,0.084269
257,1583664508,0.610316,-0.781974,0.050193,-0.116246,0.014246,0.132022,0.255502
258,1583697842,0.610483,-0.781240,0.051487,-0.119683,0.097321,0.190198,0.155960
259,1583731176,0.610835,-0.780304,0.053009,-0.123271,-0.072934,0.229338,0.153044
260,1583764510,0.611150,-0.779361,0.054561,-0.126952,-0.102973,-0.046195,0.060721
261,1583797844,0.611146,-0.778638,0.056209,-0.130635,-0.221115,-0.160583,0.097407
262,1583831178,0.611020,-0.778049,0.057593,-0.134084,-0.239014,-0.124461,0.104611
263,1583864512,0.610844,-0.777698,0.058123,-0.136665,-0.215419,-0.110605,0.146657
264,1583897846,0.610880,-0.777411,0.057683,-0.138312,-0.278043,-0.001640,0.175699
265,1583931180,0.611339,-0.777059,0.056192,-0.138878,-0.127021,0.009809,0.238467
266,1583964514,0.612082,-0.776376,0.054910,-0.139934,0.083426,0.123520,0.160529
267,1583997848,0.612737,-0.775347,0.055113,-0.142666,0.197707,0.301460,0.262799
268,1584031182,0.613099,-0.774071,0.056951,-0.147248,0.462951,0.465812,0.101603
269,1584064516,0.613258,-0.772623,0.059809,-0.152944,0.052500,0.523888,0.128867
270,1584097850,0.613744,-0.771088,0.061845,-0.157850,-0.270074,0.204518,0.236306
271,1584131184,0.614888,-0.769236,0.062543,-0.162103,-0.403558,0.055706,0.157445
272,1584164518,0.616900,-0.766913,0.062024,-0.165626,-0.395567,0.190177,0.097058
273,1584197852,0.618959,-0.764810,0.060508,-0.168211,-0.259493,0.033127,0.182112
274,1584231186,0.620794,-0.763049,0.058413,-0.170175,-0.201749,-0.070383,0.162626
275,1584264520,0.622892,-0.761020,0.056183,-0.172331,-0.091354,0.063019,0.158764
276,1584297854,0.626019,-0.758003,0.053841,-0.175026,0.012763,0.242430,0.244278
277,1584331188,0.629998,-0.754036,0.051729,-0.178485,0.150105,0.155799,0.251395
278,1584364522,0.634091,-0.749860,0.049703,-0.182125,0.149435,0.169987,0.245832
279,1584397856,0.638527,-0.745369,0.047478,-0.185618,0.112896,0.283743,0.051528
280,1584431190,0.644097,-0.739760,0.045160,-0.189359,0.016225,0.272542,0.176005
281,1584464524,0.650667,-0.733140,0.042639,-0.193187,0.219911,0.009428,0.028184
282,1584497858,0.654760,-0.728573,0.041137,-0.196925,-0.183638,-0.795379,0.165109
283,1584531192,0.657235,-0.725461,0.040049,-0.200365,-0.558247,-0.817408,0.235676
284,1584564526,0.658732,-0.723731,0.038070,-0.202081,-0.621921,-0.573184,-0.057224
285,1584597860,0.659321,-0.723500,0.034636,-0.201606,-0.391371,-0.435360,-0.199319
286,1584631194,0.659640,-0.723940,0.029859,-0.199738,-0.169539,-0.037927,0.089204
287,1584664528,0.660486,-0.724185,0.023857,-0.196838,-0.051714,0.331013,0.129927
288,1584697862,0.661319,-0.724429,0.017947,-0.193749,0.159373,0.212979,0.188692
289,1584731196,0.661714,-0.724673,0.013470,-0.191844,0.262280,-0.014161,0.362035
290,1584764530,0.661981,-0.724589,0.010600,-0.191416,0.293843,0.030695,0.228639
291,1584797864,0.662347,-0.724196,0.008784,-0.191732,0.072534,0.092983,-0.075665
292,1584831198,0.662906,-0.723623,0.007199,-0.192027,-0.101573,-0.035198,-0.125853
293,1584864532,0.663865,-0.722838,0.005201,-0.191735,-0.078384,0.004791,0.111884
294,1584897866,0.665594,-0.721604,0.002027,-0.190445,0.034615,0.151152,0.468092
295,1584931200,0.667489,-0.720245,-0.001469,-0.188958,0.150215,0.086377,0.324196
296,1584964534,0.668786,-0.719332,-0.004169,-0.187804,0.207933,-0.032467,0.187538
297,1584997868,0.669746,-0.718630,-0.006035,-0.187020,0.226392,-0.160202,-0.007310
298,1585031202,0.670637,-0.717902,-0.007296,-0.186574,0.214295,-0.100717,0.053220
299,1585064536,0.671462,-0.717151,-0.007942,-0.186471,0.261755,-0.126430,0.217409
300,1585097870,0.672274,-0.716314,-0.007850,-0.186765,0.169031,-0.196412,0.067816
301,1585131204,0.672833,-0.715614,-0.007025,-0.187467,0.259272,-0.264340,0.064984
302,1585164538,0.673056,-0.715028,-0.005535,-0.188947,0.330697,-0.275775,0.240251
303,1585197872,0.673001,-0.714572,-0.003638,-0.190906,0.290736,-0.234896,0.138065
304,1585231206,0.672926,-0.714141,-0.002005,-0.192794,0.205233,-0.056479,0.138139
305,1585264540,0.673092,-0.713515,-0.000673,-0.194535,-0.015354,0.131865,0.232847
306,1585297874,0.673329,-0.712964,0.000150,-0.195732,0.109021,0.050847,0.332677
307,1585331208,0.673789,-0.712249,0.000064,-0.196751,0.301214,0.071948,0.273069
308,1585364542,0.674134,-0.711447,0.000401,-0.198463,0.108623,0.088751,0.170600
309,1585397876,0.674342,-0.710720,0.001118,-0.200348,0.023190,0.004797,0.059988
310,1585431210,0.674921,-0.709671,0.001920,-0.202103,-0.151239,0.094506,0.153869
311,1585464544,0.676079,-0.708279,0.002185,-0.203112,-0.238597,0.144561,0.084338
312,1585497878,0.677512,-0.706742,0.002278,-0.203691,-0.238025,0.062002,0.001045
313,1585531212,0.678932,-0.705290,0.002385,-0.203989,-0.167611,-0.079875,0.023652
314,1585564546,0.680304,-0.703946,0.002324,-0.204063,-0.020458,-0.178223,0.158423
315,1585597880,0.681468,-0.702820,0.002198,-0.204063,-0.028029,-0.249353,0.117302
316,1585631214,0.682220,-0.702117,0.001988,-0.203970,-0.103476,-0.323585,0.088522
317,1585664548,0.682513,-0.701868,0.001908,-0.203849,-0.059913,-0.373350,0.098123
318,1585697882,0.682621,-0.701823,0.001838,-0.203642,-0.042903,-0.253141,0.216365
319,1585731216,0.682528,-0.702152,0.000859,-0.202825,0.102414,-0.234288,0.125886
320,1585764550,0.682178,-0.702707,-0.000130,-0.202082,0.091625,-0.343768,0.045926
321,1585797884,0.681749,-0.703133,-0.000037,-0.202047,0.033606,-0.209455,0.122100
322,1585831218,0.681098,-0.703774,0.000163,-0.202013,0.314808,-0.219266,0.241117
323,1585864552,0.680077,-0.704456,0.000873,-0.203069,0.395933,0.096620,0.063012
324,1585897886,0.679339,-0.704821,0.002166,-0.204259,-0.011253,0.591527,0.066595
325,1585931220,0.678781,-0.705180,0.002349,-0.204870,0.569405,1.527995,0.520936
326,1585964554,0.681564,-0.702883,0.000382,-0.203537,-0.295001,3.637011,0.757664
327,1585997888,0.686033,-0.700320,-0.004500,-0.197209,-0.126595,2.624458,0.628006
328,1586031222,0.689961,-0.697615,-0.008222,-0.192926,0.747309,1.558049,0.574808
329,1586064556,0.694280,-0.693249,-0.007384,-0.193201,0.490802,0.981545,0.886155
330,1586097890,0.700657,-0.686704,-0.005262,-0.193623,-0.870053,-0.848628,0.186445
331,1586131224,0.708714,-0.680039,-0.006788,-0.187686,-2.113509,-1.882923,-0.105494
332,1586164558,0.715879,-0.674361,-0.007612,-0.180826,-0.095288,-1.042785,-0.050213
333,1586197892,0.722281,-0.669260,-0.007835,-0.174188,0.380493,-1.701201,-0.657542
334,1586231226,0.728427,-0.663730,-0.006274,-0.169759,-0.632314,-2.005277,-0.651450
335,1586264560,0.730481,-0.661848,-0.002127,-0.168375,-0.167446,-1.215654,-0.578579
336,1586297894,0.730967,-0.662024,-0.000193,-0.165565,0.791834,-1.576877,-0.538656
337,1586331228,0.730349,-0.662602,0.004880,-0.165910,0.412352,-1.054210,-0.364165
338,1586364562,0.727210,-0.665536,0.009893,-0.167721,0.057906,-0.909649,-0.195320
339,1586397896,0.722470,-0.670247,0.012448,-0.169266,0.197232,-1.105420,-0.192970
340,1586431230,0.717085,-0.675535,0.012832,-0.171107,0.414377,-0.945480,-0.040824
341,1586464564,0.711028,-0.681054,0.013713,-0.174408,-0.032902,-0.770294,0.180774
342,1586497898,0.704565,-0.687115,0.013892,-0.176831,0.130010,-0.860198,0.222210
343,1586531232,0.698465,-0.692903,0.012549,-0.178539,0.482779,-1.020910,0.242834
344,1586564566,0.692369,-0.698193,0.012059,-0.181680,0.512221,-0.861619,0.361265
345,1586597900,0.686220,-0.702833,0.014299,-0.186879,0.230326,-0.215567,0.691361
346,1586631234,0.681368,-0.705991,0.017565,-0.192368,-0.010709,0.092824,0.857780
347,1586664568,0.678812,-0.707214,0.020027,-0.196628,0.335213,0.783296,0.927048
348,1586697902,0.678439,-0.705971,0.023347,-0.201946,0.045533,1.557963,0.837295
349,1586731236,0.680012,-0.703297,0.024783,-0.205776,0.264072,2.031454,0.865911
350,1586764570,0.683515,-0.699411,0.022920,-0.207620,0.651202,1.417087,0.444306
351,1586797904,0.685659,-0.696108,0.023389,-0.211563,0.456647,0.629160,0.001507
352,1586831238,0.685907,-0.694142,0.027173,-0.216706,-0.297177,-0.077719,-0.277284
353,1586864572,0.685912,-0.692927,0.030281,-0.220138,-0.626320,-0.335890,-0.337454
354,1586897906,0.686910,-0.691693,0.029511,-0.221010,-0.320319,-0.520512,-0.346863
355,1586931240,0.688798,-0.690316,0.025632,-0.219922,-0.280229,-0.299803,-0.164527
356,1586964574,0.690773,-0.689062,0.021216,-0.218121,-0.169961,0.095750,0.162188
357,1586997908,0.692845,-0.688218,0.014842,-0.214713,0.185034,0.082637,0.266991
358,1587031242,0.694249,-0.687676,0.009198,-0.212218,0.783625,0.346075,0.205258
359,1587064576,0.694573,-0.687123,0.007454,-0.213015,0.864065,0.608010,0.374573
360,1587097910,0.695033,-0.686120,0.007754,-0.214731,0.479204,0.652606,0.368651
361,1587131244,0.695777,-0.684978,0.007457,-0.215971,0.031057,0.349358,0.166417
362,1587164578,0.695858,-0.684571,0.006649,-0.217026,-0.156900,-0.032830,-0.047828
363,1587197912,0.696006,-0.684497,0.004706,-0.216837,-0.341079,0.051789,-0.120525
364,1587231246,0.696865,-0.684501,0.000443,-0.214100,-0.146223,-0.384145,-0.252332
365,1587264580,0.696136,-0.685867,-0.002211,-0.212079,0.240059,-0.883425,-0.337586
366,1587297914,0.694562,-0.687916,-0.003046,-0.210589,0.047047,-0.951196,-0.474308
367,1587331248,0.692236,-0.690686,-0.002285,-0.209183,-0.218923,-0.984033,-0.377043
368,1587364582,0.688724,-0.694499,0.000472,-0.208159,-0.415709,-1.192829,-0.304796
369,1587397916,0.685651,-0.698070,0.004687,-0.206300,-1.353244,-0.827054,0.009623
370,1587431250,0.682966,-0.702147,0.007655,-0.201218,-1.013503,-0.846892,-0.273915
371,1587464584,0.678805,-0.709107,0.007696,-0.190613,1.107601,-2.872971,-0.040180
372,1587497918,0.673571,-0.714840,0.012319,-0.187495,2.394932,0.052931,1.105077
373,1587531252,0.672612,-0.715864,0.019368,-0.186435,0.652913,1.259185,0.647446
374,1587564586,0.665787,-0.720801,0.031813,-0.190166,0.634429,0.081399,0.735949
375,1587597920,0.657377,-0.726771,0.044361,-0.194144,-0.229919,-0.596794,0.242211
376,1587631254,0.648091,-0.734472,0.054402,-0.193830,-0.909294,0.489333,-0.120432
377,1587664588,0.639430,-0.742877,0.060928,-0.188551,-1.402589,0.179788,-0.389272
378,1587697922,0.630723,-0.752436,0.063531,-0.178869,-0.939840,-0.521097,0.059187
379,1587731256,0.625177,-0.760105,0.060496,-0.166536,-0.005552,-0.173717,0.723603
380,1587764590,0.622116,-0.766441,0.053200,-0.150702,0.633518,1.168880,0.822521
381,1587797924,0.621362,-0.770561,0.046263,-0.134181,1.196234,2.450400,0.670622
382,1587831258,0.624432,-0.769962,0.042946,-0.124099,1.675976,2.347985,0.555672
383,1587864592,0.627566,-0.767928,0.043723,-0.120564,0.701443,0.551146,0.189476
384,1587897926,0.626933,-0.768325,0.048288,-0.119586,-0.298588,-1.033856,-0.099024
385,1587931260,0.625400,-0.769418,0.053227,-0.118484,-0.822134,-0.968575,-0.111444
386,1587964594,0.625743,-0.769644,0.055009,-0.114322,-1.140389,-0.187519,0.017121
387,1587997928,0.627866,-0.769397,0.052181,-0.105311,-0.491238,-0.104748,0.284402
388,1588031262,0.629890,-0.769402,0.048030,-0.094617,0.219263,-0.273114,0.026275
389,1588064596,0.631147,-0.769354,0.046544,-0.087075,0.377388,-0.015996,0.143160
390,1588097930,0.633064,-0.768295,0.047111,-0.082060,0.310342,0.344226,0.285032
391,1588131264,0.634921,-0.766985,0.049081,-0.078749,0.068604,0.243436,0.049459
392,1588164598,0.636366,-0.765803,0.051921,-0.076742,-0.304853,0.168649,0.116733
393,1588197932,0.638254,-0.764369,0.053668,-0.074117,-0.360413,0.028276,0.152917
394,1588231266,0.639885,-0.763330,0.054064,-0.070374,-0.383517,-0.195331,0.014563
395,1588264600,0.641654,-0.762246,0.053742,-0.066139,-0.336783,0.136720,0.058012
396,1588297934,0.643395,-0.761054,0.053993,-0.062644,-0.256175,0.246413,0.264322
397,1588331268,0.644566,-0.760186,0.054989,-0.060248,-0.171846,0.226460,0.068789
398,1588364602,0.645539,-0.759377,0.056272,-0.058830,-0.204566,0.363384,0.082895
399,1588397936,0.646428,-0.758600,0.057594,-0.057794,-0.293084,0.335709,0.153291
400,1588431270,0.647143,-0.758048,0.058201,-0.056420,-0.263116,0.118169,0.138092
401,1588464604,0.647584,-0.757791,0.058230,-0.054759,-0.238056,0.094470,0.034874
402,1588497938,0.647838,-0.757733,0.057773,-0.053009,-0.139528,0.294582,0.115438
403,1588531272,0.648110,-0.757702,0.056816,-0.051117,-0.298788,0.240841,0.143330
404,1588564606,0.648213,-0.757885,0.055140,-0.048892,-0.225612,0.168546,0.099476
405,1588597940,0.648003,-0.758317,0.053357,-0.046920,-0.291391,0.114703,0.148239
406,1588631274,0.648097,-0.758511,0.051175,-0.044858,-0.094049,0.182534,0.088447
407,1588664608,0.648004,-0.758800,0.049274,-0.043424,-0.125981,0.233802,0.164696
408,1588697942,0.647896,-0.759081,0.047326,-0.042276,-0.160403,0.066327,0.120109
409,1588731276,0.647629,-0.759465,0.045482,-0.041486,-0.220879,-0.032235,0.137915
410,1588764610,0.647709,-0.759540,0.043570,-0.040912,-0.078410,-0.154911,0.209026
411,1588797944,0.648069,-0.759307,0.042263,-0.040901,0.002582,-0.122423,0.124298
412,1588831278,0.648030,-0.759340,0.041631,-0.041555,-0.201007,-0.184130,0.145748
413,1588864612,0.648117,-0.759277,0.040680,-0.042297,-0.088887,-0.007353,0.143187
414,1588897946,0.648462,-0.758976,0.039730,-0.043285,0.087750,0.222872,0.144897
415,1588931280,0.648700,-0.758694,0.039359,-0.044973,0.168839,0.238069,0.106357
416,1588964614,0.648532,-0.758665,0.039707,-0.047530,0.070647,0.073968,0.133369
417,1588997948,0.648208,-0.758740,0.040131,-0.050294,-0.076225,0.103609,0.108257
418,1589031282,0.648122,-0.758658,0.040068,-0.052643,-0.131978,0.017200,0.097840
419,1589064616,0.647686,-0.758905,0.039660,-0.054721,-0.279527,-0.100737,0.077129
420,1589097950,0.646806,-0.759558,0.039050,-0.056480,-0.153739,0.001953,0.099643
421,1589131284,0.646162,-0.759977,0.038495,-0.058554,-0.107672,0.255819,0.152301
422,1589164618,0.645639,-0.760243,0.038069,-0.061094,-0.048008,0.182644,0.129004
423,1589197952,0.644895,-0.760584,0.038280,-0.064489,0.036490,0.134538,0.075577
424,1589231286,0.643915,-0.761013,0.039015,-0.068639,-0.048933,0.158223,0.112281
425,1589264620,0.643028,-0.761318,0.039781,-0.072988,-0.209308,0.130389,0.131032
426,1589297954,0.642279,-0.761503,0.040310,-0.077244,-0.112466,-0.040227,0.150970
427,1589331288,0.641708,-0.761488,0.040817,-0.081738,0.074523,-0.083150,0.089028
428,1589364622,0.640979,-0.761500,0.041803,-0.086696,0.050789,-0.093549,0.091224
429,1589397956,0.640091,-0.761560,0.043114,-0.091928,0.003870,-0.106519,0.138037
430,1589431290,0.639241,-0.761602,0.044187,-0.096858,0.004845,-0.194030,0.142785
431,1589464624,0.638475,-0.761625,0.044912,-0.101293,0.019058,-0.098193,0.128185
432,1589497958,0.637716,-0.761666,0.045407,-0.105468,0.006128,-0.018618,0.124525
433,1589531292,0.636822,-0.761905,0.045506,-0.109035,0.034898,-0.063662,0.107742
434,1589564626,0.635989,-0.762172,0.045059,-0.112170,0.120131,-0.052458,0.131314
435,1589597960,0.635181,-0.762425,0.044539,-0.115202,0.076168,0.094634,0.166425
436,1589631294,0.634115,-0.762851,0.044385,-0.118272,0.096479,0.194541,0.171225
437,1589664628,0.632413,-0.763577,0.045234,-0.122302,0.132638,0.295203,0.174334
438,1589697962,0.630146,-0.764587,0.046762,-0.127032,0.026691,0.094715,0.040744
439,1589731296,0.627899,-0.765600,0.047974,-0.131525,-0.113638,0.275680,0.177441
440,1589764630,0.625786,-0.766746,0.048305,-0.134761,0.051019,0.363398,0.076822
441,1589797964,0.623982,-0.767691,0.048305,-0.137713,0.047146,0.257988,0.153919
442,1589831298,0.623363,-0.767634,0.047907,-0.140936,-0.034893,-0.131740,0.377773
443,1589864632,0.622992,-0.767380,0.047581,-0.144033,0.049194,-0.127262,0.162295
444,1589897966,0.622251,-0.767346,0.048036,-0.147231,0.135375,0.008783,-0.011053
445,1589931300,0.621468,-0.767163,0.049053,-0.151107,0.019612,0.117144,0.309673
446,1589964634,0.622158,-0.765694,0.049680,-0.155453,0.119754,0.098046,0.548181
447,1589997968,0.623924,-0.763424,0.049785,-0.159453,0.174602,0.009255,0.241089
448,1590031302,0.625051,-0.761554,0.050470,-0.163710,0.118926,-0.012273,0.112099
449,1590064636,0.626432,-0.759380,0.051124,-0.168262,0.112678,0.102174,0.154180
450,1590097970,0.628661,-0.756542,0.051254,-0.172637,0.046924,0.142632,0.275749
451,1590131304,0.631278,-0.753689,0.050340,-0.175807,-0.004022,0.012068,0.171301
452,1590164638,0.634102,-0.750833,0.048781,-0.178285,-0.049294,0.047666,0.072706
453,1590197972,0.637266,-0.747779,0.046951,-0.180319,0.009795,0.129683,-0.044940
454,1590231306,0.640544,-0.744509,0.045434,-0.182609,0.124662,0.035291,0.199794
455,1590264640,0.644012,-0.741013,0.043933,-0.184983,0.174938,-0.054131,0.256118
456,1590297974,0.647783,-0.737319,0.042263,-0.186956,0.056846,0.105205,0.075445
457,1590331308,0.651670,-0.733462,0.040735,-0.188947,0.023028,0.149360,0.246832
458,1590364642,0.656360,-0.728922,0.038918,-0.190659,0.113924,-0.006430,0.325507
459,1590397976,0.661572,-0.723874,0.036822,-0.192285,0.220744,-0.390866,0.046960
460,1590431310,0.665319,-0.719896,0.035457,-0.194533,0.078419,-0.602946,-0.020364
461,1590464644,0.667552,-0.717339,0.034481,-0.196496,0.043848,-0.649651,0.000934
462,1590497978,0.668626,-0.715929,0.033940,-0.198077,-0.294729,-0.585006,-0.022253
463,1590531312,0.669124,-0.715200,0.033533,-0.199094,-0.304271,-0.639505,-0.041545
464,1590564646,0.668947,-0.715172,0.033276,-0.199832,-0.192582,-0.632366,-0.077689
465,1590597980,0.667874,-0.716210,0.032886,-0.199766,-0.099794,-0.524048,-0.021786
466,1590631314,0.666328,-0.717797,0.032656,-0.199271,-0.112235,-0.271741,0.034385
467,1590664648,0.664080,-0.720181,0.032309,-0.198228,0.017017,-0.152609,0.276436
468,1590697982,0.661994,-0.722548,0.031383,-0.196735,0.140666,0.150691,0.338722
469,1590731316,0.659955,-0.724824,0.030483,-0.195350,0.235483,0.228922,0.334262
470,1590764650,0.658172,-0.726701,0.029760,-0.194503,0.169983,0.328711,0.282095
471,1590797984,0.656671,-0.728237,0.028929,-0.193955,0.215982,0.435902,0.315645
472,1590831318,0.656713,-0.728290,0.027740,-0.193787,0.212242,0.521574,0.395567
473,1590864652,0.657775,-0.727115,0.026960,-0.194705,0.226411,0.229991,0.113440
474,1590897986,0.658667,-0.725733,0.027150,-0.196809,-0.048426,0.159975,0.115308
475,1590931320,0.659982,-0.723777,0.027845,-0.199489,0.066782,0.019590,0.128464
476,1590964654,0.661374,-0.721497,0.029053,-0.202935,0.045763,-0.141512,0.112803
477,1590997988,0.662245,-0.719491,0.030848,-0.206915,-0.174631,-0.105840,-0.028542
478,1591031322,0.662978,-0.717614,0.032577,-0.210781,-0.237671,-0.124245,-0.010008
479,1591064656,0.663317,-0.716121,0.034316,-0.214486,-0.187445,-0.230455,0.116477
480,1591097990,0.663273,-0.715017,0.036083,-0.217986,-0.198788,-0.045717,0.082664
481,1591131324,0.663157,-0.714298,0.037129,-0.220508,-0.189368,0.137763,0.062742
482,1591164658,0.663399,-0.713682,0.036819,-0.221822,-0.079050,0.203999,0.193258
483,1591197992,0.664128,-0.712777,0.035689,-0.222734,-0.052737,0.248541,0.276587
484,1591231326,0.665331,-0.711572,0.033820,-0.223287,-0.083542,0.238238,0.291890
485,1591264660,0.666798,-0.710258,0.031539,-0.223428,-0.068293,0.135581,0.217552
486,1591297994,0.668432,-0.708791,0.029345,-0.223503,0.022007,0.010097,0.042178
487,1591331328,0.670280,-0.706836,0.027836,-0.224350,0.017585,-0.050677,0.219524
488,1591364662,0.672222,-0.704704,0.026540,-0.225403,-0.006910,-0.140646,0.234095
489,1591397996,0.674119,-0.702608,0.025320,-0.226415,-0.064815,-0.230744,0.075236
490,1591431330,0.675676,-0.700833,0.024235,-0.227394,-0.105593,-0.247747,-0.034820
491,1591464664,0.677360,-0.699113,0.022560,-0.227851,0.010411,0.174123,0.430345
492,1591497998,0.679882,-0.697018,0.019432,-0.227044,-0.031620,0.226307,0.242105
493,1591531332,0.681715,-0.695628,0.016648,-0.226032,-0.053923,-0.022139,-0.011574
494,1591564666,0.683197,-0.694520,0.013775,-0.225155,0.142281,-0.240802,-0.013235
495,1591598000,0.684252,-0.693793,0.010620,-0.224362,0.301264,-0.446510,-0.069888
496,1591631334,0.684608,-0.693419,0.008538,-0.224522,0.375746,-0.608629,0.005745
497,1591664668,0.685472,-0.692527,0.005857,-0.224725,0.391013,-0.453747,-0.390213
498,1591698002,0.685016,-0.693101,0.004026,-0.224385,-0.521652,-1.410803,-0.407142
499,1591731336,0.682343,-0.695183,0.007137,-0.226008,-1.601549,-1.386057,-0.194633
500,1591764670,0.679061,-0.698691,0.008954,-0.225006,-0.898766,-0.199706,-0.022154
501,1591798004,0.676673,-0.701931,0.009168,-0.222087,0.187259,0.327702,0.326379
502,1591831338,0.674301,-0.705007,0.009508,-0.219531,0.722219,0.700035,0.244267
503,1591864672,0.671507,-0.709058,0.008851,-0.215032,0.443179,0.772193,0.035020
504,1591898006,0.670090,-0.712656,0.006400,-0.207509,0.692685,0.994685,1.064291
505,1591931340,0.668050,-0.715372,0.007949,-0.204672,1.992084,-0.699206,0.513156
506,1591964674,0.664059,-0.717524,0.014396,-0.209710,1.299209,-0.149863,0.383059
507,1591998008,0.663347,-0.717233,0.017988,-0.212662,0.008217,0.544112,0.231248
508,1592031342,0.664842,-0.715485,0.019418,-0.213753,-0.135710,0.537577,0.321130
509,1592064676,0.667853,-0.713148,0.018116,-0.212287,-0.049768,0.359437,0.175824
510,1592098010,0.670650,-0.710892,0.017008,-0.211123,0.302708,0.148808,0.057483
511,1592131344,0.672884,-0.708399,0.018152,-0.212296,0.440907,-0.128474,0.162833
512,1592164678,0.674700,-0.705499,0.021960,-0.215801,0.311278,-0.156866,0.256770
513,1592198012,0.677225,-0.701632,0.026030,-0.220003,-0.104939,-0.224162,0.421820
514,1592231346,0.679698,-0.698448,0.028445,-0.222200,0.128651,-0.592667,-0.170452
515,1592264680,0.680347,-0.698025,0.029106,-0.221457,-0.032435,-0.829143,-0.266692
516,1592298014,0.679976,-0.698894,0.028205,-0.219966,0.490430,-0.399639,-0.714187
517,1592331348,0.679397,-0.700062,0.027479,-0.218125,-1.115956,-0.043669,-1.069781
518,1592364682,0.678193,-0.702280,0.027588,-0.214702,-0.973965,-0.169820,0.144726
519,1592398016,0.678935,-0.702753,0.029699,-0.210484,-0.646754,0.563950,0.367336
520,1592431350,0.677231,-0.705568,0.034265,-0.205814,0.351353,-1.014559,-0.211406
521,1592464684,0.670905,-0.712000,0.041697,-0.202990,0.796395,-2.109418,0.219640
522,1592498018,0.666320,-0.716704,0.047744,-0.200187,0.771880,0.377623,0.874991
523,1592531352,0.664691,-0.719502,0.051092,-0.194661,1.215316,-0.469217,0.413074
524,1592564686,0.658544,-0.725168,0.056391,-0.193062,0.964850,-0.803759,0.156895
525,1592598020,0.650660,-0.732540,0.062671,-0.190000,-0.823141,-0.237019,0.028915
526,1592631354,0.641010,-0.741751,0.070673,-0.184169,-1.264876,0.057652,0.286697
527,1592664688,0.631608,-0.751065,0.075921,-0.176663,0.232959,0.026139,0.444169
528,1592698022,0.626146,-0.757704,0.074831,-0.168011,0.033364,1.564129,0.235058
529,1592731356,0.624092,-0.762569,0.070108,-0.155189,-0.539126,1.075905,0.322892
530,1592764690,0.622422,-0.766339,0.067512,-0.144079,0.649216,0.609122,0.250186
531,1592798024,0.620685,-0.769093,0.067008,-0.136958,0.683461,0.710931,0.080192
532,1592831358,0.620230,-0.770393,0.067309,-0.131452,0.099012,0.496777,0.116420
533,1592864692,0.619442,-0.771429,0.068769,-0.128299,-0.283337,0.123684,0.245518
534,1592898026,0.617867,-0.773134,0.070278,-0.124761,-0.645498,-0.388328,0.112179
535,1592931360,0.616881,-0.774610,0.070686,-0.120175,-0.473811,-0.258672,0.006165
536,1592964694,0.616650,-0.775730,0.069589,-0.114650,-0.552574,0.021607,0.230180
537,1592998028,0.616757,-0.776716,0.067479,-0.108487,-0.271647,0.075896,0.123837
538,1593031362,0.616763,-0.777586,0.065755,-0.103152,0.039563,-0.098474,0.040232
539,1593064696,0.616281,-0.778524,0.065269,-0.099190,-0.078516,-0.004008,0.141370
540,1593098030,0.615955,-0.779222,0.065026,-0.095837,-0.205363,0.166100,0.169479
541,1593131364,0.615800,-0.779705,0.064895,-0.092950,-0.289117,0.095555,0.179695
542,1593164698,0.616010,-0.779862,0.064623,-0.090397,-0.304174,0.156456,0.212903
543,1593198032,0.616121,-0.780112,0.064149,-0.087789,-0.208567,0.073767,0.231895
544,1593231366,0.616396,-0.780149,0.063759,-0.085787,-0.048391,0.238730,0.140249
545,1593264700,0.616925,-0.779944,0.063281,-0.084183,-0.149731,0.206509,0.167215
546,1593298034,0.617190,-0.779888,0.062979,-0.082981,-0.248706,-0.058580,0.131021
547,1593331368,0.617375,-0.779834,0.062818,-0.082227,-0.233927,-0.103001,0.129026
548,1593364702,0.617750,-0.779626,0.062549,-0.081593,-0.196082,0.087468,0.144903
549,1593398036,0.618109,-0.779401,0.062318,-0.081196,-0.173660,0.080303,0.135423
550,1593431370,0.618316,-0.779232,0.062292,-0.081258,-0.105992,0.134530,0.128112
551,1593464704,0.618433,-0.779075,0.062429,-0.081769,-0.034177,0.199442,0.063124
552,1593498038,0.618385,-0.779032,0.062566,-0.082439,-0.120754,0.140215,0.139832
553,1593531372,0.618218,-0.779091,0.062581,-0.083113,-0.166156,-0.048552,0.132746
554,1593564706,0.618107,-0.779160,0.062233,-0.083555,-0.018580,-0.123286,0.060985
555,1593598040,0.618059,-0.779280,0.061361,-0.083439,-0.024810,-0.053052,0.062234
556,1593631374,0.618087,-0.779438,0.059965,-0.082765,-0.068843,0.159571,0.137394
557,1593664708,0.618104,-0.779659,0.058207,-0.081805,0.015842,0.231177,0.113276
558,1593698042,0.618011,-0.779922,0.056655,-0.081080,0.113458,0.145222,0.122534
559,1593731376,0.617890,-0.780160,0.055319,-0.080640,0.117244,-0.103787,0.173165
560,1593764710,0.617706,-0.780417,0.054104,-0.080390,-0.060440,-0.235124,0.174462
561,1593798044,0.617791,-0.780517,0.052559,-0.079786,-0.063089,-0.173060,0.132057
562,1593831378,0.618068,-0.780521,0.050629,-0.078846,0.038682,0.013680,0.161189
563,1593864712,0.618390,-0.780518,0.048531,-0.077652,0.171607,0.091828,0.148441
564,1593898046,0.618709,-0.780453,0.046904,-0.076769,0.249222,0.181616,0.115060
565,1593931380,0.618880,-0.780375,0.046141,-0.076641,0.115823,0.159238,0.181644
566,1593964714,0.618779,-0.780433,0.045833,-0.077055,0.016872,0.065879,0.117406
567,1593998048,0.618646,-0.780445,0.045888,-0.077960,-0.132867,0.150384,0.104034
568,1594031382,0.618716,-0.780308,0.045803,-0.078817,-0.177448,0.148338,0.126978
569,1594064716,0.618828,-0.780159,0.045487,-0.079592,-0.045315,-0.008282,0.100788
570,1594098050,0.618709,-0.780122,0.045538,-0.080849,-0.080932,0.086811,0.041180
571,1594131384,0.618255,-0.780331,0.045759,-0.082162,-0.222392,0.076692,0.165704
572,1594164718,0.617920,-0.780457,0.045556,-0.083594,-0.179556,0.164562,0.117426
573,1594198052,0.617554,-0.780704,0.044635,-0.084475,-0.287990,0.063568,0.129445
574,1594231386,0.617115,-0.781142,0.042930,-0.084530,-0.078017,-0.065865,0.106133
575,1594264720,0.616756,-0.781605,0.040675,-0.083975,-0.088360,0.035895,0.143139
576,1594298054,0.616414,-0.782147,0.037795,-0.082774,-0.030297,0.004509,0.116832
577,1594331388,0.615931,-0.782784,0.034833,-0.081645,0.033827,0.019097,0.134453
578,1594364722,0.615305,-0.783494,0.032134,-0.080648,-0.081720,-0.059463,0.145041
579,1594398056,0.614785,-0.784058,0.029647,-0.080086,-0.044144,-0.133239,0.148435
580,1594431390,0.614479,-0.784456,0.026927,-0.079505,-0.310544,-0.155575,0.171047
581,1594464724,0.614566,-0.784578,0.023824,-0.078614,-0.166000,-0.227400,0.180552
582,1594498058,0.614686,-0.784573,0.021322,-0.078434,0.127130,-0.243515,0.149016
583,1594531392,0.614789,-0.784403,0.020048,-0.079656,0.214514,0.060773,0.056100
584,1594564726,0.614634,-0.784266,0.020112,-0.082146,0.062986,0.361821,0.140681
585,1594598060,0.614047,-0.784318,0.021075,-0.085722,-0.002491,0.283121,0.114108
586,1594631394,0.613121,-0.784540,0.022409,-0.089879,-0.271994,0.188661,0.116620
587,1594664728,0.612495,-0.784531,0.023323,-0.093903,-0.138819,0.205886,0.174358
588,1594698062,0.612696,-0.783837,0.023918,-0.098139,0.037152,0.312469,0.240767
589,1594731396,0.613296,-0.782721,0.024971,-0.102926,0.135157,0.241086,0.177377
590,1594764730,0.613365,-0.781801,0.027028,-0.108810,0.202424,0.046137,0.109091
591,1594798064,0.613312,-0.780780,0.029760,-0.115525,0.076507,0.124199,0.161436
592,1594831398,0.613830,-0.779151,0.032845,-0.122713,0.075470,0.186598,0.139726
593,1594864732,0.614674,-0.777127,0.036062,-0.130193,0.105551,0.077259,0.285793
594,1594898066,0.615699,-0.774891,0.038995,-0.137616,0.186776,0.128376,0.464797
595,1594931400,0.617820,-0.771803,0.041319,-0.144605,0.305636,0.360986,0.426070
596,1594964734,0.620852,-0.767629,0.044385,-0.152704,0.454695,0.372581,0.196308
597,1594998068,0.624244,-0.762634,0.048497,-0.162349,0.564747,0.384853,0.178281
598,1595031402,0.628095,-0.756824,0.053072,-0.172908,0.402698,0.219436,0.382204
599,1595064736,0.633157,-0.749638,0.057665,-0.183931,0.251089,-0.004494,0.441253
600,1595098070,0.638546,-0.742053,0.061609,-0.194479,0.051334,0.204483,0.136141
601,1595131404,0.644111,-0.734462,0.064413,-0.203811,-0.088868,0.171308,0.155276
602,1595164738,0.650577,-0.726356,0.065924,-0.211689,-0.127125,-0.131874,0.225341
603,1595198072,0.657265,-0.718402,0.066376,-0.217936,0.032176,-0.592756,-0.018601
604,1595231406,0.662871,-0.711794,0.065556,-0.222832,-0.069044,-0.765446,-0.128220
605,1595264740,0.667059,-0.705969,0.066419,-0.228538,-0.168777,-1.285415,-0.060724
606,1595298074,0.668760,-0.702101,0.069324,-0.234541,-0.459717,-1.268402,-0.233495
607,1595331408,0.668280,-0.700486,0.072848,-0.239616,-0.618224,-0.957872,-0.198200
608,1595364742,0.666596,-0.700278,0.076424,-0.243764,-0.586690,-0.676166,-0.046931
609,1595398076,0.664430,-0.701163,0.079329,-0.246194,-0.528357,-0.283522,0.110419
610,1595431410,0.662255,-0.703076,0.080528,-0.246210,-0.199314,-0.054415,0.076340
611,1595464744,0.660245,-0.705194,0.081067,-0.245370,0.319113,0.007435,0.018929
612,1595498078,0.657960,-0.707649,0.081458,-0.244311,0.544788,-0.113640,0.018775
613,1595531412,0.655472,-0.710146,0.082363,-0.243448,0.477160,-0.002377,-0.009176
614,1595564746,0.652857,-0.712516,0.084030,-0.242978,0.269744,0.110738,0.103724
615,1595598080,0.651721,-0.712639,0.086623,-0.244750,-0.301397,0.451636,0.572054
616,1595631414,0.650878,-0.713619,0.087611,-0.243784,0.558665,0.091550,0.090661
617,1595664748,0.650710,-0.714718,0.086745,-0.241311,0.518784,0.083923,0.037740
618,1595698082,0.649027,-0.716580,0.087927,-0.239890,0.105303,0.248344,0.144834
619,1595731416,0.648915,-0.717038,0.088803,-0.238499,0.153769,0.320507,0.619223
620,1595764750,0.649944,-0.717051,0.088396,-0.235789,0.452456,-0.065746,-0.219203
621,1595798084,0.649181,-0.718188,0.089653,-0.233952,-0.101180,-0.331496,0.029257
622,1595831418,0.648840,-0.718734,0.091111,-0.232653,0.114188,-0.362664,0.282809
623,1595864752,0.648919,-0.719532,0.090996,-0.229995,0.097861,-0.915882,-0.014630
624,1595898086,0.647607,-0.721034,0.092842,-0.228246,-0.107820,-0.829933,0.024432
625,1595931420,0.644515,-0.723710,0.096430,-0.227039,-0.100399,-0.459866,0.140744
626,1595964754,0.640455,-0.727437,0.100063,-0.225036,0.243356,-0.109388,0.137259
627,1595998088,0.636295,-0.731556,0.102891,-0.222191,0.416084,0.331343,-0.016248
628,1596031422,0.632663,-0.735378,0.104859,-0.219001,0.304705,0.458026,0.254805
629,1596064756,0.630745,-0.737909,0.106085,-0.215402,0.197344,0.270585,0.382713
630,1596098090,0.630608,-0.738625,0.107669,-0.212544,0.159547,0.360486,0.296504
631,1596131424,0.630886,-0.738515,0.110143,-0.210824,0.105769,0.238962,0.129666
632,1596164758,0.630517,-0.738915,0.112925,-0.209049,-0.185736,-0.081944,0.030087
633,1596198092,0.629925,-0.739743,0.115268,-0.206615,-0.274796,-0.174082,0.078283
634,1596231426,0.629295,-0.740949,0.116870,-0.203286,-0.271556,-0.312238,0.066164
635,1596264760,0.628062,-0.742907,0.118220,-0.199131,-0.507794,-0.582887,-0.033822
636,1596298094,0.626294,-0.745439,0.119366,-0.194494,-0.330588,-0.495167,0.028972
637,1596331428,0.624409,-0.748341,0.119882,-0.189019,-0.241042,-0.328358,0.014802
638,1596364762,0.622203,-0.751437,0.120451,-0.183568,-0.148919,-0.164112,0.027501
639,1596398096,0.619657,-0.754803,0.120956,-0.177955,0.005456,0.035384,0.279207
640,1596431430,0.617843,-0.757485,0.120971,-0.172781,0.416545,0.675329,0.273624
641,1596464764,0.617065,-0.759437,0.120228,-0.167426,0.269735,1.242121,0.352201
642,1596498098,0.617167,-0.760684,0.119081,-0.162131,0.413894,1.089416,0.205450
643,1596531432,0.617335,-0.761515,0.118368,-0.158058,0.189133,0.571790,0.090627
644,1596564766,0.617267,-0.762463,0.117642,-0.154246,-0.235131,0.194217,0.106698
645,1596598100,0.616913,-0.763950,0.115977,-0.149495,-0.561935,0.053301,0.097712
646,1596631434,0.616829,-0.765681,0.112766,-0.143313,-0.394988,0.181849,0.067210
647,1596664768,0.617236,-0.767273,0.108257,-0.136355,-0.214237,0.248580,0.175832
648,1596698102,0.617662,-0.768825,0.103428,-0.129247,-0.159466,0.144202,0.123705
649,1596731436,0.618012,-0.770166,0.099062,-0.122852,-0.010647,0.098446,0.089391
650,1596764770,0.618193,-0.771353,0.095300,-0.117348,0.007550,0.206546,0.132164
651,1596798104,0.618186,-0.772481,0.092009,-0.112485,-0.138321,0.166888,0.163627
652,1596831438,0.618009,-0.773645,0.088869,-0.107893,-0.299071,0.160218,0.114743
653,1596864772,0.618002,-0.774680,0.085381,-0.103224,-0.268180,0.312005,0.128325
654,1596898106,0.617949,-0.775810,0.081286,-0.098238,-0.097274,0.110256,0.187254
655,1596931440,0.617694,-0.777003,0.077274,-0.093540,-0.089617,0.106848,0.111115
656,1596964774,0.617775,-0.777798,0.073495,-0.089351,0.081287,0.265060,0.207674
657,1596998108,0.617805,-0.778418,0.070440,-0.086147,0.145692,-0.013342,0.180313
658,1597031442,0.617263,-0.779249,0.068550,-0.084020,0.006667,-0.278908,0.041906
659,1597064776,0.616669,-0.779989,0.067209,-0.082591,-0.230265,-0.092170,0.149209
660,1597098110,0.616224,-0.780637,0.065624,-0.081044,-0.201321,-0.089609,0.179784
661,1597131444,0.615590,-0.781423,0.063991,-0.079581,-0.211039,-0.071765,0.110501
662,1597164778,0.615073,-0.782164,0.061966,-0.077888,-0.071460,0.023902,0.162149
663,1597198112,0.614712,-0.782746,0.059996,-0.076410,0.051932,0.100724,0.136690
664,1597231446,0.614342,-0.783275,0.058208,-0.075349,0.098462,0.137661,0.155732
665,1597264780,0.613962,-0.783755,0.056649,-0.074638,-0.007597,0.237906,0.160261
666,1597298114,0.613590,-0.784174,0.055282,-0.074325,0.094870,0.181364,0.154688
667,1597331448,0.613380,-0.784378,0.054316,-0.074603,0.026754,0.270696,0.150333
668,1597364782,0.613459,-0.784391,0.053140,-0.074671,-0.139551,0.164855,0.184999
669,1597398116,0.613347,-0.784520,0.052112,-0.074960,-0.026400,-0.199675,0.098543
670,1597431450,0.613157,-0.784642,0.051370,-0.075752,-0.122210,-0.215953,0.072883
671,1597464784,0.613055,-0.784721,0.050502,-0.076329,-0.104291,-0.364675,0.155302
672,1597498118,0.612908,-0.784804,0.049855,-0.077086,0.012766,-0.432267,0.144158
673,1597531452,0.612712,-0.784898,0.049336,-0.078007,-0.099041,-0.244951,0.197154
674,1597564786,0.612719,-0.784796,0.049038,-0.079167,0.059016,-0.035914,0.197938
675,1597598120,0.612673,-0.784620,0.049287,-0.081082,0.095945,0.063593,0.085812
676,1597631454,0.612243,-0.784620,0.050254,-0.083695,0.047621,0.035813,0.154097
677,1597664788,0.611762,-0.784588,0.051544,-0.086683,-0.074117,0.053850,0.104531
678,1597698122,0.611179,-0.784688,0.052538,-0.089253,-0.227756,-0.108280,0.116096
679,1597731456,0.610461,-0.784987,0.053002,-0.091238,-0.171079,-0.291390,0.012987
680,1597764790,0.609507,-0.785531,0.053151,-0.092835,-0.176427,-0.232271,0.203970
681,1597798124,0.608750,-0.786000,0.052938,-0.093944,-0.013377,-0.091525,0.181568
682,1597831458,0.608076,-0.786324,0.053063,-0.095521,0.218966,0.018143,0.071051
683,1597864792,0.607392,-0.786605,0.053458,-0.097311,0.097661,0.006216,0.139642
684,1597898126,0.606670,-0.786890,0.054122,-0.099132,-0.040271,-0.037769,0.180442
685,1597931460,0.606144,-0.787010,0.054718,-0.101056,0.013181,0.102866,0.153599
686,1597964794,0.605908,-0.786975,0.054952,-0.102605,-0.149096,0.207848,0.157561
687,1597998128,0.605877,-0.786848,0.054789,-0.103837,0.012090,0.170262,0.168185
688,1598031462,0.605903,-0.786705,0.054266,-0.105042,0.158971,0.120641,0.046373
689,1598064796,0.605811,-0.786626,0.053960,-0.106305,-0.128967,0.126149,0.181711
690,1598098130,0.605630,-0.786606,0.053777,-0.107571,-0.131185,0.111935,0.159178
691,1598131464,0.605506,-0.786546,0.053281,-0.108950,0.003451,0.120269,0.061710
692,1598164798,0.605336,-0.786541,0.052654,-0.110230,-0.190040,0.086657,0.151052
693,1598198132,0.605133,-0.786570,0.052004,-0.111438,-0.186886,0.009439,0.150534
694,1598231466,0.605026,-0.786600,0.050890,-0.112318,-0.027557,-0.049591,0.064104
695,1598264800,0.605162,-0.786409,0.049813,-0.113397,-0.044431,-0.040291,0.128849
696,1598298134,0.605320,-0.786141,0.049187,-0.114681,-0.045966,-0.142242,0.154316
697,1598331468,0.605568,-0.785694,0.048967,-0.116512,0.096587,-0.116514,0.101009
698,1598364802,0.605917,-0.785091,0.049099,-0.118689,0.054975,-0.001734,0.125854
699,1598398136,0.606059,-0.784572,0.049685,-0.121126,0.036793,-0.143103,0.160439
700,1598431470,0.606184,-0.783965,0.050541,-0.124041,-0.029969,-0.066476,0.070557
701,1598464804,0.606473,-0.783400,0.050758,-0.126091,-0.120410,0.067985,0.168489
702,1598498138,0.607034,-0.782863,0.049958,-0.127041,-0.012187,0.082529,0.170432
703,1598531472,0.607751,-0.782185,0.049014,-0.128154,-0.058281,0.276413,0.157752
704,1598564806,0.608834,-0.781333,0.047541,-0.128768,-0.003143,0.325397,0.245097
705,1598598140,0.610306,-0.780107,0.046259,-0.129698,0.141100,0.276811,0.151805
706,1598631474,0.611342,-0.778933,0.046128,-0.131899,0.297579,0.131020,0.148123
707,1598664808,0.611960,-0.777835,0.047127,-0.135124,0.182256,0.063783,0.132077
708,1598698142,0.612168,-0.776901,0.048970,-0.138845,0.094305,-0.077304,0.181896
709,1598731476,0.612381,-0.775993,0.050689,-0.142322,0.000148,-0.113482,0.088414
710,1598764810,0.613164,-0.774820,0.051558,-0.145006,-0.164189,0.039484,0.157159
711,1598798144,0.614610,-0.773393,0.051444,-0.146535,-0.043244,0.167213,0.157166
712,1598831478,0.615924,-0.772095,0.051236,-0.147928,0.095210,0.049576,0.128593
713,1598864812,0.616683,-0.771149,0.051419,-0.149628,0.267124,-0.019598,0.106723
714,1598898146,0.617194,-0.770208,0.052328,-0.152033,0.034197,0.042734,0.129558
715,1598931480,0.617775,-0.769135,0.053467,-0.154685,-0.076005,0.086847,0.172679
716,1598964814,0.618499,-0.768059,0.054078,-0.156909,-0.063900,0.050534,0.147775
717,1598998148,0.619236,-0.767151,0.054101,-0.158429,-0.033951,-0.031170,0.110648
718,1599031482,0.619831,-0.766355,0.054249,-0.159899,-0.032213,-0.046971,0.101638
719,1599064816,0.620350,-0.765559,0.054598,-0.161569,0.032157,-0.056823,0.115381
720,1599098150,0.621044,-0.764546,0.055119,-0.163510,0.096229,0.048417,0.163956
721,1599131484,0.622237,-0.763058,0.055647,-0.165735,0.137704,0.118018,0.277308
722,1599164818,0.623586,-0.761494,0.055897,-0.167760,0.123150,0.043603,0.202751
723,1599198152,0.625185,-0.759795,0.055911,-0.169500,0.036824,0.056611,0.123340
724,1599231486,0.627012,-0.757865,0.055951,-0.171367,0.044655,0.010448,0.097678
725,1599264820,0.628652,-0.755990,0.056320,-0.173508,-0.020097,-0.138153,0.109708
726,1599298154,0.630024,-0.754299,0.056933,-0.175675,-0.085354,-0.200248,0.129605
727,1599331488,0.631229,-0.752844,0.057411,-0.177427,-0.135693,-0.202390,0.102931
728,1599364822,0.632601,-0.751366,0.057577,-0.178747,-0.116393,-0.118831,0.135787
729,1599398156,0.634135,-0.749859,0.057345,-0.179713,0.011804,-0.109519,0.159121
730,1599431490,0.635504,-0.748561,0.056923,-0.180423,0.041160,-0.128169,0.071040
731,1599464824,0.636520,-0.747476,0.056979,-0.181318,-0.039505,-0.155568,0.036607
732,1599498158,0.637008,-0.746696,0.057730,-0.182575,0.007479,-0.242533,0.077521
733,1599531492,0.636854,-0.746391,0.058959,-0.183960,-0.094152,-0.311233,0.054354
734,1599564826,0.636422,-0.746389,0.060173,-0.185068,-0.157325,-0.186238,0.073647
735,1599598160,0.635796,-0.746659,0.061185,-0.185801,-0.142254,-0.142686,0.091264
736,1599631494,0.635101,-0.747065,0.062018,-0.186266,-0.006274,0.014340,0.157132
737,1599664828,0.635000,-0.747108,0.062297,-0.186348,0.248863,0.267335,0.224689
738,1599698162,0.635045,-0.747038,0.062450,-0.186423,0.251821,0.194240,0.164252
739,1599731496,0.634760,-0.747041,0.063350,-0.187077,0.169937,0.022448,0.192465
740,1599764830,0.634607,-0.746842,0.064471,-0.188001,0.135176,0.129335,0.154176
741,1599798164,0.634985,-0.746169,0.065469,-0.189049,0.117143,0.231344,0.173030
742,1599831498,0.635615,-0.745383,0.066039,-0.189836,0.036884,0.090083,0.197021
743,1599864832,0.636326,-0.744682,0.066299,-0.190113,-0.078884,-0.047441,0.181915
744,1599898166,0.637259,-0.743835,0.066386,-0.190273,0.086217,0.001447,0.160510
745,1599931500,0.638099,-0.743006,0.066660,-0.190603,0.085591,-0.075044,0.071836
746,1599964834,0.638793,-0.742263,0.067198,-0.190985,-0.032878,-0.172350,0.079582
747,1599998168,0.639375,-0.741583,0.067929,-0.191417,-0.013145,-0.200174,0.082542
748,1600031502,0.639771,-0.741085,0.068772,-0.191724,-0.033113,-0.241161,0.083823
749,1600064836,0.640021,-0.740659,0.069956,-0.192105,-0.080355,-0.228218,0.126491
750,1600098170,0.640260,-0.740346,0.070899,-0.192170,0.108954,-0.185246,0.143914
751,1600131504,0.640717,-0.740062,0.071404,-0.191554,0.006621,-0.055310,0.163061
752,1600164838,0.641368,-0.739489,0.072294,-0.191254,0.091132,0.062517,0.121979
753,1600198172,0.642130,-0.738789,0.073236,-0.191044,0.158108,0.094723,0.179603
754,1600231506,0.643119,-0.738012,0.073815,-0.190498,0.248775,0.088251,0.087074
755,1600264840,0.644066,-0.737126,0.075007,-0.190260,0.024598,-0.010525,0.089145
756,1600298174,0.644946,-0.736154,0.076719,-0.190360,-0.025546,-0.112894,0.116751
757,1600331508,0.645563,-0.735505,0.078282,-0.190141,-0.017467,-0.259539,0.019449
758,1600364842,0.646277,-0.734902,0.079611,-0.189496,-0.125536,-0.272797,0.110597
759,1600398176,0.648465,-0.732889,0.080786,-0.189322,-0.216115,-0.368329,0.436847
760,1600431510,0.651683,-0.730201,0.081036,-0.188546,0.046829,-0.261590,0.189911
761,1600464844,0.654345,-0.728234,0.081160,-0.186872,-0.277050,-0.082910,0.036669
762,1600498178,0.656361,-0.726593,0.082264,-0.185705,-0.030162,-0.256706,0.121839
763,1600531512,0.657532,-0.726146,0.082786,-0.183061,-0.061908,-0.475590,0.086664
764,1600564846,0.657728,-0.726815,0.082938,-0.179601,-0.342064,-0.419123,0.155022
765,1600598180,0.657177,-0.728290,0.082925,-0.175601,-0.122196,-0.571191,0.096474
766,1600631514,0.655669,-0.730930,0.082328,-0.170480,-0.144556,-0.485913,0.182173
767,1600664848,0.653742,-0.733850,0.081853,-0.165489,0.196057,-0.116683,0.195991
768,1600698182,0.652461,-0.736280,0.080891,-0.160140,0.304212,0.069466,0.161905
769,1600731516,0.651000,-0.738517,0.080787,-0.155780,0.197848,0.349696,0.036114
770,1600764850,0.649704,-0.740288,0.081268,-0.152499,-0.195031,0.277425,0.138070
771,1600798184,0.648709,-0.741956,0.080974,-0.148733,-0.140466,0.217206,0.122099
772,1600831518,0.647953,-0.743486,0.080246,-0.144729,-0.085438,0.253376,0.104021
773,1600864852,0.647512,-0.744983,0.078522,-0.139870,-0.169401,0.426731,0.160199
774,1600898186,0.647770,-0.746195,0.075419,-0.133790,0.020841,0.415729,0.213999
775,1600931520,0.648116,-0.747299,0.072248,-0.127552,0.108499,0.313605,0.056111
776,1600964854,0.648728,-0.748141,0.068752,-0.121291,0.205572,0.430855,0.108560
777,1600998188,0.649875,-0.748305,0.065480,-0.115824,0.118905,0.490522,0.180155
778,1601031522,0.650771,-0.748562,0.062632,-0.110587,-0.072105,0.262684,0.121553
779,1601064856,0.651344,-0.749019,0.059859,-0.105540,-0.146582,0.058984,0.081522
780,1601098190,0.652354,-0.749194,0.056184,-0.099931,-0.066877,0.092372,0.110709
781,1601131524,0.652795,-0.749760,0.052648,-0.094589,-0.019948,-0.310063,0.138906
782,1601164858,0.652694,-0.750641,0.049679,-0.089781,-0.163436,-0.197683,0.120485
783,1601198192,0.653035,-0.751131,0.046295,-0.084882,-0.026222,0.191726,0.157642
784,1601231526,0.654075,-0.750931,0.042873,-0.080319,0.053782,0.184650,0.167943
785,1601264860,0.655077,-0.750504,0.040766,-0.077184,0.049889,-0.085306,0.170107
786,1601298194,0.655827,-0.750101,0.039716,-0.075250,-0.068678,0.019468,0.093554
787,1601331528,0.656675,-0.749579,0.038700,-0.073564,-0.152833,0.314650,0.159921
788,1601364862,0.657848,-0.748834,0.037083,-0.071474,-0.117685,0.383141,0.180391
789,1601398196,0.658978,-0.748120,0.035271,-0.069435,-0.130169,0.228021,0.115708
790,1601431530,0.659634,-0.747786,0.033450,-0.067685,-0.047776,-0.075022,0.071930
791,1601464864,0.660104,-0.747578,0.031752,-0.066199,-0.041380,0.037101,0.123036
792,1601498198,0.660306,-0.747551,0.030438,-0.065100,0.077999,-0.038658,0.129585
793,1601531532,0.660380,-0.747589,0.029449,-0.064364,-0.026826,-0.012241,0.130390
794,1601564866,0.660474,-0.747560,0.028750,-0.064052,-0.056177,0.084555,0.140879
795,1601598200,0.660516,-0.747516,0.028492,-0.064238,0.107521,0.029982,0.099247
796,1601631534,0.660366,-0.747551,0.028865,-0.065209,0.005422,0.035715,0.124975
797,1601664868,0.659986,-0.747721,0.029730,-0.066706,0.061992,0.020960,0.106380
798,1601698202,0.659547,-0.747863,0.031041,-0.068817,-0.070154,0.112700,0.166002
799,1601731536,0.659190,-0.747925,0.032227,-0.070983,-0.014010,0.089650,0.105356
800,1601764870,0.658734,-0.748025,0.033632,-0.073463,-0.000808,-0.055253,0.128873
801,1601798204,0.658146,-0.748181,0.035354,-0.076287,-0.027193,0.044895,0.140869
802,1601831538,0.657633,-0.748209,0.037304,-0.079447,0.086107,0.152058,0.135402
803,1601864872,0.656998,-0.748237,0.039667,-0.083202,-0.019982,0.057118,0.096736
804,1601898206,0.656192,-0.748325,0.042359,-0.087339,-0.083284,-0.053878,0.123379
805,1601931540,0.655361,-0.748461,0.044671,-0.091178,-0.132927,-0.073521,0.111948
806,1601964874,0.654653,-0.748534,0.046582,-0.094644,-0.074800,0.010754,0.124637
807,1601998208,0.653952,-0.748619,0.048258,-0.097917,0.014230,0.039186,0.118385
808,1602031542,0.653181,-0.748758,0.049917,-0.101115,0.077949,0.034438,0.114251
809,1602064876,0.652273,-0.748943,0.051812,-0.104597,0.109089,-0.001424,0.111197
810,1602098210,0.651335,-0.749106,0.053808,-0.108205,0.052319,0.020622,0.141852
811,1602131544,0.650299,-0.749313,0.055932,-0.111865,0.093734,0.068959,0.129189
812,1602164878,0.649143,-0.749581,0.058190,-0.115572,0.007601,0.081109,0.120565
813,1602198212,0.647933,-0.749975,0.060168,-0.118747,-0.068505,0.212552,0.133831
814,1602231546,0.646697,-0.750576,0.061463,-0.121001,-0.062338,0.270938,0.184086
815,1602264880,0.645134,-0.751536,0.062530,-0.122825,0.064131,0.100881,0.111136
816,1602298214,0.642774,-0.753094,0.064057,-0.124859,0.328988,0.274455,0.063878
817,1602331548,0.640278,-0.754731,0.065788,-0.126875,0.281312,0.671711,0.167134
818,1602364882,0.639190,-0.755273,0.066734,-0.128630,0.144536,0.390289,0.191928
819,1602398216,0.637964,-0.755928,0.067594,-0.130409,0.134639,-0.155633,0.071779
820,1602431550,0.635739,-0.757394,0.068763,-0.132147,0.104259,-0.066534,0.006950
821,1602464884,0.634130,-0.758336,0.069751,-0.133943,-0.251004,0.285780,0.353374
822,1602498218,0.634599,-0.757504,0.070218,-0.136170,-0.043801,-0.181899,0.325763
823,1602531552,0.634557,-0.757367,0.070045,-0.137210,-0.153460,-0.237574,-0.007861
824,1602564886,0.633621,-0.758009,0.070236,-0.137889,0.057213,-0.063771,-0.077378
825,1602598220,0.632714,-0.758640,0.070128,-0.138642,0.072908,0.159304,0.126553
826,1602631554,0.632886,-0.758311,0.069922,-0.139752,-0.042489,-0.125928,0.309224
827,1602664888,0.633262,-0.757876,0.069791,-0.140477,0.046831,-0.161016,0.158244
828,1602698222,0.633285,-0.757669,0.069924,-0.141416,0.052312,0.014122,0.054972
829,1602731556,0.633287,-0.757426,0.070227,-0.142557,0.017341,-0.084692,0.116005
830,1602764890,0.633300,-0.757159,0.070537,-0.143762,-0.093839,-0.279254,0.197165
831,1602798224,0.633410,-0.756900,0.070644,-0.144582,-0.156068,-0.417208,0.147241
832,1602831558,0.633022,-0.756972,0.071248,-0.145606,-0.155308,-0.620597,0.095100
833,1602864892,0.632069,-0.757474,0.072221,-0.146652,-0.169693,-0.679166,0.077909
834,1602898226,0.630990,-0.758242,0.072819,-0.147033,-0.215414,-0.506447,0.137015
835,1602931560,0.630070,-0.759137,0.072736,-0.146399,-0.176009,-0.411478,0.162709
836,1602964894,0.628991,-0.760222,0.072588,-0.145480,-0.156076,-0.333601,0.112559
837,1602998228,0.627991,-0.761227,0.072616,-0.144529,-0.008234,-0.198312,0.116835
838,1603031562,0.626909,-0.762215,0.072968,-0.143835,0.110135,-0.231324,0.109343
839,1603064896,0.625591,-0.763313,0.073666,-0.143394,0.072316,-0.197589,0.116502
840,1603098230,0.624347,-0.764400,0.074194,-0.142759,-0.043705,-0.089263,0.138182
841,1603131564,0.623183,-0.765433,0.074633,-0.142073,-0.107036,0.016677,0.205252
842,1603164898,0.621818,-0.766711,0.074938,-0.141007,-0.067696,-0.070116,0.109399
843,1603198232,0.620067,-0.768337,0.075160,-0.139738,-0.054030,-0.150866,0.017107
844,1603231566,0.618206,-0.770151,0.075031,-0.138059,-0.129510,-0.110822,0.063937
845,1603264900,0.616247,-0.772180,0.074457,-0.135774,-0.084523,-0.049964,0.137581
846,1603298234,0.614295,-0.774278,0.073464,-0.133184,-0.014085,0.179077,0.127780
847,1603331568,0.613012,-0.775956,0.071880,-0.130161,0.098337,0.515446,0.222310
848,1603364902,0.612953,-0.776649,0.069978,-0.127313,0.364517,0.792591,0.265135
849,1603398236,0.613516,-0.776704,0.068302,-0.125157,0.354418,0.531552,0.178968
850,1603431570,0.614185,-0.776430,0.067565,-0.123973,0.208490,0.313520,0.264404
851,1603464904,0.615418,-0.775503,0.067373,-0.123763,0.180102,0.382806,0.176450
852,1603498238,0.616850,-0.774351,0.067278,-0.123897,-0.012683,0.231814,0.052651
853,1603531572,0.618119,-0.773403,0.066979,-0.123664,-0.180041,0.106056,0.179856
854,1603564906,0.619302,-0.772576,0.066572,-0.123126,-0.104783,-0.070853,0.107454
855,1603598240,0.620378,-0.771810,0.066209,-0.122710,-0.063558,-0.088213,0.099454
856,1603631574,0.621507,-0.771045,0.065653,-0.122102,-0.072613,-0.061773,0.124585
857,1603664908,0.622288,-0.770467,0.065482,-0.121867,-0.117597,-0.126805,0.098770
858,1603698242,0.622823,-0.770039,0.065537,-0.121809,-0.116539,-0.091462,0.122176
859,1603731576,0.623453,-0.769559,0.065446,-0.121666,-0.135031,-0.017778,0.130849
860,1603764910,0.624049,-0.769121,0.065243,-0.121489,-0.108213,-0.062067,0.139953
861,1603798244,0.624513,-0.768773,0.065130,-0.121370,-0.077128,-0.102182,0.128052
862,1603831578,0.625173,-0.768210,0.065110,-0.121549,-0.048546,0.050913,0.158479
863,1603864912,0.626023,-0.767472,0.065042,-0.121871,-0.060586,0.064296,0.170929
864,1603898246,0.626595,-0.766933,0.065147,-0.122266,-0.050109,-0.127163,0.140510
865,1603931580,0.627075,-0.766383,0.065592,-0.123016,-0.023546,-0.098875,0.100966
866,1603964914,0.627493,-0.765821,0.066203,-0.124049,-0.076522,-0.087597,0.113927
867,1603998248,0.628093,-0.765168,0.066525,-0.124869,-0.138118,-0.067005,0.186649
868,1604031582,0.628680,-0.764588,0.066605,-0.125425,-0.123294,-0.232981,0.119392
869,1604064916,0.628863,-0.764313,0.066883,-0.126030,-0.176381,-0.312386,0.091040
870,1604098250,0.628837,-0.764236,0.067139,-0.126495,-0.142778,-0.344433,0.116328
871,1604131584,0.628557,-0.764374,0.067435,-0.126891,-0.155019,-0.387937,0.051111
872,1604164918,0.627635,-0.765086,0.067734,-0.127006,-0.264010,-0.500039,0.031803
873,1604198252,0.626025,-0.766429,0.068012,-0.126706,-0.208859,-0.526530,0.073463
874,1604231586,0.624017,-0.768183,0.068073,-0.125953,-0.206183,-0.296325,0.079798
875,1604264920,0.622052,-0.770077,0.067471,-0.124427,-0.051368,0.009503,0.090816
876,1604298254,0.620605,-0.771619,0.066493,-0.122610,0.137638,0.443201,0.187843
877,1604331588,0.619935,-0.772471,0.065553,-0.121135,0.388819,0.784214,0.293932
878,1604364922,0.619854,-0.772654,0.065092,-0.120629,0.507052,0.922777,0.203794
879,1604398256,0.620344,-0.772218,0.065044,-0.120925,0.469825,0.896281,0.198830
880,1604431590,0.621636,-0.771006,0.065203,-0.121935,0.232836,0.791996,0.242176
881,1604464924,0.623052,-0.769627,0.065481,-0.123264,0.040164,0.285600,0.128967
882,1604498258,0.624251,-0.768438,0.065826,-0.124425,-0.086980,-0.049625,0.050657
883,1604531592,0.625759,-0.767014,0.065976,-0.125550,-0.143103,0.020092,0.107526
884,1604564926,0.627288,-0.765677,0.065714,-0.126215,-0.156460,-0.022107,0.144608
885,1604598260,0.628482,-0.764729,0.065132,-0.126328,-0.050443,-0.176756,0.138388
886,1604631594,0.629477,-0.763900,0.064832,-0.126540,0.041484,-0.122299,0.076608
887,1604664928,0.630577,-0.762878,0.064825,-0.127235,0.020097,0.051872,0.124022
888,1604698262,0.631669,-0.761869,0.064757,-0.127898,-0.044073,0.051993,0.110149
889,1604731596,0.632637,-0.761005,0.064657,-0.128305,-0.083754,-0.006460,0.152724
890,1604764930,0.633408,-0.760303,0.064601,-0.128688,-0.058285,-0.121933,0.097242
891,1604798264,0.634087,-0.759641,0.064629,-0.129237,-0.106674,-0.109051,0.074733
892,1604831598,0.634741,-0.759046,0.064499,-0.129595,-0.124394,-0.179786,0.147131
893,1604864932,0.635222,-0.758622,0.064296,-0.129821,-0.182458,-0.285936,0.140845
894,1604898266,0.635418,-0.758444,0.064189,-0.129953,-0.183792,-0.318887,0.078060
895,1604931600,0.635399,-0.758395,0.064345,-0.130253,-0.082205,-0.435933,0.161121
896,1604964934,0.635299,-0.758400,0.064589,-0.130591,-0.073074,-0.501292,0.165162
897,1604998268,0.635000,-0.758545,0.065107,-0.130943,-0.114727,-0.461037,0.099787
898,1605031602,0.634309,-0.759001,0.065845,-0.131282,-0.158321,-0.445540,0.122859
899,1605064936,0.633452,-0.759619,0.066611,-0.131462,-0.025337,-0.431586,0.127085
900,1605098270,0.632270,-0.760594,0.067156,-0.131235,-0.142830,-0.347733,0.094532
901,1605131604,0.630834,-0.761909,0.067355,-0.130412,-0.214835,-0.223676,0.100321
902,1605164938,0.629350,-0.763392,0.067079,-0.129048,-0.100844,-0.079448,0.124999
903,1605198272,0.627867,-0.764903,0.066612,-0.127553,0.004469,0.010693,0.132930
904,1605231606,0.626676,-0.766201,0.065944,-0.125955,0.054349,0.199372,0.150299
905,1605264940,0.625761,-0.767302,0.065104,-0.124232,0.112529,0.324551,0.160897
906,1605298274,0.625261,-0.768029,0.064212,-0.122710,0.127779,0.426815,0.175284
907,1605331608,0.625327,-0.768270,0.063225,-0.121371,0.182338,0.496529,0.175010
908,1605364942,0.625888,-0.768091,0.062138,-0.120168,0.135037,0.466863,0.139898
909,1605398276,0.626689,-0.767644,0.061260,-0.119292,0.050923,0.291449,0.223415
910,1605431610,0.627649,-0.766978,0.060731,-0.118804,0.015499,0.029327,0.147842
911,1605464944,0.628554,-0.766268,0.060519,-0.118708,0.063563,0.141169,0.025422
912,1605498278,0.629368,-0.765548,0.060583,-0.119008,-0.242956,0.166820,0.212743
913,1605531612,0.632064,-0.763061,0.061166,-0.120387,-0.165935,-0.077519,0.423124
914,1605564946,0.634707,-0.760758,0.061492,-0.120884,-0.069934,0.157161,-0.074771
915,1605598280,0.636052,-0.759536,0.061857,-0.121310,-0.086185,0.318268,-0.075566
916,1605631614,0.637254,-0.758369,0.062213,-0.122126,0.054838,0.008413,0.187522
917,1605664948,0.637942,-0.757805,0.061979,-0.122152,0.017364,-0.050486,-0.022137
918,1605698282,0.637390,-0.758317,0.061940,-0.121878,0.063997,-0.030729,0.009265
919,1605731616,0.635956,-0.759366,0.062599,-0.122493,0.029511,-0.028035,0.174744
920,1605764950,0.633857,-0.760965,0.063341,-0.123069,-0.131345,0.098449,0.115350
921,1605798284,0.632164,-0.762349,0.063563,-0.123096,-0.057232,0.261481,0.108318
922,1605831618,0.630984,-0.763334,0.063310,-0.123177,0.009559,0.254452,0.147739
923,1605864952,0.629548,-0.764486,0.063148,-0.123463,-0.070551,0.049141,0.179876
924,1605898286,0.628137,-0.765534,0.063334,-0.124059,-0.100764,-0.123848,0.064746
925,1605931620,0.626839,-0.766480,0.063501,-0.124703,-0.050120,-0.041418,0.099649
926,1605964954,0.625398,-0.767551,0.063560,-0.125319,-0.109402,-0.093037,0.148006
927,1605998288,0.623527,-0.769052,0.063357,-0.125541,-0.183264,-0.133187,0.120111
928,1606031622,0.621897,-0.770282,0.063315,-0.126102,-0.109507,-0.158371,0.136621
929,1606064956,0.620333,-0.771505,0.063012,-0.126475,-0.026734,0.001778,0.119252
930,1606098290,0.618633,-0.772809,0.062784,-0.126956,-0.042879,0.074717,0.178437
931,1606131624,0.617610,-0.773487,0.062656,-0.127868,-0.036333,0.357531,0.252014
932,1606164958,0.616846,-0.773969,0.062307,-0.128804,-0.017214,0.175638,0.106308
933,1606198292,0.615745,-0.774645,0.062265,-0.130030,-0.048861,0.063336,0.135340
934,1606231626,0.614723,-0.775269,0.062034,-0.131247,-0.033495,0.095317,0.084474
935,1606264960,0.613989,-0.775657,0.061584,-0.132598,-0.119417,0.183442,0.242764
936,1606298294,0.614190,-0.775337,0.060771,-0.133902,-0.067021,0.076359,0.210385
937,1606331628,0.614111,-0.775355,0.059782,-0.134610,-0.029559,-0.003374,0.108543
938,1606364962,0.614023,-0.775166,0.059502,-0.136214,0.047936,0.147663,0.160061
939,1606398296,0.614260,-0.774491,0.059779,-0.138839,0.005958,0.153000,0.151032
940,1606431630,0.614706,-0.773574,0.060181,-0.141770,0.150642,0.053827,0.183168
941,1606464964,0.615412,-0.772372,0.060840,-0.144947,0.013481,0.069501,0.142580
942,1606498298,0.616368,-0.770872,0.061723,-0.148447,-0.057101,0.061575,0.150494
943,1606531632,0.617375,-0.769305,0.062461,-0.152041,-0.062942,0.016707,0.172938
944,1606564966,0.618576,-0.767594,0.063019,-0.155538,-0.027955,-0.022410,0.138498
945,1606598300,0.620092,-0.765680,0.063227,-0.158820,-0.043555,0.058437,0.192202
946,1606631634,0.621663,-0.763704,0.063325,-0.162120,0.044303,-0.014933,0.191333
947,1606664968,0.623189,-0.761696,0.063539,-0.165581,0.053891,-0.074272,0.180757
948,1606698302,0.624701,-0.759686,0.063757,-0.169003,0.025393,-0.104942,0.199299
949,1606731636,0.626199,-0.757641,0.064053,-0.172489,0.044338,-0.104964,0.173901
950,1606764970,0.627568,-0.755642,0.064459,-0.176098,0.059329,-0.167054,0.203388
951,1606798304,0.628577,-0.753891,0.065052,-0.179746,-0.003939,-0.265293,0.184108
952,1606831638,0.629440,-0.752227,0.065758,-0.183406,-0.031294,-0.164117,0.171254
953,1606864972,0.630340,-0.750550,0.066391,-0.186918,0.003353,-0.086335,0.180220
954,1606898306,0.631133,-0.748941,0.067160,-0.190393,0.032556,-0.059670,0.174836
955,1606931640,0.631753,-0.747385,0.068224,-0.194039,0.014716,-0.047735,0.100998
956,1606964974,0.632109,-0.746055,0.069383,-0.197554,-0.021853,-0.034530,0.060644
957,1606998308,0.632227,-0.745041,0.070408,-0.200615,-0.054179,-0.040613,0.056801
958,1607031642,0.632369,-0.744354,0.070485,-0.202679,-0.028798,0.010072,0.101999
959,1607064976,0.632825,-0.744010,0.068955,-0.203045,-0.130569,-0.054286,0.136404
960,1607098310,0.633585,-0.743888,0.066158,-0.202049,-0.178988,-0.066046,0.157640
961,1607131644,0.634898,-0.743454,0.062831,-0.200581,-0.014966,-0.007793,0.125246
962,1607164978,0.636103,-0.742910,0.060121,-0.199608,0.316363,0.033189,0.046977
963,1607198312,0.636594,-0.742485,0.059199,-0.199901,0.434989,-0.039080,-0.030392
964,1607231646,0.636511,-0.741922,0.060333,-0.201905,0.277677,-0.016578,0.032681
965,1607264980,0.637088,-0.740673,0.061784,-0.204220,0.059397,0.197703,0.167801
966,1607298314,0.638388,-0.738918,0.062551,-0.206275,0.078910,0.209894,0.233940
967,1607331648,0.639667,-0.737619,0.062076,-0.207100,-0.003611,0.133487,0.205126
968,1607364982,0.640835,-0.736612,0.061264,-0.207316,-0.132426,-0.030669,0.152050
969,1607398316,0.642305,-0.735361,0.060446,-0.207450,0.083257,-0.117306,0.080900
970,1607431650,0.643386,-0.734418,0.059872,-0.207608,0.134441,-0.253877,0.060147
971,1607464984,0.644189,-0.733666,0.059604,-0.207853,0.101374,-0.179799,0.078816
972,1607498318,0.645605,-0.732324,0.059437,-0.208241,0.064192,-0.025754,0.164195
973,1607531652,0.647089,-0.730861,0.059602,-0.208725,0.093659,-0.159438,0.098656
974,1607564986,0.647944,-0.730009,0.059834,-0.208989,0.087120,-0.171265,0.075134
975,1607598320,0.648466,-0.729471,0.060207,-0.209141,0.069227,-0.187671,0.131910
976,1607631654,0.649112,-0.728824,0.060677,-0.209257,0.015763,-0.211522,0.214600
977,1607664988,0.649110,-0.728793,0.061254,-0.209203,0.002079,-0.263316,0.067941
978,1607698322,0.648813,-0.729127,0.061784,-0.208806,-0.028694,-0.149997,0.020126
979,1607731656,0.648288,-0.729665,0.062542,-0.208330,0.061381,-0.094403,0.137906
980,1607764990,0.647489,-0.730383,0.063618,-0.207972,0.050193,-0.004308,0.141324
981,1607798324,0.646804,-0.731051,0.064626,-0.207444,0.071722,0.069617,0.131463
982,1607831658,0.646302,-0.731622,0.065444,-0.206738,0.124860,0.055557,0.210225
983,1607864992,0.645988,-0.732004,0.066268,-0.206103,0.110127,0.122488,0.233897
984,1607898326,0.646040,-0.732211,0.066575,-0.205104,0.119160,0.205528,0.168948
985,1607931660,0.646815,-0.731878,0.066389,-0.203909,0.148417,0.262494,0.180156
986,1607964994,0.648410,-0.730879,0.065802,-0.202612,0.170982,0.219931,0.204052
987,1607998328,0.650576,-0.729384,0.065144,-0.201263,0.156476,0.202559,0.186034
988,1608031662,0.653524,-0.727126,0.064418,-0.200111,0.210299,0.129533,0.161423
989,1608064996,0.656857,-0.724466,0.063635,-0.199097,0.245390,0.062463,0.184724
990,1608098330,0.660535,-0.721443,0.062819,-0.198161,0.104075,-0.117067,0.108381
991,1608131664,0.663543,-0.718881,0.062536,-0.197513,-0.014381,-0.327611,0.106333
992,1608164998,0.666256,-0.716404,0.062967,-0.197241,-0.202741,-0.743730,0.003746
993,1608198332,0.667579,-0.715246,0.063933,-0.196658,-0.467842,-0.816921,-0.013994
994,1608231666,0.667665,-0.715373,0.065185,-0.195491,-0.546351,-0.718716,-0.027056
995,1608265000,0.666918,-0.716590,0.066239,-0.193215,-0.623531,-0.578358,-0.014879
996,1608298334,0.665548,-0.718792,0.066799,-0.189530,-0.528135,-0.573087,0.101638
997,1608331668,0.663457,-0.721917,0.067028,-0.184848,-0.231293,-0.629864,0.046698
998,1608365002,0.660571,-0.725769,0.067368,-0.179909,-0.137483,-0.604665,0.054867
999,1608398336,0.656439,-0.730544,0.068481,-0.175226,-0.070952,-0.566623,0.118226
1000,1608431670,0.651008,-0.736331,0.070311,-0.170478,-0.101359,-0.576389,0.099870
1001,1608465004,0.644352,-0.743153,0.072285,-0.165260,-0.075865,-0.787298,0.124250
1002,1608498338,0.636619,-0.751009,0.073232,-0.159183,0.253373,-0.831689,0.258818
1003,1608531672,0.629451,-0.758469,0.072787,-0.152378,0.268166,-0.268584,0.264050
1004,1608565006,0.623718,-0.764934,0.071105,-0.144210,-0.025394,0.178227,0.197063
1005,1608598340,0.619648,-0.770137,0.068537,-0.135014,0.567821,0.916777,0.258176
1006,1608631674,0.619131,-0.772226,0.064940,-0.126997,0.995094,2.197781,0.477818
1007,1608665008,0.622417,-0.770804,0.061497,-0.121153,1.143569,2.372936,0.525410
1008,1608698342,0.625219,-0.769171,0.060348,-0.117624,0.767279,1.040691,0.107963
1009,1608731676,0.626034,-0.768391,0.062628,-0.117199,0.104601,-0.244272,0.083344
1010,1608765010,0.626804,-0.767563,0.065282,-0.117061,-0.282551,-0.467821,0.024722
1011,1608798344,0.627882,-0.766995,0.065716,-0.114741,-0.894356,-0.418735,-0.049652
1012,1608831678,0.629667,-0.766517,0.063335,-0.109370,-0.751916,-0.373175,0.143384
1013,1608865012,0.631681,-0.766160,0.059470,-0.102186,-0.157656,-0.326958,0.211980
1014,1608898346,0.633364,-0.765871,0.056114,-0.095620,0.235940,0.056320,0.094237
1015,1608931680,0.635530,-0.764823,0.054100,-0.090674,0.355321,0.397076,0.212640
1016,1608965014,0.638115,-0.763057,0.053657,-0.087607,0.128163,0.318815,0.244994
1017,1608998348,0.640887,-0.760842,0.054417,-0.086158,-0.142741,0.152302,0.155755
1018,1609031682,0.643048,-0.759203,0.054750,-0.084286,-0.012117,-0.121167,-0.141978
1019,1609065016,0.644853,-0.757968,0.054370,-0.081808,-0.305634,-0.173284,0.201832
1020,1609098350,0.646777,-0.756786,0.053025,-0.078376,-0.098947,-0.160627,0.131781
1021,1609131684,0.648847,-0.755446,0.051597,-0.075084,-0.006566,-0.058403,0.095358
1022,1609165018,0.650720,-0.754163,0.050573,-0.072423,0.039518,-0.010851,0.140317
1023,1609198352,0.652200,-0.753090,0.050200,-0.070509,0.112352,0.060156,0.126037
1024,1609231686,0.653468,-0.752086,0.050432,-0.069307,0.019665,0.158152,0.084795
1025,1609265020,0.654617,-0.751092,0.051120,-0.068733,-0.011916,0.127981,0.138490
1026,1609298354,0.655465,-0.750319,0.052079,-0.068380,-0.089023,0.111333,0.114880
1027,1609331688,0.656039,-0.749774,0.052948,-0.068190,-0.063420,0.131616,0.052909
1028,1609365022,0.656683,-0.749147,0.053748,-0.068245,-0.123119,0.255817,0.159108
1029,1609398356,0.657058,-0.748772,0.054395,-0.068245,-0.106459,0.231251,0.149931
1030,1609431690,0.657545,-0.748339,0.054627,-0.068121,-0.089032,0.238350,0.112708
1031,1609465024,0.658119,-0.747837,0.054666,-0.068050,-0.087683,0.256494,0.144279
1032,1609498358,0.658595,-0.747446,0.054449,-0.067915,-0.071814,0.223432,0.137287
1033,1609531692,0.658861,-0.747225,0.054181,-0.067987,-0.141008,-0.141497,0.115383
1034,1609565026,0.659009,-0.747131,0.053707,-0.067960,-0.167268,-0.067542,0.099903
1035,1609598360,0.659322,-0.746936,0.052896,-0.067704,-0.062444,0.114104,0.160257
1036,1609631694,0.659888,-0.746498,0.052077,-0.067661,0.024541,0.139414,0.150541
1037,1609665028,0.660320,-0.746073,0.051824,-0.068321,0.016769,-0.081785,0.115496
1038,1609698362,0.660591,-0.745734,0.051812,-0.069409,-0.095929,0.053510,0.134571
1039,1609731696,0.661029,-0.745266,0.051596,-0.070416,-0.133139,0.076551,0.155763
1040,1609765030,0.661511,-0.744783,0.051135,-0.071332,-0.067469,-0.079530,0.146495
1041,1609798364,0.661655,-0.744553,0.050884,-0.072563,-0.022787,-0.136317,0.092486
1042,1609831698,0.661826,-0.744279,0.050698,-0.073932,-0.064579,0.092217,0.158083
1043,1609865032,0.662094,-0.743862,0.050754,-0.075667,0.051253,0.150768,0.125593
1044,1609898366,0.662131,-0.743569,0.051160,-0.077915,-0.067483,-0.069833,0.133131
1045,1609931700,0.661837,-0.743478,0.051950,-0.080705,-0.034790,-0.109236,0.099594
1046,1609965034,0.661569,-0.743323,0.052932,-0.083647,0.055581,0.065838,0.111355
1047,1609998368,0.661510,-0.742957,0.053833,-0.086723,0.036539,0.074892,0.084010
1048,1610031702,0.661217,-0.742824,0.054578,-0.089590,-0.077094,-0.086058,0.088275
1049,1610065036,0.660730,-0.742935,0.054959,-0.091997,-0.081534,0.016284,0.107512
1050,1610098370,0.660471,-0.742950,0.054642,-0.093908,-0.041090,0.412570,0.166206
1051,1610131704,0.660509,-0.742746,0.053881,-0.095675,-0.037978,0.307657,0.183304
1052,1610165038,0.660351,-0.742618,0.053523,-0.097935,0.189970,-0.032032,0.059406
1053,1610198372,0.659983,-0.742525,0.053854,-0.100893,0.001698,-0.043796,0.076531
1054,1610231706,0.659966,-0.742170,0.053858,-0.103575,-0.045168,0.135241,0.153117
1055,1610265040,0.660443,-0.741479,0.053203,-0.105802,-0.077544,-0.024230,0.136486
1056,1610298374,0.660763,-0.740959,0.052473,-0.107797,-0.092268,-0.247687,0.109616
1057,1610331708,0.661035,-0.740510,0.051728,-0.109555,0.112623,-0.081475,0.126675
1058,1610365042,0.661268,-0.739979,0.051451,-0.111842,0.195289,0.125264,0.182780
1059,1610398376,0.661286,-0.739520,0.051719,-0.114618,0.063501,-0.066704,0.092529
1060,1610431710,0.661150,-0.739157,0.052231,-0.117474,0.002862,0.028646,0.121345
1061,1610465044,0.661122,-0.738755,0.052440,-0.120039,0.024999,0.060536,0.110697
1062,1610498378,0.661089,-0.738430,0.052321,-0.122253,0.025505,0.096901,0.160557
1063,1610531712,0.660845,-0.738301,0.052226,-0.124377,0.006486,-0.040766,0.101816
1064,1610565046,0.660631,-0.738112,0.052289,-0.126584,0.123204,0.137697,0.085726
1065,1610598380,0.660301,-0.737919,0.052802,-0.129195,0.094079,0.142258,0.150517
1066,1610631714,0.659714,-0.737885,0.053574,-0.132038,0.016583,0.060069,0.111490
1067,1610665048,0.659123,-0.737898,0.054154,-0.134652,-0.022654,0.094995,0.113352
1068,1610698382,0.658429,-0.738011,0.054638,-0.137205,-0.009514,0.100381,0.111617
1069,1610731716,0.657738,-0.738165,0.054906,-0.139567,-0.059536,0.035254,0.127831
1070,1610765050,0.657041,-0.738386,0.054949,-0.141650,-0.029157,0.008767,0.128048
1071,1610798384,0.656166,-0.738792,0.054921,-0.143588,0.053879,0.093329,0.104749
1072,1610831718,0.655338,-0.739146,0.054952,-0.145520,0.025964,0.071878,0.138950
1073,1610865052,0.654357,-0.739577,0.055223,-0.147631,0.017802,0.052489,0.117148
1074,1610898386,0.653186,-0.740178,0.055473,-0.149694,0.010069,0.040999,0.116953
1075,1610931720,0.652229,-0.740596,0.055651,-0.151715,-0.004825,0.089391,0.112185
1076,1610965054,0.651278,-0.741025,0.055644,-0.153698,-0.020436,0.004649,0.177739
1077,1610998388,0.650150,-0.741646,0.055529,-0.155513,-0.099761,-0.119934,0.080644
1078,1611031722,0.649160,-0.742157,0.055383,-0.157251,0.001359,-0.031629,0.132068
1079,1611065056,0.648349,-0.742547,0.055156,-0.158826,0.006905,0.082068,0.128953
1080,1611098390,0.647539,-0.742885,0.055053,-0.160579,0.052134,0.034318,0.150716
1081,1611131724,0.646790,-0.743130,0.055017,-0.162463,-0.014294,-0.014903,0.131286
1082,1611165058,0.646248,-0.743148,0.055087,-0.164504,0.049446,-0.049807,0.122497
1083,1611198392,0.645874,-0.742938,0.055339,-0.166819,0.049939,0.021651,0.159401
1084,1611231726,0.645371,-0.742869,0.055518,-0.168996,-0.006138,-0.043949,0.177011
1085,1611265060,0.644661,-0.743134,0.055395,-0.170578,0.053210,-0.040908,0.102391
1086,1611298394,0.644294,-0.743132,0.055192,-0.172031,0.132688,0.065706,0.105907
1087,1611331728,0.643702,-0.743267,0.055252,-0.173638,0.127818,-0.013857,0.198847
1088,1611365062,0.643083,-0.743507,0.055146,-0.174933,0.122220,-0.152204,0.185132
1089,1611398396,0.642287,-0.743949,0.055210,-0.175951,0.099350,-0.106301,0.072431
1090,1611431730,0.641450,-0.744384,0.055516,-0.177070,0.149250,-0.052634,0.165729
1091,1611465064,0.640223,-0.745170,0.055912,-0.178074,0.170153,-0.040712,0.188909
1092,1611498398,0.639030,-0.746068,0.056094,-0.178541,0.118476,-0.000030,0.130682
1093,1611531732,0.637868,-0.747025,0.056221,-0.178656,0.210819,-0.024001,0.024282
1094,1611565066,0.636117,-0.748484,0.056464,-0.178713,0.171324,-0.002867,0.166370
1095,1611598400,0.634406,-0.750027,0.056630,-0.178277,0.144068,-0.188998,0.195729
1096,1611631734,0.632788,-0.751586,0.056743,-0.177422,0.177997,-0.126612,0.112576
1097,1611665068,0.630836,-0.753438,0.057043,-0.176420,0.173246,-0.086073,-0.006473
1098,1611698402,0.628619,-0.755390,0.057718,-0.175766,0.098128,-0.190969,0.117891
1099,1611731736,0.626909,-0.756869,0.058420,-0.175279,0.029827,-0.249276,0.199589
1100,1611765070,0.625380,-0.758303,0.058962,-0.174360,0.020363,-0.088703,0.111510
1101,1611798404,0.624094,-0.759582,0.059216,-0.173308,0.124272,0.129090,0.257500
1102,1611831738,0.623645,-0.760230,0.059088,-0.172123,0.126364,0.141038,0.227824
1103,1611865072,0.623738,-0.760457,0.058749,-0.170896,0.062609,0.063567,0.167492
1104,1611898406,0.623756,-0.760701,0.058600,-0.169793,0.040692,0.062457,0.135018
1105,1611931740,0.623858,-0.760777,0.058715,-0.169035,0.088572,0.058248,0.164741
1106,1611965074,0.624030,-0.760765,0.058935,-0.168377,0.072580,-0.022076,0.178133
1107,1611998408,0.624348,-0.760682,0.059022,-0.167542,0.003245,-0.099561,0.160014
1108,1612031742,0.624788,-0.760534,0.059028,-0.166564,-0.047730,-0.071688,0.102571
1109,1612065076,0.625097,-0.760506,0.059158,-0.165484,-0.096637,-0.151138,0.140866
1110,1612098410,0.625108,-0.760745,0.059308,-0.164287,-0.040619,-0.226415,0.110922
1111,1612131744,0.625093,-0.761038,0.059426,-0.162941,-0.138486,-0.192079,0.085030
1112,1612165078,0.625013,-0.761406,0.059552,-0.161477,-0.099381,-0.181214,0.166169
1113,1612198412,0.624867,-0.761899,0.059458,-0.159741,0.008241,-0.114191,0.159211
1114,1612231746,0.624598,-0.762518,0.059329,-0.157877,-0.054518,-0.097352,0.097363
1115,1612265080,0.624090,-0.763273,0.059477,-0.156170,-0.032250,-0.115596,0.130260
1116,1612298414,0.623202,-0.764315,0.059819,-0.154477,-0.048244,-0.233235,0.110977
1117,1612331748,0.622073,-0.765542,0.060254,-0.152781,-0.129894,-0.278049,0.077578
1118,1612365082,0.620869,-0.766893,0.060473,-0.150799,-0.156205,-0.199038,0.121230
1119,1612398416,0.619548,-0.768396,0.060515,-0.148547,-0.136075,-0.103563,0.140857
1120,1612431750,0.618256,-0.769969,0.060187,-0.145896,-0.044687,0.015967,0.158834
1121,1612465084,0.617292,-0.771353,0.059429,-0.142948,0.080873,0.175679,0.160922
1122,1612498418,0.616721,-0.772363,0.058704,-0.140233,0.167591,0.333236,0.154419
1123,1612531752,0.616378,-0.773094,0.058202,-0.137900,0.171005,0.320365,0.197764
1124,1612565086,0.616132,-0.773690,0.057838,-0.135799,0.111889,0.261120,0.169554
1125,1612598420,0.615860,-0.774238,0.057672,-0.133968,0.070305,0.142452,0.144405
1126,1612631754,0.615488,-0.774814,0.057691,-0.132328,0.011527,0.019393,0.132250
1127,1612665088,0.615330,-0.775249,0.057534,-0.130573,-0.031517,0.047770,0.141983
1128,1612698422,0.615555,-0.775445,0.056970,-0.128574,-0.039531,0.103761,0.114746
1129,1612731756,0.615753,-0.775681,0.056379,-0.126447,0.058781,0.009335,0.171749
1130,1612765090,0.615832,-0.775933,0.056130,-0.124616,0.073388,-0.027385,0.138973
1131,1612798424,0.616092,-0.775954,0.056134,-0.123188,0.015186,0.072087,0.122113
1132,1612831758,0.616516,-0.775761,0.056472,-0.122125,0.022269,0.061798,0.132874
1133,1612865092,0.616756,-0.775615,0.057164,-0.121520,-0.031436,0.005203,0.154717
1134,1612898426,0.617012,-0.775444,0.057854,-0.120981,-0.083941,-0.013463,0.117763
1135,1612931760,0.617359,-0.775168,0.058601,-0.120623,-0.168587,0.038444,0.110394
1136,1612965094,0.617655,-0.775013,0.059020,-0.119898,-0.204658,-0.073484,0.121202
1137,1612998428,0.617819,-0.775036,0.059100,-0.118861,-0.204028,-0.160407,0.078922
1138,1613031762,0.617941,-0.775160,0.058942,-0.117485,-0.163772,-0.114372,0.113125
1139,1613065096,0.618091,-0.775247,0.058790,-0.116195,-0.114913,0.108439,0.122598
1140,1613098430,0.618116,-0.775411,0.058627,-0.115039,-0.021078,0.160136,0.139081
1141,1613131764,0.618006,-0.775638,0.058547,-0.114135,-0.009529,0.156069,0.120517
1142,1613165098,0.617927,-0.775815,0.058487,-0.113389,-0.085823,0.187249,0.116610
1143,1613198432,0.618093,-0.775814,0.058242,-0.112617,-0.090158,0.243492,0.172927
1144,1613231766,0.618630,-0.775594,0.057529,-0.111540,-0.114472,0.232416,0.199574
1145,1613265100,0.619061,-0.775534,0.056517,-0.110077,-0.013102,-0.064124,0.171849
1146,1613298434,0.619287,-0.775631,0.055533,-0.108617,0.198473,-0.344009,0.025319
1147,1613331768,0.619324,-0.775639,0.055703,-0.108256,-0.063494,-0.184345,0.135976
1148,1613365102,0.619265,-0.775684,0.056039,-0.108100,-0.070519,-0.121519,0.132664
1149,1613398436,0.618891,-0.775938,0.056559,-0.108152,-0.086571,-0.165563,0.102326
1150,1613431770,0.618603,-0.776118,0.057141,-0.108200,-0.144838,-0.024414,0.123630
1151,1613465104,0.618397,-0.776279,0.057452,-0.108061,-0.135634,-0.013223,0.142150
1152,1613498438,0.617963,-0.776648,0.057634,-0.107794,-0.063110,-0.123328,0.068416
1153,1613531772,0.616978,-0.777421,0.058089,-0.107619,-0.169787,-0.231119,0.077592
1154,1613565106,0.615535,-0.778548,0.058622,-0.107442,-0.211397,-0.158527,0.117326
1155,1613598440,0.614241,-0.779678,0.058525,-0.106707,-0.068577,0.066551,0.130404
1156,1613631774,0.613553,-0.780409,0.057845,-0.105683,0.039863,0.424729,0.220863
1157,1613665108,0.613467,-0.780652,0.057084,-0.104798,0.165642,0.510475,0.160701
1158,1613698442,0.613227,-0.780868,0.056939,-0.104678,0.160538,0.258938,0.128661
1159,1613731776,0.612825,-0.781073,0.057346,-0.105275,0.032975,0.066166,0.123987
1160,1613765110,0.612522,-0.781175,0.057813,-0.106022,-0.083325,0.107621,0.158937
1161,1613798444,0.612377,-0.781231,0.057871,-0.106412,-0.097625,0.020164,0.122414
1162,1613831778,0.612308,-0.781344,0.057454,-0.106210,-0.041613,-0.034765,0.158444
1163,1613865112,0.612265,-0.781434,0.057053,-0.106008,0.047645,0.029259,0.121118
1164,1613898446,0.612243,-0.781431,0.056959,-0.106213,0.079571,0.182601,0.150460
1165,1613931780,0.612441,-0.781189,0.057083,-0.106780,0.090765,0.245778,0.155974
1166,1613965114,0.612663,-0.780879,0.057391,-0.107606,-0.000411,0.104614,0.139733
1167,1613998448,0.612922,-0.780547,0.057633,-0.108412,-0.053445,0.023677,0.116615
1168,1614031782,0.613103,-0.780299,0.057797,-0.109079,-0.112013,-0.035880,0.150339
1169,1614065116,0.613306,-0.780085,0.057723,-0.109505,-0.094572,-0.012966,0.124181
1170,1614098450,0.613576,-0.779846,0.057484,-0.109818,-0.029106,-0.004406,0.123433
1171,1614131784,0.613766,-0.779655,0.057340,-0.110189,-0.010941,-0.031301,0.135333
1172,1614165118,0.613761,-0.779587,0.057404,-0.110667,-0.006502,-0.058893,0.153686
1173,1614198452,0.613680,-0.779559,0.057560,-0.111229,-0.008844,-0.042047,0.120140
1174,1614231786,0.613610,-0.779509,0.057773,-0.111851,-0.043643,-0.026788,0.141296
1175,1614265120,0.613550,-0.779458,0.057968,-0.112433,-0.001702,-0.041804,0.139560
1176,1614298454,0.613520,-0.779376,0.058187,-0.113055,-0.002809,0.029515,0.103580
1177,1614331788,0.613672,-0.779145,0.058379,-0.113721,0.031111,0.103411,0.171833
1178,1614365122,0.613821,-0.778894,0.058640,-0.114499,0.013432,0.048696,0.142646
1179,1614398456,0.614048,-0.778565,0.058968,-0.115342,0.018554,0.056825,0.140618
1180,1614431790,0.614497,-0.778051,0.059247,-0.116279,-0.037236,0.068849,0.119287
1181,1614465124,0.614929,-0.777582,0.059389,-0.117055,-0.056959,-0.054981,0.140166
1182,1614498458,0.615276,-0.777220,0.059452,-0.117600,-0.097117,-0.094907,0.115237
1183,1614531792,0.615697,-0.776808,0.059453,-0.118117,-0.078461,-0.034458,0.125728
1184,1614565126,0.616091,-0.776444,0.059322,-0.118528,-0.012834,-0.069923,0.140677
1185,1614598460,0.616495,-0.776087,0.059198,-0.118826,0.015598,-0.079067,0.147846
1186,1614631794,0.616838,-0.775737,0.059271,-0.119288,0.003620,-0.094038,0.124422
1187,1614665128,0.617232,-0.775346,0.059324,-0.119767,0.031202,-0.014964,0.159344
1188,1614698462,0.617682,-0.774948,0.059220,-0.120075,0.005085,-0.061421,0.129902
1189,1614731796,0.617967,-0.774645,0.059383,-0.120484,-0.060997,-0.086601,0.127108
1190,1614765130,0.618453,-0.774192,0.059440,-0.120872,0.020090,0.019760,0.173212
1191,1614798464,0.619183,-0.773570,0.059339,-0.121164,0.019395,0.062000,0.160570
1192,1614831798,0.619769,-0.773026,0.059466,-0.121580,-0.032977,-0.062696,0.136825
1193,1614865132,0.620324,-0.772470,0.059746,-0.122141,-0.012335,-0.086339,0.136658
1194,1614898466,0.621104,-0.771745,0.059919,-0.122676,-0.008207,-0.078228,0.127488
1195,1614931800,0.621734,-0.771137,0.060113,-0.123214,-0.123790,-0.165076,0.122440
1196,1614965134,0.622251,-0.770665,0.060208,-0.123514,-0.122581,-0.150386,0.159551
1197,1614998468,0.622862,-0.770190,0.060010,-0.123489,-0.054154,-0.128374,0.131433
1198,1615031802,0.623297,-0.769886,0.059730,-0.123330,-0.096016,-0.243756,0.119577
1199,1615065136,0.623630,-0.769677,0.059476,-0.123067,-0.084552,-0.201918,0.170962
1200,1615098470,0.624165,-0.769324,0.059146,-0.122720,0.056170,-0.067274,0.158886
1201,1615131804,0.624755,-0.768926,0.058822,-0.122368,-0.000565,-0.054018,0.128606
1202,1615165138,0.625300,-0.768547,0.058682,-0.122036,-0.077984,-0.062870,0.128867
1203,1615198472,0.625878,-0.768121,0.058572,-0.121802,-0.069552,-0.070520,0.116691
1204,1615231806,0.626211,-0.767877,0.058539,-0.121653,-0.152238,-0.186865,0.072005
1205,1615265140,0.626182,-0.767987,0.058407,-0.121170,-0.200829,-0.257196,0.126932
1206,1615298474,0.625904,-0.768354,0.058129,-0.120405,-0.255335,-0.247149,0.106798
1207,1615331808,0.625573,-0.768897,0.057278,-0.119059,-0.241727,-0.201948,0.144828
1208,1615365142,0.625497,-0.769354,0.055853,-0.117173,0.024932,-0.129043,0.151809
1209,1615398476,0.625357,-0.769747,0.054902,-0.115777,0.050678,-0.270043,0.216895
1210,1615431810,0.626659,-0.768732,0.054786,-0.115537,0.144002,-0.328115,0.254551
1211,1615465144,0.627566,-0.768111,0.054487,-0.114884,0.056576,0.170327,-0.008883
1212,1615498478,0.627314,-0.768271,0.054899,-0.114994,-0.057107,0.182645,0.126344
1213,1615531812,0.627438,-0.768207,0.054978,-0.114703,-0.002005,0.226043,0.250315
1214,1615565146,0.628235,-0.767644,0.054724,-0.114236,0.052509,0.297472,0.163527
1215,1615598480,0.629270,-0.766804,0.054665,-0.114203,0.153010,0.290602,0.102262
1216,1615631814,0.630705,-0.765560,0.054817,-0.114560,0.116579,0.269513,0.160518
1217,1615665148,0.632064,-0.764334,0.055134,-0.115108,0.033809,0.215029,0.129726
1218,1615698482,0.632943,-0.763516,0.055417,-0.115568,-0.085077,0.043066,0.126760
1219,1615731816,0.634192,-0.762377,0.055665,-0.116120,-0.126603,-0.008269,0.144744
1220,1615765150,0.635794,-0.761021,0.055520,-0.116325,-0.081367,0.032652,0.117949
1221,1615798484,0.637768,-0.759335,0.055335,-0.116625,-0.127072,-0.035411,0.217544
1222,1615831818,0.640213,-0.757243,0.055156,-0.116912,-0.065331,-0.067521,0.112700
1223,1615865152,0.642891,-0.754919,0.055032,-0.117307,-0.050685,-0.047695,0.089683
1224,1615898486,0.645137,-0.752987,0.054657,-0.117570,0.104422,-0.126797,0.099930
1225,1615931820,0.646500,-0.751780,0.054510,-0.117871,0.072414,-0.124311,0.057095
1226,1615965154,0.647386,-0.750955,0.054569,-0.118243,-0.011723,-0.107445,0.156060
1227,1615998488,0.648501,-0.749872,0.054814,-0.118891,0.036031,0.083302,0.141795
1228,1616031822,0.649790,-0.748604,0.055143,-0.119692,0.031694,0.097170,0.131048
1229,1616065156,0.650821,-0.747487,0.055709,-0.120802,-0.078793,-0.003212,0.160700
1230,1616098490,0.651813,-0.746488,0.055960,-0.121512,-0.101994,-0.141327,0.100334
1231,1616131824,0.653106,-0.745260,0.056015,-0.122080,-0.037098,-0.084065,0.123868
1232,1616165158,0.654684,-0.743848,0.055806,-0.122337,-0.055815,-0.040264,0.162185
1233,1616198492,0.655946,-0.742755,0.055483,-0.122358,0.046082,-0.258570,0.116176
1234,1616231826,0.656723,-0.741871,0.056222,-0.123215,-0.031426,-0.164095,0.074913
1235,1616265160,0.657620,-0.740768,0.057293,-0.124565,0.030656,0.129439,0.135709
1236,1616298494,0.658615,-0.739529,0.058421,-0.126135,-0.001190,0.297151,0.124578
1237,1616331828,0.659398,-0.738472,0.059657,-0.127651,-0.004535,0.387537,0.104715
1238,1616365162,0.660161,-0.737400,0.060914,-0.129298,0.014632,0.403908,0.157391
1239,1616398496,0.661064,-0.736225,0.061928,-0.130895,-0.000719,0.296503,0.132488
1240,1616431830,0.661891,-0.735173,0.062632,-0.132287,-0.119808,0.091031,0.073893
1241,1616465164,0.662686,-0.734261,0.062940,-0.133221,-0.122966,0.035109,0.069870
1242,1616498498,0.663396,-0.733524,0.062820,-0.133800,-0.094288,0.037764,0.150436
1243,1616531832,0.664065,-0.732901,0.062438,-0.134072,0.041384,0.008725,0.136833
1244,1616565166,0.664682,-0.732240,0.062366,-0.134659,0.071606,0.059530,0.104376
1245,1616598500,0.665216,-0.731570,0.062583,-0.135560,0.026888,0.137683,0.152116
1246,1616631834,0.665781,-0.730831,0.062932,-0.136611,0.028457,0.071050,0.106499
1247,1616665168,0.666140,-0.730238,0.063484,-0.137771,-0.007600,0.028284,0.087666
1248,1616698502,0.666388,-0.729754,0.064000,-0.138890,-0.045425,0.095232,0.116377
1249,1616731836,0.666636,-0.729360,0.064138,-0.139705,-0.021922,0.166260,0.135096
1250,1616765170,0.666889,-0.729040,0.064023,-0.140222,-0.010810,0.082173,0.098404
1251,1616798504,0.667172,-0.728712,0.063852,-0.140652,-0.009833,0.110208,0.099842
1252,1616831838,0.667262,-0.728549,0.063701,-0.141139,0.032135,0.104731,0.103580
1253,1616865172,0.667410,-0.728372,0.063435,-0.141474,0.015800,0.139823,0.122863
1254,1616898506,0.667628,-0.728155,0.063016,-0.141746,-0.026379,0.095377,0.145567
1255,1616931840,0.667622,-0.728195,0.062469,-0.141816,-0.119899,0.039602,0.101433
1256,1616965174,0.667745,-0.728294,0.061285,-0.141244,-0.033047,0.106486,0.137313
1257,1616998508,0.667954,-0.728325,0.060013,-0.140641,0.106600,0.153602,0.111892
1258,1617031842,0.667969,-0.728511,0.058921,-0.140065,0.030110,0.084095,0.130714
1259,1617065176,0.667797,-0.728826,0.057955,-0.139648,-0.018352,-0.029282,0.115841
1260,1617098510,0.667524,-0.729268,0.056828,-0.139111,0.044045,-0.134385,0.106467
1261,1617131844,0.667117,-0.729865,0.055718,-0.138374,0.073972,0.061259,0.117757
1262,1617165178,0.666750,-0.730395,0.054977,-0.137641,0.146279,0.118750,0.160692
1263,1617198512,0.666285,-0.730906,0.054539,-0.137354,0.180381,-0.145237,0.136257
1264,1617231846,0.665496,-0.731614,0.054470,-0.137441,0.069120,-0.134037,0.121142
1265,1617265180,0.664574,-0.732425,0.054721,-0.137481,-0.012556,0.057002,0.124765
1266,1617298514,0.664030,-0.732978,0.054625,-0.137203,0.029812,0.149308,0.155751
1267,1617331848,0.663534,-0.733495,0.054390,-0.136934,0.004398,0.075217,0.141665
1268,1617365182,0.662866,-0.734164,0.054291,-0.136622,-0.041918,-0.058572,0.099760
1269,1617398516,0.662327,-0.734733,0.054155,-0.136227,-0.078289,0.028766,0.120366
1270,1617431850,0.661977,-0.735199,0.053670,-0.135607,-0.010924,0.010925,0.170400
1271,1617465184,0.661765,-0.735565,0.053097,-0.134876,0.015636,-0.097795,0.127512
1272,1617498518,0.661555,-0.735900,0.052728,-0.134226,0.006687,-0.087535,0.122533
1273,1617531852,0.661280,-0.736305,0.052399,-0.133491,0.090062,-0.035917,0.188256
1274,1617565186,0.660967,-0.736669,0.052412,-0.133026,0.050395,-0.140602,0.123253
1275,1617598520,0.660582,-0.736964,0.052995,-0.133073,0.010769,-0.014966,0.118034
1276,1617631854,0.660303,-0.737123,0.053707,-0.133288,0.073389,0.113010,0.128879
1277,1617665188,0.660007,-0.737242,0.054601,-0.133733,0.006057,0.128678,0.136548
1278,1617698522,0.659684,-0.737386,0.055455,-0.134180,-0.036028,0.153274,0.109846
1279,1617731856,0.659387,-0.737585,0.055983,-0.134327,-0.009267,0.084159,0.113832
1280,1617765190,0.658961,-0.737890,0.056570,-0.134494,-0.038859,0.052859,0.148475
1281,1617798524,0.658422,-0.738333,0.057029,-0.134511,-0.030409,-0.000072,0.124089
1282,1617831858,0.658019,-0.738664,0.057418,-0.134499,-0.008548,0.108552,0.108744
1283,1617865192,0.657721,-0.738913,0.057760,-0.134448,0.021726,0.095399,0.158904
1284,1617898526,0.657267,-0.739249,0.058288,-0.134591,0.020920,-0.051637,0.124494
1285,1617931860,0.656542,-0.739709,0.059325,-0.135146,0.008778,0.004981,0.104379
1286,1617965194,0.655980,-0.740029,0.060278,-0.135702,-0.050221,0.091858,0.145643
1287,1617998528,0.655592,-0.740274,0.060859,-0.135977,-0.109639,-0.018794,0.136858
1288,1618031862,0.655256,-0.740539,0.061237,-0.135984,-0.028405,-0.126128,0.104198
1289,1618065196,0.654907,-0.740841,0.061566,-0.135874,0.095317,-0.036663,0.151294
1290,1618098530,0.654370,-0.741147,0.062536,-0.136349,0.035653,-0.100410,0.133173
1291,1618131864,0.653809,-0.741384,0.063866,-0.137134,0.045654,-0.079176,0.130811
1292,1618165198,0.653356,-0.741477,0.065285,-0.138119,0.003315,0.002509,0.157319
1293,1618198532,0.652864,-0.741605,0.066767,-0.139046,-0.067406,-0.109047,0.142788
1294,1618231866,0.652413,-0.741732,0.068192,-0.139793,-0.032795,-0.105790,0.103207
1295,1618265200,0.651982,-0.741892,0.069422,-0.140343,-0.015303,-0.045940,0.140851
1296,1618298534,0.651573,-0.742013,0.070728,-0.140956,0.003008,0.078948,0.135088
1297,1618331868,0.651057,-0.742182,0.072172,-0.141712,-0.002650,-0.007136,0.132930
1298,1618365202,0.650193,-0.742596,0.073842,-0.142650,-0.059741,0.064192,0.117727
1299,1618398536,0.649263,-0.743119,0.075304,-0.143396,-0.119766,0.133934,0.086664
1300,1618431870,0.648429,-0.743629,0.076424,-0.143932,-0.080578,0.182109,0.116736
1301,1618465204,0.647600,-0.744219,0.077197,-0.144202,-0.060967,0.051894,0.117856
1302,1618498538,0.646808,-0.744868,0.077695,-0.144140,-0.079146,0.096279,0.082886
1303,1618531872,0.645973,-0.745569,0.078120,-0.144025,-0.027109,0.132308,0.146436
1304,1618565206,0.645009,-0.746385,0.078540,-0.143892,0.003501,0.064323,0.100281
1305,1618598540,0.643902,-0.747322,0.078981,-0.143745,0.013274,0.111306,0.109275
1306,1618631874,0.642612,-0.748335,0.079640,-0.143886,-0.000491,0.127686,0.101305
1307,1618665208,0.641163,-0.749518,0.080122,-0.143922,-0.040668,0.066583,0.116286
1308,1618698542,0.639580,-0.751020,0.080036,-0.143183,-0.091216,0.053059,0.107308
1309,1618731876,0.637849,-0.752734,0.079620,-0.142130,-0.044552,-0.022906,0.111544
1310,1618765210,0.636342,-0.754372,0.078786,-0.140659,-0.023924,-0.037151,0.133159
1311,1618798544,0.635047,-0.755868,0.077763,-0.139042,0.065332,0.019846,0.134610
1312,1618831878,0.633402,-0.757677,0.076718,-0.137269,0.068649,0.085269,0.105196
1313,1618865212,0.631822,-0.759318,0.075977,-0.135886,-0.044004,0.033858,0.182882
1314,1618898546,0.630494,-0.760728,0.075186,-0.134600,0.103203,0.052236,0.122407
1315,1618931880,0.629169,-0.762306,0.073689,-0.132690,0.114863,0.229949,0.142716
1316,1618965214,0.627254,-0.764346,0.072261,-0.130792,-0.047821,0.168215,0.060306
1317,1618998548,0.626029,-0.765554,0.071647,-0.129933,-0.266346,-0.159101,0.348722
1318,1619031882,0.625565,-0.766147,0.070844,-0.129111,0.060279,-0.047774,0.101770
1319,1619065216,0.624753,-0.767120,0.069659,-0.127903,-0.018598,0.150933,0.025143
1320,1619098550,0.623676,-0.768353,0.068351,-0.126454,-0.036000,0.186806,0.150187
1321,1619131884,0.622878,-0.769349,0.066995,-0.125053,-0.171371,0.067993,0.305381
1322,1619165218,0.622563,-0.769917,0.065670,-0.123821,-0.021973,-0.055693,0.102012
1323,1619198552,0.622441,-0.770237,0.064605,-0.122999,-0.003223,-0.001547,0.047496
1324,1619231886,0.622277,-0.770489,0.063855,-0.122647,-0.027545,0.030330,0.162205
1325,1619265220,0.622020,-0.770788,0.063214,-0.122398,-0.071442,-0.059769,0.170099
1326,1619298554,0.621733,-0.771118,0.062595,-0.122098,-0.146221,-0.038571,0.123523
1327,1619331888,0.621568,-0.771419,0.061656,-0.121509,-0.081016,-0.016021,0.130142
1328,1619365222,0.621466,-0.771690,0.060565,-0.120864,-0.049369,-0.059002,0.153593
1329,1619398556,0.621213,-0.772030,0.059674,-0.120427,-0.034296,-0.119415,0.109150
1330,1619431890,0.620717,-0.772518,0.059074,-0.120159,0.018319,-0.120717,0.123412
1331,1619465224,0.620242,-0.772961,0.058582,-0.120003,0.037637,-0.068665,0.182363
1332,1619498558,0.619941,-0.773260,0.058139,-0.119841,-0.004884,-0.071505,0.152829
1333,1619531892,0.619590,-0.773575,0.057879,-0.119757,0.025132,-0.105933,0.136230
1334,1619565226,0.619151,-0.773913,0.057875,-0.119838,0.045155,-0.125079,0.144384
1335,1619598560,0.618744,-0.774175,0.058134,-0.120123,0.032403,-0.087239,0.163074
1336,1619631894,0.618368,-0.774413,0.058438,-0.120382,-0.004312,-0.106531,0.118049
1337,1619665228,0.617971,-0.774635,0.058900,-0.120763,-0.025626,-0.120035,0.127301
1338,1619698562,0.617711,-0.774740,0.059397,-0.121174,0.051897,-0.040042,0.164466
1339,1619731896,0.617526,-0.774774,0.059994,-0.121605,0.017813,-0.038572,0.124800
1340,1619765230,0.617182,-0.774874,0.060890,-0.122269,0.007430,-0.055493,0.144390
1341,1619798564,0.616849,-0.774974,0.061703,-0.122907,-0.004904,-0.023748,0.152602
1342,1619831898,0.616597,-0.775028,0.062469,-0.123445,-0.074464,-0.012473,0.145049
1343,1619865232,0.616461,-0.774995,0.063199,-0.123958,0.025878,0.002664,0.154071
1344,1619898566,0.616443,-0.774868,0.063904,-0.124475,0.021559,0.000414,0.090077
1345,1619931900,0.616333,-0.774784,0.064753,-0.125109,-0.080512,-0.029832,0.149867
1346,1619965234,0.616171,-0.774758,0.065521,-0.125661,-0.079236,-0.028285,0.183455
1347,1619998568,0.616109,-0.774684,0.066153,-0.126091,-0.038752,-0.004841,0.139867
1348,1620031902,0.616205,-0.774521,0.066605,-0.126382,0.012641,0.015215,0.134531
1349,1620065236,0.616287,-0.774354,0.067132,-0.126729,-0.015962,-0.058494,0.151331
1350,1620098570,0.616345,-0.774207,0.067662,-0.127060,-0.018985,-0.070345,0.112602
1351,1620131904,0.616465,-0.773991,0.068250,-0.127483,-0.038272,0.014741,0.156011
1352,1620165238,0.616737,-0.773686,0.068677,-0.127788,-0.045232,0.069231,0.141747
1353,1620198572,0.617058,-0.773402,0.068897,-0.127838,-0.075611,0.006732,0.138190
1354,1620231906,0.617542,-0.773034,0.068912,-0.127721,-0.006760,-0.031009,0.219649
1355,1620265240,0.618274,-0.772400,0.069122,-0.127898,0.064464,-0.031932,0.167706
1356,1620298574,0.618938,-0.771711,0.069752,-0.128503,0.024190,-0.110206,0.115855
1357,1620331908,0.619497,-0.770993,0.070782,-0.129551,-0.044704,-0.141589,0.143887
1358,1620365242,0.620006,-0.770285,0.071890,-0.130713,-0.112677,-0.090255,0.121085
1359,1620398576,0.620477,-0.769663,0.072807,-0.131632,-0.115916,-0.036606,0.129413
1360,1620431910,0.620915,-0.769161,0.073401,-0.132170,-0.066071,-0.049751,0.107437
1361,1620465244,0.621295,-0.768774,0.073800,-0.132411,-0.041225,-0.091536,0.139929
1362,1620498578,0.621545,-0.768500,0.074212,-0.132598,0.016535,-0.091214,0.127803
1363,1620531912,0.621779,-0.768263,0.074636,-0.132643,0.037651,-0.026078,0.168776
1364,1620565246,0.622118,-0.767933,0.075122,-0.132686,0.079418,0.056652,0.122089
1365,1620598580,0.622441,-0.767636,0.075621,-0.132604,0.051869,-0.003258,0.097657
1366,1620631914,0.622709,-0.767390,0.076187,-0.132449,0.032014,-0.021938,0.104946
1367,1620665248,0.623124,-0.767077,0.076614,-0.132060,0.024870,0.020903,0.149370
1368,1620698582,0.623528,-0.766798,0.076978,-0.131565,0.060056,-0.036870,0.150433
1369,1620731916,0.623910,-0.766575,0.077305,-0.130860,0.029805,-0.137696,0.122982
1370,1620765250,0.624263,-0.766374,0.077714,-0.130107,0.010699,-0.119537,0.132650
1371,1620798584,0.624623,-0.766186,0.078134,-0.129233,-0.035725,-0.053296,0.085358
1372,1620831918,0.625070,-0.765999,0.078323,-0.128062,-0.069156,-0.010903,0.122536
1373,1620865252,0.625608,-0.765795,0.078285,-0.126668,-0.041517,-0.013223,0.169355
1374,1620898586,0.626199,-0.765539,0.078262,-0.125305,-0.022253,-0.014026,0.148692
1375,1620931920,0.626733,-0.765287,0.078359,-0.124101,0.048621,-0.053747,0.170494
1376,1620965254,0.627082,-0.765137,0.078640,-0.123082,-0.057166,-0.151059,0.129245
1377,1620998588,0.627131,-0.765225,0.079016,-0.122045,-0.017443,-0.336927,0.111274
1378,1621031922,0.626686,-0.765696,0.079628,-0.120974,-0.153563,-0.435531,0.080176