sep=,
DeviceTag:,L_Wrist
FirmwareVersion:,2.2.1
AppVersion:,2023.6.0
SyncStatus:,Synced
OutputRate:,30Hz
FilterProfile:,General
Measurement Mode:,Sensor fusion Mode - Complete(Quaternion)
StartTime: ,2026-08-21_17:44:53_814 AEST
© Movella Technologies B. V. 2005-2026

PacketCounter,SampleTimeFine,Quat_W,Quat_X,Quat_Y,Quat_Z,FreeAcc_X,FreeAcc_Y,FreeAcc_Z
1,1854218282,-0.014847,-0.633621,-0.143287,-0.760114,0.029755,0.007282,0.105796
2,1854251616,-0.014666,-0.633671,-0.143381,-0.760059,-0.019406,-0.007541,0.042329
3,1854284950,-0.014482,-0.633760,-0.143469,-0.759971,0.008230,-0.045775,0.113742
4,1854318284,-0.014363,-0.633865,-0.143503,-0.759879,0.007707,-0.009561,0.057345
5,1854351618,-0.014139,-0.633970,-0.143771,-0.759746,0.056822,-0.014287,0.121581
6,1854384952,-0.013930,-0.634023,-0.143940,-0.759672,0.071412,-0.053471,0.118030
7,1854418286,-0.013959,-0.634032,-0.143849,-0.759682,0.046756,-0.038740,0.114252
8,1854451620,-0.013986,-0.633950,-0.143841,-0.759751,0.018277,-0.011731,0.124830
9,1854484954,-0.013996,-0.633834,-0.144017,-0.759815,-0.004476,-0.034276,0.101912
10,1854518288,-0.014063,-0.633731,-0.144114,-0.759881,-0.005997,-0.022536,0.067481
11,1854551622,-0.014086,-0.633689,-0.144257,-0.759889,-0.030776,0.015607,0.069817
12,1854584956,-0.013983,-0.633685,-0.144372,-0.759872,0.003523,-0.030166,0.091570
13,1854618290,-0.013917,-0.633717,-0.144320,-0.759856,-0.013100,-0.020296,0.107323
14,1854651624,-0.013925,-0.633737,-0.144249,-0.759853,-0.033806,-0.014469,0.075910
15,1854684958,-0.013887,-0.633763,-0.144315,-0.759819,-0.012210,-0.008608,0.074301
16,1854718292,-0.013828,-0.633851,-0.144394,-0.759732,-0.020555,-0.001722,0.080048
17,1854751626,-0.013717,-0.633978,-0.144499,-0.759608,0.000045,0.004905,0.078623
18,1854784960,-0.013556,-0.634123,-0.144555,-0.759479,0.030714,-0.014097,0.120544
19,1854818294,-0.013417,-0.634281,-0.144432,-0.759373,0.044757,-0.038212,0.129849
20,1854851628,-0.013392,-0.634406,-0.144131,-0.759327,0.059464,-0.020065,0.142329
21,1854884962,-0.013473,-0.634484,-0.143907,-0.759302,0.007592,-0.043147,0.102736
22,1854918296,-0.013676,-0.634534,-0.143637,-0.759309,0.034000,-0.054552,0.097904
23,1854951630,-0.013982,-0.634586,-0.143345,-0.759315,-0.018389,-0.001395,0.053500
24,1854984964,-0.014065,-0.634676,-0.143309,-0.759244,0.019436,-0.015300,0.100373
25,1855018298,-0.014239,-0.634804,-0.143001,-0.759192,0.008857,-0.047189,0.088403
26,1855051632,-0.014500,-0.634926,-0.142598,-0.759161,-0.008670,-0.001279,0.116361
27,1855084966,-0.014658,-0.635035,-0.142382,-0.759107,-0.017921,-0.026081,0.115829
28,1855118300,-0.014842,-0.635155,-0.142051,-0.759065,-0.009889,-0.023671,0.108278
29,1855151634,-0.015092,-0.635295,-0.141605,-0.759026,-0.007032,0.012032,0.048488
30,1855184968,-0.015195,-0.635436,-0.141419,-0.758941,0.004151,-0.019886,0.099301
31,1855218302,-0.015309,-0.635606,-0.141024,-0.758870,0.038648,-0.055782,0.120211
32,1855251636,-0.015618,-0.635788,-0.140375,-0.758831,0.015628,-0.025949,0.096144
33,1855284970,-0.016021,-0.635925,-0.139900,-0.758796,0.012746,-0.020994,0.108967
34,1855318304,-0.016429,-0.636058,-0.139518,-0.758746,0.001253,-0.016303,0.076222
35,1855351638,-0.016733,-0.636211,-0.139087,-0.758691,-0.018223,0.001244,0.067254
36,1855384972,-0.016971,-0.636415,-0.138630,-0.758598,-0.007407,-0.001616,0.075136
37,1855418306,-0.017202,-0.636635,-0.138259,-0.758476,0.011062,-0.007926,0.096829
38,1855451640,-0.017447,-0.636874,-0.137902,-0.758334,-0.006267,-0.029195,0.076364
39,1855484974,-0.017669,-0.637087,-0.137520,-0.758219,0.026264,0.014824,0.082014
40,1855518308,-0.017757,-0.637301,-0.137366,-0.758066,0.001970,-0.004419,0.101393
41,1855551642,-0.017905,-0.637533,-0.137116,-0.757912,0.025563,-0.013724,0.079531
42,1855584976,-0.017976,-0.637769,-0.137031,-0.757728,0.013019,0.005336,0.096436
43,1855618310,-0.017877,-0.637973,-0.137113,-0.757543,0.052100,-0.027876,0.085443
44,1855651644,-0.017873,-0.638136,-0.136998,-0.757427,0.004825,-0.022341,0.090164
45,1855684978,-0.017836,-0.638287,-0.136915,-0.757316,-0.028073,-0.005319,0.135359
46,1855718312,-0.017731,-0.638420,-0.137026,-0.757186,-0.046090,-0.005484,0.093538
47,1855751646,-0.017494,-0.638622,-0.137333,-0.756965,-0.047639,-0.000118,0.101375
48,1855784980,-0.017196,-0.638873,-0.137502,-0.756729,-0.028859,0.032734,0.068746
49,1855818314,-0.016707,-0.639140,-0.137721,-0.756475,0.014692,0.026061,0.065705
50,1855851648,-0.016125,-0.639341,-0.137998,-0.756268,0.037861,-0.020101,0.105724
51,1855884982,-0.015583,-0.639406,-0.138403,-0.756150,0.048320,-0.045944,0.148919
52,1855918316,-0.015201,-0.639300,-0.138977,-0.756142,0.014242,-0.064016,0.140753
53,1855951650,-0.014945,-0.639097,-0.139640,-0.756197,0.007842,-0.045694,0.100911
54,1855984984,-0.014773,-0.638876,-0.140238,-0.756276,-0.018147,-0.025436,0.092432
55,1856018318,-0.014599,-0.638714,-0.140746,-0.756322,-0.039189,0.017070,0.092633
56,1856051652,-0.014323,-0.638582,-0.141276,-0.756339,-0.016412,0.012935,0.090411
57,1856084986,-0.013980,-0.638478,-0.141771,-0.756341,-0.017345,-0.005458,0.084743
58,1856118320,-0.013555,-0.638347,-0.142239,-0.756371,0.004077,0.009531,0.123857
59,1856151654,-0.013079,-0.638256,-0.142743,-0.756362,-0.010718,-0.037585,0.152524
60,1856184988,-0.012894,-0.638185,-0.142965,-0.756383,0.019245,-0.041763,0.072536
61,1856218322,-0.012718,-0.638141,-0.143228,-0.756373,0.009107,-0.014609,0.092331
62,1856251656,-0.012446,-0.638095,-0.143511,-0.756363,0.053282,-0.065863,0.087597
63,1856284990,-0.012439,-0.638057,-0.143422,-0.756412,0.013893,-0.061929,0.098108
64,1856318324,-0.012541,-0.638011,-0.143261,-0.756480,-0.016762,-0.043111,0.117191
65,1856351658,-0.012680,-0.637959,-0.143173,-0.756538,0.016461,-0.026025,0.108413
66,1856384992,-0.012926,-0.637911,-0.142972,-0.756613,-0.016639,-0.023168,0.093858
67,1856418326,-0.013172,-0.637858,-0.142757,-0.756694,-0.032901,0.007016,0.076158
68,1856451660,-0.013255,-0.637872,-0.142667,-0.756697,-0.023579,-0.013640,0.106618
69,1856484994,-0.013367,-0.637923,-0.142436,-0.756696,-0.004805,-0.024345,0.092020
70,1856518328,-0.013522,-0.637972,-0.142252,-0.756686,-0.000719,-0.020086,0.095062
71,1856551662,-0.013648,-0.637975,-0.142185,-0.756694,-0.002046,-0.049362,0.100989
72,1856584996,-0.013785,-0.637960,-0.142133,-0.756714,-0.019957,-0.034181,0.092669
73,1856618330,-0.013976,-0.637979,-0.142033,-0.756713,-0.006653,-0.036755,0.081698
74,1856651664,-0.014139,-0.638013,-0.141979,-0.756691,-0.003416,-0.033766,0.098594
75,1856684998,-0.014289,-0.638020,-0.141955,-0.756687,0.006521,-0.008026,0.089313
76,1856718332,-0.014364,-0.637974,-0.142061,-0.756705,-0.020655,-0.007935,0.097751
77,1856751666,-0.014422,-0.637910,-0.142181,-0.756735,-0.003579,-0.024125,0.125145
78,1856785000,-0.014514,-0.637848,-0.142252,-0.756772,-0.042862,-0.019353,0.047819
79,1856818334,-0.014550,-0.637884,-0.142347,-0.756723,-0.006513,-0.039483,0.117657
80,1856851668,-0.014598,-0.637927,-0.142344,-0.756687,-0.023949,0.004899,0.059406
81,1856885002,-0.014353,-0.637977,-0.142775,-0.756568,0.012614,0.006381,0.087429
82,1856918336,-0.014056,-0.638026,-0.143089,-0.756473,0.035289,-0.067903,0.103622
83,1856951670,-0.013940,-0.638056,-0.143060,-0.756455,0.019522,-0.039072,0.133551
84,1856985004,-0.013818,-0.638037,-0.143129,-0.756461,0.032155,-0.033524,0.133060
85,1857018338,-0.013723,-0.637962,-0.143262,-0.756500,0.000541,-0.064193,0.124101
86,1857051672,-0.013713,-0.637907,-0.143244,-0.756550,0.030931,-0.056023,0.069767
87,1857085006,-0.013639,-0.637874,-0.143289,-0.756571,-0.019084,-0.022764,0.066221
88,1857118340,-0.013437,-0.637904,-0.143310,-0.756546,0.045599,-0.057441,0.110360
89,1857151674,-0.013259,-0.637932,-0.143219,-0.756542,0.041950,-0.047072,0.130105
90,1857185008,-0.013141,-0.637906,-0.143130,-0.756583,0.042980,-0.056694,0.122969
91,1857218342,-0.013168,-0.637844,-0.142947,-0.756669,0.044222,-0.070111,0.082375
92,1857251676,-0.013251,-0.637779,-0.142688,-0.756772,-0.020437,-0.059315,0.077724
93,1857285010,-0.013286,-0.637731,-0.142604,-0.756827,-0.021878,-0.047708,0.059934
94,1857318344,-0.013317,-0.637734,-0.142621,-0.756821,0.000183,-0.056402,0.064241
95,1857351678,-0.013281,-0.637756,-0.142724,-0.756783,0.018296,-0.008265,0.092586
96,1857385012,-0.013221,-0.637757,-0.142860,-0.756758,0.040000,-0.012124,0.102820
97,1857418346,-0.013225,-0.637738,-0.142880,-0.756771,0.042423,-0.034992,0.122483
98,1857451680,-0.013328,-0.637663,-0.142873,-0.756833,-0.007186,-0.035216,0.048014
99,1857485014,-0.013400,-0.637658,-0.142948,-0.756822,-0.014480,-0.049656,0.130182
100,1857518348,-0.013624,-0.637692,-0.142872,-0.756804,-0.019089,-0.000352,0.040991
101,1857551682,-0.013626,-0.637759,-0.143194,-0.756686,0.006821,0.020064,0.084525
102,1857585016,-0.013572,-0.637839,-0.143375,-0.756585,0.035586,-0.048361,0.087148
103,1857618350,-0.013700,-0.637906,-0.143195,-0.756561,0.030781,-0.002030,0.129872
104,1857651684,-0.013839,-0.637905,-0.143098,-0.756578,0.013267,-0.011792,0.135714
105,1857685018,-0.014023,-0.637858,-0.143019,-0.756629,-0.009677,-0.028071,0.091276
106,1857718352,-0.014233,-0.637836,-0.142933,-0.756660,-0.020095,-0.000127,0.073143
107,1857751686,-0.014329,-0.637839,-0.142955,-0.756652,-0.033801,0.007430,0.073948
108,1857785020,-0.014275,-0.637904,-0.143020,-0.756585,-0.014997,0.002473,0.113692
109,1857818354,-0.014215,-0.637964,-0.143046,-0.756530,0.018920,0.003744,0.089998
110,1857851688,-0.014069,-0.637967,-0.143209,-0.756500,0.024138,0.000529,0.115755
111,1857885022,-0.013882,-0.637959,-0.143351,-0.756483,0.044819,-0.037754,0.107211
112,1857918356,-0.013676,-0.637941,-0.143369,-0.756498,0.028725,-0.044363,0.099398
113,1857951690,-0.013539,-0.637909,-0.143381,-0.756526,0.029652,-0.051957,0.119477
114,1857985024,-0.013459,-0.637868,-0.143366,-0.756564,0.026843,-0.072825,0.109703
115,1858018358,-0.013561,-0.637861,-0.143138,-0.756612,0.020925,-0.058941,0.094210
116,1858051692,-0.013696,-0.637850,-0.142910,-0.756662,0.025701,-0.036015,0.073188
117,1858085026,-0.013756,-0.637826,-0.142905,-0.756682,0.004965,-0.014198,0.085172
118,1858118360,-0.013768,-0.637820,-0.142882,-0.756691,0.018966,-0.000305,0.107450
119,1858151694,-0.013702,-0.637836,-0.142929,-0.756670,-0.002340,-0.019822,0.051708
120,1858185028,-0.013578,-0.637905,-0.142920,-0.756616,0.031166,-0.052902,0.111121
121,1858218362,-0.013533,-0.637959,-0.142847,-0.756585,-0.006711,-0.013197,0.078277
122,1858251696,-0.013228,-0.637998,-0.143194,-0.756491,0.064554,-0.038943,0.098783
123,1858285030,-0.013115,-0.638011,-0.143276,-0.756467,0.033699,-0.087482,0.085965
124,1858318364,-0.013205,-0.638015,-0.143171,-0.756482,-0.002127,-0.046478,0.116948
125,1858351698,-0.013170,-0.637996,-0.143244,-0.756485,0.011427,-0.030402,0.119023
126,1858385032,-0.013092,-0.637963,-0.143369,-0.756490,0.004000,-0.043548,0.089835
127,1858418366,-0.012931,-0.637981,-0.143456,-0.756462,-0.001758,-0.020312,0.052033
128,1858451700,-0.012678,-0.638067,-0.143553,-0.756375,-0.009956,-0.037147,0.095284
129,1858485034,-0.012346,-0.638186,-0.143562,-0.756278,0.031517,-0.077236,0.129424
130,1858518368,-0.012193,-0.638307,-0.143498,-0.756191,0.043428,-0.086505,0.103872
131,1858551702,-0.012187,-0.638375,-0.143455,-0.756142,0.075552,-0.072106,0.109635
132,1858585036,-0.012261,-0.638416,-0.143296,-0.756136,0.041224,-0.042211,0.097439
133,1858618370,-0.012301,-0.638471,-0.143127,-0.756121,0.027413,-0.045765,0.074561
134,1858651704,-0.012325,-0.638530,-0.142993,-0.756096,0.024740,-0.028657,0.080516
135,1858685038,-0.012290,-0.638604,-0.142910,-0.756050,0.027560,-0.048778,0.088768
136,1858718372,-0.012274,-0.638695,-0.142729,-0.756007,0.053595,-0.063091,0.116893
137,1858751706,-0.012329,-0.638739,-0.142535,-0.756006,0.034471,-0.045891,0.120947
138,1858785040,-0.012494,-0.638740,-0.142420,-0.756024,0.033916,-0.052759,0.088116
139,1858818374,-0.012747,-0.638742,-0.142216,-0.756056,0.041255,-0.047053,0.093557
140,1858851708,-0.013066,-0.638774,-0.141889,-0.756085,0.000185,-0.014322,0.051516
141,1858885042,-0.013306,-0.638885,-0.141672,-0.756028,-0.014486,-0.034249,0.146835
142,1858918376,-0.013624,-0.639007,-0.141350,-0.755979,0.016922,-0.000165,0.056530
143,1858951710,-0.013725,-0.639139,-0.141386,-0.755860,0.050746,-0.000633,0.101960
144,1858985044,-0.013802,-0.639220,-0.141289,-0.755808,0.067857,-0.059366,0.093293
145,1859018378,-0.014217,-0.639305,-0.140771,-0.755825,0.042267,-0.027548,0.130019
146,1859051712,-0.014601,-0.639321,-0.140396,-0.755874,0.018406,-0.035662,0.125878
147,1859085046,-0.015087,-0.639318,-0.140051,-0.755931,0.005233,-0.040358,0.100129
148,1859118380,-0.015628,-0.639322,-0.139618,-0.755996,-0.001738,0.006272,0.075438
149,1859151714,-0.016172,-0.639377,-0.139200,-0.756015,-0.001159,0.023492,0.074628
150,1859185048,-0.016255,-0.639419,-0.139061,-0.756004,0.008864,0.012742,0.113230
151,1859218382,-0.016261,-0.639447,-0.138841,-0.756021,-0.003698,0.018729,0.102157
152,1859251716,-0.016254,-0.639448,-0.138694,-0.756047,0.013409,0.001888,0.110666
153,1859285050,-0.016394,-0.639443,-0.138500,-0.756084,0.009244,-0.025838,0.089921
154,1859318384,-0.016315,-0.639393,-0.138430,-0.756140,-0.026295,-0.021503,0.075421
155,1859351718,-0.016187,-0.639342,-0.138508,-0.756172,-0.019350,-0.009757,0.093715
156,1859385052,-0.016126,-0.639336,-0.138609,-0.756160,-0.009999,0.000990,0.082905
157,1859418386,-0.016069,-0.639354,-0.138691,-0.756131,-0.009786,-0.004100,0.080324
158,1859451720,-0.015937,-0.639379,-0.138795,-0.756094,0.012248,0.004033,0.106340
159,1859485054,-0.015511,-0.639341,-0.139171,-0.756065,0.025794,-0.007044,0.105116
160,1859518388,-0.015016,-0.639277,-0.139623,-0.756046,0.019945,-0.064950,0.086765
161,1859551722,-0.014545,-0.639192,-0.140044,-0.756050,0.013859,-0.051101,0.090478
162,1859585056,-0.014219,-0.639161,-0.140403,-0.756015,-0.007199,-0.079356,0.087428
163,1859618390,-0.014160,-0.639193,-0.140410,-0.755988,0.036890,-0.074317,0.094110
164,1859651724,-0.014403,-0.639261,-0.140348,-0.755937,-0.003906,-0.008557,0.111596
165,1859685058,-0.014257,-0.639270,-0.140671,-0.755872,0.041269,-0.015069,0.090303
166,1859718392,-0.013905,-0.639228,-0.140964,-0.755860,0.035007,-0.034490,0.089265
167,1859751726,-0.013668,-0.639170,-0.141089,-0.755890,0.015582,-0.015942,0.121045
168,1859785060,-0.013438,-0.639096,-0.141306,-0.755916,0.007887,-0.040020,0.110580
169,1859818394,-0.013230,-0.639022,-0.141564,-0.755934,-0.008843,-0.055204,0.099453
170,1859851728,-0.013056,-0.638964,-0.141724,-0.755956,0.018744,-0.047195,0.093802
171,1859885062,-0.012885,-0.638952,-0.141850,-0.755946,0.012112,-0.038141,0.102057
172,1859918396,-0.012613,-0.638938,-0.141923,-0.755948,0.050765,-0.053308,0.112339
173,1859951730,-0.012566,-0.638884,-0.141890,-0.756001,0.069382,-0.054091,0.120660
174,1859985064,-0.012833,-0.638664,-0.142311,-0.756103,0.271684,-0.165589,0.321284
175,1860018398,-0.013728,-0.637577,-0.145161,-0.756463,0.991788,-0.185204,0.775530
176,1860051732,-0.015251,-0.633472,-0.154197,-0.758093,2.105730,-0.344349,1.797607
177,1860085066,-0.017223,-0.624532,-0.176324,-0.760640,2.357810,-0.960564,2.854955
178,1860118400,-0.024375,-0.610635,-0.209507,-0.763308,1.448655,-1.820446,3.480296
179,1860151734,-0.042722,-0.592064,-0.243928,-0.766900,1.269428,-1.643551,4.258469
180,1860185068,-0.072721,-0.567864,-0.275332,-0.772292,0.806640,-1.693783,4.566063
181,1860218402,-0.111621,-0.537576,-0.302510,-0.779129,-0.448287,-0.467411,4.793971
182,1860251736,-0.154858,-0.501307,-0.332800,-0.783553,-1.775126,0.214885,4.430096
183,1860285070,-0.203440,-0.460122,-0.357860,-0.786662,-1.941606,0.844648,1.338324
184,1860318404,-0.251447,-0.416139,-0.377847,-0.787931,-1.744351,0.794305,-0.431102
185,1860351738,-0.297857,-0.370987,-0.397014,-0.784876,-2.128717,0.416119,1.081285
186,1860385072,-0.345821,-0.318723,-0.407429,-0.782832,-3.123691,1.042603,1.809628
187,1860418406,-0.395246,-0.256634,-0.406843,-0.782559,-3.862769,1.654139,-0.397535
188,1860451740,-0.440739,-0.189967,-0.402005,-0.779778,-1.964829,2.282918,-3.056827
189,1860485074,-0.479196,-0.129701,-0.408373,-0.766016,-0.053937,2.532902,-3.931476
190,1860518408,-0.513840,-0.084343,-0.432855,-0.735861,1.280546,2.228758,-4.689375
191,1860551742,-0.544310,-0.052419,-0.468618,-0.693813,0.850240,-0.426298,-5.061464
192,1860585076,-0.571080,-0.023609,-0.489528,-0.658539,0.300840,-1.648087,-4.241898
193,1860618410,-0.592961,-0.002324,-0.499882,-0.631277,2.025528,-1.619155,-4.051412
194,1860651744,-0.608367,0.009481,-0.505414,-0.611847,1.512697,0.103543,-2.284974
195,1860685078,-0.616545,0.016471,-0.507173,-0.601979,2.143090,0.190750,-1.930431
196,1860718412,-0.617880,0.019457,-0.507919,-0.599887,0.637530,0.419035,-0.962394
197,1860751746,-0.614896,0.020439,-0.507605,-0.603178,0.497237,-0.508250,-0.888302
198,1860785080,-0.609743,0.017968,-0.508101,-0.608051,0.579884,-0.685567,-0.904262
199,1860818414,-0.603016,0.011902,-0.509879,-0.613396,0.843699,-1.010533,-1.257688
200,1860851748,-0.593980,0.002415,-0.511683,-0.620777,1.613132,-1.576439,-2.062942
201,1860885082,-0.581360,-0.010008,-0.510740,-0.633298,2.012215,-1.504879,-2.459422
202,1860918416,-0.564098,-0.023292,-0.503744,-0.653830,1.664282,-0.845221,-2.167242
203,1860951750,-0.541427,-0.036140,-0.487769,-0.683836,1.814143,-0.880373,-2.787626
204,1860985084,-0.514680,-0.054224,-0.467314,-0.716786,1.540173,-0.013171,-2.457464
205,1861018418,-0.485422,-0.082117,-0.450089,-0.745012,1.651654,0.647032,-2.994690
206,1861051752,-0.455025,-0.122893,-0.444004,-0.762044,0.285405,1.486411,-2.091964
207,1861085086,-0.423975,-0.163651,-0.437710,-0.775806,-1.821693,1.890321,0.992349
208,1861118420,-0.393686,-0.195308,-0.422365,-0.792764,-0.471674,1.830921,0.713999
209,1861151754,-0.364761,-0.217111,-0.398833,-0.812863,-3.019109,0.537434,3.996117
210,1861185088,-0.342977,-0.229575,-0.352133,-0.840039,-2.540063,-1.584188,1.751801
211,1861218422,-0.325453,-0.246643,-0.303799,-0.860787,0.987637,1.131933,-3.375394
212,1861251756,-0.302941,-0.281317,-0.285554,-0.864608,0.282717,1.463752,-2.774000
213,1861285090,-0.277171,-0.322038,-0.280992,-0.860530,-0.919610,0.389613,0.081179
214,1861318424,-0.250433,-0.360384,-0.269480,-0.857198,-0.884026,0.076541,-0.253921
215,1861351758,-0.224690,-0.393722,-0.242588,-0.857700,-1.461630,0.279614,1.650684
216,1861385092,-0.199462,-0.423171,-0.216350,-0.856933,-0.448310,1.037653,1.364957
217,1861418426,-0.170111,-0.453344,-0.199990,-0.851790,-0.257798,1.561062,0.427239
218,1861451760,-0.133248,-0.483986,-0.187647,-0.844270,-1.113085,0.611675,0.314449
219,1861485094,-0.097554,-0.512057,-0.166345,-0.837025,-1.263126,0.382933,1.867340
220,1861518428,-0.063258,-0.537397,-0.144000,-0.828533,-0.491596,0.461841,2.693201
221,1861551762,-0.030813,-0.558653,-0.123231,-0.819617,0.216190,-0.355313,3.208370
222,1861585096,-0.004204,-0.575567,-0.100626,-0.811530,0.275771,-1.283951,2.776900
223,1861618430,0.015193,-0.589631,-0.077138,-0.803837,0.528040,-0.726215,1.806778
224,1861651764,0.029616,-0.600238,-0.059397,-0.797064,0.630693,-0.979874,1.385512
225,1861685098,0.040523,-0.606837,-0.051351,-0.792131,0.521185,-1.261635,0.956170
226,1861718432,0.044636,-0.609912,-0.050421,-0.789604,0.508743,-1.527067,0.988604
227,1861751766,0.049090,-0.609181,-0.062453,-0.789043,0.052166,-1.183142,0.637803
228,1861785100,0.055443,-0.606271,-0.087081,-0.788530,-0.368478,-1.285163,0.605119
229,1861818434,0.061742,-0.601951,-0.118744,-0.787238,0.075401,-1.168060,0.256251
230,1861851768,0.067008,-0.596479,-0.151482,-0.785352,0.328932,-1.385264,-0.176802
231,1861885102,0.069422,-0.591149,-0.179227,-0.783327,0.341433,-1.522257,-0.413930
232,1861918436,0.067885,-0.587552,-0.197910,-0.781669,0.345067,-1.165267,-0.416663
233,1861951770,0.063108,-0.586260,-0.206947,-0.780699,0.269022,-0.644484,-0.295846
234,1861985104,0.056400,-0.587176,-0.208818,-0.780025,0.044545,-0.317468,-0.265128
235,1862018438,0.047858,-0.590158,-0.205557,-0.779211,-0.218258,-0.194511,-0.092469
236,1862051772,0.036299,-0.594873,-0.197417,-0.778355,-0.488306,-0.069602,0.158921
237,1862085106,0.021287,-0.600844,-0.184449,-0.777505,-0.444986,0.099399,0.315429
238,1862118440,0.004718,-0.607044,-0.169748,-0.776313,-0.127848,0.739351,0.229358
239,1862151774,-0.009357,-0.612444,-0.158153,-0.774476,0.222668,1.014381,0.232167
240,1862185108,-0.018633,-0.616309,-0.151017,-0.772665,0.397939,1.037707,0.162593
241,1862218442,-0.022689,-0.618750,-0.148258,-0.771138,0.410451,0.830699,0.081043
242,1862251776,-0.022626,-0.620108,-0.148189,-0.770062,0.508934,0.731569,0.183703
243,1862285110,-0.019801,-0.620595,-0.149528,-0.769488,0.464034,0.491845,0.331101
244,1862318444,-0.015905,-0.620379,-0.150801,-0.769504,0.248410,0.182447,0.335356
245,1862351778,-0.012352,-0.619729,-0.151080,-0.770038,-0.087451,-0.100475,0.180628
246,1862385112,-0.009271,-0.619148,-0.150958,-0.770573,-0.238345,-0.178665,-0.014235
247,1862418446,-0.006453,-0.618935,-0.150801,-0.770803,-0.256710,-0.292233,0.003619
248,1862451780,-0.004019,-0.619068,-0.149978,-0.770874,-0.310267,-0.403113,0.104091
249,1862485114,-0.001995,-0.619383,-0.148787,-0.770859,-0.251457,-0.331949,0.121881
250,1862518448,-0.000205,-0.619702,-0.148558,-0.770649,-0.247599,-0.195013,0.131326
251,1862551782,0.001352,-0.620031,-0.149470,-0.770207,-0.177897,-0.244540,0.133058
252,1862585116,0.002408,-0.620469,-0.150453,-0.769660,-0.092494,-0.266971,0.101947
253,1862618450,0.003375,-0.621197,-0.150886,-0.768985,0.166767,-0.189144,-0.036525
254,1862651784,0.004264,-0.622196,-0.150334,-0.768280,0.140012,-0.235186,0.004376
255,1862685118,0.004549,-0.623335,-0.148753,-0.767662,0.118675,-0.219421,0.206134
256,1862718452,0.003722,-0.624510,-0.145759,-0.767286,0.211017,-0.300439,0.182417
257,1862751786,0.001967,-0.625613,-0.141214,-0.767244,0.228357,-0.349767,0.000911
258,1862785120,0.000240,-0.626254,-0.136994,-0.767489,0.153347,-0.175997,-0.063864
259,1862818454,-0.000439,-0.626275,-0.135158,-0.767797,-0.015752,-0.283924,-0.038383
260,1862851788,-0.000740,-0.625963,-0.134839,-0.768108,-0.109190,-0.327301,0.078483
261,1862885122,-0.001426,-0.625558,-0.134740,-0.768454,-0.173708,-0.217002,0.117049
262,1862918456,-0.002788,-0.625176,-0.134462,-0.768810,-0.195618,-0.163219,-0.017105
263,1862951790,-0.004326,-0.624831,-0.133596,-0.769234,-0.089640,-0.075019,0.046110
264,1862985124,-0.004616,-0.624391,-0.133216,-0.769655,-0.330032,0.036657,0.008568
265,1863018458,-0.003116,-0.624518,-0.134826,-0.769279,0.026989,0.208377,0.095600
266,1863051792,-0.001358,-0.624828,-0.137085,-0.768633,0.568509,0.267833,0.208382
267,1863085126,-0.000560,-0.624477,-0.139711,-0.768447,0.562304,0.360395,-0.125264
268,1863118460,0.000864,-0.623634,-0.144423,-0.768259,0.447557,0.186439,0.146258
269,1863151794,0.002730,-0.622298,-0.146408,-0.768963,0.553381,-0.205624,1.007616
270,1863185128,0.003754,-0.619643,-0.145554,-0.771261,-0.581313,-0.150125,-0.003505
271,1863218462,0.004145,-0.617829,-0.147158,-0.772409,-0.764898,-0.212049,-0.070381
272,1863251796,0.003379,-0.617133,-0.145391,-0.773303,0.002613,-0.542491,-0.273637
273,1863285130,0.001283,-0.616863,-0.141208,-0.774299,-0.602758,-0.145256,-0.348772
274,1863318464,0.000107,-0.617238,-0.141212,-0.774001,-0.301624,0.915680,0.576678
275,1863351798,0.000857,-0.617497,-0.144507,-0.773185,0.259911,0.632768,1.034417
276,1863385132,0.002777,-0.617237,-0.147577,-0.772808,0.471649,0.425147,-0.823730
277,1863418466,0.007977,-0.616850,-0.154627,-0.771702,0.676521,0.303348,-0.451329
278,1863451800,0.013206,-0.616296,-0.160587,-0.770855,0.400106,-0.593099,0.443549
279,1863485134,0.014108,-0.615833,-0.156503,-0.772048,0.045570,-1.011504,0.469316
280,1863518468,0.012973,-0.614797,-0.148696,-0.774434,-0.560544,-0.353578,-0.508675
281,1863551802,0.014508,-0.613782,-0.149972,-0.774965,-0.920194,-0.115235,-0.212420
282,1863585136,0.016520,-0.613629,-0.157508,-0.773549,-0.567582,0.101925,0.646416
283,1863618470,0.016226,-0.614271,-0.160938,-0.772339,0.224256,0.216033,0.078031
284,1863651804,0.015335,-0.615482,-0.161485,-0.771279,0.679180,0.358176,0.030004
285,1863685138,0.015548,-0.615196,-0.163004,-0.771182,0.737086,0.160115,0.250171
286,1863718472,0.016096,-0.613609,-0.163090,-0.772417,0.558088,-0.015789,0.405503
287,1863751806,0.015902,-0.611435,-0.161109,-0.774557,-0.006361,-0.127252,0.221994
288,1863785140,0.015295,-0.609516,-0.159911,-0.776328,-0.459374,-0.206689,-0.060307
289,1863818474,0.013284,-0.608890,-0.159655,-0.776909,-0.769257,-0.328661,-0.405917
290,1863851808,0.009291,-0.610317,-0.158076,-0.776169,-0.314796,0.006005,-0.157942
291,1863885142,0.004601,-0.612753,-0.155115,-0.774889,0.406021,0.163632,0.270879
292,1863918476,-0.000796,-0.614990,-0.149767,-0.774182,0.730821,0.468470,0.534186
293,1863951810,-0.006231,-0.616326,-0.143268,-0.774324,0.572284,0.787157,0.599187
294,1863985144,-0.010634,-0.616442,-0.137729,-0.775189,0.301470,0.901225,0.543401
295,1864018478,-0.013021,-0.615297,-0.135015,-0.776538,-0.127245,0.924336,0.208824
296,1864051812,-0.012795,-0.613631,-0.136315,-0.777632,-0.479729,0.343170,-0.116469
297,1864085146,-0.011300,-0.612236,-0.139010,-0.778278,-0.620498,0.129529,-0.194096
298,1864118480,-0.008836,-0.611212,-0.142066,-0.778563,-0.475605,0.213561,-0.038561
299,1864151814,-0.005136,-0.610507,-0.146804,-0.778270,-0.291010,0.211863,-0.010093
300,1864185148,-0.000752,-0.609782,-0.153544,-0.777554,0.136143,0.299299,0.066752
301,1864218482,0.003300,-0.608815,-0.160982,-0.776801,0.461977,0.262888,0.151050
302,1864251816,0.006696,-0.607633,-0.167564,-0.776312,0.563405,0.266595,0.258222
303,1864285150,0.009267,-0.606527,-0.171854,-0.776213,0.394853,0.171937,0.086546
304,1864318484,0.010846,-0.605864,-0.173506,-0.776342,0.078205,0.113014,-0.095047
305,1864351818,0.011770,-0.605937,-0.173425,-0.776290,-0.144336,0.043666,-0.119005
306,1864385152,0.012416,-0.606775,-0.172415,-0.775851,-0.193278,0.022024,-0.052116
307,1864418486,0.012891,-0.608028,-0.171080,-0.775157,-0.060374,0.023578,0.010172
308,1864451820,0.013373,-0.609300,-0.170266,-0.774329,0.087319,0.056383,0.205912
309,1864485154,0.013861,-0.610259,-0.170011,-0.773621,0.210011,-0.026603,0.378014
310,1864518488,0.013784,-0.610600,-0.169726,-0.773416,0.234161,-0.027998,0.374874
311,1864551822,0.012921,-0.610326,-0.169292,-0.773742,0.103203,0.039340,0.197820
312,1864585156,0.011823,-0.609781,-0.168848,-0.774286,-0.057152,0.246273,0.080783
313,1864618490,0.011436,-0.609305,-0.169106,-0.774610,-0.193007,0.277779,0.017778
314,1864651824,0.011620,-0.609256,-0.169470,-0.774566,-0.268277,0.209013,-0.022361
315,1864685158,0.012125,-0.609753,-0.169315,-0.774201,-0.291896,0.151080,-0.025324
316,1864718492,0.013002,-0.610669,-0.168831,-0.773570,-0.218711,0.074898,0.009931
317,1864751826,0.014177,-0.611780,-0.168399,-0.772765,-0.185303,-0.039554,-0.023905
318,1864785160,0.015342,-0.612981,-0.168105,-0.771855,-0.057154,-0.099460,0.017623
319,1864818494,0.016343,-0.614081,-0.168040,-0.770974,-0.061337,-0.187020,0.038860
320,1864851828,0.017349,-0.615065,-0.168477,-0.770072,0.005662,-0.211090,0.085141
321,1864885162,0.018253,-0.615898,-0.169125,-0.769242,0.051745,-0.327849,0.091836
322,1864918496,0.018542,-0.616617,-0.169411,-0.768597,0.100557,-0.396782,0.109683
323,1864951830,0.017873,-0.617184,-0.168753,-0.768301,0.078834,-0.437524,0.101302
324,1864985164,0.016213,-0.617611,-0.167190,-0.768337,-0.005960,-0.417793,0.127505
325,1865018498,0.013804,-0.617848,-0.165103,-0.768645,-0.074637,-0.322562,0.081855
326,1865051832,0.011032,-0.617887,-0.163125,-0.769081,-0.129981,-0.205538,0.095290
327,1865085166,0.008305,-0.617768,-0.161614,-0.769529,-0.141301,-0.080542,0.061248
328,1865118500,0.006248,-0.617578,-0.161072,-0.769815,-0.121365,0.067569,0.068142
329,1865151834,0.005190,-0.617404,-0.161392,-0.769896,-0.093700,-0.014917,0.030956
330,1865185168,0.004575,-0.617376,-0.161561,-0.769886,-0.077296,-0.138573,0.037923
331,1865218502,0.003992,-0.617552,-0.160820,-0.769903,-0.067591,-0.146679,0.081781
332,1865251836,0.003458,-0.617807,-0.159537,-0.769969,-0.083102,-0.199671,0.082657
333,1865285170,0.002780,-0.618081,-0.158085,-0.770051,-0.128920,-0.249276,0.121213
334,1865318504,0.001659,-0.618303,-0.156233,-0.770254,-0.155942,-0.269923,0.219599
335,1865351838,0.000283,-0.618393,-0.154293,-0.770575,-0.293675,-0.222229,0.188757
336,1865385172,-0.000983,-0.618369,-0.152969,-0.770857,-0.277300,-0.122923,0.081604
337,1865418506,-0.001369,-0.618126,-0.153322,-0.770981,-0.130440,0.017401,-0.133079
338,1865451840,-0.000285,-0.617715,-0.155771,-0.770820,-0.031049,-0.082624,-0.107354
339,1865485174,0.001585,-0.617187,-0.158606,-0.770664,0.094155,-0.235452,0.004230
340,1865518508,0.003215,-0.616601,-0.160474,-0.770741,0.080113,-0.320751,0.154927
341,1865551842,0.004230,-0.615912,-0.161272,-0.771120,0.020884,-0.316083,0.237603
342,1865585176,0.004865,-0.615038,-0.161873,-0.771688,-0.053314,-0.275375,0.265717
343,1865618510,0.005327,-0.614072,-0.162982,-0.772221,-0.142138,-0.307593,0.236639
344,1865651844,0.005401,-0.613180,-0.164419,-0.772624,-0.208311,-0.379757,0.110164
345,1865685178,0.004872,-0.612562,-0.165721,-0.772839,-0.228878,-0.373098,0.040139
346,1865718512,0.003774,-0.612328,-0.166473,-0.772870,-0.195836,-0.347803,-0.017204
347,1865751846,0.002301,-0.612433,-0.166748,-0.772733,-0.214589,-0.251785,-0.026594
348,1865785180,0.000788,-0.612737,-0.166968,-0.772447,-0.135836,-0.153398,0.033076
349,1865818514,-0.000512,-0.613069,-0.167434,-0.772083,-0.090120,-0.106928,0.062421
350,1865851848,-0.001534,-0.613381,-0.168164,-0.771676,-0.067311,-0.087839,0.094466
351,1865885182,-0.002434,-0.613686,-0.168796,-0.771292,0.013714,-0.082521,0.099283
352,1865918516,-0.003365,-0.613965,-0.169053,-0.771011,-0.017310,-0.108289,0.091060
353,1865951850,-0.004146,-0.614224,-0.169144,-0.770781,-0.066445,-0.062996,0.197845
354,1865985184,-0.004827,-0.614414,-0.169309,-0.770589,-0.104459,-0.091269,0.130816
355,1866018518,-0.005622,-0.614663,-0.169596,-0.770322,-0.099632,-0.110598,0.111981
356,1866051852,-0.006553,-0.614956,-0.169786,-0.770038,-0.154910,-0.062518,0.009343
357,1866085186,-0.007182,-0.615384,-0.170184,-0.769603,-0.128103,-0.037690,0.021481
358,1866118520,-0.007576,-0.615941,-0.170544,-0.769074,-0.074317,-0.049218,-0.011921
359,1866151854,-0.008050,-0.616555,-0.170631,-0.768558,-0.070037,-0.007145,0.019061
360,1866185188,-0.008280,-0.617186,-0.170837,-0.768003,-0.065903,0.035838,0.113447
361,1866218522,-0.008218,-0.617836,-0.171165,-0.767407,-0.083864,0.065769,0.193927
362,1866251856,-0.008105,-0.618622,-0.171205,-0.766766,-0.007688,0.044288,0.373929
363,1866285190,-0.008416,-0.619467,-0.170296,-0.766284,0.005284,0.032644,0.353810
364,1866318524,-0.009165,-0.620237,-0.168898,-0.765961,-0.045545,0.057247,0.150561
365,1866351858,-0.009990,-0.620900,-0.167659,-0.765686,-0.018817,0.100123,-0.046323
366,1866385192,-0.010298,-0.621507,-0.167039,-0.765325,-0.057930,0.039503,-0.072430
367,1866418526,-0.009878,-0.622094,-0.167102,-0.764840,-0.062834,-0.029066,-0.020895
368,1866451860,-0.008911,-0.622574,-0.167854,-0.764296,0.001701,-0.020390,0.093026
369,1866485194,-0.007787,-0.622888,-0.169051,-0.763789,0.118981,-0.057923,0.163251
370,1866518528,-0.007075,-0.623025,-0.169940,-0.763487,0.154150,-0.085427,0.219673
371,1866551862,-0.006988,-0.623000,-0.169957,-0.763504,0.152573,-0.093678,0.203886
372,1866585196,-0.007547,-0.622839,-0.169145,-0.763809,0.044934,-0.045193,0.135612
373,1866618530,-0.008254,-0.622511,-0.168273,-0.764262,-0.079645,0.043115,0.074474
374,1866651864,-0.008609,-0.622168,-0.168059,-0.764585,-0.207692,0.056371,0.039377
375,1866685198,-0.008537,-0.621938,-0.168306,-0.764718,-0.170482,0.108994,-0.006525
376,1866718532,-0.007847,-0.621865,-0.169177,-0.764593,-0.159723,0.101033,0.033255
377,1866751866,-0.006740,-0.621913,-0.170239,-0.764329,-0.027778,0.052390,0.081787
378,1866785200,-0.005714,-0.621979,-0.170929,-0.764129,0.024230,0.019493,0.097747
379,1866818534,-0.004857,-0.621970,-0.171336,-0.764052,0.010983,-0.002389,0.131797
380,1866851868,-0.004058,-0.621844,-0.171732,-0.764070,0.040187,-0.018222,0.139338
381,1866885202,-0.003339,-0.621620,-0.172214,-0.764147,-0.013337,-0.047312,0.139191
382,1866918536,-0.002751,-0.621375,-0.172759,-0.764225,-0.018340,-0.029437,0.082670
383,1866951870,-0.002252,-0.621176,-0.173263,-0.764275,-0.029241,-0.011487,0.095134
384,1866985204,-0.001708,-0.621068,-0.173657,-0.764275,-0.031033,0.015420,0.075691
385,1867018538,-0.001110,-0.621033,-0.173970,-0.764233,-0.031496,0.013197,0.087729
386,1867051872,-0.000498,-0.621025,-0.174222,-0.764183,-0.012586,-0.005754,0.090178
387,1867085206,0.000109,-0.621053,-0.174452,-0.764108,0.005368,-0.020451,0.073407
388,1867118540,0.000670,-0.621094,-0.174646,-0.764030,0.015360,-0.063530,0.104478
389,1867151874,0.001116,-0.621144,-0.174797,-0.763954,-0.008515,-0.055103,0.111099
390,1867185208,0.001356,-0.621192,-0.174846,-0.763903,0.022058,-0.088506,0.102149
391,1867218542,0.001320,-0.621253,-0.174701,-0.763887,0.011716,-0.067684,0.075647
392,1867251876,0.001143,-0.621297,-0.174433,-0.763913,0.002377,-0.017380,0.126043
393,1867285210,0.000891,-0.621355,-0.174184,-0.763923,-0.059977,-0.015506,0.062794
394,1867318544,0.000613,-0.621453,-0.173825,-0.763925,-0.018587,0.029317,0.066112
395,1867351878,0.000618,-0.621545,-0.173759,-0.763865,-0.059084,0.046073,0.084317
396,1867385212,0.001043,-0.621619,-0.174136,-0.763718,0.027196,0.018359,0.096661
397,1867418546,0.001344,-0.621655,-0.174326,-0.763645,0.061855,-0.055911,0.115269
398,1867451880,0.001362,-0.621629,-0.174205,-0.763694,0.008050,-0.072862,0.162210
399,1867485214,0.001143,-0.621546,-0.173838,-0.763846,0.005265,-0.072021,0.142749
400,1867518548,0.000670,-0.621445,-0.173272,-0.764057,-0.059530,-0.061215,0.119079
401,1867551882,0.000049,-0.621364,-0.172588,-0.764278,-0.056703,-0.032538,0.067924
402,1867585216,-0.000543,-0.621346,-0.171976,-0.764430,-0.094615,0.003756,0.065538
403,1867618550,-0.000902,-0.621429,-0.171377,-0.764497,-0.041704,-0.022067,0.064137
404,1867651884,-0.001193,-0.621602,-0.170594,-0.764532,-0.052169,-0.051044,0.099844
405,1867685218,-0.001547,-0.621797,-0.169743,-0.764561,-0.071185,-0.048404,0.091541
406,1867718552,-0.001965,-0.622003,-0.168969,-0.764564,-0.051973,-0.061425,0.094718
407,1867751886,-0.002492,-0.622259,-0.168054,-0.764556,-0.066356,-0.071735,0.081948
408,1867785220,-0.003065,-0.622563,-0.167072,-0.764522,-0.085235,-0.048421,0.092813
409,1867818554,-0.003625,-0.622912,-0.166143,-0.764437,-0.053958,-0.010634,0.085036
410,1867851888,-0.004118,-0.623296,-0.165270,-0.764311,-0.043101,0.000455,0.053946
411,1867885222,-0.004518,-0.623743,-0.164459,-0.764119,-0.019118,0.004965,0.084765
412,1867918556,-0.004886,-0.624219,-0.163649,-0.763902,-0.032684,-0.010041,0.056822
413,1867951890,-0.005282,-0.624770,-0.162757,-0.763640,0.073685,-0.013015,0.111440
414,1867985224,-0.005792,-0.625221,-0.161838,-0.763462,0.059959,-0.011973,0.086299
415,1868018558,-0.006202,-0.625544,-0.161164,-0.763336,0.113013,-0.038105,0.109676
416,1868051892,-0.006708,-0.625700,-0.160418,-0.763362,0.081113,-0.095843,0.092393
417,1868085226,-0.007530,-0.625806,-0.159412,-0.763478,0.020186,-0.075733,0.127893
418,1868118560,-0.008576,-0.625887,-0.158262,-0.763640,0.006862,-0.078634,0.132711
419,1868151894,-0.009778,-0.625894,-0.157091,-0.763862,0.043265,-0.009003,0.177068
420,1868185228,-0.010965,-0.625668,-0.156188,-0.764216,0.019659,0.060659,0.092312
421,1868218562,-0.012028,-0.625251,-0.155875,-0.764605,0.008738,0.085391,0.031994
422,1868251896,-0.012897,-0.624871,-0.155600,-0.764957,-0.050915,0.049001,0.014321
423,1868285230,-0.013688,-0.624691,-0.154859,-0.765240,-0.036173,0.089543,0.036387
424,1868318564,-0.014232,-0.624543,-0.154291,-0.765466,-0.036504,0.063436,0.000886
425,1868351898,-0.014487,-0.624219,-0.154573,-0.765669,0.021767,-0.092912,0.136994
426,1868385232,-0.014959,-0.623620,-0.155296,-0.766001,0.032883,-0.210059,0.195747
427,1868418566,-0.016046,-0.622749,-0.155904,-0.766564,-0.011633,-0.218579,0.215036
428,1868451900,-0.017576,-0.621707,-0.156316,-0.767293,0.089383,-0.110076,0.402267
429,1868485234,-0.018904,-0.619879,-0.157594,-0.768478,0.184541,0.261314,0.385876
430,1868518568,-0.019098,-0.617182,-0.161295,-0.769875,0.145984,0.233683,0.326700
431,1868551902,-0.018525,-0.614044,-0.165974,-0.771401,0.169475,0.151410,0.107575
432,1868585236,-0.017935,-0.611083,-0.169566,-0.772984,-0.001762,0.052583,-0.023637
433,1868618570,-0.017968,-0.608720,-0.170971,-0.774537,-0.264721,-0.043278,-0.174829
434,1868651904,-0.018063,-0.607342,-0.170765,-0.775661,-0.331026,-0.070985,-0.256111
435,1868685238,-0.017930,-0.607070,-0.169109,-0.776239,-0.334170,-0.240323,-0.207264
436,1868718572,-0.018257,-0.607797,-0.165654,-0.776408,-0.423516,-0.314783,-0.127753
437,1868751906,-0.018983,-0.609252,-0.161139,-0.776200,-0.329591,-0.229001,-0.011957
438,1868785240,-0.019814,-0.610984,-0.156711,-0.775724,-0.207719,-0.262584,0.082447
439,1868818574,-0.020777,-0.612543,-0.153016,-0.775207,-0.125854,-0.167045,0.306353
440,1868851908,-0.021513,-0.613452,-0.151119,-0.774841,0.014385,-0.009513,0.389397
441,1868885242,-0.021734,-0.613473,-0.151646,-0.774715,0.056018,-0.040686,0.240921
442,1868918576,-0.021528,-0.612830,-0.153568,-0.774851,0.118055,0.002884,0.063195
443,1868951910,-0.020845,-0.611897,-0.155729,-0.775176,0.011684,-0.013895,-0.078423
444,1868985244,-0.019574,-0.611144,-0.157485,-0.775448,-0.102023,-0.063128,-0.096315
445,1869018578,-0.017787,-0.610907,-0.158656,-0.775439,-0.152886,-0.162751,-0.040357
446,1869051912,-0.016024,-0.611239,-0.158922,-0.775161,-0.106162,-0.294756,-0.036846
447,1869085246,-0.014786,-0.611980,-0.158202,-0.774748,-0.033068,-0.350722,-0.035941
448,1869118580,-0.014006,-0.612831,-0.157108,-0.774313,0.088159,-0.441355,0.034456
449,1869151914,-0.013455,-0.613530,-0.156321,-0.773928,0.131283,-0.412131,0.104199
450,1869185248,-0.013071,-0.613912,-0.156223,-0.773651,0.121037,-0.423839,0.215158
451,1869218582,-0.013298,-0.614077,-0.156313,-0.773498,0.156075,-0.420170,0.266269
452,1869251916,-0.014684,-0.614020,-0.155905,-0.773601,0.110567,-0.345943,0.223956
453,1869285250,-0.016853,-0.613860,-0.155008,-0.773863,0.067485,-0.196248,0.133054
454,1869318584,-0.019119,-0.613635,-0.153845,-0.774222,0.023798,-0.064599,0.019577
455,1869351918,-0.021204,-0.613451,-0.152394,-0.774600,-0.049213,0.027175,0.056322
456,1869385252,-0.022756,-0.613244,-0.151188,-0.774956,-0.104854,0.130423,0.017012
457,1869418586,-0.023580,-0.612911,-0.150939,-0.775243,-0.231572,0.123593,-0.028014
458,1869451920,-0.023740,-0.612571,-0.151715,-0.775356,-0.315399,0.155001,-0.033948
459,1869485254,-0.023087,-0.612409,-0.153525,-0.775148,-0.452919,0.224070,-0.009270
460,1869518588,-0.021954,-0.612814,-0.155972,-0.774371,-0.378562,0.157805,-0.167387
461,1869551922,-0.020378,-0.614097,-0.157575,-0.773072,-0.215210,0.123346,0.110177
462,1869585256,-0.018065,-0.615994,-0.157942,-0.771544,0.046432,0.230716,0.115710
463,1869618590,-0.015725,-0.618089,-0.158045,-0.769897,0.359273,-0.001021,0.085295
464,1869651924,-0.013933,-0.619673,-0.157128,-0.768845,0.592525,-0.145694,0.393821
465,1869685258,-0.012815,-0.619897,-0.155636,-0.768987,0.380021,0.012343,0.717174
466,1869718592,-0.011980,-0.618740,-0.155827,-0.769894,-0.038845,0.034471,0.513669
467,1869751926,-0.011371,-0.616850,-0.156994,-0.771181,-0.134293,0.053111,0.336118
468,1869785260,-0.010784,-0.614815,-0.157817,-0.772645,-0.392011,0.217105,0.033726
469,1869818594,-0.009609,-0.613257,-0.158987,-0.773658,-0.550227,0.241499,-0.277838
470,1869851928,-0.007371,-0.612460,-0.160563,-0.773989,-0.545170,0.215046,-0.279342
471,1869885262,-0.003840,-0.612413,-0.162243,-0.773701,-0.570814,0.241950,-0.229644
472,1869918596,0.001219,-0.613084,-0.164844,-0.772628,-0.400021,0.196302,-0.143175
473,1869951930,0.007209,-0.614168,-0.168245,-0.770999,-0.153717,0.017767,0.072619
474,1869985264,0.012916,-0.615166,-0.171168,-0.769484,0.026615,-0.087212,0.234746
475,1870018598,0.018087,-0.615680,-0.174085,-0.768314,0.199298,-0.104491,0.338739
476,1870051932,0.022946,-0.615388,-0.177696,-0.767591,0.374654,-0.106569,0.419566
477,1870085266,0.026772,-0.614485,-0.180344,-0.767573,0.305729,-0.145834,0.292124
478,1870118600,0.029700,-0.613456,-0.181513,-0.768013,0.095001,-0.035690,0.104125
479,1870151934,0.032758,-0.612483,-0.182842,-0.768350,-0.052444,0.073132,0.063425
480,1870185268,0.036277,-0.611664,-0.184897,-0.768352,-0.132829,-0.010972,0.063308
481,1870218602,0.039638,-0.611123,-0.186669,-0.768188,-0.079815,0.025247,0.058141
482,1870251936,0.042821,-0.610825,-0.187981,-0.767934,-0.016395,0.107706,0.057558
483,1870285270,0.045952,-0.610762,-0.189352,-0.767466,0.009635,0.142714,0.058553
484,1870318604,0.048882,-0.611060,-0.190501,-0.766764,0.013505,0.048088,-0.007418
485,1870351938,0.051424,-0.611928,-0.190772,-0.765837,0.062968,-0.034774,-0.022277
486,1870385272,0.053573,-0.613242,-0.190458,-0.764716,0.195815,-0.078254,0.016222
487,1870418606,0.055263,-0.614743,-0.189806,-0.763552,0.164639,-0.171256,0.046088
488,1870451940,0.056299,-0.616402,-0.188662,-0.762421,0.111205,-0.167997,0.043791
489,1870485274,0.056986,-0.618139,-0.187386,-0.761278,0.120684,-0.007505,-0.008472
490,1870518608,0.057732,-0.619771,-0.186663,-0.760071,0.099387,-0.069628,0.088812
491,1870551942,0.058295,-0.621307,-0.186100,-0.758912,0.041953,-0.029280,0.103518
492,1870585276,0.058640,-0.622772,-0.185531,-0.757823,0.013388,0.101618,0.111543
493,1870618610,0.059026,-0.624028,-0.185152,-0.756852,0.006501,0.150276,0.166305
494,1870651944,0.059668,-0.624954,-0.185246,-0.756014,-0.024891,0.224161,0.152810
495,1870685278,0.060633,-0.625564,-0.185840,-0.755287,-0.006558,0.279273,0.186433
496,1870718612,0.062115,-0.625790,-0.187124,-0.754662,0.099956,0.441647,0.183559
497,1870751946,0.064367,-0.625478,-0.189269,-0.754196,0.153642,0.440070,0.153706
498,1870785280,0.067168,-0.624777,-0.191921,-0.753863,0.159090,0.335395,0.165161
499,1870818614,0.070482,-0.623921,-0.194853,-0.753517,0.230685,0.297844,0.230414
500,1870851948,0.074204,-0.622947,-0.198210,-0.753090,0.316796,0.040306,0.171226
501,1870885282,0.077357,-0.621956,-0.201296,-0.752773,0.415758,-0.139929,0.138901
502,1870918616,0.079250,-0.621148,-0.203536,-0.752641,0.421899,-0.227917,0.058111
503,1870951950,0.079925,-0.620560,-0.204836,-0.752702,0.480517,-0.244460,0.030658
504,1870985284,0.079430,-0.620070,-0.205235,-0.753050,0.423329,-0.219918,-0.031099
505,1871018618,0.077839,-0.619812,-0.204325,-0.753675,0.344041,0.093905,0.100410
506,1871051952,0.075869,-0.619604,-0.202577,-0.754518,0.269209,0.437248,0.165390
507,1871085286,0.074552,-0.619135,-0.201416,-0.755345,0.179841,0.552978,0.182086
508,1871118620,0.073875,-0.618475,-0.201398,-0.755957,-0.010462,0.348692,-0.002488
509,1871151954,0.073361,-0.618190,-0.202001,-0.756079,0.120222,0.173334,-0.062128
510,1871185288,0.072981,-0.618198,-0.202946,-0.755856,0.404744,0.126765,0.257773
511,1871218622,0.072350,-0.617611,-0.203795,-0.756168,0.766146,0.083738,0.738764
512,1871251956,0.070447,-0.615190,-0.204347,-0.758170,0.603023,0.433910,0.759686
513,1871285290,0.067775,-0.611171,-0.206308,-0.761127,-0.162888,0.476039,0.230305
514,1871318624,0.065811,-0.607039,-0.210759,-0.763384,-0.346670,0.582585,0.113607
515,1871351958,0.064982,-0.603349,-0.214608,-0.765305,0.200737,0.717126,0.299990
516,1871385292,0.064503,-0.599438,-0.215141,-0.768264,0.554342,0.978170,0.303498
517,1871418626,0.063288,-0.595588,-0.212741,-0.772018,0.216932,0.647307,0.125114
518,1871451960,0.061042,-0.591695,-0.209239,-0.776139,-0.433978,-0.096001,-0.220968
519,1871485294,0.057633,-0.588716,-0.204453,-0.779930,-1.405456,-0.196004,-0.461196
520,1871518628,0.056732,-0.586364,-0.203748,-0.781950,-1.339970,-0.215291,-0.453201
521,1871551962,0.059132,-0.584954,-0.208064,-0.781692,-0.901418,-0.285264,-0.731299
522,1871585296,0.063549,-0.585974,-0.212862,-0.779286,-0.476058,-0.703747,-1.054308
523,1871618630,0.067564,-0.589680,-0.214609,-0.775665,0.138118,-0.894894,-0.630456
524,1871651964,0.070683,-0.594178,-0.212934,-0.772410,0.715406,-0.470819,-0.124320
525,1871685298,0.074549,-0.597678,-0.211263,-0.769800,0.808978,-0.137059,0.380486
526,1871718632,0.077950,-0.599791,-0.209879,-0.768197,0.706246,-0.056310,0.737421
527,1871751966,0.078974,-0.600775,-0.207640,-0.767932,0.441967,-0.144838,0.938222
528,1871785300,0.077170,-0.600714,-0.204659,-0.768962,0.277406,-0.336052,0.810197
529,1871818634,0.073759,-0.599674,-0.201917,-0.770831,0.111478,-0.362266,0.428801
530,1871851968,0.070426,-0.597922,-0.200428,-0.772890,-0.021659,-0.427049,0.073339
531,1871885302,0.067944,-0.595845,-0.200464,-0.774705,-0.247190,-0.527674,-0.094456
532,1871918636,0.065701,-0.594191,-0.200955,-0.776040,-0.328319,-0.569530,-0.153251
533,1871951970,0.062777,-0.593385,-0.200557,-0.777002,-0.277578,-0.478728,-0.139703
534,1871985304,0.058966,-0.593397,-0.198801,-0.777741,-0.174662,-0.295259,-0.041735
535,1872018638,0.054699,-0.593836,-0.196000,-0.778429,-0.180577,-0.197719,0.037695
536,1872051972,0.050600,-0.594201,-0.193013,-0.779174,-0.376653,-0.138253,0.241205
537,1872085306,0.047397,-0.593977,-0.191626,-0.779888,-0.786376,0.086519,0.201132
538,1872118640,0.045985,-0.593899,-0.193729,-0.779512,-0.895476,0.033561,-0.024518
539,1872151974,0.045702,-0.595266,-0.196419,-0.777811,-0.288389,-0.180845,-0.125196
540,1872185308,0.044460,-0.598187,-0.194671,-0.776080,0.286685,-0.378160,0.020722
541,1872218642,0.041595,-0.601463,-0.188312,-0.775275,0.277590,-0.095646,-0.034855
542,1872251976,0.039142,-0.603651,-0.182230,-0.775156,0.080273,0.032304,0.047476
543,1872285310,0.038770,-0.604395,-0.180680,-0.774958,-0.353778,-0.112294,0.078950
544,1872318644,0.039775,-0.604404,-0.182980,-0.774360,-0.239041,-0.288699,0.273956
545,1872351978,0.040406,-0.604208,-0.186306,-0.773686,-0.050893,-0.400974,0.137720
546,1872385312,0.039836,-0.604323,-0.188532,-0.773087,0.049098,-0.461782,-0.038451
547,1872418646,0.038281,-0.604927,-0.188993,-0.772580,-0.057669,-0.435970,-0.070271
548,1872451980,0.036711,-0.605822,-0.188660,-0.772037,-0.093783,-0.267878,0.062367
549,1872485314,0.035554,-0.606683,-0.188789,-0.771383,-0.099186,-0.166609,0.197260
550,1872518648,0.034711,-0.607428,-0.189659,-0.770621,-0.085573,-0.179674,0.409887
551,1872551982,0.033603,-0.608143,-0.190560,-0.769884,-0.066478,-0.207450,0.183280
552,1872585316,0.031973,-0.609115,-0.191304,-0.768999,-0.078795,-0.197463,-0.034019
553,1872618650,0.029973,-0.610558,-0.191347,-0.767924,-0.004008,-0.205020,-0.075506
554,1872651984,0.027750,-0.612455,-0.190250,-0.766769,-0.001302,-0.194473,-0.026812
555,1872685318,0.025562,-0.614489,-0.188738,-0.765591,0.008586,-0.051739,0.049191
556,1872718652,0.023504,-0.616265,-0.187858,-0.764444,0.008533,-0.018650,0.141222
557,1872751986,0.021633,-0.617695,-0.187789,-0.763362,-0.063648,0.051922,0.186033
558,1872785320,0.020233,-0.618982,-0.188474,-0.762188,-0.064159,0.105359,0.103146
559,1872818654,0.019099,-0.620449,-0.189075,-0.760875,-0.011967,0.067752,0.033534
560,1872851988,0.018089,-0.622270,-0.189016,-0.759425,0.030616,0.124187,0.046145
561,1872885322,0.017312,-0.624284,-0.188305,-0.757965,0.115125,0.082285,0.069345
562,1872918656,0.016612,-0.626249,-0.187103,-0.756657,0.180087,0.013011,0.129745
563,1872951990,0.015813,-0.627872,-0.185586,-0.755702,0.193220,0.017020,0.206274
564,1872985324,0.015027,-0.629144,-0.184000,-0.755048,0.141712,-0.018730,0.382022
565,1873018658,0.014044,-0.630127,-0.181969,-0.754739,0.074132,-0.074224,0.404763
566,1873051992,0.012267,-0.630982,-0.179177,-0.754723,-0.029758,-0.052709,0.324925
567,1873085326,0.009847,-0.631776,-0.176014,-0.754839,-0.074761,0.017771,0.172734
568,1873118660,0.007236,-0.632457,-0.172901,-0.755018,-0.112374,0.062716,-0.008397
569,1873151994,0.005108,-0.633025,-0.170340,-0.755141,-0.102509,0.118574,-0.035716
570,1873185328,0.003945,-0.633414,-0.168554,-0.755223,-0.116265,0.122455,0.061804
571,1873218662,0.003800,-0.633580,-0.167707,-0.755273,-0.071525,0.136553,0.111011
572,1873251996,0.004274,-0.633514,-0.167704,-0.755326,-0.019371,0.116079,0.150890
573,1873285330,0.004779,-0.633210,-0.167921,-0.755530,0.010750,0.092766,0.153082
574,1873318664,0.005145,-0.632718,-0.167836,-0.755959,0.007349,0.098672,0.163067
575,1873351998,0.005530,-0.632103,-0.167400,-0.756567,-0.053228,0.103582,0.125568
576,1873385332,0.006099,-0.631400,-0.166971,-0.757244,-0.148406,0.089782,0.063240
577,1873418666,0.006977,-0.630705,-0.167101,-0.757787,-0.180799,0.054488,0.004250
578,1873452000,0.008208,-0.630145,-0.167790,-0.758088,-0.195587,0.007011,0.011864
579,1873485334,0.009677,-0.629730,-0.168789,-0.758193,-0.173184,-0.017971,0.002008
580,1873518668,0.011330,-0.629489,-0.170151,-0.758067,-0.096381,-0.021749,0.082349
581,1873552002,0.012939,-0.629268,-0.171667,-0.757883,-0.036664,0.025495,0.056652
582,1873585336,0.014758,-0.628971,-0.173557,-0.757665,0.064055,0.063113,0.122268
583,1873618670,0.016904,-0.628559,-0.175602,-0.757491,0.116981,-0.001169,0.085518
584,1873652004,0.018730,-0.628106,-0.177095,-0.757476,0.137259,-0.047628,0.122179
585,1873685338,0.020073,-0.627629,-0.177922,-0.757643,0.070678,-0.084596,0.153967
586,1873718672,0.020990,-0.627179,-0.178323,-0.757897,0.006078,-0.122152,0.125771
587,1873752006,0.021574,-0.626800,-0.178612,-0.758126,-0.036425,-0.098605,0.087399
588,1873785340,0.022007,-0.626504,-0.179058,-0.758253,-0.081508,-0.048556,0.031496
589,1873818674,0.022622,-0.626346,-0.179883,-0.758170,-0.037563,-0.017009,0.047564
590,1873852008,0.023411,-0.626325,-0.180687,-0.757972,-0.019442,-0.004134,0.059016
591,1873885342,0.024210,-0.626426,-0.181303,-0.757716,0.001819,0.002974,0.086029
592,1873918676,0.024995,-0.626564,-0.181747,-0.757471,0.020406,-0.021002,0.153016
593,1873952010,0.025689,-0.626696,-0.182026,-0.757271,0.038405,-0.004480,0.096131
594,1873985344,0.026445,-0.626819,-0.182441,-0.757043,0.053992,0.003030,0.076029
595,1874018678,0.027374,-0.626918,-0.183245,-0.756734,0.054171,-0.073691,0.112875
596,1874052012,0.028088,-0.626943,-0.183852,-0.756539,0.047568,-0.123493,0.129704
597,1874085346,0.028276,-0.626952,-0.183813,-0.756535,0.004333,-0.072559,0.089132
598,1874118680,0.028256,-0.627024,-0.183619,-0.756523,0.006728,-0.057974,0.129204
599,1874152014,0.028042,-0.627123,-0.183144,-0.756565,0.022620,-0.020686,0.071339
600,1874185348,0.027959,-0.627242,-0.182876,-0.756534,0.025312,0.014660,0.092562
601,1874218682,0.028115,-0.627329,-0.182799,-0.756475,0.034557,-0.031942,0.056381
602,1874252016,0.028213,-0.627414,-0.182588,-0.756451,0.047487,-0.048864,0.103335
603,1874285350,0.028194,-0.627461,-0.182264,-0.756491,0.033528,-0.074718,0.135107
604,1874318684,0.028073,-0.627446,-0.182027,-0.756565,0.033428,-0.048949,0.120678
605,1874352018,0.027860,-0.627370,-0.181854,-0.756677,0.016446,-0.034722,0.106562
606,1874385352,0.027602,-0.627282,-0.181615,-0.756817,0.006345,-0.037986,0.068021
607,1874418686,0.027460,-0.627218,-0.181365,-0.756936,0.000312,-0.017518,0.102591
608,1874452020,0.027315,-0.627176,-0.181034,-0.757055,-0.018774,-0.032496,0.073946
609,1874485354,0.027106,-0.627169,-0.180687,-0.757151,-0.016752,-0.040759,0.086787
610,1874518688,0.026949,-0.627149,-0.180473,-0.757224,-0.028664,-0.029071,0.081725
611,1874552022,0.026916,-0.627125,-0.180475,-0.757244,-0.001988,-0.002453,0.083573
612,1874585356,0.027360,-0.626824,-0.181009,-0.757350,0.079164,0.161159,0.162375
613,1874618690,0.028899,-0.625952,-0.182647,-0.757621,0.142252,0.238287,0.193295
614,1874652024,0.031725,-0.624306,-0.185430,-0.758190,0.235058,0.246129,0.166323
615,1874685358,0.035609,-0.622183,-0.189004,-0.758880,0.126136,0.126913,0.111549
616,1874718692,0.039848,-0.619788,-0.192280,-0.759805,0.269036,0.194445,0.190099
617,1874752026,0.045407,-0.616865,-0.196515,-0.760788,0.093215,0.310402,0.137698
618,1874785360,0.052107,-0.613549,-0.202261,-0.761534,0.181458,0.004401,0.157832
619,1874818694,0.059012,-0.609661,-0.208307,-0.762523,0.502131,0.296413,0.316881
620,1874852028,0.064704,-0.605384,-0.213463,-0.764040,0.264905,-0.151754,0.162407
621,1874885362,0.070506,-0.600705,-0.219230,-0.765585,0.256862,-0.300164,0.252599
622,1874918696,0.076193,-0.596246,-0.224873,-0.766889,0.136599,-0.377353,0.146340
623,1874952030,0.081304,-0.592661,-0.228786,-0.767985,-0.206471,-0.243719,-0.114304
624,1874985364,0.086614,-0.590326,-0.232557,-0.768070,-0.296231,0.102918,-0.094958
625,1875018698,0.093039,-0.588500,-0.237380,-0.767244,-0.599531,0.155791,-0.168487
626,1875052032,0.099167,-0.587063,-0.242283,-0.766044,-0.595615,-0.224995,-0.084907
627,1875085366,0.103410,-0.586275,-0.246020,-0.764894,-0.514026,-0.749795,0.023884
628,1875118700,0.104189,-0.586583,-0.245796,-0.764624,-0.595535,-0.570765,-0.201920
629,1875152034,0.103690,-0.587989,-0.243751,-0.764267,-0.995069,0.082131,-0.623345
630,1875185368,0.104158,-0.590500,-0.242355,-0.762710,-0.449659,-0.314009,-0.239278
631,1875218702,0.104170,-0.592897,-0.241957,-0.760973,0.627880,-0.428221,0.525132
632,1875252036,0.103559,-0.593647,-0.242960,-0.760151,1.132525,-0.153140,0.791741
633,1875285370,0.101833,-0.593313,-0.243875,-0.760352,0.840046,-0.239561,0.456727
634,1875318704,0.097546,-0.593848,-0.241513,-0.761250,0.052252,-0.179184,-0.116142
635,1875352038,0.091966,-0.595665,-0.235976,-0.762261,-0.633183,-0.173529,-0.270232
636,1875385372,0.085492,-0.597162,-0.228354,-0.764162,-0.206064,-0.304067,0.227592
637,1875418706,0.080355,-0.597660,-0.223256,-0.765835,-0.144777,-0.013093,0.116147
638,1875452040,0.075198,-0.598225,-0.219606,-0.766972,-0.072050,0.062373,0.080310
639,1875485374,0.069171,-0.598266,-0.215752,-0.768600,0.405777,0.263248,0.356991
640,1875518708,0.064209,-0.597759,-0.212750,-0.770260,0.103126,0.170347,-0.008779
641,1875552042,0.058975,-0.597444,-0.208365,-0.772118,-0.108491,-0.077212,0.009564
642,1875585376,0.051752,-0.597419,-0.200347,-0.774773,0.347306,-0.170442,0.448786
643,1875618710,0.044394,-0.597082,-0.192911,-0.777373,0.176686,0.156921,0.150769
644,1875652044,0.037590,-0.596451,-0.186537,-0.779768,0.099009,-0.086342,0.154762
645,1875685378,0.030447,-0.595736,-0.180376,-0.782072,-0.002026,-0.244183,0.107349
646,1875718712,0.023562,-0.595179,-0.175409,-0.783862,0.009398,-0.087997,-0.001125
647,1875752046,0.017387,-0.594827,-0.171646,-0.785122,0.115229,-0.099226,0.143106
648,1875785380,0.011849,-0.594601,-0.168591,-0.786058,-0.059821,0.108502,0.079103
649,1875818714,0.006533,-0.594029,-0.165439,-0.787222,0.199110,0.233966,0.185906
650,1875852048,0.002443,-0.593306,-0.163453,-0.788204,-0.005452,0.273087,-0.011113
651,1875885382,-0.000389,-0.592683,-0.162452,-0.788883,-0.005143,0.209903,0.046356
652,1875918716,-0.001409,-0.592194,-0.163183,-0.789098,0.035832,0.238796,0.008951
653,1875952050,0.000154,-0.592223,-0.167109,-0.788256,-0.161661,0.161678,-0.012392
654,1875985384,0.003602,-0.592172,-0.172996,-0.787015,0.083456,0.251534,0.044456
655,1876018718,0.008272,-0.592450,-0.179628,-0.785282,0.107580,0.257584,0.024038
656,1876052052,0.013598,-0.593445,-0.186344,-0.782889,-0.052210,0.112684,-0.027334
657,1876085386,0.018728,-0.595113,-0.191714,-0.780216,0.132655,0.045533,0.106132
658,1876118720,0.023723,-0.597322,-0.195893,-0.777349,0.273665,0.289740,0.055350
659,1876152054,0.029494,-0.599821,-0.199814,-0.774222,-0.150562,-0.350239,0.134187
660,1876185388,0.033105,-0.602397,-0.199851,-0.772064,-0.021712,-0.266231,0.221707
661,1876218722,0.035782,-0.604841,-0.199057,-0.770237,-0.065967,-0.067509,0.088291
662,1876252056,0.037964,-0.607107,-0.198168,-0.768577,0.091820,-0.195701,0.290371
663,1876285390,0.038650,-0.608956,-0.196367,-0.767542,0.229179,-0.477873,0.334300
664,1876318724,0.037976,-0.610663,-0.193839,-0.766861,0.017730,-0.159850,0.069963
665,1876352058,0.037370,-0.612312,-0.191498,-0.766163,-0.259411,0.059064,-0.030005
666,1876385392,0.036493,-0.614177,-0.188998,-0.765333,-0.376392,-0.013656,-0.085010
667,1876418726,0.035912,-0.616327,-0.186888,-0.764149,-0.267813,0.063098,0.031359
668,1876452060,0.035461,-0.618182,-0.185562,-0.762995,-0.072501,0.079698,0.146976
669,1876485394,0.035426,-0.619345,-0.185755,-0.762005,0.224712,0.042279,0.247757
670,1876518728,0.035538,-0.619643,-0.186622,-0.761546,0.427524,0.018014,0.286788
671,1876552062,0.035289,-0.619245,-0.186979,-0.761794,0.367254,-0.048593,0.227015
672,1876585396,0.034436,-0.618538,-0.186294,-0.762575,0.203741,-0.065494,0.163548
673,1876618730,0.033373,-0.617717,-0.185302,-0.763528,-0.006300,-0.032009,0.079447
674,1876652064,0.032494,-0.616975,-0.184660,-0.764322,-0.139465,-0.037506,0.036537
675,1876685398,0.031810,-0.616410,-0.184454,-0.764856,-0.178356,-0.067266,0.000808
676,1876718732,0.031209,-0.616095,-0.184509,-0.765121,-0.258797,-0.065569,-0.061493
677,1876752066,0.030723,-0.616125,-0.184650,-0.765083,-0.157600,0.030090,-0.005354
678,1876785400,0.030650,-0.616315,-0.185061,-0.764833,-0.097854,0.072498,0.049541
679,1876818734,0.030950,-0.616591,-0.185665,-0.764452,0.013685,0.074956,0.094997
680,1876852068,0.031505,-0.616798,-0.186199,-0.764133,0.063929,0.040079,0.103351
681,1876885402,0.032119,-0.616897,-0.186549,-0.763941,0.072702,-0.015024,0.156098
682,1876918736,0.032664,-0.616816,-0.186768,-0.763931,0.049596,-0.032528,0.143925
683,1876952070,0.033020,-0.616633,-0.186997,-0.764007,0.001375,-0.124916,0.116571
684,1876985404,0.033117,-0.616422,-0.187144,-0.764137,-0.018780,-0.111752,0.091621
685,1877018738,0.033046,-0.616255,-0.187312,-0.764233,-0.083246,-0.081367,0.063975
686,1877052072,0.032994,-0.616246,-0.187542,-0.764187,-0.063843,-0.058597,0.058175
687,1877085406,0.032980,-0.616375,-0.187622,-0.764064,-0.016554,-0.007821,0.069327
688,1877118740,0.033034,-0.616553,-0.187663,-0.763907,-0.000869,0.020868,0.093177
689,1877152074,0.033269,-0.616689,-0.187933,-0.763721,0.016703,0.022378,0.093012
690,1877185408,0.033650,-0.616774,-0.188291,-0.763548,0.040013,-0.019900,0.104023
691,1877218742,0.034065,-0.616823,-0.188573,-0.763420,0.042013,-0.050761,0.135433
692,1877252076,0.034359,-0.616840,-0.188737,-0.763353,0.068069,-0.046577,0.100386
693,1877285410,0.034521,-0.616815,-0.188957,-0.763311,0.031195,-0.070381,0.085043
694,1877318744,0.034668,-0.616757,-0.189268,-0.763274,0.017351,-0.067722,0.131498
695,1877352078,0.034739,-0.616667,-0.189535,-0.763277,0.017339,-0.032598,0.080760
696,1877385412,0.034831,-0.616631,-0.189868,-0.763219,-0.001744,-0.035848,0.111564
697,1877418746,0.034898,-0.616581,-0.190054,-0.763210,0.023352,0.032770,0.087240
698,1877452080,0.035154,-0.616516,-0.190489,-0.763143,0.020229,0.016215,0.070987
699,1877485414,0.035623,-0.616429,-0.190978,-0.763069,0.074687,-0.016319,0.095475
700,1877518748,0.035920,-0.616379,-0.191097,-0.763066,0.045767,-0.058936,0.106813
701,1877552082,0.036088,-0.616308,-0.191095,-0.763116,0.023054,-0.060038,0.114532
702,1877585416,0.036204,-0.616174,-0.191259,-0.763177,0.022591,-0.063803,0.087585
703,1877618750,0.036192,-0.616044,-0.191408,-0.763245,0.021676,-0.068102,0.101620
704,1877652084,0.036077,-0.615925,-0.191404,-0.763348,0.010163,-0.027186,0.080467
705,1877685418,0.036001,-0.615865,-0.191393,-0.763403,0.004180,-0.017243,0.080668
706,1877718752,0.035993,-0.615845,-0.191285,-0.763447,0.010818,-0.013456,0.082532
707,1877752086,0.035982,-0.615852,-0.191104,-0.763486,-0.001892,-0.034051,0.083971
708,1877785420,0.035960,-0.615855,-0.190934,-0.763527,-0.002704,-0.032248,0.084958
709,1877818754,0.035960,-0.615862,-0.190841,-0.763546,-0.002055,-0.050580,0.088989
710,1877852088,0.035929,-0.615871,-0.190749,-0.763563,-0.000510,-0.057188,0.082648
711,1877885422,0.035865,-0.615916,-0.190615,-0.763563,-0.005360,-0.049193,0.075301
712,1877918756,0.035700,-0.615999,-0.190312,-0.763579,0.031316,-0.030665,0.092980
713,1877952090,0.035514,-0.616065,-0.189888,-0.763640,0.013815,0.000078,0.101383
714,1877985424,0.035452,-0.616113,-0.189437,-0.763716,-0.001943,0.006552,0.105383
715,1878018758,0.035474,-0.616132,-0.188926,-0.763827,-0.011078,0.006655,0.060128
716,1878052092,0.035561,-0.616146,-0.188436,-0.763932,-0.028467,-0.003556,0.104377
717,1878085426,0.035743,-0.616155,-0.187982,-0.764028,-0.034199,-0.007931,0.060808
718,1878118760,0.036093,-0.616204,-0.187745,-0.764030,-0.017078,-0.011327,0.050225
719,1878152094,0.036515,-0.616324,-0.187505,-0.763973,0.036875,-0.042722,0.063961
720,1878185428,0.036814,-0.616491,-0.186897,-0.763972,0.041492,-0.038882,0.119960
721,1878218762,0.037202,-0.616621,-0.186081,-0.764048,0.015107,-0.011645,0.080852
722,1878252096,0.037714,-0.616743,-0.185482,-0.764070,0.034204,0.008211,0.090492
723,1878285430,0.038244,-0.616855,-0.184893,-0.764096,0.045659,-0.007131,0.111915
724,1878318764,0.038894,-0.616897,-0.184350,-0.764161,0.016183,-0.009532,0.101936
725,1878352098,0.039654,-0.616993,-0.184177,-0.764086,0.080775,-0.028753,0.161219
726,1878385432,0.040246,-0.616879,-0.184772,-0.764003,0.032941,-0.178926,0.185410
727,1878418766,0.040304,-0.616645,-0.185277,-0.764067,0.096785,-0.098491,0.139130
728,1878452100,0.040450,-0.616458,-0.185400,-0.764180,-0.025818,-0.139752,-0.051608
729,1878485434,0.040385,-0.616524,-0.185215,-0.764175,-0.049455,-0.117138,0.045860
730,1878518768,0.039797,-0.616706,-0.185460,-0.764000,-0.093705,-0.173068,0.153279
731,1878552102,0.038686,-0.616873,-0.186472,-0.763675,-0.072613,-0.289870,0.163891
732,1878585436,0.036945,-0.616986,-0.187728,-0.763363,0.045522,-0.237961,0.091410
733,1878618770,0.034906,-0.617061,-0.188764,-0.763142,0.097602,-0.078080,0.016537
734,1878652104,0.032872,-0.617225,-0.189126,-0.763011,0.127829,0.064368,0.061357
735,1878685438,0.031109,-0.617353,-0.188702,-0.763086,0.113082,0.266167,0.092892
736,1878718772,0.030166,-0.617436,-0.188113,-0.763202,0.019152,0.345558,0.123080
737,1878752106,0.030238,-0.617446,-0.187544,-0.763331,0.000609,0.315451,0.028854
738,1878785440,0.031394,-0.617419,-0.187503,-0.763316,-0.092557,0.139590,-0.005259
739,1878818774,0.033256,-0.617501,-0.187888,-0.763076,-0.066327,-0.040140,0.006743
740,1878852108,0.034922,-0.617750,-0.188027,-0.762766,-0.068779,-0.179512,0.065285
741,1878885442,0.035989,-0.618096,-0.187919,-0.762463,-0.050165,-0.212255,0.132753
742,1878918776,0.036544,-0.618416,-0.187996,-0.762158,0.024485,-0.206016,0.166376
743,1878952110,0.036518,-0.618585,-0.188236,-0.761963,0.050386,-0.181354,0.172961
744,1878985444,0.035978,-0.618632,-0.188415,-0.761906,0.080732,-0.093810,0.121188
745,1879018778,0.035220,-0.618614,-0.188439,-0.761950,0.082324,-0.044269,0.116639
746,1879052112,0.034410,-0.618574,-0.188132,-0.762095,0.054126,0.022274,0.124996
747,1879085446,0.033702,-0.618456,-0.187721,-0.762324,0.005704,0.077159,0.143346
748,1879118780,0.033285,-0.618210,-0.187557,-0.762582,-0.011668,0.072005,0.081392
749,1879152114,0.033152,-0.617922,-0.187807,-0.762760,-0.014434,0.009109,0.015069
750,1879185448,0.033077,-0.617700,-0.188247,-0.762835,-0.004219,-0.046733,-0.065823
751,1879218782,0.032919,-0.617605,-0.188757,-0.762792,-0.016126,-0.152353,-0.123999
752,1879252116,0.032603,-0.617672,-0.189419,-0.762588,-0.180345,-0.274305,-0.119390
753,1879285450,0.031870,-0.618233,-0.189979,-0.762024,-0.188817,-0.215658,0.185095
754,1879318784,0.030499,-0.619337,-0.189778,-0.761233,0.021180,-0.109813,0.169508
755,1879352118,0.028600,-0.620662,-0.188998,-0.760422,0.111367,-0.063740,0.075497
756,1879385452,0.026628,-0.621938,-0.188121,-0.759667,0.223937,-0.054187,0.143535
757,1879418786,0.024734,-0.622876,-0.187036,-0.759231,0.420170,-0.030424,0.144613
758,1879452120,0.022730,-0.623307,-0.185791,-0.759246,0.356628,-0.036613,0.286015
759,1879485454,0.020369,-0.623163,-0.184786,-0.759676,0.288722,-0.067930,0.117876
760,1879518788,0.017467,-0.622614,-0.184108,-0.760363,0.220748,-0.195485,0.051127
761,1879552122,0.013926,-0.621920,-0.182995,-0.761272,0.096836,-0.179045,0.187707
762,1879585456,0.010053,-0.621043,-0.181672,-0.762365,-0.002455,-0.067434,0.057274
763,1879618790,0.006409,-0.620064,-0.181593,-0.763220,-0.212323,-0.065780,0.051826
764,1879652124,0.002845,-0.619316,-0.182036,-0.763743,-0.220313,-0.066384,0.224885
765,1879685458,-0.000909,-0.619033,-0.181361,-0.764138,-0.104626,0.053130,0.195518
766,1879718792,-0.004769,-0.618987,-0.179338,-0.764638,-0.082803,0.171394,0.184480
767,1879752126,-0.008178,-0.618804,-0.176991,-0.765304,-0.050535,0.312502,0.260879
768,1879785460,-0.010431,-0.618253,-0.175305,-0.766109,-0.081418,0.322503,0.151431
769,1879818794,-0.011515,-0.617537,-0.174439,-0.766869,-0.227191,0.245442,0.151922
770,1879852128,-0.011815,-0.616865,-0.173714,-0.767569,-0.196861,0.201961,0.058063
771,1879885462,-0.011673,-0.616323,-0.173005,-0.768166,-0.288103,0.132813,0.029199
772,1879918796,-0.010933,-0.615758,-0.172999,-0.768632,-0.281063,0.117319,-0.053125
773,1879952130,-0.009496,-0.615147,-0.174010,-0.768912,-0.262168,0.111368,-0.094135
774,1879985464,-0.007403,-0.614540,-0.175921,-0.768985,-0.249711,0.148490,-0.129645
775,1880018798,-0.004374,-0.614035,-0.178875,-0.768731,-0.215721,0.073172,-0.158090
776,1880052132,-0.000753,-0.613710,-0.182340,-0.768188,-0.005001,0.024491,-0.016716
777,1880085466,0.002958,-0.613255,-0.186047,-0.767657,0.056577,-0.017768,0.087420
778,1880118800,0.006693,-0.612581,-0.190164,-0.767163,0.206474,-0.035871,0.213027
779,1880152134,0.010272,-0.611656,-0.194183,-0.766854,0.238867,-0.128259,0.234873
780,1880185468,0.013209,-0.610539,-0.197392,-0.766880,0.314776,-0.125677,0.201069
781,1880218802,0.015495,-0.609275,-0.199775,-0.767225,0.226702,-0.100905,0.158303
782,1880252136,0.017365,-0.607959,-0.201714,-0.767721,0.107693,-0.117046,0.130480
783,1880285470,0.018887,-0.606964,-0.203262,-0.768065,-0.040339,-0.182535,0.027521
784,1880318804,0.020084,-0.606708,-0.204022,-0.768035,-0.009248,-0.224427,0.007316
785,1880352138,0.020427,-0.607353,-0.203039,-0.767777,0.101249,-0.318552,0.043276
786,1880385472,0.019763,-0.608338,-0.200626,-0.767648,0.092684,-0.180443,0.021691
787,1880418806,0.019153,-0.609249,-0.199035,-0.767355,0.055600,-0.140785,0.141785
788,1880452140,0.018439,-0.609960,-0.197840,-0.767117,0.242296,-0.140742,0.306566
789,1880485474,0.016996,-0.610345,-0.195926,-0.767336,0.134534,0.000581,0.114636
790,1880518808,0.015469,-0.610456,-0.194789,-0.767569,-0.035736,0.073947,-0.133586
791,1880552142,0.014604,-0.610777,-0.194566,-0.767388,-0.084813,-0.010520,-0.111146
792,1880585476,0.014211,-0.611749,-0.193475,-0.766896,-0.034899,-0.055058,0.013520
793,1880618810,0.013900,-0.613153,-0.191524,-0.766270,0.027909,-0.036217,0.116334
794,1880652144,0.013498,-0.614410,-0.190031,-0.765642,0.176185,-0.006762,0.178797
795,1880685478,0.012905,-0.615136,-0.189479,-0.765206,0.230956,-0.082628,0.153152
796,1880718812,0.012241,-0.615342,-0.189444,-0.765059,0.256729,-0.165918,0.158845
797,1880752146,0.011173,-0.615161,-0.189381,-0.765237,0.085510,-0.145345,0.172904
798,1880785480,0.009661,-0.614829,-0.189479,-0.765500,-0.020589,-0.068730,0.163159
799,1880818814,0.007856,-0.614612,-0.189307,-0.765738,-0.067272,0.005666,0.070290
800,1880852148,0.006033,-0.614685,-0.188609,-0.765868,-0.110128,0.082860,0.010555
801,1880885482,0.004698,-0.615026,-0.187624,-0.765845,-0.090992,0.168417,0.090326
802,1880918816,0.004009,-0.615343,-0.186750,-0.765808,0.011645,0.232658,0.101236
803,1880952150,0.004003,-0.615251,-0.186664,-0.765903,0.032116,0.213195,0.131791
804,1880985484,0.004662,-0.614732,-0.187578,-0.766093,-0.039282,0.160970,0.143002
805,1881018818,0.005723,-0.614094,-0.188786,-0.766300,-0.080027,0.020224,0.094285
806,1881052152,0.006722,-0.613790,-0.189205,-0.766433,-0.124095,-0.100797,0.093734
807,1881085486,0.007339,-0.614142,-0.188457,-0.766329,-0.219990,-0.140344,0.173020
808,1881118820,0.007249,-0.615277,-0.186145,-0.765985,0.089067,-0.137569,0.311229
809,1881152154,0.006115,-0.616409,-0.181965,-0.766089,0.248950,-0.066681,0.151137
810,1881185488,0.004789,-0.616599,-0.178467,-0.766768,0.118317,0.163313,0.013741
811,1881218822,0.004679,-0.615665,-0.178400,-0.767535,-0.205720,0.157057,-0.189599
812,1881252156,0.006182,-0.614713,-0.181190,-0.767633,-0.391111,-0.016610,-0.168036
813,1881285490,0.007803,-0.614736,-0.183535,-0.767043,-0.426452,-0.110367,-0.163400
814,1881318824,0.008540,-0.616156,-0.184122,-0.765754,-0.302825,-0.222070,-0.280454
815,1881352158,0.008821,-0.618487,-0.183584,-0.763999,-0.028745,-0.219355,-0.179541
816,1881385492,0.009250,-0.620638,-0.183243,-0.762329,0.041558,-0.033397,0.098337
817,1881418826,0.010560,-0.622019,-0.185413,-0.760660,0.206705,-0.024541,0.115891
818,1881452160,0.012543,-0.622370,-0.189436,-0.759350,0.496436,0.068586,0.584310
819,1881485494,0.014256,-0.621356,-0.193997,-0.758999,0.161048,0.252851,0.244886
820,1881518828,0.016410,-0.619523,-0.200627,-0.758730,0.070952,0.170805,-0.213031
821,1881552162,0.019768,-0.617889,-0.207611,-0.758104,0.002553,0.082891,-0.121957
822,1881585496,0.023308,-0.617336,-0.211943,-0.757254,-0.071264,-0.132152,0.142323
823,1881618830,0.025887,-0.618011,-0.212278,-0.756526,-0.028673,-0.095974,0.548992
824,1881652164,0.027412,-0.619045,-0.209854,-0.756302,0.138756,-0.070978,0.497512
825,1881685498,0.028539,-0.619539,-0.207802,-0.756423,0.114048,0.044942,0.240377
826,1881718832,0.030754,-0.619097,-0.208537,-0.756495,0.273361,0.053342,0.396711
827,1881752166,0.033061,-0.617852,-0.210100,-0.756984,0.168224,-0.036621,0.565969
828,1881785500,0.034596,-0.616219,-0.211283,-0.757917,0.074287,0.195560,0.267080
829,1881818834,0.035607,-0.614622,-0.212188,-0.758913,-0.066771,0.208759,-0.132237
830,1881852168,0.036670,-0.613639,-0.211981,-0.759715,-0.083887,0.133107,-0.171384
831,1881885502,0.038439,-0.613334,-0.210196,-0.760369,-0.337903,0.139738,-0.295227
832,1881918836,0.042095,-0.613625,-0.209191,-0.760218,-0.505055,0.063987,-0.287449
833,1881952170,0.046979,-0.614676,-0.209430,-0.759017,-0.435325,-0.335500,-0.279800
834,1881985504,0.051062,-0.616998,-0.208536,-0.757113,-0.233266,-0.592895,-0.292184
835,1882018838,0.053326,-0.620876,-0.205320,-0.754661,0.000008,-0.823929,-0.175461
836,1882052172,0.053342,-0.625884,-0.199893,-0.751976,0.224112,-0.945662,0.057169
837,1882085506,0.051339,-0.631269,-0.193597,-0.749257,0.497409,-0.857647,0.198540
838,1882118840,0.047411,-0.636366,-0.187308,-0.746798,0.565868,-0.873973,0.416104
839,1882152174,0.041311,-0.640802,-0.180873,-0.744951,0.716680,-0.811841,0.495665
840,1882185508,0.032545,-0.644153,-0.173896,-0.744156,0.791294,-0.642723,0.540211
841,1882218842,0.021323,-0.646308,-0.165523,-0.744603,0.496268,-0.234656,0.391317
842,1882252176,0.009208,-0.647631,-0.156854,-0.745578,0.141659,-0.120573,0.334839
843,1882285510,-0.002709,-0.648204,-0.149050,-0.746732,-0.100268,0.179111,0.262436
844,1882318844,-0.013381,-0.647936,-0.143681,-0.747901,-0.213507,0.326587,0.185963
845,1882352178,-0.022818,-0.646835,-0.140217,-0.749283,-0.289717,0.572422,0.213730
846,1882385512,-0.030517,-0.644788,-0.138217,-0.751142,-0.381556,1.008655,0.193100
847,1882418846,-0.034897,-0.642091,-0.139396,-0.753042,-0.607621,1.148011,0.033333
848,1882452180,-0.035402,-0.639419,-0.143789,-0.754464,-0.691796,1.017012,-0.163337
849,1882485514,-0.032679,-0.637326,-0.149536,-0.755240,-0.758313,0.808488,-0.402485
850,1882518848,-0.026758,-0.636440,-0.155941,-0.754925,-0.639624,0.696629,-0.546285
851,1882552182,-0.018203,-0.636987,-0.162542,-0.753324,-0.534621,0.260292,-0.382895
852,1882585516,-0.009332,-0.638708,-0.167221,-0.751001,-0.361644,-0.137987,-0.037398
853,1882618850,-0.002143,-0.641048,-0.168438,-0.748787,-0.130387,-0.188368,0.204484
854,1882652184,0.003933,-0.643452,-0.168166,-0.746776,0.073119,-0.067102,0.292901
855,1882685518,0.009757,-0.645424,-0.168808,-0.744874,0.345087,-0.078345,0.365404
856,1882718852,0.015362,-0.646478,-0.171089,-0.743343,0.576927,-0.253498,0.561347
857,1882752186,0.019922,-0.646285,-0.173917,-0.742746,0.724769,-0.310747,0.434895
858,1882785520,0.022802,-0.645263,-0.176115,-0.743035,0.528860,-0.393303,0.238330
859,1882818854,0.023913,-0.644015,-0.176932,-0.743888,0.285226,-0.467207,0.177075
860,1882852188,0.023463,-0.642891,-0.176288,-0.745026,0.078613,-0.354098,0.091090
861,1882885522,0.022404,-0.641925,-0.175220,-0.746144,-0.034290,-0.123778,0.065465
862,1882918856,0.021466,-0.641116,-0.174558,-0.747020,-0.093001,-0.007149,0.075960
863,1882952190,0.020873,-0.640424,-0.174515,-0.747641,-0.108590,0.065751,0.027475
864,1882985524,0.020744,-0.639840,-0.174908,-0.748052,-0.083970,0.098080,0.011066
865,1883018858,0.021180,-0.639401,-0.175431,-0.748293,-0.100570,0.107118,-0.045162
866,1883052192,0.022123,-0.639226,-0.175807,-0.748328,-0.051648,0.060448,0.007833
867,1883085526,0.023541,-0.639182,-0.176176,-0.748234,-0.042107,0.022469,0.031702
868,1883118860,0.025527,-0.639051,-0.177228,-0.748033,-0.023047,-0.060800,0.058489
869,1883152194,0.027780,-0.638702,-0.179066,-0.747813,0.020213,-0.178918,0.049965
870,1883185528,0.029792,-0.638201,-0.181221,-0.747644,0.043595,-0.185805,0.119700
871,1883218862,0.031455,-0.637605,-0.183343,-0.747567,0.018999,-0.170617,0.142487
872,1883252196,0.032841,-0.636907,-0.185575,-0.747552,-0.004720,-0.131513,0.122846
873,1883285530,0.034052,-0.636200,-0.187734,-0.747560,0.019723,-0.060878,0.123446
874,1883318864,0.035154,-0.635524,-0.189603,-0.747613,0.006103,-0.011442,0.077767
875,1883352198,0.036342,-0.634934,-0.191256,-0.747636,-0.037245,0.020531,0.068769
876,1883385532,0.037889,-0.634446,-0.192940,-0.747541,-0.027702,0.032096,0.068382
877,1883418866,0.039710,-0.634102,-0.194569,-0.747316,0.002852,-0.025828,0.087314
878,1883452200,0.041613,-0.633869,-0.196049,-0.747024,0.060764,-0.048736,0.105747
879,1883485534,0.043627,-0.633610,-0.197590,-0.746723,0.123886,-0.069261,0.118199
880,1883518868,0.045570,-0.633254,-0.199169,-0.746489,0.182342,-0.129492,0.137254
881,1883552202,0.047185,-0.632807,-0.200394,-0.746439,0.223235,-0.149678,0.139066
882,1883585536,0.048321,-0.632312,-0.201163,-0.746580,0.206252,-0.162187,0.132502
883,1883618870,0.048946,-0.631826,-0.201520,-0.746854,0.207498,-0.169209,0.122947
884,1883652204,0.049044,-0.631328,-0.201470,-0.747282,0.164693,-0.178447,0.106902
885,1883685538,0.048732,-0.630903,-0.201224,-0.747728,0.078072,-0.179789,0.089880
886,1883718872,0.048110,-0.630576,-0.200672,-0.748192,0.083510,-0.093263,0.077268
887,1883752206,0.047377,-0.630320,-0.200059,-0.748618,0.038537,-0.052415,0.085041
888,1883785540,0.046685,-0.630130,-0.199385,-0.749002,0.062335,-0.044361,0.055870
889,1883818874,0.045844,-0.630037,-0.198354,-0.749406,0.006199,-0.040001,0.086965
890,1883852208,0.044989,-0.629978,-0.197349,-0.749772,-0.059321,-0.022704,0.049635
891,1883885542,0.044298,-0.629908,-0.196723,-0.750037,-0.065362,-0.040144,0.041975
892,1883918876,0.043682,-0.629892,-0.196217,-0.750219,-0.077215,-0.047079,0.066445
893,1883952210,0.043183,-0.629878,-0.195949,-0.750329,-0.079576,-0.017252,0.032111
894,1883985544,0.042960,-0.629849,-0.196179,-0.750306,-0.046987,-0.005603,0.109797
895,1884018878,0.042858,-0.629830,-0.196332,-0.750288,-0.004021,-0.009326,0.109818
896,1884052212,0.042646,-0.629830,-0.196205,-0.750333,-0.012464,0.005933,0.102359
897,1884085546,0.042396,-0.629824,-0.195912,-0.750429,-0.045997,0.000541,0.120415
898,1884118880,0.042241,-0.629813,-0.195624,-0.750522,-0.051313,0.004169,0.115750
899,1884152214,0.042167,-0.629784,-0.195495,-0.750584,-0.084027,0.001483,0.071507
900,1884185548,0.042254,-0.629736,-0.195616,-0.750588,-0.080098,-0.008891,0.082075
901,1884218882,0.042454,-0.629726,-0.195732,-0.750555,-0.079343,0.007090,0.132359
902,1884252216,0.042792,-0.629704,-0.195901,-0.750510,-0.031463,0.032491,0.121128
903,1884285550,0.043335,-0.629637,-0.196393,-0.750406,-0.032484,0.012243,0.085599
904,1884318884,0.044039,-0.629511,-0.196950,-0.750326,0.020016,0.004625,0.152493
905,1884352218,0.044758,-0.629336,-0.197390,-0.750314,-0.025533,-0.042373,0.111589
906,1884385552,0.045308,-0.629170,-0.197685,-0.750343,0.025844,-0.044233,0.115971
907,1884418886,0.045733,-0.628972,-0.198036,-0.750390,-0.046267,-0.055582,0.075212
908,1884452220,0.046317,-0.628792,-0.198499,-0.750382,-0.000928,-0.055334,0.094588
909,1884485554,0.046825,-0.628637,-0.198753,-0.750414,0.013181,-0.046996,0.091525
910,1884518888,0.047257,-0.628455,-0.199034,-0.750465,-0.036040,-0.052509,0.097443
911,1884552222,0.047659,-0.628253,-0.199359,-0.750522,0.008633,-0.052110,0.110729
912,1884585556,0.048022,-0.628062,-0.199563,-0.750605,-0.027102,-0.048603,0.109035
913,1884618890,0.048431,-0.627867,-0.199860,-0.750662,-0.004125,-0.030953,0.049555
914,1884652224,0.048912,-0.627657,-0.200334,-0.750681,-0.014425,-0.033377,0.075491
915,1884685558,0.049398,-0.627522,-0.200676,-0.750671,0.001022,-0.070162,0.090263
916,1884718892,0.049734,-0.627463,-0.200818,-0.750659,-0.016219,-0.069952,0.089350
917,1884752226,0.049894,-0.627423,-0.200905,-0.750659,0.007817,-0.067632,0.093823
918,1884785560,0.049994,-0.627375,-0.201040,-0.750656,-0.010759,-0.064728,0.085253
919,1884818894,0.050160,-0.627363,-0.201177,-0.750619,0.000973,-0.058378,0.086683
920,1884852228,0.050367,-0.627351,-0.201297,-0.750583,0.009762,-0.058229,0.127231
921,1884885562,0.050439,-0.627316,-0.201338,-0.750597,0.031543,-0.054598,0.110640
922,1884918896,0.050371,-0.627258,-0.201289,-0.750662,0.035996,-0.067383,0.107481
923,1884952230,0.050213,-0.627210,-0.201092,-0.750765,0.012623,-0.053964,0.082975
924,1884985564,0.050081,-0.627198,-0.200812,-0.750860,0.016988,-0.073139,0.102839
925,1885018898,0.049857,-0.627189,-0.200400,-0.750993,0.019697,-0.058348,0.130246
926,1885052232,0.049619,-0.627151,-0.200089,-0.751123,-0.023941,-0.074637,0.115171
927,1885085566,0.049275,-0.627105,-0.199657,-0.751299,0.021172,-0.047799,0.089766
928,1885118900,0.048904,-0.627063,-0.199295,-0.751454,-0.032108,-0.028643,0.075936
929,1885152234,0.048802,-0.626993,-0.199178,-0.751550,0.015298,-0.032769,0.091175
930,1885185568,0.048669,-0.626907,-0.198982,-0.751682,-0.022372,-0.050445,0.076994
931,1885218902,0.048573,-0.626796,-0.198993,-0.751778,-0.028628,-0.036954,0.079120
932,1885252236,0.048578,-0.626686,-0.199185,-0.751819,0.002160,-0.026368,0.098031
933,1885285570,0.048674,-0.626607,-0.199264,-0.751858,0.014443,-0.009666,0.128925
934,1885318904,0.048798,-0.626518,-0.199290,-0.751917,0.041055,-0.022172,0.098480
935,1885352238,0.048776,-0.626412,-0.199238,-0.752020,0.047300,-0.048470,0.093695
936,1885385572,0.048537,-0.626374,-0.198796,-0.752183,0.036352,-0.069167,0.097229
937,1885418906,0.048186,-0.626392,-0.198219,-0.752344,0.009335,-0.041200,0.072816
938,1885452240,0.047883,-0.626425,-0.197856,-0.752431,-0.011602,-0.043237,0.077707
939,1885485574,0.047610,-0.626487,-0.197617,-0.752460,0.031055,-0.026352,0.065599
940,1885518908,0.047487,-0.626514,-0.197512,-0.752473,0.046591,0.001824,0.095897
941,1885552242,0.047583,-0.626431,-0.197545,-0.752527,0.103880,0.013093,0.122976
942,1885585576,0.047632,-0.626267,-0.197447,-0.752686,0.113635,-0.028884,0.122905
943,1885618910,0.047459,-0.626110,-0.197038,-0.752934,0.072127,-0.039488,0.118506
944,1885652244,0.047109,-0.625969,-0.196452,-0.753227,0.009096,-0.055103,0.089915
945,1885685578,0.046676,-0.625886,-0.195829,-0.753486,-0.044475,-0.080072,0.083493
946,1885718912,0.046265,-0.625906,-0.195207,-0.753655,-0.073528,-0.059118,0.037256
947,1885752246,0.045973,-0.626066,-0.194819,-0.753641,-0.094955,-0.067024,0.084318
948,1885785580,0.045688,-0.626278,-0.194458,-0.753575,-0.046288,-0.003082,0.049349
949,1885818914,0.045703,-0.626483,-0.194520,-0.753388,-0.046039,0.017434,0.086285
950,1885852248,0.046055,-0.626632,-0.194723,-0.753190,0.032852,-0.027598,0.118999
951,1885885582,0.046350,-0.626695,-0.194775,-0.753106,0.011290,-0.036674,0.119743
952,1885918916,0.046650,-0.626622,-0.194994,-0.753091,-0.027879,-0.078136,0.102879
953,1885952250,0.046911,-0.626526,-0.195193,-0.753104,-0.017664,-0.074715,0.083358
954,1885985584,0.047224,-0.626463,-0.195404,-0.753082,-0.048014,-0.042279,0.097688
955,1886018918,0.047657,-0.626391,-0.195844,-0.753000,-0.024851,-0.011777,0.073831
956,1886052252,0.048274,-0.626299,-0.196563,-0.752850,0.022278,-0.020908,0.089504
957,1886085586,0.048987,-0.626262,-0.197045,-0.752708,0.042301,-0.064253,0.111116
958,1886118920,0.049585,-0.626341,-0.197097,-0.752590,0.021428,-0.113572,0.163123
959,1886152254,0.049807,-0.626504,-0.196942,-0.752480,0.021779,-0.155545,0.096392
960,1886185588,0.049563,-0.626775,-0.196652,-0.752346,0.049169,-0.146341,0.023103
961,1886218922,0.049305,-0.627128,-0.196252,-0.752174,0.010505,-0.111414,0.011168
962,1886252256,0.049232,-0.627503,-0.195969,-0.751939,0.022474,-0.086062,0.040955
963,1886285590,0.049245,-0.627841,-0.195921,-0.751669,0.012897,-0.084847,0.134888
964,1886318924,0.049186,-0.628146,-0.195864,-0.751433,0.035911,-0.028667,0.134708
965,1886352258,0.049251,-0.628338,-0.196007,-0.751231,0.039883,0.014219,0.118199
966,1886385592,0.049514,-0.628453,-0.196153,-0.751079,0.069701,-0.024461,0.128646
967,1886418926,0.049863,-0.628487,-0.196178,-0.751021,0.061622,-0.024984,0.103300
968,1886452260,0.050141,-0.628483,-0.196302,-0.750973,0.022894,-0.102943,0.133772
969,1886485594,0.050190,-0.628434,-0.196300,-0.751012,0.042508,-0.088074,0.079609
970,1886518928,0.050220,-0.628408,-0.196391,-0.751008,-0.004511,-0.067099,0.085311
971,1886552262,0.050338,-0.628395,-0.196524,-0.750975,0.055670,-0.036961,0.091475
972,1886585596,0.050425,-0.628362,-0.196551,-0.750991,0.043188,-0.013491,0.117934
973,1886618930,0.050614,-0.628210,-0.196686,-0.751070,0.033117,-0.025458,0.142552
974,1886652264,0.050855,-0.627974,-0.196891,-0.751197,0.045341,-0.043677,0.107829
975,1886685598,0.051071,-0.627728,-0.197009,-0.751357,0.028924,-0.044315,0.105556
976,1886718932,0.051272,-0.627500,-0.197085,-0.751514,0.012537,-0.043368,0.067489
977,1886752266,0.051462,-0.627322,-0.197218,-0.751615,0.003523,-0.080996,0.105089
978,1886785600,0.051612,-0.627206,-0.197243,-0.751694,0.020472,-0.074135,0.076649
979,1886818934,0.051720,-0.627105,-0.197210,-0.751780,0.011114,-0.063215,0.085395
980,1886852268,0.051783,-0.627018,-0.197198,-0.751852,0.028742,-0.062000,0.115211
981,1886885602,0.051797,-0.626939,-0.197142,-0.751931,0.017049,-0.063338,0.084435
982,1886918936,0.051824,-0.626880,-0.197116,-0.751986,0.031795,-0.055133,0.100784
983,1886952270,0.051881,-0.626840,-0.197111,-0.752016,0.027008,-0.072837,0.095825
984,1886985604,0.051832,-0.626835,-0.197012,-0.752050,0.052666,-0.065484,0.093613
985,1887018938,0.051710,-0.626857,-0.196818,-0.752090,0.053454,-0.066622,0.086030
986,1887052272,0.051526,-0.626875,-0.196587,-0.752148,0.029291,-0.070872,0.095430
987,1887085606,0.051216,-0.626957,-0.196268,-0.752185,0.030007,-0.070458,0.112369
988,1887118940,0.050762,-0.627076,-0.195835,-0.752229,0.021322,-0.059485,0.083358
989,1887152274,0.050315,-0.627278,-0.195545,-0.752166,-0.011432,-0.064715,0.102118
990,1887185608,0.049897,-0.627500,-0.195195,-0.752099,0.025452,-0.011293,0.059542
991,1887218942,0.049621,-0.627735,-0.195093,-0.751949,0.018410,-0.008699,0.103617
992,1887252276,0.049487,-0.627933,-0.195014,-0.751812,0.070250,-0.032973,0.088762
993,1887285610,0.049213,-0.628164,-0.194672,-0.751725,0.049216,-0.062450,0.089992
994,1887318944,0.048858,-0.628403,-0.194240,-0.751661,0.014343,-0.078502,0.135602
995,1887352278,0.048343,-0.628639,-0.193666,-0.751645,0.049819,-0.017785,0.152280
996,1887385612,0.047879,-0.628852,-0.193133,-0.751634,0.036103,-0.058590,0.083026
997,1887418946,0.047472,-0.629028,-0.192775,-0.751604,0.048849,-0.091966,0.029884
998,1887452280,0.047109,-0.629241,-0.192471,-0.751527,0.037617,-0.103233,0.065936
999,1887485614,0.046731,-0.629570,-0.191968,-0.751403,0.058842,-0.146883,0.094253
1000,1887518948,0.046053,-0.629929,-0.191258,-0.751325,0.066702,-0.140584,0.103004
1001,1887552282,0.045117,-0.630219,-0.190498,-0.751333,0.089736,-0.061368,0.141551
1002,1887585616,0.044129,-0.630435,-0.189685,-0.751416,0.056247,-0.039329,0.137139
1003,1887618950,0.043246,-0.630595,-0.188847,-0.751543,0.014366,-0.000847,0.098389
1004,1887652284,0.042503,-0.630737,-0.188098,-0.751654,-0.011694,0.002908,0.098822
1005,1887685618,0.041929,-0.630890,-0.187425,-0.751727,-0.015410,-0.012435,0.077053
1006,1887718952,0.041402,-0.631068,-0.186865,-0.751746,-0.021295,-0.022239,0.072338
1007,1887752286,0.041119,-0.631201,-0.186598,-0.751716,-0.004773,-0.031563,0.074428
1008,1887785620,0.040696,-0.631358,-0.186218,-0.751701,-0.012404,-0.057985,0.131326
1009,1887818954,0.040118,-0.631518,-0.185645,-0.751739,-0.030495,-0.026685,0.092362
1010,1887852288,0.039581,-0.631701,-0.185215,-0.751720,-0.065083,-0.016931,0.096032
1011,1887885622,0.039368,-0.631854,-0.185018,-0.751651,-0.046856,0.040867,0.054109
1012,1887918956,0.039563,-0.632010,-0.185259,-0.751450,-0.027496,0.071158,0.110970
1013,1887952290,0.040403,-0.632007,-0.185988,-0.751228,0.060653,0.032115,0.114588
1014,1887985624,0.041215,-0.631915,-0.186582,-0.751115,0.052141,-0.017670,0.117438
1015,1888018958,0.041874,-0.631792,-0.186926,-0.751096,0.054905,-0.093284,0.130130
1016,1888052292,0.042391,-0.631669,-0.187114,-0.751124,0.045480,-0.104339,0.096294
1017,1888085626,0.042638,-0.631609,-0.187233,-0.751131,0.052642,-0.092280,0.082047
1018,1888118960,0.042793,-0.631555,-0.187301,-0.751150,0.037098,-0.050111,0.079559
1019,1888152294,0.042965,-0.631569,-0.187309,-0.751126,0.050461,-0.018246,0.124951
1020,1888185628,0.043021,-0.631641,-0.187085,-0.751119,0.072854,-0.034520,0.081527
1021,1888218962,0.043071,-0.631699,-0.186877,-0.751119,0.056600,-0.048705,0.066077
1022,1888252296,0.043181,-0.631722,-0.186801,-0.751112,0.039817,-0.060462,0.092103
1023,1888285630,0.043263,-0.631733,-0.186751,-0.751111,0.032259,-0.082941,0.096335
1024,1888318964,0.043271,-0.631744,-0.186725,-0.751107,0.018351,-0.084374,0.098471
1025,1888352298,0.043197,-0.631785,-0.186614,-0.751104,0.001534,-0.046575,0.099858
1026,1888385632,0.043109,-0.631825,-0.186485,-0.751107,-0.012979,-0.019990,0.088513
1027,1888418966,0.043120,-0.631841,-0.186499,-0.751090,-0.007793,-0.006457,0.080348
1028,1888452300,0.043319,-0.631831,-0.186755,-0.751023,-0.008738,-0.013820,0.101342
1029,1888485634,0.043674,-0.631782,-0.187129,-0.750952,-0.016120,-0.002949,0.074650
1030,1888518968,0.044220,-0.631772,-0.187705,-0.750784,-0.024721,-0.048579,0.097473
1031,1888552302,0.044685,-0.631790,-0.188099,-0.750643,0.043398,-0.048517,0.090330
1032,1888585636,0.045159,-0.631787,-0.188622,-0.750485,0.028084,-0.033533,0.118735
1033,1888618970,0.045685,-0.631679,-0.189191,-0.750401,0.124276,-0.063293,0.127361
1034,1888652304,0.045905,-0.631535,-0.189394,-0.750458,0.077021,-0.086560,0.123290
1035,1888685638,0.045959,-0.631317,-0.189475,-0.750618,0.009972,-0.091453,0.110538
1036,1888718972,0.045903,-0.631107,-0.189552,-0.750778,-0.003551,-0.076391,0.123254
1037,1888752306,0.045805,-0.630946,-0.189592,-0.750910,-0.044832,-0.051247,0.092875
1038,1888785640,0.045825,-0.630792,-0.189763,-0.750994,-0.043594,-0.023004,0.034715
1039,1888818974,0.046108,-0.630633,-0.190298,-0.750975,-0.031579,-0.006808,0.096580
1040,1888852308,0.046598,-0.630491,-0.190810,-0.750934,0.003469,-0.027806,0.112268
1041,1888885642,0.046944,-0.630419,-0.190960,-0.750935,0.024357,-0.064611,0.107412
1042,1888918976,0.047050,-0.630396,-0.190864,-0.750972,0.026205,-0.087442,0.103898
1043,1888952310,0.047039,-0.630356,-0.190721,-0.751042,0.000946,-0.104483,0.097496
1044,1888985644,0.046916,-0.630351,-0.190510,-0.751108,-0.012331,-0.075331,0.102717
1045,1889018978,0.046801,-0.630334,-0.190376,-0.751163,-0.012763,-0.041807,0.096123
1046,1889052312,0.046760,-0.630284,-0.190393,-0.751203,0.022671,-0.031689,0.092306
1047,1889085646,0.046805,-0.630162,-0.190471,-0.751283,0.001883,0.001446,0.098659
1048,1889118980,0.046964,-0.630008,-0.190574,-0.751376,-0.014666,-0.032338,0.104735
1049,1889152314,0.047077,-0.629866,-0.190560,-0.751492,-0.021424,-0.051327,0.088547
1050,1889185648,0.047146,-0.629798,-0.190586,-0.751538,-0.065147,-0.077435,0.097243
1051,1889218982,0.047174,-0.629777,-0.190630,-0.751543,-0.025669,-0.063558,0.052290
1052,1889252316,0.047263,-0.629777,-0.190902,-0.751468,-0.004989,-0.033504,0.097140
1053,1889285650,0.047510,-0.629746,-0.191270,-0.751385,0.070734,-0.026974,0.105842
1054,1889318984,0.047664,-0.629674,-0.191401,-0.751402,0.074514,-0.034794,0.134817
1055,1889352318,0.047715,-0.629471,-0.191477,-0.751549,0.028721,-0.070555,0.124970
1056,1889385652,0.047682,-0.629203,-0.191581,-0.751749,0.023835,-0.081368,0.107871
1057,1889418986,0.047574,-0.628956,-0.191612,-0.751956,-0.013368,-0.078766,0.085752
1058,1889452320,0.047455,-0.628766,-0.191624,-0.752119,-0.026505,-0.039649,0.049373
1059,1889485654,0.047467,-0.628673,-0.191699,-0.752176,0.000491,-0.064103,0.097896
1060,1889518988,0.047570,-0.628634,-0.191583,-0.752232,0.032484,-0.074454,0.112603
1061,1889552322,0.047480,-0.628606,-0.191329,-0.752325,0.027630,-0.063877,0.135697
1062,1889585656,0.047319,-0.628519,-0.191175,-0.752448,-0.019177,-0.074211,0.091389
1063,1889618990,0.047325,-0.628427,-0.191102,-0.752543,-0.011545,-0.089577,0.082245
1064,1889652324,0.047322,-0.628515,-0.190831,-0.752538,-0.021793,-0.059108,0.064034
1065,1889685658,0.047519,-0.628649,-0.190772,-0.752429,0.032515,-0.067378,0.089454
1066,1889718992,0.047633,-0.628813,-0.190727,-0.752296,0.093851,-0.085387,0.109399
1067,1889752326,0.047573,-0.628954,-0.190465,-0.752248,0.120353,-0.099755,0.145280
1068,1889785660,0.047427,-0.629042,-0.189997,-0.752303,0.085820,-0.131010,0.119781
1069,1889818994,0.046973,-0.629122,-0.189210,-0.752463,0.073023,-0.107032,0.141566
1070,1889852328,0.046317,-0.629229,-0.188252,-0.752654,-0.045716,-0.133504,0.082269
1071,1889885662,0.045673,-0.629454,-0.187223,-0.752761,0.003368,-0.082158,0.096771
1072,1889918996,0.045081,-0.629736,-0.186346,-0.752779,-0.062257,-0.048290,0.020356
1073,1889952330,0.044869,-0.630068,-0.185982,-0.752604,0.008284,-0.059063,0.078035
1074,1889985664,0.044694,-0.630468,-0.185358,-0.752433,0.089638,-0.101537,0.108399
1075,1890018998,0.044390,-0.630781,-0.184456,-0.752410,0.087382,-0.089461,0.144181
1076,1890052332,0.043975,-0.630878,-0.183773,-0.752521,0.092367,-0.116252,0.153640
1077,1890085666,0.043365,-0.630865,-0.183054,-0.752742,0.009129,-0.131587,0.090649
1078,1890119000,0.042738,-0.630881,-0.182351,-0.752936,-0.034773,-0.122548,0.037084
1079,1890152334,0.042205,-0.630976,-0.181862,-0.753004,-0.041641,-0.094065,0.050937
1080,1890185668,0.041816,-0.631137,-0.181441,-0.752992,-0.017421,-0.065414,0.084476
1081,1890219002,0.041522,-0.631316,-0.181104,-0.752940,0.014919,-0.049720,0.079624
1082,1890252336,0.041247,-0.631497,-0.180782,-0.752880,0.019119,-0.059792,0.065534
1083,1890285670,0.040900,-0.631705,-0.180320,-0.752835,-0.012882,-0.092119,0.045331
1084,1890319004,0.040456,-0.632005,-0.179807,-0.752730,-0.041595,-0.121044,-0.000174
1085,1890352338,0.040001,-0.632507,-0.179196,-0.752479,-0.080489,-0.135897,0.077269
1086,1890385672,0.039717,-0.633279,-0.178335,-0.752049,0.036046,-0.098464,0.186144
1087,1890419006,0.039266,-0.634057,-0.177434,-0.751630,0.140121,-0.054713,0.186833
1088,1890452340,0.038650,-0.634601,-0.176711,-0.751373,0.192974,-0.058522,0.148424
1089,1890485674,0.037822,-0.635031,-0.175591,-0.751315,0.128430,-0.115455,0.126022
1090,1890519008,0.036603,-0.635502,-0.174082,-0.751328,-0.023769,-0.170480,0.028332
1091,1890552342,0.035124,-0.636084,-0.172681,-0.751230,-0.001094,-0.123120,0.061817
1092,1890585676,0.033537,-0.636742,-0.171222,-0.751078,-0.045512,-0.000297,0.065874
1093,1890619010,0.032426,-0.637417,-0.170111,-0.750807,0.036885,0.086819,0.115788
1094,1890652344,0.031557,-0.638032,-0.169040,-0.750563,0.078878,0.033728,0.104423
1095,1890685678,0.030587,-0.638568,-0.167858,-0.750413,0.060506,0.002456,0.130042
1096,1890719012,0.029660,-0.639004,-0.166813,-0.750312,0.023160,-0.053109,0.120399
1097,1890752346,0.028795,-0.639361,-0.165975,-0.750228,0.004917,-0.072741,0.118837
1098,1890785680,0.027937,-0.639687,-0.165262,-0.750140,0.029890,-0.041832,0.069386
1099,1890819014,0.027264,-0.639983,-0.164873,-0.749997,0.025146,-0.051580,0.103286
1100,1890852348,0.026388,-0.640321,-0.164273,-0.749872,0.058402,0.003382,0.111613
1101,1890885682,0.025412,-0.640670,-0.163485,-0.749780,0.036555,0.008445,0.105469
1102,1890919016,0.024427,-0.641074,-0.162598,-0.749660,0.013137,0.024410,0.099950
1103,1890952350,0.023474,-0.641489,-0.161769,-0.749514,0.030502,0.017784,0.151983
1104,1890985684,0.022565,-0.641938,-0.160813,-0.749364,-0.036859,0.071623,0.155098
1105,1891019018,0.022270,-0.642376,-0.160134,-0.749143,0.081658,0.109174,0.087446
1106,1891052352,0.021936,-0.642803,-0.159324,-0.748959,0.103625,0.047252,0.076278
1107,1891085686,0.021452,-0.643217,-0.158425,-0.748808,0.093666,-0.030322,0.100846
1108,1891119020,0.020524,-0.643692,-0.157112,-0.748703,0.061560,-0.100949,0.134816
1109,1891152354,0.019377,-0.644093,-0.155658,-0.748693,0.082034,-0.033167,0.117875
1110,1891185688,0.018516,-0.644423,-0.154548,-0.748660,0.016503,0.034454,0.104750
1111,1891219022,0.017314,-0.644906,-0.153103,-0.748570,0.073528,0.037723,0.118320
1112,1891252356,0.016076,-0.645366,-0.151580,-0.748511,0.075284,0.012090,0.139041
1113,1891285690,0.015003,-0.645722,-0.150262,-0.748492,0.068542,0.019737,0.100180
1114,1891319024,0.014238,-0.646009,-0.149202,-0.748471,0.034016,-0.031067,0.087954
1115,1891352358,0.013279,-0.646308,-0.148024,-0.748465,0.006460,-0.045765,0.118086
1116,1891385692,0.012186,-0.646580,-0.146830,-0.748483,0.002958,-0.015720,0.094534
1117,1891419026,0.011111,-0.646807,-0.145820,-0.748502,-0.023343,0.028920,0.095451
1118,1891452360,0.010076,-0.647064,-0.144930,-0.748467,-0.030452,0.027719,0.042202
1119,1891485694,0.009246,-0.647428,-0.144044,-0.748334,0.029260,0.005087,0.084968
1120,1891519028,0.009095,-0.647677,-0.143651,-0.748196,0.038173,-0.060619,0.089233
1121,1891552362,0.008634,-0.647897,-0.143244,-0.748089,0.019334,-0.081598,0.085630
1122,1891585696,0.007724,-0.648134,-0.142639,-0.748009,0.012944,-0.059498,0.113491
1123,1891619030,0.007183,-0.648240,-0.142413,-0.747966,0.017722,-0.022653,0.112361
1124,1891652364,0.006678,-0.648277,-0.142283,-0.747963,0.026634,0.000666,0.150144
1125,1891685698,0.006310,-0.648206,-0.142352,-0.748015,0.021266,-0.072381,0.153026
1126,1891719032,0.005962,-0.648101,-0.142333,-0.748112,-0.020775,0.032353,0.069470
1127,1891752366,0.006002,-0.648035,-0.142618,-0.748115,-0.033598,-0.024412,0.068132
1128,1891785700,0.006153,-0.648037,-0.142820,-0.748073,-0.017030,-0.081335,0.099437
1129,1891819034,0.006224,-0.648136,-0.142913,-0.747969,-0.015363,-0.094870,0.130522
1130,1891852368,0.006018,-0.648271,-0.142720,-0.747890,0.040467,-0.066837,0.119370
1131,1891885702,0.005773,-0.648362,-0.142589,-0.747839,0.001348,0.003278,0.092963
1132,1891919036,0.005754,-0.648508,-0.142578,-0.747714,-0.013175,-0.012984,0.071873
1133,1891952370,0.005942,-0.648680,-0.142632,-0.747553,-0.018582,-0.061114,0.086561
1134,1891985704,0.006022,-0.648865,-0.142662,-0.747386,-0.001983,-0.100437,0.149616
1135,1892019038,0.006073,-0.648980,-0.142731,-0.747273,0.036147,-0.051465,0.157754
1136,1892052372,0.006089,-0.649029,-0.142800,-0.747217,0.025216,-0.006298,0.128183
1137,1892085706,0.006204,-0.649037,-0.142981,-0.747175,0.009737,-0.019249,0.072999
1138,1892119040,0.006443,-0.649061,-0.143318,-0.747087,-0.004363,-0.023175,0.089483
1139,1892152374,0.006695,-0.649105,-0.143570,-0.746998,0.019215,-0.065852,0.113986
1140,1892185708,0.006833,-0.649156,-0.143761,-0.746916,0.025371,-0.060185,0.106098
1141,1892219042,0.006976,-0.649180,-0.144062,-0.746836,0.036969,-0.048392,0.121562
1142,1892252376,0.007086,-0.649155,-0.144320,-0.746807,0.054164,-0.030364,0.129489
1143,1892285710,0.007211,-0.649087,-0.144550,-0.746820,0.031320,-0.037991,0.117474
1144,1892319044,0.007266,-0.649032,-0.144684,-0.746842,0.041536,-0.042404,0.123636
1145,1892352378,0.007208,-0.649000,-0.144691,-0.746868,0.030950,-0.052443,0.078871
1146,1892385712,0.007170,-0.648982,-0.144705,-0.746882,0.026728,-0.043478,0.094456
1147,1892419046,0.007151,-0.648974,-0.144740,-0.746882,-0.006632,-0.030736,0.085532
1148,1892452380,0.007212,-0.649044,-0.144966,-0.746777,-0.042018,-0.062768,0.084995
1149,1892485714,0.007279,-0.649198,-0.145180,-0.746601,-0.004045,-0.053588,0.086845
1150,1892519048,0.007339,-0.649363,-0.145442,-0.746405,0.022554,-0.042322,0.123912
1151,1892552382,0.007504,-0.649504,-0.145711,-0.746229,0.060564,-0.085156,0.115931
1152,1892585716,0.007494,-0.649589,-0.145724,-0.746153,0.078181,-0.070830,0.120546
1153,1892619050,0.007401,-0.649587,-0.145677,-0.746164,0.038003,-0.082454,0.123345
1154,1892652384,0.007322,-0.649509,-0.145719,-0.746224,0.064081,-0.022594,0.113614
1155,1892685718,0.007437,-0.649378,-0.145968,-0.746289,0.051857,-0.017099,0.147296
1156,1892719052,0.007611,-0.649121,-0.146351,-0.746436,0.054657,-0.042667,0.118929
1157,1892752386,0.007747,-0.648852,-0.146818,-0.746577,-0.025848,-0.062672,0.082227
1158,1892785720,0.007887,-0.648716,-0.147015,-0.746655,-0.055129,-0.067345,0.077018
1159,1892819054,0.008038,-0.648691,-0.147206,-0.746637,-0.001274,-0.033242,0.035765
1160,1892852388,0.008222,-0.648674,-0.147674,-0.746557,0.001382,-0.045083,0.068577
1161,1892885722,0.008483,-0.648691,-0.148123,-0.746450,0.026032,-0.053215,0.100167
1162,1892919056,0.008810,-0.648717,-0.148492,-0.746351,0.079148,-0.065866,0.141672
1163,1892952390,0.008968,-0.648659,-0.148796,-0.746339,0.093411,-0.069741,0.136552
1164,1892985724,0.008969,-0.648482,-0.149058,-0.746440,0.050567,-0.045725,0.116938
1165,1893019058,0.009085,-0.648282,-0.149357,-0.746553,0.014085,-0.038378,0.098967
1166,1893052392,0.009257,-0.648089,-0.149685,-0.746652,0.030387,-0.036524,0.099989
1167,1893085726,0.009418,-0.647905,-0.150122,-0.746723,-0.003547,-0.063736,0.069306
1168,1893119060,0.009593,-0.647800,-0.150576,-0.746720,0.035677,-0.067000,0.105036
1169,1893152394,0.009637,-0.647669,-0.150977,-0.746753,0.046818,-0.065151,0.138638
1170,1893185728,0.009745,-0.647494,-0.151337,-0.746829,0.069018,-0.059307,0.138391
1171,1893219062,0.009682,-0.647331,-0.151468,-0.746945,0.041320,-0.093532,0.104239
1172,1893252396,0.009411,-0.647151,-0.151442,-0.747110,-0.000071,-0.099742,0.095459
1173,1893285730,0.009169,-0.646964,-0.151440,-0.747275,-0.027675,-0.061895,0.096992
1174,1893319064,0.009011,-0.646797,-0.151526,-0.747404,-0.027380,-0.050688,0.100393
1175,1893352398,0.008823,-0.646611,-0.151629,-0.747546,-0.016973,-0.031879,0.082453
1176,1893385732,0.008745,-0.646446,-0.151854,-0.747645,-0.041661,-0.029596,0.106502
1177,1893419066,0.008823,-0.646339,-0.151994,-0.747707,0.023188,-0.022630,0.120522
1178,1893452400,0.008972,-0.646205,-0.152153,-0.747790,0.012573,-0.036635,0.120190
1179,1893485734,0.009100,-0.645983,-0.152439,-0.747922,-0.001963,-0.078061,0.120664
1180,1893519068,0.009214,-0.645737,-0.152645,-0.748090,0.023315,-0.079824,0.146080
1181,1893552402,0.009203,-0.645519,-0.152655,-0.748277,-0.037922,-0.084336,0.061382
1182,1893585736,0.009072,-0.645334,-0.152694,-0.748430,-0.049434,-0.050924,0.062114
1183,1893619070,0.009049,-0.645229,-0.152843,-0.748490,-0.063160,-0.025005,0.049292
1184,1893652404,0.009291,-0.645194,-0.153102,-0.748465,-0.043438,0.002583,0.076147
1185,1893685738,0.009830,-0.645184,-0.153565,-0.748371,0.002947,-0.000402,0.130753
1186,1893719072,0.010470,-0.645086,-0.154106,-0.748336,0.033756,-0.034503,0.103116
1187,1893752406,0.011049,-0.644976,-0.154581,-0.748324,0.056528,-0.073721,0.170468
1188,1893785740,0.011360,-0.644836,-0.154708,-0.748414,0.034335,-0.082687,0.092975
1189,1893819074,0.011668,-0.644707,-0.154933,-0.748474,0.024114,-0.063240,0.104968
1190,1893852408,0.011975,-0.644595,-0.155088,-0.748534,0.042435,-0.083853,0.101396
1191,1893885742,0.012163,-0.644489,-0.155147,-0.748609,0.026008,-0.055521,0.092566
1192,1893919076,0.012401,-0.644377,-0.155276,-0.748675,0.034580,-0.060338,0.117208
1193,1893952410,0.012655,-0.644249,-0.155385,-0.748758,0.042328,-0.055888,0.111762
1194,1893985744,0.012910,-0.644105,-0.155518,-0.748851,0.062753,-0.046052,0.091358
1195,1894019078,0.013211,-0.643930,-0.155772,-0.748943,0.025873,-0.053974,0.087759
1196,1894052412,0.013498,-0.643819,-0.155998,-0.748986,0.015982,-0.088492,0.113193
1197,1894085746,0.013686,-0.643780,-0.156053,-0.749005,0.025716,-0.101176,0.105589
1198,1894119080,0.013755,-0.643760,-0.156084,-0.749014,0.042913,-0.084195,0.103111
1199,1894152414,0.013675,-0.643724,-0.156115,-0.749040,0.056483,-0.069695,0.090619
1200,1894185748,0.013652,-0.643672,-0.156123,-0.749084,0.036596,-0.050245,0.094596
1201,1894219082,0.013729,-0.643584,-0.156322,-0.749116,0.022728,-0.044461,0.093602
1202,1894252416,0.013766,-0.643525,-0.156526,-0.749124,0.029435,-0.068567,0.090566
1203,1894285750,0.013782,-0.643481,-0.156672,-0.749131,0.033647,-0.047817,0.095497
1204,1894319084,0.013703,-0.643422,-0.156792,-0.749158,0.065615,-0.042936,0.087125
1205,1894352418,0.013843,-0.643216,-0.157199,-0.749247,0.105608,-0.047838,0.135818
1206,1894385752,0.013901,-0.642730,-0.157576,-0.749584,0.080120,-0.094415,0.121257
1207,1894419086,0.013886,-0.642095,-0.158124,-0.750013,-0.037222,-0.149364,0.084590
1208,1894452420,0.013488,-0.641562,-0.158575,-0.750381,-0.045656,-0.169325,0.025510
1209,1894485754,0.012899,-0.641230,-0.159048,-0.750574,-0.057147,-0.074654,0.036092
1210,1894519088,0.012576,-0.640881,-0.159929,-0.750691,0.070425,0.062172,0.182664
1211,1894552422,0.012854,-0.640141,-0.161409,-0.751001,0.132903,0.117793,0.194291
1212,1894585756,0.013834,-0.638951,-0.163898,-0.751458,0.140188,0.082132,0.163224
1213,1894619090,0.014826,-0.637634,-0.166549,-0.751975,0.079322,-0.065608,-0.019359
1214,1894652424,0.015083,-0.636880,-0.167992,-0.752287,-0.055547,-0.249349,-0.187423
1215,1894685758,0.014143,-0.637140,-0.167038,-0.752298,-0.058487,-0.432284,-0.001888
1216,1894719092,0.011906,-0.638126,-0.163996,-0.752170,-0.127263,-0.379579,0.169493
1217,1894752426,0.008964,-0.639390,-0.161109,-0.751761,-0.024790,-0.264884,0.280890
1218,1894785760,0.005518,-0.640296,-0.158670,-0.751542,0.196176,-0.161206,0.291040
1219,1894819094,0.001771,-0.640485,-0.156298,-0.751896,0.235464,0.060237,0.235864
1220,1894852428,-0.001603,-0.639898,-0.154749,-0.752717,-0.013933,0.226987,0.104653
1221,1894885762,-0.004158,-0.639241,-0.154192,-0.753378,-0.175986,0.228803,-0.057637
1222,1894919096,-0.006097,-0.639375,-0.153311,-0.753432,-0.146055,0.155762,-0.239872
1223,1894952430,-0.007092,-0.640690,-0.151473,-0.752677,-0.054834,-0.126590,-0.072392
1224,1894985764,-0.007697,-0.642465,-0.148346,-0.751781,0.321839,-0.276058,0.496861
1225,1895019098,-0.008845,-0.643175,-0.145128,-0.751789,0.568791,-0.148995,0.611052
1226,1895052432,-0.010550,-0.642328,-0.143799,-0.752746,0.307943,0.138315,0.256913
1227,1895085766,-0.012196,-0.640873,-0.144140,-0.753895,-0.092056,0.187569,-0.149067
1228,1895119100,-0.013064,-0.639726,-0.144837,-0.754721,-0.236964,0.046446,-0.226468
1229,1895152434,-0.013362,-0.639213,-0.144664,-0.755183,-0.191470,0.179944,-0.093099
1230,1895185768,-0.013002,-0.639029,-0.144749,-0.755328,-0.234955,0.217192,0.073442
1231,1895219102,-0.012187,-0.638782,-0.145765,-0.755355,-0.010182,0.241045,0.241940
1232,1895252436,-0.011087,-0.638166,-0.147222,-0.755611,-0.018245,0.227674,0.245416
1233,1895285770,-0.009537,-0.637217,-0.149134,-0.756058,-0.075177,0.209443,0.120608
1234,1895319104,-0.007453,-0.636209,-0.151640,-0.756431,-0.115243,0.142223,-0.050955
1235,1895352438,-0.005125,-0.635452,-0.154135,-0.756583,-0.071336,0.054998,-0.061399
1236,1895385772,-0.002666,-0.634774,-0.156527,-0.756674,-0.124356,0.091573,0.157371
1237,1895419106,0.000022,-0.634097,-0.159325,-0.756662,-0.114394,0.094985,0.100868
1238,1895452440,0.003001,-0.633519,-0.162305,-0.756507,-0.053060,0.042354,0.083844
1239,1895485774,0.006159,-0.633156,-0.164951,-0.756219,-0.066729,0.038389,0.077936
1240,1895519108,0.009365,-0.632951,-0.167686,-0.755756,0.011626,0.032177,0.061479
1241,1895552442,0.012855,-0.632675,-0.170848,-0.755227,0.055219,0.022259,0.217018
1242,1895585776,0.016335,-0.632355,-0.174001,-0.754709,0.076349,0.007173,0.087953
1243,1895619110,0.019724,-0.632215,-0.176777,-0.754099,0.165751,-0.020555,-0.064878
1244,1895652444,0.022895,-0.632427,-0.178725,-0.753373,0.343094,-0.139761,0.156164
1245,1895685778,0.025490,-0.632559,-0.179479,-0.752999,0.275857,-0.106750,0.252125
1246,1895719112,0.027760,-0.632237,-0.180538,-0.752936,0.221893,-0.095677,0.277448
1247,1895752446,0.029776,-0.631371,-0.182002,-0.753233,0.001717,-0.083087,0.185360
1248,1895785780,0.031923,-0.630413,-0.183851,-0.753499,-0.209701,-0.049569,0.010911
1249,1895819114,0.034364,-0.629890,-0.185916,-0.753322,-0.216582,-0.039748,-0.219744
1250,1895852448,0.037371,-0.630207,-0.188210,-0.752343,-0.111884,-0.084191,-0.201200
1251,1895885782,0.040540,-0.631269,-0.189867,-0.750871,0.140660,-0.236827,-0.012792
1252,1895919116,0.043030,-0.632596,-0.190586,-0.749432,0.397053,-0.321518,0.156293
1253,1895952450,0.044344,-0.633661,-0.190722,-0.748420,0.571643,-0.545893,0.311355
1254,1895985784,0.043710,-0.634224,-0.189740,-0.748231,0.470484,-0.545796,0.290961
1255,1896019118,0.041593,-0.634487,-0.187907,-0.748591,0.171297,-0.443835,0.139646
1256,1896052452,0.038809,-0.634692,-0.185844,-0.749081,-0.086826,-0.262053,0.033263
1257,1896085786,0.036130,-0.635079,-0.184096,-0.749319,-0.204526,-0.131724,-0.005719
1258,1896119120,0.033720,-0.635898,-0.182281,-0.749180,-0.194897,0.011510,0.005612
1259,1896152454,0.031706,-0.637151,-0.180405,-0.748657,-0.080001,0.054763,0.011494
1260,1896185788,0.029962,-0.638555,-0.178491,-0.747992,0.083761,0.028164,0.149627
1261,1896219122,0.028007,-0.639871,-0.176279,-0.747467,0.185793,-0.097390,0.246257
1262,1896252456,0.025290,-0.640996,-0.172976,-0.747372,0.253102,-0.093635,0.267942
1263,1896285790,0.022133,-0.641722,-0.169315,-0.747687,0.079187,0.066673,0.229279
1264,1896319124,0.018994,-0.642217,-0.166047,-0.748082,-0.022142,0.194822,0.096916
1265,1896352458,0.016035,-0.642852,-0.162665,-0.748348,-0.013369,0.246004,0.075721
1266,1896385792,0.013272,-0.643586,-0.158621,-0.748640,0.062838,0.372337,0.119078
1267,1896419126,0.011554,-0.643987,-0.155513,-0.748975,0.050254,0.288200,0.108873
1268,1896452460,0.010904,-0.643930,-0.153704,-0.749407,-0.015871,-0.009923,0.155908
1269,1896485794,0.010879,-0.643543,-0.152871,-0.749910,-0.144186,-0.169520,0.103163
1270,1896519128,0.011132,-0.643043,-0.152844,-0.750341,-0.125296,-0.242606,0.044060
1271,1896552462,0.010950,-0.642594,-0.152928,-0.750711,-0.138333,-0.215031,0.024071
1272,1896585796,0.010282,-0.642260,-0.152727,-0.751047,-0.119899,-0.029166,0.053757
1273,1896619130,0.009958,-0.641944,-0.152762,-0.751315,-0.106219,0.133230,0.092072
1274,1896652464,0.010443,-0.641581,-0.153432,-0.751481,-0.127497,0.122158,0.083087
1275,1896685798,0.011730,-0.641282,-0.154708,-0.751456,-0.076426,0.058595,0.012891
1276,1896719132,0.013376,-0.641083,-0.156379,-0.751253,0.000763,-0.099511,0.013469
1277,1896752466,0.015060,-0.640916,-0.158119,-0.750999,0.133053,-0.202360,0.108016
1278,1896785800,0.016126,-0.640675,-0.159468,-0.750897,0.226483,-0.238126,0.179700
1279,1896819134,0.016556,-0.640318,-0.160264,-0.751023,0.132152,-0.222939,0.143407
1280,1896852468,0.016397,-0.639814,-0.160759,-0.751350,0.153751,-0.006808,0.189686
1281,1896885802,0.015710,-0.639303,-0.160832,-0.751784,0.049496,-0.053595,0.113989
1282,1896919136,0.014573,-0.639149,-0.160513,-0.752006,-0.105745,-0.039592,0.013137
1283,1896952470,0.013545,-0.639313,-0.159819,-0.752034,-0.025545,0.137601,0.032455
1284,1896985804,0.013310,-0.639544,-0.159577,-0.751892,-0.002446,0.157560,0.076514
1285,1897019138,0.013449,-0.639731,-0.159425,-0.751763,0.062792,0.104116,0.154087
1286,1897052472,0.013638,-0.639845,-0.159185,-0.751714,0.014220,-0.020623,0.111611
1287,1897085806,0.013705,-0.639988,-0.158791,-0.751674,0.045101,-0.054552,0.133444
1288,1897119140,0.013706,-0.640067,-0.158447,-0.751680,-0.015941,-0.057762,0.101442
1289,1897152474,0.013915,-0.640061,-0.158677,-0.751632,-0.025423,-0.083612,0.066262
1290,1897185808,0.014205,-0.640008,-0.159204,-0.751561,-0.017342,-0.100425,0.036246
1291,1897219142,0.014520,-0.639994,-0.159752,-0.751450,-0.042693,-0.087165,0.067990
1292,1897252476,0.014747,-0.640106,-0.160219,-0.751251,-0.044047,-0.070847,0.090024
1293,1897285810,0.014914,-0.640358,-0.160673,-0.750935,-0.019271,-0.077803,0.072653
1294,1897319144,0.015190,-0.640671,-0.160962,-0.750601,0.062994,-0.090847,0.115930
1295,1897352478,0.015746,-0.640804,-0.161350,-0.750393,0.044452,-0.073809,0.182364
1296,1897385812,0.016063,-0.640805,-0.161631,-0.750325,0.025548,-0.073264,0.161008
1297,1897419146,0.016054,-0.640804,-0.161525,-0.750349,-0.041285,-0.034380,0.107403
1298,1897452480,0.016213,-0.640846,-0.161381,-0.750341,-0.104134,-0.014871,0.089728
1299,1897485814,0.016670,-0.640991,-0.161302,-0.750223,-0.056809,-0.006423,0.120459
1300,1897519148,0.017357,-0.641234,-0.161145,-0.750034,-0.007860,-0.066089,0.131081
1301,1897552482,0.017909,-0.641603,-0.160572,-0.749829,0.047840,-0.091966,0.120855
1302,1897585816,0.018538,-0.642063,-0.159664,-0.749613,0.062307,-0.247474,0.140486
1303,1897619150,0.019037,-0.642517,-0.158480,-0.749463,0.082656,-0.332923,0.088085
1304,1897652484,0.019255,-0.642955,-0.157188,-0.749354,0.065061,-0.385451,0.136904
1305,1897685818,0.019405,-0.643381,-0.155887,-0.749256,0.050718,-0.437467,0.101921
1306,1897719152,0.019226,-0.643916,-0.154310,-0.749127,-0.037450,-0.563827,0.035034
1307,1897752486,0.018484,-0.644668,-0.152129,-0.748945,0.022608,-0.572155,0.020869
1308,1897785820,0.017365,-0.645515,-0.149770,-0.748718,-0.091476,-0.595148,-0.013815
1309,1897819154,0.015907,-0.646491,-0.147446,-0.748370,0.028109,-0.531200,-0.040067
1310,1897852488,0.014332,-0.647552,-0.144805,-0.747999,0.118038,-0.437469,0.034891
1311,1897885822,0.012914,-0.648448,-0.142103,-0.747767,0.143212,-0.393841,0.159004
1312,1897919156,0.011492,-0.649045,-0.139590,-0.747746,0.214488,-0.360382,0.212055
1313,1897952490,0.009840,-0.649360,-0.136771,-0.748017,0.218023,-0.377726,0.256800
1314,1897985824,0.007758,-0.649422,-0.133402,-0.748595,0.138250,-0.365608,0.188539
1315,1898019158,0.005372,-0.649272,-0.130157,-0.749318,0.066714,-0.292019,0.116182
1316,1898052492,0.002924,-0.648946,-0.127376,-0.750091,0.094566,-0.203058,0.068481
1317,1898085826,0.000726,-0.648327,-0.125430,-0.750959,-0.012500,-0.194593,0.007912
1318,1898119160,-0.001425,-0.647699,-0.123879,-0.751757,-0.024033,-0.160502,-0.033434
1319,1898152494,-0.003657,-0.647015,-0.122453,-0.752572,0.063114,0.056688,-0.054380
1320,1898185828,-0.005701,-0.646278,-0.121165,-0.753401,0.114725,0.229704,0.135654
1321,1898219162,-0.007346,-0.645512,-0.119811,-0.754259,0.231223,0.326793,0.246665
1322,1898252496,-0.008595,-0.644717,-0.118519,-0.755129,0.197606,0.425731,0.224909
1323,1898285830,-0.009896,-0.643888,-0.117174,-0.756030,0.203580,0.382869,0.363955
1324,1898319164,-0.011256,-0.642874,-0.116071,-0.757044,0.300792,0.327719,0.324088
1325,1898352498,-0.012310,-0.641551,-0.116370,-0.758102,0.284851,0.116587,0.345853
1326,1898385832,-0.013945,-0.639900,-0.116841,-0.759396,0.207164,0.032333,0.226414
1327,1898419166,-0.016669,-0.638276,-0.115853,-0.760858,0.138406,0.181465,0.097539
1328,1898452500,-0.019651,-0.636776,-0.114052,-0.762314,0.251243,0.443452,0.071321
1329,1898485834,-0.021991,-0.635286,-0.112923,-0.763661,0.240675,0.376156,0.094623
1330,1898519168,-0.023731,-0.633759,-0.112706,-0.764908,0.262742,0.185210,0.182994
1331,1898552502,-0.025519,-0.632080,-0.112908,-0.766209,0.170650,0.083119,0.195589
1332,1898585836,-0.027823,-0.630328,-0.113224,-0.767524,0.003927,-0.097285,0.081622
1333,1898619170,-0.030888,-0.628646,-0.113554,-0.768737,-0.030853,-0.057490,-0.081159
1334,1898652504,-0.034396,-0.627004,-0.114197,-0.769833,0.084423,-0.050899,-0.027538
1335,1898685838,-0.037717,-0.625020,-0.115864,-0.771040,0.356626,0.060382,0.196865
1336,1898719172,-0.040465,-0.622355,-0.118602,-0.772640,0.453433,0.213018,0.364120
1337,1898752506,-0.043044,-0.619113,-0.120784,-0.774764,0.360835,0.409513,0.339787
1338,1898785840,-0.045578,-0.615513,-0.121115,-0.777431,0.193475,0.652864,0.156422
1339,1898819174,-0.047378,-0.611986,-0.121049,-0.780113,-0.029414,0.641023,0.043022
1340,1898852508,-0.048177,-0.608517,-0.121739,-0.782666,-0.242549,0.483497,0.011215
1341,1898885842,-0.048667,-0.605220,-0.123147,-0.784969,-0.353610,0.256562,0.188530
1342,1898919176,-0.049441,-0.601932,-0.123284,-0.787423,-0.390330,0.652682,0.022642
1343,1898952510,-0.049115,-0.598837,-0.124077,-0.789675,-0.205340,0.729502,-0.034994
1344,1898985844,-0.047608,-0.595873,-0.126119,-0.791684,-0.488246,0.604740,0.123869
1345,1899019178,-0.045025,-0.593305,-0.128607,-0.793362,-0.414836,0.741207,0.054239
1346,1899052512,-0.040239,-0.590898,-0.132571,-0.794762,-0.204840,0.859607,-0.051087
1347,1899085846,-0.033059,-0.588863,-0.138266,-0.795632,-0.250821,0.726675,-0.022577
1348,1899119180,-0.024164,-0.587263,-0.145696,-0.795809,-0.241368,0.401019,0.020658
1349,1899152514,-0.014419,-0.585654,-0.154016,-0.795664,-0.154921,0.223182,0.025755
1350,1899185848,-0.005157,-0.584083,-0.160973,-0.795556,-0.132549,0.058411,-0.173851
1351,1899219182,0.003024,-0.583048,-0.165454,-0.795407,0.016194,0.139205,-0.184292
1352,1899252516,0.010447,-0.582785,-0.167885,-0.795027,0.075164,0.225571,-0.231997
1353,1899285850,0.016695,-0.584166,-0.167199,-0.794051,-0.458576,-0.074154,-0.417352
1354,1899319184,0.021183,-0.588012,-0.163430,-0.791887,-0.735754,-0.385205,-0.247310
1355,1899352518,0.022621,-0.593918,-0.155746,-0.788983,-0.433121,-0.397004,-0.190667
1356,1899385852,0.020545,-0.601017,-0.146605,-0.785407,-0.238059,-0.415042,-0.176938
1357,1899419186,0.014367,-0.608634,-0.136683,-0.781458,0.099015,-0.251738,0.088641
1358,1899452520,0.004003,-0.615733,-0.124970,-0.777972,0.961214,0.459188,0.144417
1359,1899485854,-0.004915,-0.620896,-0.118491,-0.774870,2.074670,1.306392,0.845674
1360,1899519188,-0.010890,-0.623462,-0.118341,-0.772769,1.916537,0.669605,1.437034
1361,1899552522,-0.017091,-0.623122,-0.117255,-0.773097,1.301730,1.045452,1.535276
1362,1899585856,-0.021606,-0.620560,-0.115867,-0.775251,0.825596,1.201063,0.491611
1363,1899619190,-0.021895,-0.617629,-0.117875,-0.777278,0.252668,0.681002,-0.532348
1364,1899652524,-0.020659,-0.615013,-0.120880,-0.778923,-0.003392,-0.094723,-0.782119
1365,1899685858,-0.020199,-0.612640,-0.121639,-0.780685,-0.243275,-0.132475,-0.807845
1366,1899719192,-0.018840,-0.610516,-0.122738,-0.782209,-0.517860,-0.041853,-0.317747
1367,1899752526,-0.016039,-0.608692,-0.125879,-0.783194,-0.801756,-0.186589,0.180693
1368,1899785860,-0.013913,-0.606980,-0.129609,-0.783954,-0.719772,-0.069806,0.139485
1369,1899819194,-0.012793,-0.605341,-0.135127,-0.784309,-0.501115,0.273372,0.020049
1370,1899852528,-0.011916,-0.603810,-0.141651,-0.784351,-0.252308,0.399441,0.084876
1371,1899885862,-0.009772,-0.602497,-0.148255,-0.784170,-0.129370,0.514987,0.039623
1372,1899919196,-0.005531,-0.601460,-0.154409,-0.783820,0.044151,0.369625,0.018683
1373,1899952530,-0.000072,-0.600615,-0.159205,-0.783528,0.233540,0.204389,0.040477
1374,1899985864,0.005726,-0.599740,-0.162752,-0.783449,0.368904,0.216488,0.149707
1375,1900019198,0.011165,-0.598678,-0.164894,-0.783754,0.467223,0.079303,0.126755
1376,1900052532,0.015723,-0.597524,-0.165004,-0.784533,0.454992,-0.096212,0.157526
1377,1900085866,0.019538,-0.596433,-0.162484,-0.785803,0.246729,-0.368445,0.148621
1378,1900119200,0.023266,-0.595468,-0.157918,-0.787362,-0.076297,-0.587575,0.012839
1379,1900152534,0.027712,-0.594811,-0.153339,-0.788619,-0.340574,-0.780228,-0.058230
1380,1900185868,0.032869,-0.594516,-0.150177,-0.789252,-0.532794,-1.047611,0.017982
1381,1900219202,0.037828,-0.594691,-0.148352,-0.789243,-0.598192,-1.324939,0.133443
1382,1900252536,0.041463,-0.595411,-0.146994,-0.788771,-0.503209,-1.425501,0.052792
1383,1900285870,0.043459,-0.596415,-0.146461,-0.788004,-0.297626,-1.305972,-0.188242
1384,1900319204,0.044266,-0.597348,-0.148143,-0.786937,-0.133130,-1.208337,-0.534739
1385,1900352538,0.043987,-0.598125,-0.151947,-0.785636,0.197775,-1.043905,-0.578914
1386,1900385872,0.042946,-0.598667,-0.156724,-0.784341,0.439931,-0.738862,0.070802
1387,1900419206,0.041664,-0.598903,-0.161140,-0.783335,0.601480,-0.578917,0.916158
1388,1900452540,0.039501,-0.598613,-0.163812,-0.783115,0.613217,-0.182437,1.145200
1389,1900485874,0.036910,-0.597441,-0.165835,-0.783710,0.538619,0.184694,0.666254
1390,1900519208,0.035653,-0.595291,-0.169338,-0.784655,0.260911,0.007347,0.073894
1391,1900552542,0.035918,-0.592829,-0.173930,-0.785502,0.213920,-0.063853,-0.138391
1392,1900585876,0.037323,-0.590409,-0.178664,-0.786196,0.091820,-0.226770,-0.164443
1393,1900619210,0.038658,-0.588484,-0.182457,-0.786704,-0.083561,-0.333594,-0.133957
1394,1900652544,0.039165,-0.587254,-0.184939,-0.787018,-0.253666,-0.335762,0.023184
1395,1900685878,0.038857,-0.586821,-0.186163,-0.787067,-0.376495,-0.347752,0.170464
1396,1900719212,0.038166,-0.587228,-0.186432,-0.786734,-0.317535,-0.244714,0.235452
1397,1900752546,0.037438,-0.588253,-0.185721,-0.786171,-0.140813,-0.205989,0.213193
1398,1900785880,0.036605,-0.589752,-0.183931,-0.785508,-0.073266,-0.159442,0.263014
1399,1900819214,0.035727,-0.591376,-0.181516,-0.784889,0.062446,-0.108469,0.190215
1400,1900852548,0.035053,-0.592843,-0.179305,-0.784321,0.118836,-0.091747,0.083239
1401,1900885882,0.034699,-0.594143,-0.177502,-0.783763,0.196887,-0.185013,0.120270
1402,1900919216,0.034584,-0.595359,-0.175641,-0.783264,0.208676,-0.278828,0.153130
1403,1900952550,0.034237,-0.596639,-0.173331,-0.782820,0.151079,-0.429359,0.100326
1404,1900985884,0.033495,-0.598100,-0.170619,-0.782332,0.167196,-0.498500,0.059925
1405,1901019218,0.032145,-0.599780,-0.167594,-0.781757,0.190424,-0.636701,-0.059627
1406,1901052552,0.029753,-0.601714,-0.164204,-0.781084,0.181756,-0.792856,-0.096692
1407,1901085886,0.026071,-0.603874,-0.160176,-0.780385,0.157290,-0.909335,-0.035949
1408,1901119220,0.021169,-0.606166,-0.155539,-0.779694,0.156579,-0.933786,-0.038288
1409,1901152554,0.015373,-0.608452,-0.151152,-0.778912,-0.014258,-0.926937,-0.039586
1410,1901185888,0.008638,-0.610826,-0.147177,-0.777919,-0.068391,-0.970598,-0.030324
1411,1901219222,0.000679,-0.613329,-0.142782,-0.776815,-0.215698,-0.880742,0.045656
1412,1901252556,-0.007815,-0.615968,-0.138292,-0.775499,-0.328597,-0.693055,0.109548
1413,1901285890,-0.016453,-0.618699,-0.134304,-0.773889,-0.318314,-0.559634,0.029572
1414,1901319224,-0.025134,-0.621428,-0.131404,-0.771965,-0.357295,-0.418435,-0.104848
1415,1901352558,-0.033475,-0.624306,-0.129690,-0.769612,-0.270364,-0.333770,0.006490
1416,1901385892,-0.041569,-0.627306,-0.127686,-0.767109,-0.099710,-0.322391,0.122805
1417,1901419226,-0.049472,-0.630214,-0.124698,-0.764744,0.050373,-0.147099,0.144170
1418,1901452560,-0.057035,-0.632797,-0.121550,-0.762589,0.108891,-0.048765,0.178972
1419,1901485894,-0.064266,-0.634905,-0.118610,-0.760722,0.164486,0.005541,0.193760
1420,1901519228,-0.071367,-0.636541,-0.115313,-0.759227,0.133639,0.027754,0.248694
1421,1901552562,-0.078361,-0.637741,-0.111507,-0.758098,0.065588,0.187189,0.308842
1422,1901585896,-0.084856,-0.638601,-0.107684,-0.757227,-0.001875,0.248626,0.256433
1423,1901619230,-0.090929,-0.639208,-0.103942,-0.756533,-0.031623,0.254440,0.138311
1424,1901652564,-0.096501,-0.639622,-0.100369,-0.755975,-0.088722,0.324577,0.042188
1425,1901685898,-0.101329,-0.640077,-0.096936,-0.755406,-0.081841,0.408031,0.077167
1426,1901719232,-0.105458,-0.640641,-0.093420,-0.754805,-0.000687,0.364470,0.031086
1427,1901752566,-0.108924,-0.641283,-0.090187,-0.754161,0.021045,0.297685,-0.080940
1428,1901785900,-0.111666,-0.641974,-0.087513,-0.753487,0.112032,0.200040,-0.052271
1429,1901819234,-0.113828,-0.642651,-0.085232,-0.752848,0.054920,0.014558,-0.027054
1430,1901852568,-0.115949,-0.643245,-0.082857,-0.752281,0.088084,-0.098246,0.049322
1431,1901885902,-0.118329,-0.643716,-0.080402,-0.751774,-0.027762,-0.183954,0.107731
1432,1901919236,-0.121006,-0.644085,-0.078257,-0.751258,-0.040384,-0.154639,0.138267
1433,1901952570,-0.123978,-0.644405,-0.076841,-0.750645,-0.063651,-0.204287,0.113768
1434,1901985904,-0.127813,-0.644661,-0.075616,-0.749907,-0.162636,-0.219912,0.104825
1435,1902019238,-0.132563,-0.644888,-0.074220,-0.749025,-0.069931,-0.119313,-0.123037
1436,1902052572,-0.137821,-0.645132,-0.072823,-0.748002,-0.043928,-0.027522,-0.253852
1437,1902085906,-0.143325,-0.645427,-0.071582,-0.746832,0.019845,0.320014,-0.135665
1438,1902119240,-0.148241,-0.645901,-0.071032,-0.745515,0.249012,0.616908,0.089822
1439,1902152574,-0.152352,-0.646495,-0.071288,-0.744145,0.462430,0.823115,0.010203
1440,1902185908,-0.155002,-0.647514,-0.072936,-0.742551,0.641294,0.855692,0.236723
1441,1902219242,-0.156699,-0.648724,-0.074422,-0.740989,0.690323,0.582412,0.348272
1442,1902252576,-0.158614,-0.649905,-0.074401,-0.739548,0.655302,0.384023,0.344790
1443,1902285910,-0.161406,-0.650896,-0.072489,-0.738261,0.626580,0.155694,0.203613
1444,1902319244,-0.165261,-0.651502,-0.068892,-0.737217,0.385630,-0.095938,0.152444
