sep=,
DeviceTag:,2C_Leg
FirmwareVersion:,2.2.1
AppVersion:,2023.6.0
SyncStatus:,Synced
OutputRate:,30Hz
FilterProfile:,General
Measurement Mode:,Sensor fusion Mode - Complete(Quaternion)
StartTime: ,2026-05-27_15:45:50_617 AEST
© Movella Technologies B. V. 2005-2026

PacketCounter,SampleTimeFine,Quat_W,Quat_X,Quat_Y,Quat_Z,FreeAcc_X,FreeAcc_Y,FreeAcc_Z
1,1324053279,0.564037,-0.593541,-0.439461,0.369394,-0.523451,-0.233526,0.235415
2,1324086613,0.565384,-0.593848,-0.440250,0.365884,-0.282354,-0.366389,0.216394
3,1324119947,0.566090,-0.593006,-0.442032,0.364004,0.008811,-0.181616,0.216214
4,1324153281,0.567223,-0.592750,-0.443405,0.360976,0.154424,0.107994,0.119453
5,1324186615,0.568250,-0.593178,-0.444739,0.356995,0.189266,0.097954,0.052747
6,1324219949,0.569044,-0.594104,-0.446149,0.352400,0.047247,0.040193,0.143022
7,1324253283,0.569578,-0.594959,-0.447763,0.348021,-0.074054,-0.147354,0.147769
8,1324286617,0.569525,-0.595151,-0.450026,0.344845,-0.165217,-0.195648,0.119740
9,1324319951,0.569183,-0.594516,-0.453005,0.342598,-0.062600,-0.130021,-0.154755
10,1324353285,0.568019,-0.594038,-0.456813,0.340295,0.006122,0.198262,0.139642
11,1324386619,0.567084,-0.594242,-0.460089,0.337069,0.280055,0.430640,0.308189
12,1324419953,0.567054,-0.595190,-0.462150,0.332598,0.058678,0.334372,0.088790
13,1324453287,0.567079,-0.596143,-0.463948,0.328318,-0.023867,-0.018164,0.036851
14,1324486621,0.567055,-0.597089,-0.465848,0.323922,-0.030818,-0.027279,0.025443
15,1324519955,0.567011,-0.598666,-0.467390,0.318826,0.056253,0.182240,0.201133
16,1324553289,0.567139,-0.600585,-0.468393,0.313473,-0.173592,-0.128766,0.203112
17,1324586623,0.567609,-0.602335,-0.468717,0.308746,-0.506529,-0.301446,0.173532
18,1324619957,0.568490,-0.603477,-0.468473,0.305243,-0.489327,-0.211668,0.243531
19,1324653291,0.569501,-0.603973,-0.468074,0.302982,-0.413944,-0.175860,0.211460
20,1324686625,0.569728,-0.603772,-0.468566,0.302195,-0.611078,-0.338231,0.219753
21,1324719959,0.570520,-0.603541,-0.468407,0.301406,-0.406311,0.033542,0.377685
22,1324753293,0.574236,-0.604083,-0.464288,0.299631,-1.090189,0.401206,0.233521
23,1324786627,0.578016,-0.603227,-0.459658,0.301222,-1.328877,0.054055,0.212147
24,1324819961,0.580803,-0.601441,-0.455663,0.305475,-1.393811,-0.258665,0.243288
25,1324853295,0.584335,-0.599523,-0.449373,0.311759,-1.519687,0.638718,0.297739
26,1324886629,0.591430,-0.593612,-0.439505,0.323539,-1.405713,-1.549088,-0.738728
27,1324919963,0.595655,-0.581010,-0.433949,0.345424,0.575387,-2.673069,-1.052938
28,1324953297,0.594521,-0.565929,-0.435181,0.369990,2.863454,-0.947117,-0.516374
29,1324986631,0.596399,-0.559690,-0.432038,0.380006,2.631708,2.302699,0.808118
30,1325019965,0.605487,-0.564520,-0.416793,0.375489,1.254066,2.217406,0.148018
31,1325053299,0.614346,-0.573621,-0.397843,0.367783,-0.090802,0.718140,0.232367
32,1325086633,0.620833,-0.579872,-0.383274,0.362521,-1.337080,-0.200474,0.480367
33,1325119967,0.622205,-0.578723,-0.380277,0.365153,-1.371535,-0.853724,-0.086889
34,1325153301,0.619270,-0.573450,-0.383375,0.375087,-1.168992,-1.183711,0.039742
35,1325186635,0.615098,-0.565280,-0.388159,0.389169,-0.395281,-0.736285,-0.067818
36,1325219969,0.609731,-0.557241,-0.393446,0.403630,0.942431,0.272115,-0.026394
37,1325253303,0.608352,-0.554850,-0.391886,0.410464,1.222580,0.846392,-0.002197
38,1325286637,0.610063,-0.557253,-0.384938,0.411243,0.498018,1.184249,0.339969
39,1325319971,0.613789,-0.561671,-0.375555,0.408353,0.557755,1.134622,0.156703
40,1325353305,0.616967,-0.564486,-0.367985,0.406572,0.335941,0.096001,0.349830
41,1325386639,0.618108,-0.565645,-0.364162,0.406670,0.041170,-0.065327,0.674356
42,1325419973,0.618830,-0.565289,-0.362712,0.407362,0.069403,0.010399,0.143064
43,1325453307,0.618755,-0.562846,-0.363135,0.410470,0.478192,0.173754,-0.105203
44,1325486641,0.618523,-0.562060,-0.362393,0.412546,0.498286,-0.109249,0.122403
45,1325519975,0.619927,-0.563015,-0.359071,0.412041,0.113391,-0.204639,0.167356
46,1325553309,0.621663,-0.562923,-0.355609,0.412554,0.232146,-0.247675,-0.031135
47,1325586643,0.622903,-0.562651,-0.352301,0.413891,0.401046,-0.197038,0.146099
48,1325619977,0.623613,-0.562633,-0.349177,0.415491,-0.078581,-0.656006,0.187982
49,1325653311,0.623375,-0.560469,-0.347847,0.419863,-0.192133,-0.768240,0.249047
50,1325686645,0.621799,-0.556252,-0.348924,0.426858,0.088331,-0.295957,0.174330
51,1325719979,0.620216,-0.552607,-0.349694,0.433218,0.224101,0.339700,0.038052
52,1325753313,0.619477,-0.550235,-0.348628,0.438126,0.404550,0.278123,0.241158
53,1325786647,0.619132,-0.549425,-0.346522,0.441288,0.223993,0.117002,0.365460
54,1325819981,0.618410,-0.549120,-0.344863,0.443972,-0.066938,0.218027,0.208978
55,1325853315,0.616871,-0.547165,-0.345155,0.448280,0.113157,0.406903,0.240791
56,1325886649,0.615369,-0.545402,-0.345566,0.452159,0.201486,0.483983,0.195647
57,1325919983,0.614699,-0.544525,-0.344900,0.454630,0.013765,0.512756,-0.096551
58,1325953317,0.614047,-0.543777,-0.343973,0.457100,0.064709,0.211795,0.078260
59,1325986651,0.614028,-0.543315,-0.342072,0.459099,0.075830,0.216882,0.073762
60,1326019985,0.614718,-0.543046,-0.339275,0.460566,-0.047083,0.198725,-0.006356
61,1326053319,0.615446,-0.543008,-0.336178,0.461908,0.089834,-0.206329,0.057868
62,1326086653,0.615857,-0.542701,-0.333310,0.463796,-0.034972,-0.254090,0.123648
63,1326119987,0.615383,-0.541227,-0.331869,0.467168,0.018074,-0.061666,0.141729
64,1326153321,0.614711,-0.540230,-0.330722,0.470011,0.431975,0.091338,0.261060
65,1326186655,0.614376,-0.539906,-0.329177,0.471902,0.181331,0.023871,0.289841
66,1326219989,0.614115,-0.539178,-0.328027,0.473871,0.256273,-0.031501,0.129309
67,1326253323,0.613646,-0.538041,-0.327227,0.476318,0.223935,-0.142876,0.118555
68,1326286657,0.612898,-0.536958,-0.326641,0.478899,0.056778,-0.148732,0.004171
69,1326319991,0.611822,-0.536114,-0.326065,0.481605,0.115685,-0.120547,0.096410
70,1326353325,0.610225,-0.535172,-0.325835,0.484824,0.011466,-0.119061,0.200233
71,1326386659,0.608377,-0.534140,-0.326066,0.488118,0.141821,0.200590,0.115132
72,1326419993,0.607054,-0.533311,-0.325774,0.490859,0.076381,0.442218,0.151088
73,1326453327,0.606738,-0.532992,-0.324293,0.492573,0.028457,0.412400,0.067484
74,1326486661,0.606941,-0.532676,-0.322524,0.493826,-0.136285,0.136844,0.020996
75,1326519995,0.607403,-0.531909,-0.320714,0.495261,-0.063965,0.044240,-0.004667
76,1326553329,0.607969,-0.530554,-0.318907,0.497183,0.225821,0.051893,0.176536
77,1326586663,0.609031,-0.528971,-0.316542,0.499076,0.390721,0.102807,0.294500
78,1326619997,0.610518,-0.526779,-0.313872,0.501260,0.443794,0.033324,0.240644
79,1326653331,0.612251,-0.525233,-0.310573,0.502821,0.417393,-0.330414,0.199832
80,1326686665,0.613860,-0.524208,-0.306874,0.504199,0.229988,-0.238297,0.003325
81,1326719999,0.615444,-0.523689,-0.302296,0.505571,0.317247,-0.123466,0.062346
82,1326753333,0.617208,-0.524066,-0.296646,0.506376,0.000554,0.369972,0.061893
83,1326786667,0.619149,-0.524406,-0.291198,0.506816,-0.036945,0.466483,0.240607
84,1326820001,0.621062,-0.524530,-0.286617,0.506957,-0.222435,-0.041298,0.370999
85,1326853335,0.622042,-0.523201,-0.284583,0.508274,-0.155636,0.042208,-0.076584
86,1326886669,0.622706,-0.520651,-0.284289,0.510241,0.163246,0.112249,0.253345
87,1326920003,0.623567,-0.519251,-0.283285,0.511173,0.337409,0.465794,0.320253
88,1326953337,0.624875,-0.518774,-0.281377,0.511114,0.184423,0.347827,0.145635
89,1326986671,0.626294,-0.518853,-0.279590,0.510278,0.062587,-0.248355,0.127517
90,1327020005,0.627499,-0.518760,-0.277638,0.509956,-0.301019,-0.372392,-0.062075
91,1327053339,0.628126,-0.517819,-0.276114,0.510968,-0.356507,0.047564,-0.275844
92,1327086673,0.628796,-0.516677,-0.274807,0.512002,-0.079003,0.495550,-0.122606
93,1327120007,0.630479,-0.516732,-0.272196,0.511272,0.084010,0.882274,0.204142
94,1327153341,0.633552,-0.517528,-0.268042,0.508858,0.188602,0.815142,0.055356
95,1327186675,0.637589,-0.518851,-0.262686,0.505249,0.249453,0.285417,0.254033
96,1327220009,0.641600,-0.520077,-0.257285,0.501677,0.011550,-0.672547,0.233098
97,1327253343,0.644575,-0.519901,-0.253522,0.499959,-0.123913,-0.904950,0.081438
98,1327286677,0.646146,-0.518473,-0.251831,0.500268,0.270627,-0.984608,0.158465
99,1327320011,0.646942,-0.517205,-0.250695,0.501121,0.365847,-0.744250,0.234179
100,1327353345,0.647240,-0.516713,-0.249235,0.501973,0.012884,-0.286614,-0.096681
101,1327386679,0.647467,-0.516645,-0.247247,0.502732,0.005037,0.568145,-0.028089
102,1327420013,0.648644,-0.516656,-0.244128,0.502727,0.406218,1.096591,0.236773
103,1327453347,0.650867,-0.517310,-0.240114,0.501113,0.296593,0.381549,0.418904
104,1327486681,0.653330,-0.517412,-0.237022,0.499271,0.037065,-0.628097,0.415324
105,1327520015,0.655368,-0.515607,-0.235686,0.499099,0.112471,-0.729461,0.191562
106,1327553349,0.656595,-0.513240,-0.234962,0.500266,-0.141819,-0.158407,-0.196557
107,1327586683,0.656992,-0.512762,-0.232873,0.501212,-0.109280,0.250173,-0.202676
108,1327620017,0.657097,-0.513394,-0.230182,0.501670,-0.117264,-0.042724,0.134587
109,1327653351,0.657335,-0.513407,-0.228696,0.502024,-0.257838,0.231922,0.187441
110,1327686685,0.657831,-0.512140,-0.228104,0.502938,-0.147086,0.511591,-0.007791
111,1327720019,0.658568,-0.510708,-0.227325,0.503780,-0.019661,0.415227,0.018372
112,1327753353,0.659286,-0.510202,-0.226099,0.503905,0.027578,0.080912,-0.066878
113,1327786687,0.659814,-0.509566,-0.225147,0.504284,-0.132258,0.315414,0.036875
114,1327820021,0.660544,-0.508855,-0.223714,0.504685,0.108065,0.601598,0.179444
115,1327853355,0.661511,-0.508394,-0.221998,0.504640,0.095412,0.138997,0.277397
116,1327886689,0.662313,-0.507707,-0.221213,0.504624,0.161075,-0.374941,0.309183
117,1327920023,0.662593,-0.506480,-0.221908,0.505184,0.212481,-0.329816,0.274564
118,1327953357,0.662294,-0.505218,-0.223096,0.506316,0.319058,-0.171242,0.331525
119,1327986691,0.661818,-0.504908,-0.223419,0.507103,0.575052,0.065075,0.217596
120,1328020025,0.661511,-0.505915,-0.222949,0.506708,0.481174,-0.067921,0.188093
121,1328053359,0.661437,-0.506890,-0.222307,0.506112,0.410193,-0.113091,0.483877
122,1328086693,0.661284,-0.507029,-0.222213,0.506214,0.332544,-0.345171,0.371130
123,1328120027,0.660935,-0.506316,-0.222698,0.507169,0.297799,-0.165355,0.270674
124,1328153361,0.660337,-0.505102,-0.223097,0.508979,0.275068,-0.242859,0.143662
125,1328186695,0.659648,-0.504440,-0.223150,0.510505,0.039579,0.097642,0.094323
126,1328220029,0.658909,-0.503850,-0.222967,0.512119,0.050271,0.437628,0.167930
127,1328253363,0.658264,-0.503684,-0.222621,0.513260,0.150324,0.344749,0.120337
128,1328286697,0.657884,-0.503821,-0.222040,0.513865,0.202014,0.203329,0.247757
129,1328320031,0.657822,-0.503531,-0.221288,0.514552,0.401021,0.217418,0.342257
130,1328353365,0.657796,-0.502577,-0.220434,0.515883,0.527621,-0.156168,0.104669
131,1328386699,0.657976,-0.501727,-0.219080,0.517057,0.285592,-0.349085,0.160022
132,1328420033,0.658312,-0.500978,-0.217384,0.518069,0.058486,-0.268487,0.053640
133,1328453367,0.658242,-0.500240,-0.216047,0.519430,-0.157898,-0.346824,-0.101460
134,1328486701,0.657853,-0.500045,-0.214799,0.520626,-0.247611,-0.234823,-0.115993
135,1328520035,0.657220,-0.500092,-0.213452,0.521933,-0.214331,-0.171512,-0.122755
136,1328553369,0.656331,-0.500350,-0.212268,0.523285,0.095771,-0.503001,0.053001
137,1328586703,0.654836,-0.500793,-0.211372,0.525095,0.395714,-0.462299,0.119326
138,1328620037,0.652684,-0.500197,-0.210910,0.528516,0.275022,-0.077943,0.366309
139,1328653371,0.650617,-0.498653,-0.210218,0.532782,0.283022,0.555616,0.470544
140,1328686705,0.648910,-0.496776,-0.209047,0.537061,0.025458,0.607993,0.348974
141,1328720039,0.647659,-0.494945,-0.208963,0.540285,-0.157854,0.755727,0.395617
142,1328753373,0.647068,-0.492538,-0.209212,0.543088,0.201939,0.812619,0.562838
143,1328786707,0.646795,-0.490474,-0.208463,0.545564,0.778872,-0.086147,0.337234
144,1328820041,0.646228,-0.488543,-0.207708,0.548250,0.591730,-0.013823,0.044015
145,1328853375,0.645474,-0.486828,-0.206584,0.551082,0.361016,-0.305368,-0.037700
146,1328886709,0.644478,-0.485338,-0.205964,0.553787,-0.067875,-0.513081,-0.164966
147,1328920043,0.643093,-0.483803,-0.205822,0.556785,-0.243007,0.246509,0.008734
148,1328953377,0.641932,-0.482103,-0.205905,0.559562,-0.123375,0.519431,-0.275078
149,1328986711,0.641612,-0.481690,-0.205350,0.560487,-0.127899,0.231690,-0.221424
150,1329020045,0.641969,-0.482375,-0.204112,0.559941,0.024338,0.498750,0.120364
151,1329053379,0.642975,-0.482840,-0.202368,0.559019,0.204208,0.156054,0.095286
152,1329086713,0.644296,-0.484372,-0.200471,0.556851,0.077584,0.003544,-0.195541
153,1329120047,0.645459,-0.485879,-0.198636,0.554846,-0.098971,-0.021774,0.330688
154,1329153381,0.647252,-0.486319,-0.196350,0.553182,0.394122,0.113764,0.196577
155,1329186715,0.649340,-0.486275,-0.194330,0.551485,0.224940,-0.143604,-0.005221
156,1329220049,0.651560,-0.487222,-0.191954,0.548857,0.608079,-0.223186,-0.006701
157,1329253383,0.654003,-0.488918,-0.188824,0.545519,0.449260,-0.755917,0.202703
158,1329286717,0.656133,-0.490240,-0.185139,0.543032,0.091296,-0.250137,-0.166538
159,1329320051,0.657942,-0.491331,-0.180742,0.541336,-0.444326,0.199787,-0.208723
160,1329353385,0.660056,-0.492689,-0.175305,0.539312,-0.766752,0.449084,-0.028636
161,1329386719,0.662674,-0.491814,-0.171103,0.538248,-0.722066,0.962778,-0.008883
162,1329420053,0.666067,-0.490422,-0.167486,0.536466,-0.344559,0.714875,-0.026114
163,1329453387,0.669765,-0.490147,-0.163030,0.533477,-0.311612,0.418454,-0.145666
164,1329486721,0.672825,-0.490591,-0.158157,0.530678,-0.233052,0.304576,-0.151070
165,1329520055,0.675386,-0.491682,-0.152865,0.527959,-0.172795,0.046573,-0.166501
166,1329553389,0.677604,-0.492765,-0.148312,0.525400,-0.075434,0.411351,0.160995
167,1329586723,0.679749,-0.493608,-0.144334,0.522941,0.260499,0.448588,0.389821
168,1329620057,0.682098,-0.493740,-0.141197,0.520607,0.175554,0.246174,0.494546
169,1329653391,0.684384,-0.493424,-0.138639,0.518591,0.442359,0.010557,0.309764
170,1329686725,0.686434,-0.493242,-0.136414,0.516641,0.414523,-0.200764,0.339148
171,1329720059,0.688149,-0.493364,-0.134144,0.514834,0.441298,-0.278658,0.090506
172,1329753393,0.689449,-0.493670,-0.132254,0.513288,0.365038,-0.537601,0.095907
173,1329786727,0.690256,-0.494143,-0.131064,0.512053,0.222910,-0.728780,0.169972
174,1329820061,0.690342,-0.494219,-0.130686,0.511959,0.161846,-0.431666,-0.054388
175,1329853395,0.690048,-0.494064,-0.130152,0.512642,0.327329,-0.270559,-0.140325
176,1329886729,0.689534,-0.494326,-0.129690,0.513197,0.196174,-0.184437,0.108502
177,1329920063,0.689063,-0.494721,-0.128626,0.513717,0.146147,0.280547,0.121235
178,1329953397,0.688926,-0.494753,-0.127145,0.514238,-0.029941,0.463409,0.201187
179,1329986731,0.689261,-0.495141,-0.125048,0.513930,0.218388,0.545890,-0.044922
180,1330020065,0.690107,-0.495567,-0.122758,0.512934,0.026703,0.144346,0.060529
181,1330053399,0.690935,-0.495897,-0.120945,0.511931,0.051646,0.025616,0.229202
182,1330086733,0.691767,-0.495418,-0.119572,0.511593,0.127633,-0.444587,0.221355
183,1330120067,0.692030,-0.495054,-0.118609,0.511814,0.129093,-0.193728,0.008669
184,1330153401,0.692465,-0.494612,-0.116845,0.512059,0.280211,0.367877,0.202737
185,1330186735,0.693343,-0.495010,-0.113774,0.511177,0.268450,0.457324,0.162131
186,1330220069,0.694738,-0.495224,-0.110282,0.509839,-0.007646,0.096481,0.050745
187,1330253403,0.696506,-0.495168,-0.107328,0.508108,-0.121138,0.145896,0.046303
188,1330286737,0.698716,-0.494070,-0.104736,0.506682,-0.066335,-0.024876,-0.103450
189,1330320071,0.700675,-0.492732,-0.102606,0.505715,-0.173905,-0.293846,-0.143822
190,1330353405,0.702136,-0.491956,-0.100143,0.504937,0.004517,0.222471,0.181234
191,1330386739,0.703318,-0.491650,-0.097930,0.504024,-0.065351,-0.034422,0.162453
192,1330420073,0.704246,-0.491341,-0.096508,0.503302,0.237575,-0.180696,0.319985
193,1330453407,0.704914,-0.490522,-0.095521,0.503355,0.151517,-0.221969,0.275669
194,1330486741,0.705154,-0.489437,-0.094336,0.504297,0.331733,-0.205083,0.072945
195,1330520075,0.705051,-0.488978,-0.092886,0.505155,0.305206,-0.179695,0.022108
196,1330553409,0.704944,-0.488019,-0.091730,0.506442,0.263394,-0.313067,-0.082855
197,1330586743,0.704476,-0.487250,-0.090690,0.508018,0.237545,-0.304252,0.232121
198,1330620077,0.703612,-0.486525,-0.089474,0.510121,0.097437,-0.635948,-0.078574
199,1330653411,0.702034,-0.486172,-0.088075,0.512868,-0.161844,-0.671628,-0.403074
200,1330686745,0.700246,-0.485456,-0.085503,0.516414,0.017023,0.189305,0.188997
201,1330720079,0.698769,-0.485149,-0.082075,0.519252,0.228785,0.074182,-0.459816
202,1330753413,0.697781,-0.484778,-0.078690,0.521446,0.152107,0.112564,0.022410
203,1330786747,0.697555,-0.483916,-0.073968,0.523237,0.266128,0.658475,0.277046
204,1330820081,0.697928,-0.482042,-0.068998,0.525144,0.302311,0.322904,-0.181893
205,1330853415,0.697783,-0.480169,-0.064096,0.527669,0.042712,0.011996,-0.175218
206,1330886749,0.697061,-0.478060,-0.057595,0.531275,0.314430,0.376776,0.618209
207,1330920083,0.696968,-0.474368,-0.050503,0.535411,0.089522,-0.243058,-0.242524
208,1330953417,0.697049,-0.469182,-0.045198,0.540328,-0.368901,-0.542690,-0.878531
209,1330986751,0.695879,-0.465426,-0.039972,0.545472,0.195986,-0.126997,-0.630027
210,1331020085,0.693334,-0.463636,-0.032843,0.550687,0.232668,0.119758,-0.033689
211,1331053419,0.691157,-0.460645,-0.024813,0.556326,0.130244,0.700589,-0.214424
212,1331086753,0.690035,-0.457590,-0.016768,0.560525,-0.078189,1.044068,-0.244755
213,1331120087,0.690382,-0.452704,-0.008231,0.564242,-0.288023,0.268399,-0.124839
214,1331153421,0.691004,-0.446647,-0.001807,0.568350,-0.421475,-0.077161,-0.601509
215,1331186755,0.689973,-0.442294,0.006027,0.572960,-0.095852,0.156931,0.297673
216,1331220089,0.688034,-0.437384,0.013774,0.578896,0.072872,0.621571,0.333853
217,1331253423,0.687077,-0.431228,0.021061,0.584405,0.698202,0.929109,0.186990
218,1331286757,0.686857,-0.424196,0.029817,0.589409,1.020329,0.270097,1.066098
219,1331320091,0.686248,-0.415643,0.038159,0.595697,0.549628,-1.038815,0.544201
220,1331353425,0.683629,-0.408835,0.044318,0.602949,0.661927,-0.745351,-0.377263
221,1331386759,0.678379,-0.403345,0.050733,0.612002,1.004171,-1.492993,1.287107
222,1331420093,0.671709,-0.395609,0.054275,0.623988,0.855009,-1.386293,0.476447
223,1331453427,0.663821,-0.390220,0.056216,0.635544,0.233742,0.830683,-1.394499
224,1331486761,0.653912,-0.389287,0.059371,0.646015,0.583609,0.158550,0.792665
225,1331520095,0.645108,-0.389290,0.062555,0.654509,-0.282200,1.036697,1.420491
226,1331553429,0.637272,-0.389216,0.066204,0.661829,0.007534,0.902778,1.121089
227,1331586763,0.630446,-0.389145,0.069242,0.668068,0.380324,0.020905,0.208661
228,1331620097,0.623577,-0.390849,0.071682,0.673243,0.186149,-0.131025,-0.214073
229,1331653431,0.615881,-0.394059,0.073901,0.678199,0.557995,0.529969,0.004628
230,1331686765,0.609931,-0.395718,0.075697,0.682398,0.473879,0.969797,0.949542
231,1331720099,0.606187,-0.396379,0.077490,0.685144,0.102737,0.731218,0.469823
232,1331753433,0.603124,-0.396811,0.079318,0.687384,0.295771,0.060307,0.350467
233,1331786767,0.600340,-0.396390,0.080527,0.689919,0.064519,-0.148447,-0.103184
234,1331820101,0.596356,-0.397501,0.081440,0.692623,0.106913,-0.298366,0.103916
235,1331853435,0.591638,-0.399319,0.081894,0.695563,0.157502,-0.083590,0.224350
236,1331886769,0.587074,-0.400515,0.082491,0.698665,-0.066774,0.448357,-0.185991
237,1331920103,0.582443,-0.401896,0.084093,0.701551,-0.037161,0.500284,0.010709
238,1331953437,0.578433,-0.403962,0.086392,0.703400,-0.385515,0.549739,-0.496231
239,1331986771,0.574844,-0.406597,0.088479,0.704564,-0.423627,0.347235,-0.491059
240,1332020105,0.571321,-0.409544,0.090733,0.705436,-0.143896,0.487713,-0.154318
241,1332053439,0.568323,-0.412721,0.093407,0.705657,-0.125512,0.582622,0.122843
242,1332086773,0.566662,-0.415223,0.095661,0.705223,0.080168,0.619299,0.131773
243,1332120107,0.565516,-0.417961,0.098324,0.704158,0.417724,0.403064,0.463044
244,1332153441,0.565170,-0.420134,0.101302,0.702720,0.398332,0.020094,0.589871
245,1332186775,0.565871,-0.420579,0.103494,0.701568,0.543076,0.232803,0.429971
246,1332220109,0.568539,-0.418363,0.104896,0.700528,0.674638,0.320077,0.164831
247,1332253443,0.573670,-0.412825,0.106100,0.699447,0.689360,0.406609,0.581944
248,1332286777,0.579700,-0.406154,0.108732,0.697976,0.535707,0.448885,0.564354
249,1332320111,0.585077,-0.398625,0.111895,0.697330,0.426101,-0.572745,-0.223570
250,1332353445,0.589890,-0.391119,0.113238,0.697308,-0.131395,-1.260765,-0.571597
251,1332386779,0.593371,-0.386598,0.114424,0.696682,0.096023,-0.372779,0.099986
252,1332420113,0.595231,-0.385571,0.117428,0.695163,-0.120603,-0.581680,0.135340
253,1332453447,0.595985,-0.385439,0.119380,0.694257,-0.421726,-1.232358,-0.411487
254,1332486781,0.595652,-0.385479,0.118773,0.694624,-0.531635,-0.581785,-0.812425
255,1332520115,0.593699,-0.387304,0.117930,0.695424,-0.052129,-0.032312,0.387103
256,1332553449,0.592591,-0.386273,0.116397,0.697200,0.128933,0.534242,0.524331
257,1332586783,0.592393,-0.384029,0.114933,0.698847,0.198926,0.976704,-0.272555
258,1332620117,0.592852,-0.383192,0.114262,0.699028,0.174700,0.790622,-0.343591
259,1332653451,0.593681,-0.383865,0.114381,0.697935,0.171706,0.197406,0.053211
260,1332686785,0.594716,-0.384342,0.114297,0.696804,0.211535,0.124957,0.397607
261,1332720119,0.596609,-0.383424,0.114509,0.695656,0.225458,0.743514,0.337641
262,1332753453,0.600580,-0.381089,0.114261,0.693559,0.030279,0.747498,0.157156
263,1332786787,0.605900,-0.378522,0.114210,0.690339,-0.107354,0.360206,0.454250
264,1332820121,0.611405,-0.375494,0.113532,0.687245,-0.044970,0.014073,0.280409
265,1332853455,0.616607,-0.372494,0.112228,0.684438,0.183309,0.266721,0.005722
266,1332886789,0.621704,-0.369292,0.111121,0.681737,0.579554,0.511637,0.243670
267,1332920123,0.627053,-0.366037,0.110245,0.678729,0.634831,0.116808,0.481592
268,1332953457,0.632167,-0.362925,0.109574,0.675758,0.658078,0.045601,0.419831
269,1332986791,0.637530,-0.358985,0.108033,0.673067,0.667880,-0.290385,0.097690
270,1333020125,0.642576,-0.355024,0.106059,0.670680,0.340510,-0.210952,-0.505947
271,1333053459,0.646747,-0.353248,0.104856,0.667791,0.130213,-0.465606,-0.461062
272,1333086793,0.649206,-0.353393,0.104685,0.665352,0.004774,-0.650690,0.258750
273,1333120127,0.650335,-0.352049,0.104260,0.665027,0.137236,-0.205142,0.541471
274,1333153461,0.650634,-0.350201,0.104071,0.665740,0.276539,0.388907,0.148574
275,1333186795,0.651023,-0.348664,0.104309,0.666129,0.460059,0.438647,0.110942
276,1333220129,0.651551,-0.347808,0.104996,0.665953,0.355945,0.648443,-0.018826
277,1333253463,0.651571,-0.347819,0.106950,0.665616,0.461162,0.709228,0.116814
278,1333286797,0.651192,-0.347896,0.109962,0.665456,0.465936,0.455538,-0.034678
279,1333320131,0.650569,-0.348394,0.112815,0.665327,0.125513,-0.168064,-0.525832
280,1333353465,0.649557,-0.349798,0.115052,0.665196,-0.171633,-0.541292,-0.451113
281,1333386799,0.648224,-0.350513,0.116827,0.665811,-0.039531,-0.602691,0.113141
282,1333420133,0.646774,-0.349576,0.117739,0.667550,-0.156809,-0.230740,-0.276780
283,1333453467,0.645858,-0.348242,0.117472,0.669179,-0.109927,0.235903,-0.046918
284,1333486801,0.645388,-0.346841,0.116975,0.670446,0.054253,0.720312,0.252256
285,1333520135,0.645134,-0.346645,0.117866,0.670636,0.225117,0.631935,0.391747
286,1333553469,0.645716,-0.346878,0.118923,0.669769,0.334459,0.450616,0.305548
287,1333586803,0.647122,-0.346980,0.120235,0.668123,0.395209,0.280373,0.196239
288,1333620137,0.648914,-0.346606,0.121433,0.666359,0.277567,-0.323045,0.032172
289,1333653471,0.650345,-0.346002,0.122231,0.665132,0.182110,-0.454849,-0.140609
290,1333686805,0.650867,-0.345484,0.122814,0.664782,0.219012,-0.493325,-0.051336
291,1333720139,0.650430,-0.344871,0.123023,0.665489,0.210220,-0.456307,0.053204
292,1333753473,0.649271,-0.344202,0.122766,0.667012,0.140593,-0.053955,-0.145260
293,1333786807,0.647296,-0.344489,0.122773,0.668781,0.143424,0.233677,-0.131653
294,1333820141,0.644971,-0.345059,0.123169,0.670658,0.270484,0.222047,0.469177
295,1333853475,0.642561,-0.345318,0.124029,0.672676,0.295788,0.297912,0.369812
296,1333886809,0.639990,-0.345893,0.125470,0.674562,0.207216,0.180505,0.215090
297,1333920143,0.637190,-0.346891,0.126949,0.676421,0.060435,0.097196,-0.260705
298,1333953477,0.633272,-0.349827,0.128956,0.678206,-0.068575,0.183886,-0.609981
299,1333986811,0.629331,-0.352964,0.131035,0.679849,0.231071,-0.077424,0.479931
300,1334020145,0.626912,-0.352445,0.131423,0.682274,0.250846,0.473917,0.383565
301,1334053479,0.625292,-0.351774,0.132356,0.683924,0.111271,0.846657,-0.138947
302,1334086813,0.624439,-0.351783,0.134079,0.684364,0.340075,0.369354,0.326772
303,1334120147,0.624606,-0.351205,0.135563,0.684216,0.054314,0.364830,-0.207760
304,1334153481,0.623877,-0.352754,0.137914,0.683614,-0.264633,0.439087,-0.727520
305,1334186815,0.620016,-0.360054,0.143176,0.682237,-0.206284,0.015818,-0.552635
306,1334220149,0.615103,-0.369284,0.148874,0.680530,-0.172040,-0.705037,0.047575
307,1334253483,0.610453,-0.375878,0.152199,0.680370,-0.173727,-0.389199,-0.043315
308,1334286817,0.606612,-0.380777,0.153212,0.680854,-0.028493,-0.078588,0.025122
309,1334320151,0.603976,-0.384226,0.153085,0.681289,0.094283,0.081557,0.573370
310,1334353485,0.602737,-0.385657,0.152020,0.681816,0.266948,0.321991,0.472201
311,1334386819,0.602840,-0.385824,0.150748,0.681913,0.426793,0.379784,0.636851
312,1334420153,0.604663,-0.384131,0.149231,0.681588,0.524870,0.466637,0.491614
313,1334453487,0.607808,-0.381128,0.148030,0.680738,0.554205,0.452206,0.235457
314,1334486821,0.611641,-0.377448,0.147186,0.679537,0.534930,0.091365,0.307822
315,1334520155,0.615584,-0.372912,0.146272,0.678678,0.341799,-0.169371,0.003423
316,1334553489,0.618567,-0.369005,0.145232,0.678325,0.245615,-0.363794,-0.205239
317,1334586823,0.620054,-0.366455,0.144429,0.678520,0.172367,-0.371459,-0.000747
318,1334620157,0.619757,-0.365302,0.143928,0.679519,0.252395,-0.253494,-0.130222
319,1334653491,0.617796,-0.365686,0.143760,0.681132,0.101696,-0.157757,-0.210735
320,1334686825,0.614584,-0.367476,0.143501,0.683127,0.038416,-0.114186,-0.105730
321,1334720159,0.611300,-0.369403,0.142499,0.685239,0.049476,0.160936,-0.086162
322,1334753493,0.608061,-0.371217,0.141645,0.687315,0.009585,0.272003,0.205405
323,1334786827,0.605851,-0.371461,0.140478,0.689372,0.053444,0.349479,0.364211
324,1334820161,0.604393,-0.371323,0.139511,0.690920,-0.043155,0.475498,-0.139718
325,1334853495,0.603283,-0.371520,0.138643,0.691959,0.110720,0.319443,-0.099953
326,1334886829,0.603269,-0.371176,0.137556,0.692372,0.336298,0.222923,0.240486
327,1334920163,0.604090,-0.370581,0.136474,0.692189,0.588816,-0.018117,0.477501
328,1334953497,0.605924,-0.369746,0.135306,0.691262,0.963034,-0.224284,0.615702
329,1334986831,0.609276,-0.367579,0.134083,0.689708,0.322174,0.341016,-0.218313
330,1335020165,0.612466,-0.369171,0.133863,0.686065,0.874760,1.394313,1.312157
331,1335053499,0.617179,-0.372587,0.134364,0.679869,0.612716,0.794596,2.030848
332,1335086833,0.623987,-0.377857,0.135606,0.670433,-0.435227,1.237317,0.119905
333,1335120167,0.632871,-0.385145,0.132203,0.658534,-0.259331,1.857300,1.633832
334,1335153501,0.643189,-0.393154,0.126030,0.644872,0.070144,0.178531,1.530962
335,1335186835,0.652965,-0.400042,0.117447,0.632309,-0.105285,-0.988081,0.429786
336,1335220169,0.660682,-0.406175,0.107619,0.622049,0.203439,-0.767011,-0.017163
337,1335253503,0.667026,-0.411478,0.097423,0.613414,0.235423,-0.257975,-0.099272
338,1335286837,0.672361,-0.415965,0.087030,0.606082,0.439938,0.214245,-0.016700
339,1335320171,0.676907,-0.418692,0.076743,0.600508,0.557645,-0.294490,-0.183666
340,1335353505,0.681210,-0.420219,0.066310,0.595800,0.431608,-0.145022,-0.367388
341,1335386839,0.684400,-0.422907,0.057801,0.591111,0.519512,-0.277318,-0.177186
342,1335420173,0.686759,-0.424662,0.048797,0.587919,-0.045380,-0.519547,-0.370816
343,1335453507,0.688508,-0.428279,0.040345,0.583876,-0.006071,0.641934,-0.839983
344,1335486841,0.689621,-0.434108,0.035288,0.578561,-0.085793,-0.438716,0.114535
345,1335520175,0.690723,-0.438055,0.029032,0.574607,-0.559058,-0.654138,0.137296
346,1335553509,0.691148,-0.439538,0.020933,0.573314,-0.106960,-0.047164,-0.038292
347,1335586843,0.691731,-0.441068,0.013799,0.571649,0.388997,-0.065465,-0.151425
348,1335620177,0.692082,-0.443391,0.006377,0.569554,0.403543,-0.184900,0.054270
349,1335653511,0.692501,-0.444879,-0.001227,0.567917,0.388912,0.377598,0.009263
350,1335686845,0.692679,-0.448002,-0.008041,0.565183,0.586715,0.250969,0.087465
351,1335720179,0.693034,-0.451410,-0.013785,0.561915,0.619240,0.472945,0.725945
352,1335753513,0.694181,-0.454209,-0.019816,0.558050,0.422286,0.473473,0.054268
353,1335786847,0.695832,-0.457154,-0.027441,0.553246,0.020827,0.412243,0.092165
354,1335820181,0.697160,-0.460525,-0.033626,0.548415,0.356566,-0.243588,-0.257858
355,1335853515,0.697131,-0.464065,-0.040532,0.544991,-0.289392,-0.494667,0.214054
356,1335886849,0.696065,-0.465862,-0.047881,0.544225,-0.325579,0.066608,0.065093
357,1335920183,0.694430,-0.467540,-0.054445,0.544256,-0.117590,-0.269225,-0.148037
358,1335953517,0.692586,-0.469814,-0.061249,0.543924,-0.084583,-0.761673,-0.000806
359,1335986851,0.690592,-0.470450,-0.069620,0.544902,-0.098195,0.139022,0.152563
360,1336020185,0.688256,-0.471555,-0.077500,0.545838,0.147020,0.498622,-0.150229
361,1336053519,0.686416,-0.474614,-0.083185,0.544666,0.479839,0.072914,-0.078094
362,1336086853,0.685454,-0.477734,-0.087770,0.542426,-0.362182,-0.009982,0.041990
363,1336120187,0.684768,-0.479181,-0.094361,0.540907,-0.158538,0.072962,-0.035838
364,1336153521,0.683980,-0.480990,-0.101415,0.539018,0.454314,-0.204768,0.097697
365,1336186855,0.682792,-0.484010,-0.107400,0.536657,0.193803,-0.349205,-0.228728
366,1336220189,0.681389,-0.487028,-0.112909,0.534575,-0.203847,-0.223060,-0.308624
367,1336253523,0.679721,-0.489839,-0.118165,0.532991,-0.234334,0.063293,-0.379843
368,1336286857,0.678388,-0.491750,-0.122809,0.531878,-0.331630,0.348444,-0.228796
369,1336320191,0.677475,-0.493645,-0.127134,0.530269,-0.180182,0.463666,-0.107027
370,1336353525,0.677273,-0.494511,-0.131698,0.528604,0.137929,0.276396,0.075879
371,1336386859,0.677562,-0.495084,-0.135546,0.526721,0.038147,0.261456,0.327107
372,1336420193,0.677531,-0.495996,-0.139168,0.524955,0.273111,0.160123,-0.017453
373,1336453527,0.676907,-0.498075,-0.142222,0.522969,0.199651,-0.040360,-0.088246
374,1336486861,0.675919,-0.500267,-0.145051,0.521376,-0.018486,-0.026674,0.066095
375,1336520195,0.674703,-0.501551,-0.148752,0.520674,0.323919,0.119521,0.281805
376,1336553529,0.673562,-0.502626,-0.152840,0.519930,0.261970,-0.059078,0.223345
377,1336586863,0.672732,-0.503446,-0.156373,0.519160,-0.351088,0.047775,-0.158981
378,1336620197,0.671545,-0.504670,-0.159884,0.518438,-0.265377,0.065405,-0.366693
379,1336653531,0.670154,-0.506726,-0.162816,0.517319,-0.256987,-0.108226,-0.342425
380,1336686865,0.668962,-0.508453,-0.165486,0.516319,-0.650138,-0.139444,-0.088543
381,1336720199,0.668040,-0.509699,-0.168287,0.515378,-0.246429,0.341507,0.065858
382,1336753533,0.667279,-0.510305,-0.171767,0.514616,0.402399,0.181670,0.285522
383,1336786867,0.666544,-0.511905,-0.174666,0.513001,0.386314,-0.331614,0.512723
384,1336820201,0.665541,-0.512948,-0.178799,0.511838,0.128750,-0.363880,0.494837
385,1336853535,0.664100,-0.513825,-0.183947,0.511003,0.184453,-0.005187,0.100842
386,1336886869,0.662295,-0.515979,-0.188779,0.509411,0.206459,0.176258,0.147170
387,1336920203,0.660515,-0.519375,-0.192844,0.506742,-0.086232,0.095465,0.300003
388,1336953537,0.659149,-0.522200,-0.197345,0.503876,-0.164424,0.345243,0.130373
389,1336986871,0.658071,-0.524800,-0.202598,0.500488,0.132780,0.356941,0.098499
390,1337020205,0.657463,-0.527758,-0.207555,0.496126,0.156221,0.336505,0.058189
391,1337053539,0.657522,-0.530825,-0.211845,0.490935,0.089065,0.185575,0.145790
392,1337086873,0.657866,-0.533983,-0.216075,0.485172,0.288150,0.183151,0.029661
393,1337120207,0.658363,-0.537365,-0.220743,0.478619,0.566659,0.196004,0.005708
394,1337153541,0.659231,-0.541548,-0.225149,0.470590,0.647116,0.110721,0.197345
395,1337186875,0.660156,-0.545904,-0.229622,0.462020,0.585770,-0.050240,0.173425
396,1337220209,0.661350,-0.550354,-0.234407,0.452533,0.431052,-0.062566,0.114278
397,1337253543,0.662905,-0.555278,-0.238514,0.441973,0.097811,-0.085242,-0.071256
398,1337286877,0.664504,-0.559675,-0.243053,0.431427,-0.199183,-0.493510,-0.043156
399,1337320211,0.666074,-0.563634,-0.247697,0.421086,-0.332412,-0.470763,0.034033
400,1337353545,0.667385,-0.566982,-0.252291,0.411684,-0.145447,-0.522370,-0.005138
401,1337386879,0.668359,-0.569641,-0.257116,0.403365,-0.354532,-0.506301,-0.002218
402,1337420213,0.669131,-0.571796,-0.262178,0.395705,0.080944,-0.119023,0.119105
403,1337453547,0.670348,-0.573194,-0.267124,0.388243,0.186955,-0.098435,0.172336
404,1337486881,0.672040,-0.575105,-0.270617,0.379986,0.133451,-0.145587,-0.058968
405,1337520215,0.673764,-0.577173,-0.273475,0.371659,-0.015817,0.010695,0.106653
406,1337553549,0.675690,-0.579532,-0.275698,0.362743,0.090972,0.179985,0.092276
407,1337586883,0.677668,-0.581839,-0.277935,0.353536,-0.057496,0.276334,-0.001204
408,1337620217,0.679577,-0.584277,-0.280439,0.343738,0.231583,-0.098916,0.062394
409,1337653551,0.681024,-0.586751,-0.283435,0.334066,0.221044,-0.439096,0.084620
410,1337686885,0.682148,-0.589502,-0.286146,0.324480,0.094161,-0.371574,0.071081
411,1337720219,0.682816,-0.591704,-0.289570,0.315917,-0.275307,-0.169597,0.134904
412,1337753553,0.683244,-0.593149,-0.293940,0.308152,-0.236771,0.212379,0.137622
413,1337786887,0.683392,-0.593973,-0.299015,0.301275,-0.320557,-0.066071,-0.036964
414,1337820221,0.682684,-0.594901,-0.304761,0.295232,-0.218468,-0.066239,0.011024
415,1337853555,0.681918,-0.596316,-0.310017,0.288601,-0.321804,-0.153648,-0.013734
416,1337886889,0.681172,-0.598011,-0.314326,0.282121,-0.520773,-0.227152,0.173031
417,1337920223,0.680957,-0.599597,-0.316970,0.276255,-0.481579,-0.380130,0.130827
418,1337953557,0.681318,-0.600897,-0.318308,0.270949,-0.286967,-0.239299,0.090982
419,1337986891,0.681826,-0.601739,-0.319542,0.266311,0.110348,-0.387561,0.249207
420,1338020225,0.682571,-0.602444,-0.320480,0.261642,0.312761,-0.353615,0.109253
421,1338053559,0.682993,-0.602530,-0.322476,0.257864,0.124589,-0.278390,0.116837
422,1338086893,0.683418,-0.602541,-0.324172,0.254565,-0.180424,-0.227351,0.217933
423,1338120227,0.683939,-0.602734,-0.325011,0.251621,-0.070093,-0.315696,0.020353
424,1338153561,0.683507,-0.602645,-0.327522,0.249743,-0.100690,-0.175078,0.051738
425,1338186895,0.683037,-0.602425,-0.330321,0.247868,-0.426511,-0.040586,0.126051
426,1338220229,0.682507,-0.601614,-0.333619,0.246877,-0.620884,0.279790,0.319728
427,1338253563,0.682344,-0.600829,-0.335774,0.246319,-0.422436,0.129382,0.166903
428,1338286897,0.682000,-0.600732,-0.337242,0.245500,-0.502890,-0.008287,-0.020352
429,1338320231,0.680853,-0.600760,-0.339384,0.245664,-0.793719,-0.088267,0.342968
430,1338353565,0.679690,-0.600026,-0.342112,0.246889,-0.451549,-0.253208,0.234629
431,1338386899,0.678721,-0.598395,-0.345933,0.248189,0.122814,0.153070,0.008246
432,1338420233,0.677339,-0.596657,-0.350251,0.250085,0.270938,0.526755,0.232949
433,1338453567,0.676088,-0.595672,-0.353070,0.251849,0.598336,0.223519,0.029545
434,1338486901,0.674401,-0.595856,-0.355753,0.252158,0.792115,0.242175,0.018863
435,1338520235,0.672599,-0.597038,-0.358082,0.250877,0.397812,-0.052546,0.154530
436,1338553569,0.670527,-0.598054,-0.361462,0.249152,0.134438,-0.547703,-0.064736
437,1338586903,0.667274,-0.598183,-0.368352,0.247478,0.075231,-0.247782,-0.135452
438,1338620237,0.663158,-0.598021,-0.377201,0.245596,-0.307404,0.229140,0.234497
439,1338653571,0.659213,-0.597692,-0.384797,0.245233,-0.830798,0.224405,0.273828
440,1338686905,0.655532,-0.598025,-0.390585,0.245137,-0.624567,0.328378,0.160277
441,1338720239,0.651447,-0.598343,-0.396635,0.245536,-0.442421,0.073913,0.123629
442,1338753573,0.647091,-0.598616,-0.402621,0.246645,-0.718925,0.016032,0.262204
443,1338786907,0.642919,-0.598559,-0.408422,0.248152,-0.589235,0.124881,0.334022
444,1338820241,0.638948,-0.598302,-0.414066,0.249671,-0.366130,0.327806,0.147106
445,1338853575,0.635196,-0.598808,-0.418388,0.250824,-0.229146,0.351155,0.067782
446,1338886909,0.631246,-0.600199,-0.421749,0.251840,-0.312709,0.201845,0.151039
447,1338920243,0.627641,-0.601953,-0.424334,0.252320,-0.400720,0.199766,0.222743
448,1338953577,0.624438,-0.603873,-0.426136,0.252642,-0.338393,0.159464,0.253292
449,1338986911,0.620897,-0.605002,-0.428555,0.254568,-0.409641,-0.060174,0.210022
450,1339020245,0.617123,-0.605724,-0.431359,0.257280,-0.113366,0.127617,0.153971
451,1339053579,0.613882,-0.606855,-0.432907,0.259757,0.059253,-0.079276,-0.002978
452,1339086913,0.610265,-0.608154,-0.434445,0.262658,0.023597,0.101272,0.035291
453,1339120247,0.606668,-0.609774,-0.435672,0.265190,0.023155,0.131466,0.201201
454,1339153581,0.603252,-0.611459,-0.436665,0.267459,-0.038165,-0.251251,0.205001
455,1339186915,0.600050,-0.612846,-0.437461,0.270173,-0.129148,-0.045881,0.127636
456,1339220249,0.596783,-0.613866,-0.438437,0.273492,-0.069845,-0.029919,0.156091
457,1339253583,0.593409,-0.614832,-0.439534,0.276882,-0.038828,-0.038497,0.013270
458,1339286917,0.589725,-0.616251,-0.440710,0.279712,0.001059,0.074939,-0.004700
459,1339320251,0.586277,-0.618164,-0.441403,0.281641,0.014485,0.110966,0.226398
460,1339353585,0.583441,-0.620225,-0.441523,0.282807,0.078558,0.054965,0.227756
461,1339386919,0.581797,-0.622438,-0.440543,0.282863,-0.013142,-0.208600,0.234196
462,1339420253,0.580576,-0.624148,-0.439236,0.283635,-0.185552,-0.634630,0.277561
463,1339453587,0.579362,-0.624804,-0.438487,0.285825,-0.192569,-0.683684,0.136447
464,1339486921,0.577838,-0.624375,-0.438746,0.289424,-0.145039,-0.540339,0.049103
465,1339520255,0.575715,-0.623282,-0.439967,0.294120,0.019687,-0.462103,0.100602
466,1339553589,0.573539,-0.621937,-0.441319,0.299150,0.245526,-0.150376,0.133531
467,1339586923,0.571581,-0.620876,-0.442211,0.303748,0.363272,-0.092717,0.194263
468,1339620257,0.570166,-0.620368,-0.442373,0.307190,0.313845,-0.328362,0.247110
469,1339653591,0.568855,-0.619933,-0.442589,0.310172,0.290903,-0.546290,0.206333
470,1339686925,0.567024,-0.619660,-0.443361,0.312958,0.221626,-0.557743,0.066935
471,1339720259,0.564561,-0.619303,-0.444959,0.315834,0.191821,-0.259308,0.022616
472,1339753593,0.561567,-0.618737,-0.447331,0.318918,0.237670,-0.101869,0.001561
473,1339786927,0.558480,-0.618215,-0.449847,0.321799,0.144254,0.006234,-0.002633
474,1339820261,0.555343,-0.617595,-0.452601,0.324543,0.108655,0.087378,-0.046877
475,1339853595,0.552376,-0.617090,-0.455250,0.326855,0.085217,-0.013363,0.014763
476,1339886929,0.549371,-0.616332,-0.457775,0.329808,-0.275618,-0.039737,0.028885
477,1339920263,0.546112,-0.615442,-0.460573,0.332975,-0.186489,0.150137,0.003614
478,1339953597,0.541730,-0.614395,-0.465052,0.335828,0.123412,0.240830,0.268588
479,1339986931,0.537828,-0.613627,-0.469369,0.337494,-0.059065,0.301407,0.156780
480,1340020265,0.536558,-0.614326,-0.470687,0.336406,-0.444577,-0.132617,0.239938
481,1340053599,0.536868,-0.615084,-0.470031,0.335442,-0.683096,-0.540459,0.334461
482,1340086933,0.537068,-0.614893,-0.469356,0.336415,-0.696954,-0.597708,0.256876
483,1340120267,0.536342,-0.613975,-0.469631,0.338858,-0.408599,-0.415439,0.170355
484,1340153601,0.535058,-0.612791,-0.470627,0.341637,-0.124385,-0.222668,0.109220
485,1340186935,0.534078,-0.611397,-0.471508,0.344442,0.076261,-0.079717,0.108740
486,1340220269,0.533775,-0.610428,-0.471724,0.346329,0.388561,0.169761,0.035721
487,1340253603,0.534147,-0.610886,-0.471149,0.345731,0.374803,0.239819,0.005406
488,1340286937,0.535366,-0.612796,-0.469586,0.342576,0.054701,0.038093,0.087013
489,1340320271,0.536643,-0.614991,-0.467862,0.338985,-0.407765,-0.211249,0.229970
490,1340353605,0.537713,-0.616440,-0.466392,0.336678,-0.688450,-0.329743,0.210258
491,1340386939,0.538249,-0.616923,-0.465653,0.335957,-0.638134,-0.312396,0.193242
492,1340420273,0.538007,-0.616577,-0.465906,0.336629,-0.424344,-0.183568,0.223511
493,1340453607,0.537245,-0.615796,-0.466671,0.338212,-0.133770,-0.099257,0.138599
494,1340486941,0.536619,-0.614947,-0.467265,0.339926,0.088142,0.048655,0.086433
495,1340520275,0.536536,-0.614372,-0.467427,0.340872,0.159135,0.095423,0.085745
496,1340553609,0.536605,-0.614211,-0.467554,0.340879,0.064320,0.008125,0.096286
497,1340586943,0.536443,-0.614228,-0.467981,0.340518,-0.173604,-0.028169,0.085964
498,1340620277,0.536020,-0.614195,-0.468646,0.340330,-0.350345,-0.161257,0.169772
499,1340653611,0.535722,-0.613963,-0.469190,0.340468,-0.307012,-0.171485,0.179796
500,1340686945,0.535536,-0.613727,-0.469564,0.340669,-0.188827,-0.080232,0.150743
501,1340720279,0.535382,-0.613605,-0.469842,0.340749,-0.084078,-0.007874,0.076048
502,1340753613,0.535402,-0.613729,-0.469951,0.340344,0.065143,-0.000317,0.114478
503,1340786947,0.535629,-0.614182,-0.469921,0.339208,0.181817,-0.015816,0.101470
504,1340820281,0.536235,-0.615018,-0.469480,0.337342,0.018357,-0.046353,0.112777
505,1340853615,0.537108,-0.616001,-0.468779,0.335126,-0.093080,-0.170642,0.131640
506,1340886949,0.537699,-0.616636,-0.468442,0.333478,-0.153167,-0.305887,0.192526
507,1340920283,0.537839,-0.616709,-0.468579,0.332924,-0.215918,-0.317375,0.227275
508,1340953617,0.537724,-0.616278,-0.469083,0.333200,-0.210761,-0.239881,0.147324
509,1340986951,0.537390,-0.615681,-0.469807,0.333822,-0.083124,-0.166495,0.119601
510,1341020285,0.537341,-0.615279,-0.470206,0.334079,-0.105012,-0.015789,0.112918
511,1341053619,0.537479,-0.614959,-0.470393,0.334183,-0.177399,0.042823,0.075713
512,1341086953,0.537747,-0.614697,-0.470477,0.334116,-0.181797,0.012925,0.057046
513,1341120287,0.537776,-0.614438,-0.470750,0.334158,-0.164605,-0.177692,0.165973
514,1341153621,0.537480,-0.613958,-0.471278,0.334775,-0.211226,-0.191331,0.171843
515,1341186955,0.537180,-0.613465,-0.471760,0.335481,-0.223569,-0.088515,0.099339
516,1341220289,0.536837,-0.612920,-0.472313,0.336246,-0.139959,-0.074705,0.106777
517,1341253623,0.536292,-0.612275,-0.473019,0.337297,-0.152643,-0.182075,0.153985
518,1341286957,0.535292,-0.611262,-0.474118,0.339175,-0.274530,-0.309847,0.194362
519,1341320291,0.533880,-0.609854,-0.475557,0.341910,-0.267216,-0.334563,0.184691
520,1341353625,0.532139,-0.608055,-0.477352,0.345309,-0.258076,-0.299941,0.198441
521,1341386959,0.530011,-0.605506,-0.479732,0.349734,-0.288578,-0.385148,0.156758
522,1341420293,0.527347,-0.602565,-0.482407,0.355119,-0.230327,-0.278551,0.123558
523,1341453627,0.524715,-0.599980,-0.484714,0.360216,-0.109329,-0.126247,0.124573
524,1341486961,0.522577,-0.598003,-0.486331,0.364408,-0.022139,0.040387,0.134226
525,1341520295,0.521441,-0.597163,-0.486852,0.366711,-0.034126,0.271394,0.137741
526,1341553629,0.521543,-0.597293,-0.486111,0.367336,-0.013528,0.001463,-0.032664
527,1341586963,0.521550,-0.598021,-0.485022,0.367581,0.070784,-0.309657,-0.171058
528,1341620297,0.520723,-0.599536,-0.484136,0.367456,0.278245,-0.062237,-0.040054
529,1341653631,0.519232,-0.601159,-0.484190,0.366840,0.485496,0.471195,0.147977
530,1341686965,0.518109,-0.602954,-0.484837,0.364622,0.544051,0.865500,0.335358
531,1341720299,0.518331,-0.604670,-0.485201,0.360960,0.216599,0.674448,0.282773