sep=,
DeviceTag:,D_Wrist
FirmwareVersion:,2.2.1
AppVersion:,2023.6.0
SyncStatus:,Synced
OutputRate:,30Hz
FilterProfile:,General
Measurement Mode:,Sensor fusion Mode - Complete(Quaternion)
StartTime: ,2026-09-15_14:18:16_249 AEST
© Movella Technologies B. V. 2005-2026

PacketCounter,SampleTimeFine,Quat_W,Quat_X,Quat_Y,Quat_Z,FreeAcc_X,FreeAcc_Y,FreeAcc_Z
1,1070275656,0.687631,-0.593869,-0.125687,0.398359,0.666047,-0.175143,-0.476304
2,1070308990,0.693651,-0.589901,-0.125965,0.393703,1.539798,-0.701220,-1.620140
3,1070342324,0.697264,-0.586248,-0.129378,0.391666,1.858204,0.248125,-0.607389
4,1070375658,0.700012,-0.581286,-0.135374,0.392131,2.460270,0.271111,-0.906141
5,1070408992,0.698799,-0.578217,-0.144661,0.395502,2.747645,0.757058,-0.279497
6,1070442326,0.695746,-0.574523,-0.155916,0.401939,2.097214,1.125148,0.129837
7,1070475660,0.693652,-0.568203,-0.167441,0.409829,1.535151,1.118580,-0.265449
8,1070508994,0.691181,-0.562278,-0.179072,0.417191,0.483673,1.646049,-0.252353
9,1070542328,0.689311,-0.557118,-0.190103,0.422297,0.010607,1.469545,-0.113018
10,1070575662,0.688806,-0.553891,-0.199454,0.423052,-0.087564,1.414200,-0.247593
11,1070608996,0.688659,-0.554424,-0.206255,0.419316,-0.780971,1.829682,0.058645
12,1070642330,0.691677,-0.556506,-0.207089,0.411099,-0.537431,2.081651,0.714185
13,1070675664,0.702708,-0.555736,-0.198743,0.397321,-0.803200,2.579593,0.361237
14,1070708998,0.720162,-0.553289,-0.183300,0.376354,-0.744869,2.809226,-0.673247
15,1070742332,0.740571,-0.551906,-0.165057,0.345998,-0.455911,2.670825,-1.603294
16,1070775666,0.761277,-0.552387,-0.147858,0.305726,-0.092090,2.095448,-1.944171
17,1070809000,0.782888,-0.551268,-0.132914,0.255986,0.364375,1.284560,-2.125774
18,1070842334,0.807709,-0.541960,-0.120143,0.198636,0.935258,-0.041136,-1.477034
19,1070875668,0.832543,-0.525199,-0.110797,0.136992,0.857395,-0.795614,-0.648229
20,1070909002,0.854011,-0.503803,-0.105930,0.075036,0.352371,-2.056116,0.287497
21,1070942336,0.867417,-0.485909,-0.105972,0.015949,0.363493,-3.302485,0.762082
22,1070975670,0.871540,-0.476372,-0.109942,-0.037492,-0.864738,-3.303101,0.211362
23,1071009004,0.870385,-0.471834,-0.115282,-0.080725,-1.139758,-2.649061,2.552530
24,1071042338,0.866681,-0.469611,-0.122143,-0.115825,-1.176107,-2.720285,1.107611
25,1071075672,0.861882,-0.468057,-0.129507,-0.145990,-1.176693,-1.911892,-0.032588
26,1071109006,0.856216,-0.466939,-0.136899,-0.173563,-0.840356,-1.740331,0.003609
27,1071142340,0.849249,-0.467340,-0.145040,-0.198335,-0.726990,-1.364865,0.103721
28,1071175674,0.842266,-0.467413,-0.153995,-0.220007,-0.479583,-1.385091,1.452420
29,1071209008,0.834056,-0.471746,-0.161326,-0.236185,-0.099200,-1.713394,1.023036
30,1071242342,0.825869,-0.478611,-0.166967,-0.246979,-0.329295,-0.970917,1.143945
31,1071275676,0.820087,-0.483154,-0.172863,-0.253263,-0.370735,-0.787630,0.996006
32,1071309010,0.816461,-0.485047,-0.179435,-0.256762,-0.421923,-0.725293,0.576887
33,1071342344,0.814124,-0.485635,-0.185292,-0.258906,-0.215370,-0.327211,0.744726
34,1071375678,0.811977,-0.487355,-0.189037,-0.259706,-0.158824,-0.557090,0.636922
35,1071409012,0.808883,-0.492177,-0.190659,-0.259079,-0.195751,-0.810222,0.500674
36,1071442346,0.802209,-0.503954,-0.189930,-0.257726,0.012165,-0.824971,0.285838
37,1071475680,0.793013,-0.519660,-0.188783,-0.255830,-0.179116,-0.273509,0.477981
38,1071509014,0.786030,-0.531523,-0.188810,-0.252970,-0.334721,-0.221072,0.321322
39,1071542348,0.781427,-0.539017,-0.190341,-0.250214,-0.274004,-0.930952,0.014590
40,1071575682,0.778088,-0.544636,-0.191399,-0.247631,-0.350105,-0.390814,0.332900
41,1071609016,0.775467,-0.549644,-0.191547,-0.244655,-0.432659,-0.106447,0.345912
42,1071642350,0.772599,-0.555339,-0.191511,-0.240867,-0.529862,-0.409774,0.548389
43,1071675684,0.769968,-0.561171,-0.191583,-0.235663,-0.720657,-0.516135,0.735835
44,1071709018,0.767967,-0.566419,-0.192175,-0.229061,-0.601962,-0.751182,0.292719
45,1071742352,0.765752,-0.571936,-0.194506,-0.220645,-0.842634,-0.726154,0.343860
46,1071775686,0.764337,-0.576607,-0.198741,-0.209330,-0.859141,-0.111747,1.070517
47,1071809020,0.763881,-0.581262,-0.201005,-0.195502,-0.442740,-0.859691,0.699293
48,1071842354,0.762833,-0.587800,-0.199852,-0.180664,-0.350427,-1.172129,0.371354
49,1071875688,0.760765,-0.596441,-0.196208,-0.164319,-0.388978,-0.680145,0.657497
50,1071909022,0.757890,-0.606296,-0.191264,-0.146385,-0.305761,-0.785476,0.573405
51,1071942356,0.757528,-0.612042,-0.188225,-0.127004,-1.289203,-0.997837,-0.201083
52,1071975690,0.754341,-0.620256,-0.186938,-0.106352,-1.139420,0.442146,-0.000325
53,1072009024,0.755657,-0.621362,-0.188857,-0.085026,-1.570976,-0.624537,0.144345
54,1072042358,0.760281,-0.617656,-0.190948,-0.063371,-0.811246,-1.550324,0.095915
55,1072075692,0.763576,-0.615626,-0.190659,-0.040112,-1.023429,-0.674122,0.801872
56,1072109026,0.764726,-0.615654,-0.189722,-0.013219,-1.089655,-1.213436,0.383926
57,1072142360,0.760994,-0.620449,-0.188729,0.017771,-0.969290,-1.932915,1.224506
58,1072175694,0.755554,-0.625223,-0.188305,0.052727,-1.554213,-0.954546,1.294019
59,1072209028,0.749585,-0.628120,-0.187233,0.092390,-1.031483,-1.983170,1.322132
60,1072242362,0.745191,-0.626846,-0.182806,0.135428,-1.442886,-0.575577,2.593920
61,1072275696,0.743322,-0.620387,-0.174724,0.179075,-1.314168,-0.116386,1.522888
62,1072309030,0.737897,-0.615262,-0.164181,0.223627,-0.699820,-0.406350,1.047166
63,1072342364,0.731685,-0.608116,-0.152315,0.267650,-0.829003,0.684659,1.006938
64,1072375698,0.725444,-0.599337,-0.139067,0.308530,-1.049045,0.575955,0.373807
65,1072409032,0.716425,-0.593048,-0.127248,0.344734,-1.585891,1.300454,0.540402
66,1072442366,0.706434,-0.588923,-0.115990,0.375060,-1.666320,0.410628,0.925901
67,1072475700,0.699895,-0.584462,-0.104325,0.397078,-1.196053,0.865057,0.773348
68,1072509034,0.699766,-0.578551,-0.089448,0.409401,-1.432357,1.678903,-0.299215
69,1072542368,0.701488,-0.576969,-0.075247,0.411537,-0.379006,1.566817,-0.950365
70,1072575702,0.706177,-0.577886,-0.063318,0.404175,1.222205,1.960749,-0.746722
71,1072609036,0.707167,-0.586168,-0.055072,0.391526,2.018074,1.764180,-2.067637
72,1072642370,0.712052,-0.590359,-0.046932,0.377173,3.081121,0.548658,-0.553200
73,1072675704,0.726427,-0.581670,-0.037914,0.364048,3.043212,0.604021,-1.604655
74,1072709038,0.737188,-0.576054,-0.031368,0.351760,3.353301,0.565281,-2.512899
75,1072742372,0.742249,-0.575727,-0.026193,0.341941,3.284944,-0.010372,-1.418122
76,1072775706,0.747326,-0.571750,-0.020998,0.337889,3.306682,0.296777,-1.936498
77,1072809040,0.745741,-0.571913,-0.020084,0.341156,3.034395,-0.233253,-2.730556
78,1072842374,0.740085,-0.572350,-0.026414,0.352130,3.430304,-0.086402,-1.966730
79,1072875708,0.735457,-0.567412,-0.035845,0.368600,2.985181,1.115452,-1.858841
80,1072909042,0.729415,-0.562395,-0.048068,0.386470,0.876229,-0.014859,-0.997465
81,1072942376,0.720544,-0.560976,-0.062164,0.402816,1.251659,0.849878,0.082645
82,1072975710,0.709741,-0.562685,-0.076860,0.416833,-0.609318,-0.058661,0.568297
83,1073009044,0.702668,-0.560932,-0.091542,0.428062,-0.999932,1.055053,1.140926
84,1073042378,0.695946,-0.560118,-0.103257,0.437343,-1.538114,0.627888,1.058760
85,1073075712,0.691929,-0.557710,-0.111464,0.444716,-1.539706,0.460215,1.740933
86,1073109046,0.688146,-0.557470,-0.117977,0.449185,-0.909388,1.377871,0.885289
87,1073142380,0.683289,-0.560351,-0.122660,0.451754,-0.099861,0.680143,0.965958
88,1073175714,0.681023,-0.560925,-0.123503,0.454227,0.115939,1.796238,0.957557
89,1073209048,0.682830,-0.557551,-0.119590,0.456708,0.588250,1.289463,0.586324
90,1073242382,0.684889,-0.554264,-0.112238,0.459484,0.742379,1.645683,-0.095532
91,1073275716,0.687603,-0.552175,-0.101638,0.460412,0.491902,1.788019,0.379363
92,1073309050,0.694078,-0.547307,-0.088212,0.459275,0.151412,1.586613,-0.558865
93,1073342384,0.701966,-0.542948,-0.074570,0.454856,0.231134,1.425045,-1.295556
94,1073375718,0.710810,-0.540167,-0.061563,0.446300,0.343119,1.313935,-1.299108
95,1073409052,0.722100,-0.537094,-0.048857,0.433265,0.201932,1.371322,-1.582793
96,1073442386,0.734546,-0.535082,-0.036616,0.415684,0.417719,0.636299,-2.048084
97,1073475720,0.746658,-0.535798,-0.026459,0.393353,0.571806,0.776473,-1.929827
98,1073509054,0.760372,-0.536877,-0.016764,0.365131,0.288597,0.902145,-1.914548
99,1073542388,0.778242,-0.534197,-0.008556,0.330007,0.105380,0.542151,-2.015311
100,1073575722,0.795596,-0.532826,-0.005615,0.288265,0.473968,0.345835,-1.956073
101,1073609056,0.812705,-0.530784,-0.008267,0.240238,0.000309,0.613056,-0.823629
102,1073642390,0.832377,-0.521589,-0.016512,0.186612,0.240752,-0.455585,-2.126638
103,1073675724,0.847033,-0.514624,-0.027281,0.130221,-0.124511,0.209243,-0.609237
104,1073709058,0.859986,-0.503982,-0.038448,0.070367,0.205469,-0.528285,1.465624
105,1073742392,0.869774,-0.491109,-0.046585,0.011757,-0.816884,-2.171604,0.950076
106,1073775726,0.871157,-0.486237,-0.052625,-0.043506,-0.692970,-2.402276,0.932435
107,1073809060,0.869866,-0.481026,-0.055202,-0.094359,-1.824195,-1.940988,1.259003
108,1073842394,0.868936,-0.470694,-0.058779,-0.141231,-1.880599,-2.730971,0.549814
109,1073875728,0.868646,-0.455748,-0.066302,-0.182637,-1.707187,-2.093419,0.798174
110,1073909062,0.866608,-0.441700,-0.078971,-0.218312,-1.663002,-1.583386,-0.323576
111,1073942396,0.860591,-0.432787,-0.095324,-0.250989,-0.610020,-0.828316,1.110749
112,1073975730,0.851500,-0.427243,-0.112868,-0.282271,-0.809656,-0.716719,1.246330
113,1074009064,0.837600,-0.430792,-0.128257,-0.310482,-0.459998,-0.786125,1.392769
114,1074042398,0.822229,-0.440218,-0.136922,-0.333772,-1.025660,-1.365225,2.421658
115,1074075732,0.809501,-0.447366,-0.143004,-0.352313,-1.443347,-1.295217,2.050952
116,1074109066,0.802219,-0.452072,-0.147247,-0.361106,-1.413820,-1.658618,1.766207
117,1074142400,0.800749,-0.457498,-0.148767,-0.356886,-1.572336,-1.566082,1.498196
118,1074175734,0.803259,-0.463984,-0.148117,-0.342869,-1.103870,-0.953476,1.294101
119,1074209068,0.806390,-0.472751,-0.144233,-0.324718,-0.539375,-0.768663,0.979353
120,1074242402,0.808978,-0.482558,-0.136938,-0.306503,-0.603175,-0.432290,0.538317
121,1074275736,0.811551,-0.491087,-0.128391,-0.289376,-0.220041,0.023495,0.816887
122,1074309070,0.814085,-0.498339,-0.119178,-0.273358,0.032044,0.037297,0.984757
123,1074342404,0.816597,-0.505131,-0.109661,-0.256886,0.073699,-0.064293,1.104057
124,1074375738,0.820025,-0.509955,-0.100257,-0.239701,0.597752,0.025835,0.991099
125,1074409072,0.823253,-0.514325,-0.090351,-0.222632,0.783082,0.273998,0.461974
126,1074442406,0.826233,-0.517491,-0.081176,-0.207260,0.586092,-0.269620,0.357650
127,1074475740,0.829226,-0.519535,-0.072828,-0.192787,0.664309,-0.234440,-0.319982
128,1074509074,0.830751,-0.523084,-0.064165,-0.179226,0.687527,-0.053010,-0.156662
129,1074542408,0.831177,-0.527371,-0.055904,-0.167041,0.583748,-0.453392,0.399026
130,1074575742,0.832577,-0.529635,-0.047809,-0.154985,0.386852,-0.344485,-0.121213
131,1074609076,0.833646,-0.531852,-0.040324,-0.143337,0.227539,-0.696548,-0.197660
132,1074642410,0.834792,-0.533392,-0.033384,-0.132305,0.586021,-0.666550,-0.368781
133,1074675744,0.836298,-0.534116,-0.026031,-0.121047,-0.013546,-0.515186,0.072663
134,1074709078,0.837040,-0.535730,-0.020337,-0.109305,-0.096485,-0.566538,-0.139774
135,1074742412,0.837257,-0.537975,-0.016835,-0.096457,-0.173855,-1.084362,0.000949
136,1074775746,0.838037,-0.539096,-0.014754,-0.082797,-0.601672,-0.306101,-0.123881
137,1074809080,0.838146,-0.540943,-0.013473,-0.068663,-0.743179,-0.095029,-0.288478
138,1074842414,0.837144,-0.544028,-0.012935,-0.055323,-0.676898,-0.130048,-0.350184
139,1074875748,0.836432,-0.546206,-0.013252,-0.043234,-1.053190,0.347205,-0.000153
140,1074909082,0.835166,-0.548923,-0.014825,-0.031055,-1.086972,-0.189910,-0.121367
141,1074942416,0.832802,-0.553004,-0.016384,-0.019043,-1.117161,0.124849,0.294415
142,1074975750,0.831522,-0.555154,-0.018494,-0.006083,-1.171728,-0.348425,0.255988
143,1075009084,0.830064,-0.557177,-0.021640,0.009130,-1.024151,-0.351880,0.225863
144,1075042418,0.828804,-0.558368,-0.025932,0.025313,-1.332850,-0.525346,-0.157426
145,1075075752,0.827594,-0.558808,-0.031652,0.042715,-1.335063,-1.018842,-0.209791
146,1075109086,0.825112,-0.560213,-0.038670,0.062124,-1.302228,-1.442967,0.185641
147,1075142420,0.822224,-0.560926,-0.047005,0.084286,-1.128565,-1.845201,0.375108
148,1075175754,0.820362,-0.558344,-0.056884,0.109667,-0.430887,-2.334610,0.467753
149,1075209088,0.818436,-0.553543,-0.068187,0.138230,-0.390901,-1.944603,0.137318
150,1075242422,0.814295,-0.549011,-0.080385,0.170447,0.007343,-1.761306,0.322856
151,1075275756,0.806522,-0.546512,-0.092482,0.205664,-0.050485,-1.290753,0.822938
152,1075309090,0.795148,-0.545749,-0.103925,0.243108,-0.497552,-1.073769,1.375041
153,1075342424,0.783309,-0.542086,-0.113979,0.282102,-0.484951,-0.442537,1.902408
154,1075375758,0.771511,-0.534955,-0.120981,0.322431,-0.406322,-0.072395,1.535999
155,1075409092,0.758725,-0.526452,-0.124352,0.362938,-0.091110,0.965362,1.917039
156,1075442426,0.745871,-0.517712,-0.124766,0.400110,-0.162080,0.963927,1.237498
157,1075475760,0.733350,-0.509909,-0.123142,0.432471,-0.441224,0.486830,0.848212
158,1075509094,0.719382,-0.504436,-0.120971,0.461956,-0.214920,0.048229,1.434731
159,1075542428,0.706904,-0.496322,-0.117444,0.490063,0.095293,-0.679949,1.648955
160,1075575762,0.697010,-0.483954,-0.110463,0.517463,0.752885,-0.752568,1.948177
161,1075609096,0.686524,-0.471053,-0.101418,0.544529,0.504681,-0.736840,1.460929
162,1075642430,0.676398,-0.459241,-0.091464,0.568526,0.228308,0.284607,0.567945
163,1075675764,0.670039,-0.448020,-0.080473,0.586391,-0.099964,0.038383,-1.311678
164,1075709098,0.667274,-0.439771,-0.070579,0.596967,0.382455,1.500780,-1.362103
165,1075742432,0.669294,-0.433486,-0.060911,0.600358,1.114227,1.965148,-2.093905
166,1075775766,0.675564,-0.427637,-0.047247,0.598759,2.362906,3.720678,-2.320860
167,1075809100,0.681964,-0.423194,-0.030142,0.595757,2.514895,2.810679,-1.726617
168,1075842434,0.686330,-0.422228,-0.014493,0.592003,1.314367,2.789877,-2.646591
169,1075875768,0.686237,-0.426325,-0.007014,0.589305,1.754198,2.121653,-2.655260
170,1075909102,0.687379,-0.426893,-0.004353,0.587586,1.473183,1.224692,-3.265645
171,1075942436,0.688908,-0.423740,-0.007360,0.588048,1.250446,1.154042,-2.297914
172,1075975770,0.688840,-0.420367,-0.017347,0.590335,1.137311,1.303064,-1.732234
173,1076009104,0.686667,-0.418111,-0.031029,0.593897,1.780925,1.181818,-0.467670
174,1076042438,0.684361,-0.413607,-0.042735,0.598963,1.873643,2.009543,0.007325
175,1076075772,0.679207,-0.411537,-0.054867,0.605234,1.847605,1.715884,-0.189668
176,1076109106,0.675203,-0.406654,-0.063907,0.612089,0.716383,1.150890,0.454102
177,1076142440,0.670691,-0.404714,-0.071135,0.617515,0.284844,1.979132,0.121420
178,1076175774,0.664590,-0.409809,-0.079753,0.619694,0.236067,1.201142,0.042871
179,1076209108,0.661835,-0.412945,-0.086001,0.619724,-0.731569,1.887216,0.829179
180,1076242442,0.661664,-0.417381,-0.091162,0.616187,-0.105515,1.182211,-0.867921
181,1076275776,0.663842,-0.423239,-0.096441,0.609004,-0.114589,1.241880,0.154524
182,1076309110,0.669091,-0.427449,-0.099895,0.599691,0.174629,2.079149,0.390209
183,1076342444,0.676117,-0.434609,-0.100310,0.586448,0.703108,1.962772,-0.643573
184,1076375778,0.687627,-0.443797,-0.095196,0.566705,0.694433,1.560238,-1.280564
185,1076409112,0.703534,-0.454053,-0.087953,0.539577,0.241603,1.484617,-1.989119
186,1076442446,0.721162,-0.467782,-0.082735,0.504246,-0.006139,1.004050,-2.051641
187,1076475780,0.740850,-0.482808,-0.080050,0.460037,0.355094,0.545118,-2.314921
188,1076509114,0.763953,-0.494883,-0.079157,0.406454,0.813114,-0.344326,-1.651369
189,1076542448,0.788921,-0.500478,-0.081092,0.347207,0.582945,-0.190834,-0.670070
190,1076575782,0.810037,-0.506441,-0.088624,0.281972,0.287953,0.104097,-2.586345
191,1076609116,0.818263,-0.524841,-0.103819,0.210267,0.606822,-1.855691,-2.738731
192,1076642450,0.817364,-0.546200,-0.120592,0.137999,1.177597,-1.514776,1.610065
193,1076675784,0.818224,-0.554813,-0.135258,0.066340,0.129955,-1.081977,2.010088
194,1076709118,0.820278,-0.552243,-0.148910,-0.001507,0.094301,-2.710013,0.829129
195,1076742452,0.818713,-0.547786,-0.159631,-0.064508,-1.053914,-0.728019,1.060513
196,1076775786,0.814211,-0.540700,-0.170273,-0.125355,-0.806772,-2.677358,2.048717
197,1076809120,0.809959,-0.527050,-0.182213,-0.181626,-1.411919,-1.543124,2.162958
198,1076842454,0.807727,-0.503154,-0.199532,-0.233677,-1.017829,-1.756307,1.940035
199,1076875788,0.800222,-0.484698,-0.214095,-0.280855,-0.630517,-2.637623,2.681551
200,1076909122,0.788672,-0.475587,-0.222644,-0.319762,-1.609644,-2.468044,3.062193
201,1076942456,0.777821,-0.470650,-0.227705,-0.348767,-2.069033,-2.228359,1.948722
202,1076975790,0.768770,-0.469455,-0.230733,-0.367930,-2.112139,-1.464004,1.229375
203,1077009124,0.762161,-0.470674,-0.234116,-0.377848,-1.866119,-1.207743,0.819419
204,1077042458,0.758421,-0.472488,-0.238376,-0.380439,-1.299816,-0.621400,0.356630
205,1077075792,0.756884,-0.474817,-0.242085,-0.378252,-1.341652,-1.027783,0.243250
206,1077109126,0.758254,-0.476537,-0.243948,-0.372096,-0.949915,-0.526685,0.852714
207,1077142460,0.760140,-0.481032,-0.242813,-0.363098,-0.453256,-0.368962,0.391713
208,1077175794,0.760937,-0.489558,-0.239437,-0.352110,-0.137935,-0.832365,0.207592
209,1077209128,0.761883,-0.498983,-0.235684,-0.339127,-0.148385,-0.828432,0.214451
210,1077242462,0.763686,-0.506647,-0.233925,-0.324615,0.065042,-0.527730,-0.148167
211,1077275796,0.765153,-0.513756,-0.233911,-0.309653,0.220983,-0.459490,0.090229
212,1077309130,0.765769,-0.521881,-0.233233,-0.294694,0.260867,-0.285494,0.481417
213,1077342464,0.765571,-0.531121,-0.231060,-0.280047,0.118018,0.181975,0.524764
214,1077375798,0.765181,-0.540401,-0.227665,-0.265776,0.071388,0.193282,0.919581
215,1077409132,0.764373,-0.550473,-0.222796,-0.251157,0.130456,0.091698,0.784650
216,1077442466,0.763800,-0.559566,-0.218021,-0.236573,0.234166,0.425888,0.260131
217,1077475800,0.763535,-0.566861,-0.215226,-0.222180,0.165350,0.194577,0.480687
218,1077509134,0.763578,-0.573116,-0.212572,-0.208095,0.303941,-0.202321,0.683484
219,1077542468,0.765498,-0.577072,-0.207532,-0.194770,0.199455,0.149637,0.431273
220,1077575802,0.767650,-0.579779,-0.202705,-0.182989,-0.192471,-0.703883,-1.016204
221,1077609136,0.768642,-0.582517,-0.200291,-0.172486,-0.669810,-0.812154,-0.607118
222,1077642470,0.769534,-0.584831,-0.199493,-0.161234,-0.393021,-0.609366,0.138085
223,1077675804,0.770738,-0.586655,-0.198966,-0.149048,-0.196389,-0.469782,0.103797
224,1077709138,0.771276,-0.589560,-0.197061,-0.136830,-0.182020,-0.106849,0.399053
225,1077742472,0.770572,-0.593890,-0.194428,-0.125362,-0.404972,0.104920,0.518693
226,1077775806,0.770774,-0.596425,-0.192749,-0.114177,-0.724400,0.187721,0.637187
227,1077809140,0.772722,-0.596219,-0.192480,-0.101877,-0.857395,0.156246,0.765962
228,1077842474,0.774676,-0.595782,-0.192873,-0.087893,-0.790536,-0.133337,0.644392
229,1077875808,0.776083,-0.595773,-0.193873,-0.071884,-0.835756,-0.450048,0.884973
230,1077909142,0.777273,-0.595475,-0.196028,-0.053236,-0.876023,-0.850830,0.592957
231,1077942476,0.778539,-0.594129,-0.199635,-0.032217,-1.294019,-1.235205,0.239792
232,1077975810,0.779130,-0.592490,-0.204560,-0.008409,-0.998887,-1.643120,0.581989
233,1078009144,0.779565,-0.589376,-0.211108,0.018758,-1.323911,-1.584379,0.833263
234,1078042478,0.787059,-0.574185,-0.219475,0.051815,-1.271780,-2.176374,1.250485
235,1078075812,0.795899,-0.554084,-0.226580,0.090561,-0.838399,-2.326730,-0.047737
236,1078109146,0.796434,-0.542667,-0.233025,0.130033,-0.769039,-2.461935,0.009175
237,1078142480,0.789516,-0.537887,-0.241312,0.170628,0.122587,-2.823678,0.606259
238,1078175814,0.778516,-0.534336,-0.250149,0.214073,0.265988,-2.321708,0.513702
239,1078209148,0.763006,-0.532372,-0.259551,0.258919,0.535821,-1.967984,0.252840
240,1078242482,0.741408,-0.533942,-0.271378,0.302617,0.631394,-1.799641,0.215732
241,1078275816,0.714748,-0.536472,-0.286389,0.345425,0.819089,-1.458202,-0.206222
242,1078309150,0.684814,-0.537467,-0.303585,0.387296,1.360350,-1.123736,-0.203909
243,1078342484,0.654522,-0.534310,-0.321107,0.427795,1.777617,-0.569013,0.345099
244,1078375818,0.627467,-0.524169,-0.335990,0.467597,1.745201,-0.033592,-0.079319
245,1078409152,0.601316,-0.511584,-0.348883,0.504961,1.861462,0.560451,-0.204418
246,1078442486,0.575059,-0.500003,-0.361547,0.537207,2.082254,1.232258,-0.485501
247,1078475820,0.549915,-0.489481,-0.373000,0.564693,1.552041,1.734333,-0.396165
248,1078509154,0.526931,-0.479474,-0.381910,0.588724,1.159480,2.060420,-0.757905
249,1078542488,0.506528,-0.470235,-0.388846,0.609189,0.716174,2.169352,-1.035850
250,1078575822,0.489324,-0.461847,-0.393912,0.626176,0.038533,2.201110,-1.099450
251,1078609156,0.475198,-0.455514,-0.397972,0.638996,0.148328,2.140236,-0.996562
252,1078642490,0.463564,-0.451452,-0.401837,0.647943,-0.195543,2.000467,-0.672076
253,1078675824,0.454806,-0.448773,-0.404825,0.654122,-0.565257,1.556691,-0.092074
254,1078709158,0.447745,-0.447367,-0.407048,0.658562,-0.566311,1.395578,0.155109
255,1078742492,0.441798,-0.446902,-0.408443,0.662021,-0.831301,1.119977,0.309768
256,1078775826,0.437612,-0.446044,-0.408494,0.665340,-0.764566,1.038705,0.492415
257,1078809160,0.435047,-0.444935,-0.406570,0.668934,-0.435877,1.121109,0.540952
258,1078842494,0.432664,-0.445442,-0.403612,0.671926,-0.469362,0.881532,0.479170
259,1078875828,0.430114,-0.447690,-0.399842,0.674320,-0.510558,0.814937,0.504231
260,1078909162,0.428610,-0.450824,-0.393727,0.676782,-0.196414,0.667392,0.402138
261,1078942496,0.427483,-0.455164,-0.386190,0.678929,-0.183890,0.410255,0.115898
262,1078975830,0.425802,-0.460888,-0.379118,0.680109,0.012912,0.060921,-0.064724
263,1079009164,0.424255,-0.466286,-0.372792,0.680894,-0.058079,-0.011309,0.142012
264,1079042498,0.423289,-0.470654,-0.366720,0.681786,-0.185795,0.230513,-0.181172
265,1079075832,0.421624,-0.474987,-0.362247,0.682204,-0.090542,-0.049965,0.030155
266,1079109166,0.420657,-0.478549,-0.357984,0.682562,-0.048624,0.329232,0.065806
267,1079142500,0.419824,-0.481695,-0.354045,0.682917,0.058261,0.490616,-0.182662
268,1079175834,0.417674,-0.485865,-0.352197,0.682236,-0.268667,0.876343,-0.151983
269,1079209168,0.416632,-0.489227,-0.350262,0.681466,-0.238577,1.481427,-0.040752
270,1079242502,0.417608,-0.490742,-0.346854,0.681522,-0.232191,1.872117,-0.246232
271,1079275836,0.418742,-0.492458,-0.344613,0.680725,0.301334,2.235611,-0.293999
272,1079309170,0.420285,-0.493380,-0.343007,0.679917,0.227500,2.561512,-0.131175
273,1079342504,0.422178,-0.493211,-0.341302,0.679724,0.390696,2.433940,-0.335306
274,1079375838,0.423126,-0.493467,-0.341494,0.678852,0.217405,2.275949,-0.647973
275,1079409172,0.424463,-0.493433,-0.342362,0.677604,-0.125301,2.123081,-0.628987
276,1079442506,0.426732,-0.493675,-0.343574,0.675385,0.012947,1.850821,-0.686486
277,1079475840,0.430352,-0.494808,-0.345647,0.671188,-0.132548,1.448600,-0.632499
278,1079509174,0.435360,-0.496675,-0.348313,0.665175,-0.508071,1.385461,-0.307748
279,1079542508,0.441732,-0.499168,-0.351177,0.657558,-0.099069,1.380398,-0.039390
280,1079575842,0.448853,-0.502930,-0.354279,0.648138,-0.078563,1.432503,0.410198
281,1079609176,0.457973,-0.506373,-0.355028,0.638597,-0.107302,1.335517,0.711571
282,1079642510,0.469204,-0.509053,-0.352956,0.629395,0.213920,1.202455,0.579145
283,1079675844,0.480496,-0.513360,-0.349994,0.618945,0.477655,0.906833,0.542589
284,1079709178,0.491207,-0.519473,-0.345799,0.607693,0.421798,0.628438,0.680121
285,1079742512,0.502407,-0.525920,-0.339024,0.596710,0.550229,0.429194,0.647530
286,1079775846,0.513703,-0.532914,-0.330022,0.585834,0.608645,0.209633,0.432694
287,1079809180,0.525071,-0.540284,-0.318966,0.575030,0.710094,0.218052,0.326989
288,1079842514,0.536040,-0.548632,-0.306034,0.563925,0.842994,0.025062,0.122246
289,1079875848,0.546156,-0.558085,-0.292108,0.552206,0.765497,-0.294532,0.026994
290,1079909182,0.556359,-0.567369,-0.276995,0.540217,0.905962,-0.397810,0.008430
291,1079942516,0.566201,-0.576496,-0.261144,0.528089,0.473737,-0.865258,-0.108030
292,1079975850,0.575458,-0.585251,-0.245452,0.515836,0.305243,-1.003178,-0.153722
293,1080009184,0.584583,-0.593097,-0.229882,0.503644,0.269707,-1.123782,-0.026411
294,1080042518,0.593423,-0.600019,-0.214817,0.491613,-0.086790,-1.290713,0.122578
295,1080075852,0.601706,-0.606355,-0.200470,0.479686,-0.458463,-1.261682,0.145931
296,1080109186,0.610240,-0.611352,-0.186359,0.468113,-0.729496,-1.394078,-0.015587
297,1080142520,0.618785,-0.615357,-0.172994,0.456639,-0.793668,-1.339720,-0.001631
298,1080175854,0.626756,-0.619223,-0.160787,0.444849,-0.969419,-1.244608,0.191368
299,1080209188,0.634060,-0.622492,-0.149444,0.433754,-0.798572,-1.221251,0.411217
300,1080242522,0.639790,-0.625987,-0.138688,0.423767,-1.527712,-1.270774,0.687082
301,1080275856,0.645010,-0.628851,-0.127686,0.414981,-2.049074,-1.079768,0.522451
302,1080309190,0.650213,-0.630964,-0.116487,0.406868,-2.421548,-1.398595,0.565458
303,1080342524,0.655079,-0.632860,-0.106010,0.398905,-2.293289,-1.275780,0.681901
304,1080375858,0.660116,-0.633811,-0.095995,0.391560,-2.251980,-1.318285,0.757103
305,1080409192,0.667700,-0.631183,-0.086131,0.385189,-1.772891,-1.548461,1.102080
306,1080442526,0.677590,-0.625589,-0.076367,0.379056,-1.286084,-0.319230,1.063993
307,1080475860,0.692292,-0.614584,-0.065269,0.372507,-0.754103,-1.062883,1.357893
308,1080509194,0.711829,-0.597444,-0.053347,0.365401,0.115603,-0.479804,1.175417
309,1080542528,0.725902,-0.585688,-0.042376,0.358113,0.889925,-0.879901,0.099509
310,1080575862,0.734123,-0.579926,-0.034619,0.351504,1.467500,-0.189871,0.999461
311,1080609196,0.747340,-0.566309,-0.026222,0.346545,0.922524,-0.607084,-0.083658
312,1080642530,0.759008,-0.553726,-0.020150,0.341896,1.153472,-0.146327,-1.628289
313,1080675864,0.769045,-0.544148,-0.017724,0.334907,1.109080,-0.561294,-1.503662
314,1080709198,0.775825,-0.538517,-0.019306,0.328216,2.649258,-0.186388,-1.498595
315,1080742532,0.775441,-0.541808,-0.023279,0.323415,2.111926,0.298117,-0.994864
316,1080775866,0.775908,-0.541856,-0.024518,0.322121,1.933234,0.549454,-0.210178
317,1080809200,0.777103,-0.539556,-0.024276,0.323118,1.506505,0.699364,-1.029283
318,1080842534,0.773386,-0.543975,-0.025769,0.324508,1.882563,0.451249,-1.303925
319,1080875868,0.765689,-0.553267,-0.028307,0.326832,1.741157,0.248242,-0.958896
320,1080909202,0.755265,-0.564159,-0.032695,0.332016,1.800097,0.364803,-0.748657
321,1080942536,0.743451,-0.574333,-0.038246,0.340535,2.135606,0.631916,-0.292675
322,1080975870,0.733146,-0.580122,-0.042730,0.352326,2.138674,0.610707,0.120243
323,1081009204,0.722398,-0.584547,-0.045964,0.366521,2.674371,1.152888,-0.446475
324,1081042538,0.710926,-0.588511,-0.049278,0.381857,1.619735,0.393040,-0.186518
325,1081075872,0.702275,-0.588909,-0.052129,0.396587,1.842802,1.400397,-0.005424
326,1081109206,0.697207,-0.586514,-0.052312,0.408866,1.923363,1.323631,-0.984827
327,1081142540,0.696369,-0.581177,-0.051644,0.417901,0.716380,0.632370,-1.319793
328,1081175874,0.699224,-0.574903,-0.055059,0.421361,0.782768,1.401880,-1.396943
329,1081209208,0.705866,-0.569616,-0.061672,0.416523,0.159310,1.065621,-1.895507
330,1081242542,0.714978,-0.565435,-0.073284,0.404628,-0.141656,-0.501006,-1.778841
331,1081275876,0.724390,-0.564758,-0.091050,0.384736,-0.498223,0.723240,-1.083325
332,1081309210,0.734487,-0.567127,-0.110875,0.355818,-0.716684,-0.164672,-1.544772
333,1081342544,0.740997,-0.575752,-0.133909,0.318598,-0.549838,-0.618528,-1.899517
334,1081375878,0.746522,-0.584228,-0.159438,0.275620,-0.658810,-1.790793,-0.126116
335,1081409212,0.751857,-0.588086,-0.188009,0.231350,-0.298556,-1.800349,0.700502
336,1081442546,0.756878,-0.587061,-0.217706,0.187359,-2.218558,0.211628,0.437351
337,1081475880,0.760560,-0.582850,-0.245432,0.146971,-1.678423,-0.655132,1.035199
338,1081509214,0.762782,-0.577344,-0.270934,0.106942,-1.508588,-1.164835,0.106147
339,1081542548,0.764798,-0.568910,-0.294568,0.068252,-1.870483,-1.078735,1.400882
340,1081575882,0.768579,-0.554454,-0.317350,0.034076,-1.179721,-1.866764,1.561659
341,1081609216,0.782501,-0.522232,-0.338893,0.011040,-1.703777,-2.841700,4.631561
342,1081642550,0.808098,-0.470625,-0.354144,0.008715,-1.648763,-1.624099,4.834294
343,1081675884,0.823539,-0.436523,-0.361764,0.019045,-1.212859,-1.534250,2.949841
344,1081709218,0.822366,-0.436220,-0.364159,0.028606,-1.500522,-1.786584,1.549343
345,1081742552,0.813938,-0.450232,-0.365187,0.037942,-1.436719,-1.626265,0.451816
346,1081775886,0.807176,-0.459050,-0.367610,0.051063,-0.914864,-1.892297,-0.177258
347,1081809220,0.803337,-0.459063,-0.373142,0.068417,-0.525821,-1.393219,-0.521118
348,1081842554,0.799708,-0.454886,-0.381789,0.088246,0.131951,-1.408515,-0.380293
349,1081875888,0.794726,-0.449724,-0.392770,0.109064,0.556389,-0.739963,-0.231012
350,1081909222,0.788870,-0.444043,-0.404483,0.130027,0.622287,-0.416394,0.419612
351,1081942556,0.783011,-0.437370,-0.415495,0.151558,0.448164,-0.034805,0.566608
352,1081975890,0.777196,-0.430180,-0.425065,0.173882,0.432459,0.132972,0.610413
353,1082009224,0.771928,-0.422096,-0.432657,0.196909,0.409711,0.276898,0.713731
354,1082042558,0.767072,-0.413634,-0.438265,0.220082,0.187950,0.274669,0.950640
355,1082075892,0.762884,-0.405351,-0.440882,0.243568,0.112203,0.149694,1.377901
356,1082109226,0.759790,-0.397023,-0.439661,0.267944,0.145654,-0.230213,1.088712
357,1082142560,0.757777,-0.388532,-0.434109,0.293889,0.338291,-0.613471,1.119695
358,1082175894,0.756012,-0.380773,-0.424761,0.320997,0.367879,-0.412213,0.330546
359,1082209228,0.753269,-0.375329,-0.412847,0.348247,0.457039,-0.388718,0.296659
360,1082242562,0.748854,-0.372589,-0.399624,0.375099,0.585104,-0.193004,0.131664
361,1082275896,0.742727,-0.372259,-0.385960,0.401023,0.627221,-0.009990,-0.430446
362,1082309230,0.735105,-0.373341,-0.373995,0.424699,0.660496,0.240211,-0.340659
363,1082342564,0.727236,-0.373857,-0.364072,0.445886,0.484922,0.446613,-0.812980
364,1082375898,0.719761,-0.373074,-0.356671,0.464274,0.619050,0.645245,-1.068378
365,1082409232,0.712129,-0.372758,-0.352196,0.479465,0.636693,0.823774,-1.162338
366,1082442566,0.704817,-0.373558,-0.350537,0.490728,0.603123,1.065099,-1.141809
367,1082475900,0.698888,-0.375195,-0.350924,0.497635,0.249509,1.113686,-0.792995
368,1082509234,0.695419,-0.377386,-0.351830,0.500192,-0.066953,1.173648,0.286263
369,1082542568,0.696089,-0.379337,-0.349004,0.499763,-0.650563,1.041315,0.822485
370,1082575902,0.698996,-0.380583,-0.343355,0.498671,-0.365329,0.374645,0.797518
371,1082609236,0.702034,-0.380252,-0.336503,0.499326,-0.191360,-0.085158,0.600120
372,1082642570,0.704261,-0.379363,-0.330733,0.500719,-0.587940,-0.123490,0.353957
373,1082675904,0.705350,-0.381353,-0.326204,0.500645,-0.349860,-0.082634,0.387490
374,1082709238,0.706142,-0.384608,-0.320724,0.500580,0.212151,-0.174359,0.514887
375,1082742572,0.707285,-0.387761,-0.313292,0.501240,0.612587,0.105639,0.661750
376,1082775906,0.706224,-0.394656,-0.306561,0.501516,0.596964,0.075795,0.008003
377,1082809240,0.700195,-0.408479,-0.303403,0.500822,0.505101,0.206689,-0.128428
378,1082842574,0.692946,-0.423142,-0.300527,0.500465,0.551274,0.449013,0.246521
379,1082875908,0.689204,-0.432773,-0.294493,0.500982,0.510921,0.662767,0.311221
380,1082909242,0.688540,-0.438145,-0.286263,0.501995,0.450908,0.794645,-0.400641
381,1082942576,0.688495,-0.442797,-0.278807,0.502172,0.555317,1.016912,-0.505525
382,1082975910,0.688305,-0.448092,-0.272957,0.500948,0.551438,1.132756,-0.339711
383,1083009244,0.688621,-0.452916,-0.268011,0.498841,0.345745,1.231728,-0.444602
384,1083042578,0.689610,-0.457077,-0.264217,0.495694,0.277538,1.281125,-0.533730
385,1083075912,0.691649,-0.460541,-0.260931,0.491368,0.218648,1.331418,-0.219506
386,1083109246,0.694835,-0.463489,-0.257977,0.485628,0.223156,1.316212,-0.187217
387,1083142580,0.698050,-0.467554,-0.255667,0.478286,0.246098,1.302939,-0.291832
388,1083175914,0.700128,-0.474690,-0.253828,0.469112,0.202076,1.094948,-0.168932
389,1083209248,0.702219,-0.483849,-0.251117,0.457955,0.011849,0.880889,0.250228
390,1083242582,0.707098,-0.491197,-0.245505,0.445499,-0.077640,0.760729,0.589187
391,1083275916,0.714709,-0.495698,-0.237065,0.432757,0.056850,0.665604,0.647314
392,1083309250,0.723527,-0.499098,-0.226216,0.419810,0.179805,1.043737,1.368340
393,1083342584,0.734227,-0.501261,-0.211817,0.405939,0.078517,1.382650,0.841143
394,1083375918,0.747614,-0.500979,-0.193361,0.390779,0.297572,1.613410,0.714019
395,1083409252,0.762549,-0.499421,-0.172278,0.373394,0.557018,1.657113,0.221555
396,1083442586,0.777107,-0.498549,-0.151257,0.353098,1.207757,0.930862,-0.399073
397,1083475920,0.790965,-0.497533,-0.131614,0.330934,1.408232,-0.180851,-0.709338
398,1083509254,0.803725,-0.496033,-0.114260,0.308100,1.249185,-0.818087,-0.605115
399,1083542588,0.814476,-0.495098,-0.100142,0.285452,1.056694,-1.653461,-0.497768
400,1083575922,0.823622,-0.494628,-0.088599,0.262952,0.944490,-2.151590,0.027751
401,1083609256,0.831826,-0.493973,-0.077918,0.240810,0.267833,-1.782771,-0.332882
402,1083642590,0.837896,-0.494498,-0.068124,0.220826,0.004337,-1.887286,-0.208136
403,1083675924,0.841223,-0.497053,-0.060326,0.204076,-0.414321,-1.885399,-0.149794
404,1083709258,0.842827,-0.500286,-0.054538,0.190749,-0.625571,-1.687593,0.006397
405,1083742592,0.843644,-0.503363,-0.050734,0.179780,-0.917387,-1.593803,-0.070442
406,1083775926,0.843755,-0.506657,-0.048466,0.170386,-1.105032,-1.296476,-0.141251
407,1083809260,0.843503,-0.509662,-0.046789,0.162978,-0.997121,-1.089637,0.007642
408,1083842594,0.843004,-0.512398,-0.045805,0.157157,-0.752640,-0.983713,0.137095
409,1083875928,0.842266,-0.514977,-0.046335,0.152458,-0.906220,-0.609347,-0.144355
410,1083909262,0.841044,-0.517599,-0.048650,0.149580,-1.178877,-0.663657,-0.021580
411,1083942596,0.839399,-0.520038,-0.053094,0.148847,-1.305208,-0.945050,0.310837
412,1083975930,0.837960,-0.521143,-0.058606,0.151006,-1.251154,-1.327124,1.018115
413,1084009264,0.836647,-0.520816,-0.063231,0.157409,-1.239184,-1.435220,1.316039
414,1084042598,0.834513,-0.520564,-0.065408,0.168307,-1.039822,-1.347438,1.514596
415,1084075932,0.830603,-0.521983,-0.064478,0.182973,-0.848598,-1.122446,1.239490
416,1084109266,0.826020,-0.523631,-0.060283,0.199678,-0.542311,-0.824257,0.794249
417,1084142600,0.821690,-0.524280,-0.054238,0.216837,-0.208010,-0.718175,0.412011
418,1084175934,0.817423,-0.524191,-0.048400,0.233890,0.036934,-0.662471,0.363708
419,1084209268,0.813150,-0.523508,-0.044040,0.250581,-0.076496,-0.416089,0.286738
420,1084242602,0.808372,-0.522785,-0.041043,0.267488,-0.241751,-0.305042,0.675550
421,1084275936,0.801319,-0.523882,-0.039460,0.286151,-0.558818,-0.447181,1.310329
422,1084309270,0.791050,-0.528031,-0.038694,0.306479,-0.538863,-0.648620,1.755413
423,1084342604,0.774410,-0.538986,-0.038595,0.329087,-0.836409,-0.555674,2.107038
424,1084375938,0.755450,-0.550133,-0.036787,0.353978,-0.486889,0.034724,2.856870
425,1084409272,0.743255,-0.549431,-0.027550,0.380714,-0.135066,0.235820,2.587276
426,1084442606,0.737230,-0.539649,-0.010334,0.406409,0.219520,0.389785,1.317974
427,1084475940,0.731946,-0.529593,0.011043,0.428565,0.087773,0.436738,0.355710
428,1084509274,0.724801,-0.523777,0.031799,0.446447,0.198917,0.558716,-0.562079
429,1084542608,0.718969,-0.519557,0.050493,0.458910,0.108662,0.443502,-1.121728
430,1084575942,0.716237,-0.515371,0.066411,0.465823,0.727529,0.153406,-1.635654
431,1084609276,0.715459,-0.512388,0.077957,0.468513,0.585464,0.323183,-1.755087
432,1084642610,0.715893,-0.510644,0.085724,0.468396,2.134218,0.596834,-1.640470
433,1084675944,0.717376,-0.508257,0.090193,0.467886,1.996139,0.379938,-1.875250
434,1084709278,0.718567,-0.506458,0.092471,0.467563,1.464504,0.666768,-1.789186
435,1084742612,0.719603,-0.505073,0.093808,0.467201,2.134624,0.446761,-1.475205
436,1084775946,0.721897,-0.501865,0.096814,0.466505,1.615378,0.395145,-1.134161
437,1084809280,0.723807,-0.498870,0.100243,0.466034,0.794123,0.598519,-0.816709
438,1084842614,0.723822,-0.499439,0.102161,0.464983,0.409758,0.272360,-0.769121
439,1084875948,0.723244,-0.502372,0.102919,0.462550,0.132973,0.244135,-0.282099
440,1084909282,0.724059,-0.504637,0.103930,0.458567,0.092980,0.213212,-0.252795
441,1084942616,0.726431,-0.505542,0.104408,0.453684,-0.239277,-0.062397,0.109795
442,1084975950,0.729368,-0.506065,0.103148,0.448648,-0.084431,0.444158,0.247196
443,1085009284,0.732356,-0.506744,0.101537,0.443350,-0.154750,0.138048,0.324812
444,1085042618,0.735316,-0.507799,0.100440,0.437455,0.005607,-0.055459,0.433364
445,1085075952,0.738252,-0.508654,0.099358,0.431726,0.193425,-0.125205,0.524328
446,1085109286,0.741890,-0.507998,0.099481,0.426197,-0.144732,-0.351520,0.224149
447,1085142620,0.745642,-0.506595,0.099581,0.421269,0.080064,-0.293587,0.327362
448,1085175954,0.750589,-0.503609,0.099812,0.415976,-0.111904,-0.389716,0.316216
449,1085209288,0.755447,-0.500350,0.099482,0.411166,0.869781,-0.547850,-0.015718
450,1085242622,0.760839,-0.495272,0.100137,0.407194,0.915434,-0.308633,-0.201415
451,1085275956,0.764933,-0.490554,0.100816,0.405062,0.658585,-0.317229,-0.668924
452,1085309290,0.766043,-0.489775,0.099378,0.404259,0.813589,-0.001989,-0.969262
453,1085342624,0.764676,-0.491763,0.097236,0.404955,1.064784,0.026545,-1.000578
454,1085375958,0.762792,-0.493656,0.094300,0.406895,0.713554,0.295586,-0.929309
455,1085409292,0.760137,-0.496292,0.089444,0.409742,0.620825,0.163747,-0.832191
456,1085442626,0.756491,-0.499777,0.084207,0.413350,1.402879,0.450994,-0.263182
457,1085475960,0.750888,-0.504167,0.080419,0.418951,2.594071,0.420806,-0.467589
458,1085509294,0.738446,-0.513225,0.075230,0.430863,4.844631,-0.120208,-1.257897
459,1085542628,0.721604,-0.522674,0.068100,0.448850,3.215536,0.198347,-1.253954
460,1085575962,0.702257,-0.530245,0.057934,0.471512,2.392636,1.150862,-1.901307
461,1085609296,0.679829,-0.540357,0.041777,0.494071,1.344610,0.253155,-1.637026
462,1085642630,0.661183,-0.547695,0.021048,0.512277,0.390399,0.359568,-1.119017
463,1085675964,0.650543,-0.551150,-0.000140,0.522524,-0.263155,1.973536,-0.763565
464,1085709298,0.645811,-0.555609,-0.021086,0.523245,-1.974777,0.917102,-1.239135
465,1085742632,0.643079,-0.566680,-0.047175,0.512935,-0.903492,-0.070114,-2.432271
466,1085775966,0.643157,-0.581338,-0.077970,0.492260,-1.582437,0.499027,-1.093208
467,1085809300,0.648917,-0.593037,-0.111615,0.463421,-1.724372,0.364088,-1.612729
468,1085842634,0.661192,-0.600317,-0.147174,0.425192,-0.111922,0.954421,-0.464922
469,1085875968,0.677151,-0.602408,-0.180063,0.382298,-0.811360,0.951618,0.947576
470,1085909302,0.695400,-0.598972,-0.209879,0.337055,-0.578631,-0.225781,-0.478111
471,1085942636,0.711086,-0.595003,-0.238547,0.288838,-0.341764,0.210574,0.613150
472,1085975970,0.723965,-0.590424,-0.263659,0.240337,-0.548810,-0.045495,2.846720
473,1086009304,0.736681,-0.582370,-0.284708,0.192592,-0.965538,-0.269697,0.901340
474,1086042638,0.745764,-0.575678,-0.301274,0.147208,-0.548162,-0.455348,2.542635
475,1086075972,0.751431,-0.570725,-0.313997,0.105047,-1.141986,-0.483220,2.129827
476,1086109306,0.755279,-0.565535,-0.324525,0.066425,-1.051801,-0.926623,1.370352
477,1086142640,0.757800,-0.559552,-0.334093,0.032045,-0.794797,-1.155626,1.793386
478,1086175974,0.761119,-0.549896,-0.343964,0.002007,-0.780681,-0.891420,0.198071
479,1086209308,0.763475,-0.539681,-0.353886,-0.024892,-0.439465,-1.690487,1.402045
480,1086242642,0.764927,-0.530673,-0.361951,-0.047623,-0.359318,-1.646350,1.958300
481,1086275976,0.767653,-0.520738,-0.367767,-0.065514,-0.426802,-1.265026,0.716697
482,1086309310,0.770002,-0.511656,-0.372595,-0.080514,-0.458100,-1.485953,0.551673
483,1086342644,0.770627,-0.504763,-0.377653,-0.093434,-0.456714,-1.174266,0.330384
484,1086375978,0.770272,-0.497744,-0.384756,-0.104396,-0.456501,-0.909070,-0.314214
485,1086409312,0.769253,-0.489419,-0.394772,-0.113479,-0.701172,-0.978509,0.153501
486,1086442646,0.767605,-0.480050,-0.407234,-0.120413,-0.580489,-0.816582,0.075193
487,1086475980,0.765599,-0.468915,-0.421908,-0.126389,-0.317593,-0.904361,-0.000635
488,1086509314,0.763744,-0.455807,-0.438000,-0.130750,-0.432569,-1.261352,1.103295
489,1086542648,0.762560,-0.441403,-0.454305,-0.131440,-0.405904,-1.321705,0.672194
490,1086575982,0.761344,-0.427464,-0.470148,-0.128815,-0.096007,-1.395651,0.147059
491,1086609316,0.759564,-0.415286,-0.484901,-0.124398,-0.139183,-1.471487,-0.026551
492,1086642650,0.757811,-0.404021,-0.498277,-0.119224,-0.200546,-1.483463,-0.085638
493,1086675984,0.756261,-0.392485,-0.511153,-0.112921,-0.219659,-1.334924,0.399683
494,1086709318,0.755466,-0.379769,-0.523626,-0.104243,-0.212186,-0.992747,0.770142
495,1086742652,0.755768,-0.365828,-0.535261,-0.092111,-0.176765,-0.596681,1.004182
496,1086775986,0.757057,-0.350730,-0.546162,-0.074592,0.010597,-0.097149,1.038132
497,1086809320,0.758211,-0.336552,-0.555961,-0.052539,0.293306,0.367935,0.684433
498,1086842654,0.757826,-0.326100,-0.564321,-0.030079,0.515208,0.831726,0.323791
499,1086875988,0.755829,-0.319990,-0.571158,-0.010570,0.456065,0.992562,0.231580
500,1086909322,0.753571,-0.315656,-0.576603,0.005031,0.469176,0.974719,-0.002027
501,1086942656,0.751529,-0.311285,-0.581413,0.016402,0.448704,0.871223,-0.156040
502,1086975990,0.750208,-0.305669,-0.585827,0.023776,0.524523,0.908627,-0.117677
503,1087009324,0.749333,-0.298683,-0.590362,0.027688,0.328830,0.960430,-0.125735
504,1087042658,0.748453,-0.291106,-0.595196,0.028668,0.205938,0.937486,-0.077690
505,1087075992,0.747217,-0.283877,-0.600301,0.026889,0.084933,0.610537,0.083141
506,1087109326,0.746355,-0.276380,-0.604995,0.023517,0.015464,0.201198,0.278403
507,1087142660,0.745849,-0.268640,-0.609220,0.019908,-0.074833,-0.020379,0.416479
508,1087175994,0.745846,-0.261421,-0.612439,0.017180,-0.102174,-0.152039,0.294855
509,1087209328,0.745833,-0.255968,-0.614797,0.015589,-0.170362,-0.265921,0.209269
510,1087242662,0.745659,-0.252408,-0.616490,0.015051,-0.279228,-0.469394,0.117253
511,1087275996,0.745672,-0.249533,-0.617620,0.015987,-0.172750,-0.568767,0.155536
512,1087309330,0.745962,-0.246316,-0.618482,0.018803,-0.270706,-0.608577,0.138779
513,1087342664,0.746429,-0.242567,-0.619214,0.024158,-0.252556,-0.496598,-0.039420
514,1087375998,0.746803,-0.238646,-0.619964,0.031343,0.081960,-0.338264,0.087262
515,1087409332,0.747191,-0.233578,-0.620974,0.039284,0.045653,-0.293692,0.430472
516,1087442666,0.747736,-0.227770,-0.621938,0.046988,0.229914,-0.143313,0.101624
517,1087476000,0.747763,-0.222535,-0.623184,0.054538,0.073725,-0.158716,0.054010
518,1087509334,0.747689,-0.217334,-0.624325,0.062847,0.110287,-0.069394,0.049966
519,1087542668,0.747432,-0.212987,-0.625176,0.071700,0.079196,0.031873,-0.058734
520,1087576002,0.747029,-0.209814,-0.625607,0.080902,0.159700,0.233202,0.059422
521,1087609336,0.746531,-0.207932,-0.625588,0.090001,0.321397,0.499992,0.171347
522,1087642670,0.745885,-0.206896,-0.625474,0.098159,0.160073,0.560917,0.100252
523,1087676004,0.745273,-0.206221,-0.625384,0.104598,0.206257,0.726255,0.169798
524,1087709338,0.744899,-0.205821,-0.625205,0.109026,0.145234,0.684058,-0.041627
525,1087742672,0.744562,-0.206329,-0.625015,0.111425,0.220457,0.740202,-0.225684
526,1087776006,0.744147,-0.207500,-0.625043,0.111871,0.246071,0.580496,-0.096881
527,1087809340,0.743717,-0.208022,-0.625535,0.111004,0.305228,0.452088,0.016810
528,1087842674,0.743061,-0.207270,-0.626771,0.109820,0.129573,0.346413,0.100606
529,1087876008,0.742164,-0.206227,-0.628383,0.108635,0.004050,0.236607,0.170780
530,1087909342,0.741328,-0.205490,-0.629809,0.107477,0.015995,0.119477,0.139326
531,1087942676,0.740889,-0.204200,-0.630929,0.106393,-0.032286,-0.054461,0.235874
532,1087976010,0.740778,-0.202017,-0.631880,0.105687,0.009814,-0.126043,0.263715
533,1088009344,0.740818,-0.199118,-0.632703,0.105982,-0.188505,-0.200872,0.486365
534,1088042678,0.741109,-0.196823,-0.632814,0.107560,-0.054653,-0.278529,0.355191
535,1088076012,0.742031,-0.197328,-0.631081,0.110424,-0.671021,-0.086835,0.752939
536,1088109346,0.744023,-0.204766,-0.625872,0.113091,-0.102556,-0.030588,0.606813
537,1088142680,0.745768,-0.217702,-0.618866,0.115950,-0.058870,-0.170812,0.712777
538,1088176014,0.746904,-0.234740,-0.610549,0.119439,-0.317305,0.051376,0.756291
539,1088209348,0.747364,-0.254587,-0.601224,0.123154,0.056487,0.044917,0.506065
540,1088242682,0.747122,-0.275091,-0.591581,0.127160,0.135229,0.126981,0.403265
541,1088276016,0.746714,-0.294034,-0.581837,0.132028,0.195292,0.147218,0.323221
542,1088309350,0.746486,-0.310593,-0.572149,0.137623,0.406847,0.236984,0.211705
543,1088342684,0.746326,-0.325517,-0.562570,0.143371,0.568183,0.324949,0.163795
544,1088376018,0.746006,-0.338996,-0.553547,0.148813,0.578296,0.327822,-0.082480
545,1088409352,0.745500,-0.350703,-0.545626,0.153405,0.478313,0.314845,-0.157825
546,1088442686,0.744622,-0.360843,-0.539126,0.157091,0.527754,0.244737,-0.055841
547,1088476020,0.743528,-0.369267,-0.533851,0.160670,0.238507,0.278232,-0.063198
548,1088509354,0.742354,-0.376858,-0.528912,0.164756,0.228178,0.181396,-0.174791
549,1088542688,0.740681,-0.385355,-0.523908,0.168577,0.236210,0.200800,0.051042
550,1088576022,0.738161,-0.395680,-0.518609,0.172058,0.294550,0.221322,0.361873
551,1088609356,0.735125,-0.407267,-0.512445,0.176435,0.026078,0.120335,0.824261
552,1088642690,0.729315,-0.424139,-0.505523,0.180713,0.477555,0.249753,0.839356
553,1088676024,0.719931,-0.446698,-0.497586,0.185938,0.235650,0.516042,2.782319
554,1088709358,0.712636,-0.466653,-0.485588,0.196453,-0.929487,0.256347,2.007698
555,1088742692,0.706364,-0.485049,-0.470588,0.210540,-0.054844,0.487159,1.203849
556,1088776026,0.699736,-0.503778,-0.453724,0.225203,-0.097898,0.396841,0.216183
557,1088809360,0.693782,-0.520766,-0.435900,0.239717,0.067573,0.280954,0.102462
558,1088842694,0.688677,-0.536109,-0.416847,0.254074,0.339291,0.481829,0.080822
559,1088876028,0.683639,-0.551882,-0.395707,0.267366,0.526162,0.584786,-0.326250
560,1088909362,0.679320,-0.567388,-0.372441,0.279082,0.550084,0.541227,-0.077911
561,1088942696,0.677678,-0.579925,-0.347346,0.289473,0.663796,0.656628,-0.401835
562,1088976030,0.676022,-0.592272,-0.322714,0.296761,0.750111,0.371548,-0.989642
563,1089009364,0.675076,-0.603018,-0.299020,0.302047,0.623555,0.427028,-0.470531
564,1089042698,0.678133,-0.608699,-0.274940,0.306648,0.489840,0.585534,-0.984450
565,1089076032,0.682376,-0.612751,-0.252063,0.308816,0.839299,0.235993,-1.040112
566,1089109366,0.684879,-0.618634,-0.231004,0.308016,0.690355,0.292504,-0.771591
567,1089142700,0.688494,-0.623484,-0.209810,0.305331,0.397671,0.403079,-0.555797
568,1089176034,0.693692,-0.626918,-0.188882,0.300155,0.257629,0.159341,-0.771433
569,1089209368,0.696527,-0.633244,-0.169708,0.291643,0.153882,-0.131761,-0.603333
570,1089242702,0.698906,-0.640101,-0.150891,0.281136,0.035972,-0.126666,0.146938
571,1089276036,0.704446,-0.643262,-0.131113,0.269784,0.115680,-0.384030,0.180859
572,1089309370,0.710188,-0.645559,-0.111205,0.257924,0.099436,-0.743734,-0.364801
573,1089342704,0.713864,-0.649412,-0.091941,0.245385,-0.058642,-0.788781,-0.384991
574,1089376038,0.717916,-0.652246,-0.073611,0.231854,-0.074073,-0.867948,-0.404305
575,1089409372,0.722354,-0.653889,-0.057323,0.217606,-0.090444,-1.044815,-0.456033
576,1089442706,0.724952,-0.656571,-0.044337,0.203464,-0.298832,-1.021711,-0.462172
577,1089476040,0.726155,-0.659718,-0.034197,0.190540,-0.363300,-0.947680,0.045233
578,1089509374,0.727400,-0.661907,-0.026140,0.179134,-0.550467,-0.971048,-0.019307
579,1089542708,0.727790,-0.664210,-0.019763,0.169589,-0.761047,-0.947192,-0.026320
580,1089576042,0.726237,-0.667904,-0.014616,0.162091,-0.786568,-0.892917,0.205394
581,1089609376,0.724631,-0.671063,-0.010393,0.156462,-0.862028,-0.737564,0.126798
582,1089642710,0.723018,-0.673748,-0.007652,0.152493,-0.696768,-0.622948,0.177272
583,1089676044,0.720570,-0.676898,-0.006278,0.150177,-0.483560,-0.456567,0.296087
584,1089709378,0.718056,-0.679796,-0.005719,0.149144,-0.402045,-0.359350,0.219046
585,1089742712,0.715980,-0.682119,-0.005971,0.148509,-0.324364,-0.308808,0.157326
586,1089776046,0.713956,-0.684281,-0.006560,0.148281,-0.089349,-0.278151,0.288520
587,1089809380,0.712049,-0.686221,-0.006888,0.148468,-0.019562,0.112375,0.418278
588,1089842714,0.710672,-0.687639,-0.007298,0.148489,-0.092307,-0.041080,0.138014
589,1089876048,0.709771,-0.688643,-0.007724,0.148126,-0.066078,-0.013050,0.208949
590,1089909382,0.709106,-0.689503,-0.007926,0.147291,-0.139485,0.102411,0.271637
591,1089942716,0.709161,-0.689691,-0.007951,0.146143,-0.211926,-0.156244,0.171740
592,1089976050,0.709573,-0.689440,-0.007686,0.145344,-0.206607,-0.352408,0.409518
593,1090009384,0.709824,-0.689151,-0.006786,0.145529,-0.231860,-0.236769,0.395397
594,1090042718,0.710201,-0.688517,-0.005200,0.146750,-0.241025,-0.205708,0.333089
595,1090076052,0.710700,-0.687581,-0.003386,0.148761,-0.376968,-0.065837,0.110808
596,1090109386,0.711082,-0.686665,-0.001848,0.151179,-0.373627,-0.103388,0.066214
597,1090142720,0.711214,-0.685953,-0.000684,0.153774,-0.354704,-0.054527,0.156051
598,1090176054,0.711668,-0.684831,0.000450,0.156648,-0.278253,-0.082349,0.028684
599,1090209388,0.712214,-0.683584,0.001579,0.159582,-0.069958,-0.253467,-0.042732
600,1090242722,0.712394,-0.682729,0.002303,0.162400,-0.086565,-0.251141,-0.041817
601,1090276056,0.712606,-0.681888,0.001866,0.164992,-0.325258,-0.329248,-0.056338
602,1090309390,0.712846,-0.680983,-0.000291,0.167679,-0.468911,-0.434744,0.080768
603,1090342724,0.712982,-0.679860,-0.003791,0.171571,-0.536090,-0.514348,0.429687
604,1090376058,0.713097,-0.678145,-0.008037,0.177629,-0.581908,-0.563707,0.509194
605,1090409392,0.713103,-0.675843,-0.012813,0.185901,-0.495461,-0.492626,0.499991
606,1090442726,0.712788,-0.673166,-0.017921,0.196124,-0.562201,-0.429242,0.420628
607,1090476060,0.711772,-0.670463,-0.023564,0.208110,-0.862767,-0.173673,0.217571
608,1090509394,0.709653,-0.668287,-0.029815,0.221135,-1.022330,-0.414918,0.247744
609,1090542728,0.705931,-0.667266,-0.036259,0.234750,-1.002656,-0.337908,0.746454
610,1090576062,0.702815,-0.664846,-0.041240,0.249668,-0.888232,-0.290474,0.844770
611,1090609396,0.700950,-0.660459,-0.044069,0.265564,-0.529932,-0.630354,0.925015
612,1090642730,0.698928,-0.655373,-0.045822,0.282650,-0.416489,-0.441285,0.791200
613,1090676064,0.695960,-0.650103,-0.047557,0.301245,-0.619691,-0.383857,0.536973
614,1090709398,0.692428,-0.644454,-0.049428,0.320597,-0.635363,-0.305653,0.701510
615,1090742732,0.688504,-0.638198,-0.051190,0.340659,-0.669439,-0.306178,1.064908
616,1090776066,0.683914,-0.631193,-0.052602,0.362070,-0.596995,-0.065214,1.168206
617,1090809400,0.680270,-0.622045,-0.052119,0.384160,-0.400023,-0.089954,0.976332
618,1090842734,0.677079,-0.611723,-0.050181,0.406010,-0.329226,-0.116810,0.831302
619,1090876068,0.674437,-0.600215,-0.047743,0.427319,-0.141231,-0.195216,0.667749
620,1090909402,0.673464,-0.586215,-0.045988,0.447982,0.302197,-0.423158,0.223082
621,1090942736,0.674871,-0.569680,-0.045695,0.466830,0.152018,-0.169619,-0.567885
622,1090976070,0.676997,-0.552425,-0.047383,0.484005,-0.074171,0.478433,-0.430516
623,1091009404,0.680301,-0.535606,-0.047711,0.498041,0.432292,0.297622,-0.269300
624,1091042738,0.685248,-0.520337,-0.044803,0.507623,-0.039097,0.305699,-0.024499
625,1091076072,0.690352,-0.507866,-0.038756,0.513798,0.248978,0.798184,0.226329
626,1091109406,0.692774,-0.501674,-0.031351,0.517116,0.746331,0.071293,-0.515603
627,1091142740,0.694250,-0.499811,-0.023336,0.517364,1.158115,0.489832,-0.422271
628,1091176074,0.698428,-0.496528,-0.011379,0.515299,2.232322,0.408980,-1.602466
629,1091209408,0.704567,-0.491213,0.002237,0.512148,1.860473,-0.033697,-2.113871
630,1091242742,0.707933,-0.489341,0.012298,0.509145,1.483664,0.155799,-1.546199
631,1091276076,0.706469,-0.493999,0.017448,0.506525,0.784088,-0.323904,-0.904149
632,1091309410,0.703655,-0.500630,0.021417,0.503770,0.188156,0.291781,0.397378
633,1091342744,0.701008,-0.507631,0.025788,0.500238,0.053084,0.238182,0.365310
634,1091376078,0.698905,-0.515331,0.029286,0.495088,0.041683,0.274583,0.257659
635,1091409412,0.698602,-0.521630,0.032425,0.488681,-0.084606,-0.046323,-0.112259
636,1091442746,0.699624,-0.525852,0.033816,0.482563,0.399732,0.092777,-0.153629
637,1091476080,0.703943,-0.525505,0.037537,0.476344,0.642817,0.531007,0.277795
638,1091509414,0.710882,-0.521460,0.043904,0.469896,0.437555,0.541753,0.247161
639,1091542748,0.715159,-0.520645,0.048645,0.463804,0.045340,0.019822,0.040272
640,1091576082,0.717464,-0.523297,0.051320,0.456921,0.212456,0.522504,0.428274
641,1091609416,0.720288,-0.524678,0.054351,0.450498,0.177937,0.412242,0.295705
642,1091642750,0.722696,-0.525736,0.056720,0.445082,0.590071,0.773758,-0.059778
643,1091676084,0.725992,-0.525183,0.059207,0.440019,0.711065,0.345973,-0.460996
644,1091709418,0.728343,-0.524316,0.060373,0.436999,1.513600,0.523851,-0.963009
645,1091742752,0.727743,-0.525789,0.059772,0.436310,1.448327,0.456920,-1.351138
646,1091776086,0.724490,-0.528969,0.056647,0.438294,1.349802,0.352338,-1.315870
647,1091809420,0.719840,-0.532055,0.051787,0.442798,1.827025,0.626203,-0.940203
648,1091842754,0.712403,-0.537003,0.045016,0.449541,1.865905,0.574435,-1.167399
649,1091876088,0.704100,-0.541992,0.036723,0.457321,1.572927,1.142994,-0.871171
650,1091909422,0.695159,-0.547381,0.028246,0.465117,1.535768,0.740430,-1.146845
651,1091942756,0.684626,-0.554143,0.017179,0.473203,0.998099,0.404746,-0.765654
652,1091976090,0.675344,-0.560400,0.004618,0.479422,1.307147,1.450278,-0.912881
653,1092009424,0.667942,-0.566677,-0.006790,0.482379,1.740598,0.923655,-1.216072
654,1092042758,0.661508,-0.573846,-0.020173,0.482395,2.181038,1.020354,-1.998519
655,1092076092,0.652453,-0.587534,-0.038451,0.477110,1.256199,1.997715,-1.580369
656,1092109426,0.645158,-0.602616,-0.058115,0.466102,-0.278388,0.898219,-0.847985
657,1092142760,0.644805,-0.615049,-0.078758,0.446927,0.414575,-0.012736,-1.580858
658,1092176094,0.650628,-0.626648,-0.101047,0.416880,-0.499516,1.369888,-0.975502
659,1092209428,0.660250,-0.638400,-0.122792,0.376087,-1.340400,0.948713,-1.918336
660,1092242762,0.657629,-0.664497,-0.149491,0.321907,-1.026084,0.263812,-2.937278
661,1092276096,0.641634,-0.700441,-0.179000,0.256225,-1.656958,1.165022,-2.186266
662,1092309430,0.634624,-0.722558,-0.202972,0.184308,-1.290256,0.303871,0.462379
663,1092342764,0.642610,-0.723717,-0.223791,0.114929,-1.000965,-1.626507,4.445393
664,1092376098,0.662425,-0.706373,-0.243122,0.055910,-1.742183,-0.064839,2.831613
665,1092409432,0.678360,-0.687550,-0.259011,0.004458,-1.470619,-1.242173,2.179964
666,1092442766,0.683992,-0.675033,-0.273264,-0.042618,-0.798644,-1.373640,2.928433
667,1092476100,0.688972,-0.660765,-0.285582,-0.084578,-1.454563,-0.928984,1.714337
668,1092509434,0.693595,-0.646913,-0.294916,-0.116004,-1.130116,-2.284394,5.048854
669,1092542768,0.697767,-0.635941,-0.300389,-0.135909,-1.383085,-1.322675,2.568193
670,1092576102,0.699089,-0.630629,-0.301752,-0.150106,-1.740871,-0.867390,0.857053
671,1092609436,0.699600,-0.626233,-0.303329,-0.162443,-1.999420,-0.491179,0.113134
672,1092642770,0.703161,-0.617530,-0.307479,-0.172286,-1.555571,-0.404766,0.743985
673,1092676104,0.708660,-0.607114,-0.311597,-0.179234,-1.066704,-0.634941,0.414024
674,1092709438,0.713975,-0.597407,-0.315079,-0.184591,-0.987510,-0.820331,0.687874
675,1092742772,0.719156,-0.588979,-0.317628,-0.187175,-0.607377,-1.157271,1.059863
676,1092776106,0.723959,-0.582644,-0.318976,-0.186192,-0.327040,-1.430259,0.984227
677,1092809440,0.728079,-0.579132,-0.318765,-0.181383,-0.093308,-1.391131,0.964335
678,1092842774,0.730978,-0.579186,-0.316861,-0.172676,-0.082567,-1.380422,0.605202
679,1092876108,0.733907,-0.579939,-0.315137,-0.160451,-0.180211,-1.345415,0.248013
680,1092909442,0.737865,-0.578940,-0.314969,-0.145541,-0.090221,-1.182868,0.140944
681,1092942776,0.742497,-0.576677,-0.315564,-0.128706,-0.033730,-0.944577,0.334485
682,1092976110,0.746133,-0.575512,-0.316014,-0.110502,-0.106844,-0.794672,0.333641
683,1093009444,0.749800,-0.573971,-0.316392,-0.090872,-0.230859,-0.878174,0.708774
684,1093042778,0.752777,-0.573182,-0.316159,-0.069549,-0.080415,-0.696666,0.650658
685,1093076112,0.752675,-0.576045,-0.315296,-0.047386,-0.144055,-0.622500,0.581904
686,1093109446,0.750993,-0.579995,-0.314710,-0.024021,-0.184890,-0.473776,0.616833
687,1093142780,0.749006,-0.583303,-0.314247,0.000886,-0.058536,-0.511153,0.467560
688,1093176114,0.747157,-0.585232,-0.313915,0.026866,0.082025,-0.625411,0.319772
689,1093209448,0.745307,-0.585919,-0.313734,0.052845,0.196067,-0.205335,-0.352700
690,1093242782,0.743434,-0.585351,-0.313963,0.078113,0.421979,-0.499826,0.329824
691,1093276116,0.741968,-0.583538,-0.313765,0.102578,0.404128,0.085458,-0.241039
692,1093309450,0.741215,-0.579638,-0.314181,0.126154,0.461221,-0.045560,-0.479853
693,1093342784,0.740131,-0.575460,-0.314983,0.147788,0.393396,0.274102,-0.610361
694,1093376118,0.737548,-0.572577,-0.316934,0.166541,0.116326,0.685393,-1.152907
695,1093409452,0.734360,-0.570132,-0.320533,0.181460,0.206661,0.592441,-0.855453
696,1093442786,0.731948,-0.566576,-0.325356,0.193371,0.225473,0.690091,-0.383209
697,1093476120,0.729892,-0.563040,-0.330500,0.202527,0.171141,0.809477,-0.461502
698,1093509454,0.727048,-0.561458,-0.335397,0.208994,0.127016,0.668177,-0.119279
699,1093542788,0.724204,-0.560799,-0.339442,0.214047,0.072095,0.480359,0.310972
700,1093576122,0.721889,-0.560314,-0.342184,0.218721,0.026702,0.367933,0.313403
701,1093609456,0.719634,-0.560519,-0.343504,0.223505,0.007000,0.411075,0.468262
702,1093642790,0.717723,-0.560982,-0.343484,0.228463,-0.002282,0.445678,0.431928
703,1093676124,0.716310,-0.561273,-0.342788,0.233183,-0.058818,0.350601,0.159735
704,1093709458,0.714953,-0.561391,-0.342031,0.238121,-0.012919,0.226610,0.712810
705,1093742792,0.713239,-0.561974,-0.340346,0.244219,-0.090025,0.381618,0.911245
706,1093776126,0.710431,-0.564399,-0.337142,0.251159,-0.097882,0.246930,0.875730
707,1093809460,0.706541,-0.568672,-0.332140,0.259034,-0.258203,0.249770,1.021327
708,1093842794,0.701990,-0.573858,-0.325950,0.267689,-0.211244,0.174558,0.562653
709,1093876128,0.697556,-0.578985,-0.318966,0.276508,-0.215023,0.336511,0.165685
710,1093909462,0.694214,-0.582944,-0.311423,0.285066,-0.083366,0.431316,0.020234
711,1093942796,0.691423,-0.586387,-0.303997,0.292703,-0.004548,0.477772,-0.288841
712,1093976130,0.689130,-0.589322,-0.297129,0.299195,0.076688,0.528840,-0.525866
713,1094009464,0.687574,-0.591661,-0.291046,0.304100,0.064955,0.576195,-0.603194
714,1094042798,0.686919,-0.593205,-0.286051,0.307291,0.169434,0.441698,-0.609661
715,1094076132,0.686740,-0.594382,-0.282301,0.308883,0.256521,0.484714,-0.504460
716,1094109466,0.686926,-0.595455,-0.279132,0.309284,0.409735,0.459108,-0.284110
717,1094142800,0.687158,-0.596817,-0.276084,0.308876,0.371192,0.401324,-0.117097
718,1094176134,0.687163,-0.598774,-0.272953,0.307859,0.225220,0.397103,-0.077640
719,1094209468,0.686968,-0.600910,-0.270193,0.306564,-0.277984,0.399934,-0.046317
720,1094242802,0.686920,-0.602664,-0.268206,0.304970,-0.439737,0.463090,0.223657
721,1094276136,0.688372,-0.602906,-0.265906,0.303227,-0.173532,0.454202,0.348677
722,1094309470,0.690616,-0.602769,-0.261890,0.301889,0.046525,0.518170,0.543701
723,1094342804,0.692546,-0.603981,-0.255396,0.300607,0.279051,0.600429,0.651389
724,1094376138,0.693404,-0.607329,-0.246998,0.298894,0.505285,0.398562,0.507854
725,1094409472,0.693405,-0.612205,-0.237384,0.296729,0.360096,0.427327,0.147256
726,1094442806,0.692790,-0.617860,-0.227487,0.294185,0.500798,0.445938,0.177036
727,1094476140,0.692836,-0.622525,-0.217938,0.291458,0.464038,0.448153,0.384727
728,1094509474,0.694216,-0.625393,-0.208484,0.288941,0.552187,0.509753,0.254046
729,1094542808,0.696167,-0.627586,-0.198814,0.286294,0.559417,0.592082,0.085291
730,1094576142,0.698345,-0.629825,-0.188579,0.282978,0.609125,0.554945,-0.054767
731,1094609476,0.701028,-0.632016,-0.177020,0.278896,0.529225,0.543664,0.002343
732,1094642810,0.704809,-0.633922,-0.163757,0.273085,0.442371,0.408955,-0.316339
733,1094676144,0.708521,-0.636644,-0.149681,0.265106,0.479139,0.213286,-0.336709
734,1094709478,0.712458,-0.639391,-0.135064,0.255625,0.602102,0.092929,-0.008616
735,1094742812,0.717536,-0.640941,-0.120170,0.244744,0.500337,0.020426,-0.152074
736,1094776146,0.722696,-0.642064,-0.105959,0.232896,0.394036,-0.113934,-0.124926
737,1094809480,0.727465,-0.643179,-0.092796,0.220245,0.416432,-0.238956,0.032824
738,1094842814,0.732069,-0.644076,-0.080675,0.206726,0.234711,-0.236503,-0.174243
739,1094876148,0.736829,-0.644312,-0.069776,0.192563,0.243000,-0.370730,-0.142213
740,1094909482,0.741517,-0.644273,-0.059935,0.177415,0.286417,-0.480316,-0.161903
741,1094942816,0.745912,-0.644280,-0.050528,0.161151,0.067265,-0.582046,-0.279723
742,1094976150,0.749426,-0.644935,-0.041581,0.143852,-0.117234,-0.784899,-0.262771
743,1095009484,0.751855,-0.646249,-0.033273,0.126386,-0.279806,-0.949695,0.039903
744,1095042818,0.753011,-0.648286,-0.025594,0.109765,-0.522787,-0.998209,0.121369
745,1095076152,0.752331,-0.651654,-0.018616,0.094884,-0.786402,-1.090909,0.211724
746,1095109486,0.750922,-0.655144,-0.012614,0.082142,-1.005868,-1.056703,0.344835
747,1095142820,0.749266,-0.658322,-0.007907,0.071788,-1.153899,-0.851944,0.182364
748,1095176154,0.747222,-0.661487,-0.004491,0.063861,-1.278777,-0.819804,0.312672
749,1095209488,0.745648,-0.663776,-0.002242,0.058395,-1.248627,-0.550334,0.490010
750,1095242822,0.744672,-0.665136,-0.000593,0.055321,-1.194149,-0.451047,0.228064
751,1095276156,0.743558,-0.666497,0.000695,0.053913,-1.025728,-0.395062,0.349573
752,1095309490,0.742682,-0.667488,0.001636,0.053720,-0.854607,-0.331645,0.254767
753,1095342824,0.742064,-0.668094,0.002002,0.054690,-0.719201,-0.353261,0.239333
754,1095376158,0.741461,-0.668588,0.001544,0.056815,-0.532211,-0.358719,0.297980
755,1095409492,0.740857,-0.668955,0.000344,0.060290,-0.427255,-0.247423,0.223117
756,1095442826,0.740288,-0.669182,-0.001594,0.064584,-0.336252,-0.155336,0.022842
757,1095476160,0.739506,-0.669577,-0.004384,0.069152,-0.284416,-0.123661,-0.042152
758,1095509494,0.738563,-0.670090,-0.008001,0.073786,-0.220906,-0.150064,0.040604
759,1095542828,0.737682,-0.670449,-0.012251,0.078589,-0.127656,-0.160230,0.160302
760,1095576162,0.736871,-0.670629,-0.016874,0.083650,-0.102243,-0.110365,0.125763
761,1095609496,0.735944,-0.670832,-0.021592,0.088932,-0.063101,-0.063766,0.128679
762,1095642830,0.734877,-0.671086,-0.026161,0.094443,-0.018381,-0.036261,0.310850
763,1095676164,0.734095,-0.670955,-0.030487,0.099995,-0.039287,0.091762,0.219407
764,1095709498,0.733632,-0.670459,-0.034586,0.105245,-0.068270,0.089043,0.121497
765,1095742832,0.732906,-0.670267,-0.038484,0.110062,-0.104753,0.014741,0.097943
766,1095776166,0.732110,-0.670157,-0.042392,0.114503,-0.141969,-0.036973,0.084851
767,1095809500,0.731580,-0.669698,-0.046801,0.118777,-0.215888,-0.187301,0.037178
768,1095842834,0.730932,-0.669201,-0.052076,0.123291,-0.266277,-0.273034,-0.012711
769,1095876168,0.729914,-0.668881,-0.058292,0.128181,-0.319173,-0.390686,0.087901
770,1095909502,0.728523,-0.668696,-0.065333,0.133552,-0.345064,-0.472733,0.193055
771,1095942836,0.726592,-0.668734,-0.072787,0.139875,-0.530076,-0.475137,0.278564
772,1095976170,0.724281,-0.668726,-0.080228,0.147615,-0.660567,-0.339960,0.363333
773,1096009504,0.721591,-0.668606,-0.086748,0.157327,-0.712379,-0.320961,0.437809
774,1096042838,0.718652,-0.668221,-0.092500,0.168722,-0.801625,-0.381494,0.490988
775,1096076172,0.715395,-0.667451,-0.098433,0.181754,-0.964244,-0.362701,0.707043
776,1096109506,0.712119,-0.665740,-0.104543,0.196854,-1.050024,-0.577526,1.443804
777,1096142840,0.708435,-0.663344,-0.111193,0.213855,-1.317231,-0.705978,1.442334
778,1096176174,0.702328,-0.662273,-0.118433,0.232609,-1.272615,-0.731783,1.812485
779,1096209508,0.697164,-0.658774,-0.124917,0.253731,-0.897713,-0.550123,1.760194
780,1096242842,0.694095,-0.651606,-0.130473,0.276809,-0.675220,-0.809646,1.230201
781,1096276176,0.692365,-0.641391,-0.134749,0.301819,-0.274772,-0.824625,0.872109
782,1096309510,0.692203,-0.628214,-0.135982,0.328199,0.285873,-0.739391,0.634831
783,1096342844,0.691844,-0.614638,-0.133438,0.354643,0.785027,-0.890442,0.079778
784,1096376178,0.689785,-0.603013,-0.128132,0.379681,1.106733,-0.306731,0.041049
785,1096409512,0.688085,-0.592198,-0.119645,0.401908,0.917326,-0.216741,-0.124367
786,1096442846,0.686046,-0.583182,-0.109758,0.420948,0.855508,-0.496573,-0.803178
787,1096476180,0.684329,-0.575405,-0.100198,0.436540,0.450376,0.214729,-0.440975
788,1096509514,0.685701,-0.565417,-0.089336,0.449600,0.444020,0.559085,0.184446
789,1096542848,0.689117,-0.553956,-0.077411,0.460720,1.152795,0.312410,-0.300531
790,1096576182,0.692209,-0.543914,-0.065490,0.469808,1.344416,0.778609,0.055341
791,1096609516,0.695000,-0.534875,-0.052604,0.477620,1.079481,0.507971,-0.565019
792,1096642850,0.695893,-0.528990,-0.040353,0.484023,0.790535,0.534159,-1.058405
793,1096676184,0.695406,-0.526250,-0.029526,0.488470,0.980861,0.616104,-1.015890
794,1096709518,0.696020,-0.523694,-0.019778,0.490829,0.955339,0.608047,-0.851548
795,1096742852,0.698577,-0.520255,-0.011255,0.491123,0.812023,0.551315,-0.730527
796,1096776186,0.701701,-0.517512,-0.004055,0.489679,0.677310,0.604100,-0.450989
797,1096809520,0.705325,-0.515095,0.003486,0.487018,0.319280,0.784363,0.137135
798,1096842854,0.708608,-0.513521,0.012150,0.483764,-0.113003,0.769476,0.011024
799,1096876188,0.711325,-0.513037,0.021631,0.479943,0.008444,0.645094,0.270336
800,1096909522,0.714688,-0.512497,0.031675,0.474941,0.113009,0.465795,0.274639
801,1096942856,0.716939,-0.513502,0.040203,0.469789,0.090528,0.290643,0.359514
802,1096976190,0.718453,-0.514867,0.046657,0.465365,-0.234232,0.504894,0.283381
803,1097009524,0.720712,-0.514678,0.052196,0.461476,0.051164,0.172699,0.066422
804,1097042858,0.723015,-0.513762,0.056724,0.458349,1.067999,0.007008,0.014202
805,1097076192,0.725434,-0.511023,0.061196,0.457012,1.369918,-0.108388,-0.167237
806,1097109526,0.725954,-0.508530,0.065753,0.458332,0.854542,-0.008206,-0.308685
807,1097142860,0.724776,-0.507363,0.070289,0.460810,0.210858,-0.079331,-0.438022
808,1097176194,0.723593,-0.506496,0.075293,0.462829,-0.600993,-0.349587,-0.416764
809,1097209528,0.722237,-0.506416,0.080369,0.464178,-0.727179,-0.455599,-0.218222
810,1097242862,0.720445,-0.507251,0.084569,0.465303,-0.461502,-0.390858,-0.158158
811,1097276196,0.719407,-0.507302,0.087477,0.466315,-0.269560,-0.029589,-0.155944
812,1097309530,0.718703,-0.506983,0.088072,0.467633,-0.501743,0.210065,-0.199031
813,1097342864,0.717201,-0.507244,0.085818,0.470071,-0.624193,0.277877,-0.050631
814,1097376198,0.715683,-0.506472,0.081571,0.473956,-0.602194,0.097218,0.060507
815,1097409532,0.714339,-0.504798,0.076349,0.478617,-0.483021,0.223286,0.133786
816,1097442866,0.712507,-0.503613,0.070776,0.483428,-0.245383,0.179036,-0.073764
817,1097476200,0.708214,-0.505518,0.064531,0.488595,-0.050787,-0.058191,-0.063605
818,1097509534,0.701225,-0.510245,0.058294,0.494509,-0.057221,0.286638,0.265550
819,1097542868,0.693965,-0.514021,0.053370,0.501350,-0.035111,0.085242,0.184351
820,1097576202,0.686978,-0.516330,0.049255,0.508962,0.093332,0.177197,0.246117
821,1097609536,0.680466,-0.517473,0.044935,0.516887,0.171770,0.620322,0.013635
822,1097642870,0.674160,-0.518409,0.040391,0.524530,0.503207,0.475103,-0.138311
823,1097676204,0.668158,-0.519906,0.035423,0.531049,0.598212,0.838642,-0.083794
824,1097709538,0.662510,-0.521287,0.030151,0.537062,0.377695,1.264520,0.097450
825,1097742872,0.658331,-0.521230,0.025390,0.542475,0.147812,1.315757,-0.224796
826,1097776206,0.655670,-0.520344,0.021048,0.546718,-0.050961,1.433620,-0.426269
827,1097809540,0.654327,-0.519557,0.016990,0.549211,-0.096660,1.216633,-0.372219
828,1097842874,0.653509,-0.520248,0.013556,0.549626,-0.055954,0.895039,-0.079931
829,1097876208,0.653084,-0.522519,0.012063,0.548010,-0.007660,0.522902,0.340071
830,1097909542,0.651127,-0.527309,0.013638,0.545708,-0.262234,-0.376722,0.931415
831,1097942876,0.646047,-0.535632,0.017675,0.543520,0.107012,-0.905028,0.568156
832,1097976210,0.639310,-0.544843,0.021339,0.542197,0.572822,-0.729991,0.294769
833,1098009544,0.633116,-0.551356,0.023181,0.542805,-0.023325,0.106166,-0.398071
834,1098042878,0.627255,-0.555911,0.021663,0.545022,-0.185289,0.089075,-1.102390
835,1098076212,0.620973,-0.561190,0.016020,0.546996,-0.002469,0.230093,-0.695707
836,1098109546,0.614283,-0.567547,0.007335,0.548176,1.010411,0.802956,-0.176019
837,1098142880,0.606000,-0.574573,-0.004115,0.550107,1.555038,0.767845,0.216271
838,1098176214,0.597402,-0.579398,-0.016886,0.554191,1.045470,1.049151,0.485752
839,1098209548,0.590595,-0.580571,-0.029794,0.559689,0.428082,0.486671,0.470946
840,1098242882,0.584082,-0.581090,-0.044106,0.565014,-0.390698,0.200719,0.946920
841,1098276216,0.579078,-0.581057,-0.057033,0.569027,-0.881150,0.310144,1.540721
842,1098309550,0.578381,-0.579311,-0.065065,0.570653,-0.661914,-0.372496,1.303146
843,1098342884,0.582540,-0.575807,-0.069994,0.569385,-0.914163,-0.329502,0.648431
844,1098376218,0.589468,-0.571249,-0.074212,0.566303,-0.696461,0.034201,0.012165
845,1098409552,0.596473,-0.567383,-0.079444,0.562129,-0.017477,0.211961,-0.360165
846,1098442886,0.603555,-0.563322,-0.084141,0.557955,0.940962,0.423285,-0.723910
847,1098476220,0.610312,-0.558431,-0.087181,0.555047,1.352920,0.670527,-0.753985
848,1098509554,0.613761,-0.555395,-0.090141,0.553816,1.482602,0.923823,-1.103132
849,1098542888,0.613128,-0.555897,-0.093473,0.553462,0.810717,1.333770,-0.814977
850,1098576222,0.611869,-0.558239,-0.095047,0.552228,0.972966,0.984787,-0.733827
851,1098609556,0.610770,-0.561652,-0.096203,0.549779,1.002916,0.804893,-0.604872
852,1098642890,0.610483,-0.565230,-0.097681,0.546157,0.806689,0.906294,-0.417000
853,1098676224,0.611988,-0.568158,-0.098673,0.541233,1.324679,0.700265,-0.825003
854,1098709558,0.614898,-0.571280,-0.099741,0.534412,0.920383,1.020209,-0.578850
855,1098742892,0.619919,-0.574077,-0.099816,0.525525,0.806182,0.652507,-0.931358
856,1098776226,0.626376,-0.578336,-0.098977,0.513213,1.543262,0.850525,-0.959224
857,1098809560,0.635117,-0.583837,-0.094746,0.496778,0.547149,1.342497,-0.261212
858,1098842894,0.645373,-0.591746,-0.085827,0.475361,0.853730,0.263698,-1.123834
859,1098876228,0.652931,-0.606003,-0.075032,0.448126,0.988552,-0.491555,-1.009174
860,1098909562,0.657959,-0.624537,-0.063213,0.415995,0.916823,-0.451616,-0.314471
861,1098942896,0.661278,-0.644612,-0.048158,0.380621,0.627854,-0.687684,0.292574
862,1098976230,0.664593,-0.662765,-0.030842,0.343674,-0.354344,-1.047855,0.292621
863,1099009564,0.668682,-0.677468,-0.012381,0.306189,-0.838853,-0.843719,0.684053
864,1099042898,0.672247,-0.689228,0.007138,0.270191,-0.523624,-0.474133,1.308769
865,1099076232,0.677319,-0.696096,0.027418,0.236520,-0.240462,-0.936303,1.296502
866,1099109566,0.677680,-0.704381,0.047138,0.205861,-0.535933,-0.820790,1.201283
867,1099142900,0.675645,-0.712344,0.066738,0.177820,-0.374710,-0.714080,1.399945
868,1099176234,0.677076,-0.715115,0.085731,0.151102,-0.565260,-0.958172,0.833045
869,1099209568,0.676577,-0.718012,0.103683,0.126320,-0.469475,-1.069459,0.264956
870,1099242902,0.677373,-0.718619,0.119611,0.102228,-0.573465,-0.672482,0.148514
871,1099276236,0.680195,-0.716710,0.132843,0.077575,-0.267243,-0.794438,-0.676144
872,1099309570,0.679367,-0.717577,0.144006,0.053014,-0.012170,-0.671616,-0.838973
873,1099342904,0.676809,-0.719567,0.152938,0.027707,0.282431,0.037334,-0.863433
874,1099376238,0.671990,-0.722811,0.161172,0.000947,-0.069159,-0.569045,-0.984809
875,1099409572,0.663078,-0.728696,0.169469,-0.024770,-0.202139,-0.962473,0.527090
876,1099442906,0.658038,-0.730117,0.177244,-0.050048,-0.432445,-0.386460,1.151008
877,1099476240,0.653813,-0.729882,0.185561,-0.073293,-1.038035,-0.436932,0.681241
878,1099509574,0.649417,-0.729438,0.193275,-0.093953,-1.013481,-0.088908,1.062335
879,1099542908,0.647891,-0.726431,0.199514,-0.112847,-1.031693,-0.243692,0.843555
880,1099576242,0.645382,-0.724368,0.206088,-0.127691,-1.307268,-0.768036,0.664518
881,1099609576,0.641681,-0.723756,0.212498,-0.138819,-1.466516,0.071552,1.247851
882,1099642910,0.639952,-0.721880,0.218817,-0.146542,-1.606068,-0.217390,1.414237
883,1099676244,0.637951,-0.720815,0.225922,-0.149691,-1.955527,-0.057178,1.226816
884,1099709578,0.637134,-0.719583,0.232553,-0.148943,-1.655924,0.179896,1.143487
885,1099742912,0.638711,-0.717119,0.237922,-0.145552,-1.592609,-0.033273,0.580789
886,1099776246,0.641665,-0.714376,0.241495,-0.140064,-1.252362,-0.049863,0.315615
887,1099809580,0.644782,-0.712116,0.244065,-0.132605,-0.853802,-0.325660,0.149898
888,1099842914,0.648202,-0.710083,0.245552,-0.123792,-0.837493,-0.467960,0.190637
889,1099876248,0.652147,-0.707972,0.245707,-0.114506,-0.520862,-0.459868,0.145741
890,1099909582,0.655584,-0.706561,0.245025,-0.104630,-0.391204,-0.626041,-0.290051
891,1099942916,0.658514,-0.705668,0.243698,-0.094905,-0.030124,-0.480839,-0.583616
892,1099976250,0.660879,-0.705284,0.241534,-0.086475,0.167468,-0.535671,-0.875310
893,1100009584,0.661948,-0.706174,0.238364,-0.079556,0.378427,-0.515541,-0.950038
894,1100042918,0.661341,-0.708687,0.234193,-0.074494,0.348926,-0.187107,-0.890934
895,1100076252,0.659430,-0.712382,0.229253,-0.071492,0.171813,-0.039078,-0.795699
896,1100109586,0.656771,-0.716691,0.223705,-0.070467,-0.010008,-0.158405,-0.375320
897,1100142920,0.653445,-0.721398,0.218286,-0.070361,-0.062660,0.068023,-0.002782
898,1100176254,0.650375,-0.725723,0.213084,-0.070263,-0.115431,-0.189199,0.758802
899,1100209588,0.649091,-0.728491,0.207483,-0.070259,0.022625,0.136620,0.494309
900,1100242922,0.647584,-0.731484,0.202074,-0.068826,-0.044893,0.341993,0.581063
901,1100276256,0.646111,-0.734469,0.196755,-0.066242,0.016052,0.226143,0.857832
902,1100309590,0.646895,-0.735467,0.191008,-0.064297,0.042763,0.662839,0.322108
903,1100342924,0.648210,-0.735818,0.185643,-0.062741,-0.069603,0.449567,0.282423
904,1100376258,0.649574,-0.735979,0.180643,-0.061322,0.065161,0.336535,0.401474
905,1100409592,0.651780,-0.735230,0.176248,-0.059677,0.140459,0.284055,0.326353
906,1100442926,0.653585,-0.734547,0.173205,-0.057196,0.198976,0.182060,0.353338
907,1100476260,0.655384,-0.733575,0.171416,-0.054407,0.307910,0.342927,0.179637
908,1100509594,0.656469,-0.732716,0.171827,-0.051537,0.645854,0.472298,0.406062
909,1100542928,0.657132,-0.731314,0.175882,-0.049262,1.423866,0.526736,0.972100
910,1100576262,0.658801,-0.727719,0.184524,-0.048593,1.866789,1.243836,0.776823
911,1100609596,0.659818,-0.723050,0.198393,-0.049818,1.910583,1.254822,0.420290
912,1100642930,0.659920,-0.717562,0.216386,-0.052834,2.344028,1.086419,0.658619
913,1100676264,0.659234,-0.710802,0.238418,-0.057730,2.470069,0.724696,0.478400
914,1100709598,0.658825,-0.700907,0.265418,-0.065098,3.867391,-0.255443,1.338602
915,1100742932,0.660408,-0.684631,0.298303,-0.078500,4.562262,-0.734467,0.705342
916,1100776266,0.661806,-0.661509,0.338402,-0.099533,4.357429,-0.938890,-0.136014
917,1100809600,0.664616,-0.628058,0.382911,-0.131192,3.763832,-1.243632,-0.847079
918,1100842934,0.663270,-0.587741,0.429453,-0.173803,2.910289,-2.235274,-1.568500
919,1100876268,0.654849,-0.543249,0.474763,-0.225071,1.281361,-2.768907,-2.100991
920,1100909602,0.640478,-0.494065,0.513556,-0.286273,0.115530,-2.097956,-2.748632
921,1100942936,0.619017,-0.444899,0.542013,-0.353707,-1.565614,-0.890181,-2.501788
922,1100976270,0.592312,-0.400575,0.555049,-0.425007,-0.298705,0.778248,-2.282910
923,1101009604,0.565143,-0.363497,0.546216,-0.500135,-2.221114,0.963799,-0.965959
924,1101042938,0.533248,-0.342717,0.527732,-0.565416,-2.979407,-0.020397,-0.841888
925,1101076272,0.502793,-0.331759,0.501442,-0.621044,-3.357138,-1.227028,1.674404
926,1101109606,0.477267,-0.326560,0.477097,-0.661783,-5.015953,-2.151701,3.343819
927,1101142940,0.452686,-0.327821,0.461174,-0.689153,-4.587740,0.005874,0.556816
928,1101176274,0.431702,-0.331564,0.450375,-0.707718,-5.632032,0.176858,0.302916
929,1101209608,0.420679,-0.327597,0.433526,-0.726476,-3.903572,-0.555335,1.623639
930,1101242942,0.421386,-0.320462,0.418350,-0.738055,-3.536430,-0.301680,2.400510
931,1101276276,0.427710,-0.319639,0.421897,-0.732736,-3.332577,-0.317616,1.032261
932,1101309610,0.439942,-0.325057,0.438425,-0.713146,-3.413610,0.984563,0.960529
933,1101342944,0.460993,-0.331006,0.451811,-0.688325,-3.220738,1.973281,0.743527
934,1101376278,0.485820,-0.337281,0.460732,-0.661778,-0.604054,0.739846,0.716118
935,1101409612,0.507806,-0.345441,0.470950,-0.633256,-0.651011,1.992064,-0.952033
936,1101442946,0.525457,-0.361814,0.482314,-0.600302,-0.707098,1.556380,-0.388264
937,1101476280,0.542087,-0.378546,0.491279,-0.567004,0.792238,1.527668,0.942095
938,1101509614,0.559667,-0.393800,0.495517,-0.534941,-0.651282,0.842812,1.209199
939,1101542948,0.579552,-0.404661,0.495041,-0.505280,0.590740,0.182580,1.236282
940,1101576282,0.600054,-0.409463,0.494569,-0.477160,0.380500,0.130488,-0.004445
941,1101609616,0.618019,-0.413684,0.496840,-0.447295,-0.357222,0.234721,-0.997557
942,1101642950,0.632410,-0.421437,0.500555,-0.414606,-0.537097,-0.331500,-1.243307
943,1101676284,0.642777,-0.432746,0.504044,-0.381460,-1.027844,-1.259271,-0.712314
944,1101709618,0.649796,-0.445545,0.507340,-0.349091,-0.310839,-1.804600,-0.357079
945,1101742952,0.654315,-0.458660,0.510836,-0.317102,-0.418187,-1.223567,-0.983829
946,1101776286,0.656580,-0.472990,0.512576,-0.287147,-0.233933,-0.594808,-0.607085
947,1101809620,0.658790,-0.487174,0.510628,-0.260614,-0.278071,-0.109889,-0.613421
948,1101842954,0.659752,-0.504040,0.505427,-0.234989,0.168011,0.677163,-0.319103
949,1101876288,0.658892,-0.523825,0.497236,-0.210307,0.014512,0.637474,0.515674
950,1101909622,0.659733,-0.542298,0.485093,-0.188027,0.278142,0.459935,1.138475
951,1101942956,0.663654,-0.556996,0.470069,-0.168396,0.600209,0.781964,1.069877
952,1101976290,0.669742,-0.568345,0.453421,-0.151141,0.709111,-0.016034,1.260557
953,1102009624,0.678286,-0.576123,0.435460,-0.135609,0.659491,-0.039252,0.719746
954,1102042958,0.685787,-0.583517,0.418182,-0.119716,0.902402,-0.038460,0.275063
955,1102076292,0.691956,-0.590424,0.402201,-0.104092,0.660894,-0.199546,0.045949
956,1102109626,0.698068,-0.595645,0.386936,-0.090511,0.368854,-0.234210,0.151236
957,1102142960,0.704482,-0.598761,0.372701,-0.079302,0.495006,-0.324606,-0.230814
958,1102176294,0.709742,-0.601245,0.360588,-0.068926,0.685719,-0.494973,-0.474525
959,1102209628,0.713169,-0.603848,0.350983,-0.059770,0.811583,-0.628171,-0.373733
960,1102242962,0.715369,-0.606158,0.343615,-0.052463,0.863692,-0.549003,-0.557631
961,1102276296,0.716202,-0.608996,0.337657,-0.046593,0.313143,-0.473363,-0.339866
962,1102309630,0.716544,-0.612228,0.331639,-0.041966,0.408408,-0.239698,-0.124518
963,1102342964,0.716822,-0.615710,0.324982,-0.038178,0.079545,-0.126303,-0.006487
964,1102376298,0.717528,-0.619246,0.317019,-0.034506,0.039619,-0.082335,0.430100
965,1102409632,0.718974,-0.621908,0.308808,-0.030781,0.215281,-0.056454,0.481996
966,1102442966,0.720820,-0.623648,0.301290,-0.026646,0.100404,-0.125433,0.448223
967,1102476300,0.723021,-0.624415,0.294689,-0.022565,0.193508,-0.188763,0.288612
968,1102509634,0.725076,-0.624664,0.289334,-0.018704,0.298907,-0.295246,-0.039314
969,1102542968,0.726637,-0.624904,0.285078,-0.015121,0.339058,-0.446035,-0.008772
970,1102576302,0.727976,-0.625009,0.281556,-0.012071,0.526474,-0.444833,-0.073244
971,1102609636,0.728982,-0.625141,0.278743,-0.009484,0.588524,-0.328415,-0.186972
972,1102642970,0.729467,-0.625614,0.276469,-0.007376,0.391525,-0.202768,-0.124489
973,1102676304,0.729928,-0.626037,0.274314,-0.006236,0.220775,-0.086146,-0.079755
974,1102709638,0.730368,-0.626518,0.272044,-0.005806,-0.036319,-0.169748,0.101689
975,1102742972,0.730833,-0.627088,0.269481,-0.005352,-0.225839,-0.005936,0.191208
976,1102776306,0.731360,-0.627685,0.266664,-0.004377,-0.446707,0.100043,-0.048244
977,1102809640,0.731116,-0.629165,0.263853,-0.002601,-0.762249,0.072717,-0.273894
978,1102842974,0.730261,-0.631815,0.259867,-0.001511,-1.019854,0.075462,0.408376
979,1102876308,0.729837,-0.634855,0.253575,-0.000179,-0.929096,-0.273196,1.274954
980,1102909642,0.731011,-0.636594,0.245677,0.004122,-0.262318,-0.111943,1.537139
981,1102942976,0.734549,-0.635541,0.237488,0.011355,-0.334058,0.112641,0.943424
982,1102976310,0.739248,-0.633032,0.228885,0.019950,-0.771782,0.141538,0.382191
983,1103009644,0.743569,-0.630899,0.219622,0.029015,-0.812383,0.093373,0.286338
984,1103042978,0.747018,-0.629598,0.209866,0.039129,-1.075761,-0.154870,0.713846
985,1103076312,0.750209,-0.628257,0.199522,0.051717,-1.037108,-0.379032,0.959637
986,1103109646,0.753895,-0.625571,0.189009,0.067704,-1.183694,-0.324779,0.852573
987,1103142980,0.758303,-0.620793,0.178849,0.087230,-1.069934,-0.473432,0.292430
988,1103176314,0.761571,-0.616078,0.169158,0.108848,-1.008546,-0.735729,-0.358232
989,1103209648,0.762841,-0.612659,0.159483,0.131498,-0.941225,-0.816955,-0.438129
990,1103242982,0.762746,-0.610123,0.148809,0.154365,-0.691134,-0.945724,-0.324642
991,1103276316,0.761395,-0.608275,0.136533,0.177886,-0.509065,-1.262455,-0.128921
992,1103309650,0.758620,-0.606898,0.123378,0.202365,0.022926,-1.017341,0.073391
993,1103342984,0.754705,-0.605313,0.110128,0.227797,0.437547,-0.827071,0.238382
994,1103376318,0.749841,-0.603217,0.096963,0.253908,0.253973,-0.787368,0.206983
995,1103409652,0.744200,-0.600619,0.083154,0.280200,0.228529,-0.923164,0.181226
996,1103442986,0.738778,-0.596284,0.066165,0.307048,-0.079077,-1.497441,0.045643
997,1103476320,0.733230,-0.590233,0.045120,0.334616,0.589375,-0.998814,0.118952
998,1103509654,0.727089,-0.582948,0.023539,0.361888,0.401383,-0.750004,-0.263067
999,1103542988,0.719793,-0.575951,0.003472,0.387519,0.296296,0.075919,-0.119569
1000,1103576322,0.711985,-0.570448,-0.013732,0.409246,0.186351,0.534980,-0.366735
1001,1103609656,0.704393,-0.567143,-0.027318,0.425954,0.616468,0.956887,-0.080667
1002,1103642990,0.697378,-0.565759,-0.035188,0.438572,0.381021,1.271763,0.572933
1003,1103676324,0.690125,-0.567253,-0.038267,0.447762,0.486972,1.169850,0.631186
1004,1103709658,0.684315,-0.568770,-0.038508,0.454682,0.809635,0.601990,0.925769
1005,1103742992,0.682499,-0.566411,-0.034967,0.460604,1.350681,0.790285,0.726774
1006,1103776326,0.681583,-0.563258,-0.030006,0.466142,0.841454,0.499344,-0.167318
1007,1103809660,0.679193,-0.561743,-0.026612,0.471633,0.790922,0.511621,0.082915
1008,1103842994,0.677140,-0.559915,-0.024158,0.476863,0.982177,0.229646,-0.331393
1009,1103876328,0.675447,-0.557987,-0.022713,0.481570,0.928172,0.156174,-0.584260
1010,1103909662,0.674578,-0.555547,-0.022000,0.485625,0.992322,0.262973,-0.658340
1011,1103942996,0.673802,-0.553028,-0.021963,0.489563,1.050549,-0.071791,-0.886748
1012,1103976330,0.672027,-0.551345,-0.023580,0.493808,0.910527,0.226606,-0.852293
1013,1104009664,0.669867,-0.550127,-0.026450,0.497939,0.620937,0.127427,-0.982006
1014,1104042998,0.667385,-0.549762,-0.031337,0.501378,0.218578,-0.155499,-0.771204
1015,1104076332,0.665832,-0.549360,-0.037254,0.503475,0.318413,0.237319,-0.429963
1016,1104109666,0.665302,-0.548745,-0.042890,0.504398,0.308387,0.438398,-0.073474
1017,1104143000,0.665114,-0.548193,-0.047800,0.504804,0.300907,0.478786,-0.022756
1018,1104176334,0.664831,-0.548263,-0.052085,0.504676,0.300209,0.582540,0.055267
1019,1104209668,0.664750,-0.548438,-0.055977,0.504176,0.286483,0.668548,-0.038796
1020,1104243002,0.665072,-0.548700,-0.059321,0.503083,0.565073,0.577065,-0.323743
1021,1104276336,0.665234,-0.548959,-0.063317,0.502098,1.044146,0.720623,-0.292569
1022,1104309670,0.665125,-0.548566,-0.067673,0.502103,1.286272,0.811893,-0.330468
1023,1104343004,0.663244,-0.548923,-0.072594,0.503512,1.430463,0.850844,-0.123971
1024,1104376338,0.659735,-0.549642,-0.077696,0.506567,1.250688,0.823502,0.004086
1025,1104409672,0.655313,-0.550044,-0.082700,0.511060,1.157994,1.160240,-0.183860
1026,1104443006,0.649606,-0.551025,-0.088102,0.516357,0.911429,1.184785,-0.344759
1027,1104476340,0.643607,-0.552200,-0.094221,0.521509,0.385152,0.852081,0.148005
1028,1104509674,0.638763,-0.552703,-0.099599,0.525914,0.741564,0.577128,-0.311659
1029,1104543008,0.633873,-0.553626,-0.105308,0.529734,0.269476,0.435023,-0.030335
1030,1104576342,0.629121,-0.554620,-0.110911,0.533203,0.773549,0.758020,-0.047853
1031,1104609676,0.623617,-0.557230,-0.116525,0.535744,0.723204,0.082705,-0.474230
1032,1104643010,0.617999,-0.560543,-0.123339,0.537271,0.725092,0.099500,-0.476267
1033,1104676344,0.611526,-0.565429,-0.131940,0.537514,0.697976,0.614121,-0.597062
1034,1104709678,0.605288,-0.570293,-0.141558,0.536989,0.166658,-0.294633,-0.431823
1035,1104743012,0.600588,-0.573989,-0.153829,0.534949,0.879992,-0.250187,-1.031253
1036,1104776346,0.597625,-0.577212,-0.168668,0.530307,0.003122,0.621944,-0.426908
1037,1104809680,0.598626,-0.577923,-0.181938,0.523979,0.126652,0.447004,-0.707225
1038,1104843014,0.603429,-0.577943,-0.194482,0.513844,0.667590,0.450020,-1.342831
1039,1104876348,0.608719,-0.580740,-0.208050,0.498921,-0.831577,0.834219,-0.972634
1040,1104909682,0.611288,-0.589477,-0.224465,0.477979,-0.532351,0.719163,-1.380496
1041,1104943016,0.614390,-0.600534,-0.241687,0.451081,-0.495304,0.886956,-0.056403
1042,1104976350,0.623756,-0.605960,-0.253865,0.423435,-0.863564,1.006662,1.910974
1043,1105009684,0.638906,-0.606209,-0.260540,0.395516,-0.763440,0.532258,1.145069
1044,1105043018,0.654621,-0.606145,-0.265470,0.365498,-0.265501,-0.304484,0.025489
1045,1105076352,0.668945,-0.605370,-0.270965,0.335593,-0.461038,-0.252570,0.968435
1046,1105109686,0.685965,-0.599733,-0.275566,0.306333,-1.101812,0.311294,0.157349
1047,1105143020,0.702954,-0.593225,-0.280142,0.274706,-0.944827,0.432549,-0.520303
1048,1105176354,0.717685,-0.587443,-0.285968,0.240967,0.023517,-0.411956,0.218753
1049,1105209688,0.731476,-0.580717,-0.291556,0.206665,-0.489373,-0.036769,0.119121
1050,1105243022,0.743731,-0.574124,-0.295926,0.172273,-0.327858,-0.590478,1.127854
1051,1105276356,0.752512,-0.569832,-0.298705,0.140699,0.287434,-0.994497,2.269624
1052,1105309690,0.759830,-0.565834,-0.299413,0.113340,-0.598251,-0.818096,1.286584
1053,1105343024,0.764394,-0.564224,-0.299072,0.088950,-0.252588,-1.101436,1.109220
1054,1105376358,0.766401,-0.564925,-0.298192,0.067638,-0.700414,-0.881786,1.219569
1055,1105409692,0.768954,-0.564025,-0.296740,0.050348,-0.791023,-1.307585,1.544874
1056,1105443026,0.772714,-0.560770,-0.294947,0.038223,-0.389737,-1.332236,1.416070
1057,1105476360,0.776091,-0.558078,-0.292019,0.030994,-0.312664,-1.061762,0.869772
1058,1105509694,0.777171,-0.558840,-0.288089,0.026684,-0.489083,-0.752019,0.679771
1059,1105543028,0.777506,-0.560880,-0.283360,0.024687,-0.450850,-0.768524,0.424475
1060,1105576362,0.777825,-0.562954,-0.278382,0.024050,-0.363370,-0.596533,0.037972
1061,1105609696,0.778079,-0.564791,-0.273958,0.023553,-0.283234,-0.436941,-0.025378
1062,1105643030,0.778219,-0.566333,-0.270368,0.023396,-0.194520,-0.392558,-0.135070
1063,1105676364,0.777731,-0.568465,-0.267237,0.023888,-0.120837,-0.300649,0.002001
1064,1105709698,0.776778,-0.570858,-0.264821,0.024728,-0.154827,-0.190478,0.083953
1065,1105743032,0.775970,-0.572517,-0.263467,0.026163,-0.057173,-0.034836,0.252156
1066,1105776366,0.775398,-0.573616,-0.262538,0.028297,-0.006204,-0.108094,0.264135
1067,1105809700,0.774766,-0.574542,-0.262117,0.030641,-0.013266,-0.117317,-0.019231
1068,1105843034,0.774027,-0.575451,-0.262071,0.032574,0.011916,0.068007,-0.013043
1069,1105876368,0.773409,-0.576101,-0.262280,0.034046,-0.021561,-0.040243,-0.079641
1070,1105909702,0.772845,-0.576452,-0.263057,0.034914,-0.013499,-0.191632,-0.062397
1071,1105943036,0.772239,-0.576560,-0.264523,0.035454,-0.052370,-0.196794,-0.094319
1072,1105976370,0.771510,-0.576678,-0.266301,0.036090,-0.140263,-0.263846,-0.047165
1073,1106009704,0.770549,-0.576913,-0.268466,0.036840,-0.097416,-0.474686,0.103848
1074,1106043038,0.769201,-0.577525,-0.270831,0.038074,-0.208647,-0.340787,0.111638
1075,1106076372,0.767648,-0.578235,-0.273411,0.040139,-0.395424,-0.354027,0.119272
1076,1106109706,0.766118,-0.578461,-0.276715,0.043343,-0.432217,-0.452728,0.249685
1077,1106143040,0.764905,-0.577619,-0.281074,0.047736,-0.566534,-0.236248,0.315269
1078,1106176374,0.764214,-0.575547,-0.286181,0.053175,-0.491262,-0.262787,0.439359
1079,1106209708,0.764172,-0.572405,-0.291339,0.059328,-0.285022,-0.260127,0.439740
1080,1106243042,0.764395,-0.568998,-0.296006,0.065784,-0.123294,-0.250883,0.316713
1081,1106276376,0.764559,-0.565848,-0.300071,0.072299,-0.002382,-0.283187,0.159554
1082,1106309710,0.764687,-0.562890,-0.303640,0.078834,0.103657,-0.284709,0.076768
1083,1106343044,0.764681,-0.560172,-0.306992,0.085029,0.245740,-0.266239,0.091197
1084,1106376378,0.764383,-0.557693,-0.310528,0.090964,0.325828,-0.251647,-0.022883
1085,1106409712,0.763735,-0.555420,-0.314334,0.097037,0.209266,-0.219512,0.008484
1086,1106443046,0.763180,-0.552559,-0.318853,0.102816,0.206278,-0.263984,0.088699
1087,1106476380,0.762795,-0.549052,-0.323928,0.108443,0.197034,-0.175766,0.264426
1088,1106509714,0.762162,-0.545750,-0.328910,0.114401,0.187551,-0.211188,0.333637
1089,1106543048,0.760967,-0.543403,-0.333307,0.120634,0.148313,-0.166768,0.403519
1090,1106576382,0.759732,-0.541441,-0.336971,0.126898,0.137034,-0.153166,0.490007
1091,1106609716,0.758500,-0.539849,-0.339760,0.133443,-0.007781,-0.133394,0.382853
1092,1106643050,0.756750,-0.539379,-0.341455,0.140756,0.016846,-0.272398,0.609924
1093,1106676384,0.754542,-0.539778,-0.342242,0.148931,-0.201878,-0.367673,0.385045
1094,1106709718,0.752166,-0.540678,-0.341528,0.158988,-0.165374,-0.510265,0.655188
1095,1106743052,0.750284,-0.541214,-0.339289,0.170434,-0.072795,-0.616889,0.552189
1096,1106776386,0.747606,-0.542897,-0.336460,0.182065,0.273376,-0.674106,0.803277
1097,1106809720,0.744040,-0.545550,-0.332967,0.194723,0.125475,-0.621017,0.826981
1098,1106843054,0.739566,-0.548316,-0.329454,0.209421,-0.182515,-0.836268,0.351661
1099,1106876388,0.734008,-0.550932,-0.326076,0.226681,-0.000942,-0.825949,0.353906
1100,1106909722,0.727917,-0.553060,-0.322103,0.245999,0.141784,-0.744200,0.364436
1101,1106943056,0.720604,-0.555734,-0.317624,0.266474,0.329908,-0.647796,0.355976
1102,1106976390,0.711960,-0.559091,-0.312701,0.287666,0.433339,-0.372525,0.434173
1103,1107009724,0.701731,-0.563260,-0.307622,0.309330,0.240852,-0.497084,0.301762
1104,1107043058,0.689645,-0.567965,-0.303117,0.331555,0.202089,-0.432867,0.556503
1105,1107076392,0.677146,-0.571539,-0.297982,0.355004,-0.355684,-0.539593,0.571730
1106,1107109726,0.664707,-0.573201,-0.292417,0.379608,-0.602697,-0.855119,0.648437
1107,1107143060,0.651427,-0.573848,-0.286433,0.405342,-0.399453,-0.444858,0.715926
1108,1107176394,0.637947,-0.573372,-0.278861,0.431866,-0.239368,-0.552092,0.867919
1109,1107209728,0.624385,-0.571409,-0.270716,0.458641,-0.609090,-0.788557,0.664680
1110,1107243062,0.609629,-0.569030,-0.262274,0.485566,-0.237935,-0.510772,0.785233
1111,1107276396,0.594591,-0.565816,-0.252379,0.512468,-0.088189,-0.788164,1.040331
1112,1107309730,0.580076,-0.561220,-0.240916,0.538988,-0.461820,0.056165,0.815394
1113,1107343064,0.566081,-0.556229,-0.228923,0.563702,0.262941,0.379185,-0.068358
1114,1107376398,0.552959,-0.550836,-0.218642,0.585676,1.060185,1.077736,-0.172398
1115,1107409732,0.543257,-0.543517,-0.207930,0.605170,1.226057,1.856743,-1.186678
1116,1107443066,0.535672,-0.535824,-0.197093,0.622179,1.365894,2.057857,-2.235681
1117,1107476400,0.528222,-0.530678,-0.189640,0.635140,1.124064,2.107698,-2.933280
1118,1107509734,0.520588,-0.528755,-0.187009,0.643769,0.871629,1.815484,-3.109995
1119,1107543068,0.513199,-0.529111,-0.189996,0.648517,0.195492,1.456355,-2.690702
1120,1107576402,0.507116,-0.530491,-0.197250,0.650007,-0.077189,1.393384,-1.772230
1121,1107609736,0.502489,-0.532380,-0.206167,0.649289,-0.269353,0.818324,-0.607194
1122,1107643070,0.499302,-0.534708,-0.214615,0.647093,-0.278668,0.512894,0.403577
1123,1107676404,0.497705,-0.537095,-0.220738,0.644281,-0.155843,0.329452,0.634975
1124,1107709738,0.496269,-0.539371,-0.225535,0.641821,-0.255902,0.091041,0.898675
1125,1107743072,0.495307,-0.540960,-0.229059,0.639976,-0.376192,0.727690,0.857944
1126,1107776406,0.495352,-0.542140,-0.229776,0.638685,-0.030028,1.117051,0.542426
1127,1107809740,0.495291,-0.544446,-0.228669,0.637166,-0.213255,1.413469,0.175758
1128,1107843074,0.495431,-0.548271,-0.226180,0.634660,-0.292075,1.434705,-0.314353
1129,1107876408,0.496515,-0.553190,-0.222994,0.630660,-0.277532,0.964806,-0.338224
1130,1107909742,0.499104,-0.558304,-0.219807,0.625205,-0.256057,1.191375,-0.242037
1131,1107943076,0.503119,-0.563800,-0.216556,0.618149,-0.332597,0.922395,-0.491692
1132,1107976410,0.507644,-0.569479,-0.214805,0.609799,-0.213063,0.901084,-0.171005
1133,1108009744,0.514186,-0.573634,-0.212851,0.601045,0.273700,1.549720,-0.047339
1134,1108043078,0.521504,-0.577595,-0.209773,0.591960,0.159980,1.382798,-0.366766
1135,1108076412,0.527880,-0.583191,-0.207364,0.581580,0.619948,1.232382,-0.140643
1136,1108109746,0.534170,-0.589574,-0.204486,0.570311,0.642582,1.591075,-0.096613
1137,1108143080,0.540440,-0.597273,-0.200667,0.557608,0.489738,1.415570,-0.418633
1138,1108176414,0.546581,-0.606331,-0.197458,0.542795,0.905708,1.162817,-0.337765
1139,1108209748,0.553657,-0.615396,-0.194440,0.526259,0.864564,1.141076,-0.523686
1140,1108243082,0.560614,-0.625097,-0.191954,0.508059,0.453932,0.724311,-0.405543
1141,1108276416,0.567363,-0.634647,-0.190677,0.488844,0.305481,0.357969,0.230719
1142,1108309750,0.575438,-0.642592,-0.189407,0.469123,0.318224,0.377295,0.561611
1143,1108343084,0.583586,-0.650154,-0.187025,0.449171,-0.006843,0.371850,0.720985
1144,1108376418,0.590980,-0.657960,-0.183064,0.429329,-0.168108,0.204147,0.958142
1145,1108409752,0.598164,-0.665698,-0.176923,0.409570,-0.325767,-0.087136,0.958276
1146,1108443086,0.605778,-0.671535,-0.169229,0.391714,-0.697067,-0.188267,0.851874
1147,1108476420,0.613994,-0.675106,-0.161446,0.375742,-0.439448,-0.522029,0.750222
1148,1108509754,0.622512,-0.676765,-0.153956,0.361620,-0.173771,-0.558813,0.662664
1149,1108543088,0.630840,-0.677242,-0.146364,0.349236,-0.151047,-0.499714,0.453283
1150,1108576422,0.637574,-0.678062,-0.139089,0.338217,0.045356,-0.735800,0.412869
1151,1108609756,0.643023,-0.678983,-0.132031,0.328749,0.083717,-0.482907,0.529446
1152,1108643090,0.647733,-0.679527,-0.124688,0.321159,0.043278,-0.373349,0.620294
1153,1108676424,0.651809,-0.679576,-0.117298,0.315542,-0.190144,-0.150268,0.579343
1154,1108709758,0.656077,-0.678498,-0.109676,0.311737,-0.328826,-0.063482,0.492057
1155,1108743092,0.661159,-0.675711,-0.102293,0.309554,-0.821327,-0.012263,0.797317
1156,1108776426,0.667767,-0.670437,-0.095021,0.309154,-0.900387,0.175464,0.732254
1157,1108809760,0.675385,-0.663559,-0.087162,0.309760,-0.963739,-0.439152,0.636164
1158,1108843094,0.683509,-0.655531,-0.079028,0.311212,-1.169211,-0.726692,0.587017
1159,1108876428,0.691232,-0.647015,-0.070248,0.314069,-1.206217,-0.792847,0.680592
1160,1108909762,0.697235,-0.639281,-0.061084,0.318520,-1.149876,-1.270889,0.757609
1161,1108943096,0.701891,-0.631906,-0.051919,0.324581,-1.131397,-1.354387,0.769853
1162,1108976430,0.706738,-0.623360,-0.041670,0.331982,-1.394680,-0.824590,0.580397
1163,1109009764,0.710979,-0.614567,-0.031205,0.340362,-1.241463,-0.993978,0.685494
1164,1109043098,0.715130,-0.605241,-0.021310,0.349029,-1.390022,-1.039671,0.768003
1165,1109076432,0.719037,-0.595695,-0.012056,0.357759,-1.431972,-0.675548,0.744878
1166,1109109766,0.721134,-0.588125,-0.004100,0.366145,-0.990253,-0.721358,0.831848
1167,1109143100,0.721134,-0.582931,0.002397,0.374373,-0.495278,-0.983795,0.946508
1168,1109176434,0.720286,-0.578365,0.008213,0.382908,-0.068609,-0.651539,0.786680
1169,1109209768,0.719701,-0.573558,0.013694,0.390997,0.310979,-0.813226,0.242902
1170,1109243102,0.722844,-0.564955,0.019477,0.397426,1.117113,-0.583664,0.069986
1171,1109276436,0.729026,-0.553100,0.025653,0.402428,0.713568,-0.443563,-0.668481
1172,1109309770,0.733404,-0.544083,0.028763,0.406533,1.094569,-0.447748,-1.259007
1173,1109343104,0.737646,-0.536341,0.029990,0.409050,1.802771,0.083226,-0.697920
1174,1109376438,0.745343,-0.524380,0.034555,0.410243,1.346945,0.342265,-1.060294
1175,1109409772,0.750271,-0.516607,0.038474,0.410772,0.663980,0.330912,-1.455113
1176,1109443106,0.752287,-0.514400,0.040181,0.409691,0.245811,0.068103,-0.782657
1177,1109476440,0.753443,-0.514851,0.040209,0.406988,0.175784,0.216444,-0.834881
1178,1109509774,0.755356,-0.515382,0.040088,0.402759,0.432931,0.222118,-0.310753
1179,1109543108,0.758990,-0.514388,0.041569,0.397007,0.665848,0.743085,-0.086821
1180,1109576442,0.762207,-0.514775,0.044538,0.389960,0.479442,0.603136,-0.350042
1181,1109609776,0.762681,-0.519986,0.048170,0.381596,0.121449,0.163788,-0.301491
1182,1109643110,0.763290,-0.525690,0.051136,0.372059,0.301461,-0.191001,0.165800
1183,1109676444,0.766065,-0.528416,0.053929,0.361963,0.536735,0.261703,-0.149595
1184,1109709778,0.766973,-0.533069,0.054589,0.353007,0.910770,0.058800,-0.720231
1185,1109743112,0.768194,-0.536266,0.052855,0.345698,1.740927,-0.318598,-0.723186
1186,1109776446,0.769729,-0.536148,0.049721,0.342921,2.037683,-0.054645,-0.947547
1187,1109809780,0.768771,-0.536193,0.045068,0.345632,2.167562,0.331863,-1.224861
1188,1109843114,0.765396,-0.536428,0.039401,0.353363,1.817062,0.088922,-1.062002
1189,1109876448,0.761245,-0.535621,0.032334,0.364108,1.734225,0.587899,-0.709198
1190,1109909782,0.755397,-0.535887,0.025175,0.376259,1.729291,0.493553,-1.212184
1191,1109943116,0.748679,-0.535699,0.016155,0.390192,1.428816,0.195607,-0.122244
1192,1109976450,0.741077,-0.535036,0.006166,0.405595,2.591868,1.015625,-1.028942
1193,1110009784,0.730253,-0.538146,-0.004821,0.420844,2.444824,0.347830,-1.532091
1194,1110043118,0.724557,-0.535035,-0.015482,0.434188,2.042658,0.318589,-0.992317
1195,1110076452,0.720883,-0.531508,-0.024001,0.444135,1.017897,2.076200,-2.062071
1196,1110109786,0.714413,-0.536158,-0.032529,0.448435,0.806964,-0.086855,-2.429438
1197,1110143120,0.705606,-0.548091,-0.046700,0.446698,0.624444,0.634185,-1.730493
1198,1110176454,0.699963,-0.562613,-0.061625,0.435574,-1.198310,1.280464,-0.089310
1199,1110209788,0.697962,-0.577686,-0.075426,0.416465,0.303338,0.080208,-1.099814
1200,1110243122,0.699162,-0.593430,-0.088386,0.388851,-0.212949,-0.765377,-0.727641
1201,1110276456,0.699478,-0.610477,-0.106437,0.355984,-1.514238,0.127553,-0.599649
1202,1110309790,0.699810,-0.627462,-0.128226,0.316416,0.032149,0.234237,-0.404655
1203,1110343124,0.705180,-0.637899,-0.147890,0.271914,-0.124526,0.255276,1.705088
1204,1110376458,0.713663,-0.641655,-0.165359,0.227208,-1.073786,0.563348,0.629636
1205,1110409792,0.718096,-0.647343,-0.182143,0.179201,-0.101637,0.910406,1.279081
1206,1110443126,0.727201,-0.645156,-0.194506,0.130858,-1.177373,0.033902,2.414681
1207,1110476460,0.740420,-0.635051,-0.203184,0.084908,-1.400551,1.348099,0.236790
1208,1110509794,0.748459,-0.627891,-0.210055,0.037991,-0.417046,-0.124001,1.523708
1209,1110543128,0.752128,-0.622388,-0.216474,-0.008939,-0.276058,-0.709129,1.409538
1210,1110576462,0.755386,-0.614021,-0.222967,-0.051574,-0.898198,-0.879218,1.552762
1211,1110609796,0.757893,-0.603914,-0.230469,-0.088170,-0.441495,-1.933985,2.859869
1212,1110643130,0.760123,-0.592707,-0.238187,-0.119089,-0.881092,-1.239199,0.201967
1213,1110676464,0.757879,-0.586505,-0.244863,-0.147236,-0.716446,-0.600280,-0.319991
1214,1110709798,0.752640,-0.582387,-0.251736,-0.176044,-0.517321,-0.284164,-0.226428
1215,1110743132,0.746949,-0.576020,-0.259866,-0.206742,-0.367452,-0.354524,-0.178867
1216,1110776466,0.741765,-0.566618,-0.269494,-0.236867,-0.292788,-0.624966,1.085833
1217,1110809800,0.736597,-0.556166,-0.279678,-0.264365,-0.104918,-0.206832,0.779140
1218,1110843134,0.730537,-0.546201,-0.289539,-0.290090,-0.092994,-0.362496,0.681383
1219,1110876468,0.723116,-0.536792,-0.299172,-0.315369,-0.034407,-0.170405,0.883419
1220,1110909802,0.715133,-0.527033,-0.308129,-0.340412,-0.113333,-0.329496,1.234483
1221,1110943136,0.707604,-0.517830,-0.315032,-0.363190,-0.360004,-1.158850,1.513154
1222,1110976470,0.701013,-0.511504,-0.318977,-0.381053,-0.568817,-1.207835,0.901740
1223,1111009804,0.696120,-0.507858,-0.321401,-0.392687,-0.908373,-0.862085,0.600838
1224,1111043138,0.692582,-0.505864,-0.323679,-0.399585,-0.994242,-0.813989,0.324142
1225,1111076472,0.689451,-0.505016,-0.326209,-0.403989,-1.130896,-0.818900,0.140933
1226,1111109806,0.686945,-0.504393,-0.329249,-0.406564,-1.357523,-0.824901,0.161594
1227,1111143140,0.685708,-0.503776,-0.332516,-0.406757,-1.379636,-0.937707,0.201082
1228,1111176474,0.685766,-0.504268,-0.335242,-0.403801,-1.766301,-1.110936,0.535215
1229,1111209808,0.687461,-0.507688,-0.336439,-0.395554,-1.954904,-1.094628,0.803018
1230,1111243142,0.690569,-0.514893,-0.335889,-0.381027,-1.995370,-1.157188,0.956939
1231,1111276476,0.694273,-0.525411,-0.334122,-0.360964,-2.008180,-1.050704,0.773745
1232,1111309810,0.698649,-0.536782,-0.332199,-0.336754,-1.858202,-0.972544,1.064425
1233,1111343144,0.704569,-0.546831,-0.329801,-0.309505,-1.506242,-0.635552,1.214408
1234,1111376478,0.712849,-0.554324,-0.324730,-0.281292,-1.202789,-0.381450,1.100403
1235,1111409812,0.722224,-0.559768,-0.317312,-0.253712,-0.952465,-0.825670,0.560524
1236,1111443146,0.731806,-0.563325,-0.309988,-0.225913,-0.586231,-0.772881,0.632281
1237,1111476480,0.741301,-0.565311,-0.303434,-0.197051,-0.279387,-0.772381,0.576418
1238,1111509814,0.750066,-0.566269,-0.298269,-0.166672,-0.072406,-1.201718,0.970306
1239,1111543148,0.757789,-0.566726,-0.294417,-0.133792,0.551015,-1.106687,0.723163
1240,1111576482,0.762729,-0.568977,-0.290996,-0.099169,0.748132,-0.795396,0.417553
1241,1111609816,0.764435,-0.573377,-0.287826,-0.063548,0.838258,-0.913811,0.831692
1242,1111643150,0.764693,-0.577417,-0.284822,-0.026722,1.140157,-0.799205,0.715365
1243,1111676484,0.763841,-0.580619,-0.281637,0.010612,1.197606,-0.635571,0.560622
1244,1111709818,0.761158,-0.583965,-0.278068,0.048016,1.293272,-0.326187,0.205585
1245,1111743152,0.757096,-0.586819,-0.274349,0.084769,1.180660,-0.091885,-0.345979
1246,1111776486,0.752267,-0.588499,-0.270859,0.120009,1.178743,0.237696,-0.699403
1247,1111809820,0.747927,-0.587926,-0.267460,0.153024,1.180833,0.283216,-0.629058
1248,1111843154,0.743345,-0.586722,-0.264223,0.182719,0.886786,0.448270,-1.481868
1249,1111876488,0.737697,-0.586496,-0.261638,0.208269,0.975780,0.705926,-1.124311
1250,1111909822,0.733035,-0.585728,-0.259157,0.228963,0.687905,0.769681,-1.280589
1251,1111943156,0.729879,-0.583789,-0.257022,0.245785,0.854800,0.766808,-0.909987
1252,1111976490,0.727301,-0.582233,-0.255266,0.258614,0.763739,1.043176,-0.675103
1253,1112009824,0.723846,-0.582349,-0.255007,0.268127,0.353808,1.366962,-0.883820
1254,1112043158,0.720079,-0.583961,-0.255817,0.273929,0.241532,1.271115,-0.776438
1255,1112076492,0.717488,-0.585642,-0.256951,0.276070,0.115067,1.099469,-0.652696
1256,1112109826,0.715855,-0.587685,-0.257819,0.275159,0.167475,0.773532,-0.376385
1257,1112143160,0.714537,-0.590626,-0.257674,0.272408,0.168483,0.519583,-0.069564
1258,1112176494,0.712545,-0.595026,-0.256504,0.269136,0.239037,0.478901,0.308348
1259,1112209828,0.710520,-0.599859,-0.254298,0.265833,0.147647,0.260498,0.391244
1260,1112243162,0.708588,-0.604636,-0.251402,0.262905,0.036986,0.234153,0.147855
1261,1112276496,0.706705,-0.609162,-0.248646,0.260134,0.090696,0.131466,0.176221
1262,1112309830,0.705211,-0.612966,-0.246100,0.257659,0.008153,0.329832,0.387737
1263,1112343164,0.704405,-0.615644,-0.243335,0.256104,0.029457,0.420417,0.308914
1264,1112376498,0.703516,-0.618166,-0.240475,0.255170,-0.067664,0.535928,0.240586
1265,1112409832,0.702374,-0.620941,-0.237336,0.254515,0.112608,0.608201,0.444795
1266,1112443166,0.701695,-0.623282,-0.233596,0.254129,0.065376,0.790267,0.424193
1267,1112476500,0.701405,-0.625477,-0.229140,0.253592,0.014750,0.912357,0.551223
1268,1112509834,0.700297,-0.628903,-0.223636,0.253093,0.114496,1.117202,0.836657
1269,1112543168,0.699766,-0.632119,-0.215796,0.253357,0.173956,1.190878,0.902493
1270,1112576502,0.700807,-0.634277,-0.205564,0.253595,0.159734,0.942605,0.378282
1271,1112609836,0.702021,-0.636729,-0.194440,0.252863,0.088763,0.808582,0.330690
1272,1112643170,0.703730,-0.638833,-0.182720,0.251544,0.256474,0.640738,0.502302
1273,1112676504,0.705277,-0.640895,-0.170731,0.250384,0.221078,0.501599,0.034228
1274,1112709838,0.705517,-0.644115,-0.158863,0.249253,0.367610,0.362663,0.153532
1275,1112743172,0.705524,-0.647361,-0.146923,0.248147,0.272470,0.216997,-0.043672
1276,1112776506,0.706791,-0.649180,-0.134810,0.246662,0.364095,0.139277,-0.002806
1277,1112809840,0.708849,-0.650205,-0.122945,0.244244,0.151340,0.129297,-0.254493
1278,1112843174,0.710829,-0.651303,-0.111636,0.240974,0.059651,0.098964,-0.258364
1279,1112876508,0.713153,-0.651920,-0.101096,0.237058,-0.039596,0.128278,-0.088269
1280,1112909842,0.716044,-0.651696,-0.091143,0.232960,-0.040813,0.190455,-0.028170
1281,1112943176,0.718933,-0.651239,-0.081603,0.228840,0.056805,0.185178,0.010695
1282,1112976510,0.721781,-0.650787,-0.072248,0.224263,0.058326,0.164416,-0.111861
1283,1113009844,0.724666,-0.650417,-0.062925,0.218773,0.085525,0.045824,-0.199580
1284,1113043178,0.727609,-0.650039,-0.053699,0.212499,0.052801,-0.076737,-0.213386
1285,1113076512,0.730489,-0.649733,-0.044833,0.205492,-0.014869,-0.101468,-0.236618
1286,1113109846,0.733209,-0.649515,-0.036506,0.198005,0.045155,-0.208915,-0.168785
1287,1113143180,0.735514,-0.649587,-0.028655,0.190366,0.009319,-0.279861,-0.027964
1288,1113176514,0.737512,-0.649746,-0.021189,0.182927,0.002558,-0.331610,0.117186
1289,1113209848,0.739397,-0.649705,-0.013677,0.176047,-0.056855,-0.319235,0.162956
1290,1113243182,0.741200,-0.649433,-0.006068,0.169783,-0.079939,-0.338947,0.255442
1291,1113276516,0.743239,-0.648552,0.001334,0.164252,-0.137690,-0.265622,0.233942
1292,1113309850,0.745650,-0.646937,0.008059,0.159428,-0.107149,-0.172880,0.113472
1293,1113343184,0.748179,-0.645071,0.013820,0.154678,-0.079525,-0.224297,-0.056506
1294,1113376518,0.750504,-0.643400,0.018962,0.149747,-0.050631,-0.326672,-0.030736
1295,1113409852,0.752345,-0.642175,0.024202,0.144941,-0.016516,-0.406436,0.102976
1296,1113443186,0.753746,-0.641216,0.030089,0.140740,-0.004140,-0.437569,0.261984
1297,1113476520,0.754995,-0.640208,0.036381,0.137098,-0.134315,-0.423231,0.175551
1298,1113509854,0.756332,-0.638955,0.042413,0.133805,-0.175377,-0.409224,0.121887
1299,1113543188,0.757751,-0.637478,0.047855,0.130956,-0.182009,-0.457077,0.162107
1300,1113576522,0.759131,-0.635963,0.052578,0.128491,-0.273098,-0.490137,0.025995
1301,1113609856,0.760307,-0.634648,0.056505,0.126362,-0.260889,-0.565633,0.030785
1302,1113643190,0.761320,-0.633463,0.059669,0.124742,-0.217707,-0.562179,-0.105957
1303,1113676524,0.761865,-0.632794,0.062005,0.123661,-0.312456,-0.494958,-0.132832
1304,1113709858,0.762318,-0.632274,0.063119,0.122963,-0.414210,-0.439795,-0.070809
1305,1113743192,0.763081,-0.631402,0.062844,0.122859,-0.489263,-0.282926,0.269970
1306,1113776526,0.763607,-0.630699,0.061496,0.123880,-0.588766,-0.293965,0.322890
1307,1113809860,0.763190,-0.630937,0.059463,0.126203,-0.878197,-0.400760,0.291158
1308,1113843194,0.762036,-0.631786,0.056445,0.130253,-0.808090,-0.387455,0.612230
1309,1113876528,0.760853,-0.632321,0.052462,0.136108,-0.820266,-0.412032,0.662979
1310,1113909862,0.760322,-0.631668,0.047623,0.143676,-1.105704,-0.240201,0.640779
1311,1113943196,0.761753,-0.628265,0.041445,0.152646,-1.409611,0.012083,0.474029
1312,1113976530,0.765260,-0.621965,0.033819,0.162471,-1.249721,-0.192140,0.318872
1313,1114009864,0.769088,-0.614656,0.025813,0.173317,-1.084405,-0.613281,0.819544
1314,1114043198,0.772693,-0.606635,0.017966,0.186065,-1.042713,-0.826387,0.961255
1315,1114076532,0.775954,-0.597778,0.011355,0.201080,-1.005009,-0.769738,0.888405
1316,1114109866,0.777159,-0.590051,0.006326,0.218695,-1.268214,-0.845541,1.103303
1317,1114143200,0.777090,-0.582586,0.002990,0.238160,-1.592211,-0.344796,1.448389
1318,1114176534,0.775930,-0.575394,0.002090,0.258562,-1.802794,-0.744966,1.088748
1319,1114209868,0.773084,-0.569452,0.001743,0.279404,-1.854910,-0.344913,1.431935
1320,1114243202,0.771556,-0.561627,0.003849,0.298773,-2.091217,0.044624,1.919161
1321,1114276536,0.771814,-0.551927,0.006686,0.315658,-2.437147,-0.838691,0.870075
1322,1114309870,0.771675,-0.544337,0.006268,0.328907,-2.079993,-0.061935,0.936521
1323,1114343204,0.773965,-0.536417,0.004805,0.336476,-0.807252,-0.448475,0.346622
1324,1114376538,0.782883,-0.524379,0.004207,0.334825,1.168656,-0.126500,-0.792840
1325,1114409872,0.796711,-0.509436,0.003742,0.325142,2.143663,-0.053792,-2.489950
1326,1114443206,0.806803,-0.502174,0.000310,0.311280,3.002764,0.404554,-1.862803
1327,1114476540,0.812919,-0.501682,-0.004226,0.295743,4.123937,0.616693,-2.024173
1328,1114509874,0.816554,-0.504644,-0.009509,0.280155,3.173921,-0.284127,-3.132614
1329,1114543208,0.821888,-0.502331,-0.012756,0.268338,3.174658,0.538342,-0.486442
1330,1114576542,0.833147,-0.488404,-0.012546,0.259180,2.305186,0.863411,-0.774712
1331,1114609876,0.837485,-0.483846,-0.013669,0.253634,1.674983,0.568099,-1.477917
1332,1114643210,0.837342,-0.485502,-0.016522,0.250755,1.671510,0.327416,0.056580
1333,1114676544,0.838840,-0.483356,-0.018481,0.249754,1.300981,0.274379,-0.315837
1334,1114709878,0.838637,-0.483291,-0.021133,0.250352,0.806819,0.131845,-0.055730
1335,1114743212,0.837640,-0.484203,-0.023508,0.251712,1.113788,0.356009,0.203308
1336,1114776546,0.835834,-0.486144,-0.024570,0.253864,0.610204,-0.028357,0.014667
1337,1114809880,0.833211,-0.488862,-0.026053,0.257095,0.819643,0.486699,0.328345
1338,1114843214,0.831155,-0.490179,-0.026820,0.261135,0.699176,0.219541,0.109512
1339,1114876548,0.828939,-0.491008,-0.028165,0.266424,0.814838,0.346305,0.059435
1340,1114909882,0.825670,-0.492760,-0.029189,0.273147,1.065416,0.337354,-0.152846
1341,1114943216,0.822186,-0.494141,-0.029619,0.281003,0.562936,0.279375,0.091320
1342,1114976550,0.818304,-0.495722,-0.029837,0.289399,1.066106,0.408991,-0.110291
1343,1115009884,0.811953,-0.500537,-0.029563,0.298873,0.830222,0.018821,-0.355570
1344,1115043218,0.806568,-0.503262,-0.029885,0.308686,0.827835,0.370211,0.214351
1345,1115076552,0.802364,-0.503596,-0.029432,0.318969,1.415903,0.168929,-0.629692
1346,1115109886,0.795899,-0.506038,-0.030402,0.330983,0.487774,-0.443995,-0.219062
1347,1115143220,0.791694,-0.505002,-0.033473,0.342166,0.721877,0.490979,0.091159
1348,1115176554,0.789926,-0.500692,-0.035685,0.352215,0.771003,-0.188633,-1.311027
1349,1115209888,0.787973,-0.496023,-0.037248,0.362874,1.069309,-0.357694,-0.516629
1350,1115243222,0.785940,-0.491243,-0.037077,0.373642,1.458300,0.385331,0.281556
1351,1115276556,0.783862,-0.487508,-0.030643,0.383356,1.187805,0.599625,0.018988
1352,1115309890,0.777728,-0.491214,-0.026052,0.391375,-0.547105,-0.763906,-1.431221
1353,1115343224,0.769234,-0.499999,-0.029803,0.396731,-0.528365,0.912787,0.135437
1354,1115376558,0.765959,-0.503550,-0.033576,0.398273,-0.028324,0.393793,-0.880590
1355,1115409892,0.766183,-0.503190,-0.038831,0.397819,0.174567,-0.364418,-0.548499
1356,1115443226,0.767993,-0.503284,-0.048714,0.393095,0.049389,0.709916,-1.270233
1357,1115476560,0.770924,-0.504627,-0.061075,0.383798,0.187337,-0.368359,-1.845390
1358,1115509894,0.777566,-0.503192,-0.074975,0.369556,-0.370154,-0.316534,-2.378812
1359,1115543228,0.784361,-0.504376,-0.093181,0.348861,-0.757833,0.438465,-2.691556
1360,1115576562,0.789615,-0.509058,-0.116724,0.322099,-0.303233,-0.468738,-1.140283
1361,1115609896,0.795209,-0.511849,-0.140864,0.292941,0.209392,-0.674299,0.249889
1362,1115643230,0.795863,-0.519017,-0.165033,0.264559,-0.465311,-0.623287,2.145120
1363,1115676564,0.792274,-0.530121,-0.186859,0.237406,-0.374566,-0.275170,2.710832
1364,1115709898,0.792768,-0.534706,-0.201346,0.212304,-1.804086,0.284256,2.704881
1365,1115743232,0.793686,-0.539602,-0.207706,0.189088,-1.761422,1.201267,2.573653
1366,1115776566,0.795031,-0.545998,-0.207039,0.164169,-0.629704,-1.022776,0.835207
1367,1115809900,0.796690,-0.551007,-0.204293,0.141228,0.242461,-1.600810,1.085115
1368,1115843234,0.797958,-0.554742,-0.201264,0.122564,-0.352583,0.324720,1.588255
1369,1115876568,0.800969,-0.554160,-0.200113,0.106369,-0.295900,0.443900,0.557883
1370,1115909902,0.799827,-0.557724,-0.202363,0.090966,0.075439,-0.063300,-0.271870
1371,1115943236,0.794909,-0.565286,-0.206815,0.076186,-0.953955,0.230921,0.770015
1372,1115976570,0.792251,-0.569131,-0.211196,0.061871,-1.085794,0.149975,1.318036
1373,1116009904,0.790883,-0.570905,-0.214960,0.048667,-0.498508,-0.331199,1.410979
1374,1116043238,0.790344,-0.571801,-0.216690,0.038060,-0.686508,-0.405112,0.991892
1375,1116076572,0.790223,-0.572023,-0.217695,0.030827,-0.432655,-0.484536,1.065044
1376,1116109906,0.790244,-0.571959,-0.218404,0.026122,-0.394291,-0.428241,0.868519
1377,1116143240,0.791146,-0.570588,-0.219022,0.023448,-0.286078,-0.470608,0.008669
1378,1116176574,0.791244,-0.570096,-0.220037,0.022607,-0.411492,-0.649787,-0.569835
1379,1116209908,0.790207,-0.570677,-0.222163,0.023413,-0.386510,-0.723325,-0.150007
1380,1116243242,0.789480,-0.570479,-0.224922,0.026255,-0.221437,-0.716623,0.359926
1381,1116276576,0.788748,-0.570010,-0.228059,0.030957,0.043582,-0.674408,0.264297
1382,1116309910,0.787054,-0.570536,-0.231685,0.036889,0.108056,-0.449134,0.059093
1383,1116343244,0.785007,-0.571382,-0.235451,0.043061,0.137052,-0.126339,0.159588
1384,1116376578,0.783068,-0.572417,-0.238303,0.048564,0.121330,0.329384,0.182434
1385,1116409912,0.781416,-0.573761,-0.239548,0.053004,0.225424,0.230665,0.435864
1386,1116443246,0.780384,-0.575087,-0.238852,0.056837,0.313962,0.482528,0.685577
1387,1116476580,0.780079,-0.576442,-0.235811,0.059907,0.278011,0.683833,0.435067
1388,1116509914,0.779543,-0.578976,-0.230927,0.061448,0.368947,0.503044,0.220634
1389,1116543248,0.779183,-0.581864,-0.224771,0.061571,0.513305,0.346502,0.096284
1390,1116576582,0.779191,-0.584620,-0.217834,0.060280,0.522979,0.351153,-0.211215
1391,1116609916,0.778646,-0.588255,-0.210797,0.056880,0.447115,0.185146,-0.421239
1392,1116643250,0.778361,-0.591276,-0.204706,0.051452,0.423328,-0.076253,-0.139518
1393,1116676584,0.778504,-0.593257,-0.199882,0.045044,0.326151,-0.074992,-0.239400
1394,1116709918,0.778041,-0.595719,-0.195764,0.038100,0.308122,-0.145565,-0.103601
1395,1116743252,0.777065,-0.598720,-0.191740,0.030736,0.087656,-0.337569,-0.049172
1396,1116776586,0.775896,-0.601815,-0.187811,0.023130,-0.038800,-0.339473,-0.100985
1397,1116809920,0.774216,-0.605333,-0.184207,0.015294,-0.201139,-0.353904,-0.035498
1398,1116843254,0.772241,-0.608976,-0.180917,0.008043,-0.349696,-0.395400,0.279806
1399,1116876588,0.770631,-0.612036,-0.177594,0.001909,-0.262023,-0.311149,0.343650
1400,1116909922,0.769080,-0.615074,-0.173764,-0.003331,-0.186991,-0.240967,0.321174
1401,1116943256,0.767532,-0.618191,-0.169324,-0.008229,-0.174760,-0.127586,0.110334
1402,1116976590,0.766062,-0.621188,-0.164610,-0.013460,-0.185089,-0.077913,0.090395
1403,1117009924,0.764518,-0.624153,-0.159959,-0.019031,-0.272686,-0.032005,0.058122
1404,1117043258,0.762799,-0.627118,-0.155773,-0.024474,-0.362092,-0.072364,0.107998
1405,1117076592,0.761218,-0.629633,-0.152418,-0.029692,-0.517035,-0.103718,0.279038
1406,1117109926,0.760428,-0.630946,-0.149945,-0.034314,-0.642671,-0.101794,0.397713
1407,1117143260,0.760300,-0.631391,-0.147871,-0.037787,-0.594257,-0.119450,0.356611
1408,1117176594,0.760645,-0.631367,-0.145667,-0.039741,-0.430586,-0.204652,0.388150
1409,1117209928,0.761271,-0.631083,-0.143392,-0.040545,-0.228461,-0.166373,0.194092
1410,1117243262,0.761869,-0.630864,-0.141107,-0.040733,-0.075019,-0.087640,0.026707
1411,1117276596,0.762356,-0.630684,-0.139246,-0.040826,-0.024072,-0.051664,0.027955
1412,1117309930,0.762759,-0.630391,-0.138217,-0.041303,0.012627,0.077477,-0.139418
1413,1117343264,0.762888,-0.630237,-0.137942,-0.042178,0.002988,-0.011745,-0.005126
1414,1117376598,0.762788,-0.630352,-0.137753,-0.042890,-0.083627,0.000939,0.348583
1415,1117409932,0.763267,-0.629899,-0.137079,-0.043184,-0.137875,0.131625,0.396313
1416,1117443266,0.764286,-0.629020,-0.135382,-0.043322,0.024542,0.123040,0.275039
1417,1117476600,0.765380,-0.628363,-0.132099,-0.043669,0.280951,0.354168,0.280509
1418,1117509934,0.766358,-0.628210,-0.126754,-0.044556,0.409148,0.250819,0.285770
1419,1117543268,0.767084,-0.628645,-0.119403,-0.046206,0.501824,0.394858,0.392582
1420,1117576602,0.767661,-0.629496,-0.110043,-0.048220,0.495508,0.515573,0.529889
1421,1117609936,0.768128,-0.630651,-0.098571,-0.050469,0.624414,0.351046,0.573004
1422,1117643270,0.768480,-0.631939,-0.085220,-0.053242,0.652705,0.356316,0.463185
1423,1117676604,0.769227,-0.632522,-0.070648,-0.056732,0.622073,0.164365,0.215902
1424,1117709938,0.769778,-0.632876,-0.055823,-0.061628,0.404866,0.090888,-0.173683
1425,1117743272,0.770332,-0.632668,-0.041830,-0.067629,0.292394,-0.071556,-0.093857
1426,1117776606,0.771095,-0.631714,-0.029127,-0.074200,0.265640,-0.248426,-0.115592
1427,1117809940,0.771134,-0.631283,-0.017345,-0.080858,0.107390,-0.292758,-0.048898
1428,1117843274,0.770942,-0.630839,-0.006523,-0.087472,-0.059518,-0.296799,-0.061222
1429,1117876608,0.770913,-0.629971,0.002891,-0.093944,-0.230177,-0.279592,-0.057673
1430,1117909942,0.770872,-0.628966,0.010896,-0.100221,-0.229766,-0.212019,0.026928
1431,1117943276,0.770609,-0.628129,0.018139,-0.106258,-0.276241,-0.258375,0.162879
1432,1117976610,0.770511,-0.627045,0.024441,-0.111954,-0.341153,-0.251547,0.242475
1433,1118009944,0.771054,-0.625246,0.029992,-0.116828,-0.380487,-0.121923,0.095464
1434,1118043278,0.771723,-0.623429,0.035148,-0.120615,-0.499345,-0.153346,-0.008984
1435,1118076612,0.772422,-0.621658,0.039744,-0.123817,-0.530909,-0.187684,-0.055938
1436,1118109946,0.773169,-0.619883,0.043990,-0.126581,-0.480643,-0.138601,-0.099483
1437,1118143280,0.774024,-0.618011,0.047931,-0.129063,-0.356425,-0.152161,-0.026825
1438,1118176614,0.775122,-0.615830,0.051582,-0.131464,-0.227217,-0.049176,0.045310
1439,1118209948,0.776275,-0.613527,0.055366,-0.133868,-0.163462,-0.043777,0.053845
1440,1118243282,0.776997,-0.611603,0.059644,-0.136615,-0.162502,0.094663,0.043114
1441,1118276616,0.777096,-0.610255,0.065110,-0.139554,-0.220775,0.175326,0.219210
1442,1118309950,0.776747,-0.609229,0.072257,-0.142429,-0.225221,0.090788,0.287512
1443,1118343284,0.776145,-0.608275,0.081022,-0.145048,-0.113631,-0.058395,0.331341
1444,1118376618,0.775288,-0.607433,0.090993,-0.147234,-0.144874,-0.274153,0.456409
1445,1118409952,0.774378,-0.606593,0.101378,-0.148697,-0.143388,-0.277017,0.234573
1446,1118443286,0.773115,-0.606241,0.111665,-0.149334,-0.223616,-0.243208,0.054370
1447,1118476620,0.771685,-0.606184,0.121356,-0.149396,-0.286372,-0.226806,-0.046884
1448,1118509954,0.770240,-0.606214,0.130247,-0.149247,-0.298515,-0.168571,-0.252111
1449,1118543288,0.768629,-0.606527,0.137996,-0.149318,-0.391591,-0.232464,-0.285810
1450,1118576622,0.767134,-0.606875,0.144093,-0.149832,-0.531959,-0.121566,-0.226843
1451,1118609956,0.765859,-0.607258,0.148844,-0.150161,-0.524140,-0.088577,-0.200307
1452,1118643290,0.764520,-0.608107,0.152633,-0.149742,-0.304900,-0.181326,-0.040239
1453,1118676624,0.762563,-0.609973,0.155862,-0.148803,-0.212463,-0.255415,0.088003
1454,1118709958,0.760546,-0.612055,0.158722,-0.147545,-0.139722,-0.161566,0.099028
1455,1118743292,0.758732,-0.614063,0.161062,-0.145995,-0.083063,-0.057168,0.117354
1456,1118776626,0.756872,-0.616361,0.162886,-0.143929,0.044997,0.043878,-0.011821
1457,1118809960,0.754895,-0.618868,0.164516,-0.141685,0.157025,0.061554,-0.026109
1458,1118843294,0.752915,-0.621262,0.165902,-0.140116,0.160972,0.031179,-0.023114
1459,1118876628,0.751013,-0.623460,0.166625,-0.139709,0.109600,0.170774,0.090948
1460,1118909962,0.749428,-0.625274,0.166787,-0.139916,-0.070483,0.161639,0.325111
1461,1118943296,0.748605,-0.626247,0.166698,-0.140077,-0.225604,0.109941,0.535207
1462,1118976630,0.748625,-0.626298,0.166857,-0.139552,-0.248151,0.028160,0.505447
1463,1119009964,0.749134,-0.625882,0.167360,-0.138076,-0.216544,-0.008420,0.459626
1464,1119043298,0.750250,-0.624869,0.167766,-0.136099,-0.183126,0.020405,0.300925
