sep=,
DeviceTag:,D_leg_new
FirmwareVersion:,2.2.1
AppVersion:,2023.6.0
SyncStatus:,Synced
OutputRate:,30Hz
FilterProfile:,General
Measurement Mode:,Sensor fusion Mode - Complete(Quaternion)
StartTime: ,2026-09-07_14:25:59_109 AEST
© Movella Technologies B. V. 2005-2026

PacketCounter,SampleTimeFine,Quat_W,Quat_X,Quat_Y,Quat_Z,FreeAcc_X,FreeAcc_Y,FreeAcc_Z
1,2542585561,0.325269,-0.739454,-0.386763,-0.444774,0.021209,-0.163869,0.218012
2,2542618895,0.324406,-0.739791,-0.386267,-0.445274,0.003331,-0.302941,0.234173
3,2542652229,0.323903,-0.739858,-0.385873,-0.445871,0.098255,-0.329465,0.199645
4,2542685563,0.323330,-0.739953,-0.385329,-0.446598,0.106746,-0.341195,0.110886
5,2542718897,0.322524,-0.740375,-0.384225,-0.447433,0.060842,-0.339170,0.096169
6,2542752231,0.321681,-0.740996,-0.382930,-0.448121,0.098985,-0.241593,0.235612
7,2542785565,0.320942,-0.741423,-0.381253,-0.449372,0.080450,-0.243411,0.160275
8,2542818899,0.320230,-0.741772,-0.379287,-0.450966,0.093987,-0.153660,0.021541
9,2542852233,0.319449,-0.742285,-0.377264,-0.452372,-0.081113,-0.085953,0.188420
10,2542885567,0.318337,-0.743228,-0.375630,-0.452964,-0.071989,-0.131603,0.182494
11,2542918901,0.316858,-0.744190,-0.373798,-0.453938,-0.003250,-0.147222,0.131946
12,2542952235,0.316417,-0.744483,-0.372758,-0.454620,-0.143965,-0.147882,0.311977
13,2542985569,0.316513,-0.744287,-0.372709,-0.454913,-0.216779,-0.001449,0.216079
14,2543018903,0.316951,-0.743892,-0.373394,-0.454693,-0.187848,-0.060052,0.210312
15,2543052237,0.317494,-0.743185,-0.374149,-0.454850,0.038873,-0.235684,0.150245
16,2543085571,0.317741,-0.742760,-0.374439,-0.455132,0.127994,-0.189725,0.283174
17,2543118905,0.317418,-0.742768,-0.374065,-0.455651,0.125879,-0.110734,0.151814
18,2543152239,0.316873,-0.742887,-0.373727,-0.456114,0.062330,0.096607,0.080942
19,2543185573,0.316772,-0.742705,-0.374254,-0.456049,-0.084034,0.177136,0.182449
20,2543218907,0.317005,-0.742329,-0.375621,-0.455375,-0.126499,0.220568,0.001719
21,2543252241,0.317457,-0.741867,-0.377472,-0.454281,0.166828,0.047422,0.158271
22,2543285575,0.317599,-0.741504,-0.379107,-0.453412,0.440489,-0.074138,0.287150
23,2543318909,0.317446,-0.741348,-0.380336,-0.452744,0.347746,-0.192613,0.135516
24,2543352243,0.317538,-0.741059,-0.381624,-0.452069,0.088756,-0.149118,0.202748
25,2543385577,0.317760,-0.740612,-0.383135,-0.451367,-0.093529,-0.114202,0.114841
26,2543418911,0.318029,-0.740214,-0.384784,-0.450426,-0.113823,0.029767,0.066695
27,2543452245,0.318563,-0.739636,-0.387008,-0.449092,-0.112063,0.058143,0.249914
28,2543485579,0.319290,-0.738831,-0.389798,-0.447484,0.067233,0.020574,0.185969
29,2543518913,0.319659,-0.738289,-0.391970,-0.446217,0.308345,-0.195248,0.181447
30,2543552247,0.318949,-0.738382,-0.392473,-0.446127,0.396242,-0.257280,0.268829
31,2543585581,0.317108,-0.739015,-0.390808,-0.447850,0.380653,-0.204980,0.280940
32,2543618915,0.314319,-0.740231,-0.387330,-0.450821,0.167604,-0.186316,0.334102
33,2543652249,0.311793,-0.741258,-0.383546,-0.454110,0.016339,-0.333391,0.166116
34,2543685583,0.309483,-0.742162,-0.379984,-0.457197,-0.094203,-0.344696,0.113729
35,2543718917,0.306775,-0.743327,-0.376116,-0.460319,-0.192957,-0.326033,0.063610
36,2543752251,0.304256,-0.744418,-0.372310,-0.463310,-0.189807,-0.333539,0.093468
37,2543785585,0.301901,-0.745405,-0.368495,-0.466305,-0.107669,-0.231851,0.207035
38,2543818919,0.299375,-0.746454,-0.364535,-0.469358,0.090942,-0.157322,0.298730
39,2543852253,0.296981,-0.747398,-0.360460,-0.472514,0.019370,-0.097911,0.130941
40,2543885587,0.294587,-0.748350,-0.356026,-0.475856,0.004323,-0.163008,0.176977
41,2543918921,0.292255,-0.749160,-0.351943,-0.479045,0.065469,-0.087130,0.198298
42,2543952255,0.290147,-0.749702,-0.347884,-0.482432,0.098486,-0.127452,0.104896
43,2543985589,0.288004,-0.750377,-0.343659,-0.485684,0.049603,-0.175188,0.260955
44,2544018923,0.285269,-0.751492,-0.339199,-0.488699,-0.015280,-0.123365,0.262616
45,2544052257,0.282820,-0.752614,-0.335484,-0.490955,-0.145828,0.015667,-0.043435
46,2544085591,0.281635,-0.753065,-0.333506,-0.492291,0.045704,0.141388,0.020238
47,2544118925,0.281295,-0.753027,-0.333200,-0.492750,0.124489,0.127534,0.213822
48,2544152259,0.281323,-0.753044,-0.333586,-0.492447,0.199845,0.073308,0.140841
49,2544185593,0.281843,-0.753009,-0.334890,-0.491317,0.214414,0.168055,0.192263
50,2544218927,0.283194,-0.752454,-0.337829,-0.489374,-0.052605,0.093488,0.142560
51,2544252261,0.285559,-0.751358,-0.342291,-0.486576,-0.161470,-0.003530,0.182781
52,2544285595,0.288612,-0.749739,-0.347655,-0.483458,-0.002372,-0.047575,0.126178
53,2544318929,0.291719,-0.748060,-0.353158,-0.480195,0.050157,-0.230732,0.112203
54,2544352263,0.294556,-0.746830,-0.358412,-0.476471,-0.013957,-0.340445,0.258442
55,2544385597,0.297299,-0.745608,-0.363478,-0.472829,-0.024462,-0.303993,0.112033
56,2544418931,0.300074,-0.744361,-0.368356,-0.469252,-0.033037,-0.337134,0.231622
57,2544452265,0.302727,-0.743098,-0.372940,-0.465919,-0.000921,-0.417959,0.269317
58,2544485599,0.304861,-0.742165,-0.376319,-0.463289,0.049771,-0.589565,0.061832
59,2544518933,0.306493,-0.741732,-0.378456,-0.461160,0.129545,-0.515964,0.265665
60,2544552267,0.307767,-0.741396,-0.379909,-0.459655,0.178016,-0.395534,0.271480
61,2544585601,0.308619,-0.741410,-0.380332,-0.458710,0.337936,-0.386882,0.278336
62,2544618935,0.308639,-0.742060,-0.379393,-0.458422,0.265850,-0.213036,0.163033
63,2544652269,0.308091,-0.742985,-0.377319,-0.459005,0.155760,-0.179259,0.047283
64,2544685603,0.307196,-0.743833,-0.374547,-0.460499,0.087956,-0.010129,0.358449
65,2544718937,0.306874,-0.744228,-0.372052,-0.462095,0.005755,0.226208,0.313062
66,2544752271,0.306276,-0.744916,-0.369275,-0.463610,0.002590,-0.053127,0.219223
67,2544785605,0.304665,-0.746096,-0.365079,-0.466089,0.120849,-0.313129,0.014163
68,2544818939,0.302369,-0.747577,-0.359398,-0.469613,0.204350,-0.393363,0.223514
69,2544852273,0.299151,-0.749587,-0.352362,-0.473784,0.020883,-0.247995,0.247855
70,2544885607,0.295303,-0.752138,-0.344232,-0.478113,-0.042616,-0.101791,0.075624
71,2544918941,0.291552,-0.754719,-0.336411,-0.481899,0.001159,0.103064,0.158003
72,2544952275,0.288117,-0.756814,-0.329411,-0.485501,-0.124014,0.267091,0.333657
73,2544985609,0.285101,-0.758224,-0.322562,-0.489662,-0.063482,-0.046452,0.355354
74,2545018943,0.282457,-0.759165,-0.315770,-0.494144,0.082349,-0.191993,0.134484
75,2545052277,0.279499,-0.760251,-0.308523,-0.498712,-0.149122,-0.376113,0.150253
76,2545085611,0.275927,-0.761530,-0.300105,-0.503861,-0.289152,-0.294683,0.106725
77,2545118945,0.272229,-0.762976,-0.291553,-0.508683,-0.101572,-0.148232,0.061761
78,2545152279,0.268552,-0.764706,-0.283698,-0.512467,-0.105063,0.172060,0.044572
79,2545185613,0.265260,-0.766505,-0.277065,-0.515116,-0.158113,0.133395,0.143660
80,2545218947,0.262545,-0.767915,-0.271805,-0.517204,-0.149704,0.000504,0.343646
81,2545252281,0.259869,-0.768757,-0.267031,-0.519786,0.111177,-0.175679,0.267309
82,2545285615,0.256307,-0.769766,-0.260505,-0.523360,0.169451,-0.507730,0.138699
83,2545318949,0.251738,-0.771385,-0.251561,-0.527553,0.102779,-0.676244,0.267980
84,2545352283,0.246571,-0.773188,-0.241009,-0.532259,-0.362346,-0.378484,0.172771
85,2545385617,0.241624,-0.774640,-0.230700,-0.536964,-0.388407,0.140587,0.062597
86,2545418951,0.237520,-0.775471,-0.222479,-0.541048,-0.199690,0.076369,0.137658
87,2545452285,0.233409,-0.776495,-0.215196,-0.544304,-0.077134,0.187752,-0.037470
88,2545485619,0.230219,-0.777645,-0.209120,-0.546386,0.291766,0.534562,0.102753
89,2545518953,0.228755,-0.778016,-0.205701,-0.547769,0.449414,0.627882,0.275373
90,2545552287,0.229214,-0.777307,-0.205255,-0.548750,0.353232,0.641966,-0.027963
91,2545585621,0.231510,-0.775863,-0.206851,-0.549231,0.201302,0.360040,0.106104
92,2545618955,0.234890,-0.774434,-0.209909,-0.548652,0.211669,0.414958,0.117655
93,2545652289,0.239288,-0.772915,-0.215078,-0.546888,0.200244,0.264181,0.111694
94,2545685623,0.244512,-0.771044,-0.222340,-0.544308,0.029443,0.293748,0.062176
95,2545718957,0.249885,-0.769210,-0.230611,-0.541011,-0.101504,0.111489,0.174997
96,2545752291,0.255422,-0.767388,-0.239674,-0.537059,-0.152766,-0.103205,0.103749
97,2545785625,0.260431,-0.765690,-0.248567,-0.533021,-0.121721,-0.238688,0.124602
98,2545818959,0.265228,-0.764041,-0.257064,-0.528976,-0.113524,0.028582,0.170327
99,2545852293,0.269399,-0.762786,-0.265171,-0.524659,-0.142201,0.174091,0.124586
100,2545885627,0.273294,-0.761809,-0.274099,-0.519450,-0.037628,0.167839,0.247445
101,2545918961,0.277611,-0.760140,-0.283874,-0.514331,0.061431,0.359037,0.204691
102,2545952295,0.282250,-0.758066,-0.293776,-0.509283,0.218516,0.273411,0.235759
103,2545985629,0.286846,-0.755783,-0.303174,-0.504578,-0.038633,0.121134,0.212075
104,2546018963,0.290831,-0.753767,-0.311870,-0.499991,-0.011908,-0.031109,-0.015954
105,2546052297,0.294422,-0.751852,-0.320282,-0.495436,-0.099218,0.173983,0.201374
106,2546085631,0.298435,-0.749383,-0.329569,-0.490660,-0.244929,0.139466,0.365196
107,2546118965,0.303060,-0.746267,-0.339992,-0.485435,-0.433281,-0.057841,0.182282
108,2546152299,0.307949,-0.742948,-0.350660,-0.479828,-0.233587,-0.280897,0.144731
109,2546185633,0.312271,-0.739828,-0.360316,-0.474674,0.108432,-0.580364,0.315235
110,2546218967,0.315463,-0.737096,-0.368177,-0.470766,0.217263,-0.776389,0.396461
111,2546252301,0.317594,-0.735012,-0.373710,-0.468224,0.359567,-0.896359,0.191478
112,2546285635,0.318294,-0.734121,-0.377055,-0.466462,0.248811,-0.722384,0.236659
113,2546318969,0.317686,-0.734061,-0.377815,-0.466356,0.095544,-0.389702,0.020987
114,2546352303,0.316795,-0.734502,-0.377609,-0.466434,0.057364,-0.153579,-0.033694
115,2546385637,0.315458,-0.735211,-0.377155,-0.466590,0.138207,0.194596,0.173349
116,2546418971,0.314325,-0.735526,-0.377716,-0.466404,-0.043701,0.403336,0.329460
117,2546452305,0.314264,-0.735174,-0.379872,-0.465249,-0.176533,0.052408,0.280607
118,2546485639,0.315346,-0.734063,-0.383477,-0.463309,-0.036101,-0.212131,0.173691
119,2546518973,0.316296,-0.732793,-0.386464,-0.462189,0.172424,-0.471549,0.177733
120,2546552307,0.316052,-0.732273,-0.387739,-0.462111,0.189250,-0.558409,0.264295
121,2546585641,0.314332,-0.732968,-0.386803,-0.462967,0.302963,-0.418384,0.025691
122,2546618975,0.311518,-0.734709,-0.384013,-0.464430,0.174197,-0.341228,0.101497
123,2546652309,0.308481,-0.736530,-0.380150,-0.466745,0.108449,-0.242455,0.185239
124,2546685643,0.305257,-0.738324,-0.375915,-0.469453,0.219450,-0.042858,0.315719
125,2546718977,0.301984,-0.740139,-0.371305,-0.472371,0.183859,-0.132171,0.303063
126,2546752311,0.298550,-0.742101,-0.366097,-0.475529,0.171752,-0.018753,0.008004
127,2546785645,0.295077,-0.744023,-0.360939,-0.478628,0.082931,0.060537,0.277646
128,2546818979,0.291912,-0.745518,-0.356406,-0.481629,-0.018176,-0.193093,0.270003
129,2546852313,0.288902,-0.747008,-0.351647,-0.484624,-0.111525,-0.162911,0.042531
130,2546885647,0.285828,-0.748632,-0.346934,-0.487330,-0.180883,0.022356,0.189920
131,2546918981,0.282501,-0.750095,-0.342278,-0.490304,-0.217661,-0.282891,0.164536
132,2546952315,0.279214,-0.751465,-0.337315,-0.493517,-0.220936,-0.252807,0.080181
133,2546985649,0.276383,-0.752780,-0.332791,-0.496172,-0.154311,-0.000161,0.392483
134,2547018983,0.273212,-0.753847,-0.328417,-0.499213,-0.002939,-0.246672,0.074444
135,2547052317,0.269944,-0.754880,-0.323284,-0.502768,-0.100377,-0.340374,0.173637
136,2547085651,0.266885,-0.756054,-0.318673,-0.505573,-0.071089,-0.071590,0.311451
137,2547118985,0.264553,-0.756913,-0.315369,-0.507581,-0.047241,0.112158,-0.039015
138,2547152319,0.262975,-0.757640,-0.313290,-0.508602,0.089727,0.150216,0.163032
139,2547185653,0.262170,-0.757980,-0.312655,-0.508903,0.362007,0.264815,0.298824
140,2547218987,0.261961,-0.757946,-0.313039,-0.508825,0.384590,0.178692,0.098118
141,2547252321,0.262614,-0.757522,-0.314344,-0.508314,0.322618,0.042811,0.159126
142,2547285655,0.263562,-0.756958,-0.315950,-0.507669,0.154916,-0.052208,0.187316
143,2547318989,0.264376,-0.756560,-0.317681,-0.506757,0.043508,0.020666,0.011577
144,2547352323,0.265712,-0.756020,-0.319853,-0.505496,-0.116024,0.108358,0.016978
145,2547385657,0.267696,-0.755137,-0.322974,-0.503782,-0.187393,0.205551,0.134038
146,2547418991,0.270236,-0.754109,-0.327918,-0.500763,-0.216528,0.401985,0.150911
147,2547452325,0.273885,-0.752627,-0.335220,-0.496154,-0.292163,0.454594,-0.093316
148,2547485659,0.278488,-0.750448,-0.344081,-0.490797,-0.338333,0.305011,0.041549
149,2547518993,0.283522,-0.747524,-0.353985,-0.485304,-0.149124,0.134080,0.400618
150,2547552327,0.288258,-0.744520,-0.364104,-0.479611,0.038715,-0.112473,0.182716
151,2547585661,0.292808,-0.742006,-0.373787,-0.473260,0.005308,-0.245986,-0.026258
152,2547618995,0.296393,-0.740063,-0.382158,-0.467349,0.147982,-0.382965,0.120148
153,2547652329,0.299262,-0.738180,-0.389412,-0.462486,0.147966,-0.373798,0.380853
154,2547685663,0.302128,-0.736048,-0.396205,-0.458230,0.040100,-0.181213,0.230006
155,2547718997,0.305104,-0.733908,-0.402501,-0.454187,-0.094796,-0.166620,0.301233
156,2547752331,0.307362,-0.732158,-0.408211,-0.450377,0.089229,-0.297463,0.301262
157,2547785665,0.308528,-0.730990,-0.412406,-0.447647,0.257462,-0.400511,0.224704
158,2547818999,0.309281,-0.730090,-0.415060,-0.446140,0.306583,-0.408648,0.244171
159,2547852333,0.309422,-0.729446,-0.416248,-0.445989,0.402455,-0.423409,0.184275
160,2547885667,0.308095,-0.729670,-0.415061,-0.447644,0.460319,-0.512560,0.513675
161,2547919001,0.306002,-0.730416,-0.411954,-0.450723,0.336938,-0.533224,0.317165
162,2547952335,0.303012,-0.731856,-0.407248,-0.454666,0.177473,-0.655354,0.248952
163,2547985669,0.299533,-0.733732,-0.401188,-0.459312,0.034821,-0.638231,0.332664
164,2548019003,0.295577,-0.736015,-0.393859,-0.464535,-0.164224,-0.430980,0.078960
165,2548052337,0.290959,-0.738752,-0.385463,-0.470115,-0.370112,-0.251074,0.124496
166,2548085671,0.286100,-0.741453,-0.377061,-0.475626,-0.336442,-0.142688,0.267304
167,2548119005,0.281491,-0.743873,-0.369085,-0.480826,-0.185215,-0.048979,0.236992
168,2548152339,0.277003,-0.746114,-0.360864,-0.486171,-0.041988,0.114317,0.031911
169,2548185673,0.272375,-0.748296,-0.352525,-0.491521,0.107278,0.314916,0.179511
170,2548219007,0.267724,-0.749907,-0.344882,-0.497012,0.133462,0.364168,0.190238
171,2548252341,0.264023,-0.750717,-0.338706,-0.501993,0.047882,0.256729,0.194431
172,2548285675,0.261064,-0.751218,-0.333506,-0.506254,-0.136887,-0.003454,0.201582
173,2548319009,0.258194,-0.751464,-0.328428,-0.510661,0.014405,-0.104950,0.172515
174,2548352343,0.255574,-0.751575,-0.323703,-0.514816,0.158208,-0.168066,0.214301
175,2548385677,0.252987,-0.751731,-0.319088,-0.518732,0.078949,-0.153507,0.032146
176,2548419011,0.250616,-0.751983,-0.314646,-0.522219,0.077837,0.020813,-0.001387
177,2548452345,0.248138,-0.752319,-0.310333,-0.525489,0.153953,0.177863,0.031905
178,2548485679,0.246024,-0.752639,-0.306666,-0.528172,0.234776,0.179899,0.215408
179,2548519013,0.244266,-0.752981,-0.303815,-0.530143,0.462800,0.241914,0.241494
180,2548552347,0.243435,-0.753130,-0.302836,-0.530873,0.493644,0.213626,0.156933
181,2548585681,0.244025,-0.752589,-0.303364,-0.531068,0.385563,-0.018389,0.198721
182,2548619015,0.245482,-0.751527,-0.304316,-0.531355,0.358811,-0.295584,0.311234
183,2548652349,0.246906,-0.750426,-0.305023,-0.531846,0.350973,-0.410263,0.079096
184,2548685683,0.247891,-0.749806,-0.304650,-0.532476,0.172423,-0.478996,0.093081
185,2548719017,0.249068,-0.749244,-0.303778,-0.533216,-0.165684,-0.437128,0.212570
186,2548752351,0.250684,-0.748283,-0.303049,-0.534222,-0.425072,-0.332100,0.248966
187,2548785685,0.252559,-0.747408,-0.302219,-0.535034,-0.212560,-0.206941,-0.168492
188,2548819019,0.254766,-0.746870,-0.300802,-0.535537,-0.114616,-0.273781,0.237039
189,2548852353,0.257149,-0.746020,-0.299144,-0.536510,0.087008,-0.613513,0.228702
190,2548885687,0.259237,-0.745907,-0.298599,-0.535966,-0.148100,-0.363162,0.109477
191,2548919021,0.260610,-0.747240,-0.298384,-0.533558,-0.359205,0.055144,-0.040962
192,2548952355,0.262177,-0.748241,-0.298754,-0.531174,-0.067996,-0.057986,-0.061761
193,2548985689,0.263860,-0.749088,-0.298902,-0.529060,0.140820,0.286074,0.382295
194,2549019023,0.265178,-0.750595,-0.299136,-0.526125,0.534521,0.316928,0.336844
195,2549052357,0.265162,-0.752373,-0.298504,-0.523947,0.899222,-0.045766,0.378814
196,2549085691,0.265108,-0.753422,-0.296371,-0.523678,0.709363,-0.148150,0.317892
197,2549119025,0.265300,-0.754272,-0.293302,-0.524086,0.039078,0.174257,0.186584
198,2549152359,0.265567,-0.755454,-0.290627,-0.523738,-0.315016,0.204634,0.185950
199,2549185693,0.266216,-0.755580,-0.288655,-0.524318,-0.195783,-0.104955,0.139996
200,2549219027,0.266781,-0.755210,-0.287137,-0.525394,-0.235215,-0.338029,0.367295
201,2549252361,0.268106,-0.754652,-0.285300,-0.526523,-0.298874,-0.435490,0.310777
202,2549285695,0.268800,-0.754353,-0.281934,-0.528406,-0.161618,-0.574683,0.048643
203,2549319029,0.268248,-0.754327,-0.276296,-0.531692,-0.298453,-0.659366,-0.031510
204,2549352363,0.267335,-0.754817,-0.269801,-0.534783,-0.325993,-0.381663,0.292477
205,2549385697,0.266269,-0.755895,-0.263749,-0.536806,-0.084480,-0.065690,0.269701
206,2549419031,0.264207,-0.757846,-0.258376,-0.537687,-0.118872,0.100382,0.196990
207,2549452365,0.262463,-0.759567,-0.253424,-0.538470,-0.081931,-0.122260,0.161825
208,2549485699,0.259979,-0.761462,-0.247177,-0.539899,0.083817,-0.193425,0.076328
209,2549519033,0.256109,-0.763990,-0.238735,-0.541973,0.144440,0.070036,0.040463
210,2549552367,0.251744,-0.766816,-0.229862,-0.543859,-0.075637,0.271806,0.151828
211,2549585701,0.247650,-0.768977,-0.221523,-0.546145,-0.374057,0.496575,0.205423
212,2549619035,0.244133,-0.770014,-0.213460,-0.549468,-0.125552,0.505190,0.134008
213,2549652369,0.241924,-0.770531,-0.207574,-0.551969,0.178369,0.603278,0.082519
214,2549685703,0.240802,-0.771308,-0.204396,-0.552559,-0.033092,0.435182,0.093595
215,2549719037,0.240994,-0.771378,-0.203928,-0.552551,-0.112806,0.192405,0.079830
216,2549752371,0.241570,-0.771031,-0.204136,-0.552707,0.067823,0.203829,0.027963
217,2549785705,0.242895,-0.770535,-0.204981,-0.552505,-0.045338,0.006302,0.227437
218,2549819039,0.244432,-0.770052,-0.205787,-0.552202,0.181500,-0.101894,0.249319
219,2549852373,0.246380,-0.769343,-0.207418,-0.551714,-0.111054,0.414933,0.225845
220,2549885707,0.248710,-0.768826,-0.210520,-0.550211,-0.046177,0.352037,-0.032625
221,2549919041,0.251837,-0.768720,-0.216804,-0.546484,-0.169377,0.496382,-0.111549
222,2549952375,0.255636,-0.768485,-0.225073,-0.541688,0.078476,0.498691,0.195573
223,2549985709,0.260188,-0.767428,-0.234565,-0.536971,0.139215,0.598259,0.151477
224,2550019043,0.264722,-0.766124,-0.244196,-0.532303,0.142383,0.271225,0.192205
225,2550052377,0.269473,-0.764250,-0.253770,-0.528118,0.104260,0.278383,0.251505
226,2550085711,0.274382,-0.761748,-0.263279,-0.524538,-0.069475,0.382997,0.179799
227,2550119045,0.279261,-0.759147,-0.273211,-0.520641,-0.213261,0.159732,0.162012
228,2550152379,0.283769,-0.756437,-0.283669,-0.516538,-0.298709,0.031168,0.182803
229,2550185713,0.288727,-0.753218,-0.294572,-0.512375,-0.118151,-0.062680,0.173943
230,2550219047,0.293760,-0.749739,-0.305393,-0.508264,-0.070728,-0.142924,0.169840
231,2550252381,0.298628,-0.746407,-0.315958,-0.503856,-0.103775,-0.430973,0.254992
232,2550285715,0.302447,-0.743723,-0.325174,-0.499666,0.083924,-0.503464,0.267026
233,2550319049,0.305144,-0.741670,-0.332580,-0.496191,0.046544,-0.488648,0.329080
234,2550352383,0.307176,-0.739892,-0.338513,-0.493573,-0.144627,-0.696405,0.336560
235,2550385717,0.308247,-0.738686,-0.342868,-0.491701,-0.271383,-0.518601,0.044873
236,2550419051,0.308144,-0.738578,-0.344933,-0.490482,0.094416,-0.268054,0.023322
237,2550452385,0.307274,-0.739105,-0.345463,-0.489860,0.358407,0.077531,0.316248
238,2550485719,0.305422,-0.739908,-0.345668,-0.489662,0.375663,0.262149,0.252717
239,2550519053,0.304250,-0.740130,-0.346782,-0.489268,0.067015,0.368571,0.097760
240,2550552387,0.304882,-0.739427,-0.349925,-0.487697,-0.243200,0.524116,-0.007535
241,2550585721,0.306570,-0.738274,-0.355748,-0.484160,-0.256426,0.533440,0.048329
242,2550619055,0.309047,-0.736599,-0.363755,-0.479162,-0.047439,0.266589,0.194087
243,2550652389,0.312219,-0.734214,-0.372806,-0.473779,0.074985,0.111530,0.173614
244,2550685723,0.314802,-0.732338,-0.381077,-0.468362,0.337356,-0.189685,0.156796
245,2550719057,0.315343,-0.731799,-0.386774,-0.464152,0.493657,-0.391193,0.302054
246,2550752391,0.314336,-0.731931,-0.389568,-0.462287,0.558036,-0.739061,0.175749
247,2550785725,0.312897,-0.732263,-0.390460,-0.461985,0.475358,-0.700872,0.092164
248,2550819059,0.310750,-0.733316,-0.389138,-0.462876,0.181591,-0.586616,0.317889
249,2550852393,0.308034,-0.734994,-0.386567,-0.464183,-0.063947,-0.449424,0.261723
250,2550885727,0.305121,-0.736769,-0.383341,-0.465966,-0.106668,-0.448706,0.251206
251,2550919061,0.302350,-0.738459,-0.380192,-0.467673,-0.000260,-0.320661,0.148990
252,2550952395,0.299657,-0.740265,-0.376889,-0.469222,0.059759,-0.210161,0.120155
253,2550985729,0.297166,-0.742060,-0.373404,-0.470756,0.017772,-0.253567,0.202869
254,2551019063,0.295214,-0.743480,-0.369807,-0.472578,0.104762,-0.201895,0.143414
255,2551052397,0.293009,-0.745068,-0.365997,-0.474413,0.080943,-0.127768,0.359615
256,2551085731,0.290655,-0.746597,-0.361893,-0.476601,-0.061655,-0.275345,0.092507
257,2551119065,0.288117,-0.748264,-0.357432,-0.478888,-0.123872,-0.222036,0.195989
258,2551152399,0.285738,-0.749627,-0.353286,-0.481253,-0.138867,-0.242651,0.436844
259,2551185733,0.283460,-0.750525,-0.348395,-0.484753,-0.099104,-0.597109,0.118835
260,2551219067,0.280880,-0.751834,-0.341895,-0.488838,-0.040588,-0.556132,0.103690
261,2551252401,0.277534,-0.753908,-0.335167,-0.492202,-0.003434,-0.131114,0.128738
262,2551285735,0.274126,-0.756126,-0.329589,-0.494471,-0.199498,0.384312,0.051880
263,2551319069,0.272324,-0.757602,-0.326748,-0.495091,-0.028455,0.785894,0.234589
264,2551352403,0.272599,-0.757761,-0.326957,-0.494560,0.227875,0.705752,0.264283
265,2551385737,0.274056,-0.757088,-0.328865,-0.493519,0.342491,0.254331,0.155409
266,2551419071,0.275853,-0.756373,-0.331325,-0.491966,0.268417,0.057796,0.112322
267,2551452405,0.277866,-0.755653,-0.334202,-0.489990,0.087479,-0.014239,0.178800
268,2551485739,0.280119,-0.754664,-0.337606,-0.487892,-0.016085,0.064645,0.109426
269,2551519073,0.282594,-0.753544,-0.341533,-0.485458,-0.116226,0.225173,0.093678
270,2551552407,0.285236,-0.752416,-0.345817,-0.482621,-0.105546,0.099210,0.132625
271,2551585741,0.287949,-0.751333,-0.350463,-0.479334,-0.070520,0.000723,0.181512
272,2551619075,0.290831,-0.749983,-0.355675,-0.475857,-0.022361,-0.036310,0.168301
273,2551652409,0.294213,-0.748207,-0.361340,-0.472292,-0.067621,-0.161058,0.169831
274,2551685743,0.297584,-0.746546,-0.366956,-0.468463,-0.023375,-0.211862,0.310534
275,2551719077,0.300228,-0.745231,-0.371804,-0.465035,0.087681,-0.309308,0.074817
276,2551752411,0.302468,-0.744275,-0.375874,-0.461832,-0.015705,-0.370712,0.186394
277,2551785745,0.304676,-0.743238,-0.379658,-0.458947,0.006511,-0.326496,0.337466
278,2551819079,0.306701,-0.742214,-0.382615,-0.456794,0.051895,-0.464225,0.178073
279,2551852413,0.308264,-0.741735,-0.384406,-0.455013,0.037505,-0.360311,0.145417
280,2551885747,0.309376,-0.741566,-0.385372,-0.453714,0.097526,-0.240755,0.153890
281,2551919081,0.309982,-0.741691,-0.385352,-0.453113,0.131154,-0.099773,0.271608
282,2551952415,0.310196,-0.741872,-0.384861,-0.453087,0.164127,-0.031680,0.433953
283,2551985749,0.310950,-0.741711,-0.384802,-0.452884,0.149985,-0.198749,0.181517
284,2552019083,0.311210,-0.742032,-0.383624,-0.453179,0.127601,-0.202150,-0.071829
285,2552052417,0.310508,-0.742965,-0.381161,-0.454209,0.047326,0.038914,0.208800
286,2552085751,0.309573,-0.743848,-0.378834,-0.455347,-0.106954,0.109666,0.296896
287,2552119085,0.309041,-0.744624,-0.376872,-0.456067,-0.151876,0.021287,0.179771
288,2552152419,0.308649,-0.745004,-0.374573,-0.457604,-0.099827,-0.174128,0.243652
289,2552185753,0.307615,-0.745278,-0.371160,-0.460625,0.026109,-0.449467,0.246352
290,2552219087,0.305796,-0.746258,-0.366286,-0.464139,0.006852,-0.556463,0.197723
291,2552252421,0.302998,-0.748223,-0.359781,-0.467882,-0.030528,-0.374418,0.045094
292,2552285755,0.299714,-0.750457,-0.352583,-0.471882,-0.075251,-0.022352,0.216640
293,2552319089,0.296595,-0.752282,-0.346153,-0.475692,-0.161177,0.220174,0.341252
294,2552352423,0.294375,-0.753493,-0.340881,-0.478951,-0.093857,0.247502,0.123554
295,2552385757,0.292380,-0.754608,-0.336160,-0.481745,0.095603,0.158461,0.235057
296,2552419091,0.290298,-0.755550,-0.331393,-0.484821,0.142961,-0.075835,0.223755
297,2552452425,0.287725,-0.756386,-0.325445,-0.489062,0.030542,-0.145726,0.077888
298,2552485759,0.285479,-0.756835,-0.319024,-0.493892,-0.121791,-0.167582,0.483950
299,2552519093,0.282853,-0.757181,-0.312228,-0.499186,-0.303607,-0.257093,0.034366
300,2552552427,0.279323,-0.758128,-0.304335,-0.504582,-0.642924,-0.193456,-0.064207
301,2552585761,0.276248,-0.759034,-0.296986,-0.509269,-0.369758,0.018936,0.165227
302,2552619095,0.273234,-0.759785,-0.290898,-0.513274,-0.199976,0.106202,0.155798
303,2552652429,0.270312,-0.760513,-0.285583,-0.516717,-0.058731,0.009749,-0.000791
304,2552685763,0.267266,-0.761408,-0.280151,-0.519947,0.263731,0.236556,0.092904
305,2552719097,0.264518,-0.762391,-0.275109,-0.522596,0.447473,0.037076,0.430711
306,2552752431,0.260671,-0.763566,-0.269421,-0.525767,0.657268,-0.338218,0.208601
307,2552785765,0.256439,-0.764959,-0.262289,-0.529418,0.422587,-0.029519,0.097794
308,2552819099,0.253243,-0.765759,-0.255768,-0.532979,0.615530,0.093265,0.308273
309,2552852433,0.250285,-0.766046,-0.250189,-0.536598,0.251268,0.687219,0.126001
310,2552885767,0.249237,-0.765970,-0.247717,-0.538339,-0.142024,1.231806,-0.135428
311,2552919101,0.251039,-0.765260,-0.250320,-0.537306,-0.293282,1.037907,0.017373
312,2552952435,0.254950,-0.763882,-0.257599,-0.533975,-0.369372,0.631291,0.028298
313,2552985769,0.259729,-0.762091,-0.266664,-0.529765,-0.201692,0.277553,0.033600
314,2553019103,0.264714,-0.760092,-0.276008,-0.525365,0.126747,-0.151636,0.136026
315,2553052437,0.269177,-0.758272,-0.284429,-0.521218,0.204506,-0.168899,0.105919
316,2553085771,0.273475,-0.756741,-0.292295,-0.516837,0.206031,-0.206968,0.317721
317,2553119105,0.277360,-0.755261,-0.299795,-0.512618,0.043661,-0.126836,0.159411
318,2553152439,0.281185,-0.753977,-0.307163,-0.508042,-0.038811,-0.062940,0.120163
319,2553185773,0.284619,-0.752994,-0.314751,-0.502916,-0.014193,0.010259,0.161958
320,2553219107,0.288204,-0.751733,-0.322615,-0.497753,-0.049519,0.062106,0.048732
321,2553252441,0.292270,-0.750151,-0.330718,-0.492422,0.058690,-0.188615,0.384839
322,2553285775,0.296161,-0.748399,-0.338596,-0.487382,0.148027,-0.373932,0.173927
323,2553319109,0.299812,-0.746893,-0.345649,-0.482485,0.033798,-0.505312,0.291188
324,2553352443,0.303345,-0.745520,-0.352373,-0.477511,-0.170778,-0.535462,0.317842
325,2553385777,0.306943,-0.744063,-0.359325,-0.472274,-0.321413,-0.262018,-0.080363
326,2553419111,0.310903,-0.742579,-0.366398,-0.466552,-0.385910,-0.114732,0.256359
327,2553452445,0.314941,-0.740606,-0.373826,-0.461053,-0.228811,0.000857,0.525259
328,2553485779,0.319017,-0.737999,-0.381252,-0.456327,0.090121,0.032305,0.171033
329,2553519113,0.323567,-0.735284,-0.388819,-0.451092,0.040406,0.051135,0.205597
330,2553552447,0.328109,-0.732538,-0.396567,-0.445499,-0.108365,0.300276,0.149741
331,2553585781,0.332050,-0.729631,-0.404074,-0.440577,0.034421,0.413862,0.052080
332,2553619115,0.335092,-0.726867,-0.410567,-0.436823,0.204337,0.418674,0.161294
333,2553652449,0.336622,-0.724971,-0.414588,-0.434996,0.512377,-0.118145,0.394785
334,2553685783,0.335754,-0.724846,-0.414646,-0.435818,0.686595,-0.719423,0.354678
335,2553719117,0.332804,-0.726317,-0.410997,-0.439077,0.570053,-1.055664,0.237833
336,2553752451,0.328754,-0.728519,-0.404828,-0.444181,0.153446,-0.849374,0.085343
337,2553785785,0.324243,-0.731229,-0.397627,-0.449516,-0.330719,-0.404919,0.028599
338,2553819119,0.319733,-0.734119,-0.390322,-0.454412,-0.359940,-0.234869,0.292468
339,2553852453,0.315068,-0.737103,-0.382790,-0.459223,-0.110343,-0.025855,0.206476
340,2553885787,0.310361,-0.739948,-0.374836,-0.464385,0.181752,-0.215340,0.136731
341,2553919121,0.305544,-0.742599,-0.365738,-0.470560,0.405696,-0.776626,0.471160
342,2553952455,0.300741,-0.745067,-0.355326,-0.477677,0.167019,-0.603440,0.116922
343,2553985789,0.295808,-0.748193,-0.344382,-0.483847,-0.081319,-0.094217,0.054474
344,2554019123,0.290529,-0.751336,-0.333807,-0.489553,-0.278838,0.052268,0.149026
345,2554052457,0.285695,-0.753625,-0.323804,-0.495560,-0.390850,0.070500,0.350864
346,2554085791,0.282691,-0.754719,-0.315473,-0.500963,-0.175549,0.243415,0.250828
347,2554119125,0.279000,-0.756304,-0.307057,-0.505847,-0.003422,0.137659,-0.076975
348,2554152459,0.274388,-0.758317,-0.297614,-0.510973,-0.042499,-0.048731,0.080351
349,2554185793,0.270545,-0.759391,-0.288462,-0.516645,0.023452,0.150056,0.505261
350,2554219127,0.266978,-0.760137,-0.280313,-0.521862,-0.033136,0.283929,0.340017
351,2554252461,0.263698,-0.760705,-0.273140,-0.526485,-0.123699,0.105932,-0.075723
352,2554285795,0.260185,-0.761056,-0.265949,-0.531385,-0.082106,0.083683,-0.125904
353,2554319129,0.256708,-0.761136,-0.258249,-0.536734,-0.050416,0.169609,0.445463
354,2554352463,0.253315,-0.761165,-0.251154,-0.541648,0.069288,0.044525,0.235618
355,2554385797,0.249665,-0.761656,-0.244813,-0.545541,-0.152077,0.094524,-0.195600
356,2554419131,0.246667,-0.762149,-0.239116,-0.548734,-0.214059,0.207560,0.018901
357,2554452465,0.244313,-0.762278,-0.234372,-0.551647,0.126964,0.283827,0.278945
358,2554485799,0.242838,-0.761972,-0.230835,-0.554207,0.335379,0.311539,0.311667
359,2554519133,0.241604,-0.761706,-0.227361,-0.556542,0.410228,-0.036210,0.243457
360,2554552467,0.239876,-0.761852,-0.223508,-0.558648,0.365539,-0.276099,-0.017365
361,2554585801,0.238121,-0.762565,-0.219876,-0.559866,-0.002649,-0.331972,0.029608
362,2554619135,0.237085,-0.762795,-0.217137,-0.561060,0.055643,-0.188215,0.302797
363,2554652469,0.236125,-0.762601,-0.214581,-0.562709,0.091558,-0.124037,0.259764
364,2554685803,0.235516,-0.762370,-0.211655,-0.564383,-0.285453,-0.058856,0.070887
365,2554719137,0.235900,-0.762356,-0.210010,-0.564856,-0.216118,0.047579,0.190187
366,2554752471,0.237323,-0.762128,-0.211018,-0.564192,-0.019376,0.170984,0.271306
367,2554785805,0.239989,-0.761283,-0.214553,-0.562870,-0.023936,0.267794,0.110142
368,2554819139,0.243631,-0.760373,-0.219626,-0.560574,0.021378,0.361544,0.068137
369,2554852473,0.247698,-0.759546,-0.225425,-0.557604,0.153711,0.473483,0.150615
370,2554885807,0.252067,-0.758588,-0.232384,-0.554081,0.168486,0.606809,0.070136
371,2554919141,0.257569,-0.756877,-0.241045,-0.550177,0.139043,0.633737,0.107805
372,2554952475,0.263820,-0.754582,-0.251313,-0.545756,0.172218,0.519399,0.282022
373,2554985809,0.270239,-0.751917,-0.262506,-0.541003,0.063302,0.283957,0.067316
374,2555019143,0.276707,-0.749086,-0.273361,-0.536263,0.121564,0.132637,0.082446
375,2555052477,0.282729,-0.746631,-0.283711,-0.531146,0.091506,0.080298,0.171726
376,2555085811,0.288455,-0.744367,-0.294170,-0.525525,-0.020435,0.178078,0.079205
377,2555119145,0.294306,-0.742004,-0.305295,-0.519240,0.020342,0.180809,0.283783
378,2555152479,0.300562,-0.739029,-0.316921,-0.512895,-0.016898,0.107508,0.273268
379,2555185813,0.306223,-0.736014,-0.327942,-0.506918,0.039524,-0.316572,0.253636
380,2555219147,0.310945,-0.733690,-0.337843,-0.500875,0.106041,-0.768879,0.117100
381,2555252481,0.314895,-0.731901,-0.345624,-0.495690,0.084980,-0.500734,0.245653
382,2555285815,0.318278,-0.730419,-0.351537,-0.491539,0.046286,-0.469155,0.307549
383,2555319149,0.320479,-0.729573,-0.356188,-0.488005,-0.152462,-0.454996,0.196654
384,2555352483,0.322240,-0.729230,-0.360185,-0.484410,-0.302900,-0.123538,0.102416
385,2555385817,0.323844,-0.728757,-0.363659,-0.481448,-0.158898,0.071148,0.213428
386,2555419151,0.325426,-0.727923,-0.366975,-0.479121,0.009295,-0.113913,0.293581
387,2555452485,0.326808,-0.727316,-0.370342,-0.476505,0.000967,0.030835,0.061237
388,2555485819,0.327689,-0.727321,-0.373317,-0.473562,-0.017728,0.178163,0.106698
389,2555519153,0.328677,-0.726989,-0.376583,-0.470793,0.030178,0.242072,0.222523
390,2555552487,0.329809,-0.726239,-0.380568,-0.467945,-0.009086,0.160625,0.267838
391,2555585821,0.331277,-0.725237,-0.384774,-0.465013,0.087464,-0.053815,0.192274
392,2555619155,0.332340,-0.724503,-0.387930,-0.462772,0.150130,-0.221774,0.200945
393,2555652489,0.332431,-0.724143,-0.389371,-0.462058,0.136752,-0.402926,0.132007
394,2555685823,0.331991,-0.724051,-0.389221,-0.462646,0.113553,-0.403169,0.199387
395,2555719157,0.331053,-0.724325,-0.387879,-0.464013,0.016247,-0.555861,0.326046
396,2555752491,0.329629,-0.724885,-0.384985,-0.466556,-0.105292,-0.510292,0.239174
397,2555785825,0.327350,-0.726254,-0.381246,-0.469096,-0.246073,-0.395891,0.234577
398,2555819159,0.324245,-0.728033,-0.376845,-0.472041,-0.250419,-0.263239,0.318453
399,2555852493,0.321187,-0.729916,-0.372328,-0.474799,-0.120912,-0.183465,0.149477
400,2555885827,0.318058,-0.731777,-0.367714,-0.477629,-0.123479,0.019416,0.179360
401,2555919161,0.314995,-0.733370,-0.363547,-0.480398,-0.147685,0.195743,0.120481
402,2555952495,0.311873,-0.734826,-0.359530,-0.483225,-0.117788,0.070106,0.220294
403,2555985829,0.308701,-0.736324,-0.355849,-0.485699,-0.068001,0.167904,-0.012061
404,2556019163,0.305542,-0.738111,-0.352699,-0.487280,-0.230881,0.385229,0.031687
405,2556052497,0.302922,-0.739238,-0.350677,-0.488664,-0.172161,0.224368,0.278699
406,2556085831,0.300430,-0.739823,-0.349194,-0.490377,0.048415,0.289620,0.233076
407,2556119165,0.297552,-0.740349,-0.347200,-0.492747,0.198127,0.198807,0.303149
408,2556152499,0.294196,-0.740779,-0.343557,-0.496654,0.304931,-0.350598,0.305193
409,2556185833,0.289412,-0.741594,-0.337688,-0.502243,0.011505,-0.095837,0.040508
410,2556219167,0.284000,-0.742734,-0.331368,-0.507826,-0.381819,0.263499,0.100116
411,2556252501,0.278953,-0.743108,-0.326003,-0.513516,-0.393285,0.540610,0.147465
412,2556285835,0.275661,-0.741855,-0.322806,-0.519096,-0.136411,0.561203,0.189712
413,2556319169,0.273295,-0.740029,-0.321703,-0.523619,0.069300,0.505299,0.180964
414,2556352503,0.270573,-0.738613,-0.321556,-0.527109,0.246610,0.077022,0.120811
415,2556385837,0.266352,-0.737915,-0.320112,-0.531100,0.364803,-0.188910,0.184508
416,2556419171,0.261801,-0.736717,-0.316837,-0.536959,0.296951,-0.213162,0.341374
417,2556452505,0.258063,-0.734471,-0.313020,-0.544037,0.352399,-0.197079,0.421224
418,2556485839,0.255378,-0.731236,-0.309698,-0.551512,0.448324,-0.042309,0.417302
419,2556519173,0.252776,-0.727933,-0.306139,-0.559016,0.395533,0.063862,0.265273
420,2556552507,0.250355,-0.725149,-0.302418,-0.565708,0.175309,0.064941,0.384739
421,2556585841,0.249060,-0.722707,-0.299926,-0.570710,-0.010983,0.056289,0.726150
422,2556619175,0.250074,-0.719671,-0.297752,-0.575223,0.258976,0.653087,0.516863
423,2556652509,0.252458,-0.716706,-0.295718,-0.578921,0.723438,0.173250,0.206921
424,2556685843,0.253383,-0.714678,-0.291810,-0.582993,0.205400,-0.581914,-0.071263
425,2556719177,0.255191,-0.713900,-0.284014,-0.586994,-0.824057,0.269392,-0.427317
426,2556752511,0.261569,-0.713979,-0.276753,-0.587559,-1.201443,1.174127,-0.473064
427,2556785845,0.271215,-0.714167,-0.272677,-0.584856,-1.443861,1.101289,-0.390511
428,2556819179,0.282654,-0.715173,-0.273186,-0.577932,-2.054173,0.563085,-0.359701
429,2556852513,0.295764,-0.715682,-0.278033,-0.568351,-1.697638,0.557036,-0.205245
430,2556885847,0.312015,-0.714624,-0.286805,-0.556511,-0.913921,0.177228,0.186995
431,2556919181,0.329366,-0.712460,-0.298521,-0.542960,-0.278009,-0.962090,0.285612
432,2556952515,0.346067,-0.709954,-0.310320,-0.529062,0.754560,-1.686361,-0.178160
433,2556985849,0.360076,-0.707202,-0.318688,-0.518315,1.428620,-1.422892,0.478470
434,2557019183,0.368789,-0.705487,-0.325062,-0.510509,2.036863,-2.625884,-0.299766
435,2557052517,0.369084,-0.706405,-0.327783,-0.507276,2.558172,-2.323646,-0.583221
436,2557085851,0.367505,-0.708382,-0.325931,-0.506860,1.560331,-1.951054,1.476878
437,2557119185,0.361499,-0.713278,-0.319391,-0.508472,0.349531,-1.235695,1.122339
438,2557152519,0.354216,-0.720706,-0.308764,-0.509687,-1.403815,0.778001,0.403142
439,2557185853,0.349610,-0.727466,-0.300948,-0.507935,-0.736315,0.257980,-0.522805
440,2557219187,0.344491,-0.732188,-0.295755,-0.507699,0.391273,-0.478387,0.058899
441,2557252521,0.340278,-0.735094,-0.291851,-0.508599,0.827465,-0.311628,0.411875
442,2557285855,0.335608,-0.739541,-0.284275,-0.509544,0.178936,0.434085,0.118750
443,2557319189,0.328602,-0.746632,-0.273723,-0.509548,-0.171611,0.659170,-0.021814
444,2557352523,0.321282,-0.753283,-0.264905,-0.509088,-0.100783,0.766617,0.343100
445,2557385857,0.317308,-0.757866,-0.261023,-0.506777,-0.388448,1.421397,0.383319
446,2557419191,0.318499,-0.760794,-0.261265,-0.501491,-0.426371,0.911841,-0.249328
447,2557452525,0.320347,-0.762320,-0.264178,-0.496444,0.360330,0.442273,-0.102815
448,2557485859,0.323309,-0.762464,-0.270062,-0.491110,0.008372,0.994675,0.340042
449,2557519193,0.326359,-0.762509,-0.276957,-0.485146,0.072913,0.237133,0.271961
450,2557552527,0.330539,-0.761586,-0.286460,-0.478198,-0.011366,0.259023,0.054090
451,2557585861,0.336856,-0.758496,-0.297904,-0.471663,0.066854,0.917916,0.430539
452,2557619195,0.342684,-0.754957,-0.309846,-0.465408,-0.294415,0.760597,0.186343
453,2557652529,0.349061,-0.750938,-0.322649,-0.458419,-0.054071,0.736122,0.221191
454,2557685863,0.353956,-0.747048,-0.334474,-0.452507,0.285896,0.409066,0.023882
455,2557719197,0.356647,-0.744793,-0.344687,-0.446407,0.025916,0.242235,-0.084768
456,2557752531,0.358015,-0.743815,-0.354692,-0.439045,-0.395736,0.284817,-0.012598
457,2557785865,0.358882,-0.742387,-0.364659,-0.432541,-1.072212,0.616310,0.263490
458,2557819199,0.362251,-0.738295,-0.376759,-0.426320,-0.658988,1.029295,0.314353
459,2557852533,0.364917,-0.733705,-0.389596,-0.420392,-0.549228,0.247584,0.136071
460,2557885867,0.364880,-0.730646,-0.401919,-0.414105,-0.539066,-0.129533,-0.146008
461,2557919201,0.364093,-0.727912,-0.413055,-0.408617,-0.229033,0.784596,0.255271
462,2557952535,0.363482,-0.724069,-0.422486,-0.406340,0.018193,1.152644,0.204043
463,2557985869,0.360979,-0.720398,-0.432060,-0.405026,-0.679167,0.589857,-0.140783
464,2558019203,0.357974,-0.717323,-0.442042,-0.402371,-1.534981,0.476064,-0.058232
465,2558052537,0.353266,-0.714500,-0.452479,-0.399947,-1.509544,0.033190,-0.238844
466,2558085871,0.346945,-0.711479,-0.464148,-0.397486,-1.076679,-0.132786,-0.220596
467,2558119205,0.339843,-0.708187,-0.476004,-0.395475,-0.848477,0.447981,-0.290722
468,2558152539,0.330917,-0.705750,-0.486679,-0.394405,-1.119820,0.790853,-0.187855
469,2558185873,0.319037,-0.704830,-0.495449,-0.394921,-0.455973,0.501098,0.752542
470,2558219207,0.305714,-0.703551,-0.501652,-0.399878,1.190001,-0.128097,1.072949
471,2558252541,0.300465,-0.695449,-0.504878,-0.413728,1.936646,1.624080,2.139940
472,2558285875,0.300748,-0.683581,-0.502240,-0.435918,1.877441,2.206864,3.083507
473,2558319209,0.295866,-0.675406,-0.495289,-0.459327,1.088479,0.905905,2.120732
474,2558352543,0.290905,-0.669271,-0.485771,-0.481122,0.952382,0.280197,0.672106
475,2558385877,0.289279,-0.664723,-0.477208,-0.496725,0.242353,-0.453401,0.110510
476,2558419211,0.290651,-0.660396,-0.471586,-0.506959,-1.038660,-0.383398,-0.004619
477,2558452545,0.299902,-0.652115,-0.469250,-0.514403,-2.000196,-0.335499,-0.503653
478,2558485879,0.318484,-0.639874,-0.474270,-0.514003,-2.285614,-1.058565,-1.059048
479,2558519213,0.342492,-0.625490,-0.481904,-0.509149,-1.760441,-0.971320,-0.238754
480,2558552547,0.366689,-0.612300,-0.487267,-0.503190,0.206368,-1.336468,-0.194054
481,2558585881,0.386967,-0.602444,-0.486975,-0.500175,1.214144,-1.526006,-0.659767
482,2558619215,0.405476,-0.595953,-0.482529,-0.497591,0.136067,-1.232503,-0.226079
483,2558652549,0.423329,-0.592736,-0.478252,-0.490646,-0.605422,-1.598917,0.034715
484,2558685883,0.439760,-0.590578,-0.473891,-0.482968,0.378708,-1.402057,0.229834
485,2558719217,0.455439,-0.589034,-0.471917,-0.472134,1.370703,-1.197355,0.111981
486,2558752551,0.470990,-0.585682,-0.472327,-0.460493,0.555769,-0.455083,-0.269444
487,2558785885,0.488284,-0.579042,-0.472177,-0.450932,0.050936,0.626947,-0.424017
488,2558819219,0.505875,-0.570795,-0.473024,-0.441060,1.375453,0.828370,-0.156733
489,2558852553,0.516994,-0.567194,-0.473184,-0.432558,1.954213,1.237074,-0.356463
490,2558885887,0.522697,-0.567292,-0.474965,-0.423530,1.892920,0.328767,-1.000794
491,2558919221,0.527981,-0.566226,-0.477443,-0.415540,1.696542,-0.663833,-1.060094
492,2558952555,0.533107,-0.564065,-0.479775,-0.409200,1.120983,0.026155,-0.719184
493,2558985889,0.535067,-0.564616,-0.482274,-0.402897,1.125592,0.086212,-0.730700
494,2559019223,0.533292,-0.569110,-0.484237,-0.396522,1.274885,-0.625696,-0.334793
495,2559052557,0.529906,-0.574161,-0.486298,-0.391223,1.314018,-0.519050,0.037179
496,2559085891,0.528001,-0.578784,-0.487471,-0.385484,0.358050,0.072097,3.128359
497,2559119225,0.527013,-0.581994,-0.488681,-0.380437,0.198112,0.709739,2.236804
498,2559152559,0.519562,-0.585484,-0.497367,-0.374020,0.895108,-0.827387,-0.851402
499,2559185893,0.514286,-0.588709,-0.505904,-0.364684,-0.305626,-2.418483,-1.156938
500,2559219227,0.512593,-0.592702,-0.507987,-0.357636,0.277318,-0.814720,0.078148
501,2559252561,0.507795,-0.598372,-0.508914,-0.353700,-0.573543,0.446523,1.789484
502,2559285895,0.503913,-0.600390,-0.514655,-0.347472,-0.561169,-0.676350,0.557261
503,2559319229,0.503517,-0.598903,-0.521464,-0.340386,-0.124094,-0.644094,-0.073830
504,2559352563,0.504611,-0.596510,-0.525738,-0.336371,0.320561,-0.135275,0.066971
505,2559385897,0.502847,-0.597244,-0.528082,-0.334031,0.237614,0.178145,0.436097
506,2559419231,0.500156,-0.599405,-0.528739,-0.333159,-0.108741,-0.039407,0.440125
507,2559452565,0.497686,-0.601517,-0.529725,-0.331481,-0.352885,-0.380810,0.039139
508,2559485899,0.495316,-0.603419,-0.530518,-0.330303,-0.294723,-0.223005,0.007714
509,2559519233,0.494218,-0.603566,-0.531466,-0.330157,-0.173225,0.141823,0.441164
510,2559552567,0.493163,-0.603044,-0.533194,-0.329901,-0.283875,0.140885,0.149638
511,2559585901,0.491445,-0.603357,-0.534339,-0.330038,-0.038386,-0.044902,0.058930
512,2559619235,0.489279,-0.603806,-0.534512,-0.332150,0.203763,-0.049097,0.247255
513,2559652569,0.485684,-0.605281,-0.533926,-0.335664,-0.207743,-0.521717,0.288414
514,2559685903,0.481269,-0.607654,-0.532751,-0.339581,-0.659400,-0.516725,0.196792
515,2559719237,0.476908,-0.609428,-0.531821,-0.343983,-0.203157,-0.259186,0.305921
516,2559752571,0.471776,-0.611304,-0.530600,-0.349573,-0.014239,-0.183230,0.317169
517,2559785905,0.465896,-0.614136,-0.527609,-0.356942,-0.251122,-0.131278,0.213275
518,2559819239,0.457979,-0.618859,-0.522930,-0.365806,-0.657065,-0.116214,0.102209
519,2559852573,0.449258,-0.623994,-0.517372,-0.375669,-0.884736,0.030840,0.539873
520,2559885907,0.440113,-0.628495,-0.512166,-0.385983,-0.613011,-0.407816,0.556457
521,2559919241,0.431114,-0.632122,-0.507140,-0.396702,-0.204471,-1.226802,0.534285
522,2559952575,0.423428,-0.634188,-0.502569,-0.407357,-0.378770,-1.305519,0.176845
523,2559985909,0.418587,-0.634047,-0.498989,-0.416871,-0.396868,-0.891909,0.877565
524,2560019243,0.412999,-0.633572,-0.494885,-0.427912,0.342791,-0.856668,0.562158
525,2560052577,0.404415,-0.635232,-0.488324,-0.440988,0.591789,-0.396341,-0.232295
526,2560085911,0.396188,-0.639289,-0.480392,-0.451188,0.885825,0.094071,-0.065577
527,2560119245,0.389484,-0.643651,-0.471537,-0.460076,1.088111,-0.237087,0.070696
528,2560152579,0.381601,-0.648491,-0.462098,-0.469369,0.606454,-0.379436,0.375893
529,2560185913,0.374872,-0.651809,-0.452359,-0.479573,0.524186,0.346282,0.443110
530,2560219247,0.369581,-0.654040,-0.442677,-0.489571,0.623194,0.455252,-0.205047
531,2560252581,0.362325,-0.658686,-0.432202,-0.498053,0.210514,-0.245987,-0.785146
532,2560285915,0.352141,-0.666824,-0.419894,-0.505008,0.367258,-0.466153,-0.355900
533,2560319249,0.342217,-0.675893,-0.406495,-0.510706,0.148360,-0.210007,-0.246380
534,2560352583,0.333945,-0.683745,-0.393715,-0.515716,-0.208246,0.717091,0.208756
535,2560385917,0.328872,-0.690460,-0.385347,-0.516350,0.015098,0.881851,0.005747
536,2560419251,0.324944,-0.697295,-0.378295,-0.514864,0.418537,0.021997,-0.083984
537,2560452585,0.325451,-0.699190,-0.373032,-0.515813,0.497516,-2.443319,-0.413860
538,2560485919,0.323128,-0.702900,-0.361338,-0.520535,-1.311214,-3.189327,-0.987439
539,2560519253,0.313991,-0.713351,-0.343812,-0.523770,-0.164296,-0.752871,-0.184377
540,2560552587,0.301485,-0.725445,-0.324858,-0.526598,1.036867,0.795948,1.486456
541,2560585921,0.293177,-0.733758,-0.308942,-0.529342,1.920026,1.438745,1.316034
542,2560619255,0.286777,-0.739722,-0.297903,-0.530873,1.881733,0.126214,0.391616
543,2560652589,0.279474,-0.745214,-0.290033,-0.531444,0.611992,0.915462,0.062413
544,2560685923,0.277663,-0.749604,-0.285056,-0.528906,-0.198130,1.573135,0.048837
545,2560719257,0.279952,-0.752005,-0.284656,-0.524489,0.010554,0.440309,0.071000
546,2560752591,0.284638,-0.750752,-0.288796,-0.521490,0.476501,-0.238739,0.294879
547,2560785925,0.288098,-0.750118,-0.291879,-0.518778,0.685509,-0.816562,0.361868
548,2560819259,0.289035,-0.751638,-0.290831,-0.516641,0.412602,-0.991718,-0.026291
549,2560852593,0.288786,-0.754055,-0.285758,-0.516090,0.056623,-0.684816,0.257861
550,2560885927,0.287818,-0.755908,-0.278767,-0.517739,-0.462203,-0.133578,0.497364
551,2560919261,0.285683,-0.758504,-0.271413,-0.519031,-0.502925,-0.216856,0.097077
552,2560952595,0.281957,-0.761447,-0.262626,-0.521276,0.100363,-0.462373,-0.018293
553,2560985929,0.276125,-0.765401,-0.249741,-0.524927,-0.040065,0.152812,0.191060
554,2561019263,0.271461,-0.769029,-0.237180,-0.527874,-0.360385,0.545750,0.416919
555,2561052597,0.267475,-0.771429,-0.227074,-0.530843,-0.339060,0.493236,0.270544
556,2561085931,0.263898,-0.772664,-0.217916,-0.534661,-0.279920,0.554512,0.059889
557,2561119265,0.260811,-0.774518,-0.209524,-0.536844,-0.113614,0.739630,0.037246
558,2561152599,0.258197,-0.776494,-0.203080,-0.537729,0.168623,0.204649,0.346539
559,2561185933,0.255184,-0.777737,-0.197809,-0.539333,0.479613,-0.107341,0.234931
560,2561219267,0.253401,-0.779084,-0.192926,-0.539998,0.471282,0.106175,-0.038519
561,2561252601,0.253502,-0.781065,-0.189830,-0.538184,-0.014687,0.745697,-0.015080
562,2561285935,0.255909,-0.782270,-0.191607,-0.534652,-0.250203,0.804869,0.149843
563,2561319269,0.260444,-0.782556,-0.198349,-0.529560,-0.312063,0.506585,0.033496
564,2561352603,0.267291,-0.782484,-0.208283,-0.522392,-0.272262,0.327190,0.002658
565,2561385937,0.273956,-0.782592,-0.218538,-0.514530,-0.154429,0.524466,0.186231
566,2561419271,0.280731,-0.781931,-0.228817,-0.507364,-0.142165,1.019350,0.224579
567,2561452605,0.287309,-0.780534,-0.240528,-0.500368,-0.486202,0.989957,0.295511
568,2561485939,0.294700,-0.777993,-0.254234,-0.493200,-0.331124,0.804269,0.166408
569,2561519273,0.302630,-0.774504,-0.269370,-0.485799,-0.039526,0.329725,0.184663
570,2561552607,0.310305,-0.770873,-0.284123,-0.478270,-0.141320,0.261445,0.139033
571,2561585941,0.317238,-0.767478,-0.297978,-0.470689,-0.432141,0.214842,0.198732
572,2561619275,0.323207,-0.763995,-0.311222,-0.463671,-0.396712,0.193729,0.122006
573,2561652609,0.328585,-0.759987,-0.324817,-0.457107,-0.355839,0.117842,0.243903
574,2561685943,0.333881,-0.755731,-0.338781,-0.450137,-0.353803,0.028069,0.327134
575,2561719277,0.339837,-0.750969,-0.352474,-0.443081,-0.156196,-0.026351,0.225389
576,2561752611,0.344017,-0.746472,-0.364063,-0.438054,-0.150778,-0.335117,0.289553
577,2561785945,0.346585,-0.742548,-0.373221,-0.434982,-0.054803,-0.759728,0.466029
578,2561819279,0.347350,-0.739610,-0.379716,-0.433755,0.037043,-1.146659,0.254373
579,2561852613,0.346803,-0.737776,-0.383482,-0.434002,-0.008539,-1.242039,0.006995
580,2561885947,0.345166,-0.737186,-0.385169,-0.434815,-0.359607,-0.695921,0.122123
581,2561919281,0.342283,-0.737552,-0.385405,-0.436262,-0.463002,-0.043425,0.240407
582,2561952615,0.338322,-0.738126,-0.385184,-0.438571,-0.063058,0.261029,0.147250
583,2561985949,0.334384,-0.738431,-0.384837,-0.441371,0.088945,0.375174,0.144593
584,2562019283,0.330650,-0.738466,-0.384606,-0.444317,0.329269,0.278334,0.284081
585,2562052617,0.326868,-0.738240,-0.384895,-0.447233,0.354567,0.236396,0.431047
586,2562085951,0.323487,-0.737438,-0.385431,-0.450539,0.362389,-0.014114,0.398682
587,2562119285,0.319498,-0.736860,-0.385091,-0.454605,0.392705,-0.332471,0.497448
588,2562152619,0.315533,-0.736107,-0.382992,-0.460330,0.403599,-0.612829,0.459027
589,2562185953,0.310815,-0.735882,-0.379120,-0.467056,0.181306,-0.676555,0.114133
590,2562219287,0.305937,-0.735875,-0.373583,-0.474687,0.022295,-0.561661,0.011034
591,2562252621,0.300868,-0.736242,-0.367083,-0.482367,-0.047227,-0.384722,0.053872
592,2562285955,0.295626,-0.737102,-0.360268,-0.489382,-0.070825,-0.428317,0.248017
593,2562319289,0.289945,-0.738350,-0.353226,-0.495988,-0.032160,-0.510134,0.267612
594,2562352623,0.284551,-0.739361,-0.345929,-0.502703,-0.167017,-0.440017,0.169173
595,2562385957,0.280236,-0.739781,-0.339097,-0.509124,-0.085918,-0.140594,0.069451
596,2562419291,0.276056,-0.740172,-0.332924,-0.514880,0.008494,-0.047031,0.154255
597,2562452625,0.271596,-0.741014,-0.327217,-0.519678,-0.036168,0.019384,0.301731
598,2562485959,0.267793,-0.741387,-0.322488,-0.524056,-0.083533,0.037932,0.090651
599,2562519293,0.265228,-0.740959,-0.319003,-0.528084,-0.073227,-0.000926,0.110732
600,2562552627,0.263009,-0.740551,-0.316733,-0.531124,0.106718,-0.020919,0.015285
601,2562585961,0.260349,-0.740573,-0.314531,-0.533707,0.332796,0.148183,0.068970
602,2562619295,0.256855,-0.741462,-0.311503,-0.535936,0.340883,0.380669,0.039907
603,2562652629,0.253074,-0.742818,-0.308019,-0.537866,0.344381,0.590797,-0.056450
604,2562685963,0.249736,-0.744174,-0.305474,-0.539003,0.356038,0.684220,-0.110476
605,2562719297,0.247445,-0.744793,-0.304557,-0.539723,0.458049,0.680527,-0.037718
606,2562752631,0.246865,-0.744476,-0.305704,-0.539777,0.275260,0.757853,-0.011473
607,2562785965,0.248264,-0.743648,-0.309725,-0.537982,-0.043366,0.545769,0.055342
608,2562819299,0.250752,-0.742574,-0.316373,-0.534432,-0.082242,0.132315,0.328856
609,2562852633,0.254249,-0.740727,-0.325123,-0.530073,0.068202,-0.136902,0.267525
610,2562885967,0.258805,-0.738283,-0.334506,-0.525420,0.036550,-0.293645,0.200253
611,2562919301,0.263777,-0.735776,-0.343990,-0.520316,-0.022114,-0.391069,0.200825
612,2562952635,0.268602,-0.733322,-0.353248,-0.515082,-0.014643,-0.372961,0.201496
613,2562985969,0.272779,-0.731141,-0.361266,-0.510405,0.026346,-0.482658,-0.020002
614,2563019303,0.276096,-0.729688,-0.367264,-0.506405,-0.261460,-0.637661,0.122291
615,2563052637,0.279285,-0.728602,-0.372537,-0.502352,-0.342627,-0.446833,0.308853
616,2563085971,0.282220,-0.727356,-0.378006,-0.498417,-0.236446,-0.163185,0.089410
617,2563119305,0.284955,-0.726173,-0.383447,-0.494413,-0.077380,-0.307993,0.214482
618,2563152639,0.287738,-0.724975,-0.388518,-0.490585,0.069970,-0.348974,0.403498
619,2563185973,0.290713,-0.723556,-0.393212,-0.487175,0.139039,-0.030331,0.221899
620,2563219307,0.292831,-0.722568,-0.397134,-0.484182,0.249392,-0.014683,0.043514
621,2563252641,0.293922,-0.722163,-0.399654,-0.482047,0.279525,-0.048545,0.051838
622,2563285975,0.295192,-0.721813,-0.401380,-0.480358,0.056647,0.265843,0.375809
623,2563319309,0.296772,-0.721103,-0.403732,-0.478475,-0.073197,0.618031,0.444171
624,2563352643,0.297909,-0.719991,-0.407002,-0.476670,0.004411,0.421513,0.195990
625,2563385977,0.298490,-0.718624,-0.409590,-0.476152,0.251649,-0.063914,0.033356
626,2563419311,0.298884,-0.717409,-0.410874,-0.476631,0.224288,-0.356642,0.422750
627,2563452645,0.299085,-0.716380,-0.411123,-0.477836,0.190682,-0.322917,0.354068
628,2563485979,0.298091,-0.716219,-0.409947,-0.479705,0.257695,-0.255792,0.071912
629,2563519313,0.295832,-0.716899,-0.407039,-0.482557,0.243116,-0.396332,0.199993
630,2563552647,0.293214,-0.717770,-0.403056,-0.486188,0.091896,-0.557655,0.252335
631,2563585981,0.290985,-0.718408,-0.398190,-0.490575,-0.093442,-0.622925,0.242126
632,2563619315,0.288596,-0.719166,-0.392559,-0.495391,-0.208324,-0.464146,0.349151
633,2563652649,0.285775,-0.720300,-0.386786,-0.499899,-0.233287,-0.134652,-0.032106
634,2563685983,0.282787,-0.721922,-0.381271,-0.503483,-0.133525,-0.004461,-0.042145
635,2563719317,0.279548,-0.723778,-0.376066,-0.506532,-0.052632,-0.057273,0.108706
636,2563752651,0.276897,-0.725248,-0.371412,-0.509312,0.086713,0.000026,0.126148
637,2563785985,0.274825,-0.726490,-0.367058,-0.511814,0.247938,-0.170480,0.260211
638,2563819319,0.272724,-0.727645,-0.362391,-0.514615,0.291222,-0.557394,0.290182
639,2563852653,0.270651,-0.728795,-0.356897,-0.517911,0.129734,-0.649998,0.269743
640,2563885987,0.268129,-0.730101,-0.349944,-0.522111,-0.106723,-0.637218,0.150254
641,2563919321,0.264926,-0.731673,-0.341714,-0.526975,-0.202245,-0.600859,0.059159
642,2563952655,0.261416,-0.733698,-0.332660,-0.531683,-0.554633,-0.356521,0.226337
643,2563985989,0.258173,-0.735908,-0.324228,-0.535411,-0.580149,0.103427,0.115905
644,2564019323,0.254887,-0.738179,-0.316870,-0.538256,-0.398288,0.472985,-0.341539
645,2564052657,0.251829,-0.740272,-0.310344,-0.540617,-0.174473,0.406298,-0.134723
646,2564085991,0.249955,-0.741598,-0.305236,-0.542574,0.134421,0.397404,0.089870
647,2564119325,0.248541,-0.742330,-0.300280,-0.544984,0.574104,0.275111,0.113358
648,2564152659,0.246597,-0.743363,-0.293845,-0.547959,0.898678,-0.059696,0.040583
649,2564185993,0.243755,-0.745203,-0.284814,-0.551489,0.666007,-0.331384,0.232883
650,2564219327,0.241159,-0.746821,-0.273942,-0.555930,0.605958,-0.055029,0.328753
651,2564252661,0.239368,-0.747870,-0.263613,-0.560270,0.484547,0.509704,0.282078
652,2564285995,0.237671,-0.748559,-0.254663,-0.564199,0.599588,0.620945,-0.296009
653,2564319329,0.236763,-0.750813,-0.249340,-0.563963,0.180546,0.413128,0.306549
654,2564352663,0.237834,-0.752991,-0.248448,-0.560994,0.255697,0.108790,0.251459
655,2564385997,0.238075,-0.755890,-0.248619,-0.556904,0.253536,0.096553,-0.073220
656,2564419331,0.239685,-0.758940,-0.250013,-0.551414,0.153142,0.071462,0.695055
657,2564452665,0.243177,-0.760925,-0.253636,-0.545462,0.316830,-0.274425,0.375108
658,2564485999,0.246543,-0.762818,-0.256664,-0.539861,0.134290,-0.219633,-0.006471
659,2564519333,0.250910,-0.763751,-0.259055,-0.535370,-0.029674,-0.209165,0.288504
660,2564552667,0.255889,-0.764353,-0.261622,-0.530887,-0.382409,-0.086440,0.643022
661,2564586001,0.259905,-0.765709,-0.264256,-0.525652,-0.483721,-0.169702,0.130951
662,2564619335,0.262954,-0.767127,-0.265697,-0.521323,-0.401057,-0.353292,0.042099
663,2564652669,0.265434,-0.767866,-0.265018,-0.519320,-0.094150,-0.196617,0.285634
664,2564686003,0.266580,-0.768711,-0.262188,-0.518920,-0.175234,-0.327985,0.375023
665,2564719337,0.265648,-0.769861,-0.256095,-0.520732,0.005447,-0.752050,0.154063
666,2564752671,0.262630,-0.771654,-0.246168,-0.524384,-0.048623,-0.640545,0.076133
667,2564786005,0.258398,-0.774640,-0.234150,-0.527579,-0.384787,-0.134768,0.237066
668,2564819339,0.254067,-0.777677,-0.222395,-0.530293,-0.414710,0.237698,0.188664
669,2564852673,0.251156,-0.779378,-0.212412,-0.533267,-0.118893,0.395521,0.263549
670,2564886007,0.249320,-0.780608,-0.204199,-0.535533,0.047952,0.564610,0.269550
671,2564919341,0.247294,-0.782773,-0.197162,-0.535949,-0.189320,0.220800,0.005169
672,2564952675,0.245053,-0.785055,-0.190415,-0.536080,-0.034813,-0.003814,0.086476
673,2564986009,0.244251,-0.786143,-0.184719,-0.536844,0.168705,0.075119,0.271011
674,2565019343,0.242876,-0.787322,-0.178873,-0.537718,0.192265,0.021017,0.118976
675,2565052677,0.241656,-0.788833,-0.173279,-0.537886,-0.091072,0.232692,0.013870
676,2565086011,0.241698,-0.790303,-0.169285,-0.536980,-0.289387,0.174770,0.076207
677,2565119345,0.243094,-0.791102,-0.167586,-0.535705,-0.232844,0.613811,0.232053
678,2565152679,0.246515,-0.791156,-0.169769,-0.533370,0.106528,0.943199,0.133218
679,2565186013,0.250902,-0.791173,-0.174853,-0.529643,-0.093703,0.730710,0.115249
680,2565219347,0.255800,-0.791092,-0.181472,-0.525175,-0.007617,0.154171,0.023201
681,2565252681,0.260710,-0.790733,-0.188440,-0.520831,0.047970,0.100206,0.121615
682,2565286015,0.266023,-0.790051,-0.195560,-0.516536,-0.099293,0.277120,0.288664
683,2565319349,0.271063,-0.789549,-0.202661,-0.511926,-0.259458,0.251928,0.207832
684,2565352683,0.275877,-0.788865,-0.210345,-0.507288,-0.304992,0.291261,0.147651
685,2565386017,0.281207,-0.787399,-0.218578,-0.503141,-0.317976,0.492333,0.238722
686,2565419351,0.286340,-0.785761,-0.227201,-0.498970,-0.299404,0.171931,0.221696
687,2565452685,0.290733,-0.784426,-0.235444,-0.494690,-0.506868,0.007953,0.090687
688,2565486019,0.295303,-0.783172,-0.243791,-0.489903,-0.374330,0.256341,0.044936
689,2565519353,0.299322,-0.781984,-0.252409,-0.484973,-0.423100,0.497469,0.232568
690,2565552687,0.303759,-0.779898,-0.262482,-0.480202,-0.095619,0.607035,0.353957
691,2565586021,0.308580,-0.776776,-0.273337,-0.476115,0.177972,0.591071,0.256568
692,2565619355,0.313061,-0.773403,-0.283727,-0.472590,0.348602,0.230578,0.093235
693,2565652689,0.316077,-0.770604,-0.292540,-0.469772,0.174010,-0.014686,0.063667
694,2565686023,0.318343,-0.768158,-0.300553,-0.467184,-0.149710,0.367060,0.238385
695,2565719357,0.321592,-0.764859,-0.309377,-0.464604,-0.300061,0.630047,0.368747
696,2565752691,0.324889,-0.760910,-0.318828,-0.462399,0.009162,0.687897,0.204983
697,2565786025,0.327562,-0.756694,-0.328495,-0.460662,0.093494,0.390788,0.190394
698,2565819359,0.330929,-0.751872,-0.338555,-0.458865,0.214999,0.231431,0.188680
699,2565852693,0.333949,-0.747102,-0.348077,-0.457342,0.015253,-0.296899,0.264922
700,2565886027,0.335047,-0.742637,-0.354591,-0.458803,0.041112,-0.813176,0.301783
701,2565919361,0.335045,-0.738719,-0.359141,-0.461583,0.124459,-0.668003,0.129209
702,2565952695,0.333254,-0.736424,-0.361406,-0.464768,-0.219009,-0.622727,0.108357
703,2565986029,0.329678,-0.735523,-0.361668,-0.468525,-0.525477,-0.408845,0.182846
704,2566019363,0.326020,-0.735040,-0.361939,-0.471624,-0.722924,-0.167914,0.207313
705,2566052697,0.322414,-0.734472,-0.363125,-0.474069,-0.657186,-0.016797,0.127374
706,2566086031,0.319706,-0.733048,-0.365687,-0.476134,-0.419866,0.022170,0.189137
707,2566119365,0.318374,-0.730448,-0.369489,-0.478083,-0.159460,-0.198679,0.243291
708,2566152699,0.317662,-0.727061,-0.373717,-0.480428,0.018354,-0.426641,0.305344
709,2566186033,0.317251,-0.723859,-0.378063,-0.482130,0.011562,-0.546196,0.325412
710,2566219367,0.316348,-0.721434,-0.381652,-0.483530,0.016602,-0.705975,0.244616
711,2566252701,0.314708,-0.719930,-0.384279,-0.484759,-0.156600,-0.782144,-0.134952
712,2566286035,0.312534,-0.719322,-0.385105,-0.486410,-0.224077,-0.715121,-0.143616
713,2566319369,0.310980,-0.718922,-0.385607,-0.487598,-0.178124,-0.514551,0.111959
714,2566352703,0.309673,-0.718680,-0.386346,-0.488202,0.073008,-0.281532,0.087302
715,2566386037,0.308303,-0.718754,-0.386215,-0.489062,0.536751,-0.376994,0.122171
716,2566419371,0.306850,-0.719227,-0.385051,-0.490196,0.643378,-0.563283,0.140490
717,2566452705,0.304539,-0.720512,-0.382354,-0.491859,0.443626,-0.628321,0.542537
718,2566486039,0.302323,-0.721690,-0.378676,-0.494339,0.561933,-0.356145,0.246537
719,2566519373,0.299288,-0.723872,-0.374068,-0.496498,0.538550,-0.139367,0.072088
720,2566552707,0.295343,-0.726619,-0.367954,-0.499408,0.613898,-0.206641,0.186635
1,2580452985,0.270953,-0.726528,-0.355375,-0.521970,0.010731,-0.286320,0.348289
2,2580486319,0.268320,-0.727237,-0.348938,-0.526663,-0.064253,-0.185662,0.362557
3,2580519653,0.265990,-0.727715,-0.342824,-0.531182,-0.104611,-0.161351,0.201751
4,2580552987,0.263721,-0.728322,-0.336930,-0.535237,-0.130101,-0.125987,0.030058
5,2580586321,0.260946,-0.729359,-0.330493,-0.539184,-0.169886,-0.116220,0.091715
6,2580619655,0.257656,-0.730747,-0.323639,-0.543030,-0.101626,-0.080640,0.215336
7,2580652989,0.254233,-0.732161,-0.316595,-0.546878,0.012350,-0.098407,0.156109
8,2580686323,0.250556,-0.733710,-0.308923,-0.550872,0.024028,-0.132726,-0.017020
9,2580719657,0.246723,-0.735451,-0.300692,-0.554821,-0.041869,-0.002853,-0.095387
10,2580752991,0.243185,-0.737074,-0.293061,-0.558300,-0.108657,0.242909,0.070612
11,2580786325,0.240362,-0.738540,-0.286989,-0.560735,-0.187932,0.561658,0.013227
12,2580819659,0.238325,-0.740163,-0.282927,-0.561529,-0.210331,0.788235,0.108882
13,2580852993,0.237502,-0.741463,-0.281321,-0.560969,-0.018598,0.501354,0.166173
14,2580886327,0.237621,-0.742037,-0.281129,-0.560255,0.238628,0.202239,0.103838
15,2580919661,0.238712,-0.742211,-0.281537,-0.559355,0.409837,-0.042787,0.267396
16,2580952995,0.239619,-0.742628,-0.281596,-0.558384,0.428182,-0.045762,0.235428
17,2580986329,0.239825,-0.743456,-0.281146,-0.557418,0.409552,0.173934,-0.129431
18,2581019663,0.240055,-0.744646,-0.280782,-0.555913,0.195260,0.413712,-0.120341
19,2581052997,0.240572,-0.745598,-0.280731,-0.554438,0.007013,0.412203,0.101726
20,2581086331,0.242082,-0.746128,-0.281998,-0.552420,-0.030074,0.405694,0.281685
21,2581119665,0.244139,-0.746303,-0.284449,-0.550018,0.065839,0.281772,0.069895
22,2581152999,0.246472,-0.746540,-0.287632,-0.546991,0.053049,-0.001929,0.056396
23,2581186333,0.249318,-0.746691,-0.291454,-0.543461,-0.050752,-0.141823,0.261727
24,2581219667,0.251808,-0.746984,-0.295004,-0.539984,0.029764,-0.053404,-0.001886
25,2581253001,0.253763,-0.747835,-0.297744,-0.536374,0.039060,-0.080291,-0.092175
26,2581286335,0.255414,-0.749276,-0.299856,-0.532388,-0.229885,-0.203402,0.184567
27,2581319669,0.257107,-0.750748,-0.301958,-0.528296,-0.303756,-0.162221,0.167830
28,2581353003,0.259248,-0.752030,-0.304784,-0.523784,-0.368454,-0.003552,-0.008327
29,2581386337,0.262059,-0.753320,-0.308558,-0.518293,-0.527144,-0.173939,0.285057
30,2581419671,0.265213,-0.754717,-0.313109,-0.511887,-0.411485,-0.358507,0.225515
31,2581453005,0.268596,-0.755966,-0.317967,-0.505244,-0.209383,-0.277448,-0.001300
32,2581486339,0.272534,-0.756922,-0.323486,-0.498150,-0.083366,-0.243731,0.483454
33,2581519673,0.277040,-0.756817,-0.329783,-0.491653,0.227009,0.084850,0.505074
34,2581553007,0.282305,-0.755666,-0.336465,-0.485867,0.374799,0.274804,0.311206
35,2581586341,0.287803,-0.754129,-0.342896,-0.480503,0.390349,-0.046605,0.373900
36,2581619675,0.292589,-0.752484,-0.347907,-0.476572,0.348379,-0.326627,0.171770
37,2581653009,0.297010,-0.750986,-0.351841,-0.473302,0.211078,-0.335121,0.157303
38,2581686343,0.301112,-0.749917,-0.355107,-0.469954,-0.071427,-0.141351,0.155909
39,2581719677,0.304697,-0.749309,-0.357796,-0.466561,-0.266316,0.059544,0.122595
40,2581753011,0.308255,-0.748733,-0.360599,-0.462977,-0.099863,0.045198,0.219043
41,2581786345,0.311938,-0.748002,-0.363660,-0.459284,0.077291,-0.113784,0.240581
42,2581819679,0.315663,-0.747235,-0.366407,-0.455791,0.218261,-0.178375,0.192415
43,2581853013,0.319017,-0.746650,-0.368188,-0.452969,0.373796,-0.195835,0.312613
44,2581886347,0.321593,-0.746583,-0.368696,-0.450840,0.390097,-0.304734,0.199908
45,2581919681,0.323245,-0.747216,-0.367634,-0.449474,0.175615,-0.373216,0.180602
46,2581953015,0.324307,-0.748166,-0.365439,-0.448919,0.003502,-0.426631,0.230480
47,2581986349,0.324922,-0.749325,-0.362316,-0.449074,-0.197150,-0.514753,0.180883
48,2582019683,0.325249,-0.750884,-0.358443,-0.449340,-0.208729,-0.443338,0.061869
49,2582053017,0.324867,-0.753152,-0.353630,-0.449635,-0.145922,-0.231655,0.110122
50,2582086351,0.323604,-0.756124,-0.348019,-0.449936,0.003033,-0.035981,0.214240
51,2582119685,0.321712,-0.759503,-0.341758,-0.450399,0.351181,0.134092,0.297533
52,2582153019,0.319365,-0.762808,-0.334780,-0.451723,0.539908,0.095801,0.333400
53,2582186353,0.316459,-0.765995,-0.326853,-0.454175,0.323274,-0.124863,0.243912
54,2582219687,0.313110,-0.769432,-0.318128,-0.456874,-0.221859,-0.130160,0.191127
55,2582253021,0.309924,-0.772903,-0.309457,-0.459136,-0.632335,0.047070,0.120193
56,2582286355,0.307242,-0.775825,-0.301801,-0.461102,-0.731005,0.199293,0.207495
57,2582319689,0.305628,-0.777644,-0.295961,-0.462893,-0.499560,0.090158,0.333546
58,2582353023,0.304396,-0.778706,-0.290687,-0.465255,-0.097401,-0.116378,0.221654
59,2582386357,0.303029,-0.779651,-0.284772,-0.468214,0.045768,-0.382863,0.275751
60,2582419691,0.300976,-0.780754,-0.277327,-0.472153,-0.113472,-0.399319,0.194684
61,2582453025,0.298323,-0.782058,-0.268603,-0.476700,-0.495082,-0.456064,0.114602
62,2582486359,0.295388,-0.783343,-0.259290,-0.481550,-0.706862,-0.258925,0.162807
63,2582519693,0.292367,-0.784468,-0.250129,-0.486384,-0.563235,-0.032138,0.138069
64,2582553027,0.289234,-0.785629,-0.241206,-0.490870,-0.234757,0.398551,0.093058
65,2582586361,0.284971,-0.787078,-0.232151,-0.495385,0.361571,0.141867,0.019607
66,2582619695,0.280254,-0.788663,-0.223061,-0.499714,0.333608,0.579646,0.095391
67,2582653029,0.276675,-0.789925,-0.214903,-0.503277,0.190970,0.887340,0.200380
68,2582686363,0.274363,-0.790602,-0.208978,-0.505969,0.120607,0.875140,0.135375
69,2582719697,0.272772,-0.791096,-0.205679,-0.507405,0.067337,0.892912,0.060981
70,2582753031,0.272719,-0.791191,-0.205399,-0.507399,0.187775,0.784456,0.000297
71,2582786365,0.273892,-0.791019,-0.207143,-0.506326,0.219931,0.390659,0.095463
72,2582819699,0.275377,-0.790665,-0.209605,-0.505058,0.381631,0.145847,0.157905
73,2582853033,0.276910,-0.790293,-0.212189,-0.503722,0.049952,-0.080058,0.119364
74,2582886367,0.278231,-0.790305,-0.214248,-0.502101,-0.281832,-0.325406,0.043855
75,2582919701,0.278997,-0.790672,-0.215115,-0.500725,-0.320927,-0.038236,0.115389
76,2582953035,0.280046,-0.790715,-0.215731,-0.499806,0.118964,0.073058,0.461085
77,2582986369,0.280384,-0.790475,-0.215722,-0.500001,0.236597,-0.341866,0.196563
78,2583019703,0.279777,-0.790763,-0.214053,-0.500601,-0.608908,-0.028969,0.175999
79,2583053037,0.279327,-0.791398,-0.211340,-0.501002,0.060980,0.455086,0.488643
80,2583086371,0.278765,-0.791273,-0.209648,-0.502221,0.128322,0.222656,-0.016746
81,2583119705,0.278642,-0.790622,-0.208834,-0.503652,-0.076693,-0.032649,0.130628
82,2583153039,0.279016,-0.790288,-0.208353,-0.504168,-0.068744,-0.021760,0.125256
83,2583186373,0.278897,-0.790140,-0.208288,-0.504493,-0.003968,-0.313447,0.105142
84,2583219707,0.278265,-0.789934,-0.208174,-0.505211,-0.092939,-0.337648,0.249151
85,2583253041,0.277355,-0.790126,-0.207096,-0.505854,-0.171457,-0.547634,0.174717
86,2583286375,0.275890,-0.790528,-0.204780,-0.506968,-0.120714,-0.591146,0.002861
87,2583319709,0.273865,-0.791176,-0.201120,-0.508518,0.110835,-0.273733,0.226895
88,2583353043,0.271348,-0.792285,-0.196806,-0.509828,-0.126213,-0.147373,0.391787
89,2583386377,0.268167,-0.793668,-0.191977,-0.511200,0.075200,-0.186088,0.093634
90,2583419711,0.264769,-0.794925,-0.186689,-0.512972,0.202212,-0.177077,0.055300
91,2583453045,0.261372,-0.796297,-0.180966,-0.514634,0.059388,0.194920,0.228132
92,2583486379,0.258283,-0.797677,-0.175272,-0.516026,-0.049445,0.356334,0.204122
93,2583519713,0.255880,-0.798591,-0.171231,-0.517165,0.405475,0.239834,0.129636
94,2583553047,0.254363,-0.798929,-0.168519,-0.518280,0.263290,0.410642,0.219079
95,2583586381,0.254031,-0.798803,-0.166874,-0.519169,0.134295,0.237861,0.237514
96,2583619715,0.253281,-0.798855,-0.165217,-0.519985,-0.063339,-0.180511,0.095219
97,2583653049,0.252514,-0.798641,-0.163245,-0.521307,0.200086,-0.407840,0.184438
98,2583686383,0.251368,-0.798545,-0.160481,-0.522864,-0.234123,0.022347,0.141931
99,2583719717,0.250479,-0.798748,-0.158095,-0.523708,-0.432211,0.113656,0.065289
100,2583753051,0.250767,-0.798731,-0.157594,-0.523746,-0.387769,0.161377,-0.022994
101,2583786385,0.252388,-0.798308,-0.159354,-0.523080,0.045951,0.420153,0.172976
102,2583819719,0.255119,-0.797876,-0.163464,-0.521142,0.012025,0.554090,0.254295
103,2583853053,0.258554,-0.797271,-0.169207,-0.518535,0.265343,0.287887,0.146643
104,2583886387,0.262105,-0.796506,-0.175695,-0.515764,0.053401,0.121247,-0.059045
105,2583919721,0.265291,-0.795817,-0.181779,-0.513082,0.052329,0.168566,0.097654
106,2583953055,0.268865,-0.795148,-0.188227,-0.509925,-0.200783,0.289835,0.284581
107,2583986389,0.272812,-0.794098,-0.195873,-0.506575,-0.171630,0.309015,0.112849
108,2584019723,0.277210,-0.792631,-0.204533,-0.503049,-0.264856,0.197117,0.131958
109,2584053057,0.281943,-0.791105,-0.213696,-0.498995,-0.234222,0.192875,0.168651
110,2584086391,0.286474,-0.789842,-0.223192,-0.494236,-0.156961,0.275409,0.136840
111,2584119725,0.290865,-0.788333,-0.232943,-0.489560,-0.116726,0.324575,0.090793
112,2584153059,0.295015,-0.786505,-0.242871,-0.485171,-0.111246,0.390772,0.142007
113,2584186393,0.299306,-0.784439,-0.253167,-0.480604,-0.232174,0.463707,0.257983
114,2584219727,0.303448,-0.782233,-0.263503,-0.476023,-0.177596,0.415180,0.143607
115,2584253061,0.306890,-0.780185,-0.273691,-0.471407,-0.257052,0.337522,0.148582
116,2584286395,0.310305,-0.777708,-0.283952,-0.467176,-0.197483,0.328859,0.271632
117,2584319729,0.313733,-0.774735,-0.294130,-0.463516,-0.117931,0.315926,0.286759
118,2584353063,0.316775,-0.771829,-0.304052,-0.459877,-0.162184,0.098000,0.196986
119,2584386397,0.318835,-0.769123,-0.313028,-0.456957,-0.135190,-0.335767,0.149064
120,2584419731,0.319912,-0.766475,-0.320379,-0.455556,-0.140212,-0.420319,0.194214
121,2584453065,0.320594,-0.764155,-0.326677,-0.454500,-0.020825,-0.316425,0.093597
122,2584486399,0.320276,-0.762629,-0.331834,-0.453551,-0.111516,-0.255103,-0.029690
123,2584519733,0.319185,-0.761462,-0.336178,-0.453082,-0.157172,-0.113726,0.264205
124,2584553067,0.318642,-0.759611,-0.341173,-0.452836,-0.219066,0.267714,0.358115
125,2584586401,0.319768,-0.756895,-0.347816,-0.451535,-0.325527,0.435961,0.094141
126,2584619735,0.321635,-0.753405,-0.355592,-0.449987,-0.205510,0.192218,0.064293
127,2584653069,0.323654,-0.748972,-0.363953,-0.449253,0.001342,0.082757,0.351509
128,2584686403,0.326506,-0.743581,-0.372505,-0.449137,0.307261,-0.156887,0.372002
129,2584719737,0.328531,-0.738971,-0.380267,-0.448763,0.447927,-0.536808,0.308710
130,2584753071,0.328342,-0.735914,-0.385486,-0.449471,0.409904,-0.708203,0.208727
131,2584786405,0.327413,-0.733203,-0.389083,-0.451476,0.150988,-0.489571,0.115784
132,2584819739,0.327774,-0.729582,-0.392234,-0.454344,-0.014263,-0.389550,0.150436
133,2584853073,0.328373,-0.726033,-0.395870,-0.456438,-0.316681,-0.373430,0.137857
134,2584886407,0.328138,-0.723197,-0.399105,-0.458288,-0.384363,-0.394690,0.244349
135,2584919741,0.328251,-0.720375,-0.402861,-0.459365,-0.309964,-0.431824,0.184999
136,2584953075,0.328967,-0.717288,-0.407222,-0.459837,-0.253536,-0.342694,0.092726
137,2584986409,0.329568,-0.714591,-0.411827,-0.459505,-0.146007,-0.264032,0.213151
138,2585019743,0.330036,-0.712148,-0.416521,-0.458730,0.093350,-0.251370,0.181258
139,2585053077,0.330821,-0.709761,-0.420706,-0.458045,0.271004,-0.026329,0.152066
140,2585086411,0.330883,-0.708069,-0.423874,-0.457698,0.302111,0.174502,0.228477
141,2585119745,0.329889,-0.707095,-0.426328,-0.457643,0.438945,0.161110,0.224445
142,2585153079,0.328211,-0.706724,-0.427974,-0.457885,0.599804,0.058024,0.212190
143,2585186413,0.326491,-0.706457,-0.429003,-0.458564,0.543985,0.100928,0.184228
144,2585219747,0.324421,-0.706379,-0.429359,-0.459819,0.506349,0.089543,0.278653
145,2585253081,0.321628,-0.706714,-0.428671,-0.461902,0.474001,0.096693,0.211319
146,2585286415,0.318857,-0.707487,-0.427647,-0.463586,0.349784,-0.023003,0.197578
147,2585319749,0.315683,-0.708685,-0.426278,-0.465187,0.335156,-0.271869,0.396127
148,2585353083,0.312424,-0.709747,-0.424222,-0.467642,0.468859,-0.369098,0.318701
149,2585386417,0.309338,-0.710941,-0.421521,-0.470314,0.488531,-0.357725,0.111257
150,2585419751,0.305631,-0.712832,-0.417773,-0.473210,0.385590,-0.351053,0.203844
151,2585453085,0.301235,-0.715327,-0.412700,-0.476702,0.255809,-0.448625,0.194907
152,2585486419,0.296555,-0.718283,-0.406508,-0.480497,0.107688,-0.435245,0.321158
153,2585519753,0.291577,-0.721248,-0.399687,-0.484805,0.064459,-0.416668,0.198704
154,2585553087,0.286376,-0.724030,-0.392092,-0.489934,0.006811,-0.355353,-0.022731
155,2585586421,0.281257,-0.726759,-0.384329,-0.494984,-0.157253,-0.248840,0.048920
156,2585619755,0.276364,-0.729396,-0.376581,-0.499792,-0.236765,-0.181410,0.064293
157,2585653089,0.271835,-0.731709,-0.368859,-0.504631,-0.264612,-0.237944,0.187163
158,2585686423,0.268096,-0.733356,-0.361972,-0.509207,-0.224424,-0.319395,0.199119
159,2585719757,0.265290,-0.734359,-0.356152,-0.513318,-0.205914,-0.405295,0.228467
160,2585753091,0.263204,-0.734986,-0.351060,-0.516990,-0.199353,-0.487317,0.326670
161,2585786425,0.261020,-0.735768,-0.345980,-0.520397,-0.135577,-0.505131,0.398202
162,2585819759,0.259132,-0.736467,-0.340948,-0.523664,0.005073,-0.526827,0.286730
163,2585853093,0.257630,-0.737119,-0.335873,-0.526757,0.002550,-0.385111,0.190666
164,2585886427,0.256704,-0.737305,-0.331153,-0.529927,0.011742,-0.295028,0.035595
165,2585919761,0.256060,-0.737433,-0.326426,-0.532985,-0.246063,-0.006463,0.151858
166,2585953095,0.255650,-0.737823,-0.322304,-0.535147,-0.205972,0.222674,0.235350
167,2585986429,0.255010,-0.738381,-0.319261,-0.536506,-0.026813,0.172385,-0.053978
168,2586019763,0.253663,-0.739954,-0.316280,-0.536742,-0.290147,0.353823,-0.224208
169,2586053097,0.252017,-0.742062,-0.313392,-0.536302,-0.363969,0.861961,-0.181870
170,2586086431,0.250938,-0.743690,-0.311745,-0.535511,0.123617,1.197843,-0.308434
171,2586119765,0.250781,-0.745064,-0.311555,-0.533782,0.436365,1.176250,-0.082128
172,2586153099,0.251412,-0.745834,-0.312748,-0.531708,0.555923,1.049168,0.249641
173,2586186433,0.252556,-0.745906,-0.315428,-0.529477,0.592993,0.841412,0.368680
174,2586219767,0.254417,-0.745113,-0.319565,-0.527219,0.601655,0.495593,0.228875
175,2586253101,0.256581,-0.743859,-0.323943,-0.525264,0.391167,0.209680,0.199452
176,2586286435,0.258991,-0.742381,-0.328654,-0.523242,-0.099853,0.018207,0.396143
177,2586319769,0.261529,-0.740798,-0.333744,-0.520996,-0.235345,-0.021539,0.273810
178,2586353103,0.263784,-0.739258,-0.338886,-0.518724,-0.299860,-0.058438,-0.092732
179,2586386437,0.266264,-0.737799,-0.344375,-0.515910,-0.495695,-0.358847,0.022202
180,2586419771,0.269444,-0.736183,-0.350521,-0.512418,-0.684199,-0.484233,0.066564
181,2586453105,0.273036,-0.734577,-0.356896,-0.508405,-0.445500,-0.464644,-0.052478
182,2586486439,0.276318,-0.733457,-0.363391,-0.503625,-0.287228,-0.508044,0.272861
183,2586519773,0.279762,-0.732241,-0.370028,-0.498635,-0.193906,-0.561286,0.328670
184,2586553107,0.283844,-0.730521,-0.376640,-0.493879,-0.009590,-0.534787,0.154925
185,2586586441,0.288152,-0.728631,-0.383012,-0.489253,0.145875,-0.458038,0.214584
186,2586619775,0.292010,-0.726965,-0.388601,-0.485018,0.162347,-0.440044,0.177890
187,2586653109,0.295471,-0.725581,-0.392765,-0.481629,0.228256,-0.396783,0.056979
188,2586686443,0.298423,-0.724674,-0.395471,-0.478953,0.253722,-0.366037,0.209867
189,2586719777,0.301019,-0.724369,-0.397632,-0.475990,0.165982,-0.058548,0.436584
190,2586753111,0.303473,-0.724029,-0.399647,-0.473255,0.170485,0.331347,0.152100
191,2586786445,0.305789,-0.723557,-0.401813,-0.470645,0.269040,0.077142,0.128950
192,2586819779,0.308214,-0.723002,-0.403994,-0.468041,0.401393,-0.221550,0.331813
193,2586853113,0.310013,-0.722967,-0.404623,-0.466361,0.475141,-0.280077,0.329896
194,2586886447,0.310444,-0.723942,-0.403115,-0.465868,0.575154,-0.353603,0.355824
195,2586919781,0.309380,-0.725944,-0.399401,-0.466659,0.596013,-0.516672,0.274347
196,2586953115,0.307170,-0.728845,-0.393611,-0.468513,0.352189,-0.477494,0.161797
197,2586986449,0.304291,-0.732344,-0.386146,-0.471139,0.054820,-0.308520,0.163024
198,2587019783,0.301003,-0.736122,-0.377850,-0.474081,-0.105473,-0.209227,0.304757
199,2587053117,0.297497,-0.740001,-0.369461,-0.476858,-0.122589,-0.143464,0.223039
200,2587086451,0.294061,-0.743842,-0.361329,-0.479239,-0.160863,-0.152727,0.159468
201,2587119785,0.291290,-0.747308,-0.353660,-0.481256,-0.159390,-0.152060,0.222091
202,2587153119,0.288912,-0.750250,-0.346191,-0.483537,-0.037783,-0.020870,0.187407
203,2587186453,0.286691,-0.753136,-0.338751,-0.485637,-0.007343,-0.010413,0.119124
204,2587219787,0.284030,-0.756403,-0.330556,-0.487767,-0.068230,-0.162168,0.146761
205,2587253121,0.280532,-0.759889,-0.321335,-0.490526,-0.078987,-0.234648,0.316599
206,2587286455,0.277274,-0.762796,-0.312044,-0.493855,0.018565,-0.113506,0.444120
207,2587319789,0.274468,-0.765004,-0.303140,-0.497537,0.031956,0.055246,0.158966
208,2587353123,0.271801,-0.767002,-0.294310,-0.501215,-0.099814,0.044811,0.078510
209,2587386457,0.269653,-0.768805,-0.286221,-0.504287,-0.198052,-0.128143,0.131719
210,2587419791,0.267235,-0.770600,-0.278304,-0.507257,-0.367815,-0.160886,-0.043112
211,2587453125,0.264778,-0.772399,-0.270469,-0.510040,-0.273482,0.278975,-0.052889
212,2587486459,0.263068,-0.774090,-0.263731,-0.511887,-0.089857,0.563785,0.266552
213,2587519793,0.262162,-0.775480,-0.258738,-0.512795,0.215809,0.471767,0.301893
214,2587553127,0.262014,-0.776362,-0.255214,-0.513301,0.268956,0.447940,0.152531
215,2587586461,0.262962,-0.776785,-0.252648,-0.513445,0.163516,0.411669,0.170095
216,2587619795,0.264300,-0.777130,-0.251027,-0.513032,0.201699,0.165373,0.193006
217,2587653129,0.265634,-0.777685,-0.250102,-0.511953,0.011888,0.085162,0.010019
218,2587686463,0.267440,-0.778253,-0.249486,-0.510447,-0.097890,0.153522,0.106465
219,2587719797,0.269404,-0.778715,-0.249294,-0.508801,0.015276,-0.041952,0.177859
220,2587753131,0.270906,-0.779569,-0.249139,-0.506768,-0.203246,-0.075084,-0.012627
221,2587786465,0.272775,-0.780532,-0.249116,-0.504288,-0.355311,0.114877,0.223702
222,2587819799,0.275420,-0.780950,-0.249983,-0.501767,-0.093302,0.082033,0.424349
223,2587853133,0.277379,-0.781397,-0.250573,-0.499694,-0.129360,-0.413974,0.003231
224,2587886467,0.278428,-0.782475,-0.249480,-0.497968,-0.193190,-0.037769,0.197353
225,2587919801,0.280354,-0.782724,-0.247430,-0.497519,-0.020816,0.383321,0.637285
226,2587953135,0.282521,-0.781799,-0.245597,-0.498654,0.559776,0.258178,0.357200
227,2587986469,0.284114,-0.781118,-0.243286,-0.499948,0.007751,0.233996,-0.350702
228,2588019803,0.285885,-0.780964,-0.242072,-0.499768,-0.388565,0.035761,0.009029
229,2588053137,0.286688,-0.781545,-0.242409,-0.498234,-0.441429,-0.119845,0.236041
230,2588086471,0.288041,-0.781288,-0.243091,-0.497523,-0.043969,-0.297234,0.204627
231,2588119805,0.289502,-0.780786,-0.242402,-0.497800,0.299452,-0.321076,0.296731
232,2588153139,0.289279,-0.780917,-0.239299,-0.499224,-0.062084,-0.575934,0.286178
233,2588186473,0.287148,-0.781869,-0.233933,-0.501503,-0.268661,-0.536773,-0.015274
234,2588219807,0.284334,-0.783072,-0.227077,-0.504371,-0.195511,-0.217098,0.314353
235,2588253141,0.281145,-0.784140,-0.219306,-0.507927,-0.052478,-0.011888,0.256424
236,2588286475,0.277970,-0.785218,-0.211465,-0.511322,-0.113535,-0.091877,0.201559
237,2588319809,0.274050,-0.786686,-0.203434,-0.514429,-0.037332,-0.219481,0.116945
238,2588353143,0.269359,-0.788384,-0.194234,-0.517853,-0.049855,0.088463,0.079781
239,2588386477,0.265410,-0.789711,-0.184989,-0.521244,0.181977,0.357398,0.237397
240,2588419811,0.261620,-0.790876,-0.176561,-0.524307,0.176768,0.310997,0.202015
241,2588453145,0.258184,-0.791970,-0.169353,-0.526731,0.139274,0.455962,0.223866
242,2588486479,0.255723,-0.792324,-0.163162,-0.529347,0.121034,0.401594,0.322962
243,2588519813,0.253893,-0.792365,-0.157843,-0.531774,0.139758,0.207929,0.102612
244,2588553147,0.252304,-0.792883,-0.153658,-0.532982,-0.215460,0.063762,-0.050009
245,2588586481,0.251088,-0.793523,-0.150531,-0.533496,-0.062239,0.089619,0.129952
246,2588619815,0.250991,-0.793479,-0.148927,-0.534058,0.078703,0.589918,0.230185
247,2588653149,0.251597,-0.793147,-0.148516,-0.534379,-0.033404,0.454700,0.294090
248,2588686483,0.252789,-0.792677,-0.149655,-0.534197,-0.037747,0.168075,0.002568
249,2588719817,0.254533,-0.791946,-0.151690,-0.533879,0.039916,0.177038,0.097966
250,2588753151,0.256861,-0.791124,-0.154818,-0.533084,0.002814,0.339885,0.119402
251,2588786485,0.259797,-0.790163,-0.159512,-0.531702,-0.129263,0.224105,0.141390
252,2588819819,0.263061,-0.789070,-0.164906,-0.530071,-0.104577,0.418022,0.161451
253,2588853153,0.266874,-0.788120,-0.171951,-0.527332,0.008827,0.186942,0.050415
254,2588886487,0.270447,-0.787429,-0.179896,-0.523882,0.018378,-0.149536,0.035106
255,2588919821,0.273765,-0.786829,-0.187245,-0.520474,0.112955,0.089196,0.112614
256,2588953155,0.276783,-0.786622,-0.194075,-0.516676,0.026898,0.238427,0.156562
257,2588986489,0.279625,-0.786571,-0.201354,-0.512420,-0.161385,0.459434,0.143891
258,2589019823,0.283147,-0.786226,-0.210437,-0.507341,-0.311436,0.549001,0.166928
259,2589053157,0.287461,-0.785062,-0.221122,-0.502146,-0.172143,0.695150,0.121151
260,2589086491,0.292616,-0.783224,-0.232898,-0.496685,-0.191491,0.689356,0.161040
261,2589119825,0.297823,-0.781004,-0.245456,-0.491007,-0.179604,0.425775,0.265368
262,2589153159,0.302535,-0.778568,-0.258079,-0.485491,-0.257368,0.431967,0.173702
263,2589186493,0.307913,-0.775506,-0.270907,-0.479990,-0.256225,0.403845,0.018983
264,2589219827,0.313214,-0.772277,-0.283918,-0.474213,-0.324301,0.388083,0.102419
265,2589253161,0.318528,-0.768572,-0.297658,-0.468230,-0.383304,0.318088,0.148119
266,2589286495,0.323852,-0.764302,-0.311685,-0.462402,-0.323069,0.234224,0.220984
267,2589319829,0.329786,-0.759289,-0.326148,-0.456455,-0.373174,0.116088,0.279360
268,2589353163,0.335975,-0.753675,-0.340873,-0.450447,-0.141227,-0.107861,0.135960
269,2589386497,0.342370,-0.747890,-0.355887,-0.443609,-0.016597,-0.037808,0.103905
270,2589419831,0.348020,-0.742207,-0.369776,-0.437354,0.131236,0.030268,0.330664
271,2589453165,0.352515,-0.736336,-0.382603,-0.432618,0.164822,-0.244190,0.444180
272,2589486499,0.356968,-0.729402,-0.394039,-0.430442,0.176974,-0.285949,0.181321
273,2589519833,0.361413,-0.722369,-0.405208,-0.428220,-0.004345,-0.496966,0.103696
274,2589553167,0.363395,-0.717127,-0.414257,-0.426691,-0.139548,-0.767191,0.343465
275,2589586501,0.364314,-0.712235,-0.420709,-0.427787,-0.102331,-0.849257,0.410111
276,2589619835,0.366016,-0.707185,-0.426853,-0.428626,-0.129677,-0.941699,0.066342
277,2589653169,0.366884,-0.703227,-0.432260,-0.428977,-0.231852,-1.224047,0.243735
278,2589686503,0.366753,-0.699808,-0.436832,-0.430047,-0.064565,-1.300611,0.222739
279,2589719837,0.366824,-0.696285,-0.440531,-0.431928,-0.032247,-0.925843,0.224036
280,2589753171,0.367200,-0.693699,-0.442645,-0.433605,0.220280,-0.536792,0.228360
281,2589786505,0.365820,-0.693057,-0.442850,-0.435584,0.322876,-0.291363,0.110975
282,2589819839,0.363577,-0.693465,-0.442125,-0.437545,0.150744,0.187434,-0.081587
283,2589853173,0.361739,-0.694110,-0.441550,-0.438624,-0.036403,0.381260,0.233208
284,2589886507,0.359365,-0.694853,-0.440693,-0.440258,0.034977,0.532630,0.352853
285,2589919841,0.356862,-0.695210,-0.440532,-0.441888,0.217477,0.787223,0.070012
286,2589953175,0.354387,-0.695513,-0.441027,-0.442910,0.445463,0.631142,0.174573
287,2589986509,0.351158,-0.696127,-0.440824,-0.444715,0.715282,0.202130,0.282978
288,2590019843,0.347575,-0.696992,-0.439676,-0.447303,0.707168,0.072778,0.233195
289,2590053177,0.344085,-0.698094,-0.438346,-0.449583,0.482543,-0.036199,0.275255
290,2590086511,0.340060,-0.699710,-0.436423,-0.451998,0.371683,-0.112141,0.285445
291,2590119845,0.335985,-0.701474,-0.433603,-0.455015,0.424057,-0.187917,0.176856
292,2590153179,0.332065,-0.703397,-0.430644,-0.457726,0.367674,-0.279584,0.185762
293,2590186513,0.327989,-0.705292,-0.427149,-0.461011,0.421324,-0.573765,0.139055
294,2590219847,0.323894,-0.707312,-0.422410,-0.465161,0.406346,-0.777008,0.231016
295,2590253181,0.319766,-0.709656,-0.416744,-0.469537,0.101754,-0.629629,0.206144
296,2590286515,0.315317,-0.712389,-0.410679,-0.473732,-0.217987,-0.430701,0.139678
297,2590319849,0.311037,-0.715133,-0.405006,-0.477296,-0.246769,-0.214772,0.136253
298,2590353183,0.307177,-0.717669,-0.399638,-0.480505,-0.219942,-0.206884,0.078562
299,2590386517,0.303884,-0.719968,-0.394595,-0.483319,-0.161459,-0.423161,0.243240
300,2590419851,0.300818,-0.721971,-0.389788,-0.486142,-0.040670,-0.589787,0.260868
301,2590453185,0.297865,-0.723821,-0.384289,-0.489574,-0.055217,-0.523642,0.042870
302,2590486519,0.295131,-0.725733,-0.378389,-0.492983,-0.281013,-0.433325,0.220762
303,2590519853,0.292789,-0.727538,-0.373035,-0.495791,-0.396727,-0.409483,0.399432
304,2590553187,0.290357,-0.729497,-0.368057,-0.498059,-0.387051,-0.320216,0.065379
305,2590586521,0.287858,-0.731635,-0.363043,-0.500050,-0.377197,-0.120701,-0.107113
306,2590619855,0.285822,-0.733607,-0.358085,-0.501900,-0.314615,-0.145272,0.225002
307,2590653189,0.284235,-0.735186,-0.354161,-0.503273,-0.082860,-0.178720,0.140908
308,2590686523,0.282206,-0.736790,-0.349688,-0.505194,-0.078089,0.019805,-0.226479
309,2590719857,0.280233,-0.738847,-0.344914,-0.506567,-0.004278,0.057309,0.372864
310,2590753191,0.277718,-0.741080,-0.340669,-0.507562,0.215818,0.166107,0.354773
311,2590786525,0.274337,-0.743590,-0.335647,-0.509074,0.364424,0.522568,-0.241182
312,2590819859,0.271378,-0.746225,-0.330472,-0.510189,0.360020,0.910004,0.050133
313,2590853193,0.268983,-0.747987,-0.325980,-0.511764,0.434601,1.088640,0.324095
314,2590886527,0.267411,-0.749260,-0.323601,-0.512235,0.467966,1.172339,0.074075
315,2590919861,0.266147,-0.750291,-0.322582,-0.512026,0.486642,1.134744,0.080067
316,2590953195,0.266229,-0.750187,-0.323478,-0.511571,0.341750,0.829727,0.144063
317,2590986529,0.267608,-0.749258,-0.326663,-0.510187,0.145866,0.525385,0.189464
318,2591019863,0.269436,-0.748093,-0.330873,-0.508219,0.102140,0.365006,0.067321
319,2591053197,0.271252,-0.747019,-0.335308,-0.505920,-0.135899,0.171673,0.072024
320,2591086531,0.273155,-0.745991,-0.340009,-0.503269,-0.384537,0.019544,0.280510
321,2591119865,0.275213,-0.744716,-0.345072,-0.500582,-0.311497,0.017986,0.100706
322,2591153199,0.277245,-0.743364,-0.350343,-0.497802,-0.343531,-0.182490,0.116425
323,2591186533,0.279768,-0.741779,-0.356175,-0.494606,-0.452728,-0.419389,0.176812
324,2591219867,0.282956,-0.739805,-0.362521,-0.491126,-0.296002,-0.379008,0.029288
325,2591253201,0.286170,-0.737749,-0.368818,-0.487655,-0.221930,-0.425275,0.120009
326,2591286535,0.289329,-0.735840,-0.375186,-0.483804,-0.343162,-0.539071,0.311197
327,2591319869,0.292915,-0.733597,-0.381617,-0.480007,-0.235052,-0.452127,0.126278
328,2591353203,0.297008,-0.730934,-0.387749,-0.476629,-0.106849,-0.452274,0.110088
329,2591386537,0.301725,-0.727998,-0.394430,-0.472661,0.003389,-0.559431,0.468190
330,2591419871,0.306313,-0.725076,-0.401153,-0.468524,0.143798,-0.607447,0.259804
331,2591453205,0.310599,-0.722395,-0.406632,-0.465109,0.202025,-0.526001,0.084897
332,2591486539,0.314746,-0.719923,-0.410764,-0.462515,0.257509,-0.309743,0.391570
333,2591519873,0.318378,-0.717584,-0.413860,-0.460902,0.412886,-0.248518,0.359455
334,2591553207,0.320972,-0.715906,-0.415962,-0.459817,0.385895,-0.151374,-0.073909
335,2591586541,0.322784,-0.715086,-0.416756,-0.459107,0.149343,-0.138522,-0.040751
336,2591619875,0.324215,-0.714800,-0.416546,-0.458734,0.026821,-0.092007,0.099184
337,2591653209,0.324824,-0.715359,-0.415148,-0.458699,0.084662,0.044951,0.070199
338,2591686543,0.324069,-0.717288,-0.412474,-0.458633,0.039874,-0.056441,0.056858
339,2591719877,0.322524,-0.719969,-0.409260,-0.458400,-0.007498,-0.271583,0.471155
340,2591753211,0.320945,-0.722237,-0.405651,-0.459149,0.320566,-0.391066,0.399023
341,2591786545,0.319409,-0.724333,-0.401132,-0.460885,0.486360,-0.490182,0.140959
342,2591819879,0.317256,-0.727391,-0.395182,-0.462692,0.356169,-0.681703,0.169613
343,2591853213,0.314048,-0.731428,-0.387433,-0.465063,0.156937,-0.630230,0.008937
344,2591886547,0.309582,-0.736233,-0.377779,-0.468406,-0.183563,-0.510624,0.047506
345,2591919881,0.305003,-0.741239,-0.367548,-0.471644,-0.469824,-0.490255,0.176388
346,2591953215,0.300802,-0.746345,-0.357580,-0.473947,-0.712618,-0.390025,0.088542
347,2591986549,0.296859,-0.751354,-0.347701,-0.475865,-0.284002,-0.201829,0.495050
348,2592019883,0.293397,-0.755188,-0.338456,-0.478600,0.418420,0.263469,0.781328
349,2592053217,0.291471,-0.757755,-0.330604,-0.481202,0.502483,0.357024,0.506788
350,2592086551,0.290508,-0.759352,-0.322603,-0.484685,0.558654,0.173352,0.229487
351,2592119885,0.289380,-0.760488,-0.313356,-0.489620,0.482729,0.064255,0.130657
352,2592153219,0.287299,-0.762290,-0.303528,-0.494212,-0.050440,0.116483,0.030761
353,2592186553,0.284281,-0.764822,-0.293729,-0.497952,-0.402683,0.370616,-0.149207
354,2592219887,0.282105,-0.767034,-0.285966,-0.500301,-0.265938,0.414861,0.020266
355,2592253221,0.281053,-0.768807,-0.280706,-0.501149,-0.209296,0.262834,0.308135
356,2592286555,0.279873,-0.770582,-0.276372,-0.501492,0.137238,0.055041,0.190402
357,2592319889,0.279081,-0.771918,-0.271328,-0.502633,0.277806,-0.183376,0.205112
358,2592353223,0.278093,-0.773305,-0.265110,-0.504363,0.292764,-0.208875,0.071468
359,2592386557,0.275504,-0.775805,-0.257565,-0.505852,-0.054653,-0.017821,-0.013642
360,2592419891,0.272744,-0.778397,-0.249871,-0.507222,-0.302622,0.256149,0.243865
361,2592453225,0.271559,-0.779944,-0.243694,-0.508486,-0.121480,0.533890,0.263857
362,2592486559,0.271299,-0.780803,-0.239447,-0.509324,-0.176429,0.291032,0.273086
363,2592519893,0.270689,-0.781569,-0.235665,-0.510236,-0.174731,-0.092983,0.119575
364,2592553227,0.269687,-0.782297,-0.230927,-0.511816,0.038948,-0.457299,0.079745
365,2592586561,0.268005,-0.783408,-0.224183,-0.513993,-0.229034,-0.028157,0.172845
366,2592619895,0.266153,-0.784713,-0.217300,-0.515916,-0.221503,0.245276,0.129375
367,2592653229,0.264600,-0.785618,-0.211709,-0.517660,-0.205805,0.458777,0.173327
368,2592686563,0.263773,-0.786133,-0.207681,-0.518930,-0.321333,0.559828,0.107211
369,2592719897,0.264619,-0.786079,-0.205931,-0.519279,-0.205364,0.511937,0.041809
370,2592753231,0.266297,-0.785625,-0.206402,-0.518921,0.068330,0.582382,0.041729
371,2592786565,0.268894,-0.784693,-0.209201,-0.517870,0.217235,0.562869,0.247720
372,2592819899,0.272181,-0.783264,-0.213193,-0.516687,0.368952,0.352124,0.241544
373,2592853233,0.275432,-0.781539,-0.217352,-0.515843,0.402579,0.110970,0.061404
374,2592886567,0.278031,-0.780179,-0.220929,-0.514988,0.017004,0.121102,0.097602
375,2592919901,0.280463,-0.779244,-0.224803,-0.513405,-0.284835,0.016147,0.143958
376,2592953235,0.282981,-0.778361,-0.229368,-0.511340,-0.307946,0.092177,0.176622
377,2592986569,0.286096,-0.777221,-0.234707,-0.508911,-0.022362,0.212406,0.127272
378,2593019903,0.289423,-0.776035,-0.240301,-0.506223,0.027015,0.277515,0.221186
379,2593053237,0.292021,-0.775418,-0.245866,-0.502993,-0.049449,0.208527,0.127886
380,2593086571,0.295149,-0.774303,-0.252168,-0.499755,0.074025,0.149479,0.160595
381,2593119905,0.298402,-0.772679,-0.258524,-0.497082,0.056152,0.336768,0.296005
382,2593153239,0.301386,-0.771224,-0.264868,-0.494194,-0.165188,0.255617,0.183246
383,2593186573,0.304551,-0.769681,-0.272086,-0.490725,-0.299198,0.299385,0.023994
384,2593219907,0.308374,-0.767644,-0.280261,-0.486912,-0.218810,0.474393,0.074360
385,2593253241,0.312992,-0.765087,-0.289919,-0.482314,-0.260353,0.592833,0.175270
386,2593286575,0.317542,-0.762472,-0.300875,-0.476739,-0.200420,0.237780,0.171017
387,2593319909,0.321966,-0.759669,-0.311702,-0.471258,0.185767,0.102400,0.078348
388,2593353243,0.326092,-0.756636,-0.321542,-0.466668,0.249396,0.172134,0.417063
389,2593386577,0.329240,-0.753885,-0.330189,-0.462856,-0.109923,0.073840,0.164268
390,2593419911,0.331229,-0.751938,-0.338376,-0.458673,-0.066995,-0.137949,0.047152
391,2593453245,0.332266,-0.750524,-0.345805,-0.454681,-0.114743,-0.012685,0.255571
392,2593486579,0.333352,-0.748517,-0.352608,-0.451961,-0.298724,0.041534,0.404974
393,2593519913,0.334524,-0.746326,-0.358948,-0.449721,0.059701,-0.279630,0.190629
394,2593553247,0.334560,-0.744883,-0.364290,-0.447787,0.156444,-0.201917,0.123309
395,2593586581,0.333807,-0.743975,-0.368270,-0.446602,0.001356,0.000234,0.208209
396,2593619915,0.333279,-0.742898,-0.372781,-0.445044,-0.501751,0.229014,0.255145
397,2593653249,0.333465,-0.741045,-0.378182,-0.443435,-0.412499,0.166997,0.057683
398,2593686583,0.334080,-0.738506,-0.384538,-0.441736,-0.427674,-0.087643,0.216885
399,2593719917,0.335479,-0.734715,-0.391179,-0.441168,-0.281691,-0.187645,0.138638
400,2593753251,0.337056,-0.730957,-0.398355,-0.439784,-0.139883,-0.270610,0.112888
401,2593786585,0.337586,-0.727825,-0.404384,-0.439070,-0.058942,-0.516927,0.399610
402,2593819919,0.338240,-0.724574,-0.410639,-0.438136,0.069795,-0.620047,0.208704
403,2593853253,0.338854,-0.721555,-0.416718,-0.436903,0.041573,-0.420525,0.183384
404,2593886587,0.339186,-0.718814,-0.421278,-0.436790,0.268901,-0.218488,0.260872
405,2593919921,0.338748,-0.716474,-0.424343,-0.438007,0.338644,-0.250650,0.265717
406,2593953255,0.337907,-0.714666,-0.426685,-0.439331,0.412255,-0.426190,0.082369
407,2593986589,0.336918,-0.713486,-0.428247,-0.440488,0.485153,-0.486226,0.168632
408,2594019923,0.334972,-0.712917,-0.427400,-0.443704,0.512451,-0.437490,0.255128
409,2594053257,0.332550,-0.712877,-0.425093,-0.447789,0.304043,-0.250685,0.182467
410,2594086591,0.329826,-0.713558,-0.422600,-0.451066,0.084796,-0.137639,0.243937
411,2594119925,0.326730,-0.714824,-0.420189,-0.453560,0.058261,-0.015301,0.089873
412,2594153259,0.323629,-0.716431,-0.417571,-0.455661,0.073591,0.101743,0.020305
413,2594186593,0.320841,-0.717980,-0.415516,-0.457071,0.233703,0.174583,0.391117
414,2594219927,0.318181,-0.719367,-0.414096,-0.458037,0.454436,0.118834,0.254675
415,2594253261,0.315143,-0.721205,-0.412092,-0.459054,0.581771,-0.251953,0.141365
416,2594286595,0.312025,-0.723246,-0.408940,-0.460789,0.533509,-0.397222,0.349153
417,2594319929,0.308716,-0.725139,-0.404818,-0.463671,0.350299,-0.424540,0.360747
418,2594353263,0.304885,-0.727386,-0.399469,-0.467312,0.173470,-0.336958,0.138301
419,2594386597,0.300905,-0.730010,-0.393684,-0.470698,-0.046474,-0.241896,0.145004
420,2594419931,0.297434,-0.732213,-0.388277,-0.473961,-0.122005,-0.290321,0.193169
421,2594453265,0.294412,-0.733825,-0.383029,-0.477611,-0.250583,-0.465297,0.214032
422,2594486599,0.291907,-0.735147,-0.378013,-0.481100,-0.384015,-0.472016,0.244556
423,2594519933,0.289458,-0.736488,-0.373101,-0.484352,-0.427757,-0.319662,0.172799
424,2594553267,0.286644,-0.738151,-0.367800,-0.487539,-0.307894,-0.326456,0.066098
425,2594586601,0.283866,-0.739847,-0.362161,-0.490803,-0.195482,-0.475742,0.130235
426,2594619935,0.280996,-0.741594,-0.355848,-0.494422,-0.147482,-0.240949,0.140778
427,2594653269,0.277588,-0.743708,-0.348868,-0.498132,-0.241538,0.165922,-0.117862
428,2594686603,0.273980,-0.746220,-0.342136,-0.501034,-0.215961,0.319007,-0.121428
429,2594719937,0.270129,-0.748694,-0.336030,-0.503561,-0.012151,0.194292,0.179074
430,2594753271,0.267151,-0.750293,-0.330968,-0.506115,0.073228,0.329008,0.306686
431,2594786605,0.265040,-0.751326,-0.326888,-0.508340,0.195750,0.445171,0.315992
432,2594819939,0.262503,-0.752547,-0.322394,-0.510715,0.330755,0.488303,0.031270
433,2594853273,0.259338,-0.754273,-0.317369,-0.512928,0.466698,0.538083,-0.038117
434,2594886607,0.256409,-0.755675,-0.313131,-0.514938,0.269906,0.598510,0.079135
435,2594919941,0.254381,-0.756224,-0.310855,-0.516514,0.022234,0.675216,0.099090
436,2594953275,0.253809,-0.755978,-0.310590,-0.517314,-0.037470,0.627969,0.090097
437,2594986609,0.254190,-0.755463,-0.312403,-0.516788,0.063760,0.340849,0.176200
438,2595019943,0.254797,-0.754870,-0.315279,-0.515607,-0.051416,-0.064065,0.251992
439,2595053277,0.255547,-0.754214,-0.318243,-0.514374,-0.170799,-0.222845,0.204408
440,2595086611,0.256729,-0.753336,-0.321214,-0.513224,-0.073337,0.051546,-0.091269
441,2595119945,0.258760,-0.752334,-0.325334,-0.511073,-0.176608,0.038685,0.102277
442,2595153279,0.260909,-0.751365,-0.330171,-0.508296,-0.285663,-0.113068,0.197815
443,2595186613,0.263657,-0.749964,-0.335588,-0.505392,-0.252110,0.112948,0.068768
444,2595219947,0.267242,-0.748201,-0.342252,-0.501640,-0.135798,0.155644,0.316698
445,2595253281,0.270736,-0.746118,-0.349495,-0.497859,-0.058262,0.034474,0.282906
446,2595286615,0.274596,-0.743608,-0.356662,-0.494408,0.061740,-0.009716,0.128875
447,2595319949,0.278312,-0.741485,-0.363540,-0.490494,0.145966,-0.306703,0.366891
448,2595353283,0.280973,-0.739457,-0.369561,-0.487529,0.055119,-0.463985,0.057556
449,2595386617,0.284289,-0.737084,-0.374814,-0.485183,-0.049237,-0.121776,-0.009438
450,2595419951,0.288135,-0.734621,-0.380115,-0.482520,-0.105283,0.121425,0.486328
451,2595453285,0.290800,-0.732476,-0.385949,-0.479541,-0.033049,0.102342,0.391415
452,2595486619,0.292986,-0.730764,-0.391513,-0.476300,0.035823,0.099161,-0.009326
453,2595519953,0.295154,-0.729063,-0.396641,-0.473317,0.110802,0.007093,0.023449
454,2595553287,0.297486,-0.726861,-0.401467,-0.471171,0.175725,-0.148103,0.416949
455,2595586621,0.299863,-0.724184,-0.405574,-0.470268,0.285156,-0.131805,0.329329
456,2595619955,0.301793,-0.721991,-0.408780,-0.469628,0.329762,-0.163626,0.135917
457,2595653289,0.302473,-0.720785,-0.410811,-0.469272,0.029304,-0.203522,0.354623
458,2595686623,0.302513,-0.720071,-0.412208,-0.469116,-0.127330,-0.200610,0.229685
459,2595719957,0.302267,-0.719691,-0.412777,-0.469358,-0.118723,-0.069044,0.070178
460,2595753291,0.301520,-0.719726,-0.412560,-0.469974,0.154553,-0.289277,0.056387
461,2595786625,0.300222,-0.720182,-0.411342,-0.471173,0.264019,-0.614506,0.073411
462,2595819959,0.298589,-0.721227,-0.408807,-0.472816,0.213457,-0.564946,0.287995
463,2595853293,0.296197,-0.722986,-0.404914,-0.474979,0.309516,-0.465060,0.369939
464,2595886627,0.292695,-0.725539,-0.399257,-0.478036,0.355450,-0.504391,0.278502
465,2595919961,0.288780,-0.728333,-0.392655,-0.481623,0.023159,-0.162953,0.129053
466,2595953295,0.285284,-0.730627,-0.386561,-0.485150,-0.107564,-0.021368,0.138790
467,2595986629,0.282047,-0.732563,-0.380394,-0.488982,-0.038832,-0.111385,0.221135
468,2596019963,0.278896,-0.734255,-0.374158,-0.493046,-0.039086,-0.109697,0.126502
469,2596053297,0.276188,-0.735810,-0.368694,-0.496357,-0.210142,-0.100366,0.167062
470,2596086631,0.273809,-0.736850,-0.363848,-0.499697,-0.227987,-0.099023,0.087993
471,2596119965,0.272145,-0.737443,-0.359655,-0.502757,-0.219849,-0.100390,0.397786
472,2596153299,0.270821,-0.737892,-0.356198,-0.505269,-0.154742,-0.097866,0.100881
473,2596186633,0.269221,-0.738421,-0.352145,-0.508182,0.027823,-0.330099,-0.064959
474,2596219967,0.267539,-0.739293,-0.347710,-0.510851,-0.057396,-0.563869,0.253594
475,2596253301,0.265707,-0.740281,-0.342854,-0.513650,-0.019257,-0.347935,0.076999
476,2596286635,0.263717,-0.741660,-0.337125,-0.516471,0.008857,-0.172022,-0.044765
477,2596319969,0.261708,-0.743326,-0.331274,-0.518878,0.098777,-0.021663,0.149760
478,2596353303,0.260024,-0.744845,-0.325761,-0.521032,0.164275,0.001853,0.206482
479,2596386637,0.258229,-0.746513,-0.320263,-0.522943,0.134154,0.027691,0.238194
480,2596419971,0.256594,-0.748329,-0.315005,-0.524344,0.219370,0.183808,0.055564
481,2596453305,0.255453,-0.750136,-0.310626,-0.524931,0.179835,0.232286,0.101444
482,2596486639,0.254893,-0.751444,-0.307436,-0.525212,0.154575,0.405007,0.037651
483,2596519973,0.255063,-0.752325,-0.305244,-0.525146,0.176709,0.605606,-0.005071
484,2596553307,0.255821,-0.753145,-0.304255,-0.524174,0.136987,0.519153,0.124801
485,2596586641,0.257125,-0.753569,-0.304260,-0.522923,0.228783,0.353026,0.170666
486,2596619975,0.258990,-0.753741,-0.304841,-0.521414,0.117380,0.292850,0.188998
487,2596653309,0.261245,-0.753790,-0.305981,-0.519547,0.006967,0.097685,0.311642
488,2596686643,0.263626,-0.753706,-0.307355,-0.517653,0.066734,-0.120599,0.212352
489,2596719977,0.265947,-0.754101,-0.308385,-0.515271,0.252633,-0.256426,-0.086749
490,2596753311,0.267545,-0.755641,-0.308336,-0.512209,0.188149,-0.317727,0.136622
491,2596786645,0.268409,-0.757855,-0.307773,-0.508812,-0.118243,-0.192295,0.013829
492,2596819979,0.269347,-0.760064,-0.307852,-0.504960,-0.218957,0.203432,-0.026694
493,2596853313,0.271788,-0.761750,-0.309448,-0.500112,-0.095815,0.259475,0.517194
494,2596886647,0.275103,-0.762397,-0.312150,-0.495615,0.446898,0.002104,0.851514
495,2596919981,0.278286,-0.761982,-0.314611,-0.492912,0.873968,-0.225408,0.404088
496,2596953315,0.280301,-0.762138,-0.314752,-0.491437,0.382767,-0.425067,-0.040058
497,2596986649,0.280658,-0.763682,-0.311803,-0.490716,-0.259538,-0.552471,0.057681
498,2597019983,0.279894,-0.765580,-0.307151,-0.491127,-0.450320,-0.330522,0.039431
499,2597053317,0.279367,-0.767049,-0.302893,-0.491780,-0.280740,-0.064506,0.179476
500,2597086651,0.279240,-0.768488,-0.299115,-0.491918,-0.258851,-0.184365,0.452676
501,2597119985,0.279453,-0.769859,-0.295140,-0.492053,-0.029285,-0.322316,0.315324
502,2597153319,0.279702,-0.771118,-0.290682,-0.492595,0.236958,-0.240075,0.112856
503,2597186653,0.279227,-0.772788,-0.285484,-0.493287,0.021763,-0.317411,0.099219
504,2597219987,0.277643,-0.775209,-0.278885,-0.494157,-0.082215,-0.211395,0.181586
505,2597253321,0.276092,-0.777587,-0.271574,-0.495359,-0.055445,-0.153460,0.272820
506,2597286655,0.274575,-0.779666,-0.264355,-0.496838,-0.192573,-0.151683,0.303084
507,2597319989,0.273333,-0.781288,-0.257086,-0.498785,-0.108095,0.058502,0.178610
508,2597353323,0.272363,-0.782699,-0.249747,-0.500829,-0.035418,0.112581,0.067898
509,2597386657,0.271066,-0.784259,-0.241943,-0.502918,-0.244090,-0.061565,0.144279
510,2597419991,0.268736,-0.785854,-0.233171,-0.505813,-0.258665,0.039843,0.144092
511,2597453325,0.266645,-0.787264,-0.224293,-0.508733,-0.250653,0.104826,0.163484
512,2597486659,0.265098,-0.788512,-0.216131,-0.511137,-0.158689,0.283067,0.176421
513,2597519993,0.263680,-0.789423,-0.209083,-0.513390,0.045784,0.558094,0.115401
514,2597553327,0.262853,-0.789990,-0.204136,-0.514931,0.084849,0.391251,0.100651
515,2597586661,0.261815,-0.790609,-0.199466,-0.516339,0.104543,0.335962,0.092292
516,2597619995,0.261663,-0.790819,-0.195779,-0.517505,0.113451,0.504628,0.160695
517,2597653329,0.261927,-0.791190,-0.193630,-0.517612,-0.121125,0.424108,0.111333
518,2597686663,0.262658,-0.791549,-0.193037,-0.516914,-0.183031,0.315082,0.119585
519,2597719997,0.264164,-0.791476,-0.193757,-0.515987,-0.061965,0.365339,0.068455
520,2597753331,0.266251,-0.791311,-0.195857,-0.514373,-0.134834,0.451302,0.109495
521,2597786665,0.268886,-0.791067,-0.199346,-0.512031,-0.150671,0.273252,0.179010
522,2597819999,0.272039,-0.790273,-0.203813,-0.509829,0.006397,0.251315,0.274919
523,2597853333,0.275464,-0.789081,-0.208949,-0.507752,0.097745,0.286581,0.153665
524,2597886667,0.278614,-0.788130,-0.214174,-0.505329,-0.108361,0.145799,0.107875
525,2597920001,0.281296,-0.787374,-0.219208,-0.502857,-0.098584,0.226842,0.140706
526,2597953335,0.284059,-0.786323,-0.224399,-0.500654,-0.039363,0.353763,0.234946
527,2597986669,0.287013,-0.785172,-0.230615,-0.497943,-0.105622,0.244855,0.223273
528,2598020003,0.289891,-0.784107,-0.237193,-0.494855,-0.245117,0.149756,0.111012
529,2598053337,0.292605,-0.782960,-0.243695,-0.491905,-0.083649,0.050280,0.178101
530,2598086671,0.294822,-0.781844,-0.250002,-0.489184,0.038634,0.167471,0.178656
531,2598120005,0.296872,-0.780780,-0.256298,-0.486378,-0.021766,0.384345,0.160897
532,2598153339,0.299170,-0.779582,-0.262987,-0.483311,-0.140559,0.338646,0.253573
533,2598186673,0.301410,-0.778028,-0.269897,-0.480606,-0.218105,0.309233,0.241048
534,2598220007,0.303618,-0.775975,-0.277038,-0.478466,-0.084266,0.252851,0.176328
535,2598253341,0.305400,-0.774077,-0.283919,-0.476370,-0.285503,0.173635,0.143209
536,2598286675,0.306640,-0.772538,-0.290334,-0.474200,-0.216536,0.080047,0.151293
537,2598320009,0.307504,-0.770769,-0.296353,-0.472792,-0.160968,0.116894,0.150103
538,2598353343,0.308103,-0.768625,-0.301995,-0.472323,-0.013214,0.065843,0.153275
539,2598386677,0.308286,-0.766667,-0.307244,-0.472000,-0.241619,0.221914,0.169866
540,2598420011,0.308458,-0.764916,-0.312907,-0.471007,-0.350063,-0.025860,0.168709
541,2598453345,0.308927,-0.762826,-0.319000,-0.470002,-0.387677,0.013614,0.139829
542,2598486679,0.309424,-0.760262,-0.325167,-0.469603,-0.260774,-0.027580,0.112983
543,2598520013,0.310579,-0.757074,-0.332194,-0.469071,-0.273322,-0.104187,0.222852
544,2598553347,0.311798,-0.753970,-0.339416,-0.468092,-0.089362,-0.080064,0.205297
545,2598586681,0.312211,-0.751118,-0.345756,-0.467761,-0.014930,-0.269432,0.257635
546,2598620015,0.312727,-0.748031,-0.351920,-0.467767,-0.074073,-0.364778,0.166885
547,2598653349,0.314060,-0.744583,-0.358385,-0.467466,-0.351556,-0.012538,0.028321
548,2598686683,0.315066,-0.741111,-0.364850,-0.467305,-0.337276,0.156524,0.117870
549,2598720017,0.316415,-0.736904,-0.372274,-0.467191,-0.171704,0.129028,0.430631
550,2598753351,0.319247,-0.731298,-0.382014,-0.466211,-0.065183,-0.001624,0.344712
551,2598786685,0.323830,-0.724831,-0.393375,-0.463694,0.017407,-0.174320,0.280887
552,2598820019,0.327966,-0.718471,-0.404280,-0.461299,0.177328,-0.631120,0.257615
553,2598853353,0.330239,-0.712969,-0.411823,-0.461541,0.541931,-1.003320,0.374641
554,2598886687,0.331407,-0.708610,-0.415678,-0.463955,0.782007,-0.798273,0.338078
555,2598920021,0.331198,-0.705625,-0.417147,-0.467325,0.644233,-0.673688,0.066245
556,2598953355,0.329780,-0.704207,-0.416828,-0.470738,0.130142,-0.519347,0.022392
557,2598986689,0.328160,-0.703812,-0.416131,-0.473071,-0.421634,-0.150085,0.121233
558,2599020023,0.326821,-0.703285,-0.416566,-0.474397,-0.432267,0.174572,-0.070101
559,2599053357,0.325538,-0.702723,-0.417749,-0.475071,-0.192637,0.338621,-0.077932
560,2599086691,0.324932,-0.701875,-0.419775,-0.474954,0.125795,0.252037,0.084482
561,2599120025,0.324568,-0.700913,-0.422801,-0.473937,0.574380,0.088066,0.122021
562,2599153359,0.323790,-0.700172,-0.425262,-0.473364,0.692082,-0.005360,0.311314
563,2599186693,0.322947,-0.699822,-0.426694,-0.473169,0.772637,0.153035,0.469588
564,2599220027,0.321451,-0.699907,-0.426979,-0.473805,0.784352,0.240951,0.261843
565,2599253361,0.319245,-0.700538,-0.426711,-0.474604,0.522433,0.062142,0.209516
566,2599286695,0.317471,-0.700860,-0.426695,-0.475332,0.298312,-0.177653,0.257300
567,2599320029,0.316468,-0.700612,-0.426896,-0.476185,0.311367,-0.275150,0.452229
568,2599353363,0.315344,-0.700523,-0.426870,-0.477085,0.449749,-0.310297,0.321256
569,2599386697,0.313412,-0.701340,-0.425800,-0.478112,0.495529,-0.338720,0.092872
570,2599420031,0.310758,-0.703134,-0.423223,-0.479496,0.411935,-0.305474,0.163080
571,2599453365,0.307746,-0.705306,-0.419463,-0.481549,0.238360,-0.239525,0.097157
572,2599486699,0.304548,-0.707487,-0.414719,-0.484482,0.127163,-0.310916,0.154250
573,2599520033,0.301064,-0.709709,-0.408979,-0.488274,0.062927,-0.428693,0.250401
574,2599553367,0.297587,-0.711998,-0.402909,-0.492106,-0.024467,-0.399292,0.284861
575,2599586701,0.294211,-0.714315,-0.397108,-0.495481,-0.156005,-0.435186,0.249442
576,2599620035,0.290950,-0.716467,-0.391633,-0.498647,-0.285255,-0.342635,0.187192
577,2599653369,0.287992,-0.718382,-0.386060,-0.501943,-0.261409,-0.232845,0.094168
578,2599686703,0.284940,-0.720379,-0.379761,-0.505614,-0.083333,-0.319111,0.162791
579,2599720037,0.281477,-0.722667,-0.373088,-0.509245,-0.139705,-0.297575,0.271277
580,2599753371,0.277763,-0.725185,-0.366262,-0.512648,-0.323752,-0.124314,0.030874
581,2599786705,0.274047,-0.727629,-0.359370,-0.516051,-0.251480,-0.009251,0.081876
582,2599820039,0.270705,-0.729626,-0.353138,-0.519288,-0.197607,-0.020434,0.147393
583,2599853373,0.268172,-0.731307,-0.348203,-0.521565,-0.190034,0.096319,0.158847
584,2599886707,0.266038,-0.733140,-0.344404,-0.522606,0.086875,0.263863,0.000080
585,2599920041,0.263527,-0.735178,-0.340488,-0.523581,0.261200,0.238704,0.015021
586,2599953375,0.261165,-0.736929,-0.336394,-0.524946,0.225362,0.144752,0.189383
587,2599986709,0.259774,-0.737932,-0.333090,-0.526333,0.186760,0.270177,0.396666
588,2600020043,0.258773,-0.738489,-0.330553,-0.527643,0.201920,0.310865,0.158330
589,2600053377,0.257988,-0.738933,-0.328829,-0.528483,0.150884,0.287988,0.055232
590,2600086711,0.257502,-0.739154,-0.327991,-0.528930,0.010549,0.407868,0.046540
591,2600120045,0.257576,-0.738971,-0.328047,-0.529116,0.042248,0.640596,-0.062186
592,2600153379,0.258088,-0.738771,-0.329328,-0.528349,-0.110776,0.692882,-0.059875
593,2600186713,0.258964,-0.738368,-0.331678,-0.527011,-0.227160,0.491864,0.131792
594,2600220047,0.260650,-0.737368,-0.335232,-0.525330,-0.030997,0.376541,0.095335
595,2600253381,0.263043,-0.735811,-0.339810,-0.523375,0.107116,0.271675,0.052753
596,2600286715,0.265461,-0.734248,-0.344670,-0.521167,0.056552,-0.016143,0.160405
597,2600320049,0.267882,-0.732807,-0.349466,-0.518757,-0.080216,-0.022217,0.196516
598,2600353383,0.270691,-0.731329,-0.354965,-0.515642,-0.079728,0.134710,0.201993
599,2600386717,0.273476,-0.729791,-0.361131,-0.512057,-0.093476,0.033863,0.175895
600,2600420051,0.276396,-0.728009,-0.367329,-0.508605,-0.115471,-0.193168,0.238160
601,2600453385,0.279747,-0.725966,-0.373711,-0.505032,0.027554,-0.139141,0.158981
602,2600486719,0.282682,-0.724285,-0.379678,-0.501347,0.180377,-0.206828,0.147440
603,2600520053,0.284781,-0.723406,-0.384792,-0.497514,0.239187,-0.333333,0.277207
604,2600553387,0.286203,-0.722921,-0.388698,-0.494358,0.226248,-0.245343,0.335680
605,2600586721,0.287938,-0.722052,-0.392457,-0.491642,0.033136,0.033613,0.207500
606,2600620055,0.290287,-0.720790,-0.397121,-0.488357,-0.176077,-0.070892,0.183580
607,2600653389,0.292846,-0.719254,-0.402187,-0.484935,-0.260147,-0.232901,0.018663
608,2600686723,0.295968,-0.717571,-0.407273,-0.481274,-0.189949,-0.309422,0.012089
609,2600720057,0.299191,-0.715951,-0.412618,-0.477124,-0.100437,-0.479162,0.292838
610,2600753391,0.302490,-0.714114,-0.418175,-0.472941,0.042044,-0.603228,0.233967
611,2600786725,0.306192,-0.711952,-0.423123,-0.469403,0.205585,-0.647971,-0.059587
612,2600820059,0.309698,-0.710157,-0.426666,-0.466607,0.249120,-0.676472,0.271074
613,2600853393,0.312405,-0.709066,-0.428710,-0.464584,0.241852,-0.419422,0.499434
614,2600886727,0.314169,-0.708496,-0.429482,-0.463549,0.354202,-0.270555,0.118898
615,2600920061,0.315250,-0.708641,-0.428847,-0.463181,0.191578,-0.247854,0.067824
616,2600953395,0.316477,-0.708986,-0.427907,-0.462687,0.012483,-0.019665,0.457461
617,2600986729,0.317569,-0.709214,-0.426997,-0.462429,0.271390,0.116470,0.132206
618,2601020063,0.317619,-0.710120,-0.424959,-0.462881,0.500470,-0.060645,-0.006907
619,2601053397,0.317060,-0.711700,-0.421758,-0.463765,0.470085,-0.333050,0.386556
620,2601086731,0.315713,-0.713896,-0.416701,-0.465875,0.384599,-0.298292,0.306049
621,2601120065,0.313357,-0.716863,-0.409920,-0.468916,0.462349,-0.320265,0.130280
622,2601153399,0.309890,-0.720763,-0.401546,-0.472475,0.290430,-0.477940,0.367116
623,2601186733,0.305655,-0.725199,-0.391783,-0.476623,0.004070,-0.345857,0.259499
624,2601220067,0.301295,-0.729813,-0.381351,-0.480799,-0.042379,0.047364,-0.056537
625,2601253401,0.296767,-0.734468,-0.371053,-0.484569,-0.117018,0.259257,0.134483
626,2601286735,0.293091,-0.738505,-0.362286,-0.487297,-0.197122,0.302013,0.450673
627,2601320069,0.290594,-0.741535,-0.355174,-0.489423,0.045020,0.282132,0.301969
628,2601353403,0.288506,-0.743916,-0.348585,-0.491776,0.283284,0.061367,0.224065
629,2601386737,0.286563,-0.746169,-0.341660,-0.494352,0.288945,-0.369088,0.249110
630,2601420071,0.283979,-0.748767,-0.333382,-0.497555,0.143542,-0.570933,0.049416
631,2601453405,0.280243,-0.751978,-0.322801,-0.501791,-0.051645,-0.512323,-0.043563
632,2601486739,0.275477,-0.755802,-0.310552,-0.506394,-0.332715,-0.340970,0.115340
633,2601520073,0.270502,-0.759830,-0.298206,-0.510454,-0.558894,0.167678,0.060538
634,2601553407,0.266623,-0.763443,-0.287791,-0.513074,-0.522193,0.605351,0.039565
635,2601586741,0.264315,-0.766176,-0.280323,-0.514328,-0.327635,0.626051,0.121363
636,2601620075,0.263663,-0.767600,-0.276004,-0.514874,-0.147080,0.426125,0.193686
637,2601653409,0.264917,-0.767781,-0.274454,-0.514790,0.225984,0.201234,0.420119
638,2601686743,0.266660,-0.767637,-0.273446,-0.514641,0.324071,0.058410,0.200306
639,2601720077,0.267902,-0.768258,-0.271171,-0.514272,0.274534,-0.069104,0.055738
640,2601753411,0.268441,-0.769406,-0.267882,-0.513999,0.177351,0.091016,0.091349
641,2601786745,0.269446,-0.770189,-0.264974,-0.513807,0.009046,0.469445,-0.009971
642,2601820079,0.271209,-0.770802,-0.263808,-0.512559,-0.167620,0.310854,0.156857
643,2601853413,0.273447,-0.771514,-0.264109,-0.510139,-0.603842,0.136836,0.056764
644,2601886747,0.276796,-0.771772,-0.264966,-0.507491,-0.472883,0.303037,0.425048
645,2601920081,0.280492,-0.770707,-0.265852,-0.506615,1.005609,0.052610,0.409492
646,2601953415,0.283218,-0.770174,-0.265452,-0.506119,0.214226,0.143104,0.035526
647,2601986749,0.285838,-0.770400,-0.264177,-0.504968,-0.444797,0.116764,0.000369
648,2602020083,0.288072,-0.770827,-0.264256,-0.503001,-0.314570,-0.076735,-0.117570
649,2602053417,0.290593,-0.769936,-0.265595,-0.502210,0.058280,-0.080723,0.028098
650,2602086751,0.293400,-0.769043,-0.266696,-0.501363,0.062507,0.227079,0.643765
651,2602120085,0.295233,-0.769442,-0.268008,-0.498969,-0.305690,-0.475074,0.228568
652,2602153419,0.296031,-0.770116,-0.268353,-0.497269,-0.159695,-0.553232,0.017122
653,2602186753,0.297294,-0.770043,-0.266972,-0.497370,0.362195,-0.254789,0.274754
654,2602220087,0.297905,-0.769896,-0.264214,-0.498705,0.424421,-0.060903,0.421110
655,2602253421,0.296860,-0.770637,-0.259692,-0.500555,0.134755,-0.285220,0.197815
656,2602286755,0.294957,-0.772038,-0.253897,-0.502489,-0.004249,-0.023000,0.103332
657,2602320089,0.292972,-0.773035,-0.247766,-0.505172,-0.064792,0.190092,0.280751
658,2602353423,0.291462,-0.773943,-0.242123,-0.507386,-0.563308,-0.029673,0.181734
659,2602386757,0.289391,-0.775898,-0.237157,-0.507931,-0.572530,-0.316104,-0.068725
660,2602420091,0.287210,-0.778063,-0.232252,-0.508123,0.100614,0.028223,0.195392
661,2602453425,0.285936,-0.779328,-0.227040,-0.509257,0.435733,0.554303,0.400633
662,2602486759,0.285032,-0.780221,-0.222116,-0.510567,0.064365,0.381279,0.249475
663,2602520093,0.282757,-0.781643,-0.217161,-0.511787,-0.117344,-0.147064,0.000883
664,2602553427,0.279535,-0.783235,-0.211523,-0.513481,0.215458,0.051972,0.066496
665,2602586761,0.277748,-0.784402,-0.206599,-0.514674,0.173935,0.460781,0.346469
666,2602620095,0.275660,-0.785768,-0.202226,-0.515447,-0.119103,0.349555,0.262387
667,2602653429,0.274034,-0.786421,-0.198542,-0.516750,0.003942,0.376947,0.136240
668,2602686763,0.272860,-0.786585,-0.195922,-0.518120,0.156162,0.115743,0.155041
669,2602720097,0.271954,-0.786899,-0.193829,-0.518906,-0.158319,0.053817,-0.005086
670,2602753431,0.271625,-0.787128,-0.192600,-0.519188,-0.226257,0.419703,0.060959
671,2602786765,0.272787,-0.786652,-0.194055,-0.518758,-0.169193,0.478252,0.129873
672,2602820099,0.275035,-0.786079,-0.197881,-0.516992,-0.211477,0.207896,0.192655
673,2602853433,0.277800,-0.785303,-0.202890,-0.514747,0.019202,-0.005886,0.103215
674,2602886767,0.280466,-0.784651,-0.208322,-0.512119,-0.065858,-0.014016,0.128605
675,2602920101,0.282400,-0.784748,-0.213285,-0.508854,-0.165605,0.014249,0.113051
676,2602953435,0.284049,-0.784920,-0.217820,-0.505741,-0.085040,0.236979,0.165142
677,2602986769,0.286473,-0.784304,-0.223217,-0.502968,-0.103183,0.509842,0.189131
678,2603020103,0.289703,-0.783216,-0.230062,-0.499718,-0.240502,0.616111,0.218989
679,2603053437,0.293093,-0.782037,-0.238300,-0.495710,-0.163604,0.473993,0.120735
680,2603086771,0.296678,-0.780472,-0.247258,-0.491641,-0.170082,0.600961,0.094488
681,2603120105,0.300718,-0.778540,-0.257244,-0.487104,-0.203217,0.585351,0.152179
682,2603153439,0.304771,-0.776332,-0.268407,-0.482061,-0.231699,0.560646,0.166585
683,2603186773,0.308783,-0.773617,-0.280096,-0.477198,-0.137500,0.515805,0.171322
684,2603220107,0.313375,-0.770254,-0.292467,-0.472196,-0.251595,0.315518,0.231232
685,2603253441,0.317292,-0.766851,-0.304336,-0.467597,-0.422193,0.364895,0.205616
686,2603286775,0.321586,-0.762862,-0.316294,-0.463232,-0.290018,0.298431,0.127544
687,2603320109,0.326422,-0.757904,-0.329113,-0.459039,-0.083341,0.152806,0.259136
688,2603353443,0.331046,-0.752611,-0.342273,-0.454791,-0.170688,-0.133260,0.192598
689,2603386777,0.335968,-0.746656,-0.354529,-0.451598,-0.358395,-0.266551,0.215802
690,2603420111,0.341352,-0.740172,-0.366755,-0.448460,-0.148007,-0.497836,0.214809
691,2603453445,0.345259,-0.734241,-0.377876,-0.445980,0.037832,-0.565489,0.179239
692,2603486779,0.348497,-0.728573,-0.387661,-0.444356,-0.115386,-0.493440,0.246806
693,2603520113,0.351292,-0.723305,-0.396176,-0.443249,-0.307551,-0.548687,0.254516
694,2603553447,0.352707,-0.719047,-0.403468,-0.442477,-0.231196,-0.756680,0.179413
695,2603586781,0.353523,-0.715328,-0.409806,-0.442027,0.045711,-0.621281,0.116559
696,2603620115,0.354231,-0.712394,-0.415509,-0.440873,0.168770,-0.317121,0.076555
697,2603653449,0.353505,-0.710723,-0.419984,-0.439912,-0.016186,-0.136294,0.490182
698,2603686783,0.353252,-0.708435,-0.423747,-0.440196,0.369148,-0.045797,0.451113
699,2603720117,0.352889,-0.706258,-0.427358,-0.440494,0.729111,-0.052370,0.176235
700,2603753451,0.351794,-0.704714,-0.429780,-0.441486,0.618359,-0.318818,0.161998
701,2603786785,0.349932,-0.703950,-0.430764,-0.443223,0.351305,-0.356960,0.152518
702,2603820119,0.347625,-0.703720,-0.430712,-0.445448,0.180589,-0.193983,0.031328
703,2603853453,0.344829,-0.704204,-0.429734,-0.447794,0.139189,-0.136399,0.112331
704,2603886787,0.341391,-0.705353,-0.427805,-0.450460,0.155278,-0.058431,0.212215
705,2603920121,0.337365,-0.706895,-0.425317,-0.453422,0.281420,-0.173009,0.343623
706,2603953455,0.333167,-0.708668,-0.422291,-0.456577,0.436472,-0.269461,0.269168
707,2603986789,0.328855,-0.710789,-0.418408,-0.459968,0.461302,-0.287993,0.163387
708,2604020123,0.324141,-0.713240,-0.413396,-0.464033,0.376598,-0.318025,0.129248
709,2604053457,0.319338,-0.715764,-0.407792,-0.468416,0.174797,-0.077685,0.340494
710,2604086791,0.314765,-0.717951,-0.402063,-0.473093,0.139546,0.014395,0.273999
711,2604120125,0.310221,-0.720007,-0.396399,-0.477726,0.135037,-0.063705,0.080064
712,2604153459,0.305789,-0.722031,-0.390487,-0.482376,-0.025872,-0.364017,0.200865
713,2604186793,0.301792,-0.723669,-0.384251,-0.487419,0.000576,-0.389291,0.255107
714,2604220127,0.297685,-0.725316,-0.377527,-0.492723,0.050639,-0.249171,0.043724
715,2604253461,0.292717,-0.727645,-0.369472,-0.498340,-0.001621,-0.402497,-0.036822
716,2604286795,0.287577,-0.730368,-0.360897,-0.503603,-0.245839,-0.508338,0.365074
717,2604320129,0.282817,-0.732608,-0.352448,-0.509001,-0.165002,-0.387058,0.243022
718,2604353463,0.278047,-0.734483,-0.343571,-0.514961,-0.062639,-0.169584,-0.186650
719,2604386797,0.273197,-0.736572,-0.334149,-0.520742,-0.229426,-0.314431,0.069278
720,2604420131,0.268382,-0.739117,-0.324971,-0.525426,-0.393125,-0.300260,0.468006