Left_Wrist_Acc_X,Left_Wrist_Acc_Y,Left_Wrist_Acc_Z,Right_Wrist_Acc_X,Right_Wrist_Acc_Y,Right_Wrist_Acc_Z,Upper_Leg_Acc_X,Upper_Leg_Acc_Y,Upper_Leg_Acc_Z,Activity
2.626373,-2.780852,-0.4494,-3.677941,0.889419,1.994536,0.280295,0.073345,0.130209,0
4.582242,-2.388393,-0.822181,-3.764436,1.478484,1.104357,0.269952,0.048826,0.085855,0
4.233922,-1.353336,-0.69316,-3.992572,0.828035,0.079023,0.213406,0.067431,0.041294,0
1.159249,-0.97857,-0.88664,-2.399814,0.550562,-1.979808,-0.057224,-0.084089,0.038763,0
-1.561547,0.67799,-0.10583,-0.518977,-3.213671,-3.980386,-0.291715,-0.222597,0.152113,0
-0.848971,1.068617,-0.054957,1.869248,-3.953388,-1.232465,-0.273349,-0.220816,0.037821,0
0.594274,2.788728,-0.361033,3.443484,-4.033106,-0.528824,-0.039092,0.059611,0.204679,0
-0.746179,1.491722,1.004383,4.053894,-4.197419,-2.134387,0.173848,0.089984,0.170682,0
-0.357375,0.524536,2.075473,5.376775,-3.490046,-1.061221,0.328215,0.373471,0.096669,0
-0.225619,0.94328,0.234069,4.882298,-2.773422,-0.002549,0.35527,0.239834,0.222148,0
-1.27253,0.331427,0.125952,2.590984,-0.999604,-0.086097,0.205564,-0.000478,0.251448,0
-1.659963,-0.623275,0.079156,-1.511968,0.792242,0.022034,0.130878,-0.462046,0.025829,0
-1.522192,-0.994689,-0.194263,2.0577,1.500958,3.793174,-0.213063,-0.019821,0.097894,0
-1.317928,-0.023947,-0.909328,-2.915901,5.025158,0.485386,-0.76477,0.133183,0.270473,0
-0.764752,-0.049501,-0.880027,-4.885142,4.047274,1.525029,-1.59841,0.46313,0.295486,0
0.334836,0.311673,-0.666533,-1.550808,1.846245,2.911064,-2.477969,0.925005,0.708426,0
-0.280755,-0.265832,-1.645051,-1.264023,1.347163,1.128257,-3.133539,1.343195,0.695033,0
0.463733,0.118646,-0.618265,-1.125997,0.283653,0.059418,-2.311051,1.844521,1.261303,0
0.282049,-0.233191,-0.443007,-0.659355,-0.24226,0.836056,-0.380402,2.199391,2.483941,0
-0.213496,-0.872997,-1.235939,-1.360176,0.23146,-0.064598,-0.148879,1.647541,0.122782,0
1.434875,-0.136599,0.301908,-1.003715,-0.279272,-0.971177,3.485534,-3.268825,-0.324098,0
1.822361,0.194333,-0.124171,-0.732367,-0.803105,-1.449908,2.879687,-2.418543,-2.257642,0
1.6165,-0.440595,0.223714,-0.938432,-1.875917,-2.584818,5.519867,-3.249132,-2.236433,0
1.356094,0.395,0.411296,-0.069661,-2.127867,-2.282956,2.924291,-3.869059,-1.896661,0
0.700857,0.455752,-0.143779,-1.07245,-1.601671,-2.571245,0.495547,0.09107,-2.371664,0
0.588152,0.074579,-0.427106,-0.087206,-1.932704,-3.391387,-1.257687,0.155373,-0.080688,0
0.58208,0.037665,-0.587366,0.657926,-2.378077,-3.41685,-6.198864,0.885453,5.275135,0
0.200407,-0.002574,0.370427,1.286742,-2.338578,0.058766,-0.939032,4.269561,-0.086329,0
0.14011,0.06231,0.505217,1.516368,-0.19065,-0.586864,2.667246,0.732143,-0.303167,0
-0.111949,-0.769318,0.445646,1.736383,1.49682,0.096169,0.724919,-2.403303,0.4899,0
-0.18279,-0.301291,-0.036434,1.866097,1.049472,2.217768,0.154538,-0.521895,0.738641,0
0.069056,0.844981,0.518441,0.374348,1.893014,1.480067,-0.361423,1.187128,0.2082,0
-1.349916,0.482479,0.499582,-0.462118,1.591939,1.011421,-0.846739,1.186867,-0.223429,0
-0.985253,1.576874,0.400452,-0.540064,1.01947,2.201118,0.309038,0.134907,-0.315528,0
-0.571228,0.782846,0.502985,0.043898,1.64777,3.209055,0.586424,-0.079065,0.382007,0
-0.601073,-0.270551,1.040809,-0.205273,2.341864,2.401362,0.756308,-0.088641,0.600919,0
-0.909402,-0.10819,0.476222,-0.200838,1.839561,2.48223,0.441046,-0.237161,0.129929,0
0.150607,0.77051,0.708533,-0.766503,1.760528,1.231461,0.496477,-0.87451,0.171093,0
0.019055,-0.23796,-0.106133,-0.953295,1.16795,-0.032672,0.305855,-0.557134,0.10928,0
-0.490807,-1.916346,-1.068502,-1.628316,0.595457,0.167038,0.010357,0.349809,0.132088,0
1.700888,-0.530672,2.401297,-2.146508,-0.129837,-0.220959,0.179512,0.407037,0.110765,0
1.756332,-0.858636,2.241991,-2.336539,-0.12607,-0.762849,0.262762,-0.325657,0.023039,0
1.682221,-1.08274,2.159854,-0.407672,-1.018076,0.497103,0.088151,-0.675418,0.084936,0
1.700788,-0.749259,1.779367,0.184369,-1.47813,-0.630213,0.096091,-0.441092,0.222425,0
1.126426,-0.384506,0.765492,1.044221,-2.250574,0.480799,0.209358,0.14109,0.127079,0
0.489817,-0.462344,0.125817,1.47468,-2.744678,0.781354,0.276228,-0.19989,0.194354,0
0.121785,-0.21521,-0.037963,1.102609,-2.547572,0.299494,-0.042157,-0.112846,0.322635,0
0.018855,0.131142,0.300904,1.154245,-2.469553,0.191196,-0.298431,-0.184376,0.08866,0
-0.286128,0.109427,0.129283,1.116248,-1.891808,-0.607828,-0.487701,-0.07848,0.02485,0
-0.529916,-0.004133,-0.01694,0.429448,0.177663,-1.125431,-0.688732,0.219099,-0.067418,0
-0.534562,0.027454,0.237564,2.574876,-0.483613,1.010002,-0.740876,0.261108,0.037466,0
-0.6949,0.262098,0.155352,1.854582,-0.687621,1.5047,-0.800186,0.368754,0.048858,0
-0.988687,-0.013291,-0.349159,0.689396,0.449317,0.866295,-0.221835,0.070966,-0.0588,0
-0.952103,0.514403,-0.586215,0.645814,1.243177,0.835497,0.315321,0.090404,0.100705,0
-0.589108,0.58979,-0.511128,0.599187,2.657591,-0.897385,0.147738,0.030464,0.322283,0
-0.677672,0.513105,-0.515536,-0.604848,2.166981,0.163031,-0.077107,-0.049746,0.169089,0
-0.457296,0.746596,-0.53305,-0.346569,1.624373,0.385519,0.08861,-0.080622,0.091721,0
-0.425087,0.357788,-0.488354,-0.112801,1.288427,0.217125,0.175995,0.289557,0.072652,0
-1.08046,0.469238,-0.947625,-0.734033,1.045249,0.578425,0.258788,0.351573,0.007814,0
-0.747138,0.881731,-1.604664,-0.606038,1.32406,-0.703807,0.266465,-0.110223,0.114033,0
-0.188369,0.434659,-1.346132,-0.58009,0.815449,-0.932459,0.147854,-0.276352,0.084852,0
0.342472,-0.798134,-0.254776,-1.43682,0.60108,-0.575562,0.257828,-0.246947,0.191912,0
2.080198,-1.221815,2.024419,-1.498296,0.862531,-0.343968,0.29939,-0.453354,0.201675,0
2.066279,-1.372993,3.855801,-1.454708,1.222639,0.292496,0.142313,-0.218068,0.283135,0
1.503235,-1.808598,2.137997,-0.783264,1.183035,0.6632,0.096013,0.192661,0.149558,0
1.450209,-0.608554,0.869069,-1.006369,0.586213,-0.686885,0.112121,0.119041,0.085693,0
0.974707,-0.467659,-0.115331,-1.530313,-0.639803,-0.408492,-0.002826,0.132774,0.004678,0
0.381795,-0.067423,-0.54011,-1.143269,-2.139856,-0.920829,-0.109389,0.324458,0.152717,0
0.66416,0.181299,-0.584362,-0.318952,-3.264252,-0.717724,-0.197385,0.127769,0.077487,0
0.915787,0.418963,-0.555182,0.262912,-3.739857,-0.046328,-0.217748,-0.088333,0.046143,0
0.831055,-0.012724,0.145951,0.916402,-3.455166,-0.409719,0.04712,-0.561039,0.035028,0
0.565428,-0.459436,-0.201734,0.886392,-3.288781,0.683714,-0.007204,-0.874056,0.081039,0
-0.182839,-0.080432,-0.649793,1.054394,-1.368521,-0.049701,-0.164103,-0.212502,-0.05991,0
-0.673497,0.182727,-0.880068,1.110545,0.517819,-0.609191,0.01674,0.281447,-0.148924,0
-1.328957,0.417095,-1.404681,1.209929,0.848193,-0.726696,0.152387,0.853432,-0.030896,0
-1.463664,0.45544,-1.343647,1.238565,1.369991,-1.481395,0.372861,0.949159,0.072682,0
-1.351247,0.455452,-0.692249,0.729533,2.403057,-1.675982,0.293474,0.631851,0.400845,0
-0.962815,0.034705,-0.299586,0.434738,2.358808,-0.731073,0.278044,-0.230466,0.065709,0
-0.497887,0.33706,-0.458036,0.366711,2.929438,0.523794,-0.022446,-0.304575,0.185635,0
-0.241721,0.609302,-0.532866,-0.491487,2.888876,0.088401,0.252143,-0.126293,0.357723,0
-0.291915,0.695198,-0.291583,-0.684015,1.675725,0.297914,0.29434,-0.402487,0.32562,0
-0.20328,0.594643,0.211021,-0.041144,0.607851,1.850601,0.311002,0.286442,0.274044,0
-0.310068,0.590032,0.075383,-0.942951,0.44722,0.691021,0.355269,0.795931,-0.033325,0
-0.213797,0.611976,-0.005138,-0.934144,0.001519,-0.451503,0.5148,0.672286,0.288845,0
-0.051399,0.040002,0.503891,-0.430267,-0.875849,-0.724194,0.008554,1.166614,0.067119,0
-0.033939,-0.306396,0.727685,-0.518646,-1.297775,-0.725376,-0.047402,0.229364,-0.321893,0
0.464713,-0.380479,0.74894,-1.303204,-1.282064,-0.462687,0.041178,-0.552078,0.087326,0
0.542602,-0.353064,0.988377,-1.089993,-1.119678,-0.660525,-0.43568,-0.773675,-0.015592,0
0.397781,-0.56732,0.87991,-0.223511,-1.364059,0.56023,-0.46393,-0.326275,-0.28042,0
0.55877,0.018508,0.887524,-0.284872,-1.209349,0.890093,0.258251,-0.117895,0.196136,0
0.651893,-0.004803,1.01269,-0.444687,-0.884556,0.408965,0.326757,0.661445,0.328298,0
0.513854,-0.234886,0.82266,-0.169501,-0.928714,0.442038,-0.053399,1.114416,-0.067883,0
0.265351,-0.136999,0.619523,0.437506,-1.414427,0.854607,-0.015144,0.859411,-0.09903,0
0.019323,-0.215968,0.544263,0.349904,-0.894576,-0.148852,0.050121,-0.19624,0.288158,0
0.162559,-0.390882,-0.038908,0.148615,-1.305675,-0.45785,-0.046598,-1.121979,-0.126321,0
0.5572,0.673284,-0.128674,-0.227329,-1.563859,0.166175,0.621668,-0.908982,0.363017,0
0.064103,0.479767,-0.342121,-0.284198,-0.676566,-0.33369,0.828555,-0.218219,0.718639,0
-0.195044,0.426375,-0.696203,0.006534,0.18994,-0.758792,0.210672,-0.097639,0.313925,0
-0.045611,0.260626,-0.726798,0.033897,0.744594,-0.690422,0.901726,-0.571112,0.373008,0
-0.25682,-0.617227,-0.911752,0.168867,1.988075,-0.481497,0.741385,0.496992,-0.315402,0
-0.506262,-0.515145,-0.394638,0.836238,1.613295,1.003962,0.470047,0.265148,0.111777,0
-0.136735,0.454315,-0.142946,0.245351,1.979676,2.379613,0.61579,0.172204,0.17453,0
-0.523158,0.593991,-0.274929,0.552294,2.737345,2.105339,0.338805,-0.074278,0.50601,0
-0.426514,0.438082,-0.166183,0.576265,2.451777,2.41836,0.340855,-0.532186,0.405759,0
0.049367,0.885035,0.07795,0.313981,1.215156,2.307515,-0.008603,-0.612143,0.267075,0
0.30306,0.757023,1.059067,-0.43539,0.772322,0.162984,0.009803,-0.485134,0.214364,0
1.742657,-0.437657,2.013523,-0.191295,0.075097,-0.487823,0.371132,-0.336616,0.212889,0
2.387904,0.263187,2.489179,-0.132301,-0.623958,-0.924176,0.444423,0.014631,0.386016,0
2.170113,-1.862921,1.298598,-0.912014,-1.622178,-1.675865,0.758131,0.221569,0.607156,0
1.188099,-2.217247,1.868681,-1.475363,-2.422297,-2.402026,0.640097,0.555975,0.33461,0
0.771444,-1.709427,1.458077,-1.603099,-2.510641,-3.207035,0.68625,0.900638,0.225426,0
-0.080027,-1.594197,0.703878,-0.470743,-2.437172,-2.927691,0.62544,0.437328,0.016657,0
0.049749,-1.005826,0.190231,0.311851,-2.183713,-2.657751,0.103805,-0.012774,0.154645,0
0.312119,0.266145,-0.275133,1.944001,-1.956908,-1.19087,-0.37403,0.028147,-0.146356,0
-0.400822,0.450253,0.02607,2.249891,-0.826478,-0.719646,-0.466072,0.046478,-0.253591,0
-0.828871,0.840634,0.361974,1.738207,1.044856,-0.625825,-0.094092,-0.113403,-0.472682,0
-1.35555,0.273089,0.174898,1.398985,1.773639,0.677982,0.125781,0.143174,0.218313,0
-1.758339,0.927573,-0.069419,0.011851,1.343384,3.709359,0.524173,-0.065564,0.549991,0
-1.680187,0.914286,-0.182297,0.437702,1.14278,3.692885,0.117777,-0.212127,0.270203,0
-1.858418,1.241252,-0.078027,1.301085,1.537196,3.523072,-0.072431,-0.204774,0.390877,0
-1.365711,1.093674,-0.870362,1.25433,1.2638,3.64267,-0.062481,0.048772,0.057215,0
-0.44277,1.31954,-0.945043,-0.022676,1.493255,3.06502,0.007856,0.571915,0.351247,0
-0.356973,0.666048,-0.358918,-0.656417,0.809838,2.481066,0.45099,0.369973,0.131598,0
0.391334,-0.304491,-0.05451,-0.995836,0.372146,2.974468,0.67076,0.447203,0.259411,0
0.577274,-1.02904,0.443143,-1.383974,0.956463,1.901228,0.610576,0.779703,0.298176,0
1.2669,-1.62875,1.035605,-2.175516,0.093524,1.332751,0.626646,0.610281,0.298995,0
2.347715,-0.247068,1.678571,-2.622792,0.057982,-0.12063,0.426886,0.093568,0.245197,0
1.381977,0.28223,2.467982,-3.052224,-0.452969,-1.296275,0.19907,-0.252378,-0.141223,0
0.631296,-0.282404,1.891682,-2.205016,-1.338346,-1.88743,0.104638,-0.476468,0.163768,0
0.383185,0.225835,1.385892,-0.980992,-1.639653,-2.932487,-0.037204,-0.728919,0.323409,0
0.157938,-0.528495,0.940581,-0.769699,-1.735525,-3.520494,-0.23457,-0.681459,-0.091618,0
0.625583,0.39789,1.620062,-0.606139,-0.97801,-2.37821,-0.128218,-0.785887,-0.044811,0
0.199484,0.068738,1.684743,0.808548,-0.833876,0.216627,-0.276522,0.193819,-0.140018,0
-0.552247,-0.707583,1.020748,2.506521,-1.080053,1.831889,-0.127952,0.319269,-0.105409,0
-0.932328,-0.682796,0.884166,3.195005,-0.850793,1.445065,0.161012,0.582197,-0.027986,0
-0.84721,-0.563861,1.118117,2.469425,-0.144713,2.314903,0.098484,0.835726,-0.139336,0
-0.7795,-0.190283,0.989973,2.324272,1.634094,2.314999,0.676342,1.065136,0.693272,0
-1.088027,0.705964,0.089462,1.337508,1.283357,2.902344,0.666672,0.787193,-0.131241,0
-1.234817,-0.222476,0.555323,1.468002,1.46354,3.300607,0.528417,0.984286,0.732741,0
-0.362415,1.206219,0.733659,0.643456,0.868866,3.768776,0.877702,0.074894,0.957272,0
-0.761733,1.138265,1.024061,-1.223349,2.654176,2.101234,1.167694,-0.808386,0.761868,0
-0.575894,0.252836,1.039445,-1.111374,2.599606,1.052271,0.768245,-0.652053,0.644331,0
0.147599,-0.013751,0.757616,-0.820742,0.732637,1.079153,0.485456,-0.623925,0.208663,0
0.782048,-0.297357,0.395427,-0.565582,-0.017188,1.709617,0.264009,-0.49521,0.036736,0
1.366925,-0.345573,0.285936,-0.641175,0.622262,0.073285,-0.177823,-0.475472,0.084152,0
1.005181,-0.761771,0.452127,-0.7759,-0.34578,-0.0219,-0.290551,-0.674248,-0.203296,0
0.84882,-1.207519,-0.001689,-0.697885,-1.417725,-0.902365,-0.400715,-0.58556,-0.223086,0
1.428159,-1.093073,0.358597,-0.769406,-1.731553,-2.324959,-0.257801,-0.265726,-0.093671,0
1.303052,-1.353904,0.409629,-1.00468,-1.931687,-2.462341,0.089112,0.218065,-0.2704,0
1.376656,-0.236742,0.848888,-0.640895,-2.714957,-1.873325,0.056846,0.244505,0.097083,0
0.107074,0.052109,0.688354,-0.613732,-2.103551,-2.116851,0.016713,0.595178,0.06112,0
0.432321,-0.114281,0.964667,-0.197704,-1.819469,-2.389966,0.090859,0.388372,0.096052,0
-0.10061,0.456614,0.928584,0.534484,-2.188801,-1.462822,0.35807,-0.114344,0.237122,0
-0.861626,0.396643,0.851396,0.774881,-1.817432,-0.859345,0.430201,-0.433789,0.462537,0
-0.887944,0.312249,0.067748,0.747307,0.454899,-0.688878,0.332668,-0.301461,0.134558,0
-1.530982,0.570773,-0.309289,0.29748,0.838399,0.762304,0.391208,-0.121625,0.014742,0
-1.646024,0.412571,-0.941092,0.759752,0.996049,1.266461,0.162137,0.01998,0.097063,0
-1.646898,0.371596,-2.108319,1.82015,1.509932,0.942593,0.136906,0.208069,-0.053305,0
-1.66956,0.357885,-2.096931,1.345141,1.167536,1.487752,0.094046,0.394138,-0.161444,0
-1.076148,0.615829,-2.243617,-0.101969,2.739445,0.139267,-0.003499,0.547409,-0.013811,0
-0.642961,0.37004,-1.91911,0.131204,1.981476,0.917772,-0.023381,0.594408,0.269829,0
0.125956,0.007091,-1.248675,0.363698,1.483227,1.171444,-0.264567,0.534226,0.058659,0
0.722648,-0.400593,-0.510496,-0.539587,1.850956,0.608267,-0.013869,0.084251,-0.006413,0
1.304233,-0.427754,0.251259,-1.12455,1.459295,0.21841,-0.005293,0.075274,0.070884,0
1.773531,-0.368948,0.471944,-0.92348,-0.012349,1.326754,-0.066843,-0.200865,0.21096,0
2.025463,-0.109222,0.617961,-1.280996,0.2075,0.632499,-0.103757,-0.408313,0.347891,0
1.487097,-0.570549,0.955229,-1.532804,0.171012,-0.66109,0.493854,-0.411658,0.083864,0
0.837218,-0.892275,1.335129,-1.57564,-0.295586,-0.152522,0.125524,-0.241318,0.122323,0
1.029107,-0.922634,1.288493,-1.730227,-1.017917,-0.75393,0.219938,0.252484,0.106573,0
1.005812,-0.6318,1.620544,-1.243841,-1.103206,-0.555574,0.337364,0.340321,0.194038,0
0.747813,-0.186319,1.621777,-0.430172,-0.826141,-0.761305,0.435464,-0.299532,0.314234,0
0.868751,-0.429879,1.210423,0.675035,-1.427099,-0.952318,0.674286,-0.505317,0.279322,0
0.142068,-0.12304,1.041844,0.827434,-0.743845,-1.321958,0.374943,0.087254,0.245021,0
0.015251,0.310731,0.998968,1.337917,-1.111152,-1.995297,0.287166,0.181359,0.132911,0
-0.28985,0.815783,-0.118516,1.794637,-1.159453,-1.026034,0.560957,-0.227637,0.156497,0
-1.156714,1.054607,-0.326146,1.596227,-0.926567,-1.058069,0.114159,-0.387914,0.035492,0
-0.934406,1.466852,-0.992055,1.159883,0.510124,-1.400502,-0.027917,0.080114,-0.074733,0
-1.639131,0.635104,-1.181037,0.709336,1.188485,-0.145246,-0.027102,0.540512,0.075042,0
-1.820658,0.253182,-1.442701,0.42138,0.159639,1.50878,-0.359745,0.759521,0.082036,0
-1.29906,0.585644,-2.126955,0.82438,1.085665,0.354322,-0.624518,0.506285,-0.129378,0
-1.128775,0.637235,-1.416936,-0.350125,1.580897,-0.100919,-0.148487,0.270988,0.196136,0
-1.028858,0.186415,-1.348643,-1.224463,1.103877,0.52478,-0.22724,-0.022009,0.180886,0
-0.184913,0.024341,-0.883589,-0.465401,1.30081,0.064935,-0.208034,-0.119088,0.269505,0
0.833072,-0.127308,-0.341617,-0.505341,0.641067,0.561295,0.16694,0.275889,0.119732,0
1.365887,-0.938864,-0.039454,-0.024098,0.871884,1.836167,0.192046,-0.058462,0.056231,0
1.881343,-1.415317,0.359082,-0.707693,2.689273,0.94382,0.780885,-0.682516,0.428744,0
1.928953,-0.801726,1.010501,-0.845754,0.966172,2.405534,0.744768,-0.481284,0.183427,0
1.465021,-0.937164,1.259265,-0.535688,0.337039,2.32663,0.894001,-0.146184,0.080168,0
1.577377,-0.2076,1.094093,-1.874932,0.981758,0.043586,0.290811,-0.577387,0.012652,0
0.981776,-0.688714,0.650558,-1.458088,-1.418634,0.008138,-0.491258,-0.26298,-0.227366,0
0.325195,-0.590133,0.606105,-1.077909,-1.983042,-0.626046,-0.703582,0.128357,-0.116217,0
-0.008586,0.347482,0.361134,-1.462813,-2.311382,-1.983736,-1.352899,0.537441,0.069322,0
-0.405089,0.449965,-0.062737,-1.274781,-3.48345,-2.099863,-1.595063,0.656045,0.334288,0
-0.629816,1.138401,-0.244121,0.033893,-3.818399,-2.628484,-0.462243,0.270447,0.306502,0
-0.789712,1.211694,0.402224,1.37079,-3.404933,-3.456173,-0.302744,-0.187104,0.238402,0
-0.934283,0.79864,0.488455,2.192277,-2.179578,-2.964397,-0.762772,0.171356,0.451032,0
-1.130401,0.354896,0.528358,2.570484,-0.411661,-2.474926,0.68104,0.34151,-0.031584,0
-0.929534,0.047315,0.347679,1.589196,1.709404,-1.378785,0.816024,-0.53604,0.01098,0
-1.469724,-0.453007,-0.114798,1.347133,2.322195,1.586401,0.037372,0.237418,0.214782,0
-1.085112,-0.499229,-0.491599,1.198089,3.029561,1.372404,-0.2174,-0.238735,-0.093544,0
-0.748554,-0.388311,-0.988441,-0.204199,3.17655,0.97874,-0.535275,-0.180827,0.140131,0
-0.713739,-0.512386,-0.942808,-0.890577,2.146893,1.401231,-0.567514,0.342956,0.509384,0
-0.337577,-0.039573,-1.111259,-0.626832,1.535412,0.847314,-0.60969,-0.128348,0.053058,0
0.053965,0.228094,-1.19225,-0.256565,0.911226,0.389035,-0.686429,0.301005,0.108081,0
0.163737,0.307276,-1.065689,-0.388107,0.473803,1.019206,-0.496181,0.433274,0.381294,0
0.360391,0.149828,-0.739891,-0.606945,0.786955,0.969531,-0.00983,0.304179,0.313251,0
0.825953,0.138609,-0.493225,-0.600539,-0.040339,1.290352,0.542738,-0.11819,-0.023245,0
0.982302,-0.009149,-0.270576,-0.70011,-0.036681,1.096904,0.24534,-0.046732,0.029171,0
1.064388,-0.139642,-0.146664,-0.899409,0.117017,0.173394,0.046582,-0.064311,0.116085,0
1.598033,0.0002,0.100484,-0.741877,-0.378647,0.632789,0.073821,-0.185841,0.068217,0
1.087549,-0.450397,0.331456,-1.263477,-0.507289,1.198101,0.194501,0.111163,0.313864,0
0.662761,-0.380211,0.833498,-1.021824,-0.887444,0.86388,-0.129556,0.130928,0.116899,0
1.061209,0.280822,1.368681,-1.097269,-1.080223,0.02877,-0.439199,0.340776,0.154571,0
0.554007,-0.055764,1.34773,-0.868831,-1.189241,-0.421144,-0.506335,0.180896,0.182573,0
0.24983,-0.035128,1.299639,-0.282682,-1.52919,-0.977778,-0.021389,-0.116571,0.419927,0
-0.10971,0.355354,1.237267,0.143598,-1.678411,-1.656816,0.266699,0.032086,0.005796,0
-0.584313,0.525199,0.677863,0.273973,-1.565712,-2.492504,0.548733,-0.167075,-0.01967,0
-0.465571,0.503182,0.107562,0.916607,-1.206808,-2.58458,0.598365,-0.232564,0.257737,0
-0.502387,0.012703,-0.035629,1.327512,-0.859709,-2.001616,0.544809,-0.171826,0.002299,0
-1.087715,-0.255487,0.197523,1.828042,0.108174,-0.312724,0.409896,-0.020058,0.015829,0
-0.937158,-0.506599,-0.338174,1.356383,0.637064,-0.089968,0.087277,-0.158547,-0.057179,0
-0.511562,-0.259535,-0.375128,1.709225,0.889972,0.319936,0.161638,-0.380824,-0.010829,0
-0.692374,-0.481817,-0.277448,1.334353,1.004725,0.934048,0.043755,-0.202928,0.167261,0
-0.802921,-0.718584,-0.632398,0.725994,1.143028,1.282097,-0.184917,-0.181526,0.075793,0
-0.384603,-0.630824,-0.840776,0.366105,0.947443,1.311287,-0.387056,-0.063583,0.108997,0
-0.095254,-0.647021,-1.080791,-0.088098,0.577073,1.07233,-0.570366,0.074329,0.198033,0
0.359485,-0.547116,-1.245808,-0.228588,0.517152,1.247205,-0.838818,0.319944,0.199803,0
0.451939,-0.664592,-0.659338,0.261978,0.826151,1.253555,-0.82531,0.422496,0.244341,0
0.478582,-0.565548,-0.805965,-0.0783,0.562159,0.974881,-0.45497,0.279465,0.201047,0
0.68265,-0.595275,-0.696023,0.349321,0.220502,1.479576,-0.263612,0.005755,0.119108,0
1.379892,-0.335438,0.153705,-0.611777,0.514228,0.63295,0.112456,-0.060798,0.10061,0
1.403042,-0.255873,0.623163,-0.094016,0.083411,0.700156,0.187249,0.003665,0.132149,0
1.186927,-0.310385,0.789786,-0.314571,0.200073,0.763506,0.10001,-0.173605,0.144878,0
0.940697,0.047319,1.194739,-0.402793,-0.573802,-0.108909,0.131984,-0.005022,0.094123,0
0.558524,0.388218,1.107811,-0.995014,-1.015267,-0.803291,0.168415,0.08775,0.194503,0
0.277982,0.469419,0.846472,-0.76086,-1.356753,-1.201742,0.17025,0.129466,0.138182,0
0.073767,0.188604,0.60278,0.015625,-1.321364,-1.104408,0.23752,-0.026698,0.173701,0
-0.188892,-0.047918,0.358212,-0.179217,-0.871752,-1.451129,0.256671,-0.147112,0.083775,0
-0.591293,0.742189,0.543614,-0.007305,-0.512681,-1.508173,0.182115,-0.171335,0.098683,0
-0.504735,0.983309,0.468366,0.111484,-0.162699,-0.819093,0.042179,-0.203778,0.072773,0
-0.563853,0.772119,0.06743,-0.053482,0.080318,-0.883972,-0.086,-0.112867,0.129303,0
-0.517434,0.336376,-0.272831,0.071994,0.201724,-0.699668,-0.197092,-0.002431,0.103242,0
-0.798117,-0.054725,-0.208574,0.153872,0.295823,0.268383,-0.192614,0.005857,0.062263,0
-0.812145,-0.439415,-0.37573,-0.301193,0.341199,0.053544,-0.194994,-0.10824,0.093848,0
,,,-0.305117,0.36418,-0.183034,-0.149252,-0.074571,0.13987,0
,,,-0.484422,-0.019033,-0.41769,-0.062304,-0.00535,0.089251,0
1.330602,-1.039902,0.158533,0.442652,-0.560916,0.504105,1.080601,0.199016,-0.413306,0
1.552324,-1.88502,-0.583129,0.606331,-0.264438,0.661569,0.659324,-1.38164,-0.004516,0
1.073182,-2.767915,-1.240648,0.597832,0.103463,0.212909,0.045199,-0.785247,0.134223,0
0.604303,-3.330403,-1.573737,0.730527,0.29299,-0.431538,-0.330275,0.235746,0.698746,0
0.426727,-3.421722,-1.436846,0.759089,0.318592,-0.440761,-0.670111,-0.646142,0.375658,0
0.111287,-3.81483,-0.921956,0.779605,0.360337,-0.21493,-0.123413,-1.06885,-0.184296,0
-0.646781,-4.083834,-0.275167,0.621511,0.860617,-0.041698,-0.003972,-0.743412,0.342645,0
-1.263671,-3.681896,-0.41207,0.515839,1.250362,0.227808,-0.72078,-0.420423,0.194331,0
-1.521756,-2.878977,-0.703321,0.416421,1.265155,0.27008,-0.813702,0.026672,-0.004925,0
-1.283573,-2.295571,-0.865615,0.380646,1.305055,0.077824,-0.063257,-0.448301,0.101742,0
-0.743841,-1.811204,-0.698174,0.695219,1.530049,-0.098184,0.425304,-0.78092,0.031251,0
-0.447356,-1.609046,-0.164155,1.185639,1.444728,0.048286,0.47563,-0.658276,0.226323,0
-0.435423,-1.454459,0.487946,1.524974,1.242426,-0.05256,-0.087799,-0.146536,0.226842,0
-0.196029,-0.692924,0.903045,1.621556,0.92825,-0.531587,-1.072848,0.636294,0.165542,0
0.251603,0.097179,1.066476,1.297266,0.476424,-0.869862,-0.97867,0.672405,0.035623,0
0.632536,0.701585,1.169072,1.006546,-0.050683,-0.835105,-0.13015,-0.242307,0.124395,0
0.786964,1.200624,1.361375,0.801348,-0.493545,-0.44162,0.01877,0.058742,0.16183,0
0.731187,1.662795,1.185548,0.435003,-0.415097,-0.152074,-0.122867,0.415873,0.020058,0
0.633305,1.97938,0.487635,-0.042126,-0.241702,0.145495,0.136275,0.038592,0.16287,0
0.586747,2.282786,-0.168439,-0.464937,-0.184432,0.305372,0.546022,-0.577591,0.15498,0
0.445617,2.611214,-0.448467,-0.757892,-0.504192,0.446282,0.410748,-0.104236,0.033315,0
0.181321,2.551742,-0.514378,-0.869796,-0.973978,0.565178,-0.168726,0.243629,0.036607,0
0.099349,2.418633,-0.58109,-0.85092,-1.358938,0.600781,-0.414574,-0.122692,0.134422,0
-0.099712,2.197788,-0.318387,-1.043182,-1.479996,0.710114,-0.209983,-0.227963,0.162311,0
-0.180756,1.709724,-0.048934,-1.10221,-1.332429,0.704799,-0.093023,-0.178683,0.079202,0
-0.029238,1.475165,0.235645,-0.875788,-1.265237,0.531593,-0.048103,-0.031266,0.148383,0
-0.179262,1.141329,0.607413,-0.636925,-1.305377,0.441544,0.091728,0.133073,0.128588,0
-0.420267,0.544933,0.87027,-0.328876,-1.143406,0.336838,0.128869,0.308688,0.11069,0
-0.513618,0.175701,0.952491,-0.132964,-0.917424,0.351822,0.138059,0.16175,0.164897,0
-0.489928,-0.052068,0.912242,0.036025,-0.684331,0.218771,0.121832,-0.101972,0.110043,0
-0.494343,-0.461203,0.803315,0.321151,-0.557124,0.194729,0.099984,-0.049373,0.130649,0
-0.550109,-0.794585,0.548934,0.455815,-0.414464,0.1281,0.083865,0.095939,0.087711,0
-0.488006,-0.68012,0.442809,0.656952,-0.61749,0.211072,0.056107,0.113679,0.128231,0
-0.459336,-0.365286,0.438512,0.593846,-0.535802,0.137628,-0.0312,0.17391,0.09944,0
-0.412358,-0.01945,0.633681,0.872675,-1.058717,0.458823,-0.063891,0.009509,0.108967,0
-0.261157,-0.313604,0.301567,0.810875,-0.496983,0.088907,-0.058371,-0.049059,0.111202,0
-0.079097,-0.276805,0.208772,0.493609,-0.210549,-0.188161,-0.126025,0.033335,0.168687,0
0.115545,-0.115585,0.283323,0.541912,-0.508088,-0.027759,-0.255971,0.092395,0.124394,0
0.321882,-0.265459,0.136295,0.379369,0.219254,-0.162827,-0.149457,0.125283,0.115483,0
0.57097,-0.501381,-0.135268,0.021058,0.740579,-0.216339,-0.050066,-0.050525,0.088523,0
0.660063,-0.654174,-0.129215,-0.073768,0.949569,-0.196178,0.016523,-0.121601,0.163161,0
0.774864,-0.765239,-0.1888,-0.197182,1.305663,-0.265543,-0.011052,-0.247313,0.099378,0
0.845563,-0.628697,-0.058784,0.056659,0.925602,0.063771,-0.053202,-0.148734,0.059568,0
0.49295,-0.692511,-0.06772,-0.695537,0.975084,0.345498,-0.141721,-0.040604,0.050549,0
0.211547,-0.302753,0.066827,-1.076457,1.144895,0.050801,-0.16955,0.148868,0.15907,0
-0.067411,0.098314,-0.088846,-0.722734,0.143039,0.329169,-0.16159,0.108216,0.122026,0
-0.240302,0.209895,-0.149566,-0.50262,-0.438673,0.53446,-0.075092,0.060309,0.11678,0
-0.109226,0.438527,-0.073489,-0.871239,-0.222269,0.100063,0.113627,0.104203,0.150716,0
-0.077295,0.268139,0.088783,-0.079293,-0.913018,0.314127,0.223013,-0.091728,0.089481,0
0.079232,0.02746,-0.064435,-0.165976,-0.9946,0.674638,0.188245,-0.083456,0.091145,0
0.420907,0.149058,0.100677,-0.477857,-0.435151,0.371261,0.038297,-0.010427,0.127295,0
0.461036,0.253279,0.311321,-0.130978,-0.109635,0.186276,-0.131329,-0.009816,0.114403,0
0.297434,0.351273,0.422466,0.65711,-0.709598,0.549697,-0.111898,0.127967,0.128294,0
0.337681,0.836345,0.395462,0.64923,-0.241626,-0.012867,-0.030606,0.093736,0.124668,0
0.280558,1.038264,0.327227,0.960112,-0.752686,-0.297022,0.072585,0.058855,0.122873,0
-0.022924,1.407925,0.102192,0.581428,-1.710227,-0.054041,0.116642,-0.019855,0.125053,0
-0.646682,2.068514,0.047485,0.876005,-1.898575,-0.894463,0.041476,-0.010346,0.131721,0
-0.692134,1.989863,0.884194,1.454996,-2.557791,0.059131,0.061337,-0.015075,0.158028,0
-0.546942,0.977841,0.730526,1.148494,-1.819157,0.629424,0.085657,0.009746,0.095805,0
-1.387008,-0.238989,1.530359,0.210442,-0.168037,0.052452,0.032362,0.02912,0.135343,0
-1.197536,-0.991233,1.627955,-0.772075,-0.437181,0.563138,-0.074361,-0.178525,0.054737,0
-1.475497,-1.893995,1.083912,0.782406,3.331105,-0.492853,-0.144576,-0.27135,0.081939,0
-0.828256,-1.820654,0.468854,-1.87744,4.63991,0.413727,-0.283288,-0.141504,0.110919,0
0.142568,-1.350113,-1.019094,-0.650071,3.004131,0.706783,-0.39967,-0.045318,0.02468,0
-0.137098,-1.190553,-1.53164,-0.176644,2.067135,0.395437,-0.362454,-0.010275,0.144934,0
-0.08361,-0.298798,-1.634856,-0.477457,1.122891,-0.811149,-0.248514,0.074388,0.125949,0
0.5251,-0.009683,-0.828888,-0.289371,0.319608,-0.648829,-0.137274,0.004406,0.151941,0
2.11319,0.167387,-0.298152,0.242312,-0.432179,-0.430983,-0.206007,0.051135,0.189681,0
2.85717,0.272718,-1.357008,-0.064745,-0.99026,0.263138,-0.13751,0.15218,0.180036,0
2.545295,-0.050236,-0.727373,0.698339,-1.668174,0.317204,0.060763,0.132761,0.117924,0
1.765432,-0.802219,-0.820935,0.568786,-1.49164,0.545456,0.130801,0.081821,0.116514,0
0.998747,-1.602336,-1.243679,-0.017981,-0.566796,0.109525,0.165015,0.018929,0.121531,0
0.681143,-1.555436,0.608336,-0.736019,-0.007059,0.185807,0.070003,0.041337,0.163895,0
-0.05668,-0.923771,0.934322,-0.535342,0.291018,0.591942,-0.065733,-0.160658,0.121676,0
-0.236023,0.231131,1.26019,-0.138684,0.670969,0.022584,-0.084888,-0.055684,0.120327,0
-0.34163,0.324623,1.229222,-0.053398,0.801398,-0.456783,-0.061539,-0.003352,0.083364,0
-0.156332,0.263291,0.997996,0.457996,0.268599,0.079951,0.006892,-0.043714,0.117496,0
-0.032458,0.071632,0.490604,0.583755,-0.112462,0.029927,0.023327,-0.031739,0.097211,0
-0.00468,0.088108,0.203406,0.424474,-0.374002,0.163038,-0.069724,-0.032083,0.082273,0
0.161481,-0.018169,0.056952,0.720882,-0.05732,0.00742,-0.16207,0.021314,0.153728,0
0.416381,0.008559,0.051755,1.055849,0.639731,-0.666478,-0.225761,0.278,0.231823,0
0.136372,0.158827,0.277923,0.414254,-0.039031,-0.744822,-0.204002,0.276216,0.134841,0
0.189194,0.30053,0.586606,0.120039,-0.410181,-0.644395,-0.0306,0.027437,0.007849,0
-0.128824,0.285627,0.402292,0.699117,-0.559893,-0.632992,0.06364,-0.065566,0.012589,0
-0.471022,0.311363,0.357785,0.321428,-0.485095,-0.348615,0.141719,0.08516,0.200559,0
-0.382831,0.294985,0.061384,-0.023062,-0.40491,0.34414,0.010001,0.362119,0.133551,0
-0.375156,0.403124,-0.021489,0.612648,-0.254391,0.697469,-0.866184,0.569929,0.365088,0
-0.634169,0.319004,-0.337549,-0.0429,0.224019,0.964536,-1.401673,0.88882,0.598502,0
-0.301313,0.493818,-0.778507,-0.525842,0.631989,1.508286,-0.80087,0.881654,0.677094,0
-0.383142,0.624877,-1.114814,-0.51166,0.621659,1.569429,-0.998227,1.2032,0.774907,0
-0.431161,0.623072,-1.204161,-0.892444,0.424057,0.947005,-0.139203,1.129547,1.005798,0
0.427993,0.849292,-1.587373,-0.978952,0.334346,0.949966,0.626098,0.97738,0.748313,0
1.340707,0.261744,-0.567403,-1.330846,-0.373908,0.949341,0.97208,0.367602,0.374668,0
2.319245,0.40037,0.921469,-1.988015,-1.288084,1.682638,0.994667,-0.417851,-1.1678,0
2.55367,-0.093454,0.468876,-2.751559,-2.053954,0.292742,2.829312,-2.527638,-1.596184,0
3.393223,0.310491,-0.021344,-2.531246,-2.406976,-1.71967,3.930757,-4.125709,-2.07483,0
2.110902,0.07876,1.024489,-1.514998,-3.518181,-3.32636,3.834464,-4.166971,-1.476489,0
-1.782873,-0.749415,2.248146,-0.7431,-3.948526,-2.845291,3.290439,-1.915535,-0.569441,0
-2.634369,-0.258446,2.911831,0.242513,-2.267377,-2.617106,1.037092,-0.018926,0.964214,0
-2.701321,0.860812,1.883922,1.913234,-1.028966,-1.844061,-1.95763,3.412332,2.664225,0
-1.758422,1.356353,1.721704,2.522861,-0.521152,-0.243753,-2.708279,4.666899,-0.763448,0
-1.236423,0.883026,1.076062,1.952982,0.911642,-0.003072,-2.983016,0.968847,0.566461,0
-0.970124,0.525106,0.704432,1.181365,2.20724,1.37018,-2.287436,0.101481,-0.122957,0
-0.241107,-0.0999,0.611902,1.327966,2.536517,3.386933,-2.003835,1.926599,0.988518,0
-1.322537,-0.522035,-0.433784,1.632241,2.663433,4.249163,-1.137549,0.280854,0.397456,0
-0.688686,-0.31453,-1.265541,1.576154,2.820191,2.728459,-0.529485,-1.600627,-0.032073,0
0.04937,-0.385329,-2.124295,0.065561,2.580217,1.55707,0.41252,-1.202836,-0.304056,0
0.988858,-0.466876,-1.819283,-0.866973,1.710672,1.203903,0.942043,1.268167,0.064339,0
1.951336,-0.192323,-1.753057,-2.62688,1.329485,-0.499735,-0.107304,1.012073,0.031102,0
3.073411,-0.153723,-0.423923,-2.551366,-0.880009,-1.647563,-0.189019,-0.16537,0.340191,0
3.740807,0.851524,0.903096,-1.918223,-2.204231,-1.282649,0.003482,-0.163573,0.360066,0
2.111526,-1.39689,0.06941,-1.747137,-1.922352,-1.783463,-0.285793,-0.410275,0.422958,0
0.524048,-1.816291,-0.100204,-0.692637,-2.136149,-1.213291,-1.866467,0.398877,0.829894,0
-0.365288,-0.9481,-0.777601,-0.150846,-2.932502,-1.653425,-3.02091,0.245927,0.360847,0
-0.655092,-0.611318,-1.038647,2.236583,-3.100201,-2.969965,-2.571124,-0.810648,-0.458051,0
0.100815,-0.573417,-1.449919,2.845733,-2.244277,-2.385675,-2.32112,-0.783277,-0.25626,0
-0.828205,0.265307,-2.545205,1.27621,-1.463601,-2.644287,-0.04445,0.307591,-0.583913,0
-1.638738,-0.514121,-0.783035,2.406519,-0.499254,-2.277436,1.708842,0.567242,-0.311545,0
-1.658108,-0.121837,-1.80833,3.856472,1.077784,-0.139781,2.011188,-1.046616,0.203681,0
-2.072783,-0.018818,-1.255932,1.608289,2.111425,0.087234,1.441009,-2.014451,-0.021815,0
-1.721324,-0.459362,0.636275,0.542958,2.58667,0.937179,1.53765,-0.461698,0.131587,0
-0.821313,-0.005383,0.843015,0.560479,3.148496,1.735997,1.594963,0.11139,0.530319,0
-0.619428,0.238639,0.792941,-0.239102,2.960546,1.038862,-0.073478,1.192876,0.398037,0
-1.263582,0.273556,-0.979962,-0.845383,1.957006,1.681486,-0.192959,0.36873,-0.365848,0
-0.277555,0.289348,-0.964276,-0.77941,1.450466,1.104782,0.470675,-2.175138,0.326928,0
-0.10901,0.432714,-0.442345,-0.661315,0.582897,1.019017,-0.317685,-1.13655,0.402885,0
0.023798,0.040265,-0.712958,-1.57287,-0.353898,0.623434,-0.920074,0.984944,-0.345553,0
1.033001,-0.26582,-0.032661,-1.467012,-0.740803,-0.762744,-0.298404,1.069733,0.123343,0
2.024093,-0.055526,0.652608,-0.729879,-1.734292,-0.213097,-0.231746,-0.694906,-0.418494,0
3.22555,0.34904,0.246857,-1.58114,-2.126304,-1.122756,0.094691,-1.58068,0.083084,0
4.328539,0.921894,1.426432,-0.152703,-2.483423,0.030457,0.537153,1.106075,0.014473,0
3.151757,0.621479,1.646197,0.293843,-3.144745,-0.441886,0.64994,1.723072,0.08105,0
0.633065,-1.189382,2.984803,-0.461898,-4.518036,-0.375909,0.752731,-0.006718,0.303815,0
-1.435756,-1.481651,3.118575,0.296491,-3.796885,0.471601,0.502802,-1.056728,0.685762,0
-2.970155,-1.616689,2.112521,0.649693,-2.7219,0.662984,0.17768,-1.520792,0.375071,0
-2.408332,-0.123316,0.712241,-0.554918,-0.936897,-0.117009,0.174213,-1.216172,0.081225,0
-1.096809,1.129443,-0.285012,0.247477,0.339322,-0.660348,0.0711,-0.141293,0.360398,0
-0.804266,1.305981,-1.095777,1.113218,1.196634,-0.699154,0.067329,-0.040214,0.146796,0
0.254739,1.532932,0.023446,3.96357,2.064483,-0.223006,0.265142,0.700016,-0.018557,0
-0.329097,1.187555,-0.86111,2.92864,2.580085,2.657279,0.548894,1.147778,0.052756,0
-0.461947,1.24715,-1.422464,-0.362447,4.120713,2.362942,0.497105,0.798101,0.37449,0
-0.679286,1.443146,-1.510181,0.921593,3.784223,1.877816,0.066595,-0.029892,0.060406,0
-0.939663,-0.252474,-2.090457,0.540451,4.710114,1.442206,0.021614,0.233996,0.081768,0
0.321622,-0.859932,-1.122543,-1.91358,3.421861,0.296155,0.354278,0.203142,0.058634,0
2.246113,-1.239287,-1.609473,-3.030377,2.618058,-1.805439,0.58165,0.354817,0.340218,0
3.327504,-0.906794,-0.697448,-3.095184,0.184735,-2.373458,0.426027,0.072619,0.293047,0
2.512911,-1.064131,-0.485631,-3.208619,-3.941082,-3.235837,0.313125,-0.167374,0.088279,0
1.859439,-1.584363,1.376761,-3.386437,-4.357916,-6.003222,0.249818,0.497157,-0.018999,0
3.0729,-0.29771,0.049108,-2.008848,-3.587586,-6.058536,0.25344,0.447909,0.002247,0
-0.338343,-1.868766,0.523599,-0.856135,-4.996593,-2.577894,0.136221,0.969377,0.026368,0
-1.620499,-0.589849,0.830977,2.198246,-5.000899,0.560798,-0.567171,1.450997,-0.30147,0
-0.497969,0.852045,0.517612,3.151088,-2.611478,1.546683,0.006933,0.453266,-0.111131,0
-1.619788,0.904047,-0.384972,2.022515,-0.639113,3.977397,-0.150832,-0.882509,0.166629,0
-2.390635,1.154469,0.472408,1.613954,1.123406,3.639877,-0.707552,-2.443561,-0.185063,0
-1.8187,1.160267,0.304434,2.698933,2.418677,3.120466,-0.486546,-1.242795,-0.133326,0
-1.988293,0.375757,0.934353,2.512604,1.535819,4.985057,-0.287148,1.220816,0.058766,0
-2.173086,0.069657,1.369447,0.269463,4.685927,1.08793,0.076347,1.888021,-0.110212,0
-0.35751,0.31103,1.067713,-0.333662,2.983214,1.186929,0.475804,2.234548,0.007943,0
0.249136,1.103829,1.340221,-0.146535,1.637568,1.300035,0.835331,1.641975,0.129163,0
-0.773332,0.07845,0.57518,-1.875989,-0.095654,0.095082,1.167332,0.607619,0.530257,0
-0.200365,0.241198,-0.266144,-1.757259,-0.271442,-0.410968,1.759028,-0.066041,1.184038,0
0.882583,0.345578,-0.470062,-1.627854,-0.136269,-1.46538,1.775532,-0.590669,0.970448,0
1.415827,0.280935,0.412908,-1.329982,-0.34378,-1.579682,0.773749,-1.409859,0.356558,0
2.398494,-0.091295,0.268652,-0.296925,-1.542822,-1.214197,-0.933688,-2.690937,-0.102248,0
1.9479,-0.082084,1.307626,0.467584,-0.977669,-1.731436,-0.851953,-2.068683,-0.149145,0
1.206108,-0.58899,1.369721,-0.108792,-1.114926,-1.096761,-0.835532,-1.547275,-0.21963,0
0.977456,-0.894176,0.931176,-0.541584,-1.543645,1.631104,-0.647738,1.935561,-0.862935,0
0.822146,-0.869988,0.893197,0.998767,-0.604966,2.165016,0.180846,1.876904,-0.18125,0
0.312205,-0.723308,0.804848,1.930483,0.257745,2.352789,0.536587,2.236012,0.109458,0
-0.210898,0.037887,1.163991,1.389958,1.16138,1.941086,0.432772,0.271084,0.378963,0
-0.817395,0.640548,1.611687,0.578901,1.161143,2.559948,0.853879,-0.585688,0.658489,0
-1.157581,0.830422,2.200123,0.344136,2.186842,3.028591,0.771957,-0.536249,0.916519,0
-0.470017,0.441626,1.523714,0.549083,2.669886,2.900367,1.018609,-0.54695,1.063159,0
0.751795,1.530033,2.31431,0.992121,1.98785,1.776036,0.715603,0.833985,0.777163,0
0.178899,-0.044558,1.373443,0.657123,0.097406,2.468762,1.117811,0.58816,0.642905,0
0.195933,-0.664457,0.284071,-0.466357,0.587098,0.915769,0.625436,-0.281112,0.597333,0
1.941861,-1.399939,0.636254,-1.11594,-0.536447,-0.596082,0.04901,-0.476298,0.084281,0
4.210905,-0.756151,0.630497,-1.541952,-1.634155,-0.345387,0.142492,0.185312,0.079782,0
2.416362,-1.209763,1.420814,-1.741869,-1.840073,-1.81221,0.205696,0.093846,0.03762,0
0.232949,-2.491788,1.851404,-2.148385,-2.198393,-0.948353,0.302092,-0.399273,0.202368,0
0.571212,-0.757765,1.851006,-1.214968,-2.270604,-0.534824,-0.331721,-0.216722,0.045426,0
0.213054,0.604341,2.091899,0.136048,-1.074428,-0.835587,-0.097708,0.244979,0.32187,0
-1.68084,-0.659805,0.408968,1.431356,0.255949,-0.97225,0.246484,0.507625,0.11378,0
-1.555733,1.438588,1.197259,0.943325,0.242166,0.842255,0.191187,0.524888,0.034065,0
-1.25332,1.429357,0.03325,0.616592,1.296524,1.271688,-0.074665,0.095926,0.220757,0
-1.398958,2.541965,-0.022895,2.370979,2.009584,2.462852,-0.13897,-0.35625,0.015849,0
-2.506567,1.947193,-2.28576,4.67667,1.240606,3.057224,-0.09634,-0.404003,0.104521,0
-1.662984,1.148373,-4.358094,0.329311,1.204617,1.657707,0.131793,0.352466,0.014287,0
-2.323222,0.10282,-0.493716,-0.79222,0.491185,0.827252,0.425734,0.815824,-0.153882,0
-2.045009,-1.31415,-0.470847,-0.042077,1.073248,2.489958,0.396702,1.108906,0.203719,0
-1.504677,-1.291534,1.505312,-0.911373,1.768581,2.037914,-0.037381,0.532812,0.167007,0
1.646838,-2.100547,0.159,-2.294911,0.601528,3.682758,0.179087,-0.387791,0.191623,0
5.802763,-0.442747,1.321974,-3.197421,0.389523,2.792562,0.307434,-0.558086,0.323412,0
4.226862,0.459595,3.57983,-2.983663,-0.682676,-0.755949,0.5799,-0.481221,0.191519,0
0.994267,-0.989235,3.238086,-3.230416,-2.256707,-3.586116,0.825907,-0.287995,0.143167,0
0.571634,0.347779,2.614658,-2.362114,-2.915317,-4.605357,0.913762,-0.247898,0.539665,0
0.631462,0.261732,2.800006,0.069519,-4.315485,-2.466085,0.607506,-0.165763,0.289174,0
0.112839,-0.432411,1.555043,2.78565,-2.986282,-0.88797,0.366147,-0.393751,-0.013764,0
-1.499469,-1.09947,2.676685,4.106762,-1.569546,0.302989,-0.012776,0.142535,-0.156898,0
-1.488529,0.751347,1.626577,4.238505,-0.987453,3.322119,-0.124596,0.264589,-0.310156,0
-1.786017,0.789422,-0.239715,2.006608,0.637842,1.289924,-0.221132,0.458461,-0.125047,0
-2.558843,0.959136,-2.394252,0.298845,1.843098,0.656646,-0.300637,0.32239,0.072524,0
-1.885704,0.646282,-2.56379,2.261623,1.084047,0.405309,-0.151595,-0.360155,-0.022742,0
-0.762013,0.634537,-1.256308,0.833196,1.776901,0.140277,-0.158962,-0.589025,-0.14681,0
-1.044737,0.127208,-0.906216,-1.277311,1.167657,0.732451,-0.227984,-0.1264,-0.046988,0
0.035242,-0.015649,-2.148524,-1.18666,2.039599,0.558121,-0.493944,0.252286,-0.126451,0
0.144967,0.445762,-0.60443,-0.981698,1.538505,-0.305209,-0.159078,0.305179,-0.104205,0
0.356427,-0.591234,-1.124295,-0.802155,0.83242,0.502119,-0.133473,0.411687,0.061015,0
0.60112,-0.976219,-0.828366,-0.471722,1.211985,0.624891,-0.060702,0.46237,0.169964,0
1.194825,-0.633927,0.678491,-0.997406,0.538615,0.043058,0.139091,0.365616,0.052387,0
2.956668,-3.07615,-2.690798,-2.647134,0.582739,0.374733,0.050086,0.482312,0.086116,0
3.006298,0.897583,2.491854,-1.78933,0.550789,-0.773997,-0.058241,-0.564045,0.316089,0
0.053124,-1.842839,0.470782,-0.691845,-2.029978,-1.115602,-0.105373,-0.736928,0.101185,0
0.526574,-0.287991,0.36948,-2.132651,-1.642869,-1.621411,0.438295,-0.202631,-0.017037,0
0.54316,0.430052,1.014756,-1.250456,-2.06312,-2.481769,0.131334,-0.074816,0.183668,0
-0.472909,0.156538,0.21543,-0.896705,-1.406985,-2.515249,0.093374,0.281412,0.051875,0
-1.016477,0.027133,1.26201,0.61045,-1.06794,-1.906012,-0.259794,0.302338,0.029867,0
-0.18687,0.446668,1.892509,1.971755,-1.508429,-0.284276,-0.00606,0.097012,0.061558,0
-1.060991,0.431926,0.871794,2.016039,-0.666546,0.59901,0.50088,-0.303356,0.214866,0
-1.375065,-0.192534,1.235369,2.26812,0.570312,0.700712,0.186132,0.231396,0.140567,0
-0.621579,0.114738,0.595006,2.414657,0.974332,1.525241,-0.216966,0.441539,0.217117,0
-1.228345,-0.062896,0.180146,2.309594,1.058797,1.911648,-0.100897,-0.239767,0.045499,0
-0.358391,-0.173472,-0.780797,1.07202,1.2582,2.242213,-0.340214,-0.35231,0.027378,0
-0.014617,-0.469649,-1.454458,1.157307,2.036041,0.731256,-0.155912,-0.114502,0.050703,0
0.243905,-0.240451,-1.342868,0.615402,1.178705,0.88873,-0.370265,0.3773,-0.109033,0
0.255475,-0.854172,-1.130181,0.390489,1.330063,1.649095,0.179514,-0.061605,0.157791,0
0.688579,-0.799677,0.05273,-0.477964,1.598199,-0.855184,0.467167,-0.449914,-0.001847,0
1.358723,-1.654146,-4.131257,-0.404071,0.431357,-0.478119,-0.015485,0.318407,0.234939,0
4.942533,0.466084,-0.262606,-0.399434,0.885144,-0.852533,0.485698,0.024375,0.045535,0
2.612003,-1.488935,1.95929,-0.809238,0.958082,-0.837035,0.191044,0.027643,0.224125,0
1.334541,-2.006496,0.913903,-1.070272,0.444525,-0.888396,0.006247,0.399523,-0.031713,0
2.377521,-0.189164,0.710976,-1.301858,-0.180199,-0.275631,0.182282,-0.13722,-0.030914,0
0.740212,-0.718663,-0.049745,-0.62303,0.088186,-1.826611,-0.141502,0.074897,-0.053471,0
0.410935,0.118071,-0.154413,-0.830874,-0.632915,-1.816695,-0.618496,0.422888,-0.01499,0
0.230913,1.331407,-0.88412,-1.269552,-2.20393,-0.90357,-0.710691,-0.237416,0.549026,0
-1.019199,1.017793,-2.054557,-0.928239,-2.222626,-1.784126,-0.357051,-0.231704,0.139671,0
-0.450865,2.403305,-0.727108,0.029687,-1.895356,-2.843296,-0.461389,-0.312734,-0.036362,0
-1.43356,1.980839,-1.148393,-0.302052,-1.836737,-3.223278,-0.728902,0.254734,0.663629,0
-1.315166,1.719361,-0.821196,-0.721213,-1.287034,-2.838371,-0.759142,0.653069,0.247303,0
-1.11718,1.631917,-0.305995,-0.214947,-1.09912,-0.084476,-0.62453,0.505548,-0.024726,0
-1.622507,1.209367,-0.510572,0.015359,0.760543,0.219121,-0.165309,0.523268,0.083926,0
-1.597834,0.583278,0.416501,1.350186,1.613547,1.665809,0.178007,-0.3998,0.138866,0
-1.62971,0.080627,0.202551,1.295217,0.991111,3.226154,0.260675,-0.716886,0.200175,0
-1.50194,0.087384,-0.779282,-0.040524,0.688977,0.9177,0.28471,-0.140723,0.13466,0
-1.097759,-0.235034,-0.289105,0.086648,0.346573,-0.124958,0.059164,-0.12234,0.13517,0
-0.400391,-0.194103,-0.290382,-0.296686,-0.009634,-0.573565,-0.319936,0.138846,0.131899,0
0.203894,-0.206566,-0.168306,-0.208266,-0.720597,-0.187414,-0.053573,0.248845,0.228072,0
0.641052,-0.244727,-0.060783,-0.4834,-0.594341,-0.619762,-0.094253,0.287934,0.253885,0
0.852633,-0.095681,0.20379,-0.727464,-0.603926,-0.427794,-0.067687,0.218996,0.154723,0
0.655855,-0.070171,-0.122867,-0.256045,-0.6588,0.449426,0.162867,-0.015931,0.094296,0
0.53414,-0.059222,-0.277396,-0.526483,-0.605841,0.208881,0.465847,-0.117869,0.200143,0
0.280276,0.003038,-0.725748,-0.61185,-0.48607,-0.128555,0.500738,-0.192065,0.118621,0
0.061946,0.081619,-1.339218,-0.320515,-0.297631,-0.050182,0.440141,-0.25215,0.103374,0
0.023728,0.068445,-1.536237,-0.164536,-0.228941,-0.610127,0.083999,-0.086356,0.073186,0
-0.296515,-0.015039,-1.974783,-0.374271,-0.393514,-1.143423,-0.19551,-0.00703,0.178068,0
-0.380559,-0.076152,-2.827193,-0.47479,-0.33905,-1.813392,-0.229591,-0.056488,0.099299,0
-0.60821,-0.839925,-2.404086,-0.383912,-0.269133,-2.420612,-0.032905,0.024355,0.133114,0
-0.360388,-1.091843,-2.930647,-1.217056,0.185486,-4.298773,-0.051207,-0.02324,0.076435,0
0.472771,-1.368115,-2.659039,-1.008716,0.396796,-3.960417,-0.043504,-0.039645,0.093341,0
0.97882,-2.129998,-1.358296,-1.262908,1.287017,-3.722639,-0.118656,-0.064267,0.185205,0
1.031194,-3.099463,0.349661,-1.605337,2.61155,-2.993721,0.087389,-0.171356,0.058573,0
1.603104,-3.577075,1.749393,-1.299339,3.520338,-2.054438,0.05274,-0.119885,0.086831,0
2.168966,-3.725569,3.470422,-0.867426,4.402025,-0.294351,-0.082414,0.089255,0.106625,0
1.433345,-2.719974,5.523043,-0.502711,4.701432,2.165118,-0.172485,-0.048745,0.093586,0
3.3e-05,-2.273297,4.709962,-0.220706,3.780904,4.449701,-0.266841,0.059899,0.143204,0
-0.22399,-1.828507,3.338714,-0.443459,2.712715,5.012191,-0.227804,-0.010083,0.066285,0
0.572897,-0.026077,1.966037,-1.198412,2.722585,4.150509,-0.3059,0.107507,0.17272,0
0.336267,2.044199,1.188404,-1.087297,2.698236,3.041251,-0.298822,0.029505,0.112586,0
-0.442916,2.864131,0.565825,0.660218,1.007818,2.665109,-0.198616,-0.116464,0.130347,0
,,,,,,-0.20852,-0.052618,0.133833,0
-0.045508,1.290195,0.460315,1.592999,-3.406162,-0.664004,0.634585,-0.067542,0.142195,0
0.27283,0.954605,0.566957,1.435022,-2.988007,-0.429482,0.89818,-0.600488,-0.149645,0
0.56526,0.59707,0.522346,1.201712,-2.524122,-0.19572,0.851732,-0.014415,-0.009142,0
0.797658,0.24458,0.424796,1.004632,-2.023783,0.020462,0.37647,0.051056,-0.120907,0
1.039733,-0.127581,0.33926,0.781746,-1.464698,0.193341,0.019073,-0.089014,0.088403,0
1.31667,-0.54783,0.183405,0.519576,-0.844589,0.365016,-0.157837,-0.471302,0.226196,0
1.633062,-0.951762,0.265183,0.329927,-0.184394,0.850322,-0.257725,-0.293596,0.203221,0
1.51197,-1.759143,0.472494,0.136928,0.327326,1.175691,-0.651846,-0.259941,0.296932,0
1.522122,-1.918323,0.051065,-0.148409,0.716679,1.076142,-1.034683,-0.178518,0.184121,0
0.959457,-2.177096,-0.188897,-0.464782,1.060111,1.056994,-1.54065,-0.038248,0.294415,0
0.244427,-1.895536,0.300138,-0.730473,0.648743,1.785337,-1.420906,-0.253442,0.158829,0
-0.199028,-1.461876,1.000061,-0.432007,-0.894744,3.283718,-0.965944,-0.226925,0.264475,0
-1.391566,-1.435094,0.963829,-1.23964,0.124535,2.652654,-0.763097,-0.10465,-0.037235,0
-2.058195,-0.34027,1.678706,0.498263,-0.534594,3.941925,-0.152536,-0.792962,0.217983,0
-1.124437,1.443957,1.833396,0.302364,-1.467251,4.609544,-0.108039,-0.652557,0.231504,0
-0.51954,1.680444,0.751576,0.199783,-2.179884,2.907172,0.470004,-0.086706,0.226855,0
-1.071194,0.552747,-0.255287,0.426626,-1.246732,-0.348608,0.807546,0.194869,-0.04628,0
-0.981509,0.750907,-0.585708,0.032087,-1.619159,-2.834671,0.836157,-0.236749,-0.065386,0
-0.042528,1.117286,-0.964737,-0.559111,-1.124128,-7.236874,0.45238,0.014375,0.163455,0
-1.025572,1.511504,-0.708935,-1.32695,-3.065266,-10.375612,-0.008027,0.49154,0.220162,0
-1.480445,1.960127,0.29419,-1.248358,-0.256076,-5.428177,-0.025563,0.155193,0.195083,0
-1.468917,0.453868,0.914919,1.378845,4.137525,2.268791,0.159354,0.167849,0.141176,0
-0.679093,-1.652126,0.42834,6.223703,9.033272,1.382653,0.143834,-0.199039,-0.031602,0
0.020358,-3.023246,-0.583078,0.233342,5.783478,2.922701,-0.421311,-0.471662,0.072212,0
-0.066373,-3.022381,-1.30943,-2.263757,2.190983,1.323362,-1.129233,-0.227983,0.160784,0
0.17324,-2.238964,-2.235862,-0.72339,1.436285,-0.850266,-1.055656,0.286065,0.076267,0
0.687478,-0.765381,-3.564999,-1.442079,0.584241,0.207862,-0.477639,0.212895,0.232439,0
1.485838,-0.374527,-2.558242,-1.80837,-0.400721,3.002784,-0.092545,0.207304,0.168086,0
2.429634,-0.998187,-0.395859,-2.298167,-1.280142,3.091887,0.210841,0.178023,0.130461,0
2.75105,-1.186353,1.199668,-2.929255,-0.809863,1.159157,0.309974,0.123806,0.217304,0
3.786276,-0.822823,-0.113954,-2.591021,-0.745846,-1.711561,0.293076,-0.258443,0.431695,0
3.019449,-0.438671,0.543214,-1.385984,-2.228249,-2.629327,-0.108329,0.09285,0.065899,0
0.598304,0.52901,2.038989,-0.718189,-1.995409,-4.093956,-0.476776,0.184018,0.038549,0
-0.585233,1.090077,1.606334,1.136446,-2.023994,-4.174541,-0.669808,0.341658,0.169228,0
1.442389,2.340175,-0.016934,2.814466,-2.527478,-1.358227,-1.023542,0.260241,0.329625,0
-0.987938,0.290313,-0.991384,3.045789,-2.422965,0.138358,-1.459445,0.732166,0.215695,0
-1.814764,-0.084984,-0.103629,2.416474,-0.947176,-0.424252,-1.82943,0.461479,0.327984,0
-0.918803,-0.258566,-2.264729,1.837234,-0.55073,-0.210353,-1.391138,-0.134558,-0.314601,0
-0.77171,-0.194881,-2.151904,2.715388,-0.33529,-0.036455,-1.388751,0.118057,0.011348,0
-1.386106,-0.82701,-1.200001,0.163952,0.345956,-0.389436,-2.09368,2.915057,-1.042809,0
-0.50584,-0.512233,-0.234275,-1.053948,1.260386,-0.312228,-0.693226,1.157905,-0.358889,0
0.098385,-0.130424,0.047862,-0.505481,1.564118,1.287142,1.317367,-0.655993,-0.178023,0
-0.490616,0.114661,0.481905,-0.605281,0.801027,1.885665,1.790449,-0.863877,0.352435,0
-0.630991,0.600607,0.288064,-0.683582,1.046893,1.16525,1.010676,-1.44491,-0.051625,0
-0.558465,0.871955,-0.860806,0.732137,1.202966,1.176895,-0.042975,0.735812,0.199123,0
-0.508393,0.969119,-0.721313,0.590116,0.807015,1.197297,0.422599,-0.089521,0.154131,0
-0.237479,0.785012,-0.645739,-0.438496,0.538702,0.724327,0.180626,-1.795089,0.190317,0
-0.096148,0.317771,-0.748326,-1.854577,0.203887,0.312165,0.003391,-0.998961,-0.100361,0
0.288702,-0.014829,0.461206,-1.245477,-0.049921,-0.68724,-0.022614,-0.227691,0.212038,0
0.790323,-0.784271,0.834765,-1.884573,-0.616414,-0.580791,0.745537,-0.92726,0.454127,0
1.55286,-0.419871,0.932528,-1.340426,-1.686585,-0.674262,1.439733,-0.146494,0.138559,0
1.448529,-0.462878,1.290566,-1.271289,-2.189447,-1.268661,0.978906,-0.745249,0.81476,0
1.531353,-0.732612,1.373003,-0.805947,-2.389732,-1.099095,1.299827,-0.636827,0.607478,0
2.037561,-0.317187,1.013201,-0.20612,-2.688149,-0.843372,1.238288,0.074662,0.42917,0
1.644014,-0.132564,1.424418,0.028155,-2.142835,-1.266186,0.654991,0.124477,0.587221,0
0.960823,-0.165642,0.818066,-0.015892,-2.039954,-1.159973,0.477173,0.156444,0.142834,0
0.671482,0.162572,-0.044087,0.47794,-1.784603,-1.140304,0.617196,0.118818,0.049335,0
-0.679607,0.261321,0.159606,1.950982,-1.066157,-0.261706,0.239448,1.614738,0.054329,0
-1.341304,0.043251,-0.314963,1.606913,-0.341059,0.297329,-0.013289,0.4426,0.096002,0
-0.972095,-0.018416,-0.393283,2.25716,-1.165073,2.280193,-0.16407,0.195632,0.174307,0
-0.892853,0.612298,-0.999485,1.068458,0.069286,2.620436,-0.087621,0.002045,-0.007503,0
-1.23123,0.708592,-0.587467,0.592621,2.174461,1.649011,-0.617886,0.182376,0.12326,0
-0.648646,1.219202,-0.120055,0.667318,2.521273,1.9571,-0.941933,0.49741,-0.220284,0
-0.842433,0.454956,-0.799711,-0.145221,2.012721,1.604576,-0.768581,-0.154438,-0.434399,0
-0.409019,0.260496,-0.955722,0.232893,1.669112,0.562541,-0.270467,-0.405848,-0.007424,0
-0.046881,0.669542,-0.32712,-0.168851,1.146717,0.709743,-0.326519,-0.344839,0.25351,0
-0.313331,-0.164283,0.379524,-0.503694,0.426895,1.048971,0.446415,-0.30824,0.024302,0
0.52102,0.470587,1.10215,-0.329827,0.548763,0.11299,0.604544,0.405226,0.239484,0
0.051079,-0.058494,2.429031,-1.645337,0.78004,0.141644,0.559667,0.521505,0.362207,0
-0.0996,-1.341547,1.734593,-1.847692,-1.22072,0.253118,0.424347,-0.352779,0.449149,0
1.263543,-0.990883,0.930707,-2.11862,-2.113285,-1.051539,0.196241,-1.236626,0.401804,0
1.94089,-1.049258,1.220907,-2.952311,-2.546118,-2.87445,0.136767,-1.314651,0.321673,0
1.705949,-0.349077,0.951731,-1.646103,-2.648238,-3.064238,0.260595,-1.106393,0.378542,0
1.850218,0.705356,0.37357,1.335115,-3.284791,-2.141388,0.812328,-0.030869,0.154263,0
1.021298,0.406919,-0.771985,2.252794,-2.978433,-1.756128,0.501696,1.690728,0.250496,0
-0.153143,0.448626,-1.588963,3.597759,-2.63475,-1.271275,0.383376,1.047232,0.202399,0
-0.507366,0.447683,-1.805043,3.052758,-1.417707,-1.109281,-0.280579,0.576429,-0.080547,0
-0.463168,0.083392,-1.827393,1.28359,1.019387,-0.122536,-0.86965,-0.151123,-0.094442,0
-1.520159,0.374523,-2.156612,-0.04646,2.764539,0.60085,-0.85718,-0.575872,-0.352668,0
-2.11874,1.020525,-2.577019,-0.03448,2.423588,-0.3859,-0.438157,-0.284538,-0.204662,0
-1.748985,1.24505,-2.330151,2.130622,1.425828,3.133101,-0.23148,0.392956,0.053302,0
-1.73075,-0.621415,-1.015656,-1.080274,2.922719,3.435562,0.064957,0.302423,0.056485,0
-0.209846,-0.606111,1.256709,-1.087584,2.930498,4.72189,0.209486,0.358879,0.161098,0
1.191438,-0.959558,2.605246,0.08147,3.807009,3.077962,0.169479,0.382752,0.257722,0
1.733511,-1.414853,2.175826,-0.149387,0.490275,2.472999,0.102455,0.319548,0.071276,0
1.352064,-0.490689,2.145419,-1.261261,-0.674991,-0.677682,0.017759,0.115858,0.081417,0
1.902359,-1.13874,0.35017,-1.64494,-2.305919,-3.0419,0.018624,-0.332001,0.240008,0
1.877788,-0.707144,1.762727,-2.254852,-4.629703,-3.872712,0.230566,-0.471612,0.28622,0
1.637877,-0.249936,2.335788,-1.165759,-4.984962,-3.972025,0.354176,-0.222819,0.180383,0
1.372484,0.649328,1.475983,-0.165018,-4.112031,-4.130808,0.300309,0.284138,0.079327,0
0.218926,0.715593,1.017075,-0.348317,-2.482091,-2.600346,-0.214223,1.226632,-0.151903,0
-0.998009,-1.000969,-1.175403,-0.457219,-0.883145,-0.039872,-0.696861,0.409918,-0.171186,0
-1.352041,-0.270131,-1.644794,0.879942,0.712274,1.246875,-1.090834,-0.236624,-0.461822,0
-1.721014,0.698014,-1.416899,2.139373,0.572861,2.281445,-0.542405,-0.101727,-0.205873,0
-2.284793,0.469152,-1.58837,3.006679,-0.251069,5.013586,-0.187521,-0.043165,0.04873,0
-1.706461,1.154201,-0.922035,0.810633,2.62445,2.183537,0.04682,0.884448,-0.142883,0
-1.528278,1.047025,-0.897078,-0.246472,2.318872,0.92339,0.454638,2.198751,0.162518,0
-1.20769,1.181532,-0.769514,-0.172407,0.48444,0.47223,0.052754,1.719271,-0.234305,0
-0.368417,0.772651,-0.5499,-0.252548,0.596585,-1.815108,0.232185,-0.613092,-0.156808,0
0.799041,0.041021,-0.503876,-1.294791,0.619134,-3.000605,0.352689,-0.466917,0.515157,0
1.923798,0.14845,1.269996,-2.13869,-1.000924,-1.890632,0.371115,-1.364635,0.402497,0
1.774008,-0.698287,2.288322,-1.31355,-1.590641,-0.777282,0.226639,-0.795574,0.392183,0
2.647278,-0.823133,3.022371,-0.423501,-1.60951,0.735497,0.174697,-0.132961,0.444356,0
1.919416,-0.685724,3.841319,-0.109612,-1.857686,1.447504,0.162311,-0.95954,0.259383,0
0.216094,-1.176293,3.094407,0.867417,-1.486412,1.024673,0.096659,-0.670493,0.37576,0
0.192112,-0.184375,2.10983,0.993632,-1.867357,1.482582,0.310237,-0.560929,0.381665,0
-0.535531,0.393627,1.039041,0.09474,-0.098905,-0.033844,0.24001,-0.143318,0.234779,0
-1.086736,0.506713,-0.1391,0.386057,0.538833,0.457105,0.130279,1.05023,0.057675,0
-1.298848,0.869797,-0.666313,1.024716,-0.518135,1.86666,0.490628,1.327818,0.065132,0
-1.304799,0.915581,-0.702088,0.522391,0.778612,3.009684,0.487942,0.650457,0.230036,0
-0.858262,1.037343,-0.930109,0.38415,1.243246,3.74927,0.062538,0.64204,0.294442,0
-0.515397,0.894724,-0.771658,1.062671,1.061259,3.619451,0.532091,-0.045723,0.32359,0
0.1653,0.540757,-0.15339,-0.089057,1.998553,2.392322,0.345246,0.479938,0.433634,0
0.85589,-0.261584,0.428736,-0.741055,0.455909,2.716628,0.587984,0.592968,0.566011,0
0.20243,-2.157274,1.338587,0.294627,0.084553,2.784973,0.464768,-0.203443,0.411206,0
-0.006484,-1.359127,2.234684,-0.568707,0.787226,1.222508,0.191159,-0.588808,0.338736,0
-0.291049,-2.892501,1.667931,-0.313406,-1.994434,0.713582,0.032155,-0.602823,0.40593,0
2.323111,-0.696373,2.508559,-1.249176,-1.048001,-0.868205,0.135444,-0.713473,0.286726,0
1.83324,-1.188593,2.202868,-0.606598,-1.928563,-1.847322,0.091209,-0.31777,0.249315,0
2.087724,1.19781,2.636766,-1.150027,-1.967086,-3.699251,0.038881,-0.070542,0.181389,0
0.864618,0.170849,2.752326,0.537198,-2.399606,-3.794179,0.249672,-0.04342,0.189462,0
0.766468,1.380799,1.80917,1.666617,-2.472578,-3.153238,0.489497,0.244208,0.145667,0
0.116319,1.020134,2.336156,1.616935,-1.20718,-1.415685,0.69591,0.426826,0.328872,0
-0.672363,0.360894,0.829042,0.695583,0.539379,0.197757,0.50611,0.468605,0.300896,0
-1.607494,-0.542551,-0.954294,1.133602,0.368578,2.250751,0.069149,0.486126,0.072236,0
-0.621982,0.862031,-0.238736,1.051671,1.709615,3.37035,-0.253406,-0.210898,-0.043828,0
-1.655067,-0.00032,-1.176986,0.878759,2.329105,3.54294,-0.870021,-0.456813,-0.103108,0
-1.520285,-0.208311,-2.41151,1.312891,0.875905,3.206023,-0.624389,-0.631168,-0.033618,0
-0.833193,0.615912,-1.587577,0.805723,0.292169,3.735318,0.036741,-0.775163,0.110499,0
-1.690483,-0.609195,-3.101098,-0.755293,0.577526,3.209112,0.299435,0.223982,0.125903,0
-0.901266,-0.566831,-0.972192,-1.731108,0.788477,2.580737,0.620772,0.30795,0.195833,0
-0.114465,0.267946,1.686723,-2.425657,1.265738,1.403359,0.82658,0.260605,0.320572,0
0.426458,0.316746,2.359365,-1.360883,-0.138839,0.922958,0.639291,0.319227,0.327459,0
1.050721,0.4125,1.838279,-0.471054,-1.451,1.293994,0.132908,0.390067,0.019632,0
1.363912,-0.312117,1.452805,-1.368004,-0.327108,0.549163,-0.140947,0.232976,0.128229,0
1.377283,-1.041321,1.43701,-1.914525,-0.995322,-1.255486,-0.197288,-0.421473,-0.089108,0
1.05217,-0.450563,2.032955,-0.946513,-2.479587,-2.012889,-0.106176,-0.273273,-0.054212,0
1.169768,0.312312,1.610395,-1.507342,-1.967279,-3.798503,0.067541,0.159025,0.188899,0
1.184116,-0.578799,0.805024,-1.678243,-2.217612,-4.068204,-0.245285,0.297713,0.075644,0
1.037747,0.264926,0.955062,-0.420777,-2.511092,-3.878291,-0.267493,-0.076854,0.056024,0
0.65396,0.179613,0.698788,0.401914,-1.759643,-3.052515,-0.281325,-0.078785,0.0572,0
0.3859,0.923378,0.405281,2.252753,-2.068856,-2.154786,-0.497915,0.388834,-0.084257,0
-0.862362,-0.322346,0.144631,2.110927,-0.811547,-0.8822,-0.04278,0.738114,0.044107,0
-0.554061,-0.257801,0.246367,2.327659,0.780761,0.922801,-0.298195,1.09124,0.205686,0
-1.281364,0.803055,-0.586971,1.178803,1.045743,1.398198,-0.278961,0.454106,0.00782,0
-1.923479,-0.214664,-2.361526,1.309681,0.682378,1.644801,0.014622,-0.288283,-0.057433,0
-1.340912,0.815472,-1.860301,1.759875,0.057401,1.396433,0.206182,-0.191771,0.001944,0
-1.378304,0.772536,-1.392576,0.978468,1.525319,1.585283,0.163285,0.458664,0.107581,0
-1.423819,-0.341383,-1.381088,-0.48983,3.256968,2.212479,0.154619,0.186351,0.198055,0
-0.781591,0.213256,-0.000728,-0.896186,1.533638,2.118047,0.320932,-0.318163,0.162313,0
-0.295342,-0.143593,-0.139899,-0.083128,-0.186953,1.872553,0.413221,-0.548541,0.250807,0
0.001762,-0.365527,-0.655699,-0.568261,0.289886,1.18374,0.024254,-0.247941,0.227322,0
0.655474,-0.852801,-1.225788,-0.653035,0.586306,0.369705,0.182371,-0.607314,0.177679,0
1.420504,-0.642445,0.240722,-0.965957,-0.637353,0.767214,0.096599,-0.64505,0.050101,0
1.10753,-0.92538,1.064419,-1.350541,0.190587,0.078066,0.16546,0.173161,0.061911,0
1.271938,-0.937916,1.147597,-1.79347,0.435329,-0.112764,-0.054019,0.717056,0.112565,0
1.626534,-0.422273,1.922547,-1.1547,-0.873375,1.845597,0.061283,0.505604,0.168987,0
1.548642,-0.437941,1.768584,-0.964747,-0.559412,-0.340615,-0.203215,-0.114247,0.24724,0
1.475313,-0.170267,2.011054,-1.375472,-0.42551,-1.317367,-0.244965,-0.368488,0.145133,0
1.112111,-0.448973,1.688038,-0.963101,-0.980292,-2.724635,0.094793,-0.553399,0.116402,0
0.763679,0.495426,1.30618,1.2007,-2.473402,-2.258928,0.023142,-0.666114,0.115417,0
0.014493,0.591926,1.085979,1.461683,-2.252228,-2.363674,0.00514,-0.020775,0.045658,0
-0.391059,0.586854,0.554644,1.26162,-1.008829,-2.390195,0.314576,0.199179,0.003337,0
-0.872073,0.563032,0.201943,1.68407,-1.05762,-0.72125,0.204859,0.355337,0.120427,0
-1.3261,0.253807,-0.646296,0.561049,-0.971699,0.751221,-0.054284,0.569933,0.055983,0
-1.451028,0.079543,-1.329461,0.786276,0.24429,0.498765,-0.359707,0.04089,0.058414,0
-1.48846,0.194898,-1.590723,1.274507,0.864076,1.343889,-0.532053,-0.327755,0.026461,0
-1.527821,0.359735,-1.876575,0.211299,0.904854,1.832705,-0.39398,-0.070672,0.018166,0
-1.408966,0.335483,-1.887205,-0.102569,1.075997,1.784761,-0.533876,0.126863,0.059054,0
-1.252561,0.152721,-1.274263,0.376424,1.078008,1.562165,-0.351932,0.188164,0.095417,0
-1.090093,-0.309829,-1.122769,0.147897,0.254748,2.196425,-0.248315,0.013976,0.039478,0
-0.418925,-0.667075,-1.230531,-0.55868,1.258353,0.271915,-0.52118,0.256208,0.097257,0
0.662785,-0.759483,-2.11266,-0.870696,0.731513,0.405885,-0.273374,0.283903,0.064653,0
1.99633,-0.755139,-0.866103,-1.001536,-0.285789,1.704155,-0.325462,0.190071,0.084204,0
2.487863,-0.491643,2.715542,-1.176719,-0.267053,0.217726,-0.34008,-0.075643,0.156783,0
2.72417,-0.444075,3.435192,-1.002564,-0.705448,-0.188561,0.333378,-0.375687,0.078338,0
2.388469,-0.535039,3.0401,-0.897151,-1.18354,-1.358785,0.126476,-0.04553,0.112306,0
1.640927,-0.421138,1.854564,0.171189,-2.305311,-1.998489,-0.136088,0.193989,0.294635,0
0.941214,0.004138,1.033537,0.38723,-2.527726,-2.880315,-0.125832,0.23666,0.111723,0
0.386746,0.574334,0.197194,0.236269,-2.279248,-2.713487,0.070603,0.276453,0.082373,0
0.27723,1.051788,0.152325,0.462088,-1.636928,-2.360969,0.21312,0.242234,0.285867,0
0.489104,1.206894,0.386364,0.727086,-0.727253,-1.894454,0.168771,-0.266233,0.092179,0
0.136832,0.988625,0.415689,1.215177,0.681678,-0.502785,0.113297,-0.238665,0.145821,0
-0.313253,0.756276,-0.364737,2.058677,1.721338,0.552153,0.209359,-0.561173,0.068276,0
-0.827755,0.553043,-1.237801,1.170043,2.177709,0.076406,0.405668,-0.043068,0.138758,0
-0.914477,0.359077,-1.971226,0.702698,2.029668,-0.74327,0.592514,-0.218272,0.016047,0
-1.23402,0.065131,-2.497288,0.262318,1.868707,-0.880401,0.708691,-0.482464,-0.007719,0
-2.253038,-0.32976,-2.826623,-0.559559,1.442794,-0.753217,0.559114,0.099083,0.115194,0
-1.227726,0.16932,-2.292104,-1.374488,1.016938,-0.796475,0.717246,-0.119681,-0.048783,0
-0.898854,-0.526307,-1.305138,-1.404373,0.759129,-0.965161,0.705853,-0.248691,-0.06508,0
0.034474,-0.352316,-0.792617,-1.092931,0.420923,-0.626538,0.150364,-0.021272,-0.04243,0
0.831561,-0.420913,-1.497432,-1.113211,0.044734,-0.405782,0.153552,0.164839,0.252877,0
1.635551,-0.118949,-0.281135,-1.188092,-0.352304,-0.186342,-0.357221,0.256952,0.338417,0
0.948697,-0.449043,0.553442,-1.148803,-0.688702,-0.180543,-1.548462,0.663445,0.31793,0
0.516241,-0.266132,-1.007802,-0.862321,-1.077786,-0.07795,-2.480659,0.989819,0.316459,0
0.776985,0.116883,-0.472474,-0.580131,-1.232729,-0.027773,-2.180418,0.923474,0.281818,0
0.718771,0.119831,0.550019,-0.001906,-1.51742,0.917685,-0.67275,0.543975,0.278191,0
0.562582,0.352009,0.890479,-0.114993,-1.309493,0.967487,0.500574,0.090259,0.220412,0
0.669473,0.903615,1.216508,-0.330686,-1.203645,0.936846,0.713426,-0.491514,-0.04277,0
0.109869,0.748971,0.709208,-0.063932,-1.444713,1.548499,0.690143,-0.629549,0.050708,0
-0.306512,0.695201,0.790564,0.138709,-1.311578,1.069554,0.478555,-0.489947,0.079608,0
-0.61875,0.491202,0.503612,-0.193946,-1.156163,0.402115,0.16629,-0.286041,0.118553,0
-0.563743,0.58537,0.555505,-0.324997,-1.167247,0.157475,-0.260636,0.005125,0.098776,0
-0.699173,0.371607,0.547516,-0.392044,-1.18368,0.306649,-0.504549,0.228889,0.11031,0
-0.502684,0.177543,0.1556,-0.519323,-1.087813,-0.163277,-0.330293,0.060431,0.126399,0
-0.205324,0.00268,0.43366,-0.262873,-1.361411,0.042407,-0.109866,-0.127042,0.125019,0
-0.25511,-0.294834,0.290954,-0.313075,-1.093988,-0.133338,-0.020561,-0.187418,0.071997,0
-0.017991,-0.393422,0.19048,-0.582487,-0.918182,-0.611243,0.134434,-0.074944,0.096508,0
0.105633,-0.404207,0.48461,-0.156204,-0.620972,-0.61227,0.057043,-0.102147,0.153398,0
0.071091,-0.432079,0.391661,0.3174,-0.338509,-0.634392,-0.151488,-0.045514,0.05642,0
0.040119,-0.290512,0.333267,0.196272,-0.229284,-0.526973,-0.179034,0.047675,0.136809,0
0.120586,-0.118218,0.150359,0.431164,-0.315309,-0.40576,-0.244015,0.01317,0.114003,0
0.001569,-0.182976,0.059335,0.908673,-0.193797,-0.320332,-0.282869,-0.017036,0.052736,0
0.409826,0.087766,0.522369,0.860812,0.202367,-0.722675,-0.167028,-0.006774,0.122203,0
-0.132152,-0.032801,0.400513,1.034137,0.336245,-0.581117,-0.025381,-0.152519,0.131251,0
-0.053864,-0.094442,0.024832,0.924619,0.618201,0.504178,-0.060471,-0.155549,0.05452,0
0.014136,-0.039766,0.03217,0.724757,1.366127,0.11212,-0.137786,-0.033015,0.081708,0
-0.279055,-0.278863,-0.272512,0.651723,1.48796,0.646482,-0.166439,0.005727,0.159923,0
-0.125056,-0.225443,-0.61587,0.244697,1.141115,1.040236,-0.192099,-0.084912,0.124237,0
0.015468,-0.194072,-0.817836,-0.091222,0.654055,0.599358,-0.239153,0.049999,0.148064,0
0.017139,-0.158078,-0.731289,-0.270981,0.298399,0.527421,-0.256211,0.094891,0.152627,0
0.121392,-0.03442,-0.57935,-0.389493,0.034353,0.344151,-0.229631,-0.035029,0.133873,0
0.358309,0.116718,-0.359437,-0.511227,-0.212738,0.046086,-0.162894,0.095833,0.141592,0
0.439465,-0.118826,0.114778,-0.595387,-0.485872,0.103574,0.004708,-0.056126,0.094719,0
0.663129,0.152145,0.505449,-0.548542,-0.557477,0.253361,0.03285,-0.080453,0.139881,0
0.620731,0.15367,0.606273,-0.418201,-0.521826,0.213144,0.02487,-0.134744,0.132384,0
0.518516,0.217722,0.497087,-0.440857,-0.412882,0.234413,-0.010009,0.084755,0.110519,0
0.32218,0.182424,0.485763,-0.438519,-0.348293,0.16034,-0.116652,0.0657,0.136837,0
0.099748,0.142702,0.401236,-0.351407,-0.258091,0.210009,-0.142224,0.02821,0.162514,0
-0.023195,0.086636,0.247578,-0.212055,-0.185858,0.171176,-0.080897,-0.006134,0.088515,0
0.086832,0.227921,0.272142,-0.072069,-0.137235,-0.033149,-0.01018,-0.133548,0.13004,0
0.023412,0.095347,0.25704,0.025428,-0.071748,-0.055157,-0.007217,-0.135955,0.113619,0
0.005745,0.124082,0.169224,-0.057859,0.085245,-0.292248,-0.041893,-0.066727,0.095408,0
-0.038686,0.124437,0.03768,0.017164,0.2156,-0.422641,-0.112668,0.01045,0.128097,0
-0.018156,0.11527,-0.07857,0.021679,0.545432,-0.983997,-0.139401,-0.000819,0.153953,0
-0.031819,-0.231798,0.372289,-1.772498,1.554199,-1.895324,-0.128046,-0.015632,0.107242,0
0.390658,-0.0639,0.609818,-0.41231,1.924976,-1.613567,-0.102051,-0.004708,0.109535,0
1.024207,0.529311,0.113384,1.835121,0.77775,1.784657,-0.144239,-0.144771,0.102983,0
0.480903,0.170513,0.493413,0.623446,0.032396,0.934607,-0.136964,-0.101695,0.115929,0
-0.518056,-0.443635,-0.5504,-0.817478,0.378675,-1.690262,-0.142015,-0.093635,0.139329,0
-0.217393,-0.004915,-0.298172,-0.668896,-0.137553,-1.69226,-0.119003,-0.042418,0.101406,0
-0.170596,-0.066491,-2.056327,-0.305128,-1.794755,2.723972,-0.108473,-0.023105,0.130118,0
0.54371,-0.339598,0.644526,0.524963,-0.895599,0.690936,-0.066768,0.045722,0.11786,0
0.20612,-0.468713,1.528156,0.854953,-0.609012,0.734741,0.018455,0.08378,0.136724,0
0.161587,0.056884,1.107949,0.202865,-1.745935,2.359716,0.069073,0.070736,0.148109,0
-0.199398,0.016269,0.364206,0.12604,-1.930448,1.52651,0.022799,0.021675,0.170243,0
-0.306753,0.196614,0.222271,-0.179159,-1.658618,0.395139,-0.042793,-0.086242,0.109979,0
-0.216592,0.298414,-0.005988,-0.034719,-1.131388,-0.242546,-0.051429,-0.086539,0.075431,0
-0.07134,0.277984,-0.029332,0.181574,-1.065812,0.634146,-0.062532,-0.09545,0.094524,0
0.064786,0.204775,0.210796,-0.19653,-0.541016,0.095503,-0.137671,-0.117072,0.085825,0
0.231369,0.076817,0.267797,-0.052286,-0.362873,-0.066142,-0.189658,-0.068415,0.122302,0
0.291621,-0.258507,0.396366,0.286152,0.042751,-0.599962,-0.212031,-0.079139,0.141528,0
0.314413,-0.364718,0.527245,0.13744,0.45558,-0.97669,-0.23949,-0.046193,0.082722,0
0.360726,-0.403945,0.115755,-0.336962,0.725345,-0.917649,-0.197035,-0.070128,0.088479,0
0.213544,-0.591848,-0.11801,-0.147733,0.577298,-0.563364,-0.12989,-0.039637,0.130207,0
0.272304,-0.632544,-0.280755,0.209232,0.068966,0.138986,-0.158482,-0.024994,0.152326,0
0.281298,-0.633163,0.240752,-0.106843,0.174631,-0.177547,-0.219046,0.022197,0.103932,0
0.112867,-0.489714,0.229068,-0.276988,0.074984,-0.174354,-0.221841,-0.007455,0.10663,0
0.007956,-0.280097,-0.036908,-0.211489,-0.218959,0.170748,-0.245504,0.117045,0.150047,0
0.04261,-0.101632,0.11005,-0.035012,-0.390969,0.359598,-0.280341,-5e-05,0.151441,0
0.064327,-0.005102,0.173771,-0.034309,-0.303031,0.047752,-0.100352,5.4e-05,0.14648,0
0.060644,0.089283,0.134227,-0.083573,-0.196999,-0.116835,0.113884,-0.130227,0.11008,0
0.125201,0.246427,0.207798,0.041213,-0.229391,0.090492,0.21975,-0.155606,0.072156,0
0.117626,0.241589,0.238791,0.040111,-0.164225,0.144073,0.322058,-0.167323,0.105781,0
0.194775,0.249046,0.163333,0.04946,-0.06291,0.064026,0.213921,-0.121625,0.096441,0
0.18328,0.176185,0.066386,-0.005879,-0.05528,-0.009299,0.035133,-0.080514,0.104552,0
0.19241,0.181076,0.098843,-0.067291,-0.004946,-0.117551,-0.029147,-0.009608,0.104987,0
0.224502,0.16889,0.105788,-0.123823,0.05291,-0.097214,-0.123629,-0.033947,0.119367,0
0.221361,0.105634,0.140998,-0.137311,0.165492,-0.069216,-0.119018,-0.058533,0.1085,0
0.183258,0.072028,0.088397,-0.146166,0.171463,-0.032671,-0.01811,-0.02453,0.092937,0
0.129173,0.024956,0.093776,-0.196715,0.151272,-0.115032,0.016311,-0.09487,0.090082,0
0.117799,-0.003828,0.135115,-0.152656,0.139619,-0.196731,0.017092,-0.062846,0.143416,0
0.072064,-0.010449,0.131218,-0.137452,0.098585,-0.175955,-0.070889,-0.004764,0.113801,0
0.072265,0.007849,0.109453,-0.092405,0.05323,-0.089973,-0.162725,0.02024,0.131866,0
0.07369,-0.002423,0.11359,-0.055428,0.060583,0.007428,-0.207804,-0.006619,0.109866,0
0.137974,0.033129,0.193861,-0.063557,0.031125,0.016967,-0.160624,0.092905,0.156046,0
0.11421,0.08186,0.237703,-0.025855,-0.023784,0.064892,-0.124297,0.014194,0.097965,0
0.1139,0.150823,0.215612,-0.09341,-0.092463,0.04988,-0.065732,-0.07218,0.120152,0
0.061254,0.216543,0.201378,-0.111961,-0.122194,0.04438,-0.051435,-0.001726,0.131454,0
0.007434,0.15757,0.152065,-0.149069,-0.179519,0.001399,-0.02079,-0.042263,0.080956,0
0.055014,0.147865,0.180928,-0.156696,-0.162011,-0.00648,-0.009553,-0.024606,0.15645,0
,,,-0.161766,-0.199981,0.038937,,,,0
-0.508382,-1.682811,-0.795561,1.098583,2.264344,-0.33252,-1.871745,-2.840061,-0.231003,0
-0.931306,-1.754061,-0.806726,2.39967,3.055825,-0.880938,-0.526191,-1.457129,-0.046265,0
-0.827041,-1.756805,-0.920899,2.354883,3.438991,-1.909754,0.408697,0.010536,0.01999,0
-0.30188,-1.653169,-0.609774,2.165122,3.072562,-2.822423,0.180355,0.303478,0.210668,0
0.086514,-1.455482,-0.085079,1.891506,2.199951,-2.079987,-0.186953,0.720575,0.347948,0
0.070447,-1.349445,0.043673,1.12013,2.121088,-1.406146,-0.057911,0.846463,0.226855,0
0.023016,-0.850581,-0.02264,0.470158,1.544259,-1.067852,0.038936,-0.140164,0.213979,0
-0.00023,-0.1444,-0.023426,-0.498607,0.370984,0.025082,-0.100303,-0.711286,0.073176,0
0.032366,0.322047,-0.180964,-0.514111,0.108437,0.163757,0.059623,-0.613426,0.074759,0
-0.205969,0.445815,-0.130003,-0.479466,-0.459579,0.828519,-0.020527,-0.086984,0.136244,0
-0.327651,0.494527,0.031723,-0.549978,-0.587402,0.837316,0.184299,-0.055529,0.079159,0
-0.126794,0.631624,0.10998,-0.850282,-0.387954,0.814865,0.25697,-0.007284,0.209009,0
-0.096699,0.510614,0.196161,-0.89155,-0.325363,0.677093,0.119546,-0.134246,0.126562,0
-0.348361,0.229879,0.389471,-0.725651,-0.300599,0.288993,0.002423,-0.279564,0.089602,0
-0.220203,0.112329,0.314857,-0.901789,-0.462091,0.175101,-0.069582,-0.233281,0.102759,0
0.008233,0.172221,0.372253,-0.585436,-0.616822,0.495045,-0.099651,0.046676,0.163363,0
-0.201363,-0.107731,0.572474,0.04728,-0.856733,0.870705,-0.049751,0.156094,0.139623,0
-0.056312,0.078536,0.708225,-0.95401,-0.871644,1.186223,0.219901,-0.073422,0.106807,0
0.446634,1.144931,0.335236,-1.394361,-0.29741,0.44366,0.215329,-0.304435,0.137935,0
0.574219,2.208004,0.61539,-0.7151,-1.073984,0.26997,0.148894,-0.254009,0.101431,0
0.203383,2.254693,0.42689,0.315642,-1.645151,-1.015053,0.103501,-0.106305,0.143882,0
-0.481695,1.7362,0.596695,0.692812,-2.110416,-1.960273,0.162457,0.056902,0.157641,0
-0.890107,1.218134,0.36141,0.626694,-1.714178,-1.025478,0.124139,0.129007,0.12668,0
-1.769561,-0.114142,0.22925,1.660596,-0.24364,-1.209701,0.16363,0.111707,0.103948,0
-2.018776,-1.121882,-0.131413,2.884757,-0.576126,1.200886,0.021037,-0.141793,0.129004,0
-2.157459,-1.762319,-0.690104,3.847031,-1.039029,2.203089,-0.406778,-0.273967,0.138733,0
-1.323462,-1.934111,-1.192478,3.289497,0.905804,1.322132,-0.649456,-0.133747,0.079493,0
-0.400048,-1.278369,-0.809975,0.371681,2.822789,-0.022339,-0.551763,0.011329,0.085649,0
-0.045439,-1.096683,-0.417405,-1.436938,2.86497,-0.539961,-0.427457,0.049987,0.129182,0
0.67055,-1.922152,0.388692,-2.207742,2.597733,0.028198,-0.427638,0.193185,0.214863,0
2.301254,-2.095142,1.077057,-2.033761,2.159441,0.918922,-0.77801,0.255282,0.24282,0
3.838768,-1.502856,0.8005,-1.998124,1.570887,2.13437,-0.801705,0.339164,0.30758,0
3.836765,-0.712441,1.032082,-2.374188,1.332546,0.966325,-0.350683,0.263808,0.745557,0
3.102929,-0.49586,0.625732,-3.363184,-0.822829,-0.215746,-1.079555,0.437551,0.122378,0
2.599702,0.408347,0.820052,-3.139583,-1.370876,-2.491188,-0.869201,0.304852,0.709645,0
1.120422,1.021442,-0.56044,-0.16755,-4.752401,-2.163254,-0.063118,0.455832,-0.713257,0
-0.193918,0.912507,-0.489986,-0.098568,-5.514841,-2.87063,2.013356,-1.180509,-0.510571,0
-0.553543,0.91113,-0.16321,1.30171,-4.495092,-2.005887,2.465613,-0.651139,0.253035,0
-1.549005,0.214473,0.073217,2.969378,-2.719051,-1.061152,1.389503,-0.787411,0.054831,0
-1.695035,-0.08669,0.618584,3.428775,-1.242305,1.651586,1.052899,-0.50549,-0.013618,0
-1.499975,0.159499,-0.324614,2.436088,1.591566,1.465131,0.477607,-0.170413,0.19237,0
-2.054338,0.435961,-0.708104,2.609297,0.838489,2.686124,0.15569,-0.123818,0.022733,0
-2.163967,0.423382,-0.393925,1.488611,0.314034,2.65567,-0.09884,-0.050868,0.095037,0
-1.534886,0.193476,-0.330403,0.684021,0.793127,0.677517,-0.476214,0.272041,0.128175,0
-0.908852,0.308525,-1.500643,0.020782,1.38387,-0.246094,-1.303271,0.731033,0.282608,0
-0.545414,0.303406,-0.29657,-1.261089,1.521199,-0.92887,-1.88482,1.120619,0.514929,0
-0.381927,-0.656887,-2.078919,-1.613636,0.73383,-0.182552,-2.123182,1.146656,0.217236,0
1.281645,0.472463,-1.259406,-2.4642,0.37149,-0.401711,-1.754399,0.772877,0.074021,0
0.684699,-0.391107,0.350197,-2.973391,-0.027914,-1.140182,-1.490911,-0.099167,-0.303349,0
1.805547,-0.41611,-0.75743,-4.105112,-0.4084,-1.577487,0.28501,-0.488685,-0.362674,0
2.542738,0.395917,-0.158845,-2.536754,-1.495811,-2.259878,-0.497942,-0.911116,-0.74968,0
1.145964,-0.423488,-0.020152,-0.592551,-2.035258,-2.739314,0.466651,0.565328,0.059572,0
0.830702,0.115869,-1.033388,-0.444267,-2.545197,-2.82054,0.446321,-0.189522,0.247396,0
0.015431,0.49874,-0.936625,-0.867231,-1.909247,-2.309952,0.397076,-0.363187,-0.039515,0
-0.774783,0.018509,-0.194268,3.063099,-2.213225,-0.322935,0.67727,0.541104,0.209492,0
-0.816446,-0.060144,0.277364,2.488107,-0.556542,0.248463,0.663263,0.467617,0.287595,0
-0.592122,-0.194796,0.123676,0.115164,1.491757,0.865362,1.239825,-0.328057,0.249883,0
-0.560322,0.132307,0.875168,0.60482,0.655643,2.540931,0.936424,0.153769,0.381621,0
-0.773708,0.413883,1.096233,1.75256,0.728409,2.515691,0.332531,-0.538185,0.315999,0
-0.919674,0.687959,0.975601,0.934087,1.652117,1.990479,0.393678,-1.970107,0.239227,0
-0.889691,0.536744,0.012742,0.513485,1.479471,1.79559,0.478429,-1.77461,0.449581,0
-0.860389,0.394343,0.468618,0.629993,1.200848,1.328341,0.146787,-0.235476,0.193305,0
-0.711192,0.060726,0.520823,0.439088,1.40241,1.180708,0.153912,-0.301103,0.154878,0
-0.23443,-0.304116,-0.365287,-1.088453,1.454633,0.497921,0.545294,-0.428588,0.259993,0
0.191733,-0.563561,0.586883,-2.130318,0.26493,-0.117537,0.179354,-0.093954,0.016442,0
0.884119,-0.830414,-0.133489,-0.475717,-1.925329,-0.072919,5.4e-05,0.460372,0.013352,0
1.646747,-0.920308,-0.032956,-0.807237,-1.86824,-2.181402,0.091992,0.576357,0.115492,0
2.20048,-0.660486,0.964654,-1.388489,-2.852991,-2.905562,0.333064,0.237209,0.091499,0
2.496395,-0.349255,0.503036,-1.494284,-3.216233,-2.531323,0.184497,0.315814,0.094199,0
2.114866,0.055489,0.883265,-0.811603,-2.891572,-1.989288,-0.102923,1.079773,0.13446,0
0.652378,-0.370881,0.357895,-0.380325,-1.663776,-0.957141,-0.184828,0.581221,-0.009836,0
-0.548603,0.166599,-0.054584,0.260832,-0.804288,0.217466,0.042022,0.077868,0.109149,0
-1.695598,0.033284,-0.266881,0.460842,-0.171526,1.557979,0.004949,-0.765758,0.179074,0
-2.053446,0.431018,-0.623905,0.66904,-0.095253,1.650537,-0.140852,-0.864253,0.164461,0
-2.247558,0.803157,-0.669775,1.124276,1.22224,0.756898,-0.115106,0.068081,0.104533,0
-1.644041,1.143499,-0.84114,0.843966,1.481496,1.002621,0.216975,0.339533,-0.121512,0
-1.076462,1.122769,-0.328695,0.333974,0.735218,1.721854,0.351739,0.361668,0.316998,0
-0.620678,0.298443,0.286764,1.927468,1.136556,2.737303,0.226646,0.261703,0.376584,0
-0.034688,0.13708,0.479078,0.710614,2.313117,1.743285,-0.084304,0.315782,-0.084948,0
0.245689,-0.335246,0.951688,-0.197386,2.385472,1.290028,-0.091891,0.157345,-0.186962,0
0.750065,-0.952012,1.224057,-0.149349,1.600141,0.834202,-0.010536,0.036634,0.063723,0
1.670736,-0.566756,0.781857,-1.281827,0.812165,0.131395,0.083381,-0.10909,0.078902,0
1.65392,-0.923171,1.384341,-1.846107,-1.068865,-1.115335,-0.046923,-0.059368,0.026532,0
1.851627,-1.076961,1.562718,-2.207648,-2.012776,-3.198216,-0.286968,0.318043,-0.161261,0
1.894925,-0.483242,0.562445,-1.280722,-3.468691,-3.323169,-0.113263,0.17219,0.068411,0
1.536204,-0.395143,-0.382109,-0.756804,-4.153164,-2.276933,0.381204,0.099495,0.25984,0
0.906367,-0.295803,-1.245575,-0.087446,-3.016637,-2.345689,0.500223,-0.018079,0.280324,0
0.116715,-0.223598,-1.373582,0.866096,-2.415164,-1.374452,0.786625,-0.64056,0.365532,0
-0.792906,-0.285431,-1.411999,0.744877,-1.793279,0.403443,0.5753,-0.048012,0.079294,0
-1.079106,0.189969,-1.683868,2.007001,-1.59462,2.724444,0.095348,0.217247,0.212384,0
-2.467295,0.089295,-0.390476,1.670094,0.568643,2.252531,0.090055,-0.085412,0.0584,0
-1.933649,0.251639,-0.264763,0.866497,2.983365,1.96467,0.001753,-0.670244,0.276976,0
-1.010733,0.315368,0.608079,2.256836,2.993078,2.641316,-0.334718,-0.881651,0.084978,0
-0.458909,0.31513,1.145771,1.317645,3.145528,1.151649,-0.032344,-0.215965,0.093359,0
0.28309,0.277275,0.278465,0.152782,1.950713,0.298767,0.371426,0.497285,0.263723,0
0.457326,-0.103638,0.001105,-1.031223,1.33506,0.048159,0.574898,0.812918,0.43806,0
0.866565,-0.777446,0.687954,-2.527824,0.561155,-1.228027,0.631894,0.863825,0.239071,0
1.982308,-0.291043,0.13154,-2.740795,-0.925599,-3.372472,0.536328,1.082366,0.341272,0
1.9091,0.047936,1.294062,-2.559529,-1.876002,-4.009223,0.592699,0.231299,0.397762,0
1.603087,0.283359,1.087372,-0.255687,-3.084022,-3.228342,0.356495,-0.517139,0.198835,0
0.983829,0.723324,0.40249,-0.897279,-2.856152,-2.26694,-0.093446,-0.329791,0.016531,0
-0.126095,1.103522,0.402436,0.224103,-3.340567,0.271228,-0.261413,0.089101,-0.072028,0
-1.099303,0.696312,-0.366025,1.823688,-3.150718,0.675313,-0.251428,-0.038075,0.03159,0
-1.086864,0.378731,-1.462359,1.446639,-0.625215,-0.577303,0.0815,0.12707,0.098557,0
-0.670235,0.042929,0.292887,-0.150862,0.869593,0.505927,0.165646,0.265374,0.033772,0
-2.099808,-0.187838,0.448008,1.880668,3.085941,1.785441,0.152601,0.95865,0.288244,0
-2.058981,0.427556,0.162753,1.0647,0.673338,5.082232,0.109925,0.506405,0.091063,0
-0.677835,0.369764,-0.508366,-0.458472,1.580831,5.273788,0.119101,0.490335,0.191358,0
-0.284814,-0.844302,-0.746045,-0.191934,2.456079,4.658664,-0.048946,-0.130312,0.171741,0
1.011079,-1.133315,-0.142548,0.210394,1.712879,4.384555,0.117958,-0.547127,0.284375,0
1.267079,-0.734957,2.120403,0.434599,1.446412,4.418781,0.028894,-0.487481,0.176896,0
1.63136,-0.131136,1.83819,-0.550813,-0.592165,0.939943,0.132659,0.008604,0.081919,0
0.734179,-0.515522,1.466551,-0.932543,-1.710979,-2.606963,0.297664,0.419189,0.198314,0
1.617728,-0.588769,1.123257,-1.235267,-2.585381,-5.178358,0.305533,0.059556,0.117699,0
0.804728,-0.335801,1.282861,-2.329107,-2.828956,-5.093676,0.0939,-0.168604,-0.008588,0
-0.883708,0.136299,1.383147,-2.589938,-2.534304,-3.738673,-0.117026,-0.424306,0.052638,0
-0.729057,0.35332,1.118579,-0.029812,-1.414583,-2.441652,-0.316153,-0.086269,-0.126847,0
-0.591921,0.530246,0.742415,4.205972,-0.642478,-0.550558,-0.120459,0.027047,-0.269498,0
-0.336726,0.733601,0.662436,2.724429,0.802308,0.146622,0.206722,0.29824,0.214185,0
-1.402411,0.140926,-0.398851,1.592081,0.090286,1.685849,0.4163,0.238074,0.261147,0
0.10483,0.699196,-0.797116,1.399083,-0.418806,1.764885,0.464895,0.10152,0.544351,0
-1.652854,0.124385,-1.23598,1.084461,1.106396,2.335265,0.033493,1.034446,0.273494,0
-1.361985,0.293796,0.330527,0.769175,1.545129,3.790537,0.552528,1.077865,0.520164,0
-0.893506,-1.010345,0.50198,0.025579,1.742508,4.596751,0.852164,0.982693,0.347481,0
-0.875494,-2.343445,1.462626,-1.417634,0.855353,2.736367,0.854407,0.073635,0.407834,0
2.296838,-1.338402,0.938669,0.00981,-1.109775,4.166409,0.346538,-0.604456,0.389158,0
1.375556,-0.765689,1.790845,-1.435591,-1.387029,4.270552,0.221001,-1.033326,0.275673,0
0.41608,-0.524571,1.357393,-2.955127,0.506592,1.647602,-0.057494,-0.870194,0.152641,0
1.566545,1.028197,1.206289,-1.58485,-0.688075,1.130921,0.270179,-0.435373,-0.009716,0
-0.284575,-1.789003,0.395541,-1.21487,-1.408361,-0.157103,0.536285,0.272478,0.263371,0
1.594923,0.978579,1.234124,-2.101258,-0.660965,-1.809458,0.493074,0.302982,0.278473,0
0.977732,0.913813,2.418192,0.678484,-2.646529,-1.512806,0.363139,0.020115,0.372138,0
1.248651,-0.624681,2.791017,1.604566,-2.193594,-2.957108,0.313276,-0.034124,0.079769,0
1.264995,1.410927,2.190957,1.985305,-1.7541,-3.17753,0.299893,0.122167,0.129932,0
-0.703266,0.019411,1.719787,1.138829,-1.073826,-4.439289,0.169701,0.116517,0.065527,0
1.257294,1.402321,-2.698161,0.553427,-1.303363,-1.571003,-0.106477,-0.332326,-0.053472,0
-2.476894,1.988992,-0.739552,-0.665782,-0.472857,-1.381695,0.19168,-0.473994,0.162768,0
-3.015753,-0.347995,0.095973,-0.930013,1.818904,0.593339,0.074711,-0.292141,-0.023407,0
-2.285183,-0.61544,-2.55211,2.992594,1.206079,2.836774,-0.216039,0.058807,-0.091416,0
-2.053803,0.085651,-0.066138,0.696637,2.360353,2.596761,-0.112085,0.660764,0.266938,0
-2.259304,-1.313233,-1.891962,-0.033975,2.156488,2.818219,0.21453,0.613137,0.078941,0
-1.784263,-0.479107,-1.364809,0.091445,0.934828,2.710392,0.357564,0.539694,0.059395,0
-0.846649,-1.127047,-1.228848,-1.726609,2.641694,1.470119,0.237399,0.104397,0.2616,0
0.180573,-0.669238,-0.119855,-1.594444,1.220084,2.466081,0.084561,-0.233794,-0.005389,0
1.074256,-1.366152,0.515189,-2.601907,1.693256,1.115629,-0.035663,-0.082914,0.019585,0
1.431009,-1.488232,1.446389,-1.79099,-0.186905,0.275739,0.063093,-0.323698,0.168467,0
3.638548,-0.276013,0.572111,-1.327166,-0.997279,-0.337062,0.118032,-0.285497,0.120062,0
3.41375,1.147161,1.042919,-0.395263,-3.383381,-2.611564,0.127608,-0.162723,0.098071,0
2.760424,0.533782,1.293896,-0.579924,-3.921829,-3.443431,0.314653,-0.065853,0.226888,0
1.062514,0.401845,1.657467,-0.089819,-5.407608,-2.724255,0.284548,-0.127374,0.201715,0
0.592261,0.607562,1.085934,1.301236,-4.989543,-2.027251,0.189924,0.091304,0.064556,0
-0.69652,0.855936,0.225989,2.689739,-4.360757,-1.479629,0.056825,0.303393,-0.063743,0
-1.990367,0.332478,0.432602,0.512873,-1.221981,-0.253488,-0.04609,0.676657,0.004445,0
-2.630842,1.546151,-1.006547,1.080323,0.734095,0.952656,-0.214661,0.637167,-0.037282,0
-2.727337,1.684442,-0.527937,1.925112,3.275822,-0.864913,-0.4034,0.181052,-0.06273,0
-2.464284,-0.364076,-0.997699,0.97409,2.668632,1.01344,-0.186007,-0.315387,-0.016582,0
-0.944157,0.228554,-0.214052,0.473116,5.892461,-0.885277,-0.167338,-0.025595,0.141541,0
-0.363297,-0.851888,0.039881,0.700046,5.1289,-0.045575,0.194108,0.037686,0.190187,0
0.442372,-1.335576,-0.014978,-0.093603,3.287156,1.986933,0.517678,0.161141,0.248502,0
0.638018,-0.445573,-0.097371,-0.046819,2.262348,3.561104,0.56712,0.213729,0.410112,0
0.585782,-1.187446,0.332547,-0.1557,2.240512,1.378383,0.379242,0.328126,0.337543,0
1.483438,-1.774713,1.01436,-0.996351,-0.676526,2.532417,0.479501,0.202329,0.30856,0
2.869277,-0.899548,-0.033608,-0.450969,-1.95271,1.972462,0.575022,-0.151029,0.304845,0
2.85583,0.53133,1.438705,-0.781476,-3.384181,0.736938,0.360684,-0.395559,0.151807,0
1.755451,0.757875,1.415956,-1.230616,-4.377934,-0.904493,0.356644,-0.641213,0.067181,0
0.868862,0.249177,1.110912,-0.538726,-5.177897,-0.794687,0.194733,-0.377775,0.199414,0
0.855188,0.37479,1.335288,-0.21303,-4.80655,-1.503181,0.053246,-0.139399,0.148296,0
0.129333,-0.677274,2.338275,0.446381,-2.689329,-3.078726,0.102958,0.000325,-0.046265,0
-0.802704,-2.585203,1.157441,0.009189,0.162137,-1.506435,-0.217705,0.582922,-0.004229,0
-1.56842,0.912436,0.964744,0.758383,0.67786,0.365161,-0.344298,1.239283,0.123116,0
-2.216059,0.68709,0.855884,0.902944,1.305185,0.097453,0.231701,0.280997,0.117188,0
-2.161948,0.546668,0.472615,-0.145276,2.537174,0.633024,0.508787,-0.134377,0.342587,0
-2.230851,1.328246,0.075119,0.793984,3.953933,-0.122204,0.463465,-0.114047,0.135423,0
-1.485647,1.100346,-0.777451,0.746524,2.175406,1.619331,0.369012,-0.218191,0.164562,0
-0.808489,0.746574,-0.505974,0.022446,2.153164,1.587894,0.191405,-0.289445,0.087204,0
-0.360912,0.224952,-1.624185,-0.065105,1.649605,0.701957,-0.02085,-0.078685,0.105042,0
0.130871,0.072061,-1.617719,-0.488107,0.773594,0.502979,-0.177483,0.19065,0.00107,0
0.491665,-0.648971,-1.436684,-1.030225,0.452585,0.213749,-0.319695,0.021321,-0.004296,0
1.04243,-0.663179,-0.924978,-0.355682,0.353285,-0.005756,0.059173,-0.067233,0.064241,0
1.341323,-0.808787,-0.171117,-0.75847,-0.336095,0.604699,-0.32644,0.747685,0.005618,0
1.852119,-0.953912,-0.03562,-1.371993,-0.431764,0.590428,-0.238523,-0.089888,0.128907,0
1.224067,-0.749155,0.988183,-1.051891,-0.357012,-0.374822,-0.073124,-0.70021,0.304283,0
1.438184,-0.556,0.962333,-1.080208,-1.264763,-0.390977,-0.393956,-0.482796,0.005646,0
1.377161,-0.183746,1.370888,-1.767616,-1.831301,-0.497603,-0.411819,-0.689351,-0.030439,0
0.608282,-0.298015,1.287912,-0.374697,-2.638893,-1.427526,0.553624,-0.770594,0.058327,0
0.433182,-0.159551,1.112843,-0.079531,-2.847363,-0.934756,0.393225,0.698068,0.165146,0
0.20556,0.121662,1.0194,0.50264,-2.116956,-1.061113,0.052114,0.892414,0.175409,0
-0.142897,0.310963,0.370075,0.804953,-2.10055,-0.342758,0.38383,-0.223356,0.213262,0
-0.006772,0.476906,0.425635,0.690657,-2.010705,0.270378,0.188247,0.013884,0.041769,0
-0.910203,-0.07646,0.025143,0.681599,-0.652915,-0.985051,-0.28249,0.260256,0.122253,0
-1.370955,0.472803,-0.216986,1.210583,1.23544,-2.11533,-0.153007,0.156974,0.067542,0
-1.455467,-0.04429,-0.728598,3.29102,2.475437,-2.567173,0.041814,-0.050472,0.111374,0
-1.780594,0.387196,-0.948565,1.864043,2.468019,0.194843,-0.276855,0.0239,0.136622,0
-1.886112,-0.053279,-0.635262,0.950576,1.119617,1.919042,-0.157497,-0.242485,0.087252,0
-1.276151,0.093471,-1.036583,1.087167,1.016078,2.41023,0.014379,-0.18929,0.00293,0
-1.094047,0.345297,-0.380635,0.594981,2.248977,0.721395,-0.324268,0.575218,0.006061,0
-0.790739,-0.114447,-0.225771,-1.160581,1.880472,0.59338,-0.267361,1.798874,0.26572,0
0.163298,-0.074216,-0.182336,-1.581541,0.916623,0.853656,-0.686341,0.269316,0.223351,0
1.09967,-0.323153,-0.133908,-1.210188,0.444065,0.606721,0.52134,-1.591562,0.120234,0
1.963531,-0.587019,-0.653766,-1.393815,-0.713574,0.699815,0.371703,-0.974694,0.105879,0
2.273766,-0.289961,-0.337964,-1.603061,-0.676101,0.169614,0.117508,-0.093919,-0.021366,0
1.922444,-0.022063,0.154016,-1.433693,-0.731096,-0.451038,-0.102746,-0.330386,0.088687,0
1.960664,-0.027722,0.070723,-1.229496,-1.539041,-0.157851,-0.006532,-0.23196,0.161207,0
2.10939,0.510361,0.452029,-1.105529,-1.584816,-0.333787,-0.142669,0.20186,0.194031,0
1.658078,0.930378,0.624732,-0.911418,-1.219093,-1.121731,-0.141128,-0.306064,0.029981,0
1.172847,0.561152,1.716283,-0.367794,-1.371004,-1.125218,-0.276557,-0.070166,0.169004,0
-0.380822,-1.097433,1.006032,0.672596,-1.237659,-1.114745,0.380773,-0.105077,0.052794,0
0.182863,0.950099,1.252188,0.989458,-1.061334,-1.134865,0.337184,0.093468,0.106242,0
-1.876622,-0.443715,-0.054287,1.281285,-0.48641,-1.093562,-0.005765,0.038701,0.094983,0
-1.679942,-0.298247,-0.567416,1.223534,-0.27527,-0.607615,0.107016,0.374575,0.214599,0
-2.020503,-0.132086,-0.878563,1.113304,0.050656,0.235558,0.10968,0.191768,-0.124724,0
-1.755474,-0.128448,-1.534271,1.267562,1.455624,-1.18813,-0.472723,0.010405,0.150387,0
-1.685866,-0.225395,-1.307313,0.489571,1.393765,-0.129805,-0.928132,-0.023611,0.108858,0
-1.241278,-0.021975,-1.113865,-0.44341,1.748579,-0.661507,-0.47178,0.159567,0.110407,0
-0.801567,-0.351395,-0.730224,-0.08072,1.6746,-0.656663,-0.364584,0.357763,0.42023,0
-0.269567,-0.562924,-0.220791,0.046807,0.798834,-0.057261,0.319576,-0.157158,0.089954,0
-0.002973,-0.154312,-0.32765,-0.12478,0.411294,-0.369907,0.085536,0.152556,-0.045858,0
0.70088,0.604663,-0.807497,-0.608377,0.078353,-0.454686,-0.246185,0.355796,0.189364,0
,,,-0.65253,0.16395,-1.013311,0.077548,-0.091064,0.258192,0
0.397645,1.048528,0.390313,-1.045495,0.513502,-0.778796,0.731977,0.459248,-0.236094,1
0.366553,0.854251,0.429071,-0.79352,0.391476,-0.744609,0.18833,0.56066,-0.029898,1
0.433296,0.661041,0.277339,-0.539848,0.306066,-0.702003,-0.096859,-0.028762,0.049059,1
0.428737,0.486151,0.059164,-0.279288,0.200468,-0.49002,-0.506673,-0.504484,0.144452,1
0.437006,0.419115,-0.05775,0.029141,-0.026192,-0.211666,-0.492935,-0.921727,0.097518,1
0.449983,0.428349,-0.037626,0.326147,-0.239839,0.07881,0.426095,-0.761446,-0.558697,1
0.38081,0.413109,0.014577,0.490669,-0.614631,0.23704,1.171989,-0.345391,-0.193054,1
0.325555,0.393371,0.263439,0.486326,-0.870771,0.369469,1.303212,-1.41781,0.153417,1
0.259607,0.340747,0.629261,0.389383,-1.142802,0.440619,1.913554,1.371247,-0.130491,1
0.235957,0.107781,0.926465,0.310704,-1.313995,0.46148,0.167578,1.24935,0.512978,1
0.123731,-0.287994,0.957068,0.334776,-1.376557,0.329789,-1.172645,0.065418,0.094368,1
0.103918,-0.72308,0.690583,0.576391,-1.442237,0.070539,-1.067152,0.243809,0.688693,1
0.030508,-0.912796,0.416344,0.808148,-1.68123,0.186841,-0.574124,2.010395,0.359121,1
-0.075431,-0.943841,0.101356,0.909241,-1.493531,0.446287,-0.991289,1.241482,0.297524,1
0.005589,-0.731474,-0.228017,0.345647,-1.019505,0.474658,-0.871136,-0.183402,0.55832,1
-0.021288,-0.564714,-0.364656,0.012486,-0.727004,0.602697,-0.576982,-0.391772,0.281653,1
-0.133098,-0.484935,-0.444708,-0.110971,-0.672065,0.619236,-0.106979,-0.064313,0.052697,1
-0.199955,-0.411416,-0.450194,-0.189399,-0.364095,0.578115,0.09683,0.065855,-0.099722,1
-0.185226,-0.375787,-0.305119,-0.363568,-0.005182,0.43944,0.128304,-0.0903,0.07929,1
-0.183188,-0.34839,-0.10556,-0.427242,0.3582,0.382243,0.020066,-0.17209,0.335775,1
-0.267145,-0.355959,0.139034,-0.33525,0.66206,0.33796,-0.225864,-0.154715,0.143934,1
-0.289898,-0.338754,0.293789,-0.222366,0.833737,0.108581,-0.22448,0.100986,0.067888,1
-0.317185,-0.308364,0.291629,-0.129368,0.96815,-0.203528,-0.058433,-0.051824,0.114827,1
-0.199594,-0.205989,0.304962,-0.119154,0.986628,-0.523665,0.03999,-0.224707,0.069858,1
-0.17246,-0.051474,0.26969,-0.126662,0.950161,-0.799323,0.091699,-0.229057,0.105847,1
-0.067219,0.070491,0.316682,-0.19225,0.955721,-0.909945,-0.184661,-0.144168,0.139065,1
-0.038736,0.068845,0.254621,-0.240612,0.916106,-0.822641,-0.250672,-0.119493,0.177591,1
0.06822,-0.021655,0.154544,-0.154859,0.735524,-0.627163,-0.420254,0.01707,0.151429,1
0.108935,-0.114964,0.10212,-0.006113,0.509886,-0.324235,-0.371917,0.290459,0.103074,1
0.137174,-0.122267,0.060511,0.153915,0.28346,-0.045549,-0.150127,-0.019535,0.165612,1
0.113133,-0.139433,0.095125,0.244853,0.027173,0.252279,0.041381,-0.211858,0.078991,1
0.057355,-0.189626,0.065397,0.350722,-0.179691,0.460627,0.237632,-0.251082,0.098975,1
-0.00845,-0.200253,-0.057871,0.42382,-0.388924,0.54093,0.219475,-0.187574,0.116336,1
-0.10857,-0.180255,-0.09,0.542233,-0.556338,0.510985,0.201607,-0.196961,0.064095,1
-0.178924,-0.144148,-0.021009,0.675949,-0.765679,0.47573,0.213241,-0.111871,0.071013,1
-0.210762,-0.115869,0.053662,0.695967,-0.826152,0.318377,-0.006467,0.012231,0.133982,1
-0.245329,-0.095068,0.07936,0.667966,-0.828001,0.205093,-0.064929,-0.024792,0.154523,1
-0.26938,0.002089,0.163008,0.65288,-0.83149,0.128227,0.115494,-0.146534,0.121221,1
-0.297603,0.108812,0.178163,0.582655,-0.753686,0.031994,0.106161,-0.151478,0.115546,1
-0.316071,0.157732,0.208314,0.554376,-0.653866,0.1186,-0.036544,0.122161,0.114831,1
-0.24842,0.176434,0.275796,0.482305,-0.498932,0.198597,-0.026322,0.066362,0.161139,1
-0.225124,0.182658,0.290122,0.407202,-0.343499,0.213232,-0.091704,0.11344,0.122238,1
-0.152864,0.225328,0.26724,0.317059,-0.191182,0.170835,-0.075853,0.147211,0.101355,1
-0.063005,0.271001,0.264828,0.179976,-0.073404,0.121036,0.003292,0.006935,0.101719,1
0.010023,0.245462,0.227977,0.070431,0.079735,0.013308,0.004953,-0.064932,0.115031,1
0.091305,0.209671,0.176974,-0.068366,0.239835,-0.069004,0.05965,-0.056881,0.067543,1
0.133416,0.156806,0.089311,-0.166959,0.30887,-0.138659,0.127025,-0.045365,0.074095,1
0.17516,0.124614,0.062683,-0.278429,0.389069,-0.165776,0.038508,0.030373,0.151466,1
0.189144,0.06951,0.063279,-0.346858,0.448431,-0.200158,-0.103967,0.060459,0.114388,1
0.19005,-0.01151,0.088604,-0.374251,0.522072,-0.202088,-0.018481,-0.051562,0.097384,1
0.189788,-0.081415,0.062437,-0.396178,0.51747,-0.180865,0.055994,-0.098535,0.129951,1
0.115887,-0.102494,0.08444,-0.392769,0.48251,-0.178741,0.053851,0.016312,0.059856,1
0.09603,-0.132943,0.003447,-0.379819,0.502227,-0.128602,-0.053165,0.36695,0.179617,1
0.032708,-0.184459,0.017619,-0.324113,0.372906,-0.008822,-0.296631,0.282725,0.105064,1
0.022388,-0.155342,0.06847,-0.282419,0.234526,-0.0667,-0.20698,0.450793,0.023282,1
-0.030293,-0.146299,0.025477,-0.162717,0.108229,-0.116244,-0.276682,-0.150507,0.17405,1
-0.023651,-0.191618,0.16027,-0.054279,-0.011667,0.043623,-0.243436,-0.553365,0.208791,1
-0.049795,-0.232523,0.244566,0.08564,-0.040006,0.169263,0.183523,-0.685307,0.066881,1
-0.162398,-0.313373,0.198532,0.262384,-0.120723,0.170447,0.325589,-0.364271,0.052159,1
-0.305513,-0.403594,0.14396,0.472922,-0.199863,0.132946,0.400298,-0.909787,0.072798,1
-0.39353,-0.510515,0.155663,0.698013,-0.294651,0.157866,0.116673,-0.76549,0.075584,1
-0.428906,-0.603233,0.16069,0.946842,-0.340031,0.194154,-0.119178,-0.571036,0.096427,1
-0.433227,-0.70954,0.148102,1.066518,-0.409502,0.205976,-0.143192,-0.593944,0.142169,1
-0.459364,-0.761707,0.044879,1.210712,-0.441555,0.150167,-0.258803,0.058749,0.112623,1
-0.41083,-0.667226,-0.095954,1.323536,-0.531129,0.136115,-0.473798,0.514683,0.479579,1
-0.355637,-0.550614,-0.143751,1.410056,-0.509787,0.275569,-1.060487,0.581279,0.560359,1
-0.276039,-0.435485,-0.132964,1.333061,-0.418677,0.364007,-1.406633,0.616504,0.796353,1
-0.10891,-0.296291,-0.087481,1.131223,-0.345789,0.353317,-1.010185,0.994951,0.740369,1
0.0375,-0.19603,0.074697,0.841467,-0.385349,0.358844,-0.262063,0.302143,0.392262,1
0.279241,0.024239,0.321825,0.485678,-0.283327,0.42736,-0.206168,0.098032,0.708761,1
0.375005,0.185125,0.459629,0.016503,-0.156537,0.468926,0.239029,-0.158682,0.549523,1
0.502738,0.331961,0.369074,-0.419336,0.023591,0.296556,0.414792,-0.41973,0.286295,1
0.448926,0.554639,0.167132,-0.902081,-0.098702,0.07653,1.084872,0.164994,-0.165854,1
0.36905,0.903335,-0.080256,-1.317721,0.0772,-0.330061,1.384666,-0.515142,-1.27215,1
0.289547,1.166395,-0.009084,-1.733738,0.358563,-0.794245,2.124051,-5.1963,-2.047465,1
0.242705,1.188203,0.329203,-1.822279,0.295227,-0.950774,1.128496,-6.055058,-1.002024,1
0.151916,0.811367,0.602618,-2.772546,-0.20173,-1.002923,2.001693,-2.270963,-1.136067,1
0.691003,1.765899,1.876522,-2.868649,0.254688,-0.305605,4.858364,7.478112,0.036311,1
0.243912,1.863003,3.057927,0.216888,-0.857327,1.50349,-2.066298,7.888006,1.418501,1
0.994242,0.633969,1.976579,2.319695,-2.441248,3.595829,-2.737138,-2.806634,2.558167,1
0.107194,1.598997,1.80557,0.45033,-1.238378,1.556363,-2.067209,-1.453576,-1.141556,1
-0.65037,1.439648,1.13198,0.491509,-1.329276,0.086044,-0.164889,3.698816,-0.05861,1
-0.921227,0.843674,0.004355,0.787291,-1.028137,-0.816361,-1.412682,0.561893,-0.169469,1
-0.733011,0.550378,-1.16924,1.062234,-0.89391,-0.866781,-1.158609,-1.4099,1.231527,1
-0.512329,-0.334465,-1.736588,0.529543,-0.407715,-1.360684,-0.515351,-1.09613,0.640118,1
-0.226292,-1.200677,-2.036454,-0.081679,0.383217,-1.130246,-0.320652,0.923483,-0.130271,1
0.25218,-1.031176,-1.069415,0.04597,0.776918,-0.679135,0.336571,1.162156,-0.176172,1
0.229991,-0.989282,-0.406741,-0.430334,1.489167,-0.908838,0.783644,0.022753,0.501421,1
0.370203,-1.242928,-0.694973,-0.622074,1.64127,-0.779054,0.545634,-0.023149,0.170618,1
0.397656,-1.306193,-0.909086,-0.919553,2.025554,-1.149484,0.167484,-0.231068,0.028999,1
0.404449,-1.369399,-1.124485,-1.095856,2.177094,-1.573005,0.017448,-0.140864,0.039856,1
0.565046,-1.34176,-1.228486,-1.028707,1.745063,-1.120462,0.293041,-0.354827,0.179956,1
0.526757,-1.139382,-0.930813,-1.022673,0.983957,-0.29231,0.098638,0.068032,0.06307,1
0.708156,-0.720203,-1.00233,-0.429682,1.147649,-0.081674,-0.082872,0.356123,0.120148,1
0.999142,-0.535471,-0.893153,-0.247806,2.086541,-0.465478,-0.218068,-0.001065,0.163138,1
0.86078,-1.04735,-0.450039,-0.812832,2.132923,-0.359273,-0.109755,-0.194044,0.107049,1
0.418753,-1.584907,0.383957,-1.441381,1.57532,0.218818,0.057111,-0.106343,0.089482,1
0.018709,-1.466466,1.5129,-1.160161,0.816288,1.001123,0.184449,-0.0536,0.102403,1
0.009221,-0.695198,1.905649,-0.468642,0.109122,1.512634,0.204915,-0.188867,0.11139,1
-0.090032,-0.198143,1.725518,0.012649,-0.375071,1.463075,0.040064,-0.127282,0.101859,1
-0.130903,0.231705,1.308656,0.422169,-0.625635,1.106276,-0.02941,-0.021323,0.145001,1
-0.276247,0.715337,0.900649,0.702568,-0.983938,0.683277,-0.108235,0.032178,0.091027,1
-0.551382,1.294267,0.649451,1.030869,-1.416659,0.344631,-0.304972,0.039216,0.170082,1
-0.775815,1.778572,0.412824,1.352332,-1.806849,0.083188,-0.201897,-0.058752,0.206888,1
-0.923988,2.138562,0.191528,1.582528,-2.0493,-0.054402,0.01055,-0.065782,0.125998,1
-1.014909,2.268969,-0.037142,1.594199,-2.188816,-0.104929,0.089213,-0.12407,0.169183,1
-0.991272,2.210115,-0.084882,1.504141,-2.180683,-0.114167,0.035533,-0.004322,0.139114,1
-0.84878,1.951939,0.026425,1.355667,-2.096509,0.048155,0.099534,-0.020895,0.107113,1
-0.633189,1.605378,0.26435,1.229903,-1.953065,0.317733,0.063914,-0.137627,0.124137,1
-0.412661,1.286813,0.526607,1.02951,-1.679667,0.525001,-0.045339,-0.001724,0.137929,1
-0.235324,0.826525,0.682683,0.79695,-1.329081,0.517949,-0.046572,0.047563,0.13681,1
-0.041598,0.396783,0.578398,0.567855,-0.971549,0.519733,-0.049745,0.077572,0.115817,1
0.082158,0.132089,0.422688,0.395903,-0.619843,0.529667,0.110005,-0.011951,0.08448,1
0.232742,-0.053016,0.346731,0.219053,-0.227348,0.46225,0.257607,-0.149995,0.068819,1
0.298055,-0.290433,0.228756,-0.002195,0.138607,0.328641,0.218155,-0.093398,0.065919,1
0.339072,-0.608909,0.037266,-0.270631,0.45105,0.148609,0.107244,-0.104806,0.132398,1
0.342688,-0.922261,-0.172982,-0.502657,0.696671,-0.02519,-0.017468,-0.030546,0.124014,1
0.360321,-1.110672,-0.332136,-0.633755,0.965625,-0.248376,-0.116864,0.12317,0.116791,1
0.407822,-1.254704,-0.454316,-0.754248,1.098574,-0.403595,-0.188538,0.118266,0.134953,1
0.396016,-1.339093,-0.500687,-0.823348,1.211264,-0.522444,-0.138536,-0.085585,0.152383,1
0.32526,-1.432455,-0.430337,-0.898686,1.272759,-0.58764,-0.021673,-0.133191,0.127683,1
0.179416,-1.376757,-0.208112,-0.908102,1.324821,-0.58601,-0.042061,-0.062682,0.100286,1
0.164913,-1.218565,-0.151147,-0.856902,1.344702,-0.498246,-0.092093,-0.010004,0.163548,1
0.070599,-1.071074,-0.100738,-0.784187,1.231561,-0.433028,-0.036775,-0.015094,0.121824,1
0.03032,-0.87488,-0.081355,-0.672684,1.037742,-0.434786,-0.013207,-0.049833,0.145031,1
-0.001213,-0.654502,0.01007,-0.51692,0.892636,-0.326054,-0.06545,0.06789,0.121288,1
-0.047837,-0.438362,0.125033,-0.359515,0.683391,-0.186103,0.020191,0.03939,0.119888,1
-0.116527,-0.161609,0.27155,-0.188353,0.38189,0.036142,0.054097,0.065591,0.106565,1
-0.199394,0.171826,0.310742,-0.06738,0.101873,0.20952,0.058852,-0.102218,0.122312,1
-0.241596,0.416632,0.332668,0.063733,-0.123374,0.376128,-0.055244,-0.037546,0.128574,1
-0.2119,0.562378,0.339656,0.18454,-0.310427,0.510797,-0.108455,0.05595,0.125285,1
-0.211283,0.69234,0.330555,0.341903,-0.522746,0.578048,-0.141104,0.012967,0.18381,1
-0.201435,0.833585,0.311755,0.525966,-0.722406,0.503818,-0.193651,0.112962,0.135783,1
-0.222613,1.023305,0.265864,0.662038,-0.844042,0.376454,-0.132036,0.084788,0.153912,1
-0.22085,1.213342,0.210558,0.739645,-0.860394,0.252652,-0.143694,0.052413,0.19259,1
-0.250929,1.26288,0.21031,0.816434,-0.930473,0.143237,-0.214279,0.092179,0.191423,1
-0.302227,1.24383,0.204741,0.877783,-0.935003,0.16708,-0.234798,0.216929,0.197865,1
-0.295075,1.146931,0.169312,0.868196,-0.806005,0.217724,-0.202023,0.285845,0.154645,1
-0.308691,0.95573,0.140994,0.729731,-0.64442,0.254027,-0.148501,0.189573,0.150287,1
-0.247798,0.735802,0.123425,0.632488,-0.393162,0.34729,-0.192066,0.155106,0.216226,1
-0.241261,0.532999,0.048548,0.53385,-0.1839,0.323648,-0.32905,0.407065,0.233315,1
-0.163612,0.388446,-0.058477,0.401995,0.096687,0.218496,-0.220819,0.587685,0.282598,1
-0.095982,0.293087,-0.085682,0.265863,0.310814,0.20207,-0.025791,0.565719,0.284794,1
-0.087801,0.188046,-0.077744,0.112834,0.516225,0.251129,0.186474,0.546693,0.28342,1
-0.017799,0.063423,-0.151708,-0.162424,0.656379,0.249359,0.311229,0.422186,0.200263,1
0.044458,-0.070128,-0.290639,-0.464416,0.966553,0.328842,0.487532,0.405794,0.318401,1
0.073839,-0.16332,-0.386903,-0.750003,1.356663,0.09048,0.530592,0.42561,0.080701,1
0.131293,-0.205793,-0.407213,-0.903835,1.309181,-0.084773,0.597009,0.217515,0.623337,1
0.230145,-0.160424,-0.038833,-1.038935,1.057994,0.021983,0.61823,0.107727,-0.011499,1
0.266313,-0.243546,0.538545,-1.243322,1.121362,-0.150056,0.449004,0.146211,-0.144035,1
0.352412,-0.441882,0.809908,-1.505525,1.056358,-0.483211,0.286834,0.154447,0.114565,1
0.440774,-0.576057,0.867497,-1.511417,0.849944,-0.765759,0.621828,-0.073536,-0.387705,1
0.392516,-0.45679,1.035804,-0.96861,0.752974,-0.97575,0.93552,-0.173299,-0.184721,1
0.551834,-0.332518,1.088732,-0.922492,0.646757,-1.103648,1.228873,0.533138,-0.574126,1
0.550596,-0.284109,0.963967,-0.626818,0.414955,-1.105661,1.275377,0.476954,-0.298527,1
0.379248,-0.569921,0.696215,-0.184337,0.007976,-0.857999,1.133903,0.166299,-0.20767,1
0.356555,-0.592429,0.47295,0.23622,-0.425567,-0.556283,0.490233,-0.081611,-0.096794,1
0.312286,-0.596711,0.208654,0.454277,-0.88093,-0.088616,0.036806,-0.619876,-0.071887,1
0.286068,-0.512234,-0.040698,0.676454,-1.33459,0.237497,-0.162626,-0.676034,-0.176627,1
0.319721,-0.33912,-0.21657,0.375273,-1.450185,0.390946,-0.15249,-0.533672,-0.120938,1
0.372888,-0.170437,-0.286812,0.274563,-1.579527,0.505108,0.188485,-0.735181,-0.219401,1
0.393025,-0.038788,-0.239566,0.129309,-1.791505,0.533623,0.432658,-1.368944,-0.491623,1
0.504678,0.070339,-0.115383,-0.095369,-1.855388,0.496972,1.523424,-0.65473,-0.332143,1
0.65303,0.19108,0.166755,-0.291828,-1.882885,0.551026,-0.559568,-1.824901,0.840988,1
0.654628,0.32491,0.388826,-0.447045,-1.746522,0.687205,-0.197124,-0.913991,0.572239,1
0.870464,0.600762,0.580781,-0.546194,-1.495557,0.884923,-0.028029,1.525367,1.346321,1
1.080853,0.75223,0.476388,-0.612652,-1.053162,0.769001,0.03602,3.21022,0.626954,1
0.951542,1.002299,0.169703,-0.678812,-0.518604,0.294035,-1.504339,1.086678,-0.067465,1
0.726444,1.159233,-0.127863,-0.543077,-0.108233,-0.047988,-1.425535,0.430702,0.328342,1
0.579652,1.293961,-0.120647,-0.369963,0.31478,-0.116284,-0.753013,1.374571,0.478862,1
0.431753,1.090099,0.070539,-0.218191,0.696681,-0.066085,-0.43299,-0.135782,0.098297,1
0.254723,0.635227,0.185428,-0.065312,0.875453,-0.098046,-0.104432,-1.126786,-0.025683,1
0.13445,0.216916,0.12791,0.131683,1.009042,-0.395845,0.073234,-0.971147,0.191096,1
0.036346,-0.059129,0.175184,0.287346,1.077701,-0.716367,-0.032275,-0.577397,0.234467,1
-0.092151,-0.226131,0.360441,0.338882,1.032713,-0.853717,-0.159772,-0.628072,0.032491,1
-0.570262,-0.816527,0.565249,1.207738,0.442602,-0.57867,-0.119737,-0.29288,0.07444,1
-1.262339,-1.739934,0.825076,2.14306,0.21825,-0.046899,-0.179924,-0.058587,0.111053,1
-0.919476,-1.864028,0.413742,-0.575694,1.288531,-0.927704,-0.539353,0.526372,0.119823,1
-0.918581,-1.770081,-0.143137,-1.142172,1.239569,-0.582285,-0.507531,0.303596,0.081473,1
-1.054126,-1.446981,-0.178451,-0.348187,0.698509,0.11727,0.002732,-0.400777,0.071183,1
-0.936556,-1.292343,-0.18612,-0.050534,0.379133,0.296306,-0.01376,-0.816882,0.303435,1
-0.595553,-1.265387,-0.404031,0.648243,-0.166972,0.378782,-0.164469,-0.528351,-0.019181,1
-0.19007,-1.188058,-0.490039,1.452507,-0.869929,0.542627,-0.142988,-0.487998,0.129004,1
0.209773,-0.809554,-0.246465,1.621287,-1.224473,0.737165,-0.581124,-0.407874,0.167936,1
0.51761,-0.403709,0.068688,0.916255,-1.087143,0.688387,-0.587713,-0.040124,0.161033,1
0.462526,-0.035852,0.232913,0.344847,-1.035087,0.540774,-0.738294,0.009702,0.141259,1
0.433365,0.404018,0.03131,0.307934,-1.058463,0.520506,-0.257333,0.035743,0.179378,1
0.324275,0.841065,-0.188334,0.651089,-1.099204,0.576305,0.043472,-0.078511,0.182626,1
-0.002767,1.128753,-0.259648,0.64073,-0.937165,0.429592,0.146175,-0.066884,0.114116,1
-0.184236,0.930355,-0.389681,0.624122,-0.703391,0.341495,-0.041787,-0.004981,0.158972,1
-0.8092,0.878141,0.006382,0.607199,-0.386916,0.365759,0.011503,-0.219363,0.111025,1
-1.384125,0.984393,0.39521,0.606143,-0.088563,0.272252,-0.033717,-0.240217,0.117074,1
-1.678481,1.147473,0.514302,0.551785,0.205623,0.062422,-0.173813,-0.299578,0.202213,1
-1.951245,0.394506,0.792577,0.512346,0.385036,-0.177057,0.135848,-0.554572,0.131075,1
-1.623102,0.056582,0.848927,0.531119,0.427338,-0.136878,0.124823,-0.717858,0.253036,1
-1.223236,-0.319307,0.771727,0.561627,0.49134,-0.215261,-0.100298,-0.140167,0.089209,1
-0.671696,-0.511643,0.397758,0.346423,0.64202,-0.306358,0.145175,-0.128525,0.073225,1
-0.40265,-0.700684,0.075306,0.176813,0.682586,-0.237629,0.224323,-0.304812,0.123589,1
-0.21277,-0.633593,-0.196404,0.173259,0.730495,-0.186048,0.245924,-0.345203,0.058355,1
-0.104972,-0.274172,-0.273494,0.205015,0.770097,-0.139334,0.150884,-0.372703,0.086251,1
0.070322,-0.118223,-0.313354,0.160132,0.781196,-0.027801,-0.1336,-0.339544,0.078371,1
0.160327,-0.207521,-0.335935,0.259921,0.703483,-0.019055,-0.128302,-0.508636,0.088499,1
0.045736,-0.506324,-0.256243,0.363983,0.522144,-0.063268,-0.287329,-0.557769,0.065956,1
0.005832,-0.812184,-0.203031,0.419711,0.312608,-0.038156,-0.343755,-0.488477,0.068407,1
-0.0806,-0.981057,-0.097571,0.453311,0.145514,-0.045152,-0.342453,-0.608217,0.114202,1
-0.227248,-1.212966,-0.008259,0.501536,-0.024602,-0.004231,-0.303004,-0.429074,0.094757,1
-0.410133,-1.379604,-0.048796,0.627158,-0.181433,-0.175567,-0.44857,-0.525889,0.107853,1
-0.506818,-1.405857,0.339593,0.844578,-0.217041,0.072496,-0.954126,-0.782842,0.09096,1
-0.650157,-1.418159,0.576388,1.044184,-0.383538,0.094337,-0.669969,-0.947851,-0.127658,1
-0.431995,-1.263109,0.679194,1.364627,-0.355784,0.409243,-0.57405,-0.763008,0.100801,1
-0.297331,-1.094226,0.862272,1.534287,-0.534891,0.507523,-0.766039,0.049903,-0.048529,1
-0.10438,-0.918954,0.275749,1.520357,-0.843969,-0.122821,-0.38059,0.698613,0.187204,1
0.063895,-0.728921,-0.502017,1.558653,-1.024082,-0.541621,0.07383,0.769842,0.197058,1
0.191498,-0.446554,-0.7366,1.365621,-1.002237,-0.19995,0.516747,0.390932,0.216908,1
0.331546,0.011802,-0.460013,0.91989,-0.685741,0.238576,0.760458,0.301027,0.26871,1
0.515309,0.396439,-0.317145,0.50907,-0.457497,0.317257,1.0641,0.124342,0.573594,1
0.68983,0.690156,-0.195825,0.241291,-0.270108,0.391263,1.437147,-0.072037,0.426269,1
0.775524,0.970871,0.068169,0.019189,-0.181314,0.623365,1.218307,-0.542814,0.302818,1
0.76493,1.243153,0.399056,-0.215986,-0.045362,0.818127,1.111516,-0.634985,0.534009,1
0.626372,1.464786,0.837343,-0.916023,0.362346,0.928377,0.538949,0.412279,0.572452,1
0.476036,1.577236,0.858381,-1.223469,-0.092984,2.341741,-0.355297,1.326583,0.440175,1
0.304388,1.656232,0.443646,0.495089,-0.387815,2.510339,-0.851774,1.845198,0.65497,1
0.152452,1.806291,0.188866,-3.037344,0.952357,0.201596,-0.816487,0.837837,0.167313,1
-0.000797,1.873343,0.070194,-3.534068,1.420068,-0.538345,-0.110761,-1.264396,-0.367747,1
-0.093379,1.756223,-0.098823,-2.884816,1.463056,-0.707648,0.355041,-1.39515,-0.539305,1
-0.197372,1.721273,-0.110966,-1.795987,1.220503,-0.671295,1.165714,-0.41446,-0.824086,1
-0.226142,1.692329,-0.03746,-0.797751,1.089185,-0.49546,1.279669,0.998249,-0.114797,1
-0.202132,1.642353,0.14356,-0.139382,0.701928,-0.393141,0.280512,0.275093,0.007371,1
-0.208143,1.359625,0.354717,0.097002,0.647019,-0.493473,-0.46946,-0.768449,-0.113426,1
-0.176359,1.138319,0.577211,0.252986,0.564135,-0.448138,0.210998,-0.414545,-0.124707,1
-0.139126,0.88049,0.889312,0.39239,0.276323,-0.231982,0.73728,0.970839,0.492025,1
-0.068895,0.525727,0.917727,0.557271,-0.156173,-0.073463,-0.177626,2.047774,0.595944,1
-0.000925,0.073055,0.710175,0.587081,-0.461574,-0.070374,-0.249195,1.131208,0.085815,1
0.087771,-0.290863,0.501222,0.409662,-0.597795,-0.000129,-0.485785,0.448547,0.627722,1
0.143713,-0.471931,0.356943,0.37048,-0.850309,0.200315,-0.132172,-0.522368,-0.054235,1
0.154463,-0.64757,0.161584,0.383056,-1.003087,0.427706,0.521612,-1.321156,-0.292849,1
0.280924,-0.753981,-0.21886,0.305063,-1.143468,0.447257,0.720914,-1.630315,-0.764182,1
0.399506,-0.629712,-0.412765,0.195538,-1.252034,0.399929,0.180713,-0.721929,-0.286679,1
0.360567,-0.633387,-0.600284,0.084508,-1.260608,0.185375,-0.270757,0.802578,0.19468,1
0.32901,-0.703158,-0.583447,-0.059936,-1.155424,0.051834,-0.292362,1.354765,0.763808,1
0.313534,-0.73105,-0.247301,-0.201409,-0.955913,0.107867,-0.625209,1.169111,0.441154,1
0.302928,-0.772082,0.157962,-0.282296,-0.722484,0.197992,-0.720621,1.363218,0.55291,1
0.225517,-0.827347,0.266929,-0.347446,-0.443019,0.167855,-0.573992,0.641091,0.402443,1
0.165289,-0.822488,0.261446,-0.528256,0.064843,0.207463,-0.477242,-0.048791,0.173849,1
0.080639,-0.592211,0.247391,-0.633344,0.41901,0.197001,-0.109943,-0.454756,-0.014874,1
0.041971,-0.297861,0.297678,-0.540038,0.36079,0.152965,0.000697,-0.444099,-0.066995,1
-0.014998,-0.18157,0.321752,-0.217943,0.285718,0.170552,0.034995,-0.056705,-0.062864,1
-0.102078,-0.111223,0.301215,-0.206133,0.310219,0.107593,-0.003346,0.233063,0.128423,1
-0.090359,-0.032847,0.274613,-0.446837,0.577876,-0.150393,-0.301959,0.281188,0.171776,1
-0.082786,0.013014,0.282395,-0.433577,0.39658,-0.335678,-0.409948,0.123859,0.299132,1
-0.006541,0.029236,0.284473,-0.409636,0.270106,-0.209198,-0.140921,-0.029086,0.209626,1
0.018927,0.148719,0.242181,-0.258817,0.288317,-0.06407,-0.044705,-0.27958,-0.00825,1
0.090598,0.297701,0.151047,-0.208743,0.19967,-0.027483,0.11745,0.000733,0.039347,1
0.065326,0.389373,0.140914,-0.107894,0.156188,0.003382,0.067774,0.074641,0.058831,1
0.060812,0.320563,0.113759,-0.083004,0.069689,0.103292,0.141115,0.171096,0.030993,1
0.044755,0.209355,0.018734,-0.156929,0.084825,0.031076,0.148301,0.401091,0.081901,1
0.024847,0.025895,0.292384,-0.105228,0.113588,-0.006247,0.146484,0.185001,-0.015536,1
0.11146,-0.106803,0.244897,-0.085275,0.054133,-0.021416,0.107933,0.098128,0.122135,1
0.154615,-0.06855,0.11307,-0.057826,0.00523,-0.086977,0.028746,0.066865,0.128331,1
0.117369,0.046642,0.134747,-0.077302,-0.017183,-0.051407,0.017736,0.092687,0.121289,1
0.068659,-0.042524,0.357871,-0.10733,0.083261,0.214301,-0.057509,0.182162,0.139058,1
0.125942,0.01608,0.158834,-0.02775,0.161991,0.203618,-0.022348,0.252449,0.148509,1
0.091689,0.034681,0.250481,-0.090041,0.016303,0.202081,-0.040078,0.149211,0.117771,1
0.011142,0.067753,0.58106,-0.146615,0.038955,0.54358,-0.064246,0.126924,0.027038,1
0.034703,0.010259,0.706418,-0.160534,0.173477,0.802625,-0.038833,0.133868,0.074639,1
0.024526,-0.006896,0.745248,-0.281782,0.411761,0.728026,0.237619,0.011547,-0.051954,1
-0.121051,-0.125888,1.05005,-0.398375,0.183667,1.110625,0.447826,-0.630978,-0.576769,1
-0.012961,-0.192356,1.16909,-0.357554,0.225761,1.379972,0.057706,-0.51234,-0.201838,1
-0.03168,-0.466465,1.382099,-0.133342,0.412827,1.192643,0.213273,0.494015,0.04691,1
0.010444,-0.548809,1.482035,0.228373,0.775224,0.868513,0.071675,1.298263,0.484909,1
0.033651,-0.670537,0.954043,0.156528,0.238792,0.982067,-0.289479,0.961108,1.0574,1
0.16178,-0.155082,0.806631,0.74265,-0.416008,1.264329,0.068102,0.150714,0.425782,1
0.44161,0.289329,0.525784,-1.495372,0.129326,0.238368,-0.419028,0.098886,0.441705,1
0.707263,0.822782,0.382114,-2.618128,0.191505,0.143469,0.155178,0.237197,0.000869,1
0.444459,0.638191,0.349913,-1.521268,-0.439612,0.446613,0.343726,-0.068025,-0.111717,1
0.624062,0.373805,0.811691,-0.632642,0.008832,0.05725,0.382176,-0.231826,-0.117534,1
1.36442,0.079382,1.01204,-0.672581,0.789184,-0.224707,0.335961,-0.506017,0.005976,1
0.979376,0.057945,0.742667,-1.491236,1.012574,0.336663,0.24367,0.123345,0.191769,1
0.322407,0.358761,0.344691,-0.853259,-0.152051,-0.73828,0.031414,0.00068,0.164841,1
-0.247015,0.59931,-0.590049,1.559167,-0.588004,-0.835867,0.128578,0.205516,0.02187,1
-0.28932,1.251397,-1.30099,1.68215,-1.529511,-0.675146,0.029356,0.370977,0.186028,1
-0.602903,1.381167,-0.940147,2.817063,-3.28981,0.145266,-0.041408,0.242753,0.128589,1
-0.450643,1.298836,-1.814964,0.488043,-1.611524,-1.717174,-0.116417,-0.162403,0.033873,1
-0.342674,1.357155,-2.121785,-0.131287,-1.298047,-2.20175,-0.264448,0.001405,0.228683,1
-0.657642,0.925277,-0.75827,2.30553,-1.912158,-1.45294,-0.513049,0.41449,0.087192,1
-0.214758,-0.424566,-0.575355,1.206044,-2.066525,-0.132536,-0.344927,0.180727,0.174631,1
0.844988,1.290969,-0.662787,-0.204699,-1.286629,-0.161589,0.028001,-0.388991,0.126436,1
1.160566,0.83614,-0.524481,0.708552,-0.302456,-1.46018,0.239453,-0.823596,0.18032,1
1.090214,0.739195,0.221214,1.16764,0.094046,-1.905404,0.268555,-0.495982,0.016642,1
0.560601,-0.204919,-0.081484,0.040748,0.868955,-1.274797,0.033736,-0.307938,0.114308,1
-0.489809,-1.460773,0.603536,-1.1167,-0.511209,0.706412,-0.147931,-0.552629,0.170139,1
-0.556961,-1.772354,-0.000826,0.245265,0.696636,1.608464,-0.227082,-0.55578,0.08314,1
-0.856925,-2.76617,0.983003,-1.039732,2.165617,0.824216,-0.00454,-0.210849,0.033885,1
-1.159142,-2.100235,0.77144,-1.296745,2.272176,0.726872,-0.112362,-0.397063,0.234273,1
-1.693165,-2.418863,0.511969,-0.699274,2.184437,0.127206,-0.61294,-0.254164,0.180358,1
-1.833289,-1.949568,-0.78615,-0.033295,1.309643,-0.279752,-0.631219,-0.020212,0.215575,1
-1.34496,0.174808,-1.098718,-0.063714,-0.777838,-0.451692,-0.44626,0.164835,0.206581,1
-1.267398,1.327188,-1.396033,2.122553,-1.021812,-0.759444,-0.392191,0.221559,0.188785,1
-0.98849,1.663414,-1.348859,3.036315,-0.749429,-0.64095,0.05272,-0.119462,0.093679,1
-0.6329,2.027333,-0.594224,1.90203,-1.320596,-0.314588,0.187188,-0.29311,0.186119,1
-0.404746,2.195406,0.402787,1.427589,-0.353558,-0.096738,0.228739,-0.540844,0.102956,1
-0.18487,0.950101,-0.432535,1.476043,0.40299,-1.456012,0.045193,-0.722613,0.141602,1
-0.364808,0.267993,-1.293282,-0.729212,-1.01796,0.645322,-0.400845,-0.566013,0.181336,1
0.145075,-0.135162,-1.702554,0.425769,-0.747635,-0.420883,-0.579929,-0.232647,0.079935,1
-0.575549,-1.259917,-0.428206,0.303786,-0.271751,-0.96102,-0.412804,0.044605,0.030514,1
-1.103445,-1.076985,0.043415,-0.836583,0.048028,-1.306377,-0.566822,-0.117421,0.223758,1
-0.642935,-1.050848,0.767762,0.281491,0.014215,-0.994825,-0.803722,-0.114199,0.174915,1
-0.114544,-0.56772,0.963738,0.193963,-0.649942,-0.812665,-0.482515,-0.204706,0.202698,1
-0.159221,-0.015288,0.786191,1.424263,-0.016119,1.627172,-0.529359,-0.346881,0.120439,1
-0.257148,-0.690322,0.949639,1.733854,-0.224092,0.533977,-0.400135,-0.41563,0.073563,1
-0.251064,-0.540085,1.113368,0.771172,-0.488411,2.899749,-0.170096,-0.255953,-0.068817,1
-0.090581,-0.832305,0.301502,-0.780858,0.103988,1.583691,0.01567,-0.261194,0.097751,1
0.096165,-1.829126,0.15453,-0.801408,0.470367,0.272955,-0.032866,-0.241276,0.162784,1
-0.208402,-1.706062,0.02529,-0.88949,0.653064,-1.127214,0.116676,0.164236,0.058938,1
0.228885,-1.047542,0.522033,-1.021344,0.413105,-0.846052,0.322729,0.251655,0.099116,1
0.79791,-0.270783,0.573835,-1.268756,0.174892,-0.012365,0.355831,0.166837,0.148221,1
0.58318,0.134039,-0.114691,-0.489647,-0.18904,0.580663,0.498528,0.046709,0.081884,1
0.515438,0.077937,-0.421761,0.427034,0.286603,0.647046,0.623099,-0.020088,0.001981,1
0.666092,0.01661,-0.14742,0.695701,0.257089,0.573958,0.620545,-0.141792,0.118593,1
0.734259,0.051055,0.411648,0.276324,0.55462,0.217147,0.504766,-0.21717,0.064723,1
0.38085,-0.093164,0.597014,0.102668,0.502474,0.348322,0.356209,-0.383274,0.034004,1
-0.017847,-0.321798,0.491439,-0.114622,0.154309,0.325842,0.289496,-0.286959,0.184356,1
-0.309741,-0.381995,0.875299,-1.070115,0.658376,-0.177997,0.177906,0.033423,0.173246,1
-0.019188,0.311723,1.306329,-0.377109,0.585579,0.284502,-0.094951,0.479572,0.150293,1
0.417143,0.005309,-0.282377,0.387977,0.446841,0.112186,-0.383422,0.713662,0.477774,1
0.920109,-0.067521,-0.372356,0.365366,0.796786,-0.106076,-0.235989,0.797929,1.593819,1
0.152419,0.236134,0.110638,-1.088759,0.418097,0.646166,-0.311544,1.303803,0.537959,1
0.016826,0.630848,0.354521,-1.202251,0.278746,0.409458,-0.241082,0.36375,-0.311325,1
0.497927,0.586121,0.369304,-0.906245,0.497147,0.031801,0.553401,-0.407098,0.095235,1
0.593525,0.32229,0.135848,-0.144832,0.339072,0.346217,1.064285,-0.80735,-0.032452,1
0.426324,0.190671,0.285385,0.105253,0.109939,-0.082182,1.019905,-1.289527,-0.497696,1
0.101746,-0.123745,0.209029,0.29289,-0.049405,-0.800113,0.679609,-0.907151,-0.253263,1
-0.606328,-0.121637,0.47216,-0.443959,-0.045535,-0.381344,0.404193,-0.393723,-0.083898,1
-0.619733,-0.108809,0.078714,-0.304192,-0.16746,-0.06279,0.123222,-0.244982,-0.042893,1
0.130715,-0.010704,0.130376,-0.046323,-0.001327,-0.033602,-0.233759,0.041939,0.057196,1
0.3391,0.268061,0.379431,0.14517,0.003238,0.203569,-0.464778,0.806424,0.06683,1
0.339894,0.337605,0.451252,-0.498579,0.142118,-0.023789,-0.500338,1.034167,0.308793,1
0.504262,0.267734,0.400682,-0.556072,0.149649,0.233209,-0.4603,1.16487,0.954995,1
0.518836,0.044916,0.30158,-0.367194,-0.177202,0.52765,-0.457217,1.252193,0.885313,1
0.325196,-0.098467,0.35473,0.264809,-0.239749,0.484141,-0.333758,0.83053,0.426631,1
0.311968,0.075713,0.351159,0.223366,-0.350122,0.430253,-0.442931,1.234193,0.761799,1
0.144909,0.208303,0.734979,-0.285884,0.141721,-0.163147,-0.385571,-0.071494,0.274058,1
-0.122739,0.257412,0.383434,-0.262322,0.202992,-0.117835,0.401358,-0.559279,-0.2949,1
-0.465007,-0.087794,-0.421401,-0.233065,0.036129,0.080992,0.838122,-0.689329,-0.586707,1
-0.323698,-0.182929,-0.430585,-0.273339,0.079518,-0.109515,0.349322,-1.555786,-0.950257,1
-0.20721,-0.214884,-0.209346,-0.00924,-0.072752,-0.022339,-0.208444,-2.229914,-0.966182,1
-0.237742,-0.064629,0.117192,-0.038756,-0.361818,-0.060437,0.245955,-1.892206,-0.590174,1
-0.112796,0.05182,0.193117,0.341857,-0.03988,0.285475,1.463439,-0.675615,0.219547,1
0.23174,0.162551,0.29441,-0.178838,-0.011919,0.020045,1.024978,1.023251,0.613708,1
0.349184,-0.054861,0.213562,-0.233484,-0.277932,0.194383,-0.127714,0.83851,0.136342,1
0.002656,-0.049236,0.432685,-0.139249,-0.026457,0.122779,-0.864221,1.33262,0.518982,1
-0.524807,0.094728,0.475764,-0.38756,0.122142,0.252594,-1.002107,1.515269,0.750805,1
0.237904,0.255719,0.200428,-0.617128,0.105544,0.67524,-1.163835,1.751727,0.954524,1
0.425597,0.139691,-0.006666,-0.477592,0.216583,0.372742,-0.897275,1.084077,0.505404,1
0.203222,0.194983,0.162495,0.065264,0.39983,0.186007,-0.942974,0.586244,0.360746,1
0.13923,0.122744,-0.087243,-0.258371,0.200975,-0.052073,-0.822799,0.291259,0.338897,1
0.182883,0.202477,-0.009134,-0.683151,0.148732,-0.090148,-0.46491,-0.218155,0.08216,1
-0.094614,0.009546,0.087249,-0.554485,-0.141621,-0.241845,-0.355392,-0.585788,0.14275,1
-0.225419,0.033098,0.41959,-0.170336,-0.367348,-0.143633,0.008364,-0.605109,-0.146306,1
-0.153635,0.073365,0.721918,-0.102462,-0.356243,-0.243845,0.295215,-0.617973,-0.138842,1
0.271803,0.1104,0.384199,-0.294518,-0.335511,-0.212673,0.24813,-0.896016,-0.568417,1
0.088633,0.14328,0.152605,-0.685071,-0.302394,-0.118649,0.58602,-0.715958,-0.831583,1
0.122856,0.327647,0.196249,-0.633842,-0.296609,-0.349637,0.725041,-0.276083,-0.260267,1
0.118734,0.297724,-0.063598,-0.485951,-0.152708,-0.301263,-2.602902,-2.798253,1.242593,1
0.017468,-0.055518,0.234914,-0.363864,-0.327646,0.785609,2.582654,-0.543074,-1.905312,1
0.161455,-0.26216,0.429525,-0.538345,-0.470976,0.881145,3.776194,3.882787,1.710628,1
0.213693,-0.333122,0.638572,-0.591047,-0.313351,0.392223,1.50695,-0.057273,-0.037909,1
-0.157567,-0.361039,0.655594,0.016442,-0.343368,0.114631,0.866639,-0.726004,-0.007124,1
-0.041179,-0.283194,-0.094098,0.086577,-0.238483,-0.249535,1.86606,-0.805396,-0.298779,1
-0.017451,-0.160773,-0.415288,-0.111828,0.091796,-0.540195,0.484845,0.030138,0.63059,1
0.285768,0.035903,-0.362092,0.357858,0.222273,-0.129691,-0.727409,-0.005354,0.206278,1
0.749917,0.286241,-0.28767,0.955805,0.123269,0.227724,0.032441,0.845464,-0.291379,1
0.765798,0.357289,-0.028781,0.792423,0.046763,0.245049,0.48333,0.122105,0.47548,1
0.403729,0.206195,0.298374,0.124204,0.162779,-0.256519,-0.080064,-0.390367,0.04537,1
-0.010515,0.007253,0.327864,-0.620264,0.471898,-0.470172,-0.615649,0.458076,0.115784,1
-0.150254,-0.263484,0.087363,-0.366289,0.430478,-0.250686,-0.525818,0.997071,0.331904,1
-0.074015,-0.354793,0.120785,0.07232,0.04652,0.26789,-0.728421,0.531427,0.368504,1
