sep=,
DeviceTag:,D_leg_new
FirmwareVersion:,2.2.1
AppVersion:,2023.6.0
SyncStatus:,Synced
OutputRate:,30Hz
FilterProfile:,General
Measurement Mode:,Sensor fusion Mode - Complete(Quaternion)
StartTime: ,2026-09-07_14:39:40_510 AEST
© Movella Technologies B. V. 2005-2026

PacketCounter,SampleTimeFine,Quat_W,Quat_X,Quat_Y,Quat_Z,FreeAcc_X,FreeAcc_Y,FreeAcc_Z
1,3363968655,0.565383,-0.231258,-0.782731,-0.119166,0.052448,-0.198923,0.105946
2,3364001989,0.565434,-0.230858,-0.782836,-0.119012,-0.006915,-0.095588,0.177296
3,3364035323,0.565859,-0.229920,-0.782799,-0.119052,-0.009022,-0.000256,0.310381
4,3364068657,0.566829,-0.228574,-0.782405,-0.119617,0.168192,0.162733,0.192855
5,3364101991,0.568020,-0.227151,-0.781842,-0.120354,0.122181,0.076353,0.265159
6,3364135325,0.570048,-0.225389,-0.780615,-0.122033,-0.117767,-0.018390,0.292665
7,3364168659,0.572652,-0.222431,-0.779261,-0.123907,-0.074922,0.125013,0.217695
8,3364201993,0.574920,-0.217926,-0.778823,-0.124163,0.276889,-0.383867,0.154231
9,3364235327,0.576809,-0.214180,-0.778621,-0.123179,0.582637,-0.660731,-0.126591
10,3364268661,0.577668,-0.212576,-0.778585,-0.122162,0.168706,-0.658442,0.102590
11,3364301995,0.577257,-0.211551,-0.779415,-0.120581,0.035595,-0.369504,0.175595
12,3364335329,0.576481,-0.209234,-0.781099,-0.117395,0.050477,-0.175768,0.199328
13,3364368663,0.575621,-0.206400,-0.783027,-0.113727,0.181810,0.363306,0.018264
14,3364401997,0.574346,-0.203687,-0.785234,-0.109785,0.391564,0.482289,0.116791
15,3364435331,0.573342,-0.201194,-0.787058,-0.106516,0.482968,0.316790,0.235970
16,3364468665,0.573049,-0.199639,-0.787927,-0.104575,0.236411,-0.031379,0.174852
17,3364501999,0.573078,-0.198032,-0.788603,-0.102360,0.255574,-0.333518,0.202784
18,3364535333,0.573384,-0.197663,-0.788702,-0.100581,0.059126,-0.058027,0.225284
19,3364568667,0.573746,-0.198718,-0.788168,-0.100618,-0.186757,-0.017006,0.189988
20,3364602001,0.574153,-0.200561,-0.787122,-0.102810,0.456832,0.302271,0.186725
21,3364635335,0.574653,-0.204209,-0.785266,-0.106942,0.245941,0.367834,0.170310
22,3364668669,0.574841,-0.209065,-0.783000,-0.112994,0.033943,-0.107379,0.241076
23,3364702003,0.574845,-0.213918,-0.780578,-0.120401,0.223985,-0.283673,0.190684
24,3364735337,0.574878,-0.218242,-0.778333,-0.126846,-0.178815,-0.150126,0.085057
25,3364768671,0.574698,-0.222011,-0.776223,-0.133854,0.026722,0.054790,0.251369
26,3364802005,0.574956,-0.225257,-0.774022,-0.139935,-0.199552,0.585646,0.098538
27,3364835339,0.574416,-0.228686,-0.772404,-0.145423,0.136992,0.397629,0.161357
28,3364868673,0.573323,-0.232732,-0.771176,-0.149769,-0.169028,0.220984,0.122919
29,3364902007,0.571373,-0.236812,-0.770852,-0.152471,0.031130,0.241620,0.215501
30,3364935341,0.570069,-0.240587,-0.770027,-0.155576,0.184099,0.188445,0.274165
31,3364968675,0.569705,-0.244101,-0.768479,-0.159051,0.222803,0.198967,0.097678
32,3365002009,0.569207,-0.248218,-0.766748,-0.162776,0.184276,0.336422,0.165727
33,3365035343,0.568278,-0.253615,-0.764757,-0.167014,0.191010,0.330265,0.411132
34,3365068677,0.567312,-0.259884,-0.762158,-0.172452,0.318698,0.129576,0.345732
35,3365102011,0.566956,-0.267187,-0.758245,-0.179564,0.296405,0.120992,0.279876
36,3365135345,0.566566,-0.275169,-0.753595,-0.188113,0.051128,-0.229363,0.280005
37,3365168679,0.566223,-0.283130,-0.748563,-0.197205,-0.022740,-0.492702,-0.093227
38,3365202013,0.565561,-0.291746,-0.743287,-0.206293,-0.166269,-0.446908,0.153613
39,3365235347,0.564383,-0.300081,-0.738498,-0.214593,-0.374569,-0.115961,-0.010408
40,3365268681,0.562996,-0.307196,-0.734737,-0.220986,-0.452846,-0.009660,-0.045181
41,3365302015,0.561563,-0.312728,-0.732240,-0.225120,-0.230769,0.661864,0.035220
42,3365335349,0.560166,-0.315622,-0.731463,-0.227081,-0.301200,0.445241,0.105742
43,3365368683,0.559577,-0.316046,-0.731735,-0.227066,0.324009,0.878035,0.277249
44,3365402017,0.559642,-0.315395,-0.731989,-0.226991,0.374107,0.723444,0.379541
45,3365435351,0.560053,-0.314835,-0.731928,-0.226956,0.506259,0.237054,0.300135
46,3365468685,0.560679,-0.314586,-0.731412,-0.227414,0.466063,-0.137537,-0.073349
47,3365502019,0.561188,-0.314181,-0.731311,-0.227043,-0.076821,-0.441106,0.092404
48,3365535353,0.562016,-0.312144,-0.732447,-0.224124,-0.544170,-0.466693,0.220247
49,3365568687,0.563029,-0.308238,-0.734834,-0.219120,-0.304912,-0.268734,0.040346
50,3365602021,0.564208,-0.302801,-0.738134,-0.212476,0.034168,-0.055716,0.031512
51,3365635355,0.565496,-0.296509,-0.741803,-0.205015,0.127934,0.161472,0.290674
52,3365668689,0.566682,-0.289570,-0.745720,-0.197306,0.231829,0.087901,0.164807
53,3365702023,0.568081,-0.282115,-0.749395,-0.190023,0.091226,-0.033944,0.237848
54,3365735357,0.569928,-0.274093,-0.752693,-0.183072,0.096892,0.042431,0.094396
55,3365768691,0.571550,-0.265609,-0.756298,-0.175507,-0.202486,-0.235452,0.183312
56,3365802025,0.572069,-0.256523,-0.761226,-0.165756,-0.932107,-0.847344,0.121665
57,3365835359,0.572248,-0.245670,-0.767374,-0.152717,-0.477696,-1.000570,0.047705
58,3365868693,0.572989,-0.233450,-0.773309,-0.138509,-0.149671,-0.236029,0.148760
59,3365902027,0.573355,-0.220852,-0.779087,-0.124574,0.212667,0.201486,0.227953
60,3365935361,0.573627,-0.208475,-0.784321,-0.111077,0.375253,0.595381,0.345219
61,3365968695,0.573585,-0.198833,-0.788346,-0.099915,0.665618,0.868696,0.189976
62,3366002029,0.573409,-0.191348,-0.791229,-0.092481,0.334830,0.506334,0.429908
63,3366035363,0.573470,-0.185657,-0.793089,-0.087636,0.366314,0.277539,0.057991
64,3366068697,0.573275,-0.181154,-0.794725,-0.083413,0.334839,0.065200,0.067545
65,3366102031,0.573233,-0.177949,-0.795820,-0.080097,0.030909,0.119774,0.123936
66,3366135365,0.572571,-0.176120,-0.796880,-0.078321,0.368269,-0.331850,0.342410
67,3366168699,0.572078,-0.177079,-0.796947,-0.079073,0.648915,-0.056004,0.178199
68,3366202033,0.571999,-0.181090,-0.795698,-0.083032,0.669065,-0.080440,0.275473
69,3366235367,0.572137,-0.187852,-0.793286,-0.089859,0.501886,0.097638,0.234482
70,3366268701,0.572086,-0.195974,-0.790332,-0.098459,0.387007,-0.037527,0.245043
71,3366302035,0.571783,-0.204440,-0.787185,-0.107775,0.088732,-0.243854,0.184078
72,3366335369,0.571398,-0.212860,-0.783855,-0.117362,-0.061387,-0.326554,0.118564
73,3366368703,0.571062,-0.220566,-0.780486,-0.126834,0.150859,-0.056498,0.205268
74,3366402037,0.570692,-0.227968,-0.777052,-0.136158,0.041093,0.130247,0.123156
75,3366435371,0.570324,-0.235283,-0.773583,-0.144733,-0.123804,0.242772,0.160431
76,3366468705,0.569539,-0.241794,-0.770648,-0.152546,-0.173799,0.059736,0.244409
77,3366502039,0.569048,-0.246450,-0.768240,-0.158938,0.139754,-0.055471,0.103419
78,3366535373,0.568604,-0.250306,-0.766185,-0.164327,0.097469,0.048086,0.269194
79,3366568707,0.568180,-0.254584,-0.763963,-0.169490,0.050911,-0.058405,0.214069
80,3366602041,0.567848,-0.259550,-0.761249,-0.175185,-0.081392,0.051344,0.059436
81,3366635375,0.567010,-0.263845,-0.759261,-0.180043,0.107128,-0.013272,0.182523
82,3366668709,0.566152,-0.267527,-0.757458,-0.184841,0.028180,-0.097661,0.164188
83,3366702043,0.565815,-0.271132,-0.755381,-0.189071,0.118674,0.185326,0.179365
84,3366735377,0.565432,-0.275170,-0.753036,-0.193679,-0.138192,0.291028,0.222190
85,3366768711,0.564999,-0.279134,-0.750593,-0.198688,0.031318,0.425867,0.213714
86,3366802045,0.564504,-0.283104,-0.748228,-0.203348,0.161401,0.376580,0.221495
87,3366835379,0.564056,-0.287153,-0.745783,-0.207841,-0.196695,0.217892,0.025578
88,3366868713,0.563459,-0.290289,-0.744142,-0.210962,-0.147538,-0.045147,0.046153
89,3366902047,0.562767,-0.292918,-0.742982,-0.213256,0.053157,0.226540,0.078200
90,3366935381,0.562033,-0.294645,-0.742597,-0.214150,-0.184261,0.189864,0.155881
91,3366968715,0.561778,-0.294779,-0.742906,-0.213560,0.164372,0.095584,0.215460
92,3367002049,0.561804,-0.294944,-0.742995,-0.212954,0.340332,0.201009,0.211373
93,3367035383,0.561616,-0.295714,-0.742835,-0.212942,0.411966,-0.126758,0.140168
94,3367068717,0.561672,-0.296987,-0.742195,-0.213254,0.374100,-0.167607,0.127187
95,3367102051,0.561488,-0.297946,-0.742256,-0.212185,-0.057613,0.010266,0.131389
96,3367135385,0.561445,-0.296783,-0.743813,-0.208445,-0.408047,0.173506,0.315725
97,3367168719,0.561806,-0.292350,-0.747093,-0.201902,-0.533643,0.397982,0.118353
98,3367202053,0.562697,-0.285229,-0.751426,-0.193345,-0.272217,0.367136,0.158435
99,3367235387,0.564180,-0.276480,-0.756007,-0.183631,0.237013,0.545284,0.126765
100,3367268721,0.565460,-0.268138,-0.760225,-0.174419,0.359916,0.235958,0.254171
101,3367302055,0.566382,-0.261102,-0.763800,-0.166295,0.353792,-0.189307,0.212867
102,3367335389,0.566819,-0.255245,-0.767121,-0.158425,0.108488,-0.583064,-0.078298
103,3367368723,0.566849,-0.248690,-0.771032,-0.149507,-0.006786,-1.051867,0.388738
104,3367402057,0.567585,-0.239594,-0.775407,-0.138542,-0.122324,-0.422577,0.295668
105,3367435391,0.568818,-0.230010,-0.779419,-0.126706,-0.161079,-0.051938,0.200007
106,3367468725,0.569978,-0.222297,-0.782355,-0.116776,0.473445,0.277662,0.221477
107,3367502059,0.570396,-0.217523,-0.784222,-0.111063,0.486819,0.824588,0.168892
108,3367535393,0.570077,-0.215410,-0.785559,-0.107308,0.194253,0.321448,0.112177
109,3367568727,0.569756,-0.213469,-0.786791,-0.103811,-0.385735,0.215872,0.252719
110,3367602061,0.569991,-0.209815,-0.788107,-0.099905,-0.637522,-0.036342,0.082966
111,3367635395,0.570293,-0.204363,-0.789966,-0.094677,0.108398,-0.059053,0.261730
112,3367668729,0.570619,-0.200250,-0.791234,-0.090830,0.302451,0.043681,0.083070
113,3367702063,0.570733,-0.199581,-0.791362,-0.090475,0.853911,0.156759,0.111460
114,3367735397,0.570497,-0.202453,-0.790412,-0.093825,0.668625,-0.457443,0.256607
115,3367768731,0.569997,-0.207287,-0.788925,-0.098696,0.350614,-0.486197,0.301335
116,3367802065,0.569453,-0.212547,-0.787268,-0.103749,0.001191,-0.403131,0.209726
117,3367835399,0.568909,-0.217359,-0.785695,-0.108576,-0.327076,-0.061423,0.141921
118,3367868733,0.568233,-0.221131,-0.784559,-0.112636,-0.103366,0.187207,0.136539
119,3367902067,0.567517,-0.224601,-0.783442,-0.117065,0.089495,0.264158,0.281845
120,3367935401,0.566807,-0.228483,-0.782110,-0.121806,0.175037,0.522792,0.154141
121,3367968735,0.565925,-0.232657,-0.780700,-0.126943,0.071441,0.338582,0.147995
122,3368002069,0.565165,-0.236749,-0.779102,-0.132462,0.066349,-0.093693,0.157005
123,3368035403,0.564609,-0.240881,-0.777229,-0.138259,0.485447,-0.275850,0.115068
124,3368068737,0.564491,-0.245593,-0.774714,-0.144428,0.702526,-0.601475,0.332978
125,3368102071,0.564623,-0.251534,-0.771341,-0.151561,0.495582,-0.696805,0.249924
126,3368135405,0.564653,-0.258811,-0.767346,-0.159285,0.266874,-0.602275,0.235682
127,3368168739,0.564223,-0.266380,-0.763346,-0.167342,-0.056836,-0.410945,0.015584
128,3368202073,0.563848,-0.273142,-0.759720,-0.174074,0.037348,-0.059349,0.106050
129,3368235407,0.563118,-0.279670,-0.756553,-0.179769,-0.116852,0.166040,0.259480
130,3368268741,0.562320,-0.285445,-0.753731,-0.184968,-0.307073,0.069063,0.193499
131,3368302075,0.562122,-0.290092,-0.750854,-0.189975,0.037061,0.254648,0.143783
132,3368335409,0.561939,-0.294465,-0.748041,-0.194827,0.137233,0.375852,0.130444
133,3368368743,0.561304,-0.298966,-0.745430,-0.199745,0.009130,0.221720,0.108603
134,3368402077,0.560662,-0.303049,-0.743174,-0.203763,-0.095437,0.588055,-0.020680
135,3368435411,0.559857,-0.305857,-0.742141,-0.205537,-0.702061,0.500558,0.198874
136,3368468745,0.559575,-0.305813,-0.742537,-0.204941,-0.355073,0.595376,0.176765
137,3368502079,0.559811,-0.303672,-0.743872,-0.202625,-0.098610,0.525931,0.086514
138,3368535413,0.560333,-0.300745,-0.745526,-0.199445,0.341353,0.318967,0.201927
139,3368568747,0.560811,-0.298290,-0.746899,-0.196631,0.271188,0.228723,0.189761
140,3368602081,0.561271,-0.296195,-0.748088,-0.193946,0.010328,-0.012061,0.320866
141,3368635415,0.561770,-0.294111,-0.749227,-0.191258,0.001465,-0.159587,0.126167
142,3368668749,0.562394,-0.291596,-0.750533,-0.188132,0.002181,-0.015864,0.046309
143,3368702083,0.562999,-0.288888,-0.751922,-0.184923,0.088052,0.013416,0.139574
144,3368735417,0.563439,-0.286014,-0.753550,-0.181394,0.156827,0.007565,0.240398
145,3368768751,0.563679,-0.283160,-0.755340,-0.177639,0.322691,-0.106701,0.173359
146,3368802085,0.563889,-0.280361,-0.757163,-0.173607,0.089522,-0.114287,0.175580
147,3368835419,0.564254,-0.277091,-0.759050,-0.169377,0.110306,-0.135780,0.264771
148,3368868753,0.564803,-0.273266,-0.761031,-0.164810,0.119345,-0.127517,0.071854
149,3368902087,0.565401,-0.268949,-0.763239,-0.159568,0.096907,-0.261783,0.099130
150,3368935421,0.566076,-0.264304,-0.765549,-0.153767,-0.184874,-0.317905,0.165603
151,3368968755,0.566788,-0.258377,-0.768387,-0.146907,0.069702,-0.408794,0.133654
152,3369002089,0.567581,-0.251734,-0.771411,-0.139338,0.179993,-0.260844,0.055345
153,3369035423,0.568173,-0.245386,-0.774512,-0.130788,-0.135070,-0.044037,0.239376
154,3369068757,0.568797,-0.239910,-0.776981,-0.123375,0.153000,0.677820,0.277713
155,3369102091,0.569569,-0.234820,-0.778915,-0.117262,-0.070356,0.597023,0.210487
156,3369135425,0.570376,-0.229561,-0.780791,-0.111113,0.006109,0.544003,0.152105
157,3369168759,0.570824,-0.225194,-0.782518,-0.105457,-0.078801,0.459381,0.204032
158,3369202093,0.571492,-0.221587,-0.783577,-0.101544,-0.176905,0.473760,0.277178
159,3369235427,0.572374,-0.218872,-0.784007,-0.099121,0.087716,0.325171,0.247256
160,3369268761,0.573185,-0.218089,-0.783684,-0.098707,0.609740,0.055797,0.096020
161,3369302095,0.573599,-0.219217,-0.782886,-0.100128,0.698915,-0.373660,0.241655
162,3369335429,0.574112,-0.221635,-0.781468,-0.102901,0.305516,-0.487178,0.203327
163,3369368763,0.574318,-0.224943,-0.779913,-0.106311,0.265619,-0.570018,0.126106
164,3369402097,0.574000,-0.228648,-0.778571,-0.109906,0.139780,-0.693700,0.107648
165,3369435431,0.573482,-0.231602,-0.777729,-0.112358,0.093786,-0.632141,0.223001
166,3369468765,0.573080,-0.234355,-0.776848,-0.114768,0.163018,-0.102239,0.174689
167,3369502099,0.572762,-0.237572,-0.775658,-0.117751,0.041826,0.325231,0.210202
168,3369535433,0.572521,-0.241086,-0.774209,-0.121268,0.062566,0.198842,0.272085
169,3369568767,0.572315,-0.244737,-0.772552,-0.125417,-0.091606,0.108402,0.185577
170,3369602101,0.572130,-0.248814,-0.770679,-0.129695,-0.108941,0.202365,0.170091
171,3369635435,0.571786,-0.253453,-0.768580,-0.134590,-0.193584,0.321828,0.158409
172,3369668769,0.571370,-0.258077,-0.766425,-0.139762,-0.338575,0.424579,0.061416
173,3369702103,0.570796,-0.262343,-0.764582,-0.144188,-0.038694,0.279592,0.196908
174,3369735437,0.570318,-0.266266,-0.762774,-0.148403,0.095054,0.207815,0.255875
175,3369768771,0.569737,-0.270456,-0.760781,-0.153212,0.271248,0.025562,0.088898
176,3369802105,0.569022,-0.275314,-0.758529,-0.158293,0.484041,-0.224174,0.314866
177,3369835439,0.568263,-0.281277,-0.755598,-0.164441,0.534912,-0.346942,0.080400
178,3369868773,0.567173,-0.287954,-0.752468,-0.170873,0.194308,-0.518827,0.218911
179,3369902107,0.566116,-0.294246,-0.749484,-0.176675,-0.052245,-0.426148,0.154168
180,3369935441,0.564930,-0.299767,-0.746953,-0.181831,-0.249335,-0.018599,0.063434
181,3369968775,0.564090,-0.303806,-0.745022,-0.185616,-0.408139,0.094272,0.164457
182,3370002109,0.563531,-0.306443,-0.743647,-0.188472,-0.231925,0.310076,0.087042
183,3370035443,0.563313,-0.307437,-0.743045,-0.189875,-0.324297,0.367202,0.169265
184,3370068777,0.563430,-0.306724,-0.743359,-0.189450,-0.165500,0.366149,0.248850
185,3370102111,0.563720,-0.305120,-0.744186,-0.187928,-0.161656,0.375488,0.129123
186,3370135445,0.564100,-0.302677,-0.745484,-0.185577,0.003772,0.256000,0.072806
187,3370168779,0.564538,-0.299309,-0.747339,-0.182217,-0.013065,-0.004121,0.206058
188,3370202113,0.565068,-0.295300,-0.749471,-0.178316,0.035867,0.011061,0.187080
189,3370235447,0.565656,-0.291281,-0.751449,-0.174701,0.195654,0.011861,0.226531
190,3370268781,0.566174,-0.288129,-0.752876,-0.172088,0.450238,-0.115518,0.218210
191,3370302115,0.566549,-0.285912,-0.753873,-0.170175,0.198847,-0.411449,0.169016
192,3370335449,0.566893,-0.283317,-0.755207,-0.167433,-0.028942,-0.390761,0.188142
193,3370368783,0.567158,-0.279463,-0.757399,-0.163054,-0.001276,-0.124445,0.115289
194,3370402117,0.567472,-0.274606,-0.760115,-0.157480,0.032510,0.061019,0.162589
195,3370435451,0.567792,-0.269356,-0.762961,-0.151519,-0.004270,0.239405,0.125532
196,3370468785,0.568273,-0.263208,-0.766021,-0.144939,-0.049286,0.080865,0.170124
197,3370502119,0.568814,-0.255704,-0.769592,-0.137117,0.001994,-0.227723,0.249560
198,3370535453,0.569490,-0.248262,-0.772886,-0.129233,-0.330318,0.038322,0.086699
199,3370568787,0.570161,-0.240270,-0.776273,-0.120807,-0.127039,-0.074814,0.089393
200,3370602121,0.570924,-0.231757,-0.779568,-0.112324,0.120690,0.154570,0.287952
201,3370635455,0.571117,-0.224290,-0.782786,-0.103792,-0.133304,0.503912,0.153961
202,3370668789,0.571116,-0.217264,-0.785694,-0.096515,-0.069908,0.346138,0.275867
203,3370702123,0.571660,-0.210087,-0.787998,-0.090192,-0.074391,0.171236,0.256125
204,3370735457,0.572044,-0.203337,-0.790154,-0.084165,0.172420,-0.062928,0.198020
205,3370768791,0.572286,-0.198741,-0.791552,-0.080270,0.444942,-0.009004,0.169423
206,3370802125,0.572277,-0.197520,-0.791887,-0.080041,0.540446,-0.060320,0.075713
207,3370835459,0.571701,-0.199966,-0.791392,-0.082932,0.974874,-0.207241,0.174837
208,3370868793,0.571151,-0.205764,-0.789691,-0.088560,0.657547,-0.214822,0.113275
209,3370902127,0.570605,-0.213509,-0.787146,-0.096089,0.440093,-0.185316,0.338321
210,3370935461,0.570146,-0.220840,-0.784511,-0.103509,0.162017,-0.331711,0.380578
211,3370968795,0.569794,-0.227371,-0.781961,-0.110373,0.060489,-0.162359,0.319994
212,3371002129,0.569850,-0.234422,-0.778698,-0.118129,-0.160814,0.130523,0.049988
213,3371035463,0.569392,-0.242267,-0.775217,-0.127069,0.060131,0.076009,0.130075
214,3371068797,0.568840,-0.249777,-0.771793,-0.135558,-0.242883,-0.020712,0.189012
215,3371102131,0.568268,-0.256566,-0.768573,-0.143349,-0.030102,0.198403,0.111499
216,3371135465,0.567739,-0.262941,-0.765344,-0.150968,-0.287608,0.117415,0.141539
217,3371168799,0.567360,-0.268359,-0.762348,-0.157860,-0.196952,0.214491,0.166849
218,3371202133,0.566787,-0.273044,-0.759795,-0.164070,0.078936,0.186748,0.253600
219,3371235467,0.566018,-0.277903,-0.757285,-0.170061,0.201065,0.115955,0.154056
220,3371268801,0.565444,-0.282336,-0.754877,-0.175292,0.042729,-0.019902,0.133404
221,3371302135,0.565092,-0.285806,-0.752740,-0.179933,0.300113,-0.108723,0.113268
222,3371335469,0.565044,-0.288281,-0.750931,-0.183657,0.323416,-0.235349,0.171185
223,3371368803,0.565057,-0.290114,-0.749504,-0.186535,0.028486,-0.314021,0.196024
224,3371402137,0.565527,-0.290322,-0.748796,-0.187630,-0.480976,-0.263903,-0.084007
225,3371435471,0.566297,-0.288661,-0.749093,-0.186684,-0.420780,-0.123226,0.098885
226,3371468805,0.566362,-0.287504,-0.749784,-0.185492,-0.352009,0.267696,0.121660
227,3371502139,0.565983,-0.287241,-0.750305,-0.184947,-0.161680,0.523139,0.078729
228,3371535473,0.565340,-0.287106,-0.750848,-0.184920,0.169281,0.407821,0.288746
229,3371568807,0.565159,-0.287005,-0.751052,-0.184802,0.024029,0.437837,0.276383
230,3371602141,0.564859,-0.287396,-0.751135,-0.184776,-0.062128,0.347763,0.249603
231,3371635475,0.564634,-0.288060,-0.750865,-0.185525,-0.181817,-0.007783,0.130315
232,3371668809,0.564311,-0.288824,-0.750573,-0.186499,0.348283,-0.000607,0.124578
233,3371702143,0.563750,-0.289492,-0.750566,-0.187186,0.601530,-0.152600,0.272970
234,3371735477,0.563095,-0.290609,-0.750378,-0.188179,0.432700,-0.116260,0.235106
235,3371768811,0.562635,-0.292705,-0.749381,-0.190267,0.198931,0.021472,0.198540
236,3371802145,0.562185,-0.294903,-0.748187,-0.192885,0.190418,-0.019592,0.220799
237,3371835479,0.561974,-0.295996,-0.747461,-0.194633,-0.049582,-0.261960,0.086895
238,3371868813,0.562384,-0.295356,-0.747446,-0.194477,0.082634,-0.164336,0.118444
239,3371902147,0.562921,-0.294036,-0.747867,-0.193304,0.106639,-0.185449,0.149630
240,3371935481,0.563744,-0.292724,-0.748083,-0.192053,0.187562,0.204201,0.335797
241,3371968815,0.564957,-0.290498,-0.748522,-0.190152,0.063013,0.417830,0.095590
242,3372002149,0.566582,-0.285749,-0.750180,-0.185933,-0.075040,0.067746,0.254560
243,3372035483,0.569158,-0.278390,-0.752470,-0.179880,-0.166959,0.344708,0.056258
244,3372068817,0.571267,-0.270178,-0.755651,-0.172214,-0.182859,0.047117,0.184813
245,3372102151,0.572743,-0.262025,-0.759327,-0.163520,-0.610290,-0.190140,0.372968
246,3372135485,0.573508,-0.254299,-0.763067,-0.155427,-0.022313,-0.006532,-0.119034
247,3372168819,0.574990,-0.244578,-0.767009,-0.145854,-0.081005,-0.176108,0.229407
248,3372202153,0.577336,-0.234263,-0.770273,-0.135984,0.046359,0.141409,0.381336
249,3372235487,0.579302,-0.225017,-0.773090,-0.126955,0.181815,0.388683,0.054644
250,3372268821,0.580824,-0.216718,-0.775509,-0.119464,0.067239,0.379829,0.078235
251,3372302155,0.581442,-0.208424,-0.778629,-0.110588,0.031328,-0.150021,-0.016824
252,3372335489,0.581114,-0.200071,-0.782407,-0.100627,0.366371,-0.599016,0.218595
253,3372368823,0.581520,-0.191649,-0.785292,-0.091818,0.389966,-0.314975,0.312776
254,3372402157,0.582329,-0.184090,-0.787328,-0.084415,0.874481,-0.186303,0.284721
255,3372435491,0.582995,-0.179573,-0.788399,-0.079408,1.392642,-0.272950,0.076998
256,3372468825,0.583912,-0.178644,-0.788091,-0.077810,1.101724,-0.027154,0.117796
257,3372502159,0.585311,-0.180558,-0.786464,-0.079323,0.661676,-0.100938,-0.225136
258,3372535493,0.585848,-0.185859,-0.784277,-0.084597,0.438744,-0.039178,0.264675
259,3372568827,0.585405,-0.193328,-0.782012,-0.091607,-0.068928,-0.537511,-0.226041
260,3372602161,0.583835,-0.199530,-0.780931,-0.097367,-1.228108,-1.045571,0.512883
261,3372635495,0.581924,-0.206154,-0.779854,-0.103446,-0.719304,-0.235492,0.404578
262,3372668829,0.580586,-0.213501,-0.777556,-0.112924,-0.929483,0.783186,0.595060
263,3372702163,0.578954,-0.222822,-0.774384,-0.124501,-1.101239,1.637315,0.184992
264,3372735497,0.576025,-0.234271,-0.770609,-0.139579,-1.157398,1.225836,0.431984
265,3372768831,0.573271,-0.244038,-0.766441,-0.156149,-1.070488,0.925514,0.539223
266,3372802165,0.572082,-0.251577,-0.761122,-0.173590,-0.633352,0.878047,0.527339
267,3372835499,0.573504,-0.253209,-0.755522,-0.190193,0.095415,0.530377,0.144864
268,3372868833,0.575071,-0.255583,-0.749077,-0.207031,1.338039,-0.952594,0.233332
269,3372902167,0.574843,-0.260746,-0.742697,-0.223553,0.248743,-2.152980,-0.657940
270,3372935501,0.572216,-0.269027,-0.736739,-0.239622,-0.606560,-2.723605,-0.457628
271,3372968835,0.569800,-0.276479,-0.731327,-0.253096,-0.511825,-1.313155,0.162614
272,3373002169,0.567676,-0.281845,-0.726845,-0.264598,0.105964,0.066026,0.605681
273,3373035503,0.566549,-0.284080,-0.723106,-0.274678,0.497612,0.650717,0.475700
274,3373068837,0.565454,-0.285838,-0.719003,-0.285661,0.596480,0.997168,0.167985
275,3373102171,0.563143,-0.291496,-0.713424,-0.298219,0.745897,0.798300,0.368738
276,3373135505,0.560307,-0.299915,-0.706356,-0.311731,0.100647,0.421709,-0.178690
277,3373168839,0.557649,-0.307033,-0.700439,-0.322727,-0.174974,0.278663,0.352343
278,3373202173,0.556663,-0.309322,-0.697186,-0.329221,-0.363911,0.369568,0.067734
279,3373235507,0.557732,-0.305296,-0.697493,-0.330518,-0.129837,0.739533,0.163400
280,3373268841,0.559147,-0.298104,-0.700225,-0.328911,0.148085,0.859941,0.294006
281,3373302175,0.560003,-0.289982,-0.704529,-0.325508,0.351553,0.836076,0.675963
282,3373335509,0.561634,-0.281828,-0.707247,-0.323960,1.206281,0.878879,1.042266
283,3373368843,0.566004,-0.271128,-0.707378,-0.325198,2.023985,1.918672,0.536318
284,3373402177,0.570503,-0.257444,-0.708419,-0.326191,1.963214,1.172569,0.023596
285,3373435511,0.573671,-0.248885,-0.707114,-0.330085,0.265051,-0.301897,-0.241409
286,3373468845,0.575043,-0.242702,-0.706384,-0.333844,-0.332742,-1.237203,-0.026721
287,3373502179,0.575427,-0.237971,-0.706841,-0.335615,-1.250977,-2.356296,-0.644865
288,3373535513,0.574780,-0.231754,-0.710432,-0.333487,-0.622187,-2.099503,-0.384304
289,3373568847,0.575878,-0.223497,-0.713945,-0.329705,0.028179,-0.904350,-0.446308
290,3373602181,0.577337,-0.216397,-0.717088,-0.325035,0.780085,0.012036,0.076908
291,3373635515,0.578868,-0.214814,-0.717836,-0.321693,0.968163,0.759080,-0.270416
292,3373668849,0.579588,-0.222057,-0.715801,-0.320008,0.950445,0.701915,-0.676858
293,3373702183,0.581106,-0.235031,-0.710378,-0.320074,-0.717433,1.665696,-0.082386
294,3373735517,0.583116,-0.243010,-0.709121,-0.313173,-0.359855,-0.906700,0.220811
295,3373768851,0.585113,-0.243182,-0.712966,-0.300322,-0.018372,-0.798474,2.214766
296,3373802185,0.589377,-0.233760,-0.719280,-0.283965,0.214093,0.903038,0.621534
297,3373835519,0.591945,-0.218487,-0.731486,-0.258459,-1.136281,-0.864055,-0.283137
298,3373868853,0.593847,-0.202358,-0.743953,-0.230084,0.662936,-1.060574,0.133504
299,3373902187,0.595847,-0.194011,-0.750345,-0.210515,1.160814,0.573625,0.245818
300,3373935521,0.596812,-0.191001,-0.755154,-0.192576,0.607053,-0.201674,0.027436
301,3373968855,0.596443,-0.188338,-0.760395,-0.174908,-0.160275,-0.597267,0.200266
302,3374002189,0.595816,-0.183078,-0.765795,-0.158281,-0.396497,0.006809,0.346162
303,3374035523,0.596205,-0.175367,-0.770767,-0.140403,0.256554,0.025964,0.271973
304,3374068857,0.596987,-0.170646,-0.773384,-0.127955,1.277721,1.498081,-0.067526
305,3374102191,0.597032,-0.173125,-0.773571,-0.123197,-0.311071,0.962192,0.304906
306,3374135525,0.596201,-0.178671,-0.773396,-0.120364,-0.902760,-0.878725,0.159340
307,3374168859,0.596045,-0.181940,-0.773094,-0.118166,-1.531055,-1.136093,0.407274
308,3374202193,0.597154,-0.181637,-0.772738,-0.115324,-0.915040,-1.036403,0.320871
309,3374235527,0.598476,-0.181313,-0.772049,-0.113584,-0.492510,-0.525467,0.021588
310,3374268861,0.598528,-0.184974,-0.770999,-0.114528,0.099644,0.144078,0.094338
311,3374302195,0.597389,-0.192918,-0.769310,-0.118657,0.020832,0.329721,-0.034283
312,3374335529,0.595676,-0.200924,-0.767832,-0.123460,-1.042378,0.064091,0.689134
313,3374368863,0.594471,-0.208068,-0.765828,-0.129726,0.466091,0.435413,0.195053
314,3374402197,0.593992,-0.216408,-0.762151,-0.139551,0.383181,-0.566273,0.177110
315,3374435531,0.593829,-0.225736,-0.757785,-0.148931,-0.849819,-0.305866,0.213097
316,3374468865,0.591866,-0.237233,-0.753407,-0.160629,-0.891141,0.253294,0.047065
317,3374502199,0.589028,-0.249913,-0.747753,-0.177381,-1.095110,-0.042527,0.775255
318,3374535533,0.587419,-0.259502,-0.741454,-0.194559,-0.148616,0.391650,0.654750
319,3374568867,0.585784,-0.267454,-0.735096,-0.212057,0.513850,0.397708,0.186188
320,3374602201,0.584895,-0.275236,-0.727759,-0.229170,0.061435,0.309626,0.457693
321,3374635535,0.583720,-0.283671,-0.719958,-0.245910,-0.145743,-1.119102,0.110126
322,3374668869,0.581045,-0.294506,-0.710436,-0.266351,-0.220679,-1.426325,-0.480561
323,3374702203,0.576358,-0.306594,-0.701367,-0.286191,-0.074789,-1.095020,-0.459799
324,3374735537,0.570675,-0.318370,-0.693142,-0.304192,-0.214857,-0.592890,-0.024977
325,3374768871,0.564774,-0.329859,-0.684810,-0.321354,-0.251854,0.359781,0.332469
326,3374802205,0.559768,-0.338136,-0.677514,-0.336612,-0.440186,0.712397,0.299947
327,3374835539,0.556098,-0.342544,-0.671609,-0.349812,-0.659534,0.365250,0.335016
328,3374868873,0.554606,-0.343133,-0.667289,-0.359731,-0.178252,0.153588,0.074164
329,3374902207,0.552447,-0.343677,-0.664107,-0.368320,0.808700,0.256564,0.097955
330,3374935541,0.550024,-0.344670,-0.661753,-0.375190,0.603156,0.202409,0.041411
331,3374968875,0.548278,-0.345849,-0.659276,-0.380978,0.281499,0.429012,0.247955
332,3375002209,0.547646,-0.346231,-0.656204,-0.386799,0.518494,0.875262,0.681789
333,3375035543,0.548746,-0.345671,-0.651083,-0.394323,1.520083,1.861769,0.831285
334,3375068877,0.552278,-0.342624,-0.644836,-0.402235,1.796984,1.864613,1.187205
335,3375102211,0.556767,-0.336288,-0.640748,-0.407888,1.269989,1.440468,0.674630
336,3375135545,0.561819,-0.327579,-0.639366,-0.410209,-0.603156,0.754732,-0.146312
337,3375168879,0.567208,-0.312455,-0.646588,-0.403214,-2.057064,0.023654,-2.073106
338,3375202213,0.567715,-0.304617,-0.659337,-0.387546,-3.299255,-3.239099,-2.750031
339,3375235547,0.565504,-0.299271,-0.673788,-0.369677,-2.287044,-5.477572,-1.866595
340,3375268881,0.566674,-0.294255,-0.681706,-0.357184,1.705115,-2.565700,1.356759
341,3375302215,0.576571,-0.283400,-0.684897,-0.343765,1.600815,3.610618,2.832587
342,3375335549,0.576376,-0.282442,-0.692853,-0.328605,2.784125,2.480499,0.890460
343,3375368883,0.573591,-0.283572,-0.700294,-0.316508,1.542749,0.982125,-0.277744
344,3375402217,0.573221,-0.283884,-0.705489,-0.305158,-0.658392,0.937663,0.096023
345,3375435551,0.573974,-0.283578,-0.709812,-0.293793,-0.769130,0.505690,0.013455
346,3375468885,0.575105,-0.280733,-0.714594,-0.282502,-0.807477,-0.002142,0.043185
347,3375502219,0.577168,-0.272107,-0.722208,-0.266945,-0.659934,0.092240,0.224202
348,3375535553,0.580265,-0.259436,-0.731090,-0.247996,-0.028418,-0.219364,0.444381
349,3375568887,0.583856,-0.246377,-0.738794,-0.229355,0.249838,-0.321565,0.243068
350,3375602221,0.586236,-0.235446,-0.745553,-0.212258,0.230476,-0.864936,0.168685
351,3375635555,0.586886,-0.227838,-0.751438,-0.197498,0.435602,-0.682191,0.278398
352,3375668889,0.586353,-0.223220,-0.756533,-0.184473,0.029806,-0.486639,0.244937
353,3375702223,0.585853,-0.217412,-0.762080,-0.169567,-0.519432,-0.833175,0.171859
354,3375735557,0.586576,-0.207336,-0.767903,-0.152560,-0.138032,-0.091271,0.438183
355,3375768891,0.588926,-0.195959,-0.772089,-0.136580,0.532060,0.416258,0.129787
356,3375802225,0.590721,-0.186822,-0.775224,-0.123220,0.486251,0.431293,0.363479
357,3375835559,0.590290,-0.181563,-0.778518,-0.111852,0.105280,-1.009603,-0.118992
358,3375868893,0.589684,-0.176266,-0.781702,-0.100764,0.164978,-0.593540,0.204518
359,3375902227,0.590124,-0.170669,-0.783753,-0.091466,0.911736,-0.403025,-0.119811
360,3375935561,0.591240,-0.165442,-0.784839,-0.084264,-0.410191,-0.179426,0.170128
361,3375968895,0.591724,-0.161625,-0.785971,-0.077459,0.311937,0.375551,0.074329
362,3376002229,0.592233,-0.161230,-0.785831,-0.075794,-0.660640,0.512752,0.568660
363,3376035563,0.592352,-0.162848,-0.785309,-0.076810,-0.083963,1.230813,0.426518
364,3376068897,0.592569,-0.166344,-0.783972,-0.081172,-0.063844,0.902228,0.060163
365,3376102231,0.591972,-0.170381,-0.783154,-0.084960,-1.035462,-0.073068,0.201750
366,3376135565,0.590505,-0.170302,-0.784252,-0.085205,-1.553050,-0.592086,0.146453
367,3376168899,0.589577,-0.166460,-0.786073,-0.082397,-1.106382,-0.192694,0.221519
368,3376202233,0.589729,-0.161297,-0.787103,-0.081737,0.160111,0.380233,0.492201
369,3376235567,0.590508,-0.158980,-0.786722,-0.084289,1.024282,0.475732,0.102695
370,3376268901,0.589861,-0.162713,-0.785611,-0.091724,1.393923,0.331810,-0.002028
371,3376302235,0.588624,-0.171644,-0.783112,-0.103949,0.367111,-0.068080,-0.000644
372,3376335569,0.587970,-0.181420,-0.779328,-0.118474,-0.615604,-0.220619,0.072185
373,3376368903,0.587921,-0.188776,-0.775356,-0.132459,-0.452671,-0.726539,0.306473
374,3376402237,0.587205,-0.194731,-0.772182,-0.144959,0.539236,-1.001666,0.215352
375,3376435571,0.585420,-0.202142,-0.769095,-0.157874,0.820350,-0.588708,0.288236
376,3376468905,0.583794,-0.211846,-0.764554,-0.172546,0.024923,-0.530345,0.511909
377,3376502239,0.582779,-0.221271,-0.759050,-0.187778,-0.374259,-0.446743,0.177093
378,3376535573,0.581918,-0.229811,-0.752928,-0.204124,-0.135682,-0.061546,0.511307
379,3376568907,0.581474,-0.238849,-0.745446,-0.221717,0.115056,0.112029,0.240705
380,3376602241,0.581135,-0.248159,-0.736951,-0.240024,-0.194659,-0.028811,0.174580
381,3376635575,0.579385,-0.257705,-0.729136,-0.257430,-0.424884,-0.416548,-0.092485
382,3376668909,0.576798,-0.266855,-0.722071,-0.273340,-0.750839,-0.764077,-0.188309
383,3376702243,0.573599,-0.274428,-0.716834,-0.286064,-0.624425,-0.293231,0.034564
384,3376735577,0.570741,-0.280407,-0.712983,-0.295449,-0.293429,0.297913,0.258424
385,3376768911,0.568027,-0.285398,-0.710001,-0.302988,0.307350,0.886012,0.278342
386,3376802245,0.565315,-0.289521,-0.707528,-0.309853,0.676794,0.737970,0.214622
387,3376835579,0.562535,-0.293383,-0.705353,-0.316176,0.613881,1.191984,0.360881
388,3376868913,0.560003,-0.296538,-0.703736,-0.321288,0.419722,1.172391,0.024573
389,3376902247,0.559120,-0.297532,-0.702747,-0.324060,0.614361,0.718938,0.050022
390,3376935581,0.558771,-0.297658,-0.702158,-0.325818,0.180453,0.317293,-0.042847
391,3376968915,0.558218,-0.297328,-0.702679,-0.325943,-0.152458,-0.202059,0.390887
392,3377002249,0.557963,-0.295961,-0.704054,-0.324655,0.121634,-0.213832,0.174319
393,3377035583,0.558125,-0.295719,-0.705292,-0.321899,0.699041,-0.222732,-0.294621
394,3377068917,0.556801,-0.298047,-0.706177,-0.320098,1.431747,-0.025075,0.434556
395,3377102251,0.554638,-0.303016,-0.705158,-0.321433,1.030397,0.374581,0.489565
396,3377135585,0.553409,-0.307944,-0.703752,-0.321949,-1.016738,0.553845,-0.111121
397,3377168919,0.553979,-0.307468,-0.705216,-0.318199,-0.623782,0.737770,-0.302472
398,3377202253,0.557668,-0.300739,-0.707870,-0.312238,-0.194161,1.243951,0.274058
399,3377235587,0.565663,-0.283603,-0.710991,-0.306749,1.113420,4.385381,2.147602
400,3377268921,0.570935,-0.265673,-0.713548,-0.307098,4.762317,5.853197,3.037035
401,3377302255,0.575082,-0.249546,-0.714197,-0.311350,7.408633,0.325829,0.586964
402,3377335589,0.579517,-0.248399,-0.704922,-0.324888,-0.761093,-3.409022,-0.998793
403,3377368923,0.578309,-0.258515,-0.697078,-0.335887,-6.452157,-7.604869,-4.328212
404,3377402257,0.575840,-0.262863,-0.697361,-0.336167,-6.513990,-6.977095,-4.654292
405,3377435591,0.577842,-0.256953,-0.701848,-0.327860,-0.139250,-0.324920,-0.147016
406,3377468925,0.585466,-0.246461,-0.703174,-0.319441,0.901076,6.795552,3.836747
407,3377502259,0.587817,-0.240362,-0.715268,-0.291716,-1.232875,-3.003002,2.667335
408,3377535593,0.593923,-0.224816,-0.727574,-0.259535,2.626141,1.623038,0.087571
409,3377568927,0.590984,-0.231634,-0.733005,-0.244531,2.521359,-3.461746,-1.068263
410,3377602261,0.591343,-0.234233,-0.737126,-0.228261,0.394845,-0.314312,0.261209
411,3377635595,0.590681,-0.232372,-0.743928,-0.208998,-2.035847,-1.001224,0.386144
412,3377668929,0.591283,-0.224014,-0.752432,-0.184545,0.212167,0.602896,0.734229
413,3377702263,0.592943,-0.219706,-0.756422,-0.167282,0.908232,2.904400,0.121990
414,3377735597,0.593595,-0.221818,-0.757060,-0.159095,0.155943,1.375070,0.408939
415,3377768931,0.595259,-0.223697,-0.756644,-0.152071,-0.318173,0.399313,0.203278
416,3377802265,0.596610,-0.225776,-0.756128,-0.146154,-0.725298,-0.395306,0.047380
417,3377835599,0.598608,-0.226411,-0.755507,-0.140091,-2.270303,-1.358034,-0.113140
418,3377868933,0.599372,-0.224749,-0.756771,-0.132471,0.556673,-0.422759,0.163462
419,3377902267,0.600209,-0.226443,-0.756359,-0.128075,-0.338648,0.472959,0.277054
420,3377935601,0.600124,-0.228700,-0.756443,-0.123897,-0.488388,-0.296073,0.267508
421,3377968935,0.600310,-0.230875,-0.756042,-0.121388,-0.336445,-0.332296,0.208135
422,3378002269,0.600819,-0.231286,-0.755974,-0.118477,-0.959715,-0.035720,0.446017
423,3378035603,0.601614,-0.230308,-0.755948,-0.116495,-0.367405,0.422229,0.099501
424,3378068937,0.601899,-0.229449,-0.756091,-0.115783,0.314841,0.356562,0.229671
425,3378102271,0.601491,-0.229862,-0.756020,-0.117534,-0.128674,-0.230379,0.417594
426,3378135605,0.600752,-0.231208,-0.755833,-0.119858,0.140629,-0.178331,0.114010
427,3378168939,0.600161,-0.230851,-0.756550,-0.118974,-0.539552,-0.401731,-0.217640
428,3378202273,0.599700,-0.229052,-0.757936,-0.115915,-0.432036,-0.507484,0.246344
429,3378235607,0.598860,-0.230241,-0.758179,-0.116318,-0.771706,-0.270465,0.033722
430,3378268941,0.596922,-0.232594,-0.758357,-0.120368,-0.397289,0.200136,0.443698
431,3378302275,0.595102,-0.237294,-0.757206,-0.127251,1.032614,1.024991,0.434099
432,3378335609,0.593225,-0.245314,-0.754449,-0.136826,0.799424,0.880290,0.126701
433,3378368943,0.591189,-0.255027,-0.750560,-0.148747,-0.460110,0.343539,0.289125
434,3378402277,0.588826,-0.263719,-0.747033,-0.160275,-0.746456,-0.778428,0.332767
435,3378435611,0.587024,-0.269682,-0.743919,-0.171081,-0.441172,-1.070619,0.090207
436,3378468945,0.585806,-0.274751,-0.740613,-0.181231,0.198087,-0.587184,0.147133
437,3378502279,0.584177,-0.279947,-0.737619,-0.190512,0.522246,-0.376065,0.188723
438,3378535613,0.582650,-0.286308,-0.733962,-0.199639,-0.090358,-0.187899,0.119653
439,3378568947,0.581093,-0.292920,-0.730012,-0.208858,-0.483538,0.009728,0.115870
440,3378602281,0.580089,-0.298656,-0.725792,-0.218029,-0.241797,0.194250,0.350428
441,3378635615,0.579040,-0.303431,-0.722201,-0.226003,0.240433,0.273743,0.083699
442,3378668949,0.577735,-0.307718,-0.719319,-0.232640,0.121549,0.196381,-0.091156
443,3378702283,0.576221,-0.311318,-0.717153,-0.238225,-0.043681,0.465739,0.053139
444,3378735617,0.575018,-0.312909,-0.716215,-0.241842,-0.462348,0.428251,0.172232
445,3378768951,0.574374,-0.311910,-0.716680,-0.243281,0.272858,0.423303,0.132617
446,3378802285,0.574027,-0.309705,-0.717669,-0.243998,0.273723,0.339030,0.091532
447,3378835619,0.573780,-0.307621,-0.718600,-0.244479,0.479288,0.260661,0.143451
448,3378868953,0.573744,-0.306243,-0.718871,-0.245492,0.444066,0.431983,0.348560
449,3378902287,0.573552,-0.305248,-0.718820,-0.247322,0.448161,0.188119,0.274488
450,3378935621,0.573657,-0.304057,-0.718823,-0.248536,0.010503,0.143506,0.271140
451,3378968955,0.573606,-0.301210,-0.720043,-0.248590,0.325439,0.039243,0.129454
452,3379002289,0.574113,-0.297134,-0.721663,-0.247625,0.077010,0.094538,0.231049
453,3379035623,0.574902,-0.292652,-0.723388,-0.246090,0.075311,0.328097,0.181474
454,3379068957,0.575676,-0.288000,-0.725913,-0.242307,-0.246704,-0.503774,0.088749
455,3379102291,0.575642,-0.282240,-0.730233,-0.236106,-0.436031,-0.384622,-0.170222
456,3379135625,0.575698,-0.274526,-0.735725,-0.227872,-0.740379,-0.147898,0.060838
457,3379168959,0.576068,-0.264661,-0.741847,-0.218571,-0.576937,0.516665,0.225944
458,3379202293,0.576508,-0.252834,-0.748507,-0.208469,-0.620367,0.417538,0.320065
459,3379235627,0.577489,-0.239912,-0.754901,-0.197693,0.130005,0.379022,0.133330
460,3379268961,0.579130,-0.228075,-0.759679,-0.188378,0.447933,0.044208,0.381290
461,3379302295,0.578740,-0.220957,-0.763782,-0.181342,0.284270,-1.266279,-0.131213
462,3379335629,0.577991,-0.215649,-0.767307,-0.175132,0.329509,-1.009961,0.341006
463,3379368963,0.577645,-0.211366,-0.769777,-0.170595,0.492938,-0.173665,-0.002158
464,3379402297,0.577401,-0.207485,-0.771975,-0.166202,0.037442,-0.094795,0.100902
465,3379435631,0.576114,-0.203218,-0.775311,-0.160306,0.071874,-0.082779,0.194338
466,3379468965,0.574674,-0.200485,-0.778064,-0.155505,0.284384,0.365329,0.351354
467,3379502299,0.573793,-0.199632,-0.779236,-0.153982,0.199339,0.630257,0.333741
468,3379535633,0.573337,-0.199795,-0.779383,-0.154720,0.315941,0.618190,0.399145
469,3379568967,0.572694,-0.201738,-0.778786,-0.157559,0.707868,0.489493,0.345865
470,3379602301,0.572449,-0.206157,-0.776572,-0.163544,0.743456,0.107038,0.343153
471,3379635635,0.572884,-0.212192,-0.772836,-0.171793,0.139134,-0.236477,0.182846
472,3379668969,0.572928,-0.218490,-0.768911,-0.181108,0.265164,-0.850289,0.161643
473,3379702303,0.573035,-0.224749,-0.764785,-0.190349,0.410866,-0.615563,0.316238
474,3379735637,0.572907,-0.232166,-0.760298,-0.199584,-0.026600,-0.669803,-0.001861
475,3379768971,0.572332,-0.240796,-0.755299,-0.209730,-0.108745,-0.388013,0.076325
476,3379802305,0.571518,-0.248660,-0.750415,-0.220051,-0.449549,-0.303155,0.058861
477,3379835639,0.570611,-0.254798,-0.746413,-0.228818,-0.330206,0.156213,0.437796
478,3379868973,0.569727,-0.260205,-0.742942,-0.236115,-0.374302,0.364539,0.033013
479,3379902307,0.568782,-0.264659,-0.740082,-0.242343,0.016086,0.291508,0.186162
480,3379935641,0.567989,-0.268450,-0.737308,-0.248416,0.001713,0.170087,0.164626
481,3379968975,0.567124,-0.272435,-0.734520,-0.254241,0.051913,-0.085743,0.179272
482,3380002309,0.566578,-0.276131,-0.731591,-0.259858,-0.064426,-0.121054,0.195146
483,3380035643,0.566195,-0.279527,-0.728762,-0.264959,0.190431,-0.146417,0.269693
484,3380068977,0.565740,-0.283867,-0.725225,-0.270956,0.290544,-0.145207,0.193380
485,3380102311,0.565022,-0.289937,-0.720726,-0.277942,-0.098804,-0.101948,-0.006782
486,3380135645,0.564177,-0.295989,-0.716540,-0.284034,-0.161422,0.206105,0.183498
487,3380168979,0.562966,-0.301522,-0.713071,-0.289297,0.020130,0.436387,0.124464
488,3380202313,0.561437,-0.306327,-0.710508,-0.293497,-0.426120,0.479537,-0.010186
489,3380235647,0.560436,-0.308506,-0.709727,-0.295012,-0.407157,0.807766,0.104808
490,3380268981,0.559658,-0.307841,-0.711117,-0.293835,0.080504,0.656133,0.149372
491,3380302315,0.559782,-0.305694,-0.712872,-0.291578,0.356076,0.459277,0.278222
492,3380335649,0.560123,-0.302625,-0.715282,-0.288204,0.369400,0.122437,0.365961
493,3380368983,0.560214,-0.300739,-0.717098,-0.285478,0.615990,-0.418831,0.241327
494,3380402317,0.560530,-0.300931,-0.716988,-0.284929,0.185454,-0.641511,0.190920
495,3380435651,0.560663,-0.301772,-0.716704,-0.284491,-0.088551,-0.805188,0.006257
496,3380468985,0.560756,-0.301782,-0.717415,-0.282499,-0.294335,-0.409036,0.080315
497,3380502319,0.560632,-0.300827,-0.719291,-0.278972,-0.157637,0.111291,0.148093
498,3380535653,0.561045,-0.299117,-0.721223,-0.274962,-0.133270,0.459290,0.248320
499,3380568987,0.561887,-0.296433,-0.723326,-0.270592,-0.053005,0.543965,0.169389
500,3380602321,0.562521,-0.293352,-0.725818,-0.265919,0.244370,0.267063,0.369084
501,3380635655,0.563045,-0.290630,-0.728008,-0.261780,0.069186,-0.113518,0.150187
502,3380668989,0.563969,-0.287327,-0.730276,-0.257078,-0.374352,-0.415187,0.126768
503,3380702323,0.565166,-0.282934,-0.733152,-0.251064,-0.232503,-0.372348,0.036552
504,3380735657,0.566130,-0.277653,-0.737018,-0.243354,-0.171477,-0.484247,0.070600
505,3380768991,0.567353,-0.271389,-0.741264,-0.234513,-0.155150,0.054941,0.232067
506,3380802325,0.569105,-0.264756,-0.744990,-0.225884,-0.083817,0.857037,0.270221
507,3380835659,0.570644,-0.258083,-0.748688,-0.217334,0.006952,0.674794,0.247250
508,3380868993,0.571640,-0.252721,-0.751849,-0.209982,0.106470,0.568449,0.285316
509,3380902327,0.571775,-0.249063,-0.754492,-0.204433,0.263028,0.167984,0.120582
510,3380935661,0.571871,-0.247054,-0.756153,-0.200425,-0.068030,-0.234030,0.087062
511,3380968995,0.572213,-0.245601,-0.757227,-0.197155,-0.283682,-0.409283,0.119445
512,3381002329,0.571815,-0.245731,-0.757954,-0.195344,0.298660,-0.485975,0.196985
513,3381035663,0.571212,-0.247996,-0.757526,-0.195906,0.309078,-0.168416,0.285460
514,3381068997,0.570359,-0.252186,-0.756071,-0.198645,0.317646,-0.134948,0.257153
515,3381102331,0.569443,-0.257573,-0.753649,-0.203504,-0.056269,-0.101769,0.365102
516,3381135665,0.568542,-0.262712,-0.750996,-0.209183,-0.144654,-0.367300,0.086963
517,3381168999,0.567618,-0.267353,-0.748547,-0.214522,-0.177075,-0.065152,0.104671
518,3381202333,0.566481,-0.271199,-0.746714,-0.219041,-0.059708,0.023573,0.145592
519,3381235667,0.565462,-0.275243,-0.744577,-0.223848,0.070242,-0.011727,0.224760
520,3381269001,0.564829,-0.278800,-0.742451,-0.228070,-0.005011,0.160657,0.196763
521,3381302335,0.563986,-0.281984,-0.740780,-0.231643,0.088324,-0.007897,0.182055
522,3381335669,0.563341,-0.285019,-0.738941,-0.235345,0.095127,-0.160407,0.113652
523,3381369003,0.562412,-0.288733,-0.736875,-0.239480,0.172219,-0.285638,0.256001
524,3381402337,0.561334,-0.293206,-0.734325,-0.244360,0.258018,-0.183029,0.251068
525,3381435671,0.560088,-0.298522,-0.731112,-0.250344,0.445732,-0.207466,0.356688
526,3381469005,0.558602,-0.304946,-0.727050,-0.257644,0.410755,0.069360,0.189414
527,3381502339,0.556104,-0.313146,-0.722627,-0.265535,-0.122395,-0.118261,-0.086133
528,3381535673,0.553853,-0.320115,-0.719182,-0.271219,-0.873174,-0.466884,0.127961
529,3381569007,0.552472,-0.324152,-0.717073,-0.274803,-0.464760,0.146543,-0.018869
530,3381602341,0.552096,-0.325490,-0.716423,-0.275670,-0.438583,0.304907,0.046014
531,3381635675,0.551949,-0.325405,-0.717005,-0.274549,-0.059500,0.499669,0.234935
532,3381669009,0.551905,-0.324608,-0.718131,-0.272633,-0.230503,0.739485,0.193110
533,3381702343,0.552308,-0.321747,-0.720328,-0.269394,-0.301578,0.617132,0.187271
534,3381735677,0.553408,-0.316869,-0.723276,-0.264982,0.147369,0.405362,0.161476
535,3381769011,0.554607,-0.311364,-0.726494,-0.260155,0.105949,0.046907,0.190736
536,3381802345,0.555852,-0.306343,-0.729186,-0.255892,0.425319,-0.117146,0.238410
537,3381835679,0.556840,-0.302230,-0.731632,-0.251617,0.076932,-0.198518,0.246851
538,3381869013,0.557573,-0.298300,-0.734254,-0.247005,0.043144,-0.403382,0.025702
539,3381902347,0.558565,-0.293917,-0.736961,-0.241902,0.002826,-0.118683,0.124242
540,3381935681,0.559605,-0.288492,-0.740348,-0.235605,-0.143692,-0.026166,0.104966
541,3381969015,0.560786,-0.281694,-0.744437,-0.228017,0.235254,0.264201,0.326553
542,3382002349,0.561863,-0.274786,-0.748521,-0.220295,-0.074449,0.359456,0.273012
543,3382035683,0.562574,-0.268225,-0.752600,-0.212531,-0.153414,0.234378,0.176438
544,3382069017,0.563180,-0.262382,-0.756210,-0.205283,-0.319208,0.076976,0.147764
545,3382102351,0.563650,-0.255876,-0.760129,-0.197589,-0.474803,-0.308601,-0.006969
546,3382135685,0.563994,-0.247773,-0.764836,-0.188560,-0.076034,-0.145327,0.227712
547,3382169019,0.564451,-0.240150,-0.769030,-0.179797,0.037676,-0.129973,0.221856
548,3382202353,0.565156,-0.233349,-0.772321,-0.172271,0.438357,0.164108,0.241065
549,3382235687,0.565491,-0.228384,-0.774715,-0.166998,0.317397,0.213098,0.284127
550,3382269021,0.565653,-0.224623,-0.776657,-0.162466,0.227620,0.205193,0.165015
551,3382302355,0.565801,-0.221484,-0.778253,-0.158582,-0.038657,0.070725,0.165569
552,3382335689,0.566070,-0.218066,-0.779839,-0.154512,0.044992,-0.092690,0.206951
553,3382369023,0.566403,-0.214874,-0.781187,-0.150913,0.184658,-0.096270,0.183289
554,3382402357,0.566331,-0.212936,-0.782240,-0.148452,0.317368,-0.096991,0.194951
555,3382435691,0.566217,-0.212505,-0.782655,-0.147317,0.322835,-0.026287,0.156563
556,3382469025,0.565966,-0.213387,-0.782471,-0.147980,0.318083,-0.145832,0.136578
557,3382502359,0.565668,-0.216268,-0.781290,-0.151145,0.421983,-0.197158,0.377955
558,3382535693,0.565336,-0.221207,-0.779061,-0.156644,0.555604,-0.207336,0.256470
559,3382569027,0.565087,-0.227945,-0.775742,-0.164173,0.306746,-0.266154,0.129192
560,3382602361,0.564599,-0.236261,-0.771701,-0.172906,0.084008,-0.118978,0.163481
561,3382635695,0.563731,-0.244948,-0.767549,-0.181896,-0.224768,-0.053724,0.181586
562,3382669029,0.562885,-0.252962,-0.763578,-0.190079,-0.333211,0.138460,0.145577
563,3382702363,0.562033,-0.259891,-0.759974,-0.197550,-0.166928,0.121128,0.197284
564,3382735697,0.561057,-0.266111,-0.756556,-0.205022,0.033887,-0.025535,0.167892
565,3382769031,0.560241,-0.271930,-0.753107,-0.212189,0.049803,0.036445,0.232959
566,3382802365,0.559280,-0.277412,-0.749805,-0.219208,0.145014,-0.078898,0.210316
567,3382835699,0.558708,-0.282926,-0.746048,-0.226323,0.075034,-0.139210,0.224625
568,3382869033,0.558464,-0.288011,-0.742333,-0.232638,-0.108793,-0.155892,0.269671
569,3382902367,0.558336,-0.292436,-0.738926,-0.238205,0.049470,-0.268110,0.205060
570,3382935701,0.558396,-0.297259,-0.734965,-0.244273,0.249798,-0.315963,0.158033
571,3382969035,0.558040,-0.303645,-0.730188,-0.251451,0.089140,-0.219871,0.031059
572,3383002369,0.557396,-0.310472,-0.725545,-0.257900,-0.603023,-0.194662,0.074433
573,3383035703,0.556816,-0.315378,-0.722340,-0.262161,-0.223154,0.309853,-0.003422
574,3383069037,0.555917,-0.318614,-0.720552,-0.265061,-0.027483,0.707194,0.113468
575,3383102371,0.555336,-0.320482,-0.719567,-0.266697,-0.071995,0.963443,0.163230
576,3383135705,0.555323,-0.320631,-0.719679,-0.266242,-0.012665,1.023385,0.440793
577,3383169039,0.555265,-0.320091,-0.720353,-0.265189,0.315678,0.712946,0.239257
578,3383202373,0.555353,-0.319313,-0.721007,-0.264164,0.035108,0.217861,0.044904
579,3383235707,0.555858,-0.317679,-0.721946,-0.262502,0.053836,-0.208563,0.118425
580,3383269041,0.556641,-0.315561,-0.723138,-0.260106,0.231861,-0.469964,0.228119
581,3383302375,0.557341,-0.314176,-0.723937,-0.258052,0.226287,-0.562281,0.131099
582,3383335709,0.557934,-0.313500,-0.724328,-0.256490,0.044503,-0.506217,0.109456
583,3383369043,0.558689,-0.312763,-0.724819,-0.254351,-0.122843,-0.287832,0.175637
584,3383402377,0.559493,-0.310883,-0.726252,-0.250777,-0.321898,-0.088573,0.133988
585,3383435711,0.560715,-0.307127,-0.728655,-0.245652,-0.263591,0.210360,0.158287
586,3383469045,0.562486,-0.301390,-0.731807,-0.239256,-0.138917,0.255730,0.183994
587,3383502379,0.564378,-0.294636,-0.735402,-0.232083,0.067170,0.396828,0.191252
588,3383535713,0.566518,-0.286754,-0.739331,-0.224123,-0.047995,-0.082466,0.369581
589,3383569047,0.569544,-0.277511,-0.742836,-0.216364,0.027958,-0.010371,0.323148
590,3383602381,0.572312,-0.269909,-0.745231,-0.210358,0.016805,0.155510,0.128794
591,3383635715,0.574050,-0.264696,-0.746959,-0.206073,0.220788,-0.318602,-0.021539
592,3383669049,0.575332,-0.261093,-0.747967,-0.203423,0.255891,-0.164114,0.180464
593,3383702383,0.576236,-0.259432,-0.748369,-0.201499,-0.068955,-0.194299,0.123101
594,3383735717,0.576619,-0.258224,-0.749065,-0.199358,-0.072797,-0.166133,0.124407
595,3383769051,0.576880,-0.256704,-0.750153,-0.196456,-0.233953,0.096942,0.148296
596,3383802385,0.576828,-0.255128,-0.751557,-0.193268,0.104020,0.297754,0.136357
597,3383835719,0.576493,-0.254357,-0.752561,-0.191366,0.209837,0.233523,0.229827
598,3383869053,0.575842,-0.255614,-0.752515,-0.191836,0.401294,0.078658,0.179268
599,3383902387,0.575024,-0.259332,-0.751113,-0.194772,0.198754,-0.071324,0.307955
600,3383935721,0.574023,-0.264803,-0.748596,-0.199982,-0.090994,-0.333986,0.240769
601,3383969055,0.572823,-0.270935,-0.745617,-0.206240,-0.213417,-0.327517,0.144334
602,3384002389,0.571331,-0.277383,-0.742563,-0.212725,-0.214095,-0.037835,0.129457
603,3384035723,0.569654,-0.283430,-0.739731,-0.219023,-0.194170,0.153565,0.144350
604,3384069057,0.568168,-0.288615,-0.737174,-0.224660,0.017056,0.234906,0.220590
605,3384102391,0.566901,-0.293273,-0.734638,-0.230072,0.096622,0.298662,0.238690
606,3384135725,0.565463,-0.297509,-0.732314,-0.235514,0.159869,-0.016854,0.238882
607,3384169059,0.564331,-0.302080,-0.729513,-0.241042,0.107819,-0.214192,0.131399
608,3384202393,0.563299,-0.306632,-0.726758,-0.245980,0.060203,-0.362299,0.210030
609,3384235727,0.562409,-0.310820,-0.723938,-0.251024,-0.022352,-0.408041,0.213971
610,3384269061,0.561836,-0.314804,-0.720954,-0.255882,0.076335,-0.286847,0.096775
611,3384302395,0.561100,-0.318938,-0.718240,-0.259978,-0.084761,-0.122032,0.039002
612,3384335729,0.560224,-0.322809,-0.715935,-0.263423,-0.127587,0.092337,0.139178
613,3384369063,0.559434,-0.325603,-0.714388,-0.265855,-0.222393,0.416184,0.104797
614,3384402397,0.558902,-0.326686,-0.714037,-0.266585,-0.055956,0.536959,0.152575
615,3384435731,0.558750,-0.326317,-0.714602,-0.265839,-0.070328,0.623611,0.127021
616,3384469065,0.558841,-0.324809,-0.715854,-0.264122,-0.053480,0.620722,0.177811
617,3384502399,0.559141,-0.322450,-0.717538,-0.261797,0.058520,0.467727,0.153657
618,3384535733,0.559567,-0.319822,-0.719423,-0.258921,0.010060,0.064194,0.179609
619,3384569067,0.560038,-0.317137,-0.721371,-0.255767,-0.044436,-0.128806,0.104424
620,3384602401,0.560279,-0.314400,-0.723468,-0.252678,0.127078,-0.282870,0.206695
621,3384635735,0.560575,-0.311800,-0.725502,-0.249388,0.168528,-0.263637,0.138612
622,3384669069,0.560886,-0.309597,-0.727353,-0.246018,0.092223,-0.086568,0.215718
623,3384702403,0.561139,-0.307557,-0.729110,-0.242777,0.068403,0.019415,0.167365
624,3384735737,0.561634,-0.305203,-0.730880,-0.239260,-0.119322,0.164322,0.213633
625,3384769071,0.562256,-0.302147,-0.732993,-0.235176,-0.041781,0.175924,0.219739
626,3384802405,0.562961,-0.298066,-0.735744,-0.230051,-0.189710,0.149560,0.203765
627,3384835739,0.563715,-0.293016,-0.738989,-0.224219,-0.262144,0.112471,0.147120
628,3384869073,0.564642,-0.287281,-0.742417,-0.217894,-0.207147,0.139523,0.155059
629,3384902407,0.565596,-0.280894,-0.745984,-0.211469,-0.054618,-0.017513,0.144181
630,3384935741,0.566229,-0.274964,-0.749480,-0.205113,-0.296083,-0.141180,0.073925
631,3384969075,0.566984,-0.267805,-0.753582,-0.197319,-0.452420,-0.278027,0.334551
632,3385002409,0.568552,-0.258512,-0.757731,-0.189142,0.374463,-0.132123,0.140656
633,3385035743,0.570436,-0.249686,-0.761123,-0.181559,-0.274667,0.039056,0.302632
634,3385069077,0.570951,-0.242175,-0.764954,-0.173848,0.345796,0.418415,0.123407
635,3385102411,0.570834,-0.236880,-0.767889,-0.168508,0.368252,0.518201,0.157153
636,3385135745,0.570949,-0.232568,-0.769925,-0.164794,0.095023,0.294003,0.178203
637,3385169079,0.571003,-0.228489,-0.771860,-0.161218,-0.104357,0.025635,0.218188
638,3385202413,0.570963,-0.224914,-0.773579,-0.158122,0.099382,-0.200455,0.093782
639,3385235747,0.570716,-0.223246,-0.774412,-0.157300,0.470837,-0.476585,0.060009
640,3385269081,0.570174,-0.223898,-0.774353,-0.158619,0.582021,-0.606776,0.185677
641,3385302415,0.569270,-0.227357,-0.773325,-0.161932,0.445671,-0.509477,0.243668
642,3385335749,0.568311,-0.232826,-0.771276,-0.167211,0.480742,-0.589660,0.319095
643,3385369083,0.567759,-0.240090,-0.767818,-0.174569,0.347841,-0.339771,0.216495
644,3385402417,0.567020,-0.248288,-0.763907,-0.182478,0.195639,-0.144653,0.286213
645,3385435751,0.566154,-0.256605,-0.759763,-0.190777,-0.137042,-0.009320,0.186530
646,3385469085,0.565243,-0.264729,-0.755399,-0.199506,-0.098479,0.167146,0.167114
647,3385502419,0.564350,-0.271812,-0.751253,-0.207986,-0.260188,0.122034,0.157653
648,3385535753,0.563769,-0.277467,-0.747467,-0.215594,-0.175243,0.058478,0.224116
649,3385569087,0.563808,-0.281784,-0.743822,-0.222393,0.000510,-0.065886,0.293360
650,3385602421,0.563916,-0.286158,-0.739827,-0.229738,-0.033988,-0.177368,0.129457
651,3385635755,0.563929,-0.290480,-0.735941,-0.236659,-0.022613,-0.304964,0.275935
652,3385669089,0.563576,-0.295321,-0.732033,-0.243529,0.268767,-0.226770,0.036187
653,3385702423,0.563151,-0.300242,-0.728245,-0.249773,0.025312,-0.051551,0.100645
654,3385735757,0.562444,-0.304770,-0.724986,-0.255301,0.001912,0.122964,0.113977
655,3385769091,0.561591,-0.308956,-0.722196,-0.260013,0.009370,0.376037,0.080658
656,3385802425,0.561081,-0.311922,-0.720223,-0.263029,-0.240640,0.534267,0.168796
657,3385835759,0.560665,-0.313514,-0.719193,-0.264835,0.011381,0.589082,0.143383
658,3385869093,0.560234,-0.314336,-0.718846,-0.265712,-0.095443,0.442072,0.149101
659,3385902427,0.559830,-0.314501,-0.719146,-0.265556,-0.074150,0.184450,0.238665
660,3385935761,0.559585,-0.314200,-0.719700,-0.264928,0.070959,0.087339,0.129130
661,3385969095,0.559262,-0.313580,-0.720464,-0.264266,0.084575,-0.009410,0.228029
662,3386002429,0.558741,-0.313187,-0.721002,-0.264367,0.168949,0.030808,0.326078
663,3386035763,0.558156,-0.312833,-0.721151,-0.265613,0.206072,0.035753,0.165666
664,3386069097,0.558007,-0.312312,-0.721129,-0.266598,0.147209,0.019254,0.119473
665,3386102431,0.558000,-0.311169,-0.721858,-0.265974,-0.335086,-0.245080,0.054414
666,3386135765,0.558400,-0.308091,-0.724095,-0.262617,-0.576579,0.191651,0.276586
667,3386169099,0.559320,-0.303040,-0.727469,-0.257157,0.055395,0.448275,0.139329
668,3386202433,0.560975,-0.296924,-0.730548,-0.251902,0.058785,0.580478,0.345126
669,3386235767,0.562171,-0.290445,-0.734303,-0.245797,0.032540,0.452675,-0.021066
670,3386269101,0.563349,-0.283296,-0.738570,-0.238554,-0.301810,0.004033,0.097366
671,3386302435,0.565261,-0.274810,-0.742979,-0.230117,-1.023967,-0.327845,0.011453
672,3386335769,0.567077,-0.264483,-0.748436,-0.219837,-0.516111,-0.610127,0.212186
673,3386369103,0.568676,-0.254018,-0.753855,-0.209277,0.032358,-0.538791,0.024309
674,3386402437,0.569489,-0.245182,-0.758815,-0.199447,0.236522,-0.355973,0.187726
675,3386435771,0.569958,-0.238636,-0.762501,-0.191848,0.271006,-0.090973,0.160080
676,3386469105,0.570219,-0.233583,-0.765314,-0.186001,0.196085,0.171044,0.216470
677,3386502439,0.570488,-0.229005,-0.767709,-0.180926,0.217602,0.264158,0.268801
678,3386535773,0.570579,-0.225048,-0.769800,-0.176674,0.309331,0.240131,0.316140
679,3386569107,0.570722,-0.222519,-0.771078,-0.173818,0.342599,0.160773,0.157729
680,3386602441,0.570643,-0.221574,-0.771698,-0.172525,0.239451,-0.088301,0.164220
681,3386635775,0.570432,-0.221612,-0.771955,-0.172026,0.058625,-0.100900,0.170115
682,3386669109,0.570245,-0.222376,-0.771724,-0.172697,0.251052,0.013058,0.272707
683,3386702443,0.570498,-0.224510,-0.770364,-0.175154,0.360730,0.165319,0.206002
684,3386735777,0.570270,-0.228491,-0.768251,-0.179962,0.454146,-0.094857,0.237554
685,3386769111,0.569649,-0.234294,-0.765422,-0.186407,0.140816,-0.320440,0.223531
686,3386802445,0.568825,-0.241076,-0.762061,-0.193894,-0.041054,-0.267752,0.151945
687,3386835779,0.568205,-0.247058,-0.758849,-0.200662,-0.333812,-0.284530,0.130735
688,3386869113,0.568035,-0.250690,-0.756519,-0.205384,-0.824635,-0.095425,0.168835
689,3386902447,0.568570,-0.250105,-0.755673,-0.207717,0.360166,0.408315,0.414413
690,3386935781,0.569870,-0.249952,-0.753440,-0.212396,0.402859,0.360224,0.307390
691,3386969115,0.569876,-0.254039,-0.750140,-0.219108,0.501969,-0.122488,0.103267
692,3387002449,0.568619,-0.261895,-0.745301,-0.229393,0.112691,-0.554562,0.188354
693,3387035783,0.566818,-0.271516,-0.739240,-0.241936,0.378019,-0.508560,0.295560
694,3387069117,0.564249,-0.283753,-0.731546,-0.256825,-0.131716,-0.463459,0.188447
695,3387102451,0.560884,-0.296872,-0.723483,-0.271772,-0.456994,-0.535843,0.085615
696,3387135785,0.557386,-0.309798,-0.714884,-0.286877,-0.250923,-0.122559,0.203249
697,3387169119,0.553517,-0.323623,-0.705115,-0.302841,-0.150401,0.032146,0.108042
698,3387202453,0.549153,-0.337622,-0.694943,-0.318603,-0.391163,0.152618,0.203386
699,3387235787,0.544884,-0.349276,-0.686618,-0.331173,-0.138961,0.288200,-0.095137
700,3387269121,0.540878,-0.358456,-0.680176,-0.341077,0.130698,0.414881,0.176389
701,3387302455,0.537489,-0.366088,-0.674633,-0.349238,-0.083688,0.601309,0.180505
702,3387335789,0.534658,-0.372409,-0.670087,-0.355594,-0.151172,0.503594,0.154630
703,3387369123,0.533473,-0.375931,-0.666866,-0.359701,-0.160404,0.459699,0.033879
704,3387402457,0.534249,-0.376102,-0.665376,-0.361126,0.167368,0.542539,0.141342
705,3387435791,0.536598,-0.374343,-0.664323,-0.361409,0.602930,0.757884,0.420195
706,3387469125,0.539934,-0.371693,-0.663017,-0.361576,0.563092,1.150955,0.530026
707,3387502459,0.543891,-0.367977,-0.661943,-0.361414,0.533443,1.254482,0.366101
708,3387535793,0.547270,-0.361359,-0.663837,-0.359510,-0.580922,1.291908,-0.019431
709,3387569127,0.550817,-0.351822,-0.670233,-0.351600,-1.286667,-0.090700,-0.101222
710,3387602461,0.554589,-0.342880,-0.675795,-0.343770,-1.042707,-0.788982,-0.211019
711,3387635795,0.558543,-0.334466,-0.680021,-0.337262,-0.260426,-1.439086,-0.058748
712,3387669129,0.562938,-0.326780,-0.683502,-0.330381,0.490672,-0.961657,0.112638
713,3387702463,0.566828,-0.319825,-0.687846,-0.321400,0.443887,-0.468333,-0.044791
714,3387735797,0.569521,-0.314965,-0.692217,-0.311914,0.120983,-0.223318,0.145855
715,3387769131,0.571801,-0.311238,-0.696272,-0.302310,-0.447485,0.132462,0.048462
716,3387802465,0.574172,-0.305469,-0.701716,-0.290898,-0.379063,0.250308,0.164625
717,3387835799,0.576555,-0.298327,-0.707668,-0.278931,-0.145004,0.189357,0.289414
718,3387869133,0.579612,-0.288312,-0.714304,-0.265908,-0.130617,0.174518,0.072986
719,3387902467,0.582536,-0.277796,-0.721000,-0.252292,0.173523,0.062317,0.245607
720,3387935801,0.584903,-0.269233,-0.726455,-0.240162,0.186500,0.284078,0.313430
721,3387969135,0.586656,-0.261343,-0.732032,-0.227325,-0.421343,-0.349797,0.045281
722,3388002469,0.587430,-0.254439,-0.737683,-0.214529,-0.600725,-0.259227,0.399339
723,3388035803,0.588614,-0.245732,-0.743568,-0.200667,-0.747206,-0.018709,0.283560
724,3388069137,0.590319,-0.234114,-0.749809,-0.185774,0.409435,0.036459,0.446980
725,3388102471,0.592012,-0.224268,-0.754179,-0.174504,0.943924,-0.012127,0.114921
726,3388135805,0.592655,-0.219176,-0.756783,-0.167371,0.540193,-0.312378,0.319930
727,3388169139,0.592401,-0.217939,-0.758243,-0.163229,0.242536,-0.533550,0.162937
728,3388202473,0.591403,-0.218728,-0.759145,-0.161586,0.045593,-0.903348,0.112835
729,3388235807,0.590439,-0.219943,-0.759743,-0.160650,-0.585494,-0.832985,0.186009
730,3388269141,0.589053,-0.220068,-0.761336,-0.158006,-0.468348,-0.582375,0.111580
731,3388302475,0.587638,-0.220105,-0.762838,-0.155963,0.104808,0.009424,0.138377
732,3388335809,0.586561,-0.221918,-0.763095,-0.156194,0.221020,0.202826,0.051135
733,3388369143,0.584665,-0.226559,-0.762452,-0.159740,0.455823,0.299706,0.327480
734,3388402477,0.582704,-0.232901,-0.760634,-0.166317,0.590317,0.231234,0.369696
735,3388435811,0.581239,-0.240714,-0.757318,-0.175212,-0.012055,-0.080646,0.388605
736,3388469145,0.579745,-0.248715,-0.753627,-0.184647,-0.188577,-0.797113,0.197453
737,3388502479,0.578143,-0.256303,-0.750012,-0.193788,-0.142721,-0.467015,0.161008
738,3388535813,0.576329,-0.263478,-0.746719,-0.202105,-0.035238,-0.461459,0.252330
739,3388569147,0.574635,-0.270730,-0.743181,-0.210223,0.091091,-0.602156,0.091847
740,3388602481,0.572700,-0.278805,-0.739335,-0.218353,-0.032853,-0.415436,0.036293
741,3388635815,0.570151,-0.287758,-0.735486,-0.226264,0.063395,-0.379453,0.167933
742,3388669149,0.567857,-0.297067,-0.731005,-0.234380,0.049228,-0.047876,0.152204
743,3388702483,0.565547,-0.306424,-0.726475,-0.241879,-0.076479,0.213875,0.079189
744,3388735817,0.563363,-0.314618,-0.722759,-0.247525,0.242468,0.469409,0.171040
745,3388769151,0.561315,-0.321773,-0.718697,-0.254703,0.035671,0.385880,0.363310
746,3388802485,0.559362,-0.328453,-0.714424,-0.262380,-0.284151,0.155060,0.135772
747,3388835819,0.558042,-0.333344,-0.711369,-0.267277,-0.141536,0.321079,0.031407
748,3388869153,0.556745,-0.336540,-0.709692,-0.270416,-0.139341,0.350848,0.028131
749,3388902487,0.555885,-0.338182,-0.709028,-0.271875,-0.177614,0.491601,0.090237
750,3388935821,0.555521,-0.338072,-0.709720,-0.270950,-0.277043,0.625666,0.172010
751,3388969155,0.555399,-0.336380,-0.711806,-0.267815,-0.087337,0.474910,0.075081
752,3389002489,0.555940,-0.333743,-0.714035,-0.264031,0.134807,0.520138,0.196611
753,3389035823,0.556921,-0.330545,-0.716015,-0.260604,0.293351,0.417553,0.267856
754,3389069157,0.557897,-0.327434,-0.718031,-0.256868,0.219062,0.101001,0.163958
755,3389102491,0.558997,-0.324377,-0.720039,-0.252703,-0.042425,-0.072225,0.212548
756,3389135825,0.560250,-0.320977,-0.721963,-0.248745,-0.034528,-0.253302,0.165565
757,3389169159,0.561467,-0.317282,-0.724237,-0.244090,0.051941,-0.318733,0.026865
758,3389202493,0.562390,-0.313464,-0.727306,-0.237688,-0.118137,-0.232147,0.131624
759,3389235827,0.562787,-0.309264,-0.731211,-0.230148,-0.245089,0.003940,0.188788
760,3389269161,0.563045,-0.303871,-0.735936,-0.221480,-0.201845,0.163675,0.109669
761,3389302495,0.563484,-0.297332,-0.741007,-0.212133,-0.115758,0.425769,0.159837
762,3389335829,0.563816,-0.290268,-0.746210,-0.202580,-0.258228,0.373867,0.137909
763,3389369163,0.564327,-0.282350,-0.751418,-0.192862,-0.276093,0.097590,0.219590
764,3389402497,0.565544,-0.273400,-0.756086,-0.183734,-0.035705,0.207043,0.253099
765,3389435831,0.566511,-0.265800,-0.760042,-0.175396,0.304902,-0.048912,0.194471
766,3389469165,0.567234,-0.259278,-0.763390,-0.168131,-0.105536,-0.383508,0.241140
767,3389502499,0.568006,-0.252372,-0.766672,-0.160948,-0.079297,-0.577688,0.155797
768,3389535833,0.568996,-0.245321,-0.770013,-0.152162,-0.021036,-0.302461,0.330935
769,3389569167,0.569322,-0.239158,-0.773325,-0.143725,-0.102942,-0.278871,0.122808
770,3389602501,0.569600,-0.232930,-0.776432,-0.135887,0.033212,-0.000948,0.244480
771,3389635835,0.569834,-0.227341,-0.779039,-0.129288,0.057648,0.469577,0.197307
772,3389669169,0.569416,-0.223180,-0.781329,-0.124474,-0.082934,0.393281,0.106961
773,3389702503,0.569079,-0.218467,-0.783707,-0.119319,-0.330770,0.463326,0.143791
774,3389735837,0.568857,-0.213231,-0.786006,-0.114639,-0.152568,0.278586,0.383110
775,3389769171,0.569085,-0.208754,-0.787489,-0.111526,0.172561,0.254242,-0.011182
776,3389802505,0.568953,-0.205903,-0.788491,-0.110412,0.334433,-0.187043,0.297842
777,3389835839,0.568889,-0.206413,-0.788021,-0.113109,0.719692,-0.170797,0.226888
778,3389869173,0.568683,-0.210493,-0.786110,-0.119733,0.630091,-0.564843,0.134607
779,3389902507,0.568136,-0.217828,-0.783009,-0.129160,0.420887,-0.779443,0.173514
780,3389935841,0.567270,-0.226640,-0.779339,-0.139580,-0.055512,-0.766707,0.083924
781,3389969175,0.566390,-0.235234,-0.775605,-0.149389,-0.202533,-0.315398,0.140774
782,3390002509,0.565524,-0.243060,-0.772036,-0.158359,-0.143453,0.194321,0.318277
783,3390035843,0.564703,-0.249774,-0.768598,-0.167310,0.145834,0.345456,0.308652
784,3390069177,0.564519,-0.256601,-0.764458,-0.176326,0.505706,0.507053,0.236982
785,3390102511,0.564207,-0.264329,-0.759679,-0.186283,0.466346,0.097434,0.359479
786,3390135845,0.563883,-0.272957,-0.754059,-0.197325,0.261328,-0.339440,0.138781
787,3390169179,0.563511,-0.282221,-0.747996,-0.208136,-0.027586,-0.428204,0.116068
788,3390202513,0.562613,-0.291577,-0.742130,-0.218417,-0.316724,-0.476516,0.262178
789,3390235847,0.561508,-0.299684,-0.736985,-0.227520,-0.495021,-0.396901,-0.012534
790,3390269181,0.560361,-0.306181,-0.733052,-0.234299,-0.108168,-0.141368,0.078811
791,3390302515,0.559039,-0.312355,-0.729526,-0.240238,0.089590,0.205326,0.053706
792,3390335849,0.557557,-0.318402,-0.726280,-0.245523,-0.403242,0.396689,0.219321
793,3390369183,0.556212,-0.323538,-0.723422,-0.250249,0.063169,0.780940,0.145096
794,3390402517,0.555112,-0.327330,-0.721278,-0.253923,-0.042060,0.874447,0.137816
795,3390435851,0.554678,-0.328715,-0.720460,-0.255400,-0.192926,0.703715,0.200280
796,3390469185,0.554506,-0.328596,-0.720602,-0.255526,0.275283,0.539721,0.121023
797,3390502519,0.554510,-0.328118,-0.720986,-0.255047,0.247217,0.347936,0.186403
798,3390535853,0.554612,-0.327710,-0.721375,-0.254249,0.175030,-0.077095,0.222889
799,3390569187,0.555010,-0.327098,-0.721728,-0.253166,-0.072521,-0.224621,0.211653
800,3390602521,0.555682,-0.326029,-0.722140,-0.251890,0.048439,-0.311449,0.027216
801,3390635855,0.556443,-0.324720,-0.722788,-0.250037,-0.006787,-0.446134,0.097099
802,3390669189,0.557220,-0.323401,-0.723625,-0.247584,-0.024535,-0.499011,0.219000
803,3390702523,0.558196,-0.321602,-0.724842,-0.244142,-0.230226,-0.292429,0.061461
804,3390735857,0.559565,-0.318136,-0.727089,-0.238813,-0.649439,-0.041526,0.318085
805,3390769191,0.561950,-0.311957,-0.730136,-0.231967,-0.334582,0.214882,0.046790
806,3390802525,0.565708,-0.302985,-0.733350,-0.224465,-0.038456,0.216059,0.181493
807,3390835859,0.569071,-0.294453,-0.736247,-0.217735,0.674886,0.112136,0.128755
808,3390869193,0.571430,-0.288302,-0.738691,-0.211418,0.057309,-0.354820,0.140701
809,3390902527,0.573676,-0.282148,-0.741233,-0.204635,-0.571115,-0.599427,0.189319
810,3390935861,0.576121,-0.275037,-0.744016,-0.197212,-0.344874,-0.366768,0.223711
811,3390969195,0.578161,-0.267953,-0.746993,-0.189593,-0.038978,0.022238,0.146099
812,3391002529,0.579576,-0.261928,-0.749791,-0.182518,0.311887,-0.060424,0.111086
813,3391035863,0.581063,-0.257580,-0.751342,-0.177527,0.337402,0.502270,0.282104
814,3391069197,0.581969,-0.255081,-0.752289,-0.174126,0.125191,0.640998,0.123999
815,3391102531,0.582101,-0.253593,-0.753354,-0.171232,-0.050927,0.430056,0.191256
816,3391135865,0.582050,-0.252151,-0.754365,-0.169069,0.068404,0.293293,0.293723
817,3391169199,0.582015,-0.251144,-0.755109,-0.167357,0.082432,0.058377,0.089663
818,3391202533,0.581785,-0.251576,-0.755302,-0.166635,0.108689,-0.088438,0.265472
819,3391235867,0.581073,-0.254213,-0.754562,-0.168464,0.269311,-0.134924,0.171396
820,3391269201,0.579764,-0.259656,-0.752677,-0.173042,0.213268,-0.205223,0.154014
821,3391302535,0.578169,-0.267089,-0.749766,-0.179577,-0.032877,-0.358324,0.144165
822,3391335869,0.575971,-0.275654,-0.746518,-0.187073,-0.297449,-0.250058,0.044991
823,3391369203,0.573659,-0.283746,-0.743530,-0.193854,-0.428934,-0.110691,0.173069
824,3391402537,0.571314,-0.290670,-0.741048,-0.199929,-0.146922,-0.027259,0.298976
825,3391435871,0.569308,-0.297512,-0.738046,-0.206583,0.101749,0.104941,0.223716
826,3391469205,0.567433,-0.304518,-0.734662,-0.213479,0.074696,0.103837,0.220224
827,3391502539,0.565596,-0.311461,-0.731093,-0.220474,0.172704,-0.002674,0.305920
828,3391535873,0.563870,-0.318276,-0.727222,-0.227844,0.110295,0.014244,0.205338
829,3391569207,0.562364,-0.324330,-0.723530,-0.234679,-0.001426,-0.055554,0.233672
830,3391602541,0.561336,-0.329162,-0.720256,-0.240412,0.173182,0.006340,0.186843
831,3391635875,0.560152,-0.333880,-0.717164,-0.245851,0.201810,0.037709,0.080899
832,3391669209,0.558845,-0.338197,-0.714487,-0.250672,-0.299314,0.092993,0.086682
833,3391702543,0.558024,-0.340630,-0.713079,-0.253203,-0.457407,0.189604,0.115227
834,3391735877,0.557664,-0.341069,-0.712938,-0.253803,-0.187192,0.228437,0.080857
835,3391769211,0.557632,-0.340194,-0.713631,-0.253099,-0.269107,0.173844,0.181532
836,3391802545,0.557877,-0.338318,-0.714967,-0.251296,-0.241110,0.213782,0.081457
837,3391835879,0.558322,-0.335564,-0.716929,-0.248391,-0.031008,0.256556,0.129008
838,3391869213,0.558937,-0.332103,-0.719234,-0.244974,-0.230494,0.082428,0.118229
839,3391902547,0.559793,-0.327837,-0.721984,-0.240637,-0.095673,0.059532,0.188951
840,3391935881,0.560855,-0.322959,-0.724947,-0.235805,0.044803,-0.028058,0.131706
841,3391969215,0.561812,-0.318204,-0.727795,-0.231174,0.154990,-0.081432,0.165500
842,3392002549,0.562789,-0.313857,-0.730345,-0.226654,-0.055795,-0.171778,0.256012
843,3392035883,0.563834,-0.309372,-0.732716,-0.222533,-0.084540,-0.211606,0.171430
844,3392069217,0.565470,-0.303719,-0.735471,-0.217012,-0.417414,-0.037848,0.125957
845,3392102551,0.567201,-0.296702,-0.738815,-0.210750,0.179609,0.099186,0.283374
846,3392135885,0.568720,-0.289118,-0.742455,-0.204309,0.025500,0.088275,0.169571
847,3392169219,0.569893,-0.281661,-0.746267,-0.197454,0.011422,-0.017936,0.096727
848,3392202553,0.571244,-0.273621,-0.750031,-0.190468,-0.115029,0.163757,0.142298
849,3392235887,0.571934,-0.265149,-0.754357,-0.183155,-0.081037,0.101231,0.002797
850,3392269221,0.572784,-0.255258,-0.759387,-0.173515,-0.657971,-0.197737,0.147875
851,3392302555,0.573658,-0.243304,-0.765164,-0.162038,-0.149104,-0.419666,0.331842
852,3392335889,0.574843,-0.232092,-0.769873,-0.151649,0.521470,-0.300417,0.128109
853,3392369223,0.575470,-0.223954,-0.773384,-0.143420,0.249917,-0.056376,0.207092
854,3392402557,0.575414,-0.217950,-0.776304,-0.136972,0.488581,-0.146734,0.184498
855,3392435891,0.576045,-0.213137,-0.778027,-0.132031,0.437660,0.272468,0.245228
856,3392469225,0.576284,-0.210176,-0.779217,-0.128671,0.119132,0.123277,0.194501
857,3392502559,0.576397,-0.208102,-0.780062,-0.126396,0.214395,0.012444,0.304919
858,3392535893,0.576652,-0.207062,-0.780297,-0.125487,0.190767,0.174481,0.184632
859,3392569227,0.576590,-0.207954,-0.779962,-0.126377,0.177508,-0.014188,0.081794
860,3392602561,0.576324,-0.210228,-0.779189,-0.128584,-0.125837,-0.228924,0.104467
861,3392635895,0.575859,-0.213176,-0.778173,-0.131918,0.004581,-0.112705,0.212777
862,3392669229,0.575545,-0.216885,-0.776596,-0.136458,0.241845,-0.010011,0.294304
863,3392702563,0.575358,-0.221836,-0.774224,-0.142625,0.441804,-0.095288,0.307110
864,3392735897,0.575167,-0.228969,-0.770679,-0.151070,0.384597,-0.139578,0.256783
865,3392769231,0.574482,-0.238219,-0.766269,-0.161456,0.096809,-0.163241,0.206999
866,3392802565,0.573464,-0.248536,-0.761247,-0.172873,0.083975,-0.170017,0.161165
867,3392835899,0.572442,-0.258966,-0.755754,-0.184652,-0.312726,-0.157962,0.230205
868,3392869233,0.571409,-0.268491,-0.750483,-0.195429,-0.225418,-0.132856,0.194589
869,3392902567,0.570603,-0.277121,-0.745262,-0.205461,-0.154113,-0.123611,0.277085
870,3392935901,0.569871,-0.285406,-0.739798,-0.215645,0.264977,-0.040503,0.303501
871,3392969235,0.568794,-0.294316,-0.733800,-0.226722,0.066389,-0.127786,0.019214
872,3393002569,0.567224,-0.303506,-0.727860,-0.237431,0.025474,-0.104156,0.161065
873,3393035903,0.565304,-0.312036,-0.722557,-0.246963,-0.125211,-0.168863,0.150380
874,3393069237,0.563455,-0.319732,-0.717597,-0.255652,-0.066249,-0.086875,0.045488
875,3393102571,0.561665,-0.326694,-0.713133,-0.263170,-0.025122,0.203636,0.031469
876,3393135905,0.559661,-0.332936,-0.709299,-0.269894,-0.202014,0.293278,0.168561
877,3393169239,0.558030,-0.337783,-0.706118,-0.275527,-0.012252,0.469667,0.057242
878,3393202573,0.556835,-0.340858,-0.704084,-0.279338,-0.446946,0.428379,0.148039
879,3393235907,0.556341,-0.341370,-0.703499,-0.281164,-0.230338,0.386849,0.103377
880,3393269241,0.556276,-0.340070,-0.704243,-0.281006,-0.150330,0.386364,0.223240
881,3393302575,0.556562,-0.337792,-0.705834,-0.279192,-0.069409,0.296893,0.137796
882,3393335909,0.557326,-0.334803,-0.707743,-0.276421,0.158711,0.226898,0.112688
883,3393369243,0.558414,-0.330661,-0.710273,-0.272696,0.074932,0.142750,0.314157
884,3393402577,0.559769,-0.325759,-0.713081,-0.268458,0.167649,-0.144683,0.211387
885,3393435911,0.561207,-0.321105,-0.715687,-0.264089,0.216815,-0.066389,0.240363
886,3393469245,0.562580,-0.317598,-0.717544,-0.260348,0.197641,-0.080455,0.129738
887,3393502579,0.563964,-0.314809,-0.718876,-0.257043,-0.296466,0.076017,0.151976
888,3393535913,0.565174,-0.311627,-0.720927,-0.252476,-0.584638,-0.101604,0.101575
889,3393569247,0.566426,-0.306876,-0.724298,-0.245752,-0.504256,-0.059846,-0.057284
890,3393602581,0.567738,-0.300978,-0.728395,-0.237780,-0.139103,0.007173,0.232831
891,3393635915,0.569180,-0.294083,-0.732838,-0.229154,0.093474,0.144749,0.017595
892,3393669249,0.570333,-0.286412,-0.738049,-0.219055,-0.040360,0.079675,0.283946
893,3393702583,0.570945,-0.278668,-0.743618,-0.208356,-0.152725,-0.145265,0.165784
894,3393735917,0.571656,-0.271067,-0.748525,-0.198637,0.188058,0.019763,0.333453
895,3393769251,0.572480,-0.263781,-0.752688,-0.190158,0.182719,-0.185699,0.115345
896,3393802585,0.573427,-0.257132,-0.756342,-0.181730,0.077479,-0.298677,0.269561
897,3393835919,0.573987,-0.252157,-0.759240,-0.174712,0.021793,-0.177619,0.253960
898,3393869253,0.574718,-0.247934,-0.761346,-0.169098,0.000671,0.091640,0.183254
899,3393902587,0.575293,-0.244020,-0.763157,-0.164615,-0.002537,0.401600,0.209487
900,3393935921,0.575569,-0.240974,-0.764696,-0.160956,0.055642,0.326440,0.281545
901,3393969255,0.575656,-0.238722,-0.765734,-0.159054,0.137671,0.177548,0.123003
902,3394002589,0.575727,-0.237478,-0.766152,-0.158641,-0.013843,0.019428,0.097840
903,3394035923,0.575534,-0.237317,-0.766164,-0.159522,0.084944,-0.239576,0.146940
904,3394069257,0.575117,-0.238719,-0.765584,-0.161704,0.035145,-0.417311,0.176009
905,3394102591,0.574313,-0.241769,-0.764476,-0.165231,0.098606,-0.426696,0.205669
906,3394135925,0.573474,-0.246771,-0.762205,-0.171143,0.109996,-0.164264,0.140469
907,3394169259,0.572151,-0.253933,-0.758888,-0.179619,0.189000,-0.233433,0.227330
908,3394202593,0.570500,-0.262624,-0.754721,-0.189656,0.063072,-0.218004,0.187066
909,3394235927,0.568686,-0.271850,-0.750066,-0.200270,-0.209526,-0.163917,0.160833
910,3394269261,0.567047,-0.280256,-0.745446,-0.210331,-0.091099,-0.262164,0.235260
911,3394302595,0.565949,-0.287347,-0.740975,-0.219323,-0.294703,-0.228131,0.101057
912,3394335929,0.565165,-0.293393,-0.736923,-0.226867,0.161424,-0.060533,0.263952
913,3394369263,0.564217,-0.299592,-0.732835,-0.234247,0.275664,-0.153913,0.169202
914,3394402597,0.563005,-0.306366,-0.728652,-0.241341,-0.086463,-0.119633,0.123505
915,3394435931,0.561695,-0.312382,-0.725333,-0.246620,0.010940,-0.012675,0.147422
916,3394469265,0.560292,-0.317627,-0.722344,-0.251831,0.087129,0.121611,0.233371
917,3394502599,0.558960,-0.322433,-0.719416,-0.257013,-0.040931,0.173718,0.090206
918,3394535933,0.557863,-0.326285,-0.717145,-0.260854,-0.189595,0.324258,0.223621
919,3394569267,0.556765,-0.329079,-0.715557,-0.264028,0.152187,0.374002,0.078823
920,3394602601,0.555976,-0.331081,-0.714317,-0.266537,0.175516,0.523158,0.248870
921,3394635935,0.555412,-0.332398,-0.713645,-0.267868,-0.062752,0.506614,0.089851
922,3394669269,0.555317,-0.331976,-0.714227,-0.267036,-0.439209,0.254364,0.153901
923,3394702603,0.555496,-0.329884,-0.715945,-0.264646,-0.151626,0.058510,0.057197
924,3394735937,0.556072,-0.327030,-0.717886,-0.261703,-0.146273,0.021075,0.186225
925,3394769271,0.556928,-0.323779,-0.719710,-0.258901,0.086033,-0.000795,0.276354
926,3394802605,0.557862,-0.320828,-0.721121,-0.256628,0.254606,-0.201803,0.136085
927,3394835939,0.558806,-0.318535,-0.722053,-0.254803,0.117018,-0.260155,0.141269
928,3394869273,0.559759,-0.316339,-0.722794,-0.253342,-0.154995,-0.198885,0.172721
929,3394902607,0.560808,-0.313586,-0.723959,-0.251107,-0.043499,0.057934,0.134130
930,3394935941,0.561697,-0.309927,-0.726097,-0.247466,-0.197815,0.061956,0.290235
931,3394969275,0.562418,-0.305369,-0.728971,-0.243003,-0.042041,0.289489,0.208138
932,3395002609,0.563183,-0.300152,-0.732017,-0.238533,-0.001862,0.457563,0.271146
933,3395035943,0.564398,-0.294770,-0.734670,-0.234180,0.252780,0.565463,0.093459
934,3395069277,0.566468,-0.287772,-0.737362,-0.229375,-0.205219,0.422201,0.204422
935,3395102611,0.568590,-0.280292,-0.740366,-0.223637,-0.308604,0.337246,0.097893
936,3395135945,0.569285,-0.272507,-0.745239,-0.215148,-0.709663,-0.425225,-0.167892
937,3395169279,0.570061,-0.263119,-0.750963,-0.204615,-0.969968,-0.909200,0.081811
938,3395202613,0.571227,-0.250796,-0.757762,-0.191342,-0.348289,-0.498284,0.036120
939,3395235947,0.571942,-0.237442,-0.765104,-0.176448,-0.375512,-0.575172,0.300398
940,3395269281,0.572576,-0.224537,-0.771729,-0.161826,0.405949,-0.089896,0.258823
941,3395302615,0.572968,-0.213939,-0.776840,-0.149904,0.836324,0.306171,0.346145
942,3395335949,0.572931,-0.206784,-0.780396,-0.141374,0.667246,0.345819,0.193755
943,3395369283,0.572782,-0.201987,-0.782867,-0.135108,0.510199,0.374941,0.304968
944,3395402617,0.572445,-0.199460,-0.784388,-0.131422,0.343783,0.255545,0.276068
945,3395435951,0.572224,-0.198277,-0.785089,-0.129979,0.067385,-0.303821,0.157389
946,3395469285,0.572246,-0.197472,-0.785438,-0.128995,-0.016907,-0.319416,0.128082
947,3395502619,0.571995,-0.197840,-0.785561,-0.128797,0.079863,-0.264534,0.153913
948,3395535953,0.571818,-0.199712,-0.784914,-0.130626,0.339230,-0.138742,0.194118
949,3395569287,0.571769,-0.203820,-0.783108,-0.135253,0.446249,0.102826,0.246135
950,3395602621,0.571346,-0.210375,-0.780362,-0.142673,0.556470,-0.059461,0.327439
951,3395635955,0.571148,-0.219223,-0.776138,-0.152824,0.455139,-0.192655,0.248949
952,3395669289,0.570735,-0.229829,-0.770886,-0.164892,0.178364,-0.277647,0.271833
953,3395702623,0.570251,-0.241510,-0.764683,-0.178214,-0.016189,-0.204320,0.210322
954,3395735957,0.569619,-0.253024,-0.758157,-0.191637,-0.256056,-0.316955,0.121719
955,3395769291,0.568812,-0.262981,-0.752166,-0.203848,-0.298343,-0.401110,0.295818
956,3395802625,0.568249,-0.271438,-0.746567,-0.214631,-0.284812,-0.201662,0.140919
957,3395835959,0.567847,-0.279079,-0.741100,-0.224610,-0.040028,-0.349758,0.160191
958,3395869293,0.567609,-0.286155,-0.735694,-0.233890,0.031007,-0.191266,0.164252
959,3395902627,0.566759,-0.293901,-0.730388,-0.242804,0.199628,-0.095221,0.035684
960,3395935961,0.565199,-0.302778,-0.724804,-0.252088,0.271467,-0.056089,0.107044
961,3395969295,0.563090,-0.313091,-0.718438,-0.262228,0.360209,0.018523,0.044383
962,3396002629,0.560436,-0.323635,-0.712339,-0.271587,-0.324859,0.094704,0.065229
963,3396035963,0.557940,-0.332485,-0.707634,-0.278254,-0.490119,0.177151,-0.015036
964,3396069297,0.555833,-0.338783,-0.704730,-0.282216,-0.415798,0.551595,0.135084
965,3396102631,0.554113,-0.343119,-0.702978,-0.284716,-0.189196,0.585735,0.148220
966,3396135965,0.553036,-0.345966,-0.701960,-0.285876,-0.064840,0.929264,0.152164
967,3396169299,0.552594,-0.346891,-0.702138,-0.285171,-0.082349,0.920490,0.141982
968,3396202633,0.552950,-0.345748,-0.703457,-0.282606,-0.112054,0.618417,0.221614
969,3396235967,0.553906,-0.342934,-0.705751,-0.278413,-0.071448,0.223256,0.253079
970,3396269301,0.555314,-0.339033,-0.708405,-0.273602,0.124683,0.012556,0.344344
971,3396302635,0.556974,-0.334942,-0.710694,-0.269299,0.186891,-0.161637,0.261854
972,3396335969,0.558620,-0.331506,-0.712381,-0.265659,0.384259,-0.400684,0.081259
973,3396369303,0.560041,-0.329109,-0.713630,-0.262274,0.014496,-0.502031,0.047447
974,3396402637,0.561402,-0.326713,-0.715077,-0.258390,-0.387597,-0.338843,0.180285
975,3396435971,0.562925,-0.322985,-0.717551,-0.252844,-0.422078,-0.147770,0.096294
976,3396469305,0.564543,-0.317772,-0.721243,-0.245226,-0.270210,0.069700,0.110505
977,3396502639,0.566094,-0.311404,-0.725765,-0.236312,-0.105645,0.165418,0.162109
978,3396535973,0.567462,-0.304173,-0.730758,-0.226874,-0.126536,0.278220,0.177422
979,3396569307,0.568984,-0.295571,-0.736114,-0.216898,-0.206360,0.163712,0.498551
980,3396602641,0.571316,-0.285662,-0.741079,-0.206911,-0.343519,0.258582,0.217674
981,3396635975,0.573534,-0.275563,-0.745785,-0.197335,0.011882,-0.050797,0.110620
982,3396669309,0.575074,-0.266731,-0.749977,-0.188924,0.256382,-0.387005,0.128714
983,3396702643,0.576239,-0.260315,-0.752828,-0.182888,0.204266,-0.308086,0.200439
984,3396735977,0.577150,-0.256075,-0.754428,-0.179377,0.050433,-0.440515,0.244220
985,3396769311,0.578307,-0.252731,-0.755203,-0.177116,0.123585,-0.319585,0.155275
986,3396802645,0.578919,-0.250509,-0.755962,-0.175023,-0.286656,-0.287750,0.000832
987,3396835979,0.579342,-0.248522,-0.756852,-0.172595,-0.263915,-0.062844,0.192231
988,3396869313,0.579693,-0.246720,-0.757590,-0.170754,-0.008822,0.356304,0.147309
989,3396902647,0.579787,-0.245437,-0.758148,-0.169804,0.004416,0.437581,0.187520
990,3396935981,0.579631,-0.244550,-0.758583,-0.169676,0.206446,0.330405,0.225953
991,3396969315,0.579229,-0.245233,-0.758232,-0.171620,0.365974,0.201021,0.284625
992,3397002649,0.578635,-0.248325,-0.756554,-0.176509,0.344458,0.015412,0.262394
993,3397035983,0.577628,-0.253950,-0.753646,-0.184086,0.396901,-0.163539,0.302092
994,3397069317,0.576135,-0.261643,-0.749696,-0.193860,0.212618,-0.294691,0.139421
995,3397102651,0.574414,-0.270466,-0.745017,-0.204598,-0.036395,-0.323635,0.071552
996,3397135985,0.572742,-0.279301,-0.740124,-0.214915,-0.161259,-0.261248,0.159821
997,3397169319,0.571182,-0.286980,-0.735533,-0.224498,-0.219405,-0.099401,0.150954
998,3397202653,0.569920,-0.293764,-0.731081,-0.233301,-0.173183,-0.066263,0.121728
999,3397235987,0.568736,-0.299914,-0.727084,-0.240736,-0.092804,-0.164300,0.229006
1000,3397269321,0.567515,-0.305437,-0.723493,-0.247403,0.083915,-0.231766,0.244231
1001,3397302655,0.566363,-0.310569,-0.720113,-0.253438,0.181329,-0.233681,0.140997
1002,3397335989,0.565290,-0.315632,-0.716955,-0.258483,0.102542,-0.146207,0.061092
1003,3397369323,0.564046,-0.320514,-0.714353,-0.262367,0.016939,-0.161366,0.190879
1004,3397402657,0.562797,-0.325113,-0.711987,-0.265799,-0.015134,-0.234808,0.103534
1005,3397435991,0.561550,-0.329377,-0.709987,-0.268524,-0.128249,0.034803,0.052508
1006,3397469325,0.560263,-0.332972,-0.708802,-0.269906,-0.101205,0.177925,0.055103
1007,3397502659,0.559280,-0.335291,-0.708399,-0.270132,-0.087640,0.595390,0.207112
1008,3397535993,0.558846,-0.335851,-0.708883,-0.269063,0.003596,0.787465,0.287464
1009,3397569327,0.558925,-0.334835,-0.710009,-0.267190,0.060208,0.774277,0.171879
1010,3397602661,0.559212,-0.332976,-0.711661,-0.264503,0.149155,0.469421,0.243316
1011,3397635995,0.559623,-0.330909,-0.713311,-0.261769,-0.055962,0.127434,0.196379
1012,3397669329,0.560117,-0.328696,-0.714933,-0.259060,0.094884,-0.273516,0.205894
1013,3397702663,0.560761,-0.326812,-0.716246,-0.256412,-0.150528,-0.323713,0.067496
1014,3397735997,0.561224,-0.325040,-0.717775,-0.253358,-0.333328,-0.428669,0.041785
1015,3397769331,0.561718,-0.322828,-0.719768,-0.249405,-0.279905,-0.255104,0.160367
1016,3397802665,0.562403,-0.319719,-0.722337,-0.244387,-0.213862,0.034740,0.175449
1017,3397835999,0.562933,-0.315778,-0.725535,-0.238754,0.012728,0.015204,0.187955
1018,3397869333,0.563798,-0.311340,-0.728808,-0.232490,0.076949,0.375546,0.206414
1019,3397902667,0.564662,-0.306590,-0.732234,-0.225846,-0.107835,0.434286,0.262327
1020,3397936001,0.565749,-0.300954,-0.735787,-0.219059,-0.190881,0.394781,0.160670
1021,3397969335,0.566951,-0.294924,-0.739224,-0.212483,-0.138080,0.531424,0.127786
1022,3398002669,0.567894,-0.288854,-0.742596,-0.206460,-0.505475,0.148710,0.179300
1023,3398036003,0.568849,-0.281569,-0.746388,-0.200121,-0.555103,-0.001386,0.165443
1024,3398069337,0.569913,-0.271996,-0.751154,-0.192353,-0.641971,-0.229140,0.213690
1025,3398102671,0.570936,-0.259855,-0.757042,-0.182780,-0.392080,-0.434668,0.098313
1026,3398136005,0.572013,-0.247180,-0.762949,-0.172123,-0.398039,-0.559405,0.175440
1027,3398169339,0.573177,-0.234791,-0.768380,-0.161080,0.262002,-0.406596,0.219844
1028,3398202673,0.573873,-0.224611,-0.772679,-0.152318,0.846184,-0.225671,0.241670
1029,3398236007,0.573950,-0.218019,-0.775736,-0.145933,0.670687,-0.054282,0.143044
1030,3398269341,0.573671,-0.213853,-0.777912,-0.141549,0.427133,-0.049734,0.312538
1031,3398302675,0.573613,-0.211014,-0.779119,-0.139389,0.388214,0.033871,0.252409
1032,3398336009,0.573705,-0.209332,-0.779677,-0.138421,0.155973,-0.051280,0.080926
1033,3398369343,0.573549,-0.208688,-0.779992,-0.138267,0.152256,-0.175341,0.257295
1034,3398402677,0.573455,-0.209009,-0.779735,-0.139610,0.156691,-0.168064,0.145137
1035,3398436011,0.573396,-0.210566,-0.778811,-0.142644,0.169720,-0.196668,0.162051
1036,3398469345,0.573146,-0.213265,-0.777564,-0.146387,0.088625,-0.390521,0.236057
1037,3398502679,0.572837,-0.216828,-0.775879,-0.151225,0.324295,-0.399050,0.259121
1038,3398536013,0.572772,-0.221839,-0.773145,-0.158053,0.289962,-0.299891,0.187020
1039,3398569347,0.572623,-0.228216,-0.769726,-0.166001,0.271666,-0.317685,0.305986
1040,3398602681,0.572481,-0.235662,-0.765630,-0.174796,0.166502,-0.032729,0.200521
1041,3398636015,0.572071,-0.243747,-0.761118,-0.184485,0.019607,0.131183,0.266555
1042,3398669349,0.571739,-0.251830,-0.756216,-0.194542,-0.009432,0.224093,0.229289
1043,3398702683,0.571173,-0.259720,-0.751196,-0.205004,-0.197510,0.166114,0.083442
1044,3398736017,0.570458,-0.267098,-0.746286,-0.215193,0.111497,0.031201,0.246564
1045,3398769351,0.569800,-0.274311,-0.741295,-0.224896,-0.116921,0.025789,0.126788
1046,3398802685,0.568907,-0.281472,-0.736407,-0.234173,0.090256,0.118896,0.203254
1047,3398836019,0.568009,-0.288768,-0.731361,-0.243113,-0.036120,0.175032,0.072289
1048,3398869353,0.566895,-0.295923,-0.726651,-0.251102,-0.262892,-0.000318,0.137752
1049,3398902687,0.565455,-0.302344,-0.722715,-0.257964,-0.069774,-0.124101,0.131319
1050,3398936021,0.564000,-0.308041,-0.719303,-0.263878,-0.184446,-0.058247,0.049797
1051,3398969355,0.562522,-0.312768,-0.716590,-0.268808,-0.162812,-0.006719,0.136894
1052,3399002689,0.561167,-0.316720,-0.714359,-0.272921,0.069414,0.379620,0.132030
1053,3399036023,0.559545,-0.320630,-0.712498,-0.276524,0.178673,0.524520,0.127883
1054,3399069357,0.558122,-0.323770,-0.711220,-0.279020,-0.043486,0.591984,0.215788
1055,3399102691,0.557424,-0.324986,-0.710878,-0.279872,0.019058,0.319168,0.323640
1056,3399136025,0.557227,-0.324863,-0.711186,-0.279627,0.018745,0.205039,0.183689
1057,3399169359,0.557227,-0.324023,-0.711885,-0.278821,-0.010954,-0.163183,0.156017
1058,3399202693,0.557848,-0.322460,-0.712574,-0.277629,0.002350,-0.174494,0.139030
1059,3399236027,0.558239,-0.321174,-0.713289,-0.276496,0.048135,-0.357776,0.257215
1060,3399269361,0.558667,-0.320403,-0.713497,-0.275987,0.033831,-0.330173,0.115185
1061,3399302695,0.559123,-0.319911,-0.713668,-0.275192,-0.324449,-0.190827,0.139899
1062,3399336029,0.559746,-0.318763,-0.714368,-0.273436,-0.357641,-0.122517,0.072574
1063,3399369363,0.560661,-0.316311,-0.715818,-0.270603,-0.243842,0.160542,0.195864
1064,3399402697,0.561606,-0.312775,-0.718007,-0.266928,-0.133541,0.314389,0.123468
1065,3399436031,0.562792,-0.308023,-0.720803,-0.262382,-0.010038,0.470497,0.146203
1066,3399469365,0.564135,-0.302165,-0.724130,-0.257094,-0.009279,0.540203,0.312234
1067,3399502699,0.565688,-0.295410,-0.727846,-0.250966,0.027168,0.380882,0.190532
1068,3399536033,0.567007,-0.288286,-0.731995,-0.244116,0.220547,0.214412,0.150646
1069,3399569367,0.567626,-0.281310,-0.736602,-0.236848,-0.025753,-0.271791,0.183611
1070,3399602701,0.567433,-0.275239,-0.741487,-0.229074,-0.335383,-0.616923,0.025706
1071,3399636035,0.567752,-0.269329,-0.745972,-0.220590,-1.064176,-0.696710,0.159178
1072,3399669369,0.568270,-0.262158,-0.751110,-0.210218,-0.350718,-0.538904,0.145620
1073,3399702703,0.569110,-0.252766,-0.756654,-0.199281,0.097896,0.143665,0.116872
1074,3399736037,0.569862,-0.242676,-0.762510,-0.186970,0.013231,0.294629,0.149315
1075,3399769371,0.570555,-0.232689,-0.767833,-0.175414,0.401553,0.649307,0.401981
1076,3399802705,0.571419,-0.225199,-0.771168,-0.167571,0.717006,0.559222,0.195858
1077,3399836039,0.571811,-0.221360,-0.772805,-0.163761,0.625219,-0.136547,0.120309
1078,3399869373,0.571572,-0.220711,-0.773409,-0.162619,0.193729,-0.709839,0.175832
1079,3399902707,0.570983,-0.221927,-0.773420,-0.162982,0.221170,-0.630495,0.185595
1080,3399936041,0.570181,-0.225205,-0.772540,-0.165445,0.337469,-0.277497,0.357726
1081,3399969375,0.569100,-0.231747,-0.770167,-0.171103,0.452448,0.205355,0.260622
1082,3400002709,0.567706,-0.240952,-0.766376,-0.179818,0.300802,0.030160,0.199707
1083,3400036043,0.566204,-0.250957,-0.761868,-0.189749,-0.252122,-0.101288,0.144068
1084,3400069377,0.564844,-0.259853,-0.757529,-0.198978,-0.590207,-0.192564,0.155247
1085,3400102711,0.564169,-0.266221,-0.753775,-0.206588,-0.218673,-0.051322,0.262190
1086,3400136045,0.563656,-0.271297,-0.750573,-0.212942,-0.206884,-0.113586,0.169042
1087,3400169379,0.563279,-0.275901,-0.747479,-0.218826,0.027015,-0.089513,0.134934
1088,3400202713,0.563028,-0.280604,-0.744116,-0.224872,0.137862,0.026224,0.185306
1089,3400236047,0.562406,-0.285851,-0.740722,-0.230942,0.252066,-0.369958,0.211484
1090,3400269381,0.561807,-0.292021,-0.736605,-0.237746,0.047433,-0.378063,0.154876
1091,3400302715,0.561137,-0.298586,-0.732225,-0.244605,0.200129,-0.249557,0.120106
1092,3400336049,0.560372,-0.305289,-0.727805,-0.251191,0.002724,-0.106284,0.146002
1093,3400369383,0.559265,-0.311196,-0.724350,-0.256342,-0.320252,0.034050,0.082707
1094,3400402717,0.558214,-0.315624,-0.722007,-0.259805,-0.042545,0.291060,0.083245
1095,3400436051,0.557092,-0.319207,-0.720226,-0.262764,0.111142,0.311608,0.170283
1096,3400469385,0.556418,-0.322131,-0.718600,-0.265066,0.123621,0.508093,0.210690
1097,3400502719,0.555973,-0.324262,-0.717556,-0.266229,-0.084378,0.455919,0.217377
1098,3400536053,0.555847,-0.325414,-0.717053,-0.266438,-0.134903,0.260346,0.133787
1099,3400569387,0.555833,-0.325535,-0.717270,-0.265737,-0.334916,0.198279,0.132051
1100,3400602721,0.556104,-0.324224,-0.718342,-0.263868,-0.173581,0.140201,0.069732
1101,3400636055,0.556718,-0.322032,-0.719877,-0.261060,-0.055817,0.273028,0.156652
1102,3400669389,0.557374,-0.319299,-0.721837,-0.257582,-0.265373,0.200940,0.135611
1103,3400702723,0.557774,-0.316325,-0.724002,-0.254289,0.210538,0.078675,0.251847
1104,3400736057,0.558068,-0.313597,-0.725901,-0.251594,-0.006322,0.018255,0.222612
1105,3400769391,0.558451,-0.310887,-0.727573,-0.249269,0.332894,-0.058099,0.220985
1106,3400802725,0.558793,-0.308980,-0.728552,-0.248010,0.176739,0.144643,0.167326
1107,3400836059,0.559189,-0.307331,-0.729320,-0.246905,-0.044659,-0.346017,0.092952
1108,3400869393,0.559604,-0.306134,-0.729931,-0.245644,-0.076905,-0.489636,0.118827
1109,3400902727,0.559858,-0.305128,-0.730973,-0.243205,-0.455632,-0.469057,0.021399
1110,3400936061,0.560246,-0.303306,-0.732677,-0.239436,-0.335011,0.033531,0.046790
1111,3400969395,0.560525,-0.299721,-0.735754,-0.233796,-0.477338,0.254878,0.198791
1112,3401002729,0.561067,-0.293801,-0.739954,-0.226646,0.007509,0.707502,0.183817
1113,3401036063,0.561928,-0.285936,-0.744898,-0.218221,0.080710,0.893435,0.245142
1114,3401069397,0.562919,-0.277390,-0.749749,-0.209925,0.279754,0.544490,0.238218
1115,3401102731,0.563873,-0.269403,-0.754035,-0.202277,-0.058314,-0.010742,0.244050
1116,3401136065,0.564499,-0.262031,-0.758291,-0.194143,-0.524557,-0.481463,0.075871
1117,3401169399,0.564878,-0.253289,-0.763343,-0.184609,-0.772261,-0.905248,0.131126
1118,3401202733,0.565598,-0.242448,-0.768980,-0.173217,-0.659700,-0.408338,0.143975
1119,3401236067,0.566333,-0.230592,-0.774710,-0.161041,0.043917,-0.163565,0.295650
1120,3401269401,0.567272,-0.219913,-0.779192,-0.150718,0.302753,0.199201,0.165434
1121,3401302735,0.567139,-0.212465,-0.782864,-0.142659,0.214364,0.233974,0.177363
1122,3401336069,0.566390,-0.207803,-0.785543,-0.137690,0.453131,0.363933,0.294128
1123,3401369403,0.565525,-0.205069,-0.787249,-0.135580,0.335169,0.387052,0.259052
1124,3401402737,0.564890,-0.203700,-0.788129,-0.135180,0.051131,-0.046230,0.148327
1125,3401436071,0.564237,-0.202856,-0.788801,-0.135258,0.112931,-0.229878,0.288677
1126,3401469405,0.563832,-0.202731,-0.788971,-0.136137,-0.051289,-0.135422,0.079653
1127,3401502739,0.563584,-0.203251,-0.788750,-0.137660,0.159384,-0.027109,0.217225
1128,3401536073,0.563329,-0.204334,-0.788180,-0.140341,-0.068613,-0.081801,0.270793
1129,3401569407,0.563725,-0.206684,-0.786400,-0.145214,0.369089,0.080669,0.197787
1130,3401602741,0.563913,-0.211123,-0.783628,-0.152880,0.429109,-0.060585,0.309472
1131,3401636075,0.563591,-0.217272,-0.780237,-0.162493,0.265914,-0.421329,0.269106
1132,3401669409,0.563049,-0.223956,-0.776637,-0.172246,-0.079479,-0.640924,0.087775
1133,3401702743,0.562154,-0.230292,-0.773357,-0.181336,-0.208839,-0.767301,-0.030617
1134,3401736077,0.561260,-0.236321,-0.770090,-0.190043,-0.089635,-0.428729,0.091260
1135,3401769411,0.560230,-0.242480,-0.766748,-0.198642,0.036290,-0.226629,0.210228
1136,3401802745,0.559379,-0.248635,-0.763187,-0.206969,0.358195,0.317981,0.232754
1137,3401836079,0.558407,-0.255372,-0.759400,-0.215160,0.500807,0.442294,0.204465
1138,3401869413,0.557134,-0.262972,-0.755271,-0.223672,0.507074,0.232371,0.245326
1139,3401902747,0.555559,-0.270142,-0.751440,-0.231802,0.054368,0.034180,0.250564
1140,3401936081,0.554465,-0.275742,-0.748222,-0.238147,-0.367933,-0.025640,0.250635
1141,3401969415,0.553661,-0.279995,-0.745673,-0.242999,-0.609493,0.158243,0.316853
1142,3402002749,0.552900,-0.282671,-0.744111,-0.246401,-0.251596,0.050233,-0.018191
1143,3402036083,0.552269,-0.284188,-0.743250,-0.248659,0.107897,0.137818,0.107539
1144,3402069417,0.551602,-0.285666,-0.742518,-0.250625,0.052641,0.018063,0.000426
1145,3402102751,0.551493,-0.286987,-0.741658,-0.251899,0.027929,0.051938,0.297884
1146,3402136085,0.551700,-0.287397,-0.741133,-0.252524,-0.354680,0.001930,0.037873
1147,3402169419,0.552011,-0.286767,-0.741323,-0.252002,-0.301702,-0.190480,0.056787
1148,3402202753,0.552430,-0.285862,-0.741839,-0.250588,-0.260068,0.039251,0.185652
1149,3402236087,0.552856,-0.284330,-0.742788,-0.248572,-0.179521,0.108522,0.140839
1150,3402269421,0.553619,-0.282235,-0.743751,-0.246371,-0.298099,0.210085,0.190145
1151,3402302755,0.554220,-0.279884,-0.745077,-0.243683,0.044769,0.046142,0.090370
1152,3402336089,0.554634,-0.277766,-0.746405,-0.241085,0.108738,-0.082864,0.073743
1153,3402369423,0.554743,-0.276346,-0.747422,-0.239310,0.567353,-0.092445,0.361100
1154,3402402757,0.554930,-0.275979,-0.747615,-0.238697,0.425046,-0.060200,0.302879
1155,3402436091,0.555105,-0.276153,-0.747649,-0.237979,0.487427,-0.349056,0.398238
1156,3402469425,0.555598,-0.277500,-0.746776,-0.238005,0.486235,-0.096892,0.267744
1157,3402502759,0.556201,-0.279093,-0.745754,-0.237937,0.175377,-0.055419,0.241177
1158,3402536093,0.556838,-0.280506,-0.744926,-0.237380,0.035757,-0.002007,-0.063806
1159,3402569427,0.557324,-0.281430,-0.744774,-0.235615,-0.347351,0.033897,0.123226
1160,3402602761,0.557770,-0.281356,-0.745299,-0.232973,-0.463073,-0.033140,0.239143
1161,3402636095,0.558419,-0.280036,-0.746358,-0.229597,-0.087175,0.062063,0.209638
1162,3402669429,0.559186,-0.277815,-0.747995,-0.225052,0.104910,-0.019433,0.184504
1163,3402702763,0.560051,-0.275330,-0.749740,-0.220097,0.048252,0.027867,0.159507
1164,3402736097,0.561111,-0.272253,-0.751454,-0.215327,0.264604,-0.162788,0.319849
1165,3402769431,0.562700,-0.268763,-0.752790,-0.210850,-0.051895,-0.300057,-0.011657
1166,3402802765,0.564104,-0.264670,-0.754539,-0.205969,0.025432,-0.541226,0.256438
1167,3402836099,0.565870,-0.260975,-0.755719,-0.201466,0.236586,-0.001616,0.542957
1168,3402869433,0.568036,-0.259695,-0.755107,-0.199304,0.201079,0.299022,-0.075049
1169,3402902767,0.568875,-0.261542,-0.753796,-0.199463,0.201710,0.102177,0.072284
1170,3402936101,0.568709,-0.264187,-0.752787,-0.200257,-0.208735,0.381473,0.188940
1171,3402969435,0.568737,-0.266336,-0.751939,-0.200517,-0.478028,0.475646,0.143345
1172,3403002769,0.569239,-0.266817,-0.751561,-0.199868,-0.299802,0.374097,0.203818
1173,3403036103,0.569614,-0.265719,-0.752211,-0.197805,-0.207947,0.082040,-0.103354
1174,3403069437,0.569407,-0.264350,-0.753628,-0.194824,-0.014608,-0.007089,0.258009
1175,3403102771,0.569283,-0.264080,-0.754252,-0.193130,0.227599,0.093475,0.355823
1176,3403136105,0.569108,-0.265757,-0.753590,-0.193929,0.239850,-0.025429,0.177266
1177,3403169439,0.568752,-0.268891,-0.752208,-0.196005,0.121666,-0.158601,0.122064
1178,3403202773,0.568028,-0.273139,-0.750490,-0.198798,-0.106658,-0.206497,0.178125
1179,3403236107,0.566997,-0.277835,-0.748606,-0.202307,-0.139143,-0.080978,0.185095
1180,3403269441,0.566025,-0.282049,-0.746849,-0.205663,-0.026604,0.064021,0.128589
1181,3403302775,0.565244,-0.286042,-0.745028,-0.208878,0.040375,0.052645,0.201606
1182,3403336109,0.564591,-0.289904,-0.743235,-0.211684,0.006029,0.066496,0.200273
1183,3403369443,0.563868,-0.293878,-0.741328,-0.214798,-0.059661,0.046719,0.109897
1184,3403402777,0.563088,-0.297824,-0.739402,-0.218023,-0.173132,-0.136828,0.132816
1185,3403436111,0.562535,-0.301091,-0.737775,-0.220458,-0.199227,-0.190132,0.188044
1186,3403469445,0.562072,-0.303656,-0.736527,-0.222287,0.080933,-0.217055,0.238090
1187,3403502779,0.561662,-0.306309,-0.734957,-0.224866,0.145367,-0.167622,0.184579
1188,3403536113,0.561337,-0.309787,-0.732699,-0.228255,0.254829,-0.069963,0.130186
1189,3403569447,0.560747,-0.313961,-0.730224,-0.231905,-0.061587,-0.077182,0.122781
1190,3403602781,0.560112,-0.317406,-0.728285,-0.234831,-0.340216,0.012850,0.147392
1191,3403636115,0.559922,-0.318865,-0.727463,-0.235852,-0.303206,0.283186,0.199408
1192,3403669449,0.560001,-0.318844,-0.727535,-0.235472,-0.052902,0.294138,0.128780
1193,3403702783,0.560127,-0.318307,-0.728064,-0.234257,0.017278,0.309818,0.154015
1194,3403736117,0.560331,-0.317260,-0.728951,-0.232427,-0.014912,0.260502,0.187476
1195,3403769451,0.560327,-0.316317,-0.729865,-0.230848,0.341175,0.117817,0.155636
1196,3403802785,0.560187,-0.316233,-0.730256,-0.230062,-0.218561,-0.054523,0.159051
1197,3403836119,0.559884,-0.316121,-0.730784,-0.229277,-0.203440,-0.110055,0.111229
1198,3403869453,0.559932,-0.314640,-0.732211,-0.226628,-0.320886,0.094513,0.164112
1199,3403902787,0.560240,-0.311355,-0.734764,-0.222100,-0.206048,0.296980,0.192942
1200,3403936121,0.560774,-0.306247,-0.738256,-0.216193,-0.044032,0.345027,0.174883
1201,3403969455,0.561377,-0.300515,-0.742106,-0.209383,-0.019989,0.283054,0.210750
1202,3404002789,0.561999,-0.294355,-0.746088,-0.202192,-0.075985,0.044665,0.178025
1203,3404036123,0.562900,-0.287343,-0.750046,-0.194998,-0.340063,-0.011512,0.223202
1204,3404069457,0.563945,-0.279559,-0.754075,-0.187618,-0.257394,0.128146,0.136668
1205,3404102791,0.565050,-0.271055,-0.758332,-0.179430,-0.182914,0.029417,0.342556
1206,3404136125,0.566016,-0.263083,-0.761913,-0.172965,-0.284895,-0.058935,0.189364
1207,3404169459,0.566822,-0.255376,-0.765166,-0.167429,-0.333956,0.018019,0.021406
1208,3404202793,0.567368,-0.245688,-0.769538,-0.159869,-0.524979,-0.197677,0.173516
1209,3404236127,0.568383,-0.234233,-0.774044,-0.151486,-0.095841,-0.226911,0.286502
1210,3404269461,0.568904,-0.224789,-0.777785,-0.144517,0.204564,-0.344154,0.184380
1211,3404302795,0.569001,-0.217780,-0.780641,-0.139373,0.831564,-0.498278,0.242279
1212,3404336129,0.569660,-0.213341,-0.781838,-0.136815,0.656157,-0.032459,0.161256
1213,3404369463,0.570417,-0.211312,-0.781895,-0.136482,0.783335,0.258622,0.238526
1214,3404402797,0.571596,-0.212479,-0.780056,-0.140213,1.155442,0.838512,0.190516
1215,3404436131,0.573389,-0.212554,-0.777926,-0.144545,-0.943044,0.192189,0.084440
1216,3404469465,0.574760,-0.209988,-0.777459,-0.145360,-0.563502,-0.068910,0.301421
1217,3404502799,0.576111,-0.207073,-0.776950,-0.146910,-1.135023,-0.204085,0.422686
1218,3404536133,0.576810,-0.202801,-0.777238,-0.148594,-0.844866,-0.504323,0.187023
1219,3404569467,0.577710,-0.199091,-0.776928,-0.151702,-0.316392,-0.478977,0.090099
1220,3404602801,0.578711,-0.197140,-0.775646,-0.156904,0.038488,-0.739746,0.141972
1221,3404636135,0.579101,-0.198093,-0.773350,-0.165370,0.645186,-0.768877,0.287459
1222,3404669469,0.579847,-0.202097,-0.768993,-0.177766,0.791155,-0.415949,0.261838
1223,3404702803,0.580197,-0.209235,-0.762909,-0.193850,0.512058,-0.461254,0.048574
1224,3404736137,0.581223,-0.217906,-0.754512,-0.213131,0.241633,0.413798,0.460715
1225,3404769471,0.581595,-0.227623,-0.745413,-0.233047,0.028230,0.210795,0.516064
1226,3404802805,0.578634,-0.237982,-0.738599,-0.251067,-0.754252,-1.314642,-0.158131
1227,3404836139,0.575707,-0.247451,-0.732570,-0.265870,-1.208463,-1.040633,-0.188219
1228,3404869473,0.574090,-0.255087,-0.726287,-0.279061,-0.970902,-0.832820,0.188181
1229,3404902807,0.573021,-0.260518,-0.720442,-0.291132,-0.327813,-0.205970,0.268909
1230,3404936141,0.571947,-0.263386,-0.716748,-0.299654,0.075409,0.320704,0.173149
1231,3404969475,0.570198,-0.266454,-0.714055,-0.306624,0.266260,0.420762,0.066380
1232,3405002809,0.567800,-0.271701,-0.710558,-0.314493,0.677815,0.546007,0.404099
1233,3405036143,0.565665,-0.276982,-0.706970,-0.321736,0.506543,0.488800,0.207600
1234,3405069477,0.564428,-0.280744,-0.703826,-0.327489,-0.368400,0.006837,-0.026543
1235,3405102811,0.564101,-0.281957,-0.701551,-0.331865,0.072253,-0.010432,0.225171
1236,3405136145,0.564096,-0.282187,-0.699112,-0.336785,0.810924,0.438835,0.107082
1237,3405169479,0.564299,-0.285059,-0.694345,-0.343818,1.082458,0.557699,0.394063
1238,3405202813,0.564852,-0.290839,-0.686970,-0.352766,1.288857,1.070533,0.827232
1239,3405236147,0.565038,-0.296675,-0.680241,-0.360563,0.684400,0.881757,0.143713
1240,3405269481,0.565955,-0.300470,-0.676789,-0.362473,-1.527224,0.080821,-0.311747
1241,3405302815,0.566073,-0.300371,-0.680104,-0.356109,-2.872942,-1.114012,-1.126625
1242,3405336149,0.564352,-0.301341,-0.686138,-0.346313,-1.681388,-2.647673,-0.843060
1243,3405369483,0.564156,-0.300844,-0.687529,-0.344299,0.497461,0.330659,0.870737
1244,3405402817,0.566260,-0.293749,-0.690539,-0.340930,2.313046,1.938962,0.464955
1245,3405436151,0.568242,-0.288741,-0.694396,-0.334007,2.051768,0.880442,1.062264
1246,3405469485,0.570489,-0.287918,-0.693433,-0.332885,2.255116,1.441313,1.288906
1247,3405502819,0.572004,-0.287922,-0.690022,-0.337341,2.858505,1.319582,1.319072
1248,3405536153,0.572948,-0.288496,-0.685076,-0.345236,1.507269,0.484657,0.323866
1249,3405569487,0.574206,-0.281608,-0.685705,-0.347575,0.025382,0.076939,-0.535858
1250,3405602821,0.578420,-0.272933,-0.689337,-0.340248,-4.052610,-1.401449,-2.594051
1251,3405636155,0.575729,-0.270700,-0.696894,-0.331080,-4.404867,-2.454077,-1.121812
1252,3405669489,0.575279,-0.272197,-0.700735,-0.322413,-2.990431,-2.427091,-1.147621
1253,3405702823,0.579755,-0.271606,-0.704763,-0.305679,-3.483903,0.029319,0.345070
1254,3405736157,0.585270,-0.264968,-0.712353,-0.282525,0.367633,-0.743928,3.191388
1255,3405769491,0.589890,-0.243133,-0.726300,-0.255777,6.500643,1.547636,-0.167763
1256,3405802825,0.591134,-0.227478,-0.738986,-0.229633,1.646587,0.531900,-0.111066
1257,3405836159,0.589713,-0.225515,-0.746522,-0.210005,0.010751,-1.424088,0.572098
1258,3405869493,0.591603,-0.225184,-0.748372,-0.198125,-1.873498,-0.917567,0.134395
1259,3405902827,0.590252,-0.224181,-0.752971,-0.185467,-0.433694,-0.792948,0.099716
1260,3405936161,0.588553,-0.219498,-0.759762,-0.167941,1.522853,-0.993656,0.235894
1261,3405969495,0.589815,-0.212327,-0.764184,-0.151906,0.591812,0.875392,0.333472
1262,3406002829,0.593139,-0.204353,-0.766325,-0.138524,-0.219559,1.329030,-0.179848
1263,3406036163,0.594816,-0.198992,-0.768056,-0.129239,-1.328145,0.765282,0.221932
1264,3406069497,0.595005,-0.194820,-0.770141,-0.122121,-0.124583,0.439292,0.564787
1265,3406102831,0.595228,-0.192513,-0.771314,-0.117191,-0.431873,0.753611,0.377147
1266,3406136165,0.595224,-0.192313,-0.771853,-0.113948,-0.240825,0.811649,0.304875
1267,3406169499,0.595470,-0.193914,-0.771336,-0.113447,-0.508080,0.214510,0.274106
1268,3406202833,0.596156,-0.195171,-0.770467,-0.113598,-0.444476,0.091627,0.232049
1269,3406236167,0.596160,-0.198127,-0.769516,-0.114898,0.355819,0.034562,0.199176
1270,3406269501,0.594912,-0.203676,-0.768555,-0.118048,-0.110130,-1.396691,0.155727
1271,3406302835,0.594075,-0.209888,-0.766836,-0.122481,-0.127328,-0.774246,0.136230
1272,3406336169,0.593677,-0.217251,-0.763985,-0.129204,0.343750,0.227278,0.145106
1273,3406369503,0.592825,-0.226436,-0.760418,-0.138082,-0.177602,0.348182,0.164719
1274,3406402837,0.591512,-0.236186,-0.756586,-0.148068,-0.351033,0.460687,0.347668
1275,3406436171,0.589777,-0.245886,-0.752729,-0.158487,-0.329440,0.234611,0.290567
1276,3406469505,0.587979,-0.254685,-0.749088,-0.168226,-0.297899,-0.648826,0.077928
1277,3406502839,0.586475,-0.261450,-0.746126,-0.176080,-0.314322,-0.707718,0.137554
1278,3406536173,0.585387,-0.267062,-0.743458,-0.182445,0.032294,-0.330213,0.225727
1279,3406569507,0.584272,-0.272421,-0.740879,-0.188489,0.197935,-0.033297,0.089364
1280,3406602841,0.582977,-0.278768,-0.737825,-0.195082,0.293776,0.265980,0.107078
1281,3406636175,0.581428,-0.285488,-0.734778,-0.201384,-0.013303,0.286184,0.070364
1282,3406669509,0.580093,-0.290810,-0.732345,-0.206423,-0.114073,0.507047,0.155148
1283,3406702843,0.579304,-0.294412,-0.730596,-0.209700,-0.065058,0.500017,0.203232
1284,3406736177,0.578705,-0.296393,-0.729716,-0.211622,-0.106444,0.492160,0.035936
1285,3406769511,0.578135,-0.296924,-0.729835,-0.212025,-0.041483,0.232378,0.098289
1286,3406802845,0.577883,-0.296442,-0.730549,-0.210923,0.183185,0.285973,0.108505
1287,3406836179,0.577513,-0.296002,-0.731347,-0.209784,0.226962,0.093773,0.193013
1288,3406869513,0.577333,-0.295872,-0.731816,-0.208828,0.033900,0.057858,0.232335
1289,3406902847,0.577163,-0.296123,-0.731992,-0.208325,-0.139982,-0.022357,0.183130
1290,3406936181,0.576859,-0.295418,-0.732671,-0.207780,-0.160267,0.001100,0.154891
1291,3406969515,0.576949,-0.293509,-0.733831,-0.206135,-0.080592,0.015801,0.221894
1292,3407002849,0.577276,-0.290903,-0.735276,-0.203751,-0.019311,0.207298,0.084046
1293,3407036183,0.577751,-0.287214,-0.737341,-0.200142,-0.195923,0.414385,0.273989
1294,3407069517,0.578583,-0.281924,-0.739958,-0.195549,-0.027649,0.627647,0.292497
1295,3407102851,0.580115,-0.274580,-0.742804,-0.190610,0.019083,0.789620,0.250299
1296,3407136185,0.581875,-0.266982,-0.745250,-0.186446,0.407575,0.659511,0.498799
1297,3407169519,0.583632,-0.262048,-0.746063,-0.184694,0.951148,0.342718,0.397650
1298,3407202853,0.584896,-0.261665,-0.744672,-0.186838,0.380904,-0.900052,-0.198234
1299,3407236187,0.585245,-0.261208,-0.744575,-0.186771,-0.588192,-1.597100,-0.255720
1300,3407269521,0.585550,-0.258239,-0.746598,-0.181803,-0.885847,-1.652720,0.089911
1301,3407302855,0.586469,-0.253318,-0.749199,-0.174937,-0.763637,-1.090364,0.095929
1302,3407336189,0.586822,-0.248719,-0.752223,-0.167201,0.146382,-0.270019,0.255839
1303,3407369523,0.586580,-0.246420,-0.754564,-0.160787,0.834172,0.752096,0.038173
1304,3407402857,0.586250,-0.244882,-0.756635,-0.154480,0.444709,0.558799,0.316291
1305,3407436191,0.586454,-0.243615,-0.757952,-0.149159,0.093843,1.168166,0.299382
1306,3407469525,0.586865,-0.241745,-0.759095,-0.144711,-0.134030,0.808752,0.225453
1307,3407502859,0.587342,-0.239277,-0.760118,-0.141467,0.001839,0.109403,0.256637
1308,3407536193,0.587663,-0.237765,-0.760848,-0.138738,0.202959,-0.053226,0.057354
1309,3407569527,0.588113,-0.237316,-0.760870,-0.137473,0.189622,0.194686,0.078891
1310,3407602861,0.588617,-0.238041,-0.760209,-0.137715,0.166776,-0.131064,0.369779
1311,3407636195,0.588179,-0.240369,-0.759542,-0.139214,0.118252,-0.470333,0.107190
1312,3407669529,0.586558,-0.245301,-0.758696,-0.142043,-0.325060,-0.625693,0.089539
1313,3407702863,0.584798,-0.250379,-0.758066,-0.143787,-0.764865,-0.684532,0.116096
1314,3407736197,0.582758,-0.253995,-0.758284,-0.144575,-0.385517,-0.175146,0.206199
1315,3407769531,0.580915,-0.256541,-0.758809,-0.144741,-0.201347,0.158235,0.146634
1316,3407802865,0.579068,-0.259538,-0.759000,-0.145796,0.084086,0.239976,0.260092
1317,3407836199,0.577378,-0.263233,-0.758530,-0.148296,0.261319,0.045823,0.238113
1318,3407869533,0.576337,-0.267176,-0.757173,-0.152181,0.245189,-0.266420,0.370894
1319,3407902867,0.576028,-0.271464,-0.754790,-0.157507,0.253955,-0.301412,0.350786
1320,3407936201,0.575704,-0.276528,-0.751803,-0.164033,0.071420,-0.574631,0.239676
1321,3407969535,0.575169,-0.282392,-0.748405,-0.171297,0.030089,-0.622678,0.130508
1322,3408002869,0.574404,-0.288644,-0.744841,-0.178811,-0.104234,-0.453599,0.170856
1323,3408036203,0.573522,-0.294322,-0.741695,-0.185342,-0.251617,-0.337125,0.129683
1324,3408069537,0.572450,-0.299149,-0.739301,-0.190425,-0.450620,-0.147528,0.090978
1325,3408102871,0.571402,-0.302682,-0.737786,-0.193834,-0.383010,0.209984,0.125443
1326,3408136205,0.570463,-0.305056,-0.736971,-0.195967,-0.247392,0.423535,0.029112
1327,3408169539,0.570015,-0.305780,-0.736838,-0.196645,-0.179347,0.489103,0.105960
1328,3408202873,0.570209,-0.304855,-0.737177,-0.196247,0.103436,0.519172,0.197540
1329,3408236207,0.570599,-0.303374,-0.737696,-0.195457,0.194941,0.365301,0.139807
1330,3408269541,0.570821,-0.302204,-0.738219,-0.194646,-0.043894,-0.014290,0.178751
1331,3408302875,0.570975,-0.301063,-0.738811,-0.193711,-0.111037,-0.221558,0.181153
1332,3408336209,0.570991,-0.300063,-0.739515,-0.192528,-0.215423,-0.309141,0.020456
1333,3408369543,0.570697,-0.299027,-0.740622,-0.190747,-0.421172,-0.259324,-0.059382
1334,3408402877,0.569845,-0.297024,-0.743013,-0.187090,-0.521833,-0.220670,0.180756
1335,3408436211,0.568884,-0.293599,-0.746516,-0.181389,-0.232250,-0.140367,0.198276
1336,3408469545,0.568094,-0.289148,-0.750397,-0.174883,-0.083225,0.110519,0.130134
1337,3408502879,0.567671,-0.283620,-0.754430,-0.167817,0.067786,0.325265,0.215720
1338,3408536213,0.567397,-0.277691,-0.758358,-0.160805,0.271575,0.444484,0.282134
1339,3408569547,0.567358,-0.271826,-0.761864,-0.154260,0.279543,0.503225,0.250776
1340,3408602881,0.567335,-0.266205,-0.765038,-0.148326,0.100961,0.272229,0.215995
1341,3408636215,0.567401,-0.260426,-0.768084,-0.142471,-0.083625,0.041195,0.215247
1342,3408669549,0.567629,-0.254211,-0.771134,-0.136176,-0.280205,-0.115011,0.181329
1343,3408702883,0.568032,-0.246863,-0.774436,-0.129093,-0.294894,-0.208547,0.165460
1344,3408736217,0.568572,-0.238445,-0.778008,-0.120789,-0.205562,-0.232709,0.207375
1345,3408769551,0.568756,-0.230301,-0.781613,-0.112141,0.169139,-0.103297,0.253404
1346,3408802885,0.568793,-0.223555,-0.784540,-0.104941,0.248687,0.101584,0.176900
1347,3408836219,0.568664,-0.217925,-0.786948,-0.099296,0.254908,0.154512,0.187054
1348,3408869553,0.568328,-0.213149,-0.789109,-0.094310,0.043917,0.100422,0.285920
1349,3408902887,0.567952,-0.209136,-0.790915,-0.090345,-0.171825,0.123461,0.114911
1350,3408936221,0.567603,-0.205457,-0.792486,-0.087160,-0.167056,0.101863,0.180632
1351,3408969555,0.567520,-0.201959,-0.793710,-0.084701,-0.026109,0.120638,0.272809
1352,3409002889,0.567703,-0.198771,-0.794577,-0.082866,0.020714,0.020023,0.164062
1353,3409036223,0.568241,-0.196541,-0.794798,-0.082382,0.230690,0.119504,0.123882
1354,3409069557,0.568858,-0.196956,-0.793979,-0.084991,0.415718,-0.035163,0.185674
1355,3409102891,0.568860,-0.200757,-0.792364,-0.090950,0.439190,-0.494905,0.142784
1356,3409136225,0.568011,-0.207134,-0.790390,-0.098791,0.129740,-0.822162,0.148314
1357,3409169559,0.566946,-0.214854,-0.787949,-0.107532,0.054773,-0.767838,0.126088
1358,3409202893,0.565579,-0.223087,-0.785392,-0.116317,-0.306777,-0.529243,0.136863
1359,3409236227,0.564217,-0.230918,-0.782960,-0.123806,-0.022850,-0.202876,0.195583
1360,3409269561,0.562866,-0.239171,-0.780129,-0.131888,0.107759,0.108033,0.141847
1361,3409302895,0.561982,-0.247794,-0.776511,-0.140791,0.448649,0.110103,0.326488
1362,3409336229,0.561538,-0.257131,-0.771830,-0.151178,0.399534,0.078191,0.397768
1363,3409369563,0.561294,-0.266988,-0.766322,-0.162586,0.421958,-0.052269,0.240901
1364,3409402897,0.561244,-0.277141,-0.760128,-0.174412,0.152424,-0.170850,0.262855
1365,3409436231,0.560797,-0.287699,-0.753560,-0.186816,0.164473,-0.102042,0.176198
1366,3409469565,0.559932,-0.297928,-0.747097,-0.198944,-0.249115,-0.155391,0.128544
1367,3409502899,0.559158,-0.306859,-0.741227,-0.209237,-0.332307,0.035023,0.106823
1368,3409536233,0.557846,-0.314488,-0.736556,-0.217730,-0.272796,0.176511,0.064375
1369,3409569567,0.556387,-0.320068,-0.733339,-0.224099,-0.518960,0.479642,0.082185
1370,3409602901,0.555541,-0.322690,-0.731828,-0.227356,-0.350152,0.771844,0.046625
1371,3409636235,0.555454,-0.322462,-0.731915,-0.227612,-0.272383,0.720449,0.167092
1372,3409669569,0.555643,-0.320595,-0.733022,-0.226222,0.118111,0.374761,0.152929
1373,3409702903,0.556069,-0.317966,-0.734612,-0.223713,-0.197418,0.133689,0.072495
1374,3409736237,0.556994,-0.314134,-0.736681,-0.219987,-0.030281,0.062568,0.142099
1375,3409769571,0.558073,-0.309649,-0.739014,-0.215748,-0.037969,0.047901,0.126209
1376,3409802905,0.558946,-0.305475,-0.741296,-0.211569,0.147302,0.054848,0.240035
1377,3409836239,0.559716,-0.301919,-0.743188,-0.207969,0.154024,0.073052,0.194474
1378,3409869573,0.560461,-0.298520,-0.745028,-0.204256,0.180222,-0.129440,0.234435
1379,3409902907,0.560887,-0.295607,-0.746838,-0.200679,0.006680,-0.226157,0.104152
1380,3409936241,0.560981,-0.292974,-0.748719,-0.197240,-0.015192,-0.116499,0.153386
1381,3409969575,0.560886,-0.290065,-0.751021,-0.193010,-0.173580,-0.060637,0.214503
1382,3410002909,0.560828,-0.286215,-0.753891,-0.187667,-0.318664,-0.036736,0.127410
1383,3410036243,0.560814,-0.281104,-0.757424,-0.181092,-0.521520,-0.011313,0.033625
1384,3410069577,0.560744,-0.274738,-0.761603,-0.173387,-0.457382,0.022706,0.117489
1385,3410102911,0.560531,-0.267382,-0.766224,-0.165011,-0.278063,0.044417,0.060287
1386,3410136245,0.560413,-0.259251,-0.770976,-0.156011,-0.189114,-0.222718,0.217733
1387,3410169579,0.560613,-0.250632,-0.775486,-0.146748,-0.332732,-0.189316,0.198782
1388,3410202913,0.560931,-0.241581,-0.779828,-0.137403,-0.138863,-0.208879,0.334674
1389,3410236247,0.561628,-0.231764,-0.783951,-0.127655,0.014124,-0.112507,0.237772
1390,3410269581,0.562426,-0.222493,-0.787478,-0.118611,0.253182,0.089641,0.313978
1391,3410302915,0.563153,-0.215101,-0.790024,-0.111665,0.479477,0.349692,0.214161
1392,3410336249,0.563620,-0.209949,-0.791683,-0.107281,0.357938,0.369812,0.181634
1393,3410369583,0.563787,-0.206423,-0.792879,-0.104371,0.208176,0.329272,0.278755
1394,3410402917,0.563895,-0.204395,-0.793507,-0.103000,-0.096224,0.247791,0.202472
1395,3410436251,0.564091,-0.203651,-0.793489,-0.103539,0.113398,0.234601,0.253021
1396,3410469585,0.564403,-0.203533,-0.793094,-0.105080,-0.084230,-0.020687,0.135690
1397,3410502919,0.564666,-0.202763,-0.792984,-0.105985,-0.025739,-0.235504,0.205802
1398,3410536253,0.565157,-0.202259,-0.792574,-0.107386,-0.082073,-0.242949,0.052592
1399,3410569587,0.565558,-0.202876,-0.791744,-0.110203,0.232400,-0.328011,0.206678
1400,3410602921,0.565820,-0.205060,-0.790343,-0.114771,0.531240,-0.354276,0.244609
1401,3410636255,0.565966,-0.208481,-0.788558,-0.120053,0.439316,-0.456193,0.177296
1402,3410669589,0.565623,-0.213377,-0.786529,-0.126220,0.340812,-0.495797,0.160121
1403,3410702923,0.565075,-0.219143,-0.784245,-0.132832,0.011079,-0.444065,0.199318
1404,3410736257,0.564205,-0.225393,-0.781948,-0.139448,0.137239,-0.274144,0.096794
1405,3410769591,0.563113,-0.231666,-0.779715,-0.145931,0.070848,-0.157410,0.037960
1406,3410802925,0.562209,-0.238135,-0.777196,-0.152304,0.203849,-0.031345,0.259074
1407,3410836259,0.561355,-0.245433,-0.774136,-0.159293,0.171212,0.234270,0.271451
1408,3410869593,0.559960,-0.253339,-0.770957,-0.167052,0.068492,0.117588,0.156058
1409,3410902927,0.558395,-0.260465,-0.768214,-0.173835,-0.199434,0.004857,0.140116
1410,3410936261,0.557344,-0.265488,-0.766090,-0.178907,-0.189068,-0.043036,0.269193
1411,3410969595,0.557412,-0.268455,-0.764099,-0.182740,-0.154817,0.019875,0.207911
1412,3411002929,0.557939,-0.270923,-0.761937,-0.186478,0.002617,-0.072241,0.175331
1413,3411036263,0.558390,-0.273703,-0.759560,-0.190716,0.081491,-0.266489,0.182739
1414,3411069597,0.558621,-0.277384,-0.756824,-0.195540,0.218350,-0.356621,0.186939
1415,3411102931,0.558822,-0.282031,-0.753533,-0.200951,0.026276,-0.230189,0.164919
1416,3411136265,0.558972,-0.286994,-0.749964,-0.206775,-0.061648,-0.140062,0.214043
1417,3411169599,0.558907,-0.291810,-0.746634,-0.212190,-0.172229,-0.026275,0.175607
1418,3411202933,0.558565,-0.296472,-0.743611,-0.217183,-0.126654,0.152792,0.050170
1419,3411236267,0.558202,-0.300693,-0.740869,-0.221640,-0.086558,0.282396,0.143799
1420,3411269601,0.557846,-0.304436,-0.738419,-0.225566,0.000734,0.414303,0.224889
1421,3411302935,0.557499,-0.307408,-0.736473,-0.228735,-0.066450,0.506129,0.195814
1422,3411336269,0.557048,-0.309541,-0.735335,-0.230612,0.067720,0.580952,0.068300
1423,3411369603,0.556670,-0.310965,-0.734688,-0.231669,-0.079170,0.528470,0.013348
1424,3411402937,0.556489,-0.311448,-0.734465,-0.232160,0.025548,0.346407,0.295979
1425,3411436271,0.556450,-0.311052,-0.734822,-0.231656,0.208113,0.109101,0.129935
1426,3411469605,0.556846,-0.310187,-0.735139,-0.230854,0.144475,-0.108330,0.239687
1427,3411502939,0.557625,-0.309617,-0.734865,-0.230616,0.239542,-0.323444,0.342506
1428,3411536273,0.558303,-0.310170,-0.733826,-0.231536,0.166984,-0.538893,0.112473
1429,3411569607,0.558777,-0.311560,-0.732484,-0.232775,0.059135,-0.443785,0.027228
1430,3411602941,0.559140,-0.313102,-0.731289,-0.233589,-0.108233,-0.034813,0.102126
1431,3411636275,0.559323,-0.313707,-0.731126,-0.232848,-0.473792,0.276259,0.196685
1432,3411669609,0.559518,-0.312388,-0.732517,-0.229759,-0.237404,0.318157,0.156852
1433,3411702943,0.560272,-0.309187,-0.734740,-0.225108,-0.037035,0.474809,0.180732
1434,3411736277,0.561765,-0.304453,-0.737152,-0.219894,0.198470,0.527822,0.210051
1435,3411769611,0.563846,-0.298347,-0.739281,-0.215750,-0.063588,0.344378,0.574362
1436,3411802945,0.565939,-0.292161,-0.740947,-0.213000,0.251368,0.247915,-0.021324
1437,3411836279,0.567617,-0.286292,-0.743072,-0.209069,-0.228118,0.051959,0.295359
1438,3411869613,0.568936,-0.280618,-0.745430,-0.204737,-0.525924,-0.370097,0.001402
1439,3411902947,0.569915,-0.273185,-0.749053,-0.198755,-0.700007,-0.506411,-0.036572
1440,3411936281,0.570612,-0.263965,-0.754260,-0.189300,-0.319887,-0.726876,0.129909
1441,3411969615,0.571543,-0.255856,-0.758829,-0.179087,-0.127698,-0.558869,0.130962
1442,3412002949,0.572069,-0.248725,-0.762893,-0.169955,0.231540,-0.371004,0.182858
1443,3412036283,0.572485,-0.243660,-0.765785,-0.162730,0.549549,-0.122521,0.172463
1444,3412069617,0.572540,-0.241512,-0.767529,-0.157438,0.127860,0.366134,0.166664
1445,3412102951,0.572528,-0.239724,-0.768891,-0.153518,0.248475,0.241724,0.248679
1446,3412136285,0.572868,-0.238129,-0.769694,-0.150685,-0.075809,0.279084,0.237975
1447,3412169619,0.573038,-0.236415,-0.770563,-0.148276,-0.075229,0.135649,0.290935
1448,3412202953,0.573251,-0.235224,-0.771038,-0.146867,0.187818,0.134767,0.097128
1449,3412236287,0.573525,-0.234437,-0.771196,-0.146232,0.133289,0.048334,0.136454
1450,3412269621,0.573411,-0.234706,-0.771216,-0.146138,0.122776,-0.153754,0.183117
1451,3412302955,0.573021,-0.236230,-0.770901,-0.146871,0.072421,-0.317647,0.173322
1452,3412336289,0.572718,-0.238930,-0.769827,-0.149300,0.076168,-0.160112,0.283390
1453,3412369623,0.572123,-0.242986,-0.768183,-0.153444,0.046189,-0.125104,0.068010
1454,3412402957,0.571010,-0.248009,-0.766536,-0.157733,0.125959,-0.060897,0.120966
