sep=,
DeviceTag:,D_Leg
FirmwareVersion:,2.2.1
AppVersion:,2023.6.0
SyncStatus:,Synced
OutputRate:,30Hz
FilterProfile:,General
Measurement Mode:,Sensor fusion Mode - Complete(Quaternion)
StartTime: ,2026-09-07_17:30:06_235 AEST
© Movella Technologies B. V. 2005-2026

PacketCounter,SampleTimeFine,Quat_W,Quat_X,Quat_Y,Quat_Z,FreeAcc_X,FreeAcc_Y,FreeAcc_Z
1,508866792,-0.656773,0.060319,0.750101,0.049057,-0.948856,-0.370626,0.151680
2,508900126,-0.654791,0.058273,0.752034,0.048406,-0.284136,-0.045013,0.593697
3,508933460,-0.656121,0.055343,0.751197,0.046831,0.247318,1.615046,-0.046245
4,508966794,-0.658288,0.054664,0.749215,0.048918,-0.212926,1.648559,0.387816
5,509000128,-0.663304,0.054170,0.744595,0.052135,-0.755812,1.294105,0.733953
6,509033462,-0.674043,0.050912,0.734955,0.054418,-0.686516,2.042605,0.540535
7,509066796,-0.687782,0.045196,0.722250,0.057573,0.042801,2.521788,0.342878
8,509100130,-0.699855,0.040420,0.710211,0.064941,0.473040,1.770898,0.403417
9,509133464,-0.709964,0.034921,0.699655,0.072526,-0.700758,1.206898,1.215312
10,509166798,-0.716458,0.021674,0.693601,0.071991,-0.275952,0.175146,0.616898
11,509200132,-0.722821,0.012423,0.687213,0.071836,0.680455,-2.055105,1.090181
12,509233466,-0.732133,0.005321,0.677360,0.071984,0.733841,-3.164810,0.353685
13,509266800,-0.738760,-0.001003,0.670273,0.070811,1.571380,-4.123938,-1.189512
14,509300134,-0.743582,-0.010810,0.665165,0.067612,1.562609,-3.338585,-1.201038
15,509333468,-0.748366,-0.022724,0.659837,0.063984,1.830489,-1.872389,-0.820442
16,509366802,-0.753573,-0.029938,0.653697,0.062913,1.877762,-0.708715,-1.223698
17,509400136,-0.756683,-0.027520,0.649752,0.067392,1.508976,0.054168,-0.842313
18,509433470,-0.754987,-0.018773,0.651284,0.074281,0.275044,1.553022,-1.428356
19,509466804,-0.750754,-0.004720,0.655503,0.081907,-0.083200,1.824677,-0.827903
20,509500138,-0.747229,0.016565,0.657826,0.093203,-0.434918,0.410272,0.714190
21,509533472,-0.744903,0.034541,0.658855,0.099415,-1.311687,0.489400,-0.180333
22,509566806,-0.741485,0.045915,0.661820,0.100659,-1.336255,1.098747,-0.167741
23,509600140,-0.736825,0.052685,0.666561,0.100277,-1.492850,0.852574,-0.337809
24,509633474,-0.728512,0.052226,0.676941,0.091322,-0.800995,-1.472448,0.183395
25,509666808,-0.722296,0.040429,0.686414,0.074408,-1.330599,1.819562,2.306944
26,509700142,-0.716478,0.029801,0.694239,0.062051,1.946989,3.258005,1.926274
27,509733476,-0.707449,0.021882,0.704597,0.051266,0.076553,1.552434,0.251032
28,509766810,-0.696501,0.017282,0.716481,0.035905,1.821859,0.313923,-0.582018
29,509800144,-0.690641,0.024052,0.722164,0.031023,1.765273,-0.995399,0.027654
30,509833478,-0.687824,0.032984,0.724606,0.028338,0.120629,-1.759551,-0.023394
31,509866812,-0.682410,0.040087,0.729441,0.025928,-0.413075,-2.277715,0.296770
32,509900146,-0.677153,0.045462,0.734051,0.024748,0.211888,-1.607163,0.286178
33,509933480,-0.673362,0.050520,0.737218,0.024238,0.358063,-0.697682,-0.090477
34,509966814,-0.668968,0.055788,0.740837,0.024032,0.537178,-0.506421,0.035295
35,510000148,-0.664773,0.062457,0.744071,0.024109,0.117077,-0.208014,0.395139
36,510033482,-0.661795,0.071078,0.745906,0.025419,-0.969466,0.132946,0.333914
37,510066816,-0.659343,0.079606,0.747097,0.028683,-0.780042,0.478413,0.245724
38,510100150,-0.657428,0.086104,0.747954,0.031396,-0.544891,0.401929,0.125654
39,510133484,-0.655352,0.089912,0.749317,0.031615,-0.279052,-0.290124,0.098036
40,510166818,-0.652381,0.093081,0.751522,0.031577,0.146473,-0.524525,-0.028031
41,510200152,-0.649173,0.096920,0.753780,0.032299,0.294762,-0.222496,0.055653
42,510233486,-0.645571,0.101931,0.756135,0.033976,-0.311717,0.318215,0.070642
43,510266820,-0.641707,0.106253,0.758809,0.034326,-0.459718,0.512874,0.069694
44,510300154,-0.637087,0.110745,0.761996,0.035549,-0.314342,0.709293,0.221859
45,510333488,-0.632396,0.114798,0.765258,0.036379,-0.461700,0.587793,0.008819
46,510366822,-0.627435,0.117873,0.768838,0.036958,-0.730051,0.588548,0.112635
47,510400156,-0.621622,0.120746,0.773050,0.038032,-0.527355,0.820366,-0.163083
48,510433490,-0.615245,0.124069,0.777491,0.040436,-0.612819,1.333033,0.034498
49,510466824,-0.608132,0.128699,0.782109,0.044310,-0.281059,1.436114,-0.006008
50,510500158,-0.600921,0.133638,0.786602,0.048353,-1.192261,1.390126,-0.236811
51,510533492,-0.595102,0.138384,0.789979,0.051805,-2.008055,1.688034,0.184795
52,510566826,-0.591378,0.141373,0.792121,0.053622,-2.045887,1.570487,0.995591
53,510600160,-0.589024,0.142340,0.793443,0.057314,-0.339090,1.297678,1.662308
54,510633494,-0.587786,0.142820,0.793436,0.067934,1.122011,2.062377,1.638785
55,510666828,-0.592637,0.137812,0.789507,0.080707,0.291633,3.426112,0.880662
56,510700162,-0.606939,0.119880,0.781238,0.083475,-1.119712,4.875107,-0.913455
57,510733496,-0.618536,0.102624,0.774989,0.079494,-0.834195,3.031740,-0.842750
58,510766830,-0.629148,0.092058,0.767532,0.081483,-1.772828,1.166048,-0.244652
59,510800164,-0.638786,0.086930,0.759317,0.088772,-2.180675,-1.034370,1.406152
60,510833498,-0.648379,0.084696,0.750493,0.096114,-0.997621,-3.165982,1.763232
61,510866832,-0.660261,0.080625,0.740214,0.098409,-0.032666,-3.423430,1.270858
62,510900166,-0.672744,0.073384,0.730204,0.094223,-0.458056,-3.032290,0.767602
63,510933500,-0.686284,0.060051,0.720069,0.083397,0.523381,-2.654525,0.455341
64,510966834,-0.700999,0.043341,0.708202,0.072241,0.950590,-1.977588,-0.082719
65,511000168,-0.715148,0.026018,0.695845,0.061089,1.044068,-1.954719,-0.173496
66,511033502,-0.729403,0.006941,0.682348,0.048698,1.822803,-1.587029,-0.342505
67,511066836,-0.743205,-0.010931,0.667878,0.038893,2.164274,-0.781516,-0.813780
68,511100170,-0.754750,-0.022126,0.654782,0.034209,2.026243,0.046030,-0.837263
69,511133504,-0.763848,-0.024028,0.644034,0.035016,1.842911,0.271457,-0.819054
70,511166838,-0.770236,-0.017877,0.636350,0.039010,0.905784,-0.302291,-1.215596
71,511200172,-0.773443,-0.006420,0.632275,0.044940,0.312417,-1.099528,-1.392152
72,511233506,-0.775085,0.008193,0.629664,0.052397,-0.166232,-0.503616,-0.974922
73,511266840,-0.776425,0.020329,0.627306,0.057314,-0.702841,0.326541,-0.810798
74,511300174,-0.775971,0.029960,0.627300,0.059265,-0.959412,0.409763,-0.362859
75,511333508,-0.775386,0.038332,0.627485,0.060139,-1.159778,0.902515,0.321036
76,511366842,-0.773794,0.041552,0.629439,0.058047,-1.268300,1.387228,-0.305434
77,511400176,-0.769426,0.037141,0.635628,0.051262,-0.163996,-0.210185,-0.683814
78,511433510,-0.758535,0.031234,0.649546,0.042255,2.363697,-1.837390,1.867632
79,511466844,-0.754870,0.020422,0.654882,0.030495,0.595316,2.725573,4.842945
80,511500178,-0.749402,0.012444,0.661669,0.021956,1.898533,1.440058,1.376835
81,511533512,-0.741025,0.008528,0.671320,0.013608,1.119920,0.112600,-0.934971
82,511566846,-0.735032,0.016035,0.677783,0.011288,-0.387577,-1.078839,-1.540626
83,511600180,-0.732634,0.025268,0.680104,0.010673,1.099433,-0.842266,-0.704441
84,511633514,-0.729551,0.029221,0.683286,0.008302,0.145301,0.036949,0.301447
85,511666848,-0.720063,0.027699,0.693389,-0.000463,0.384215,-1.655015,-0.141472
86,511700182,-0.709108,0.029655,0.704500,-0.003502,0.722143,-1.721923,0.039512
87,511733516,-0.701524,0.031775,0.711948,-0.005636,0.249225,-0.958955,0.421403
88,511766850,-0.695931,0.035268,0.717227,-0.008226,0.530220,0.288129,0.009209
89,511800184,-0.690366,0.042847,0.722183,-0.007572,0.174961,0.477440,0.117665
90,511833518,-0.684118,0.052348,0.727500,-0.005759,-0.749358,-0.439235,-0.014023
91,511866852,-0.678312,0.060545,0.732299,-0.003393,-1.054385,-0.530936,0.211056
92,511900186,-0.671861,0.065866,0.737773,-0.001532,-0.718810,-0.587201,-0.140262
93,511933520,-0.664570,0.068748,0.744086,-0.001773,0.255174,-0.628226,-0.100521
94,511966854,-0.658080,0.070754,0.749644,-0.002121,0.280411,-0.453546,0.147765
95,512000188,-0.651377,0.072616,0.755300,-0.001857,0.095514,-0.267665,0.022735
96,512033522,-0.644041,0.074868,0.761343,-0.003093,0.446317,-0.223787,0.110085
97,512066856,-0.636690,0.081054,0.766878,-0.000871,0.465817,0.528456,0.224380
98,512100190,-0.629253,0.087823,0.772246,0.003220,0.021447,0.501484,-0.122186
99,512133524,-0.620924,0.093682,0.778258,0.006091,-0.480331,0.161681,0.129629
100,512166858,-0.613490,0.097942,0.783600,0.007340,-0.950583,0.575519,0.252501
101,512200192,-0.606291,0.100042,0.788905,0.008871,-1.769296,1.319876,-0.059059
102,512233526,-0.597769,0.100751,0.795281,0.009825,-1.540020,1.670516,0.031256
103,512266860,-0.588676,0.102550,0.801772,0.012339,-1.110960,2.368355,-0.091651
104,512300194,-0.581548,0.104210,0.806682,0.015929,-1.231823,3.047821,0.186751
105,512333528,-0.578216,0.104212,0.809008,0.018949,-1.832557,3.405922,1.798904
106,512366862,-0.580999,0.100450,0.807430,0.021301,-2.078958,3.689288,2.171228
107,512400196,-0.595829,0.089460,0.797749,0.025068,-2.377756,6.048061,1.697334
108,512433530,-0.617415,0.061253,0.784003,0.020815,-1.221691,5.720063,-3.395129
109,512466864,-0.629372,0.050033,0.775046,0.027166,-1.141448,2.531194,-0.328127
110,512500198,-0.642467,0.044200,0.764415,0.031610,-1.220852,-2.683689,1.769597
111,512533532,-0.652861,0.047379,0.754983,0.039691,-0.990658,-3.127982,3.532820
112,512566866,-0.666614,0.051333,0.742187,0.046862,1.059774,-3.161906,2.863690
113,512600200,-0.686182,0.048563,0.724367,0.046195,1.114761,-2.546513,1.889227
114,512633534,-0.706063,0.039371,0.705953,0.040026,1.414683,-2.026326,1.010367
115,512666868,-0.723696,0.028699,0.688664,0.035053,2.314908,-2.330038,-0.846663
116,512700202,-0.739705,0.016127,0.672046,0.031264,2.142870,-2.727547,-1.964895
117,512733536,-0.753267,-0.001615,0.657262,0.025304,2.885539,-3.285053,-2.579006
118,512766870,-0.763852,-0.022732,0.644734,0.019436,3.871418,-2.305245,-2.593105
119,512800204,-0.773085,-0.034648,0.633117,0.018651,2.902348,0.038685,-2.373317
120,512833538,-0.782226,-0.034167,0.621659,0.023281,0.151804,-1.204148,-1.321651
121,512866872,-0.791940,-0.030734,0.609320,0.025725,-2.725710,-1.540636,-0.105315
122,512900206,-0.794383,-0.026846,0.606225,0.027803,-1.826861,3.028284,-0.972094
123,512933540,-0.791660,-0.028403,0.609755,0.026695,-2.166710,4.775346,1.948481
124,512966874,-0.780520,-0.037829,0.623755,0.018278,0.080677,-2.000107,-2.081580
125,513000208,-0.765180,-0.055453,0.641430,0.006176,4.248565,-2.266555,5.650988
126,513033542,-0.757821,-0.065328,0.649202,-0.004896,2.278447,-0.545996,-3.515604
127,513066876,-0.753395,-0.060243,0.654756,-0.010382,2.377484,-2.471121,0.188578
128,513100210,-0.748979,-0.046542,0.660900,-0.011006,2.271497,-2.819873,0.270111
129,513133544,-0.742993,-0.037061,0.668212,-0.011298,0.588476,-1.714668,0.284012
130,513166878,-0.736035,-0.036394,0.675781,-0.017181,0.624417,0.168016,-0.114920
131,513200212,-0.730295,-0.034974,0.681907,-0.022261,0.351862,0.393894,0.382365
132,513233546,-0.725388,-0.026904,0.687534,-0.020757,-0.955065,-0.730538,-0.071472
133,513266880,-0.719914,-0.014756,0.693724,-0.017303,-0.623143,-0.940863,0.271638
134,513300214,-0.712909,-0.000941,0.701176,-0.012611,0.318408,-0.488327,0.051185
135,513333548,-0.705401,0.011466,0.708713,-0.007103,0.024023,-0.664685,-0.037679
136,513366882,-0.697650,0.017987,0.716220,-0.006036,-0.810388,-1.810163,0.059936
137,513400216,-0.690027,0.017905,0.723516,-0.010621,-0.158473,-1.422136,0.110711
138,513433550,-0.682868,0.017325,0.730233,-0.014060,-0.092886,0.329248,0.121339
139,513466884,-0.674791,0.020259,0.737617,-0.014648,-0.183406,1.266290,-0.061401
140,513500218,-0.664619,0.027828,0.746578,-0.013225,-0.516470,1.325572,-0.076302
141,513533552,-0.653239,0.037450,0.756177,-0.010951,-0.144544,0.450972,0.262642
142,513566886,-0.641900,0.045615,0.765430,-0.006864,-0.732562,0.072126,0.424118
143,513600220,-0.631843,0.050383,0.773476,-0.004188,-1.726350,0.480120,0.034870
144,513633554,-0.622353,0.052712,0.780975,-0.004813,-1.836847,1.114746,0.055562
145,513666888,-0.612161,0.054862,0.788846,-0.004084,-1.384323,1.824089,0.274483
146,513700222,-0.601679,0.057909,0.796665,-0.000036,-1.204903,2.370610,0.185310
147,513733556,-0.594625,0.060354,0.801751,0.004477,-2.290227,2.767881,1.156034
148,513766890,-0.592860,0.061490,0.802953,0.007028,-1.848724,4.558664,1.799220
149,513800224,-0.602178,0.056950,0.796253,0.012847,-2.678898,7.723626,2.195605
150,513833558,-0.615233,0.044207,0.786820,0.022258,1.839599,4.643384,-1.944556
151,513866892,-0.626293,0.044469,0.777342,0.039570,-1.841122,0.909424,-0.103594
152,513900226,-0.636076,0.044687,0.768732,0.050079,-2.508002,-2.226119,1.498466
153,513933560,-0.645163,0.044915,0.760670,0.056350,-0.757247,-3.225402,2.077979
154,513966894,-0.658399,0.043917,0.748965,0.060656,0.264601,-2.641400,1.122309
155,514000228,-0.672704,0.043283,0.736110,0.061519,0.560522,-3.311919,1.473034
156,514033562,-0.688279,0.039577,0.722023,0.058618,0.907232,-2.439294,1.904836
157,514066896,-0.704517,0.034216,0.706925,0.052811,1.062611,-1.815371,0.230603
158,514100230,-0.719611,0.026736,0.692403,0.045491,1.410779,-1.948964,-0.421576
159,514133564,-0.734698,0.012467,0.677436,0.034524,2.340949,-1.519819,-1.130500
160,514166898,-0.748372,-0.006266,0.662813,0.025005,2.751664,-0.885896,-1.722239
161,514200232,-0.759612,-0.022218,0.649696,0.020904,3.568490,-0.390725,-1.545983
162,514233566,-0.769751,-0.022545,0.637391,0.027465,2.556710,-0.312033,-1.895147
163,514266900,-0.778019,-0.008873,0.626963,0.039635,0.764579,-1.326534,-1.959942
164,514300234,-0.782757,0.009908,0.620296,0.049732,-0.345853,-1.967787,-1.874524
165,514333568,-0.784833,0.025938,0.616636,0.056311,-1.158229,-1.735615,-1.582615
166,514366902,-0.785992,0.035615,0.614491,0.058275,-1.936851,0.379042,-0.207060
167,514400236,-0.784533,0.035432,0.616640,0.055274,-1.132336,2.405043,-0.080517
168,514433570,-0.782016,0.030652,0.620331,0.052412,-1.511707,3.181177,1.118119
169,514466904,-0.778035,0.023892,0.626060,0.046757,-1.228173,2.332033,-0.005713
170,514500238,-0.767701,0.016437,0.639563,0.037027,3.952005,-1.891894,0.800040
171,514533572,-0.761690,0.010524,0.647271,0.028378,0.469806,0.398391,8.033970
172,514566906,-0.759318,0.002740,0.650538,0.016570,2.822218,1.113212,-0.264830
173,514600240,-0.746990,-0.002033,0.664820,0.007885,2.618799,-1.547549,-2.434814
174,514633574,-0.737654,0.009200,0.675088,0.009171,0.641944,-2.850209,-2.363538
175,514666908,-0.732086,0.024601,0.680694,0.012102,0.178246,-2.615727,0.008583
176,514700242,-0.726191,0.031066,0.686746,0.010413,-0.220880,-0.354512,0.955336
177,514733576,-0.713464,0.030721,0.700036,0.004556,0.633608,-1.184032,0.093021
178,514766910,-0.701917,0.033800,0.711487,0.001976,0.284731,-1.286730,0.153775
179,514800244,-0.694778,0.041844,0.718032,0.003083,-0.602552,0.082720,0.083447
180,514833578,-0.687224,0.052746,0.724532,0.006362,-0.856703,0.344527,0.182427
181,514866912,-0.679627,0.062616,0.730854,0.009221,-0.676268,0.530465,0.202941
182,514900246,-0.672499,0.068838,0.736851,0.010124,-0.775047,0.315902,-0.146662
183,514933580,-0.664698,0.071057,0.743699,0.009252,-0.992549,-0.394989,-0.115945
184,514966914,-0.657480,0.070328,0.750188,0.006230,-0.173797,-0.422502,0.043605
185,515000248,-0.648762,0.070762,0.757704,0.005673,0.690306,-0.054176,0.047526
186,515033582,-0.639063,0.074510,0.765530,0.007484,0.658323,0.179816,0.142283
187,515066916,-0.630596,0.079737,0.771985,0.008767,-0.126840,0.427303,0.136484
188,515100250,-0.621630,0.085254,0.778615,0.010609,-0.321933,0.584150,0.379731
189,515133584,-0.611429,0.089328,0.786144,0.014122,-1.356931,0.516592,-0.095077
190,515166918,-0.602188,0.089909,0.793154,0.015495,-2.317507,1.086102,-0.045760
191,515200252,-0.592707,0.088390,0.800427,0.015784,-1.728143,2.119381,-0.001639
192,515233586,-0.583500,0.087651,0.807182,0.018673,-0.859922,3.572697,0.450623
193,515266920,-0.580136,0.086664,0.809565,0.024135,-1.141448,4.843200,0.620995
194,515300254,-0.586380,0.084139,0.805038,0.032253,-2.092255,6.317880,2.271972
195,515333588,-0.611362,0.063387,0.788083,0.034494,-3.312731,13.667467,-0.349622
196,515366922,-0.619506,0.060889,0.780439,0.058878,0.734753,2.373683,0.749847
197,515400256,-0.630124,0.069994,0.768442,0.087109,-3.208053,-3.746631,1.764063
198,515433590,-0.640813,0.077044,0.756976,0.102262,-3.382651,-4.847260,2.556978
199,515466924,-0.654615,0.072447,0.745716,0.100917,-1.466048,-4.064797,1.279326
200,515500258,-0.670328,0.059779,0.734234,0.089632,0.317892,-3.404635,0.486542
201,515533592,-0.685800,0.043931,0.722658,0.074567,1.313387,-1.943453,1.185189
202,515566926,-0.701177,0.028618,0.709653,0.063009,3.210296,-1.262040,0.132177
203,515600260,-0.717904,0.013803,0.693882,0.054756,2.699075,-1.458612,-0.574939
204,515633594,-0.733726,-0.003631,0.677922,0.045848,2.889091,-1.633222,-0.982177
205,515666928,-0.746962,-0.023903,0.663375,0.038157,3.415352,-1.242558,-1.390444
206,515700262,-0.757280,-0.040805,0.650867,0.035798,3.482901,-0.358516,-1.614712
207,515733596,-0.765652,-0.042468,0.640512,0.042004,2.225247,-0.165654,-1.390390
208,515766930,-0.773257,-0.031247,0.631211,0.052128,0.313638,-1.164171,-2.116772
209,515800264,-0.777969,-0.020262,0.625335,0.057932,-0.977354,-2.377776,-1.956710
210,515833598,-0.781604,-0.017247,0.621040,0.056153,-1.834264,-1.509191,-0.799581
211,515866932,-0.783898,-0.026921,0.618328,0.049968,-0.803698,2.132892,-0.420143
212,515900266,-0.784584,-0.044545,0.617091,0.041111,-2.117670,3.894063,2.110313
213,515933600,-0.784926,-0.059797,0.615882,0.032426,-1.677127,1.322502,-0.110469
214,515966934,-0.780522,-0.075970,0.620284,0.017534,1.689269,-2.402664,-2.294543
215,516000268,-0.773321,-0.090283,0.627588,0.001918,4.174031,-0.130597,8.199524
216,516033602,-0.777859,-0.101564,0.620155,-0.008589,0.712725,2.025797,4.688440
217,516066936,-0.771756,-0.116391,0.624290,-0.033995,1.826559,-1.379283,-5.179066
218,516100270,-0.756577,-0.116882,0.641161,-0.053745,3.305109,-5.818849,-1.232393
219,516133604,-0.751110,-0.106906,0.649064,-0.056280,1.737683,-2.803928,-1.004025
220,516166938,-0.745611,-0.099893,0.656121,-0.060310,0.656670,-0.809683,0.052855
221,516200272,-0.735460,-0.092177,0.668092,-0.065589,-0.423594,0.215582,-0.180861
222,516233606,-0.721390,-0.084729,0.683680,-0.071035,-0.859222,0.323338,0.457743
223,516266940,-0.709941,-0.077905,0.695605,-0.078072,-1.173973,-0.153837,0.739889
224,516300274,-0.703556,-0.066846,0.703086,-0.079103,-0.820342,0.058548,0.801064
225,516333608,-0.699133,-0.055464,0.708694,-0.077048,-1.018619,0.045624,0.068292
226,516366942,-0.693277,-0.046261,0.715136,-0.076503,-0.853692,-0.429128,-0.090286
227,516400276,-0.687662,-0.040059,0.720809,-0.077444,-0.307376,-0.548908,0.053398
228,516433610,-0.682633,-0.037844,0.725358,-0.080513,0.009333,-1.074172,-0.038096
229,516466944,-0.676716,-0.037753,0.730330,-0.085410,0.433161,-1.023818,-0.018626
230,516500278,-0.670331,-0.035039,0.736027,-0.087968,0.574911,-0.366047,0.085424
231,516533612,-0.663567,-0.029209,0.742511,-0.086890,0.574783,-0.068021,0.069857
232,516566946,-0.655049,-0.021784,0.750442,-0.085555,0.669770,0.047931,0.268345
233,516600280,-0.645950,-0.013735,0.758732,-0.083261,-0.087979,-0.095827,0.109468
234,516633614,-0.636906,-0.007969,0.766430,-0.083176,-0.672816,-0.501749,0.191590
235,516666948,-0.628214,-0.005037,0.773380,-0.085164,-1.186338,-0.484582,-0.034681
236,516700282,-0.619332,-0.003784,0.780429,-0.085973,-1.418944,0.340801,0.017992
237,516733616,-0.608715,-0.003268,0.788777,-0.085639,0.036231,1.576541,0.453882
238,516766950,-0.598243,-0.000126,0.797092,-0.082434,0.494648,1.588639,0.110651
239,516800284,-0.589713,0.005184,0.803845,-0.078046,-0.087240,1.196766,0.104794
240,516833618,-0.581160,0.011563,0.810538,-0.072069,-1.372906,0.590897,-0.022041
241,516866952,-0.573269,0.017544,0.816654,-0.064637,-1.686230,1.481632,0.081690
242,516900286,-0.568405,0.022659,0.820468,-0.057282,-2.521587,2.240097,1.162075
243,516933620,-0.569225,0.023706,0.820305,-0.050668,-2.853780,3.081217,1.535190
244,516966954,-0.579001,0.015696,0.814007,-0.044177,-4.172659,4.996311,1.632137
245,517000288,-0.590713,-0.000979,0.805831,-0.041719,-0.523420,5.079705,-1.843256
246,517033622,-0.602055,-0.012496,0.797498,-0.037639,-1.417803,3.604432,-0.757095
247,517066956,-0.615642,-0.017242,0.787323,-0.029272,-1.623038,1.878841,0.000296
248,517100290,-0.626584,-0.012204,0.779191,-0.012284,-0.945846,-1.109687,2.834184
249,517133624,-0.643841,-0.007844,0.765149,0.001176,-0.840103,-1.925943,2.995493
250,517166958,-0.664050,-0.007756,0.747625,0.009008,-0.514997,-2.557992,2.696144
251,517200292,-0.684269,-0.016940,0.729042,0.005770,-0.530783,-1.944718,1.661536
252,517233626,-0.703083,-0.033764,0.710329,-0.003754,1.297163,-0.972115,0.459571
253,517266960,-0.720904,-0.048983,0.691278,-0.008948,1.289947,-1.171474,0.007054
254,517300294,-0.737468,-0.069581,0.671601,-0.017240,1.628265,-2.529955,-0.991134
255,517333628,-0.751638,-0.095940,0.652015,-0.027568,2.514875,-2.507009,-2.030335
256,517366962,-0.763082,-0.121223,0.633909,-0.034875,3.101158,-1.622575,-2.183344
257,517400296,-0.773337,-0.135570,0.618351,-0.035484,2.285845,-0.029462,-2.816007
258,517433630,-0.781514,-0.139018,0.607383,-0.032277,0.624280,-0.653247,-3.351234
259,517466964,-0.783735,-0.145280,0.602850,-0.035656,-0.158478,-3.107385,-2.096080
260,517500298,-0.782892,-0.166106,0.597564,-0.049520,-0.130352,-1.032057,-1.332910
261,517533632,-0.779992,-0.190663,0.592708,-0.063279,-3.147798,4.475614,2.005259
262,517566966,-0.774213,-0.209895,0.592176,-0.076890,-2.593013,2.278182,0.175707
263,517600300,-0.770111,-0.215409,0.593795,-0.089341,-0.355370,-0.114034,-1.063914
264,517633634,-0.765024,-0.222503,0.595168,-0.105132,2.934785,0.531491,3.215487
265,517666968,-0.762022,-0.247128,0.587157,-0.116375,-3.942973,8.826059,10.660271
266,517700302,-0.746620,-0.251399,0.602741,-0.126914,6.362556,-3.771596,-6.930892
267,517733636,-0.741118,-0.224964,0.620845,-0.121381,4.309960,-11.178981,-3.967841
268,517766970,-0.734973,-0.221895,0.626673,-0.133813,3.126730,-2.893677,0.095695
269,517800304,-0.723380,-0.229495,0.634258,-0.147701,1.249543,2.320733,0.816697
270,517833638,-0.715219,-0.226687,0.643180,-0.153104,-0.315969,-0.047786,0.256520
271,517866972,-0.706918,-0.223572,0.652297,-0.157598,-0.559140,-3.070353,0.113172
272,517900306,-0.698199,-0.222553,0.660649,-0.163028,0.574473,-2.327060,-0.110966
273,517933640,-0.691242,-0.217394,0.668941,-0.165799,1.053102,-0.600235,0.075968
274,517966974,-0.685936,-0.206151,0.678971,-0.161367,0.495129,0.761189,0.015945
275,518000308,-0.679477,-0.192939,0.691175,-0.152998,-0.245554,-0.743363,-0.295854
276,518033642,-0.670446,-0.188664,0.700885,-0.153995,-0.754756,-1.492702,0.164408
277,518066976,-0.661417,-0.193427,0.705836,-0.164181,-0.900420,-0.190499,0.276063
278,518100310,-0.653916,-0.197599,0.709965,-0.171300,-0.960510,1.014641,-0.219718
279,518133644,-0.645962,-0.195037,0.718207,-0.170052,-1.034440,-0.021310,-0.125308
280,518166978,-0.636443,-0.189089,0.729241,-0.165652,-0.249434,0.329263,0.476274
281,518200312,-0.627226,-0.182764,0.740011,-0.160048,-0.472529,0.229702,0.277371
282,518233646,-0.618390,-0.180272,0.748791,-0.156379,-1.375009,-0.371662,-0.211373
283,518266980,-0.608752,-0.182847,0.756091,-0.156080,-1.961165,-0.503559,-0.179265
284,518300314,-0.598540,-0.189112,0.762059,-0.159060,-2.167762,0.734190,0.250517
285,518333648,-0.590545,-0.196249,0.765611,-0.163186,-2.051751,1.891451,0.307970
286,518366982,-0.587539,-0.202793,0.765063,-0.168516,-3.826245,0.264693,2.375619
287,518400316,-0.585915,-0.207600,0.764802,-0.169501,-1.072717,3.049395,1.794697
288,518433650,-0.592407,-0.207139,0.762029,-0.159703,-0.417504,3.882370,-0.863855
289,518466984,-0.601363,-0.203888,0.758535,-0.146504,-1.533424,0.649197,-1.672919
290,518500318,-0.605885,-0.202469,0.757599,-0.134163,-2.113078,-2.625045,0.402755
291,518533652,-0.608677,-0.207426,0.754734,-0.130036,-1.711037,-3.350847,0.666062
292,518566986,-0.610428,-0.218707,0.748833,-0.137262,-1.400034,-2.843437,1.165738
293,518600320,-0.615738,-0.231077,0.738797,-0.147295,0.079453,-2.091344,1.460181
294,518633654,-0.623526,-0.242373,0.725516,-0.161686,0.543177,-2.039978,1.172780
295,518666988,-0.628720,-0.255557,0.711864,-0.180827,0.817510,-0.853840,0.679625
296,518700322,-0.633160,-0.271933,0.696132,-0.201512,1.359597,1.032475,0.900885
297,518733656,-0.640797,-0.286435,0.678504,-0.216824,1.108019,1.726160,0.500784
298,518766990,-0.651021,-0.299464,0.659612,-0.226828,1.164827,1.541103,0.836363
299,518800324,-0.662367,-0.310167,0.639906,-0.235868,1.543282,0.352343,0.728087
300,518833658,-0.675025,-0.318084,0.619876,-0.242825,1.659180,0.571010,-0.182646
301,518866992,-0.688860,-0.320569,0.602464,-0.244525,1.570583,0.341093,-0.774852
302,518900326,-0.702192,-0.318332,0.588454,-0.243639,1.355914,-0.375949,-1.262140
303,518933660,-0.713718,-0.314029,0.576694,-0.243849,1.321188,-0.899332,-1.646584
304,518966994,-0.721371,-0.309815,0.569059,-0.244657,1.597782,-1.396083,-1.962894
305,519000328,-0.724148,-0.308569,0.565143,-0.247092,1.712031,-2.057041,-1.740579
306,519033662,-0.725878,-0.309233,0.559359,-0.254244,-0.284872,-2.784701,-0.271715
307,519066996,-0.722727,-0.316942,0.553112,-0.267070,-0.148133,-0.366108,-1.365909
308,519100330,-0.716743,-0.326667,0.548104,-0.281420,-2.631843,-0.138212,0.441290
309,519133664,-0.711163,-0.334315,0.542989,-0.296126,-3.951756,-0.547789,-0.036303
310,519166998,-0.700531,-0.343875,0.541365,-0.313013,-1.310689,-1.025731,-1.463158
311,519200332,-0.682486,-0.355231,0.547414,-0.329255,4.499165,1.085734,-1.095094
312,519233666,-0.667775,-0.369208,0.553190,-0.334350,1.360090,4.790634,6.600327
313,519267000,-0.665195,-0.379863,0.550615,-0.331796,-1.251295,6.130026,2.983751
314,519300334,-0.650919,-0.394275,0.551885,-0.341058,3.218673,-2.119348,2.256742
315,519333668,-0.629688,-0.402450,0.558127,-0.360649,2.518477,0.466927,-3.831781
316,519367002,-0.623204,-0.391181,0.575207,-0.357461,3.395759,0.242318,-1.508907
317,519400336,-0.623644,-0.379455,0.587885,-0.348597,2.106280,-0.527544,-0.430563
318,519433670,-0.612691,-0.380434,0.596134,-0.352918,0.629379,-0.799213,0.798480
319,519467004,-0.597424,-0.381988,0.612192,-0.349909,1.347111,-2.467716,-0.426154
320,519500338,-0.588366,-0.380806,0.625748,-0.342487,0.068631,-2.065819,1.544662
321,519533672,-0.584664,-0.376615,0.633197,-0.339762,-2.576034,-0.843836,0.813184
322,519567006,-0.582295,-0.370529,0.641432,-0.335041,-3.601884,1.377692,-0.377138
323,519600340,-0.577138,-0.366026,0.651102,-0.330228,-1.106915,-0.747924,-0.061889
324,519633674,-0.569229,-0.366737,0.655239,-0.334949,0.838488,-1.009691,0.344536
325,519667008,-0.563589,-0.367220,0.659163,-0.336257,0.723435,-1.096602,-0.412513
326,519700342,-0.557570,-0.367319,0.666049,-0.332593,1.024114,-0.349312,-0.001531
327,519733676,-0.551231,-0.366048,0.674529,-0.327430,-0.253799,1.230591,0.036644
328,519767010,-0.543642,-0.364322,0.683836,-0.322704,-1.324919,0.390029,-0.113910
329,519800344,-0.535181,-0.363441,0.691315,-0.321904,-1.128565,-1.014363,-0.013031
330,519833678,-0.530345,-0.363988,0.695225,-0.320866,-1.397908,-0.191766,-0.957694
331,519867012,-0.526197,-0.365750,0.701034,-0.312956,-2.346675,-1.054194,0.362578
332,519900346,-0.520195,-0.369607,0.703810,-0.312227,-1.617897,-0.019611,-0.302504
333,519933680,-0.513317,-0.373891,0.707448,-0.310282,-1.684416,-0.405970,-0.260175
334,519967014,-0.505018,-0.378488,0.712262,-0.307299,-1.598697,-0.589945,0.448863
335,520000348,-0.499684,-0.383558,0.713602,-0.306623,-2.646329,-0.442320,0.201332
336,520033682,-0.501837,-0.392033,0.706961,-0.307771,-5.979762,-1.449253,0.112512
337,520067016,-0.505136,-0.409684,0.689425,-0.318961,-5.599785,-0.072922,2.413849
338,520100350,-0.513881,-0.426239,0.668574,-0.327571,-5.634034,2.569645,2.708140
339,520133684,-0.534839,-0.432254,0.645040,-0.333278,-2.859943,0.950999,1.105890
340,520167018,-0.558521,-0.427355,0.630187,-0.329140,1.238414,-2.468342,0.218287
341,520200352,-0.573462,-0.421888,0.625113,-0.320052,4.525022,-4.121830,2.392915
342,520233686,-0.586650,-0.418865,0.617121,-0.315597,4.864131,-3.365210,1.327765
343,520267020,-0.596200,-0.419699,0.602245,-0.325185,5.208936,-3.998889,0.127087
344,520300354,-0.599134,-0.429955,0.578077,-0.349357,3.420142,-4.032746,0.283865
345,520333688,-0.594274,-0.449392,0.549067,-0.378757,3.051946,-1.675630,-0.754743
346,520367022,-0.583983,-0.469414,0.522269,-0.407304,3.056764,-0.684554,-1.209346
347,520400356,-0.570118,-0.490186,0.492435,-0.438450,2.650551,0.643030,-0.382910
348,520433690,-0.556886,-0.510461,0.458341,-0.468271,1.750980,1.573475,-0.238508
349,520467024,-0.545950,-0.528714,0.423283,-0.493233,0.181065,2.231984,-0.425957
350,520500358,-0.539967,-0.538394,0.394160,-0.513081,-1.162497,1.497000,0.162115
351,520533692,-0.541195,-0.534835,0.376337,-0.528656,-0.298884,-0.583520,-0.106244
352,520567026,-0.540964,-0.527131,0.364306,-0.544812,1.847602,-1.284513,-0.137527
353,520600360,-0.534307,-0.524927,0.347347,-0.564238,1.884871,-0.194599,-0.743788
354,520633694,-0.524073,-0.529160,0.328454,-0.580950,1.323366,0.431651,-1.368943
355,520667028,-0.511418,-0.538084,0.311829,-0.593066,0.859888,0.861341,-1.471966
356,520700362,-0.499319,-0.547687,0.298631,-0.601320,0.095416,0.926050,-0.906423
357,520733696,-0.486608,-0.555718,0.285147,-0.610842,0.341743,0.036937,-0.580706
358,520767030,-0.466386,-0.566346,0.266966,-0.624910,0.392329,-0.917856,-0.145719
359,520800364,-0.440903,-0.578680,0.245524,-0.640702,-0.100172,-1.162452,-0.070231
360,520833698,-0.412447,-0.591566,0.226801,-0.654634,0.371723,-0.016536,-1.138342
361,520867032,-0.382978,-0.606990,0.216108,-0.661994,-1.028863,3.831141,-0.261073
362,520900366,-0.367690,-0.619657,0.207187,-0.661778,-5.372982,2.300007,8.506815
363,520933700,-0.370259,-0.618126,0.203599,-0.662890,-2.893864,-0.748249,2.543903
364,520967034,-0.358654,-0.623511,0.201558,-0.664847,2.401769,2.572573,-2.448049
365,521000368,-0.329296,-0.632185,0.198779,-0.672636,4.958348,3.447266,-2.225981
366,521033702,-0.318856,-0.632165,0.214354,-0.672902,3.346228,6.216672,-1.519821
367,521067036,-0.324764,-0.631162,0.229454,-0.666004,1.416897,3.171513,0.158463
368,521100370,-0.316442,-0.640810,0.232035,-0.659874,1.602002,-0.478875,0.024628
369,521133704,-0.299415,-0.656034,0.230848,-0.653243,-0.079550,-0.022347,0.493167
370,521167038,-0.287613,-0.664071,0.232762,-0.649736,-0.052912,-1.658885,0.411802
371,521200372,-0.281115,-0.669532,0.239367,-0.644555,-0.491638,-1.768828,0.373000
372,521233706,-0.277814,-0.673498,0.248610,-0.638326,-0.718569,-0.913940,0.503919
373,521267040,-0.273563,-0.674919,0.254448,-0.636357,0.812375,-1.871870,0.493348
374,521300374,-0.265187,-0.676530,0.255933,-0.637595,1.400730,-1.301018,0.554687
375,521333708,-0.257508,-0.678100,0.253272,-0.640133,1.071302,-0.266192,0.042065
376,521367042,-0.253435,-0.679283,0.249625,-0.641934,0.469028,0.750832,-0.047971
377,521400376,-0.249540,-0.682480,0.247970,-0.640710,0.182614,1.715470,-0.279849
378,521433710,-0.243332,-0.686408,0.247063,-0.639250,0.206090,1.781249,0.007838
379,521467044,-0.237190,-0.688442,0.247601,-0.639163,-0.216130,1.215072,0.139942
380,521500378,-0.232791,-0.689362,0.247913,-0.639667,0.085260,0.692896,0.309398
381,521533712,-0.227923,-0.692091,0.247512,-0.638628,0.724665,0.599008,0.056640
382,521567046,-0.221806,-0.697412,0.246967,-0.635195,0.769343,0.905884,-0.036552
383,521600380,-0.216480,-0.702455,0.246184,-0.631770,0.391854,0.262814,0.026197
384,521633714,-0.210708,-0.706540,0.244000,-0.630011,0.375891,-0.708065,0.035782
385,521667048,-0.205788,-0.710737,0.241776,-0.627770,-0.035311,-0.756758,0.133472
386,521700382,-0.201523,-0.715339,0.240691,-0.624334,0.348776,-0.475106,0.181846
387,521733716,-0.196967,-0.719560,0.239815,-0.621268,-0.088367,-0.387435,0.335526
388,521767050,-0.194492,-0.723244,0.239843,-0.617749,0.175996,-0.643697,-0.284280
389,521800384,-0.190593,-0.728841,0.239687,-0.612424,0.892198,0.550558,-0.433962
390,521833718,-0.186677,-0.735524,0.239274,-0.605764,1.097913,-0.237974,1.113253
391,521867052,-0.183349,-0.741453,0.235265,-0.601106,1.566616,-2.220551,0.421474
392,521900386,-0.179207,-0.746802,0.229420,-0.597984,0.010544,-3.015150,0.951742
393,521933720,-0.182008,-0.746696,0.225280,-0.598844,-0.636686,-3.467598,0.679353
394,521967054,-0.187638,-0.742090,0.218445,-0.605329,0.097057,-2.730001,0.685586
395,522000388,-0.193650,-0.737080,0.210821,-0.612220,-0.884776,-1.501216,1.261556
396,522033722,-0.200831,-0.728466,0.196888,-0.624729,-1.216249,-3.072778,1.047926
397,522067056,-0.204286,-0.722559,0.175937,-0.636607,-0.463721,-1.787208,-1.598984
398,522100390,-0.210362,-0.717049,0.163462,-0.644140,1.833577,-1.449562,0.405691
399,522133724,-0.213118,-0.710040,0.149415,-0.654329,2.532125,0.382067,1.395930
400,522167058,-0.214304,-0.702403,0.138094,-0.664590,4.285863,2.699452,-0.058453
401,522200392,-0.206626,-0.697710,0.122703,-0.674905,3.493685,2.986638,-0.470582
402,522233726,-0.195407,-0.694018,0.107614,-0.684560,0.984708,3.271455,-0.401708
403,522267060,-0.181906,-0.689053,0.093064,-0.695343,0.753837,3.220968,-0.427957
404,522300394,-0.164186,-0.684633,0.073927,-0.706330,0.641547,3.024683,-0.010503
405,522333728,-0.140240,-0.680008,0.049938,-0.717966,0.465582,2.822134,-0.045009
406,522367062,-0.112923,-0.674409,0.024417,-0.729295,-0.109462,2.718030,0.158036
407,522400396,-0.084609,-0.668189,-0.002194,-0.739194,-1.304657,2.550952,0.100221
408,522433730,-0.055438,-0.661096,-0.029967,-0.747681,-2.448932,1.046548,0.237504
409,522467064,-0.029814,-0.653776,-0.051922,-0.754347,-2.377996,-0.840476,-0.100323
410,522500398,-0.011253,-0.648589,-0.063385,-0.758443,-1.668682,-1.444024,-0.282026
411,522533732,-0.000679,-0.646452,-0.065320,-0.760184,-1.557033,-1.421913,-0.359222
412,522567066,0.005946,-0.644742,-0.062187,-0.761874,-0.677673,-1.027554,0.068762
413,522600400,0.016235,-0.638168,-0.059010,-0.767491,1.080994,-0.374098,0.069712
414,522633734,0.029836,-0.633937,-0.054951,-0.770883,1.394578,0.713967,-1.417801
415,522667068,0.042714,-0.634051,-0.055982,-0.770109,1.130947,1.225955,-1.514098
416,522700402,0.055472,-0.638245,-0.061995,-0.765356,-0.127059,0.845839,-1.152351
417,522733736,0.065844,-0.647251,-0.077775,-0.755466,-3.854180,0.427454,2.481974
418,522767070,0.075508,-0.651911,-0.101503,-0.747700,-1.886819,-3.450215,3.171883
419,522800404,0.086869,-0.653342,-0.116737,-0.742978,0.596092,-0.620681,-1.168633
420,522833738,0.110977,-0.659343,-0.129590,-0.732260,0.253939,2.882598,-1.050506
421,522867072,0.117857,-0.669461,-0.129980,-0.721862,-3.209563,-0.066740,-0.076169
422,522900406,0.110767,-0.676106,-0.125835,-0.717512,-0.979642,-0.794292,0.989510
423,522933740,0.119282,-0.682006,-0.133227,-0.709181,0.703164,0.420101,-0.020158
424,522967074,0.129318,-0.688990,-0.141901,-0.698914,-0.186090,0.848693,-0.030684
425,523000408,0.130200,-0.694240,-0.144292,-0.693041,-0.152002,-0.334240,0.252029
426,523033742,0.127591,-0.700068,-0.144068,-0.687690,-0.119314,-0.834644,0.665869
427,523067076,0.127630,-0.705962,-0.142696,-0.681919,-0.506817,0.097085,0.172713
428,523100410,0.128509,-0.709639,-0.139030,-0.678687,0.003186,1.144551,0.299951
429,523133744,0.127503,-0.711588,-0.135130,-0.677623,0.368415,1.239668,0.041142
430,523167078,0.124820,-0.714544,-0.133049,-0.675420,0.299756,1.474134,-0.169024
431,523200412,0.123769,-0.717800,-0.134555,-0.671852,0.142586,1.375881,0.092042
432,523233746,0.124900,-0.720512,-0.138882,-0.667848,-0.111109,0.588594,0.128477
433,523267080,0.125421,-0.723569,-0.143293,-0.663500,-0.135664,0.074412,0.045570
434,523300414,0.124247,-0.726964,-0.146351,-0.659328,-0.063962,0.299684,-0.146627
435,523333748,0.123119,-0.731130,-0.148813,-0.654364,-0.221193,0.678050,0.035759
436,523367082,0.121859,-0.736269,-0.151104,-0.648284,-0.250112,0.801986,0.076187
437,523400416,0.117706,-0.741523,-0.152668,-0.642673,0.066129,0.524680,0.150740
438,523433750,0.111355,-0.746588,-0.154483,-0.637486,0.678080,0.569353,0.105869
439,523467084,0.104588,-0.751785,-0.156530,-0.632001,1.058177,0.791629,-0.018209
440,523500418,0.096433,-0.757001,-0.158483,-0.626562,1.140603,0.457280,0.106109
441,523533752,0.085380,-0.762088,-0.159407,-0.621747,1.217458,0.329027,0.218534
442,523567086,0.072181,-0.767975,-0.159408,-0.616149,0.893020,0.197950,0.505608
443,523600420,0.058375,-0.773884,-0.158618,-0.610396,0.864565,0.026433,0.811139
444,523633754,0.045298,-0.777419,-0.156155,-0.607643,1.103063,-0.707044,2.354145
445,523667088,0.030542,-0.776789,-0.150894,-0.610691,1.668934,-1.607505,1.533228
446,523700422,0.014836,-0.771755,-0.147213,-0.618506,1.361039,-1.662502,0.267304
447,523733756,0.000039,-0.764162,-0.145343,-0.628474,1.217762,-1.761010,0.329930
448,523767090,-0.005478,-0.754592,-0.147944,-0.639313,1.886016,-1.327206,-0.435829
449,523800424,-0.001148,-0.742823,-0.153892,-0.651595,2.271567,-0.901191,-0.403895
450,523833758,0.004728,-0.730811,-0.159697,-0.663655,2.602648,-0.482512,0.116732
451,523867092,0.013610,-0.725348,-0.167807,-0.667513,1.860929,1.062168,-0.221070
452,523900426,0.016970,-0.721561,-0.168777,-0.671284,-1.454889,2.989790,1.438292
453,523933760,0.028043,-0.709026,-0.171251,-0.683532,0.427348,3.103571,0.217766
454,523967094,0.055724,-0.696196,-0.180876,-0.692486,0.651584,2.950982,-0.056597
455,524000428,0.086585,-0.682997,-0.193923,-0.698898,-1.679151,-0.478252,0.602942
456,524033762,0.109012,-0.669139,-0.200763,-0.707185,-2.001355,-1.836955,-0.170881
457,524067096,0.123131,-0.655539,-0.201086,-0.717439,-2.163408,-1.112364,0.175747
458,524100430,0.134031,-0.642020,-0.196761,-0.728819,-1.610173,-0.227025,0.036036
459,524133764,0.142981,-0.630020,-0.189580,-0.739417,-1.705106,-0.513577,-0.450128
460,524167098,0.148601,-0.621647,-0.178888,-0.748010,-1.409352,-1.225263,-0.966212
461,524200432,0.152153,-0.617260,-0.166297,-0.753811,-1.315855,-1.249275,-1.350270
462,524233766,0.152239,-0.617232,-0.148435,-0.757537,-1.378955,-0.324855,-1.642365
463,524267100,0.151028,-0.618845,-0.127470,-0.760276,-0.644166,-0.211064,-1.040197
464,524300434,0.153799,-0.618754,-0.111536,-0.762297,-0.398733,-0.657347,-0.008865
465,524333768,0.159803,-0.618370,-0.100707,-0.762880,0.081088,-1.372075,-0.126194
466,524367102,0.162803,-0.622300,-0.094345,-0.759858,0.846134,-0.628810,-0.109335
467,524400436,0.165294,-0.625455,-0.103013,-0.755592,-0.874712,0.046831,3.578894
468,524433770,0.176302,-0.629327,-0.128881,-0.745856,-2.044544,0.524839,3.301517
469,524467104,0.200044,-0.627240,-0.159762,-0.735578,-0.301743,-0.386427,-2.062230
470,524500438,0.211497,-0.632959,-0.172287,-0.724566,-2.277794,-0.562671,-1.792547
471,524533772,0.200966,-0.642090,-0.158034,-0.722776,-2.721944,-1.286911,-0.358184
472,524567106,0.186386,-0.652335,-0.140987,-0.721033,-0.994243,-1.548617,0.666866
473,524600440,0.184330,-0.661944,-0.136968,-0.713540,-0.212392,0.749808,0.206169
474,524633774,0.187657,-0.669793,-0.137764,-0.705145,-0.556813,1.066887,0.331494
475,524667108,0.181874,-0.676041,-0.132623,-0.701676,-0.202179,0.234842,0.004451
476,524700442,0.174418,-0.683215,-0.125824,-0.697861,-0.155514,-0.323292,0.017225
477,524733776,0.168456,-0.691781,-0.118209,-0.692196,-0.053100,0.050115,0.193640
478,524767110,0.163593,-0.699568,-0.110280,-0.686824,0.124809,1.406239,0.105981
479,524800444,0.158904,-0.706613,-0.104413,-0.681610,-0.412135,1.885656,0.126076
480,524833778,0.154607,-0.713340,-0.101838,-0.675957,-0.559981,1.155577,0.187392
481,524867112,0.152390,-0.719917,-0.102002,-0.669432,-0.472563,0.385925,0.154405
482,524900446,0.150701,-0.726590,-0.102970,-0.662420,-0.474618,-0.339401,0.138733
483,524933780,0.147389,-0.733194,-0.101826,-0.656035,0.054356,-0.592455,0.144639
484,524967114,0.143531,-0.739751,-0.099306,-0.649886,0.138078,-0.154697,0.020610
485,525000448,0.138096,-0.746582,-0.095692,-0.643767,0.235666,0.208586,0.083364
486,525033782,0.131565,-0.752885,-0.092262,-0.638271,0.812074,0.009115,0.132539
487,525067116,0.125608,-0.758378,-0.090741,-0.633165,1.128354,-0.403841,0.132246
488,525100450,0.120215,-0.763998,-0.090998,-0.627393,0.970672,-0.265692,0.009622
489,525133784,0.113960,-0.769705,-0.091927,-0.621421,1.003978,-0.083437,0.299444
490,525167118,0.108870,-0.774340,-0.094217,-0.616210,1.325251,0.047062,0.057049
491,525200452,0.103275,-0.779364,-0.095774,-0.610573,1.140117,-0.391781,0.243569
492,525233786,0.095337,-0.784821,-0.096405,-0.604748,1.802231,-0.517576,-0.012895
493,525267120,0.085856,-0.788833,-0.097267,-0.600797,2.550507,-1.347579,0.990801
494,525300454,0.076213,-0.789247,-0.097770,-0.601472,3.419416,-2.606029,0.978889
495,525333788,0.069415,-0.782352,-0.100351,-0.610806,5.202574,-4.620621,1.005833
496,525367122,0.065920,-0.770201,-0.112927,-0.624291,3.219988,-6.101723,-0.650587
497,525400456,0.046580,-0.764595,-0.110440,-0.633305,-0.506813,-1.311711,1.246210
498,525433790,0.025180,-0.755827,-0.099413,-0.646726,-0.207070,1.978836,1.832003
499,525467124,0.012522,-0.745988,-0.086772,-0.660199,-0.393934,3.121707,1.014591
500,525500458,0.009526,-0.737376,-0.079158,-0.670795,-1.406384,3.595470,1.375385
501,525533792,0.009544,-0.729123,-0.072659,-0.680482,-2.879719,1.978375,0.573945
502,525567126,0.011483,-0.720223,-0.068954,-0.690246,-3.342640,1.719718,0.430112
503,525600460,0.020828,-0.706762,-0.071207,-0.703583,-1.909093,1.783133,0.724336
504,525633794,0.031220,-0.692037,-0.075893,-0.717215,-2.084972,0.937272,-0.707115
505,525667128,0.040681,-0.677547,-0.082332,-0.729756,-2.566562,0.550087,-1.028447
506,525700462,0.050459,-0.664193,-0.088994,-0.740560,-2.560968,0.504056,-1.319521
507,525733796,0.056729,-0.652523,-0.094089,-0.749793,-3.039111,-0.026772,-1.148951
508,525767130,0.054315,-0.641848,-0.089581,-0.759673,-2.645385,-0.358538,-0.677217
509,525800464,0.046023,-0.634256,-0.073963,-0.768230,-1.836475,-0.129338,-1.695347
510,525833798,0.035190,-0.629041,-0.052505,-0.774828,-0.638561,1.122083,-1.497603
511,525867132,0.026760,-0.628431,-0.033539,-0.776711,0.082070,1.851210,-1.096932
512,525900466,0.022927,-0.630350,-0.019084,-0.775768,1.670846,0.138037,0.424892
513,525933800,0.026787,-0.629695,-0.013167,-0.776299,1.410142,-0.730054,0.400078
514,525967134,0.032027,-0.634036,-0.009657,-0.772610,0.508749,0.961347,0.405835
515,526000468,0.039412,-0.638644,-0.015407,-0.768368,0.053181,-1.592904,-0.129699
516,526033802,0.046599,-0.646622,-0.031612,-0.760760,-2.583618,-1.549095,0.862755
517,526067136,0.050977,-0.660377,-0.046812,-0.747769,-2.755001,-2.605756,2.945317
518,526100470,0.063352,-0.664756,-0.057901,-0.742146,1.815773,-0.628459,-0.616763
519,526133804,0.082590,-0.672377,-0.068008,-0.732469,-0.407146,0.215824,-1.003862
520,526167138,0.078339,-0.679266,-0.061457,-0.727139,-1.194412,-0.953808,0.167566
521,526200472,0.073493,-0.684278,-0.052920,-0.723608,0.260115,0.021887,1.264638
522,526233806,0.076208,-0.688506,-0.050965,-0.719446,0.331317,0.142124,0.211128
523,526267140,0.077768,-0.691098,-0.049213,-0.716910,0.689437,1.196646,-0.165058
524,526300474,0.077515,-0.688901,-0.049810,-0.719009,-0.708228,0.930605,0.715079
525,526333808,0.075555,-0.686009,-0.050145,-0.721952,-0.500354,-0.497825,-0.561913
526,526367142,0.078557,-0.684675,-0.055412,-0.722513,0.890266,-0.571936,-0.261075
527,526400476,0.079878,-0.691342,-0.057994,-0.715786,-1.969817,2.321151,-0.523789
528,526433810,0.073374,-0.698598,-0.050463,-0.709984,-1.918876,2.924448,0.290961
529,526467144,0.071204,-0.702740,-0.046490,-0.706379,-0.960481,1.339120,0.232708
530,526500478,0.069041,-0.709991,-0.042579,-0.699557,-1.021215,0.799715,-0.149983
531,526533812,0.064930,-0.717847,-0.037227,-0.692200,-0.271084,0.533003,0.140412
532,526567146,0.064248,-0.723973,-0.034242,-0.686010,0.532778,0.653296,0.241716
533,526600480,0.062094,-0.731265,-0.031311,-0.678573,-0.257001,0.169123,-0.046093
534,526633814,0.058310,-0.738373,-0.028378,-0.671303,0.118314,-0.172086,0.276659
535,526667148,0.055097,-0.745410,-0.025886,-0.663856,0.167574,-0.212676,0.037618
536,526700482,0.052056,-0.753022,-0.023347,-0.655553,0.082588,-0.195761,0.176442
537,526733816,0.048960,-0.760927,-0.021187,-0.646677,0.585047,-0.033073,0.157635
538,526767150,0.046718,-0.768456,-0.020411,-0.637905,1.401504,-0.451383,0.289838
539,526800484,0.044326,-0.776158,-0.019634,-0.628710,1.770997,-0.577620,0.050251
540,526833818,0.039703,-0.784112,-0.018078,-0.619122,1.137142,-1.147904,0.223944
541,526867152,0.032192,-0.790907,-0.014916,-0.610946,1.554322,-1.141415,0.924273
542,526900486,0.024630,-0.795548,-0.011068,-0.605327,1.522052,-1.605652,0.769769
543,526933820,0.016913,-0.798128,-0.008152,-0.602235,1.653129,-1.827230,1.948266
544,526967154,0.007156,-0.796573,-0.007702,-0.604490,1.449877,-3.642005,1.761388
545,527000488,-0.006863,-0.788060,-0.009555,-0.615524,2.725261,-4.248623,-0.514616
546,527033822,-0.015310,-0.773131,-0.017623,-0.633854,3.153329,-4.895769,-1.997775
547,527067156,-0.027332,-0.767512,-0.022726,-0.640085,-1.981126,-1.090691,-1.109013
548,527100490,-0.043578,-0.763423,-0.014259,-0.644306,-0.448729,1.372959,1.338514
549,527133824,-0.059302,-0.758657,-0.002976,-0.648816,-0.569949,2.978178,1.785316
550,527167158,-0.072234,-0.751709,0.007951,-0.655514,-0.846215,3.349481,1.747464
551,527200492,-0.077855,-0.742314,0.014641,-0.665388,-0.457628,2.721445,0.923556
552,527233826,-0.074739,-0.730672,0.014331,-0.678509,-0.251547,2.383820,0.164812
553,527267160,-0.066941,-0.718442,0.008220,-0.692344,-0.725928,1.794715,-0.146324
554,527300494,-0.056111,-0.706586,-0.002205,-0.705429,-0.954182,1.297039,-0.303538
555,527333828,-0.044752,-0.694778,-0.013935,-0.717728,-1.473290,0.936001,-0.277207
556,527367162,-0.034552,-0.682278,-0.022032,-0.729976,-1.375158,0.514929,0.152847
557,527400496,-0.027169,-0.669717,-0.024863,-0.741734,-1.481859,-0.205256,-0.220670
558,527433830,-0.023961,-0.657836,-0.021772,-0.752496,-1.517732,-0.510356,-0.701733
559,527467164,-0.024806,-0.649121,-0.010642,-0.760237,-0.154331,0.560409,-1.285557
560,527500498,-0.021627,-0.644272,-0.000549,-0.764522,0.524954,1.647140,-1.136610
561,527533832,-0.015256,-0.642336,0.004602,-0.766288,-0.527566,1.236186,-0.983266
562,527567166,-0.009725,-0.640596,0.006471,-0.767820,-1.030927,0.102432,-0.487092
563,527600500,-0.005851,-0.638632,0.008764,-0.769470,-0.505845,-0.744000,-0.113708
564,527633834,-0.000235,-0.638772,0.009998,-0.769362,-0.636247,-0.203773,-0.594535
565,527667168,0.003566,-0.643228,0.010665,-0.765623,-1.859947,-1.000708,-0.173330
566,527700502,0.006599,-0.647099,0.012916,-0.762299,-0.292125,-1.308443,-0.153713
567,527733836,0.012041,-0.654288,0.010268,-0.756111,-1.229775,-0.207485,-0.402433
568,527767170,0.016536,-0.664708,0.003412,-0.746944,-1.322618,0.078835,3.730070
569,527800504,0.028798,-0.670533,-0.004544,-0.741339,0.619881,-0.839419,-0.175262
570,527833838,0.035439,-0.681869,-0.006244,-0.730621,0.523504,0.958138,-0.371632
571,527867172,0.039639,-0.692527,-0.007327,-0.720297,-0.266394,0.667857,0.006923
572,527900506,0.041677,-0.700635,-0.008034,-0.712289,-1.906301,-1.288381,0.804304
573,527933840,0.040845,-0.707009,-0.003313,-0.706049,0.251698,-0.724212,-0.113256
574,527967174,0.044172,-0.712064,0.000631,-0.700757,0.228924,0.852132,0.121857
575,528000508,0.042505,-0.716605,0.007813,-0.696173,-0.618498,0.228689,0.158628
576,528033842,0.038926,-0.720660,0.014106,-0.692085,-0.027783,0.184360,0.062819
577,528067176,0.039654,-0.724529,0.015887,-0.687954,-0.601385,0.558831,0.299867
578,528100510,0.040641,-0.729122,0.019179,-0.682941,-0.580679,1.107254,0.213018
579,528133844,0.038994,-0.732512,0.024983,-0.679212,-0.206334,1.105369,0.371055
580,528167178,0.035678,-0.735670,0.030793,-0.675733,0.151364,0.921176,0.025107
581,528200512,0.034007,-0.739455,0.034045,-0.671518,-0.334772,0.776269,-0.074060
582,528233846,0.033520,-0.744258,0.035962,-0.666116,-0.440946,0.724261,0.047580
583,528267180,0.033649,-0.749120,0.036730,-0.660595,-0.453800,0.499102,0.100452
584,528300514,0.033703,-0.753615,0.037380,-0.655422,-0.135131,0.163772,0.091686
585,528333848,0.033239,-0.758702,0.038504,-0.649485,-0.136141,-0.048854,0.025211
586,528367182,0.032078,-0.763973,0.040134,-0.643236,0.246834,-0.350319,0.284394
587,528400516,0.030408,-0.769200,0.042271,-0.636920,0.260153,-0.556028,0.178783
588,528433850,0.027068,-0.775074,0.045029,-0.629720,0.110546,-0.523211,0.266795
589,528467184,0.023503,-0.780542,0.047233,-0.622911,0.853243,-0.358360,0.118396
590,528500518,0.021790,-0.786103,0.047704,-0.615905,0.798366,-0.287400,-0.004935
591,528533852,0.019805,-0.792426,0.047954,-0.607796,0.477664,-0.323730,0.182875
592,528567186,0.016669,-0.798351,0.048228,-0.600066,0.827670,-0.587203,0.179575
593,528600520,0.013047,-0.804266,0.048034,-0.592221,1.115716,-0.747666,0.319429
594,528633854,0.008800,-0.809523,0.048319,-0.585070,1.520346,-1.318831,0.881365
595,528667188,0.003756,-0.813285,0.048965,-0.579830,1.387961,-2.009153,1.097398
596,528700522,-0.003478,-0.814138,0.049738,-0.578568,1.105177,-3.163035,1.894163
597,528733856,-0.016555,-0.810614,0.050471,-0.583208,0.637741,-4.336881,0.171184
598,528767190,-0.033979,-0.799363,0.048021,-0.598002,2.135035,-5.620278,-0.922115
599,528800524,-0.050891,-0.789756,0.041341,-0.609945,-2.552715,-1.856933,-2.242779
600,528833858,-0.072912,-0.784587,0.048511,-0.613840,0.172745,0.687487,0.903253
601,528867192,-0.088423,-0.777880,0.055176,-0.619747,0.620600,1.670700,1.645713
602,528900526,-0.103508,-0.769512,0.061672,-0.627201,0.021832,2.627763,1.723419
603,528933860,-0.113505,-0.760694,0.066467,-0.635681,0.020564,3.104220,1.439045
604,528967194,-0.116019,-0.752191,0.065412,-0.645380,-0.066539,2.948208,1.104743
605,529000528,-0.111125,-0.741399,0.057566,-0.659327,0.197223,2.621430,0.145052
606,529033862,-0.099650,-0.730108,0.043501,-0.674661,-0.279710,1.965037,-0.408289
607,529067196,-0.086780,-0.718912,0.026955,-0.689170,-1.558039,1.004796,-0.451235
608,529100530,-0.076005,-0.706460,0.012678,-0.703580,-1.278159,0.364138,-0.343184
609,529133864,-0.067689,-0.692400,0.004023,-0.718354,-1.042012,0.189791,0.103665
610,529167198,-0.063969,-0.678202,0.002251,-0.732115,-1.155725,-0.194687,-0.176411
611,529200532,-0.064698,-0.665056,0.007194,-0.743982,-0.936250,-0.014405,-0.523505
612,529233866,-0.066233,-0.654334,0.015089,-0.753179,-0.445972,1.080296,-0.733050
613,529267200,-0.063584,-0.646465,0.020700,-0.760039,0.096924,1.949305,-0.768820
614,529300534,-0.057465,-0.641977,0.021861,-0.764286,-0.464546,1.844057,-1.077827
615,529333868,-0.051628,-0.638791,0.022430,-0.767349,-0.792632,0.832902,-0.846638
616,529367202,-0.047001,-0.634772,0.025314,-0.770884,-1.090861,0.018581,-0.543429
617,529400536,-0.046429,-0.633593,0.034489,-0.771532,-1.631264,-0.291243,-1.222367
618,529433870,-0.051055,-0.635319,0.049383,-0.769007,-0.899407,-0.571117,-0.770519
619,529467204,-0.052078,-0.637608,0.062586,-0.766077,1.052058,-0.501773,-0.085626
620,529500538,-0.044434,-0.643022,0.064931,-0.761827,-0.103851,-0.827045,-0.161888
621,529533872,-0.041950,-0.652896,0.060555,-0.753888,-3.060830,-0.328364,4.014011
622,529567206,-0.030978,-0.657079,0.045487,-0.751842,0.727194,-2.354096,3.010142
623,529600540,-0.014637,-0.664865,0.032329,-0.746152,-0.355301,0.511983,-1.413654
624,529633874,-0.009380,-0.673443,0.031101,-0.738557,-0.407535,0.230086,-1.070941
625,529667208,-0.012914,-0.678140,0.037528,-0.733892,-1.032284,0.838401,0.775189
626,529700542,-0.011683,-0.680757,0.041096,-0.731294,-0.473578,-0.124829,0.292144
627,529733876,-0.007039,-0.686126,0.041835,-0.726277,0.025390,1.172686,-0.284356
628,529767210,-0.008345,-0.691181,0.045263,-0.721247,-0.417015,0.856449,0.045318
629,529800544,-0.012104,-0.695482,0.050794,-0.716676,-0.859767,0.280732,-0.019750
630,529833878,-0.014072,-0.699095,0.055391,-0.712775,-0.871999,0.270551,0.311388
631,529867212,-0.014154,-0.701494,0.060095,-0.710029,-0.319981,0.325616,0.203738
632,529900546,-0.015308,-0.704214,0.066881,-0.706698,-0.024988,0.881408,0.056994
633,529933880,-0.020119,-0.707149,0.075442,-0.702774,0.097881,0.880756,0.109797
634,529967214,-0.025708,-0.710157,0.083499,-0.698635,0.149948,1.145305,-0.141920
635,530000548,-0.028720,-0.714422,0.088759,-0.693502,-0.014622,1.464775,-0.071924
636,530033882,-0.031163,-0.717822,0.091359,-0.689537,0.512837,0.109353,0.579769
637,530067216,-0.033239,-0.720883,0.093047,-0.686011,0.127309,-0.508845,0.069015
638,530100550,-0.035959,-0.724340,0.095448,-0.681891,-0.008257,-0.266462,0.069241
639,530133884,-0.038832,-0.727958,0.098506,-0.677431,-0.142470,0.079622,0.101852
640,530167218,-0.042005,-0.731714,0.101755,-0.672698,-0.257487,0.003019,0.229405
641,530200552,-0.045907,-0.734763,0.105720,-0.668495,0.211090,0.103510,0.082017
642,530233886,-0.048302,-0.737838,0.108712,-0.664448,0.322384,0.421927,0.132463
643,530267220,-0.050428,-0.742012,0.110238,-0.659370,0.104841,0.199160,0.099406
644,530300554,-0.053146,-0.747114,0.111096,-0.653223,0.596308,0.172623,0.391896
645,530333888,-0.055604,-0.752070,0.111403,-0.647252,0.411863,-0.341919,0.181697
646,530367222,-0.059341,-0.756814,0.112672,-0.641142,0.367730,-0.230780,-0.094052
647,530400556,-0.065784,-0.761861,0.115907,-0.633919,-0.008960,0.185286,0.060600
648,530433890,-0.075034,-0.765738,0.120786,-0.627275,0.677346,0.201802,0.458377
649,530467224,-0.084034,-0.769015,0.124974,-0.621275,0.749306,0.013750,-0.004198
650,530500558,-0.094332,-0.772976,0.128918,-0.614033,0.802843,-0.141908,0.340226
651,530533892,-0.104580,-0.777182,0.132137,-0.606332,0.496741,-0.785845,1.083597
652,530567226,-0.114229,-0.781070,0.134170,-0.599105,0.888829,-1.244404,0.412353
653,530600560,-0.123201,-0.783631,0.134523,-0.593881,0.589681,-1.971036,1.698695
654,530633894,-0.133908,-0.783434,0.133788,-0.591987,-0.035350,-2.691779,0.412436
655,530667228,-0.147646,-0.781007,0.132965,-0.592111,0.401471,-2.421186,-0.572653
656,530700562,-0.160868,-0.776384,0.131537,-0.595058,0.362031,-2.372200,-0.360578
657,530733896,-0.171956,-0.769589,0.129046,-0.601298,0.421025,-2.816098,0.403280
658,530767230,-0.179616,-0.761459,0.124683,-0.610262,0.917323,-2.853786,-0.121515
659,530800564,-0.182967,-0.757106,0.117821,-0.616018,0.947203,-2.110076,0.039124
660,530833898,-0.186583,-0.754122,0.115981,-0.618936,1.480866,0.797337,0.604993
661,530867232,-0.188010,-0.747791,0.114034,-0.626501,0.841738,1.332060,1.054071
662,530900566,-0.186823,-0.740143,0.110553,-0.636484,-0.234659,1.981976,0.352092
663,530933900,-0.183672,-0.732728,0.106462,-0.646596,-0.871845,1.810338,0.590199
664,530967234,-0.179633,-0.723540,0.102911,-0.658542,-0.204316,1.438104,0.186404
665,531000568,-0.174049,-0.713780,0.100555,-0.670941,-0.519746,1.669122,0.245912
666,531033902,-0.168917,-0.703419,0.098071,-0.683445,-0.641843,2.176118,-0.082879
667,531067236,-0.163114,-0.692393,0.094627,-0.696476,-0.552051,2.087734,-0.255811
668,531100570,-0.155493,-0.680861,0.090759,-0.709973,-0.607759,1.391340,-0.228759
669,531133904,-0.148364,-0.670452,0.089188,-0.721509,-1.714149,0.525603,-0.920705
670,531167238,-0.146492,-0.661100,0.094347,-0.729817,-1.600192,-0.120977,-1.350235
671,531200572,-0.148000,-0.653671,0.105575,-0.734650,-0.886919,0.435266,-1.104744
672,531233906,-0.148119,-0.647783,0.118816,-0.737813,0.072958,0.082403,-0.628983
673,531267240,-0.146767,-0.640490,0.131789,-0.742234,0.701520,-1.577629,0.160496
674,531300574,-0.145907,-0.636486,0.144335,-0.743513,-0.365547,-1.545850,-0.760077
675,531333908,-0.147326,-0.636117,0.152735,-0.741868,0.185182,-1.638321,0.191081
676,531367242,-0.140569,-0.638580,0.147930,-0.742038,-0.491218,-1.955297,-0.364861
677,531400576,-0.128154,-0.646280,0.131578,-0.740698,-2.552220,1.033228,3.895432
678,531433910,-0.114128,-0.656320,0.111873,-0.737395,-3.572434,-0.388710,2.412643
679,531467244,-0.106830,-0.664764,0.103905,-0.732071,-2.898072,-0.854892,-2.621586
680,531500578,-0.113065,-0.670325,0.115146,-0.724341,1.101252,2.889288,-0.578423
681,531533912,-0.113981,-0.669971,0.125459,-0.722810,0.188736,3.278011,-0.064211
682,531567246,-0.113267,-0.670932,0.135860,-0.720145,1.252185,1.508670,-0.028735
683,531600580,-0.113463,-0.680267,0.141663,-0.710170,-0.295665,1.865885,0.394964
684,531633914,-0.111999,-0.688790,0.141808,-0.702113,-0.796023,0.832636,0.428015
685,531667248,-0.112502,-0.692905,0.144247,-0.697472,-0.451966,-0.832419,0.014502
686,531700582,-0.115420,-0.695604,0.151385,-0.692779,-0.267631,-0.358301,0.255203
687,531733916,-0.120709,-0.698163,0.162125,-0.686849,1.324598,1.127007,-0.093141
688,531767250,-0.124669,-0.702167,0.170467,-0.680005,0.761780,1.572559,0.218757
689,531800584,-0.129496,-0.706341,0.175187,-0.673550,0.325557,0.311867,-0.192266
690,531833918,-0.132194,-0.711600,0.177718,-0.666793,0.425152,0.665367,-0.000229
691,531867252,-0.132984,-0.717558,0.179824,-0.659649,0.153773,0.773078,0.220427
692,531900586,-0.137014,-0.723276,0.184089,-0.651350,-0.613101,0.194008,0.225644
693,531933920,-0.143160,-0.727885,0.190775,-0.642915,0.065958,-0.086208,0.062792
694,531967254,-0.149864,-0.731685,0.198384,-0.634720,0.487095,-0.338639,0.114676
695,532000588,-0.156180,-0.735245,0.204285,-0.627166,0.929484,-1.187102,0.472508
696,532033922,-0.162829,-0.738948,0.207837,-0.619914,0.773728,-1.747197,0.143620
697,532067256,-0.169816,-0.743536,0.209721,-0.611867,0.995086,-1.848162,0.021576
698,532100590,-0.177449,-0.747662,0.211867,-0.603882,1.178226,-1.413521,-0.246907
699,532133924,-0.187996,-0.750119,0.216679,-0.595883,0.561570,-1.213737,-0.016843
700,532167258,-0.203768,-0.750617,0.223416,-0.587525,0.665092,-0.994484,0.189821
701,532200592,-0.223277,-0.749978,0.231405,-0.578083,0.401558,-0.540551,1.838104
702,532233926,-0.242714,-0.747008,0.235495,-0.572414,1.467710,-0.678546,1.771253
703,532267260,-0.259569,-0.742397,0.232295,-0.572326,1.050218,-1.335833,2.271718
704,532300594,-0.276929,-0.738333,0.228066,-0.571146,-0.606093,-1.089912,0.407006
705,532333928,-0.291068,-0.738804,0.220806,-0.566339,-1.399936,1.174351,-1.804698
706,532367262,-0.300407,-0.738707,0.217994,-0.562667,0.202704,1.994700,-0.847475
707,532400596,-0.308735,-0.736682,0.218195,-0.560732,-0.294045,0.643250,0.153492
708,532433930,-0.319771,-0.732747,0.225064,-0.556975,-1.586793,-0.095672,0.272401
709,532467264,-0.334120,-0.725850,0.236454,-0.552849,-2.180762,-1.263345,0.574032
710,532500598,-0.346712,-0.718462,0.246526,-0.550341,-2.151122,0.191370,0.176482
711,532533932,-0.360248,-0.709519,0.256376,-0.548746,-0.074560,0.165332,-0.076095
712,532567266,-0.369274,-0.702802,0.262401,-0.548543,0.335855,-0.702946,0.159581
713,532600600,-0.367649,-0.700666,0.263174,-0.551986,0.130345,-0.039360,-0.800581
714,532633934,-0.365084,-0.700867,0.264322,-0.552884,-0.642252,1.106722,-0.053781
715,532667268,-0.363102,-0.699430,0.267482,-0.554486,2.038342,-0.392559,-0.603005
716,532700602,-0.353342,-0.698795,0.269287,-0.560684,2.021991,0.303501,0.075874
717,532733936,-0.348611,-0.694114,0.269889,-0.569108,-1.228265,0.153873,0.273712
718,532767270,-0.349601,-0.684662,0.272271,-0.578734,-0.711020,-0.405779,0.146223
719,532800604,-0.347897,-0.676230,0.272770,-0.589342,-0.060401,-0.884708,1.328072
720,532833938,-0.341635,-0.669726,0.265802,-0.603447,-0.936704,1.019871,1.034101
721,532867272,-0.337712,-0.660889,0.258181,-0.618520,-1.785500,1.458912,1.029003
722,532900606,-0.337059,-0.649857,0.253344,-0.632409,-0.906114,1.079613,0.636044
723,532933940,-0.336715,-0.639298,0.248854,-0.645012,-0.032173,1.661493,0.431218
724,532967274,-0.337707,-0.628867,0.246509,-0.655561,-0.932540,2.390352,-0.845064
725,533000608,-0.340997,-0.617436,0.246370,-0.664713,-0.720359,1.130780,-1.734114
726,533033942,-0.346675,-0.606123,0.251187,-0.670361,0.745230,0.301625,-1.740400
727,533067276,-0.349886,-0.597030,0.260613,-0.673248,0.867122,-1.558970,-0.875431
728,533100610,-0.347437,-0.590707,0.270733,-0.676094,0.000978,-1.400378,-0.830979
729,533133944,-0.347097,-0.585785,0.285702,-0.674389,-0.713735,-0.124028,-1.184556
730,533167278,-0.343612,-0.581888,0.299944,-0.673362,0.156542,-0.908670,0.685792
731,533200612,-0.322942,-0.585838,0.298663,-0.680698,1.507497,-0.259553,-1.410941
732,533233946,-0.294076,-0.599164,0.282610,-0.688985,0.947739,1.256398,0.868453
733,533267280,-0.267693,-0.628764,0.256290,-0.683637,-9.464578,4.011151,3.898384
734,533300614,-0.257774,-0.646355,0.240039,-0.676910,-3.675439,-1.228725,0.840616
735,533333948,-0.233000,-0.658377,0.237222,-0.675295,1.181814,0.105654,-2.990444
736,533367282,-0.229710,-0.660363,0.255847,-0.667640,-1.384339,2.092539,0.971713
737,533400616,-0.235854,-0.656027,0.272823,-0.663035,-0.761690,-0.351853,0.913510
738,533433950,-0.225192,-0.657889,0.282623,-0.660788,3.601929,-0.964589,0.417734
739,533467284,-0.220519,-0.663004,0.288687,-0.654602,3.073572,0.181137,0.637363
740,533500618,-0.216852,-0.667868,0.288281,-0.651052,1.472703,-0.880091,0.218246
741,533533952,-0.213889,-0.673342,0.289126,-0.646000,-1.168220,0.192647,0.047636
742,533567286,-0.212764,-0.676310,0.293122,-0.641453,-0.883051,0.560728,0.079934
743,533600620,-0.212047,-0.677170,0.298814,-0.638150,-0.166396,-0.127330,-0.091743
744,533633954,-0.212092,-0.677988,0.304931,-0.634361,0.477488,0.463527,0.048740
745,533667288,-0.210985,-0.680558,0.308737,-0.630123,0.670655,0.545418,0.165593
746,533700622,-0.209439,-0.685318,0.311559,-0.624061,0.236583,0.083449,-0.179674
747,533733956,-0.208131,-0.689542,0.314528,-0.618331,0.143249,-0.232045,0.335402
748,533767290,-0.207694,-0.693495,0.318411,-0.612038,-0.718760,0.092458,-0.018775
749,533800624,-0.209147,-0.696343,0.324723,-0.604951,-0.305570,-0.190590,0.119284
750,533833958,-0.210448,-0.698570,0.330522,-0.598761,0.716881,-0.894189,0.133780
751,533867292,-0.210133,-0.703000,0.334781,-0.591272,0.587496,-0.570398,0.166240
752,533900626,-0.210662,-0.708182,0.337721,-0.583174,0.462368,-1.006644,0.107952
753,533933960,-0.211691,-0.713899,0.339607,-0.574673,0.370504,-1.383323,0.099753
754,533967294,-0.212000,-0.719344,0.341793,-0.566414,0.181190,-1.209233,0.000590
755,534000628,-0.214114,-0.724721,0.344800,-0.556862,-0.116094,-1.460477,0.150608
756,534033962,-0.219413,-0.729289,0.348172,-0.546642,-0.543426,-2.240029,0.662079
757,534067296,-0.225538,-0.731502,0.350222,-0.539842,-0.536210,-3.471656,2.070846
758,534100630,-0.234005,-0.729288,0.348197,-0.540543,-0.939422,-5.197418,1.602596
759,534133964,-0.246061,-0.722846,0.334429,-0.552406,-1.912789,-7.393993,-0.008784
760,534167298,-0.255662,-0.718482,0.316492,-0.564182,-1.049744,-3.050658,-2.400804
761,534200632,-0.269250,-0.712708,0.311011,-0.568217,1.313503,-0.884531,0.068372
762,534233966,-0.277767,-0.706162,0.308131,-0.573833,2.442368,1.314126,1.886593
763,534267300,-0.283633,-0.698231,0.304406,-0.582589,1.460206,1.747967,1.876969
764,534300634,-0.289025,-0.688809,0.298441,-0.594127,-0.089086,2.510554,1.775428
765,534333968,-0.293302,-0.678121,0.288474,-0.609061,-0.745139,1.874706,1.241441
766,534367302,-0.296343,-0.666704,0.275927,-0.625779,-0.628469,1.904861,0.766296
767,534400636,-0.300023,-0.655155,0.263089,-0.641552,-0.429980,2.332511,-0.200903
768,534433970,-0.302995,-0.644724,0.248678,-0.656301,-0.231150,2.477919,-0.791660
769,534467304,-0.306908,-0.634780,0.232828,-0.669850,-1.258117,2.439765,-0.830994
770,534500638,-0.313912,-0.622192,0.220975,-0.682315,-0.991305,2.050718,-1.068740
771,534533972,-0.324704,-0.607304,0.218551,-0.691399,-0.635698,2.130525,-1.400664
772,534567306,-0.335987,-0.593943,0.225021,-0.695527,0.445406,2.756957,-1.852411
773,534600640,-0.342841,-0.585977,0.230763,-0.697055,1.451204,3.073185,-2.478865
774,534633974,-0.344017,-0.583526,0.234076,-0.697428,1.051351,1.828853,-2.425304
775,534667308,-0.340746,-0.584383,0.233876,-0.698382,0.279508,-0.533275,-1.264507
776,534700642,-0.333130,-0.589194,0.233041,-0.698294,-0.826962,-1.989583,-0.799472
777,534733976,-0.329582,-0.596387,0.236516,-0.692680,-1.698731,-3.082945,0.354096
778,534767310,-0.323299,-0.606353,0.241428,-0.685255,-0.325285,1.238984,-0.618371
779,534800644,-0.315022,-0.622759,0.245772,-0.672738,-1.724368,1.049044,11.310759
780,534833978,-0.305625,-0.628803,0.240165,-0.673475,-3.744698,-0.002054,1.195387
781,534867312,-0.293613,-0.639960,0.243683,-0.667014,0.677879,2.251600,-2.298424
782,534900646,-0.286088,-0.642908,0.256927,-0.662464,1.620031,2.089859,-1.635211
783,534933980,-0.291682,-0.639016,0.272858,-0.657401,0.766736,0.955040,0.062064
784,534967314,-0.290046,-0.641339,0.281030,-0.652401,0.530444,-0.823483,0.232754
785,535000648,-0.276278,-0.653156,0.283867,-0.645387,1.321349,0.282863,0.570817
786,535033982,-0.269380,-0.660440,0.287673,-0.639175,0.836003,-0.123584,0.780969
787,535067316,-0.265525,-0.663606,0.291665,-0.635691,0.570156,-0.732904,0.072733
788,535100650,-0.262940,-0.666160,0.297190,-0.631521,-0.033129,-0.013044,0.124051
789,535133984,-0.262771,-0.667956,0.304225,-0.626324,0.114386,-0.111587,-0.083961
790,535167318,-0.260888,-0.670416,0.309353,-0.621955,0.625441,0.061777,-0.108057
791,535200652,-0.258676,-0.673869,0.313589,-0.617006,0.781239,0.773896,-0.508771
792,535233986,-0.256077,-0.677776,0.316344,-0.612387,1.755795,0.818942,-0.129949
793,535267320,-0.250001,-0.683129,0.317006,-0.608595,0.819629,1.082924,-0.300456
794,535300654,-0.246880,-0.689972,0.319548,-0.600770,-0.343684,0.577514,0.417470
795,535333988,-0.244052,-0.695648,0.322670,-0.593670,-0.046936,-0.362945,0.185969
796,535367322,-0.238656,-0.700796,0.324880,-0.588582,0.218456,-0.897592,0.165319
797,535400656,-0.234658,-0.706863,0.328739,-0.580739,-0.193133,-0.229303,0.276251
798,535433990,-0.233051,-0.712852,0.332845,-0.571656,0.625702,-0.802283,0.047192
799,535467324,-0.230464,-0.719200,0.334591,-0.563678,0.463213,-1.360201,-0.054916
800,535500658,-0.227946,-0.726637,0.335535,-0.554529,0.476100,-1.569238,-0.134827
801,535533992,-0.225075,-0.733603,0.336571,-0.545834,0.263489,-1.812168,0.192854
802,535567326,-0.223911,-0.738938,0.338047,-0.538150,-0.318648,-2.122385,-0.119925
803,535600660,-0.223990,-0.743848,0.338729,-0.530875,-0.011671,-1.897457,0.352441
804,535633994,-0.224745,-0.746740,0.336386,-0.527978,0.842209,-2.064363,2.232966
805,535667328,-0.228839,-0.746192,0.329987,-0.531024,-1.026101,-3.840509,2.737638
806,535700662,-0.235031,-0.743152,0.311527,-0.543584,-2.237441,-3.862219,-0.872993
807,535733996,-0.243548,-0.742153,0.299506,-0.547938,-2.161315,-0.334871,-0.939467
808,535767330,-0.251678,-0.739237,0.291956,-0.552264,-1.137990,-1.535634,-1.336905
809,535800664,-0.265516,-0.734867,0.290376,-0.552449,1.599279,-0.982434,0.083730
810,535833998,-0.277332,-0.730477,0.290137,-0.552592,3.253838,0.039468,1.209511
811,535867332,-0.279282,-0.727420,0.284204,-0.558692,2.659556,0.670298,1.191597
812,535900666,-0.277802,-0.724475,0.272837,-0.568830,1.690030,1.858702,1.462378
813,535934000,-0.273788,-0.720285,0.257201,-0.583202,1.533680,1.878417,1.200629
814,535967334,-0.263909,-0.715764,0.237583,-0.601362,1.033575,1.080772,0.561877
815,536000668,-0.251859,-0.710016,0.216876,-0.620851,-0.687953,1.149593,0.439716
816,536034002,-0.242828,-0.702119,0.194923,-0.640403,-1.492952,1.257186,0.390873
817,536067336,-0.239216,-0.692415,0.172775,-0.658432,-2.020679,1.142205,0.224237
818,536100670,-0.240495,-0.681514,0.154295,-0.673752,-2.321829,1.163653,0.199699
819,536134004,-0.248254,-0.668107,0.145291,-0.686252,-1.651245,1.467898,-0.022760
820,536167338,-0.260609,-0.652986,0.145137,-0.696186,-0.576096,1.401778,-0.715911
821,536200672,-0.272534,-0.638292,0.148720,-0.704442,0.437619,1.430379,-1.369847
822,536234006,-0.280629,-0.626683,0.152047,-0.710946,0.829052,1.795018,-1.767141
823,536267340,-0.284785,-0.619229,0.154605,-0.715260,1.872569,1.593532,-1.776155
824,536300674,-0.284107,-0.615052,0.152419,-0.719590,1.989031,0.259501,-0.852719
825,536334008,-0.277428,-0.614133,0.143172,-0.724861,0.853364,-0.223555,-1.134651
826,536367342,-0.267690,-0.616787,0.132349,-0.728317,0.134880,-0.876420,-0.084019
827,536400676,-0.258258,-0.619291,0.121486,-0.731484,-0.181816,-2.456886,0.399217
828,536434010,-0.244472,-0.623827,0.107634,-0.734530,0.656056,-2.162607,-0.264584
829,536467344,-0.221742,-0.633087,0.088679,-0.736352,0.770375,0.368623,-1.487599
830,536500678,-0.194278,-0.645779,0.072181,-0.734889,-0.719393,2.917328,-1.750154
831,536534012,-0.172376,-0.660508,0.064712,-0.727925,-3.652209,1.498196,4.467469
832,536567346,-0.176698,-0.665846,0.069024,-0.721602,-8.557103,-3.667249,5.741401
833,536600680,-0.192619,-0.672284,0.084061,-0.709868,0.649291,1.180238,1.386228
834,536634014,-0.171113,-0.686465,0.085336,-0.701606,-0.066096,4.250314,-2.613695
835,536667348,-0.160502,-0.693368,0.103166,-0.694898,1.409786,4.597605,-1.343650
836,536700682,-0.160200,-0.693459,0.113173,-0.693318,0.536460,2.136304,0.070380
837,536734016,-0.150759,-0.702258,0.116948,-0.685913,2.642066,0.461883,-0.584376
838,536767350,-0.139863,-0.714937,0.116300,-0.675148,1.793671,0.943930,1.034700
839,536800684,-0.131508,-0.722242,0.113027,-0.669585,2.171184,-1.312720,0.814358
840,536834018,-0.122258,-0.728236,0.109557,-0.665409,-0.946196,-2.499546,0.511871
841,536867352,-0.118516,-0.731867,0.112592,-0.661585,-1.048964,-1.661987,-0.536525
842,536900686,-0.114481,-0.734266,0.115792,-0.659081,1.149445,-0.093462,0.193677
843,536934020,-0.107500,-0.736732,0.116218,-0.657427,1.830423,0.838806,0.010023
844,536967354,-0.100228,-0.740287,0.111787,-0.655347,1.506404,0.660295,-0.312914
845,537000688,-0.091995,-0.744854,0.104665,-0.652550,0.636657,0.400317,0.379542
846,537034022,-0.085141,-0.748542,0.099044,-0.650134,-0.176809,-0.545061,-0.056195
847,537067356,-0.081414,-0.751893,0.097505,-0.646969,-0.970980,-0.682418,-0.110135
848,537100690,-0.078740,-0.755159,0.099266,-0.643217,-0.655326,-0.158638,-0.078212
849,537134024,-0.077143,-0.758413,0.104026,-0.638815,0.186663,0.380233,-0.217201
850,537167358,-0.077986,-0.761938,0.108802,-0.633702,1.287266,0.732954,-0.056700
851,537200692,-0.078125,-0.766012,0.110259,-0.628499,1.792338,-0.612098,0.028050
852,537234026,-0.075563,-0.770956,0.109102,-0.622945,1.011690,-0.960215,-0.053362
853,537267360,-0.072319,-0.776863,0.107647,-0.616209,0.591977,-1.384273,-0.000815
854,537300694,-0.070754,-0.782229,0.107538,-0.609586,0.496247,-1.383157,0.322566
855,537334028,-0.069711,-0.784835,0.104028,-0.606959,1.518857,-2.074233,-0.067736
856,537367362,-0.064471,-0.781931,0.089336,-0.613590,3.827990,-5.136360,1.343049
857,537400696,-0.054776,-0.779513,0.065289,-0.620600,-0.037378,-4.510072,1.324243
858,537434030,-0.055681,-0.776538,0.049040,-0.625724,-3.079598,-4.444856,1.982277
859,537467364,-0.072436,-0.766680,0.039894,-0.636719,-1.519327,-2.989833,0.504032
860,537500698,-0.098325,-0.757014,0.044254,-0.644477,2.903446,2.899659,0.522289
861,537534032,-0.117754,-0.751980,0.049574,-0.646722,4.420359,4.515510,1.593360
862,537567366,-0.118045,-0.748951,0.045900,-0.650444,2.862880,5.410358,1.460262
863,537600700,-0.104417,-0.742602,0.028259,-0.660974,0.585975,4.325015,0.762832
864,537634034,-0.086656,-0.733417,0.002228,-0.674264,0.680280,2.076122,-0.530346
865,537667368,-0.063720,-0.724751,-0.027915,-0.685524,0.246397,1.823869,-1.188896
866,537700702,-0.037704,-0.716117,-0.059970,-0.694410,-0.588978,1.821799,-1.347882
867,537734036,-0.009824,-0.706581,-0.094032,-0.701321,-1.153771,1.669323,-0.295418
868,537767370,0.015187,-0.695078,-0.127823,-0.707350,-1.304697,0.854989,0.063812
869,537800704,0.033169,-0.680693,-0.154840,-0.715283,-0.313444,-0.165753,0.270097
870,537834038,0.044437,-0.666156,-0.169615,-0.724941,0.515700,-0.408295,0.481339
871,537867372,0.053902,-0.653558,-0.176013,-0.734182,1.190053,0.378085,0.530039
872,537900706,0.067822,-0.639620,-0.183696,-0.743364,1.467287,1.735016,0.459989
873,537934040,0.084708,-0.625801,-0.198440,-0.749578,-0.239819,1.456906,-0.218425
874,537967374,0.101036,-0.611629,-0.215321,-0.754576,0.009260,0.475490,0.141205
875,538000708,0.117198,-0.597348,-0.232470,-0.758581,0.021545,-0.000171,0.455856
876,538034042,0.132000,-0.584341,-0.243690,-0.762747,-0.251013,0.062835,-0.383075
877,538067376,0.142661,-0.575285,-0.245560,-0.767100,-0.678194,1.387601,-1.142101
878,538100710,0.152995,-0.568893,-0.245739,-0.769814,-1.094059,1.491523,-1.557893
879,538134044,0.166588,-0.564752,-0.250953,-0.768358,-1.180246,1.205972,-1.772651
880,538167378,0.185773,-0.561979,-0.264287,-0.761491,-1.460333,1.564739,-2.222616
881,538200712,0.209815,-0.558717,-0.285965,-0.749723,-1.827397,1.183683,-1.665067
882,538234046,0.237661,-0.554887,-0.313524,-0.733053,-1.854990,1.011140,-1.794064
883,538267380,0.266510,-0.554232,-0.343155,-0.709994,-1.955523,-0.129505,-2.213505
884,538300714,0.282226,-0.566626,-0.362129,-0.684246,-4.628437,-4.966341,2.101665
885,538334048,0.280579,-0.572366,-0.372235,-0.674656,6.124793,-9.204000,8.190393
886,538367382,0.270580,-0.581729,-0.372549,-0.670547,0.601915,-2.143572,3.251663
887,538400716,0.284966,-0.588711,-0.384746,-0.651331,-1.623741,3.882827,0.419547
888,538434050,0.304248,-0.602140,-0.376686,-0.634835,-1.634457,1.383545,-1.992059
889,538467384,0.302393,-0.610104,-0.366023,-0.634355,-2.106099,2.614310,-0.732163
890,538500718,0.313442,-0.610072,-0.372590,-0.625132,0.002997,0.573421,-0.399818
891,538534052,0.324173,-0.614925,-0.386814,-0.605971,-0.176421,2.505045,-0.504740
892,538567386,0.330340,-0.619580,-0.401956,-0.587771,-0.042297,1.561647,0.956277
893,538600720,0.337270,-0.621326,-0.412707,-0.574389,0.634943,0.687169,1.058775
894,538634054,0.347144,-0.621841,-0.417087,-0.564704,1.179954,-0.638032,0.025388
895,538667388,0.352030,-0.624743,-0.417491,-0.558138,0.986867,0.426533,-0.236064
896,538700722,0.355087,-0.629001,-0.418684,-0.550474,0.064361,1.337358,0.163205
897,538734056,0.360970,-0.630174,-0.423114,-0.541851,-0.807290,1.242233,-0.290812
898,538767390,0.366329,-0.628596,-0.429691,-0.534868,-0.773929,0.624507,-0.109354
899,538800724,0.368821,-0.628643,-0.436454,-0.527574,-0.243326,0.274532,-0.017835
900,538834058,0.372240,-0.629624,-0.442861,-0.518587,-0.331360,-0.253523,0.024817
901,538867392,0.374197,-0.632987,-0.446056,-0.510280,-0.185521,-0.444864,0.239797
902,538900726,0.374438,-0.637493,-0.446517,-0.504052,0.065415,0.379548,0.268280
903,538934060,0.373355,-0.641759,-0.447984,-0.498106,0.444739,1.144226,-0.273659
904,538967394,0.374061,-0.643986,-0.452932,-0.490163,0.693059,1.658142,-0.017099
905,539000728,0.375304,-0.644605,-0.459238,-0.482472,1.797763,1.495077,-0.184572
906,539034062,0.376473,-0.644293,-0.465721,-0.475716,2.532123,0.387415,-0.046041
907,539067396,0.377952,-0.644436,-0.470838,-0.469268,1.889273,-0.075131,-0.119487
908,539100730,0.379048,-0.643210,-0.475085,-0.465773,1.089467,1.331330,-0.177929
909,539134064,0.383404,-0.636366,-0.479267,-0.467321,2.050068,3.589092,0.754334
910,539167398,0.401439,-0.613215,-0.488638,-0.473386,7.978072,3.785907,2.004881
911,539200732,0.409573,-0.592578,-0.507403,-0.472960,2.931997,-6.192013,1.515784
912,539234066,0.406278,-0.581064,-0.508874,-0.488259,1.274292,-1.620892,2.226883
913,539267400,0.398367,-0.571578,-0.504376,-0.510150,-0.122650,-0.570979,0.757483
914,539300734,0.388496,-0.565818,-0.497713,-0.530330,-3.362928,2.789865,-0.713136
915,539334068,0.381997,-0.561897,-0.495521,-0.541162,-5.181271,4.006052,0.899788
916,539367402,0.387205,-0.554882,-0.499828,-0.540738,-5.675852,2.932006,0.981900
917,539400736,0.406529,-0.534968,-0.513335,-0.533927,-4.676312,1.242987,0.274844
918,539434070,0.433080,-0.506844,-0.531174,-0.522927,-2.282254,0.395110,-0.170126
919,539467404,0.460099,-0.477717,-0.547699,-0.510068,-1.464011,-0.447941,-0.376031
920,539500738,0.485506,-0.449065,-0.562914,-0.495783,-1.344154,-1.480451,-0.416894
921,539534072,0.510080,-0.418627,-0.577003,-0.481337,-0.438389,-1.963902,0.284730
922,539567406,0.531255,-0.388964,-0.586712,-0.471478,1.303846,-1.702695,0.572680
923,539600740,0.547637,-0.365367,-0.589384,-0.468267,1.937228,-1.337205,0.240416
924,539634074,0.558779,-0.350919,-0.585499,-0.471020,1.371980,-0.677468,0.023487
925,539667408,0.567469,-0.343419,-0.577350,-0.476189,-0.203183,-0.144091,0.167702
926,539700742,0.575376,-0.338838,-0.569055,-0.479954,-1.578613,-0.115371,-0.128990
927,539734076,0.584225,-0.332311,-0.562846,-0.481147,-1.949764,-0.008552,-0.598154
928,539767410,0.593389,-0.325010,-0.559430,-0.478898,-1.613919,-0.269743,-1.027012
929,539800744,0.601072,-0.317762,-0.558906,-0.474776,-1.006806,-0.162545,-1.149616
930,539834078,0.607490,-0.311129,-0.560651,-0.468906,-0.696752,-0.508446,-0.953512
931,539867412,0.614290,-0.304790,-0.563312,-0.460954,-0.514598,-0.803043,-0.429276
932,539900746,0.621311,-0.298257,-0.566413,-0.451929,0.006373,-0.290557,-0.582747
933,539934080,0.626780,-0.293079,-0.571449,-0.441298,0.339100,-0.588268,-0.977104
934,539967414,0.631302,-0.289118,-0.578175,-0.428520,-0.684652,-0.060695,-0.473846
935,540000748,0.638550,-0.282068,-0.588043,-0.408587,-0.635953,-0.168126,-1.072263
936,540034082,0.643136,-0.277291,-0.601057,-0.385050,-0.683464,-1.688803,-1.241167
937,540067416,0.641665,-0.276291,-0.616891,-0.362522,1.987737,-1.604461,3.293756
938,540100750,0.638375,-0.271081,-0.627483,-0.353983,8.172264,1.565651,3.389143
939,540134084,0.632379,-0.268108,-0.638499,-0.347247,-0.999496,0.927566,1.975933
940,540167418,0.635620,-0.260092,-0.654292,-0.316685,-0.831712,-0.791090,-1.018223
941,540200752,0.631806,-0.270020,-0.659324,-0.305369,-0.331024,-1.607221,-0.582737
942,540234086,0.629547,-0.278007,-0.658579,-0.304472,-1.181178,-0.947711,-0.073907
943,540267420,0.630399,-0.280245,-0.660808,-0.295702,-0.798861,-0.011968,0.185504
944,540300754,0.627392,-0.283355,-0.667307,-0.284319,-1.808841,-0.205458,-0.188302
945,540334088,0.623719,-0.283188,-0.674747,-0.274850,-1.597939,-0.634326,0.273779
946,540367422,0.623538,-0.278638,-0.681256,-0.263625,0.031474,-0.355235,0.347665
947,540400756,0.622749,-0.276874,-0.686049,-0.254770,0.911489,-0.041984,0.005631
948,540434090,0.620671,-0.279252,-0.688710,-0.250025,0.083654,0.322333,0.417520
949,540467424,0.619513,-0.283216,-0.689758,-0.245505,-0.718711,0.222867,0.251678
950,540500758,0.618384,-0.286589,-0.690724,-0.241694,-0.851447,-0.003740,0.049518
951,540534092,0.617009,-0.288388,-0.692237,-0.238721,-0.904663,0.097649,-0.017547
952,540567426,0.615932,-0.287829,-0.694919,-0.234343,-0.966083,0.037430,0.115886
953,540600760,0.614483,-0.286448,-0.698520,-0.229076,0.013417,-0.362895,-0.044840
954,540634094,0.611840,-0.286248,-0.702092,-0.225450,-0.180875,-0.123087,0.094674
955,540667428,0.610120,-0.285898,-0.705262,-0.220611,0.162385,-0.357354,0.121680
956,540700762,0.608461,-0.285068,-0.708913,-0.214479,-0.547814,-0.662771,0.148720
957,540734096,0.605611,-0.284572,-0.713430,-0.208131,-0.487475,-1.229067,-0.000393
958,540767430,0.601398,-0.284459,-0.718380,-0.203424,-0.170005,-0.889313,0.107335
959,540800764,0.597769,-0.284157,-0.722577,-0.199639,0.298454,-0.032843,0.048961
960,540834098,0.593479,-0.284374,-0.726921,-0.196335,0.601225,0.370590,0.043471
961,540867432,0.588745,-0.285678,-0.731053,-0.193330,0.290005,0.742331,0.156322
962,540900766,0.584328,-0.287675,-0.734334,-0.191323,-0.105162,1.131730,0.085671
963,540934100,0.579886,-0.289637,-0.737341,-0.190309,-0.309704,1.279705,0.131151
964,540967434,0.574638,-0.291398,-0.740750,-0.190303,-0.664325,0.943975,0.324965
965,541000768,0.570178,-0.292299,-0.744061,-0.189418,-1.136401,0.773277,0.535987
966,541034102,0.566210,-0.292782,-0.746928,-0.189290,-0.583088,0.958081,0.510789
967,541067436,0.562941,-0.292103,-0.749238,-0.190953,0.517982,0.784783,0.546150
968,541100770,0.559322,-0.291258,-0.751215,-0.195066,0.157178,0.810700,0.516093
969,541134104,0.560659,-0.285382,-0.752869,-0.193527,-0.086775,1.218149,0.764304
970,541167438,0.564464,-0.277808,-0.752907,-0.193342,0.559270,2.438637,0.164721
971,541200772,0.571616,-0.267254,-0.750476,-0.196630,0.585680,3.550539,0.193227
972,541234106,0.586305,-0.248132,-0.744636,-0.200604,1.083626,4.906099,-0.300053
973,541267440,0.599070,-0.228820,-0.739741,-0.203926,2.046219,2.856318,-0.643050
974,541300774,0.605788,-0.220454,-0.733397,-0.215861,0.825001,1.113719,0.532290
975,541334108,0.611521,-0.218893,-0.724226,-0.231670,-1.683143,-0.770113,1.644303
976,541367442,0.617648,-0.218322,-0.715022,-0.244209,-2.360188,-2.380172,1.334987
977,541400776,0.625462,-0.215624,-0.706609,-0.251104,-2.887734,-3.067411,1.060259
978,541434110,0.635944,-0.206446,-0.700835,-0.248661,-2.095926,-3.574080,0.774484
979,541467444,0.648005,-0.191833,-0.696722,-0.240656,-0.855253,-2.750495,0.233811
980,541500778,0.661854,-0.172922,-0.692578,-0.228974,0.265855,-2.305533,-0.223388
981,541534112,0.676323,-0.151030,-0.687564,-0.216980,0.682301,-1.866155,-0.092045
982,541567446,0.690154,-0.128249,-0.682145,-0.204855,1.309751,-1.931957,-0.177723
983,541600780,0.702705,-0.107210,-0.676014,-0.194331,2.075675,-1.391826,-0.502184
984,541634114,0.712398,-0.092977,-0.669258,-0.189698,2.311722,-0.883619,-0.875532
985,541667448,0.719030,-0.088418,-0.662183,-0.191674,2.214338,-0.336527,-0.939958
986,541700782,0.723450,-0.093325,-0.654812,-0.197934,1.055742,-0.216977,-0.922910
987,541734116,0.725006,-0.103812,-0.649629,-0.204005,-0.206575,-0.988866,-0.727634
988,541767450,0.726288,-0.114876,-0.644820,-0.208718,-1.019008,-0.817287,-0.612390
989,541800784,0.726936,-0.126002,-0.640658,-0.212819,-0.395704,-0.346451,-0.859617
990,541834118,0.727863,-0.134458,-0.637307,-0.214531,-0.966426,0.885452,-0.111207
991,541867452,0.729528,-0.137022,-0.636594,-0.209305,-1.738073,1.484566,-0.377853
992,541900786,0.728934,-0.135297,-0.640421,-0.200643,-0.003677,1.418242,-0.142047
993,541934120,0.726871,-0.131243,-0.646554,-0.190914,-0.416178,1.168020,-0.496609
994,541967454,0.717890,-0.127085,-0.660616,-0.179214,3.366758,-1.815638,1.762874
995,542000788,0.711325,-0.123678,-0.669363,-0.175274,3.234967,2.860939,3.507267
996,542034122,0.706021,-0.121448,-0.676991,-0.168864,0.438836,-0.132423,-0.346862
997,542067456,0.700211,-0.116223,-0.688628,-0.148444,0.067120,-1.427694,-0.548810
998,542100790,0.693949,-0.125213,-0.694050,-0.145250,0.324022,-1.561246,-0.272997
999,542134124,0.689068,-0.133728,-0.697278,-0.145440,-0.479711,-0.985193,0.100759
1000,542167458,0.682635,-0.138280,-0.703855,-0.139728,-0.710696,-0.659737,0.189788
1001,542200792,0.675194,-0.142944,-0.710963,-0.135124,-0.092164,-0.856998,0.093051
1002,542234126,0.669736,-0.147998,-0.715368,-0.133592,-0.736419,-0.270904,-0.143831
1003,542267460,0.664707,-0.150196,-0.720563,-0.128229,0.011266,-0.667391,-0.075808
1004,542300794,0.659246,-0.153050,-0.725765,-0.123624,0.696176,-0.756868,0.414897
1005,542334128,0.655201,-0.156432,-0.729444,-0.119164,-0.596886,-0.709465,0.212407
1006,542367462,0.651805,-0.159188,-0.732621,-0.114555,-0.703315,-0.143044,0.231523
1007,542400796,0.648448,-0.162185,-0.735472,-0.111084,-0.735651,-0.204159,-0.004739
1008,542434130,0.645044,-0.163829,-0.738466,-0.108599,-0.202680,0.417621,0.325101
1009,542467464,0.642335,-0.164326,-0.740931,-0.107108,-0.052978,1.290490,0.136406
1010,542500798,0.640204,-0.164407,-0.743071,-0.104890,0.085993,1.019218,-0.056884
1011,542534132,0.637943,-0.163827,-0.745721,-0.100683,-0.033196,-0.431390,-0.138966
1012,542567466,0.633628,-0.163495,-0.750083,-0.095954,0.006305,-0.999585,-0.063580
1013,542600800,0.627733,-0.163623,-0.755587,-0.091180,-0.048861,-0.877569,0.164392
1014,542634134,0.622652,-0.163547,-0.760337,-0.086561,-0.203472,0.013159,0.088505
1015,542667468,0.617031,-0.162220,-0.765840,-0.080591,-0.381459,0.592006,0.088136
1016,542700802,0.610390,-0.160665,-0.772153,-0.073747,-0.886591,0.813070,-0.085469
1017,542734136,0.602979,-0.158991,-0.778762,-0.068671,-0.808066,1.651301,-0.015226
1018,542767470,0.594641,-0.158631,-0.785456,-0.065905,-0.321743,1.996526,-0.142342
1019,542800804,0.587090,-0.159589,-0.791025,-0.064681,-1.317827,1.595613,-0.082180
1020,542834138,0.583217,-0.159478,-0.794076,-0.062574,-1.761596,1.102450,1.825438
1021,542867472,0.580789,-0.160345,-0.795469,-0.065193,0.071079,1.079420,2.379359
1022,542900806,0.581563,-0.160899,-0.793473,-0.079644,1.977511,3.040616,1.685066
1023,542934140,0.588857,-0.154536,-0.787358,-0.097367,-0.554256,4.548400,0.269001
1024,542967474,0.607420,-0.130202,-0.778301,-0.091558,-2.627249,4.194820,-1.334537
1025,543000808,0.618897,-0.110491,-0.773071,-0.084651,0.872683,1.976607,-0.966543
1026,543034142,0.627908,-0.102300,-0.766178,-0.091021,-0.400069,0.925398,0.073699
1027,543067476,0.633500,-0.103073,-0.759346,-0.107212,-0.810735,-1.840242,1.510943
1028,543100810,0.640694,-0.107444,-0.750072,-0.124118,-1.811141,-3.538661,1.775909
1029,543134144,0.652243,-0.104732,-0.739716,-0.128367,-1.830236,-3.753724,1.201125
1030,543167478,0.663840,-0.093072,-0.732007,-0.121932,0.222113,-2.970325,0.635620
1031,543200812,0.676087,-0.079227,-0.723834,-0.112879,0.164800,-2.178492,0.116949
1032,543234146,0.690084,-0.063460,-0.713720,-0.102013,0.026626,-1.869419,0.419770
1033,543267480,0.704985,-0.041519,-0.702603,-0.087574,1.128264,-1.752376,-0.085126
1034,543300814,0.720256,-0.016895,-0.689795,-0.071941,2.530121,-1.026674,-0.341156
1035,543334148,0.734356,0.003221,-0.676003,-0.061462,2.696576,-0.490458,-0.662083
1036,543367482,0.745180,0.013497,-0.664092,-0.059609,2.809684,-0.091542,-0.954904
1037,543400816,0.753519,0.012496,-0.654226,-0.063934,2.120970,-0.389770,-1.225918
1038,543434150,0.759337,0.002921,-0.646917,-0.070313,1.019711,-1.336183,-1.493844
1039,543467484,0.762795,-0.008563,-0.642218,-0.075322,-0.131267,-2.235263,-1.538256
1040,543500818,0.765039,-0.015683,-0.639399,-0.075395,-1.024038,-1.730530,-0.852604
1041,543534152,0.768708,-0.014488,-0.635619,-0.070095,-0.787803,0.507121,-1.043930
1042,543567486,0.767978,-0.008636,-0.637676,-0.059588,-0.637993,1.055897,-0.532375
1043,543600820,0.764596,-0.004604,-0.642398,-0.052370,-1.475857,2.270417,-0.165392
1044,543634154,0.754651,-0.001023,-0.654466,-0.047139,2.963706,-1.344382,2.620058
1045,543667488,0.744037,0.008120,-0.667030,-0.038231,0.442987,0.093399,4.551329
1046,543700822,0.737990,0.016641,-0.674186,-0.024775,2.502391,1.403020,-1.995942
1047,543734156,0.728220,0.017354,-0.684983,-0.015517,0.845605,-1.841591,-0.347291
1048,543767490,0.723329,0.011344,-0.690394,-0.008337,2.088825,-1.748524,-0.674054
1049,543800824,0.718187,0.000854,-0.695841,-0.007630,0.891131,-2.152909,-0.204646
1050,543834158,0.709088,-0.005462,-0.705114,-0.004978,-0.784270,-1.608927,0.245686
1051,543867492,0.698820,-0.006923,-0.715295,0.001592,-0.786475,-1.263811,0.433283
1052,543900826,0.692826,-0.006420,-0.721063,0.008054,-0.273519,0.640620,0.369317
1053,543934160,0.687610,-0.007563,-0.725987,0.011212,-0.742522,0.999159,0.365228
1054,543967494,0.682285,-0.010139,-0.730905,0.014459,-0.681358,0.004189,0.653438
1055,544000828,0.678656,-0.015506,-0.734169,0.015099,-0.557880,0.056792,0.248104
1056,544034162,0.675947,-0.021755,-0.736532,0.013799,-0.002426,-0.089418,0.189922
1057,544067496,0.674414,-0.026790,-0.737796,0.012328,-0.092316,-0.834066,-0.224549
1058,544100830,0.671784,-0.028987,-0.740103,0.012677,0.245068,-1.338566,-0.131522
1059,544134164,0.668664,-0.029507,-0.742880,0.013917,0.154552,-1.295041,0.042752
1060,544167498,0.665464,-0.029012,-0.745734,0.015621,0.231422,-0.636286,0.098851
1061,544200832,0.661884,-0.029613,-0.748866,0.016715,0.460627,-0.087812,0.110162
1062,544234166,0.657537,-0.032123,-0.752589,0.016441,0.179944,-0.149420,0.035577
1063,544267500,0.653592,-0.034983,-0.755875,0.017157,-0.362072,-0.153094,0.129451
1064,544300834,0.649809,-0.038156,-0.759004,0.015909,-0.335893,0.061813,0.141114
1065,544334168,0.645763,-0.040019,-0.762365,0.015352,-0.189527,0.130644,0.002376
1066,544367502,0.641494,-0.041744,-0.765891,0.014139,-0.213657,0.199237,0.058317
1067,544400836,0.637069,-0.043131,-0.769517,0.013177,-0.250796,0.230790,0.133121
1068,544434170,0.631495,-0.044780,-0.774029,0.011614,-0.253101,0.165050,0.126530
1069,544467504,0.625701,-0.047319,-0.778605,0.008946,-0.793116,0.534858,0.083312
1070,544500838,0.619959,-0.049778,-0.783058,0.006285,-0.901553,1.114825,0.253557
1071,544534172,0.613184,-0.051588,-0.788280,0.002640,-1.176667,0.686350,0.116051
1072,544567506,0.606882,-0.053726,-0.793004,-0.000375,-1.166879,0.498308,0.726347
1073,544600840,0.602670,-0.057159,-0.795951,-0.005577,-0.623502,1.301378,0.725746
1074,544634174,0.602094,-0.059273,-0.796159,-0.012142,0.511841,1.585406,0.994575
1075,544667508,0.602585,-0.061741,-0.795357,-0.023080,0.398555,1.882060,0.710332
1076,544700842,0.605545,-0.062473,-0.792577,-0.035797,-0.273667,2.031484,0.347456
1077,544734176,0.615341,-0.059226,-0.784700,-0.046270,-1.325599,2.843496,-0.342105
1078,544767510,0.629809,-0.049897,-0.773454,-0.051640,-1.768537,3.423431,-0.691726
1079,544800844,0.641335,-0.037029,-0.764473,-0.054283,-0.941575,2.648368,-0.475601
1080,544834178,0.645998,-0.033250,-0.759995,-0.063530,-0.275864,-0.983504,0.779470
1081,544867512,0.652589,-0.033670,-0.753496,-0.072699,-0.822538,-2.452274,1.707832
1082,544900846,0.661192,-0.032683,-0.745466,-0.078007,0.143562,-3.317320,1.282401
1083,544934180,0.669654,-0.030263,-0.737828,-0.079402,0.342310,-3.290717,0.702229
1084,544967514,0.677771,-0.023537,-0.731172,-0.074205,0.661580,-2.303433,0.492095
1085,545000848,0.688559,-0.013133,-0.722121,-0.065594,1.345706,-1.495972,0.282644
1086,545034182,0.701315,-0.001457,-0.710511,-0.058103,1.427460,-0.402239,-0.011038
1087,545067516,0.713226,0.010821,-0.698939,-0.052173,1.532274,-0.468740,-0.136674
1088,545100850,0.724443,0.022383,-0.687413,-0.046811,1.436084,-0.370985,-0.112048
1089,545134184,0.735167,0.029123,-0.675816,-0.044729,1.168853,-0.201798,-0.106352
1090,545167518,0.744886,0.029825,-0.664964,-0.046096,0.985402,-0.293391,-0.303108
1091,545200852,0.753461,0.024870,-0.655193,-0.049482,0.533179,-0.676970,-0.721845
1092,545234186,0.760064,0.016722,-0.647476,-0.053342,-0.284421,-1.388472,-0.842367
1093,545267520,0.765034,0.010106,-0.641638,-0.054485,-0.751824,-1.839185,-0.771811
1094,545300854,0.768183,0.008874,-0.638140,-0.051384,-0.809006,-1.089860,-1.000572
1095,545334188,0.769745,0.014126,-0.636723,-0.043854,0.058713,-0.306383,-0.832248
1096,545367522,0.769637,0.020002,-0.637252,-0.034873,0.559477,-0.089214,-0.884881
1097,545400856,0.768513,0.022435,-0.638882,-0.027603,0.181005,0.560264,-1.009120
1098,545434190,0.766125,0.021650,-0.642027,-0.020803,-0.070484,0.868096,-0.103870
1099,545467524,0.762178,0.020840,-0.646944,-0.012703,-0.158990,1.325346,-0.369340
1100,545500858,0.752506,0.021866,-0.658203,-0.008523,3.080079,0.345046,2.519374
1101,545534192,0.746623,0.031915,-0.664514,-0.001963,-0.333235,2.525386,4.317249
1102,545567526,0.741633,0.046700,-0.668994,0.017170,0.395809,-0.077878,-0.802835
1103,545600860,0.733883,0.054230,-0.676440,0.030838,-0.555202,-0.812319,-0.698255
1104,545634194,0.727448,0.057694,-0.682599,0.039947,0.638316,-0.936974,-1.056019
1105,545667528,0.722854,0.058799,-0.687068,0.044834,1.141892,0.055653,0.637025
1106,545700862,0.716993,0.059576,-0.692617,0.051964,-0.119870,-0.113153,0.331321
1107,545734196,0.708211,0.060473,-0.700918,0.059510,0.508837,-1.055359,0.017427
1108,545767530,0.702345,0.058687,-0.706676,0.062645,0.866774,-0.780686,0.134738
1109,545800864,0.699009,0.055417,-0.710127,0.063893,0.353172,0.077358,-0.162016
1110,545834198,0.694403,0.051410,-0.714896,0.064291,0.408069,-0.016590,-0.019337
1111,545867532,0.689612,0.046548,-0.719846,0.064320,-0.042334,-0.479692,0.371886
1112,545900866,0.684892,0.042287,-0.724565,0.064717,0.323015,-0.367556,0.288008
1113,545934200,0.680302,0.036853,-0.729327,0.062935,0.135568,-0.625543,-0.108087
1114,545967534,0.676480,0.031210,-0.733330,0.060619,-0.020712,-0.762654,0.227140
1115,546000868,0.673271,0.025971,-0.736600,0.059153,-0.176357,-1.159603,0.182958
1116,546034202,0.669101,0.021665,-0.740590,0.058381,0.550229,-1.131062,0.160105
1117,546067536,0.665054,0.017387,-0.744577,0.055252,0.073838,-0.783306,0.078454
1118,546100870,0.661182,0.015132,-0.748118,0.054545,0.025544,-0.895877,-0.140137
1119,546134204,0.656264,0.013964,-0.752472,0.054357,0.546734,-0.531847,0.120425
1120,546167538,0.650476,0.012733,-0.757599,0.053002,0.332405,-0.029866,0.241555
1121,546200872,0.644816,0.010769,-0.762508,0.052205,-0.202551,0.305591,0.074813
1122,546234206,0.639540,0.007221,-0.767098,0.050444,-0.418870,0.622407,0.239623
1123,546267540,0.634372,0.002688,-0.771613,0.047175,-0.562032,0.629357,0.299941
1124,546300874,0.628690,-0.000993,-0.776456,0.043720,-0.980060,0.322111,-0.183240
1125,546334208,0.622930,-0.002828,-0.781175,0.041988,-0.912986,0.217371,-0.011300
1126,546367542,0.617026,-0.003583,-0.785931,0.040316,-0.625294,0.337662,-0.090984
1127,546400876,0.610200,-0.003788,-0.791317,0.038817,-0.869275,0.107670,0.153080
1128,546434210,0.602837,-0.004415,-0.797002,0.037442,-0.921683,0.704544,0.296069
1129,546467544,0.595557,-0.004957,-0.802560,0.035094,-1.272078,1.217643,0.246589
1130,546500878,0.589622,-0.004474,-0.806971,0.034214,-2.289649,0.473281,1.569163
1131,546534212,0.586239,-0.003638,-0.809471,0.033386,-0.782281,2.782630,1.717675
1132,546567546,0.587444,-0.002956,-0.808857,0.026441,-0.428384,3.704414,1.033198
1133,546600880,0.596057,-0.000332,-0.802821,0.015510,-1.197729,3.602081,-0.611170
1134,546634214,0.611511,0.007648,-0.791153,0.010989,-2.852632,3.094184,-1.116179
1135,546667548,0.628756,0.021663,-0.777220,0.013141,-2.292505,3.990963,-1.186420
1136,546700882,0.634508,0.031809,-0.772262,0.006785,1.265571,-0.188402,-0.695912
1137,546734216,0.638789,0.025625,-0.768925,-0.009651,-0.664818,-2.455784,2.297338
1138,546767550,0.647076,0.019858,-0.761894,-0.021514,0.157603,-3.319988,2.192770
1139,546800884,0.658047,0.016185,-0.752286,-0.028726,0.350770,-4.025852,1.634246
1140,546834218,0.670116,0.021657,-0.741568,-0.024469,0.897678,-2.950323,0.579160
1141,546867552,0.681909,0.033126,-0.730611,-0.012542,1.165505,-2.053230,-0.228164
1142,546900886,0.693283,0.046227,-0.719214,0.000815,1.195233,-1.410188,-0.119059
1143,546934220,0.704768,0.061381,-0.706667,0.014270,1.808554,-0.597347,0.260415
1144,546967554,0.717726,0.076410,-0.691651,0.026387,1.967585,0.422693,0.068416
1145,547000888,0.731503,0.086117,-0.675561,0.033945,1.330282,1.033795,0.377371
1146,547034222,0.744935,0.087894,-0.660408,0.035408,1.150176,0.814322,0.428595
1147,547067556,0.757043,0.082556,-0.647322,0.033035,0.890979,-0.222051,-0.226129
1148,547100890,0.766789,0.073091,-0.637087,0.029318,0.536800,-1.195537,-0.914403
1149,547134224,0.774196,0.065287,-0.629031,0.026913,0.407663,-1.847851,-1.521275
1150,547167558,0.778507,0.062088,-0.623975,0.027836,0.518670,-1.732334,-1.637774
1151,547200892,0.780035,0.063321,-0.621788,0.031030,1.039270,-1.001683,-1.650700
1152,547234226,0.779683,0.064711,-0.621924,0.034121,1.062652,-0.660447,-1.277072
1153,547267560,0.778872,0.065618,-0.622573,0.038766,0.541810,-0.047315,-1.142799
1154,547300894,0.774840,0.062718,-0.627756,0.040729,1.078010,1.001135,-0.722258
1155,547334228,0.770848,0.055200,-0.633461,0.038988,-1.122221,2.605492,1.023658
1156,547367562,0.763880,0.050150,-0.642319,0.038016,1.464669,0.574530,1.425024
1157,547400896,0.754198,0.051873,-0.653557,0.037465,0.714894,0.906124,5.865499
1158,547434230,0.749318,0.056003,-0.658257,0.046154,-0.046686,1.753507,-2.166040
1159,547467564,0.737537,0.055988,-0.670936,0.052881,-0.500234,-2.604673,-0.912405
1160,547500898,0.729371,0.055097,-0.679350,0.059272,1.637567,-1.304554,-0.451447
1161,547534232,0.724825,0.048416,-0.684907,0.056866,0.496654,0.605567,0.847031
1162,547567566,0.717237,0.044638,-0.693072,0.057246,-1.231109,-0.131896,0.239174
1163,547600900,0.709360,0.042911,-0.701027,0.059803,-0.156189,-0.731688,0.053994
1164,547634234,0.705507,0.039668,-0.705018,0.060678,-0.385985,0.190357,-0.003347
1165,547667568,0.700738,0.038018,-0.709733,0.062018,0.077379,0.180140,0.051966
1166,547700902,0.694655,0.037536,-0.715379,0.065771,0.723064,-0.369441,0.057366
1167,547734236,0.689928,0.034364,-0.720056,0.066227,0.406426,-0.303926,0.482488
1168,547767570,0.687765,0.029192,-0.722506,0.064488,-0.537054,-0.399396,0.045558
1169,547800904,0.685060,0.023481,-0.725442,0.062630,-0.062956,-0.809621,-0.069508
1170,547834238,0.681120,0.018564,-0.729387,0.061431,0.614585,-1.436263,0.014610
1171,547867572,0.676283,0.013681,-0.734191,0.058866,0.601170,-1.058775,0.051351
1172,547900906,0.671389,0.010723,-0.738818,0.057594,0.271740,-1.025349,0.024747
1173,547934240,0.666634,0.008852,-0.743212,0.056601,0.579818,-0.096796,0.092650
1174,547967574,0.662126,0.006342,-0.747437,0.054171,-0.325880,0.561651,-0.108805
1175,548000908,0.656730,0.002664,-0.752350,0.052111,-0.287090,0.589284,0.371869
1176,548034242,0.651019,-0.002213,-0.757522,0.048760,-0.406505,0.590070,0.048154
1177,548067576,0.645207,-0.007856,-0.762703,0.044474,-0.583258,0.478342,-0.162173
1178,548100910,0.638858,-0.012612,-0.768205,0.040112,-0.459117,0.275069,0.043358
1179,548134244,0.632105,-0.014955,-0.773889,0.036906,-0.802140,0.090943,-0.105473
1180,548167578,0.625684,-0.014812,-0.779163,0.035391,-1.559072,0.533186,-0.098395
1181,548200912,0.618495,-0.013829,-0.784922,0.034894,-1.454876,1.386664,0.080531
1182,548234246,0.610872,-0.013167,-0.790909,0.034223,-1.578117,1.693962,0.152066
1183,548267580,0.605093,-0.011739,-0.795403,0.033264,-2.052181,1.686499,1.617283
1184,548300914,0.605567,-0.009839,-0.795071,0.033184,-1.397153,3.344855,2.804450
1185,548334248,0.616071,-0.006199,-0.787245,0.026644,-1.848727,7.474563,2.750812
1186,548367582,0.628962,0.009841,-0.777238,0.016070,4.284617,4.906095,-3.117909
1187,548400916,0.636774,0.004161,-0.771003,-0.010097,-0.532401,0.829117,-1.014222
1188,548434250,0.643620,-0.003805,-0.764723,-0.031378,-2.335848,-2.514214,0.632930
1189,548467584,0.648413,-0.009283,-0.760047,-0.043022,-2.357577,-4.055558,2.397440
1190,548500918,0.655435,-0.009731,-0.753770,-0.046775,-0.072434,-3.287235,1.457881
1191,548534252,0.666019,-0.007620,-0.744444,-0.047018,0.381115,-3.286117,1.353001
1192,548567586,0.678752,-0.001322,-0.733224,-0.041516,0.390550,-2.428806,0.964336
1193,548600920,0.692459,0.008915,-0.720730,-0.031898,1.386325,-1.715423,-0.008368
1194,548634254,0.705704,0.021231,-0.707945,-0.019830,1.498061,-1.885706,-0.589498
1195,548667588,0.717858,0.039308,-0.695091,-0.005465,2.202626,-1.402681,-0.494121
1196,548700922,0.729858,0.058461,-0.681106,0.005642,2.686874,0.169584,-0.607630
1197,548734256,0.741780,0.070174,-0.666919,0.010197,2.520290,0.848470,-0.255013
1198,548767590,0.753467,0.067688,-0.654001,0.005983,1.916982,0.592720,-0.709191
1199,548800924,0.763487,0.055109,-0.643500,-0.002329,0.939026,-1.183392,-1.149250
1200,548834258,0.769509,0.041060,-0.637285,-0.009184,0.427804,-2.467649,-1.536695
1201,548867592,0.771382,0.030747,-0.635540,-0.012672,-0.100756,-2.641855,-2.069974
1202,548900926,0.771523,0.027805,-0.635520,-0.011852,-0.557694,-1.182697,-0.991469
1203,548934260,0.772329,0.030245,-0.634497,-0.007376,-0.673315,0.107463,-0.228265
1204,548967594,0.771417,0.036887,-0.635295,0.001422,-0.673407,0.625851,0.127424
1205,549000928,0.770460,0.043531,-0.635958,0.010050,-0.817657,2.470520,0.787517
1206,549034262,0.768211,0.047497,-0.638225,0.017693,-1.519042,2.266713,-0.120856
1207,549067596,0.761656,0.052630,-0.645331,0.026545,1.154569,0.596221,-1.060735
1208,549100930,0.749072,0.054057,-0.659747,0.027398,3.747524,0.996481,3.502989
1209,549134264,0.745881,0.057585,-0.662920,0.030492,-0.099323,2.627353,3.500079
1210,549167598,0.739178,0.064521,-0.668868,0.046011,0.415111,-1.523171,-0.734781
1211,549200932,0.726786,0.068637,-0.680696,0.061410,1.754904,-1.819528,-1.290488
1212,549234266,0.718651,0.060770,-0.690298,0.058169,0.698867,-2.484236,-0.525394
1213,549267600,0.712905,0.057276,-0.696414,0.059495,-0.050488,-0.972560,-0.098496
1214,549300934,0.703646,0.057359,-0.705045,0.067464,-0.718785,-0.610154,0.049113
1215,549334268,0.693640,0.059199,-0.714058,0.074346,0.137427,-0.220655,0.600721
1216,549367602,0.686354,0.062911,-0.720124,0.080182,-0.366825,0.561520,0.499208
1217,549400936,0.679243,0.065829,-0.725587,0.088691,0.105111,0.324331,-0.210153
1218,549434270,0.673269,0.064106,-0.730821,0.092450,0.514895,-0.225190,0.250110
1219,549467604,0.669035,0.060063,-0.734893,0.093623,0.137206,-0.358100,0.315622
1220,549500938,0.664422,0.055531,-0.739170,0.095578,-0.217480,-0.976753,-0.292355
1221,549534272,0.660246,0.051761,-0.743026,0.096722,-0.114516,-0.822255,0.178349
1222,549567606,0.655265,0.049978,-0.747459,0.097377,0.026590,-0.540794,-0.030501
1223,549600940,0.648027,0.050288,-0.753498,0.099098,0.355288,-0.799499,-0.086782
1224,549634274,0.640792,0.050607,-0.759393,0.100967,0.063668,-0.478815,0.000780
1225,549667608,0.634176,0.050702,-0.764686,0.102730,-0.317356,0.405083,0.137100
1226,549700942,0.627402,0.048791,-0.770431,0.102319,-0.339011,0.832158,0.161816
1227,549734276,0.620300,0.045743,-0.776559,0.100690,-0.446650,0.289372,0.121954
1228,549767610,0.613334,0.042281,-0.782622,0.097897,-0.321374,0.405056,0.288171
1229,549800944,0.606393,0.039414,-0.788566,0.094578,-0.790215,0.254015,0.064120
1230,549834278,0.599814,0.038814,-0.793912,0.092019,-1.360776,0.231565,-0.140829
1231,549867612,0.592628,0.040184,-0.799398,0.090485,-1.527914,0.703566,0.068570
1232,549900946,0.584794,0.041498,-0.805267,0.088804,-1.632140,1.131880,0.190095
1233,549934280,0.578445,0.042762,-0.810052,0.086228,-1.946099,1.665504,0.027701
1234,549967614,0.577303,0.045187,-0.811033,0.083379,-2.172248,1.285701,1.502488
1235,550000948,0.580173,0.046561,-0.809286,0.079592,-2.543803,2.523403,1.680224
1236,550034282,0.590467,0.054853,-0.801509,0.077266,-3.320117,4.557709,1.354270
1237,550067616,0.599791,0.066616,-0.794288,0.070480,1.135248,4.816736,-1.856027
1238,550100950,0.608959,0.068570,-0.788284,0.055877,0.329190,1.384142,-1.010446
1239,550134284,0.619131,0.067305,-0.781348,0.041108,-1.091186,-1.549571,-0.058927
1240,550167618,0.627772,0.065216,-0.775141,0.029214,-1.100989,-2.675566,1.494464
1241,550200952,0.635512,0.065630,-0.769008,0.022161,0.014709,-2.195447,1.696604
1242,550234286,0.644170,0.067627,-0.761670,0.019441,0.721923,-2.391883,1.513098
1243,550267620,0.654871,0.073008,-0.751921,0.021801,1.646226,-2.360281,1.559436
1244,550300954,0.668523,0.081945,-0.738611,0.029390,0.858623,-1.392930,0.469253
1245,550334288,0.681384,0.092116,-0.725124,0.038377,1.242395,-0.724255,-0.140310
1246,550367622,0.694035,0.104771,-0.710636,0.048813,1.529992,-0.812781,-0.235330
1247,550400956,0.707535,0.119741,-0.693917,0.059857,1.679089,0.082868,-0.132456
1248,550434290,0.721226,0.130721,-0.677051,0.066291,1.877558,0.810835,0.116961
1249,550467624,0.734925,0.131500,-0.662087,0.065429,1.475211,0.531392,-0.259874
1250,550500958,0.748396,0.125499,-0.648340,0.062088,0.382786,-0.525613,-0.417034
1251,550534292,0.760070,0.117074,-0.636543,0.058722,0.153008,-1.265822,-0.775447
1252,550567626,0.768681,0.110312,-0.627492,0.057121,0.101220,-1.870362,-1.655248
1253,550600960,0.773934,0.106837,-0.621551,0.057728,-0.152249,-1.945570,-1.664154
1254,550634294,0.777005,0.109063,-0.616889,0.062149,-0.166874,-1.402821,-1.070148
1255,550667628,0.777546,0.116365,-0.613943,0.070735,0.017761,-0.877921,-1.324634
1256,550700962,0.775582,0.127240,-0.612846,0.082161,0.216644,0.288079,-1.067901
1257,550734296,0.772095,0.137364,-0.613389,0.093810,-0.417350,1.157757,-0.158614
1258,550767630,0.767283,0.143898,-0.616214,0.104392,-0.710061,1.684709,-0.164251
1259,550800964,0.760979,0.145823,-0.622013,0.113110,-0.828795,0.637605,0.702307
1260,550834298,0.749228,0.150880,-0.633330,0.121785,4.317443,1.389520,1.963740
1261,550867632,0.742298,0.160636,-0.638844,0.122943,0.644901,4.353755,5.183836
1262,550900966,0.739165,0.167844,-0.639204,0.130114,-0.597649,-1.532286,1.099216
1263,550934300,0.728002,0.179740,-0.642959,0.156068,1.185386,-2.347408,-1.294590
1264,550967634,0.718108,0.176168,-0.653287,0.162940,2.203962,-0.458559,-2.162926
1265,551000968,0.713234,0.167069,-0.662393,0.157060,1.035479,-2.441488,-1.121293
1266,551034302,0.703481,0.171166,-0.670359,0.162736,0.581294,0.283230,0.626018
1267,551067636,0.690913,0.176417,-0.680092,0.170408,-0.360812,-0.665524,0.285224
1268,551100970,0.677893,0.184237,-0.688704,0.179589,1.216211,-1.155795,0.445261
1269,551134304,0.669361,0.186431,-0.695050,0.184803,1.412474,0.154061,0.281312
1270,551167638,0.663473,0.180095,-0.702850,0.182808,0.317574,-0.087194,-0.122032
1271,551200972,0.656641,0.171458,-0.711973,0.180461,-0.372221,-0.924520,0.125765
1272,551234306,0.650693,0.162434,-0.720221,0.177604,-0.674558,-0.260583,0.545646
1273,551267640,0.646892,0.156442,-0.726004,0.173269,-1.094330,-0.304321,-0.181651
1274,551300974,0.641030,0.156165,-0.731211,0.173409,-0.393695,-0.753068,-0.033350
1275,551334308,0.634415,0.156665,-0.736704,0.174031,-0.235974,-0.660965,-0.004859
1276,551367642,0.628297,0.157283,-0.741927,0.173484,0.003384,0.085724,0.053535
1277,551400976,0.621683,0.156418,-0.747980,0.172096,-0.040768,0.352400,0.129235
1278,551434310,0.614936,0.153528,-0.754507,0.170439,-0.114302,0.288261,-0.073146
1279,551467644,0.608306,0.151021,-0.760730,0.168802,-0.714449,-0.249097,0.141116
1280,551500978,0.600568,0.150726,-0.767417,0.166486,-0.350576,0.194445,0.087486
1281,551534312,0.593523,0.151683,-0.773271,0.163774,-1.584021,-0.149464,-0.054762
1282,551567646,0.585976,0.154216,-0.778692,0.162897,-2.290302,-0.076336,-0.017629
1283,551600980,0.576551,0.155754,-0.786001,0.159935,-1.432774,0.839648,0.135499
1284,551634314,0.567665,0.155492,-0.793462,0.155062,-1.177515,0.747441,0.164750
1285,551667648,0.561922,0.156737,-0.797530,0.153851,-2.738154,0.047061,1.414865
1286,551700982,0.559555,0.161144,-0.798049,0.155228,-3.374546,0.243504,2.131124
1287,551734316,0.562411,0.168896,-0.794146,0.156676,-3.266122,2.088512,2.136227
1288,551767650,0.578478,0.183812,-0.778132,0.161660,-6.676850,6.120434,-0.451194
1289,551800984,0.587131,0.197728,-0.768803,0.158650,0.938682,5.091594,-2.624857
1290,551834318,0.599353,0.200285,-0.760477,0.149612,-1.738790,0.837811,-0.708155
1291,551867652,0.611854,0.195944,-0.754616,0.133576,0.546106,-1.888193,1.802496
1292,551900986,0.624768,0.189511,-0.748010,0.119498,0.444360,-3.643175,2.982083
1293,551934320,0.637114,0.187774,-0.738745,0.114587,1.241491,-3.833928,2.104779
1294,551967654,0.649490,0.192139,-0.726162,0.118244,1.657269,-3.073373,1.375392
1295,552000988,0.661868,0.202127,-0.709781,0.131652,1.278637,-2.085740,0.254700
1296,552034322,0.672740,0.215453,-0.692159,0.148203,1.346020,-1.151935,-0.378752
1297,552067656,0.682071,0.231001,-0.673817,0.165637,1.664114,-1.426377,-0.395725
1298,552100990,0.690092,0.252301,-0.652306,0.186174,2.230676,-0.546483,-0.605595
1299,552134324,0.698427,0.272768,-0.629408,0.204181,2.049693,1.506512,-0.803488
1300,552167658,0.708467,0.282804,-0.610562,0.212973,1.178316,1.705876,-0.600739
1301,552200992,0.720260,0.281528,-0.596686,0.214430,0.672015,1.412388,-0.462712
1302,552234326,0.733410,0.271508,-0.585740,0.212954,0.132010,0.195994,-0.384585
1303,552267660,0.743066,0.260669,-0.578696,0.212278,0.569359,-1.477013,-1.169058
1304,552300994,0.748060,0.254351,-0.574088,0.214900,0.515181,-2.619035,-1.757861
1305,552334328,0.748798,0.256158,-0.569397,0.222527,0.302602,-2.272436,-1.535604
1306,552367662,0.744315,0.266810,-0.565078,0.235671,0.539805,-0.938945,-1.442901
1307,552400996,0.737361,0.282689,-0.559354,0.252102,-0.155081,0.414349,-0.831091
1308,552434330,0.729494,0.295953,-0.555640,0.267511,-0.681774,1.444492,-1.050340
1309,552467664,0.720708,0.303848,-0.556609,0.280161,-2.055507,0.826701,-0.099161
1310,552500998,0.705647,0.316328,-0.564554,0.288661,2.322843,4.481006,5.209549
1311,552534332,0.697015,0.332384,-0.565923,0.288911,-0.823965,5.100850,7.944223
1312,552567666,0.692638,0.338941,-0.561049,0.301070,1.805961,-0.603430,-3.140249
1313,552601000,0.677720,0.343416,-0.568393,0.315812,2.134315,-3.438246,-3.580787
1314,552634334,0.670123,0.335225,-0.579431,0.320728,4.643379,-1.622497,-1.785732
1315,552667668,0.671023,0.322952,-0.589316,0.313343,2.060734,0.835951,0.749057
1316,552701002,0.660972,0.324145,-0.600783,0.311694,-0.405760,-1.724666,0.170553
1317,552734336,0.639666,0.339562,-0.610416,0.320881,1.100777,-1.559617,0.390624
1318,552767670,0.622642,0.348558,-0.619596,0.327066,1.380404,0.188806,0.163537
1319,552801004,0.614636,0.347505,-0.629211,0.324967,0.062137,1.412577,-0.108047
1320,552834338,0.608351,0.342392,-0.640575,0.319980,-0.637853,0.445086,0.101736
1321,552867672,0.599137,0.336873,-0.653315,0.317454,-0.319596,-0.341681,0.587563
1322,552901006,0.590139,0.331416,-0.665324,0.315103,-0.386102,-1.170124,-0.142076
1323,552934340,0.583481,0.331442,-0.670843,0.315773,-0.781319,-1.306654,0.208892
1324,552967674,0.576160,0.334671,-0.674616,0.317766,-0.773117,-1.315886,-0.118212
1325,553001008,0.566479,0.339722,-0.680024,0.318285,0.104776,-0.510107,0.207004
1326,553034342,0.557773,0.343347,-0.686290,0.316317,-0.067901,-0.032556,0.198131
1327,553067676,0.550410,0.344422,-0.692325,0.314890,-0.428045,0.476036,0.138356
1328,553101010,0.544009,0.343555,-0.698845,0.312549,-0.345469,0.635765,0.262860
1329,553134344,0.537884,0.342477,-0.705838,0.308593,-0.438207,-0.226427,0.026514
1330,553167678,0.532720,0.340847,-0.712942,0.302976,-1.014325,-0.641668,-0.500372
1331,553201012,0.527890,0.340366,-0.719309,0.296859,-1.289988,-0.701384,0.302499
1332,553234346,0.522094,0.342726,-0.724418,0.291930,-1.919166,-0.669887,0.142321
1333,553267680,0.515410,0.347602,-0.728438,0.288010,-2.441765,-0.319358,0.584776
1334,553301014,0.513081,0.353018,-0.728077,0.286492,-2.804874,0.291167,0.700088
1335,553334348,0.515237,0.358490,-0.723566,0.287254,-5.194360,-0.434477,0.206900
1336,553367682,0.517472,0.371173,-0.711040,0.298198,-4.535380,0.696916,-0.048495
1337,553401016,0.522646,0.379617,-0.701351,0.301473,-3.815756,3.039199,0.262300
1338,553434350,0.536439,0.379117,-0.695879,0.290349,-0.904927,2.420523,1.719875
1339,553467684,0.556484,0.369630,-0.693168,0.270675,0.570745,-1.692588,0.885588
1340,553501018,0.574139,0.360258,-0.689462,0.255476,1.673717,-4.900073,1.400523
1341,553534352,0.583772,0.360319,-0.681139,0.255885,1.953396,-4.060538,1.373179
1342,553567686,0.589513,0.368044,-0.666378,0.270196,2.191874,-2.064797,0.672819
1343,553601020,0.593927,0.376297,-0.650271,0.287830,2.597199,-0.764512,0.608448
1344,553634354,0.598359,0.383959,-0.633613,0.305162,1.406463,-0.332854,0.625986
1345,553667688,0.602124,0.393105,-0.614659,0.324279,1.297509,0.228286,0.421961
1346,553701022,0.606149,0.400881,-0.595998,0.341631,1.512239,0.589743,0.086550
1347,553734356,0.611591,0.407277,-0.576975,0.356690,1.859733,0.642828,-0.192253
1348,553767690,0.618504,0.413306,-0.557343,0.368847,1.989532,0.578835,-0.515170
1349,553801024,0.625809,0.418798,-0.537229,0.380006,1.642797,1.419646,-0.716983
1350,553834358,0.635804,0.417095,-0.521791,0.386739,0.956983,1.446721,-0.996627
1351,553867692,0.647004,0.408744,-0.511350,0.391001,0.750957,0.157416,-1.119850
1352,553901026,0.655224,0.400569,-0.504142,0.395111,1.289101,-0.144652,-1.500340
1353,553934360,0.658391,0.397453,-0.499579,0.398772,1.597893,-1.088797,-1.918805
1354,553967694,0.657956,0.396849,-0.497280,0.402944,1.288253,-1.149296,-1.537445
1355,554001028,0.655132,0.396947,-0.497329,0.407365,-0.033131,-1.066066,-0.135019
1356,554034362,0.650311,0.398978,-0.493711,0.417383,-1.748393,-0.959684,0.719072
1357,554067696,0.642090,0.405253,-0.489151,0.429265,-2.850086,-1.183975,-0.105430
1358,554101030,0.629968,0.415729,-0.484073,0.442753,-2.121306,-1.980433,0.432325
1359,554134364,0.609215,0.436184,-0.480257,0.456071,2.249039,3.728919,1.035666
1360,554167698,0.593159,0.460579,-0.472921,0.460893,-1.484765,4.866824,4.918814
1361,554201032,0.586061,0.470672,-0.463944,0.468831,0.065721,0.979006,1.511412
1362,554234366,0.571405,0.478671,-0.466353,0.476374,1.760011,0.894383,-3.351124
1363,554267700,0.564102,0.476245,-0.474450,0.479504,2.465748,-0.276277,-1.036457
1364,554301034,0.564790,0.467566,-0.484402,0.477279,2.248173,1.234875,0.304871
1365,554334368,0.565045,0.462581,-0.489051,0.477094,0.481553,-0.470542,0.043768
1366,554367702,0.550256,0.473752,-0.490340,0.482069,1.771915,-1.702098,-0.258799
1367,554401036,0.535347,0.486301,-0.492039,0.484623,1.245675,0.297191,-0.046031
1368,554434370,0.528260,0.490940,-0.497160,0.482493,0.812002,1.002710,0.065937
1369,554467704,0.522958,0.491539,-0.506831,0.477570,0.729302,0.757733,-0.440354
1370,554501038,0.513912,0.492126,-0.522097,0.470286,1.098006,0.514317,-0.009797
1371,554534372,0.506727,0.490973,-0.536724,0.462760,0.627433,-0.736543,0.705742
1372,554567706,0.498666,0.492389,-0.546420,0.458648,0.733808,-0.954241,-0.469268
1373,554601040,0.488834,0.497368,-0.553428,0.455447,0.782138,-1.034797,-0.054478
1374,554634374,0.479470,0.503960,-0.559225,0.451051,-0.141105,-0.420693,0.229972
1375,554667708,0.470960,0.510090,-0.566338,0.444199,-0.714107,0.175512,0.344609
1376,554701042,0.462271,0.514280,-0.574864,0.437494,-0.586582,0.281870,-0.015424
1377,554734376,0.455549,0.515699,-0.583316,0.431647,-1.015536,-0.148648,0.533262
1378,554767710,0.450876,0.515493,-0.592135,0.424737,-1.029703,-0.681961,0.142464
1379,554801044,0.446670,0.516183,-0.600729,0.416189,-0.373268,-1.602470,-0.200429
1380,554834378,0.441250,0.519784,-0.606167,0.409551,-0.563058,-1.985151,0.332638
1381,554867712,0.434996,0.524980,-0.610576,0.403011,-1.685893,-1.870420,0.100491
1382,554901046,0.428485,0.530842,-0.613528,0.397792,-2.217452,-1.964651,-0.115386
1383,554934380,0.425595,0.535722,-0.612787,0.395487,-3.201086,-1.646229,0.463979
1384,554967714,0.428438,0.538394,-0.607707,0.396626,-4.180151,-1.726367,1.654839
1385,555001048,0.436143,0.543480,-0.588396,0.410177,-7.080800,-2.945437,-0.786019
1386,555034382,0.445997,0.549017,-0.573779,0.412906,-4.151041,0.732290,0.489620
1387,555067716,0.466410,0.542999,-0.568686,0.405286,-0.210924,-0.223138,1.000472
1388,555101050,0.488899,0.530896,-0.566579,0.397697,3.157677,-3.722628,0.867567
1389,555134384,0.500409,0.523681,-0.560479,0.401572,3.437577,-2.774500,1.503422
1390,555167718,0.504709,0.520580,-0.551460,0.412558,3.492925,-0.042038,1.523754
1391,555201052,0.507945,0.518040,-0.538157,0.429022,2.248847,0.291662,0.486558
1392,555234386,0.507787,0.519231,-0.521425,0.448012,2.200173,1.556929,1.400500
1393,555267720,0.507277,0.520772,-0.500737,0.469868,1.331277,1.740861,1.121782
1394,555301054,0.507662,0.520419,-0.481721,0.489322,1.205605,2.398959,-0.039774
1395,555334388,0.509402,0.520935,-0.461186,0.506449,0.711872,3.022483,-0.274594
1396,555367722,0.512144,0.522457,-0.438848,0.521734,0.532516,2.727684,-0.674756
1397,555401056,0.517201,0.523286,-0.417543,0.533273,-0.823992,3.706877,-0.386620
1398,555434390,0.530462,0.513184,-0.406075,0.538891,-0.349340,1.664446,-0.458192
1399,555467724,0.545788,0.496937,-0.402564,0.541442,0.737957,0.382769,-0.968873
1400,555501058,0.557419,0.482969,-0.400369,0.543854,2.033216,0.207484,-1.785174
1401,555534392,0.562709,0.476332,-0.398079,0.545936,2.511870,0.132608,-2.659335
1402,555567726,0.562668,0.477356,-0.395534,0.546933,2.491513,-0.377439,-2.047439
1403,555601060,0.555157,0.487627,-0.388449,0.550614,1.021051,-0.432890,-0.860984
1404,555634394,0.543335,0.503564,-0.375816,0.556794,-1.258804,0.373694,0.100266
1405,555667728,0.532613,0.516674,-0.365155,0.562211,-3.581356,-0.532339,1.272075
1406,555701062,0.523741,0.525202,-0.364345,0.563168,-2.813782,-0.806949,-0.596809
1407,555734396,0.512104,0.533910,-0.375174,0.558553,0.328291,4.209540,-1.913346
1408,555767730,0.509099,0.538900,-0.392254,0.544599,-2.177572,2.375222,8.045670
1409,555801064,0.513102,0.532904,-0.400281,0.540890,-1.257770,0.701380,2.070587
1410,555834398,0.501171,0.536389,-0.406369,0.544082,2.171746,-0.144273,-1.642562
1411,555867732,0.481835,0.542235,-0.413814,0.550109,4.123782,0.006536,-1.564939
1412,555901066,0.475424,0.541447,-0.427168,0.546243,3.693256,1.229691,-0.572738
1413,555934400,0.474963,0.539768,-0.436120,0.541208,-0.168422,-0.815175,0.012097
1414,555967734,0.464447,0.548211,-0.442607,0.536563,0.364611,-0.884341,0.548461
1415,556001068,0.451891,0.558317,-0.447540,0.532759,0.265362,0.020881,0.420069
1416,556034402,0.443323,0.562500,-0.450287,0.533243,-0.344815,-0.817310,0.782230
1417,556067736,0.437867,0.562925,-0.454808,0.533465,-0.695631,-0.663914,0.031864
1418,556101070,0.435284,0.560825,-0.462355,0.531299,0.521677,-1.066839,0.018489
1419,556134404,0.432719,0.559371,-0.468058,0.529931,0.655272,-1.037159,0.328300
1420,556167738,0.428159,0.561498,-0.469968,0.529695,0.779219,-0.380516,-0.314286
1421,556201072,0.421439,0.566636,-0.469979,0.529603,1.745691,0.279154,-0.448224
1422,556234406,0.413515,0.572690,-0.468092,0.531008,1.445847,0.693712,0.025917
1423,556267740,0.406157,0.578493,-0.467963,0.530509,0.299410,1.081690,0.118149
1424,556301074,0.398410,0.584272,-0.470835,0.527500,-0.014722,1.341111,-0.098469
1425,556334408,0.391484,0.587985,-0.475771,0.524122,0.366510,0.816355,0.228703
1426,556367742,0.385535,0.590487,-0.481668,0.520318,0.270039,-0.269985,0.162217
1427,556401076,0.379364,0.594154,-0.488039,0.514712,0.396980,-0.467418,0.085608
1428,556434410,0.374136,0.598767,-0.493613,0.507832,-0.280824,-0.570108,0.070409
1429,556467744,0.368663,0.603960,-0.497907,0.501454,-0.683266,-1.351347,-0.016666
1430,556501078,0.361921,0.609208,-0.502211,0.495692,-0.742886,-1.553744,0.119370
1431,556534412,0.357099,0.613465,-0.507913,0.488071,-1.225947,-1.136837,0.136842
1432,556567746,0.353796,0.617269,-0.513165,0.480121,-0.791575,-1.154617,-0.244544
1433,556601080,0.349249,0.621501,-0.516499,0.474382,-0.341271,-2.066215,0.158109
1434,556634414,0.344259,0.625585,-0.517891,0.471132,-0.058828,-2.474638,1.036536
1435,556667748,0.339085,0.630435,-0.515538,0.471001,-0.929554,-1.418140,1.584697
1436,556701082,0.338399,0.634571,-0.510688,0.471222,-2.278452,-0.915921,1.694653
1437,556734416,0.346857,0.635239,-0.503868,0.471515,-4.178087,-2.096415,1.209441
1438,556767750,0.356618,0.635826,-0.483511,0.484575,-4.744955,-3.594211,-1.813211
1439,556801084,0.365528,0.636599,-0.468535,0.491581,-4.159215,-1.150226,-1.502901
1440,556834418,0.380886,0.630669,-0.459823,0.495774,-1.223191,-2.046937,-0.099905
1441,556867752,0.401551,0.620593,-0.459831,0.492163,2.273846,-0.579166,2.226258
1442,556901086,0.420827,0.607811,-0.461505,0.490439,3.910963,0.091153,2.614195
1443,556934420,0.434837,0.595215,-0.455028,0.499632,3.755150,0.256947,2.117924
1444,556967754,0.438830,0.588340,-0.437839,0.519258,2.446145,1.014948,1.239892
1445,557001088,0.439316,0.585639,-0.415738,0.539664,-0.357116,2.328741,0.510235
1446,557034422,0.442798,0.581074,-0.396280,0.556141,0.539566,2.184076,-0.107985
1447,557067756,0.445495,0.578011,-0.374258,0.572202,1.129310,2.382199,-0.494147
1448,557101090,0.446704,0.576793,-0.349598,0.587872,1.071403,3.118992,-0.977994
1449,557134424,0.449058,0.575174,-0.326775,0.600656,0.606621,3.336608,-1.702571
1450,557167758,0.454493,0.570277,-0.312709,0.608670,0.783479,2.603853,-2.017380
1451,557201092,0.461068,0.562539,-0.307520,0.613551,0.700433,1.873443,-2.842349
1452,557234426,0.467479,0.554233,-0.311568,0.614216,1.391906,1.196751,-2.200869
1453,557267760,0.469282,0.549828,-0.314883,0.615110,1.720976,-0.451231,-1.058739
1454,557301094,0.462989,0.552084,-0.306833,0.621889,-0.844975,-2.917401,-0.208024
1455,557334428,0.448294,0.562739,-0.293707,0.629397,-1.874470,-4.614346,0.305250
1456,557367762,0.431426,0.573284,-0.282138,0.636916,-1.155576,-3.928978,1.738114
1457,557401096,0.411215,0.587335,-0.275079,0.640562,-0.425179,3.747246,-1.637748
1458,557434430,0.398159,0.604871,-0.274988,0.632478,-3.536526,4.588755,8.174992
1459,557467764,0.400243,0.605571,-0.273461,0.631154,-0.552013,-0.423572,1.408583
1460,557501098,0.381729,0.614695,-0.269338,0.635561,2.158442,2.441692,-3.412966
1461,557534432,0.360546,0.619641,-0.268241,0.643542,1.649240,1.679616,0.366595
1462,557567766,0.356491,0.616498,-0.279116,0.644194,1.399289,2.108576,-0.919580
1463,557601100,0.358887,0.613811,-0.293693,0.638927,0.696337,0.219907,-0.280376
1464,557634434,0.351646,0.619177,-0.298008,0.635769,1.907986,-0.741628,0.683693
1465,557667768,0.337374,0.629173,-0.296107,0.634578,0.503051,-0.351193,-0.211248
1466,557701102,0.326048,0.635650,-0.294393,0.634841,-0.041049,0.180756,0.376723
1467,557734436,0.320075,0.638105,-0.296773,0.634308,-0.466620,0.495199,-0.184333
1468,557767770,0.318350,0.638578,-0.305388,0.630601,0.671568,0.122640,0.005639
1469,557801104,0.316086,0.639577,-0.315373,0.625794,0.820266,0.166223,0.205108
1470,557834438,0.311093,0.642842,-0.322413,0.621347,1.077070,0.654329,-0.333824
1471,557867772,0.303879,0.647508,-0.324120,0.619180,1.680116,1.056714,-0.106417
1472,557901106,0.296544,0.653295,-0.323812,0.616815,0.615155,0.696801,0.351685
1473,557934440,0.290625,0.659154,-0.324207,0.613181,-0.037569,-0.064401,-0.055620
1474,557967774,0.284875,0.665059,-0.326533,0.608249,-0.349884,-0.037695,0.251840
1475,558001108,0.279644,0.670397,-0.332302,0.601656,-0.603170,0.484965,0.241828
1476,558034442,0.275724,0.675428,-0.341113,0.592842,0.058281,0.432987,-0.070675
1477,558067776,0.272104,0.680243,-0.348660,0.584562,0.946754,-0.242997,0.232536
