sep=,
DeviceTag:,2B_Left
FirmwareVersion:,2.2.1
AppVersion:,2023.6.0
SyncStatus:,Synced
OutputRate:,30Hz
FilterProfile:,General
Measurement Mode:,Sensor fusion Mode - Complete(Quaternion)
StartTime: ,2026-05-27_15:18:37_968 AEST
© Movella Technologies B. V. 2005-2026

PacketCounter,SampleTimeFine,Quat_W,Quat_X,Quat_Y,Quat_Z,FreeAcc_X,FreeAcc_Y,FreeAcc_Z
1,3986421257,0.846448,-0.129525,-0.320614,0.404914,2.626373,-2.780852,-0.449400
2,3986454591,0.851111,-0.143279,-0.310497,0.398338,4.582242,-2.388393,-0.822181
3,3986487925,0.861645,-0.158648,-0.290932,0.384392,4.233922,-1.353336,-0.693160
4,3986521259,0.869860,-0.166258,-0.283837,0.367611,1.159249,-0.978570,-0.886640
5,3986554593,0.872247,-0.167593,-0.287940,0.358035,-1.561547,0.677990,-0.105830
6,3986587927,0.868617,-0.162150,-0.303785,0.356268,-0.848971,1.068617,-0.054957
7,3986621261,0.864698,-0.158267,-0.317195,0.355860,0.594274,2.788728,-0.361033
8,3986654595,0.862709,-0.159421,-0.324132,0.353916,-0.746179,1.491722,1.004383
9,3986687929,0.860776,-0.157135,-0.333228,0.351187,-0.357375,0.524536,2.075473
10,3986721263,0.859599,-0.153208,-0.342225,0.347129,-0.225619,0.943280,0.234069
11,3986754597,0.859705,-0.153949,-0.346332,0.342434,-1.272530,0.331427,0.125952
12,3986787931,0.860507,-0.157512,-0.345526,0.339601,-1.659963,-0.623275,0.079156
13,3986821265,0.860584,-0.161339,-0.342876,0.340294,-1.522192,-0.994689,-0.194263
14,3986854599,0.858545,-0.163902,-0.343142,0.343933,-1.317928,-0.023947,-0.909328
15,3986887933,0.854935,-0.166793,-0.344941,0.349688,-0.764752,-0.049501,-0.880027
16,3986921267,0.851941,-0.170417,-0.345090,0.355059,0.334836,0.311673,-0.666533
17,3986954601,0.849608,-0.173596,-0.345590,0.358604,-0.280755,-0.265832,-1.645051
18,3986987935,0.845378,-0.175714,-0.351026,0.362273,0.463733,0.118646,-0.618265
19,3987021269,0.839835,-0.176343,-0.359204,0.366814,0.282049,-0.233191,-0.443007
20,3987054603,0.831956,-0.173991,-0.373285,0.371799,-0.213496,-0.872997,-1.235939
21,3987087937,0.823593,-0.170516,-0.387191,0.377759,1.434875,-0.136599,0.301908
22,3987121271,0.818871,-0.166507,-0.394457,0.382269,1.822361,0.194333,-0.124171
23,3987154605,0.813698,-0.161807,-0.403916,0.385443,1.616500,-0.440595,0.223714
24,3987187939,0.809069,-0.155257,-0.413935,0.387247,1.356094,0.395000,0.411296
25,3987221273,0.807146,-0.147900,-0.421472,0.386008,0.700857,0.455752,-0.143779
26,3987254607,0.808012,-0.137626,-0.425786,0.383253,0.588152,0.074579,-0.427106
27,3987287941,0.809167,-0.125095,-0.429732,0.380698,0.582080,0.037665,-0.587366
28,3987321275,0.809019,-0.111638,-0.435360,0.378796,0.200407,-0.002574,0.370427
29,3987354609,0.808652,-0.099370,-0.438612,0.379246,0.140110,0.062310,0.505217
30,3987387943,0.807224,-0.087956,-0.440639,0.382741,-0.111949,-0.769318,0.445646
31,3987421277,0.802531,-0.075891,-0.447475,0.387235,-0.182790,-0.301291,-0.036434
32,3987454611,0.797533,-0.067309,-0.455327,0.389984,0.069056,0.844981,0.518441
33,3987487945,0.794285,-0.062576,-0.460297,0.391563,-1.349916,0.482479,0.499582
34,3987521279,0.790675,-0.060338,-0.465261,0.393351,-0.985253,1.576874,0.400452
35,3987554613,0.788756,-0.064855,-0.465353,0.396363,-0.571228,0.782846,0.502985
36,3987587947,0.784953,-0.070783,-0.467130,0.400784,-0.601073,-0.270551,1.040809
37,3987621281,0.775400,-0.072941,-0.478709,0.405305,-0.909402,-0.108190,0.476222
38,3987654615,0.765569,-0.075146,-0.489736,0.410385,0.150607,0.770510,0.708533
39,3987687949,0.760475,-0.083031,-0.489736,0.418262,0.019055,-0.237960,-0.106133
40,3987721283,0.751214,-0.090689,-0.493990,0.428284,-0.490807,-1.916346,-1.068502
41,3987754617,0.736161,-0.094896,-0.508316,0.436666,1.700888,-0.530672,2.401297
42,3987787951,0.732339,-0.103377,-0.506847,0.442830,1.756332,-0.858636,2.241991
43,3987821285,0.732845,-0.110230,-0.504025,0.443561,1.682221,-1.082740,2.159854
44,3987854619,0.733588,-0.112155,-0.504708,0.441066,1.700788,-0.749259,1.779367
45,3987887953,0.734762,-0.112160,-0.505565,0.438120,1.126426,-0.384506,0.765492
46,3987921287,0.734827,-0.112545,-0.507118,0.436113,0.489817,-0.462344,0.125817
47,3987954621,0.733252,-0.114394,-0.509652,0.435328,0.121785,-0.215210,-0.037963
48,3987987955,0.731545,-0.117807,-0.511532,0.435083,0.018855,0.131142,0.300904
49,3988021289,0.730825,-0.122473,-0.512019,0.434433,-0.286128,0.109427,0.129283
50,3988054623,0.730579,-0.127822,-0.511793,0.433572,-0.529916,-0.004133,-0.016940
51,3988087957,0.730913,-0.132929,-0.510997,0.432409,-0.534562,0.027454,0.237564
52,3988121291,0.732706,-0.137337,-0.509167,0.430151,-0.694900,0.262098,0.155352
53,3988154625,0.734817,-0.139841,-0.506735,0.428613,-0.988687,-0.013291,-0.349159
54,3988187959,0.735142,-0.140513,-0.505669,0.429093,-0.952103,0.514403,-0.586215
55,3988221293,0.735060,-0.141224,-0.504377,0.430519,-0.589108,0.589790,-0.511128
56,3988254627,0.735070,-0.142130,-0.502683,0.432181,-0.677672,0.513105,-0.515536
57,3988287961,0.735111,-0.143251,-0.501197,0.433466,-0.457296,0.746596,-0.533050
58,3988321295,0.736018,-0.144829,-0.499046,0.433883,-0.425087,0.357788,-0.488354
59,3988354629,0.736484,-0.146779,-0.496813,0.434999,-1.080460,0.469238,-0.947625
60,3988387963,0.736211,-0.149442,-0.494040,0.437704,-0.747138,0.881731,-1.604664
61,3988421297,0.732825,-0.154574,-0.492874,0.442889,-0.188369,0.434659,-1.346132
62,3988454631,0.724541,-0.162451,-0.494471,0.451828,0.342472,-0.798134,-0.254776
63,3988487965,0.714837,-0.171822,-0.495921,0.462112,2.080198,-1.221815,2.024419
64,3988521299,0.709706,-0.180645,-0.493850,0.468825,2.066279,-1.372993,3.855801
65,3988554633,0.708153,-0.183905,-0.492978,0.470820,1.503235,-1.808598,2.137997
66,3988587967,0.709054,-0.183896,-0.493043,0.469396,1.450209,-0.608554,0.869069
67,3988621301,0.712696,-0.185223,-0.490448,0.466066,0.974707,-0.467659,-0.115331
68,3988654635,0.715387,-0.186751,-0.488901,0.462948,0.381795,-0.067423,-0.540110
69,3988687969,0.717019,-0.187429,-0.489306,0.459711,0.664160,0.181299,-0.584362
70,3988721303,0.719853,-0.187537,-0.489612,0.454885,0.915787,0.418963,-0.555182
71,3988754637,0.725137,-0.187053,-0.488314,0.448036,0.831055,-0.012724,0.145951
72,3988787971,0.731017,-0.184029,-0.487723,0.440310,0.565428,-0.459436,-0.201734
73,3988821305,0.735713,-0.180266,-0.488914,0.432660,-0.182839,-0.080432,-0.649793
74,3988854639,0.739318,-0.177462,-0.490252,0.426108,-0.673497,0.182727,-0.880068
75,3988887973,0.742245,-0.176740,-0.490243,0.421304,-1.328957,0.417095,-1.404681
76,3988921307,0.744015,-0.177755,-0.490094,0.417915,-1.463664,0.455440,-1.343647
77,3988954641,0.745549,-0.180054,-0.489181,0.415257,-1.351247,0.455452,-0.692249
78,3988987975,0.746767,-0.183285,-0.487259,0.413914,-0.962815,0.034705,-0.299586
79,3989021309,0.747135,-0.186531,-0.485513,0.413850,-0.497887,0.337060,-0.458036
80,3989054643,0.746849,-0.189764,-0.484383,0.414220,-0.241721,0.609302,-0.532866
81,3989087977,0.746207,-0.192969,-0.483481,0.414950,-0.291915,0.695198,-0.291583
82,3989121311,0.744557,-0.196053,-0.483650,0.416269,-0.203280,0.594643,0.211021
83,3989154645,0.742285,-0.198250,-0.485155,0.417533,-0.310068,0.590032,0.075383
84,3989187979,0.740518,-0.200692,-0.486430,0.418022,-0.213797,0.611976,-0.005138
85,3989221313,0.739476,-0.204602,-0.485994,0.418478,-0.051399,0.040002,0.503891
86,3989254647,0.739089,-0.208416,-0.484587,0.418909,-0.033939,-0.306396,0.727685
87,3989287981,0.738515,-0.211049,-0.484029,0.419249,0.464713,-0.380479,0.748940
88,3989321315,0.738874,-0.213919,-0.482227,0.419238,0.542602,-0.353064,0.988377
89,3989354649,0.739140,-0.216837,-0.480808,0.418900,0.397781,-0.567320,0.879910
90,3989387983,0.738868,-0.220003,-0.480720,0.417828,0.558770,0.018508,0.887524
91,3989421317,0.740303,-0.224684,-0.478599,0.415225,0.651893,-0.004803,1.012690
92,3989454651,0.742230,-0.229395,-0.476579,0.411514,0.513854,-0.234886,0.822660
93,3989487985,0.743369,-0.232632,-0.477001,0.407129,0.265351,-0.136999,0.619523
94,3989521319,0.745934,-0.235570,-0.476112,0.401755,0.019323,-0.215968,0.544263
95,3989554653,0.749336,-0.238030,-0.474153,0.396254,0.162559,-0.390882,-0.038908
96,3989587987,0.751615,-0.241560,-0.473812,0.390161,0.557200,0.673284,-0.128674
97,3989621321,0.753763,-0.246976,-0.473105,0.383427,0.064103,0.479767,-0.342121
98,3989654655,0.755998,-0.253335,-0.471215,0.377154,-0.195044,0.426375,-0.696203
99,3989687989,0.758319,-0.260337,-0.467443,0.372390,-0.045611,0.260626,-0.726798
100,3989721323,0.759033,-0.266869,-0.464479,0.370012,-0.256820,-0.617227,-0.911752
101,3989754657,0.756450,-0.271316,-0.464833,0.371619,-0.506262,-0.515145,-0.394638
102,3989787991,0.752605,-0.273983,-0.466386,0.375504,-0.136735,0.454315,-0.142946
103,3989821325,0.748355,-0.277117,-0.467653,0.380095,-0.523158,0.593991,-0.274929
104,3989854659,0.742691,-0.281426,-0.468719,0.386666,-0.426514,0.438082,-0.166183
105,3989887993,0.734639,-0.286916,-0.470578,0.395652,0.049367,0.885035,0.077950
106,3989921327,0.726746,-0.295796,-0.468794,0.405681,0.303060,0.757023,1.059067
107,3989954661,0.721007,-0.309186,-0.461317,0.414414,1.742657,-0.437657,2.013523
108,3989987995,0.723680,-0.328671,-0.442441,0.415341,2.387904,0.263187,2.489179
109,3990021329,0.729902,-0.352234,-0.420491,0.407873,2.170113,-1.862921,1.298598
110,3990054663,0.733992,-0.370825,-0.408373,0.396203,1.188099,-2.217247,1.868681
111,3990087997,0.737630,-0.380001,-0.404261,0.384803,0.771444,-1.709427,1.458077
112,3990121331,0.739974,-0.382471,-0.406051,0.375867,-0.080027,-1.594197,0.703878
113,3990154665,0.739023,-0.378734,-0.414301,0.372506,0.049749,-1.005826,0.190231
114,3990187999,0.734166,-0.373732,-0.427167,0.372629,0.312119,0.266145,-0.275133
115,3990221333,0.728721,-0.371526,-0.438292,0.372604,-0.400822,0.450253,0.026070
116,3990254667,0.724771,-0.371771,-0.446055,0.370848,-0.828871,0.840634,0.361974
117,3990288001,0.723252,-0.372405,-0.450101,0.368280,-1.355550,0.273089,0.174898
118,3990321335,0.721712,-0.373013,-0.453086,0.367022,-1.758339,0.927573,-0.069419
119,3990354669,0.720084,-0.373981,-0.453565,0.368641,-1.680187,0.914286,-0.182297
120,3990388003,0.717663,-0.375064,-0.452385,0.373677,-1.858418,1.241252,-0.078027
121,3990421337,0.713227,-0.375244,-0.452043,0.382303,-1.365711,1.093674,-0.870362
122,3990454671,0.708125,-0.375450,-0.451980,0.391550,-0.442770,1.319540,-0.945043
123,3990488005,0.703405,-0.378250,-0.448221,0.401554,-0.356973,0.666048,-0.358918
124,3990521339,0.698497,-0.382951,-0.441076,0.413403,0.391334,-0.304491,-0.054510
125,3990554673,0.691092,-0.386461,-0.437011,0.426685,0.577274,-1.029040,0.443143
126,3990588007,0.680961,-0.386102,-0.438764,0.441252,1.266900,-1.628750,1.035605
127,3990621341,0.672271,-0.384458,-0.443519,0.451148,2.347715,-0.247068,1.678571
128,3990654675,0.670908,-0.386163,-0.443545,0.451695,1.381977,0.282230,2.467982
129,3990688009,0.672997,-0.384205,-0.445410,0.448410,0.631296,-0.282404,1.891682
130,3990721343,0.674293,-0.378744,-0.451525,0.444980,0.383185,0.225835,1.385892
131,3990754677,0.672882,-0.368807,-0.463657,0.442982,0.157938,-0.528495,0.940581
132,3990788011,0.670288,-0.358042,-0.478200,0.440278,0.625583,0.397890,1.620062
133,3990821345,0.671700,-0.349246,-0.487131,0.435373,0.199484,0.068738,1.684743
134,3990854679,0.673354,-0.338845,-0.497163,0.429660,-0.552247,-0.707583,1.020748
135,3990888013,0.673305,-0.326233,-0.509137,0.425454,-0.932328,-0.682796,0.884166
136,3990921347,0.672400,-0.311218,-0.521338,0.423353,-0.847210,-0.563861,1.118117
137,3990954681,0.671393,-0.294307,-0.533124,0.422366,-0.779500,-0.190283,0.989973
138,3990988015,0.672975,-0.280185,-0.539095,0.421874,-1.088027,0.705964,0.089462
139,3991021349,0.672185,-0.269223,-0.542540,0.425836,-1.234817,-0.222476,0.555323
140,3991054683,0.664420,-0.257544,-0.551732,0.433370,-0.362415,1.206219,0.733659
141,3991088017,0.658113,-0.249938,-0.557290,0.440280,-0.761733,1.138265,1.024061
142,3991121351,0.655671,-0.246513,-0.556176,0.447208,-0.575894,0.252836,1.039445
143,3991154685,0.653126,-0.244159,-0.555040,0.453590,0.147599,-0.013751,0.757616
144,3991188019,0.650752,-0.243801,-0.553393,0.459171,0.782048,-0.297357,0.395427
145,3991221353,0.650984,-0.248276,-0.548393,0.462432,1.366925,-0.345573,0.285936
146,3991254687,0.655010,-0.255440,-0.541121,0.461412,1.005181,-0.761771,0.452127
147,3991288021,0.659829,-0.259655,-0.534964,0.459368,0.848820,-1.207519,-0.001689
148,3991321355,0.664055,-0.261196,-0.529855,0.458324,1.428159,-1.093073,0.358597
149,3991354689,0.665914,-0.259423,-0.529132,0.457468,1.303052,-1.353904,0.409629
150,3991388023,0.667213,-0.256906,-0.531074,0.454738,1.376656,-0.236742,0.848888
151,3991421357,0.671718,-0.258168,-0.529415,0.449294,0.107074,0.052109,0.688354
152,3991454691,0.675526,-0.257823,-0.529276,0.443912,0.432321,-0.114281,0.964667
153,3991488025,0.676672,-0.255838,-0.532386,0.439576,-0.100610,0.456614,0.928584
154,3991521359,0.678085,-0.253572,-0.534941,0.435591,-0.861626,0.396643,0.851396
155,3991554693,0.680414,-0.248876,-0.537598,0.431375,-0.887944,0.312249,0.067748
156,3991588027,0.683311,-0.243971,-0.539907,0.426690,-1.530982,0.570773,-0.309289
157,3991621361,0.688886,-0.238641,-0.537863,0.423309,-1.646024,0.412571,-0.941092
158,3991654695,0.694398,-0.232151,-0.534592,0.422054,-1.646898,0.371596,-2.108319
159,3991688029,0.696513,-0.224331,-0.534022,0.423515,-1.669560,0.357885,-2.096931
160,3991721363,0.697119,-0.216193,-0.533669,0.427180,-1.076148,0.615829,-2.243617
161,3991754697,0.697648,-0.209962,-0.531600,0.431978,-0.642961,0.370040,-1.919110
162,3991788031,0.696972,-0.205532,-0.529028,0.438310,0.125956,0.007091,-1.248675
163,3991821365,0.694082,-0.202226,-0.527849,0.445792,0.722648,-0.400593,-0.510496
164,3991854699,0.689713,-0.199918,-0.527878,0.453512,1.304233,-0.427754,0.251259
165,3991888033,0.687405,-0.200397,-0.525116,0.459966,1.773531,-0.368948,0.471944
166,3991921367,0.689075,-0.204937,-0.518784,0.462643,2.025463,-0.109222,0.617961
167,3991954701,0.695194,-0.214296,-0.508662,0.460484,1.487097,-0.570549,0.955229
168,3991988035,0.703044,-0.223015,-0.497969,0.456093,0.837218,-0.892275,1.335129
169,3992021369,0.710918,-0.226748,-0.490421,0.450188,1.029107,-0.922634,1.288493
170,3992054703,0.719088,-0.226658,-0.486021,0.441952,1.005812,-0.631800,1.620544
171,3992088037,0.729303,-0.225871,-0.479918,0.432177,0.747813,-0.186319,1.621777
172,3992121371,0.740341,-0.224252,-0.473060,0.421688,0.868751,-0.429879,1.210423
173,3992154705,0.748746,-0.221306,-0.469917,0.411802,0.142068,-0.123040,1.041844
174,3992188039,0.755086,-0.215183,-0.469097,0.404339,0.015251,0.310731,0.998968
175,3992221373,0.759431,-0.206625,-0.470265,0.399277,-0.289850,0.815783,-0.118516
176,3992254707,0.761344,-0.197488,-0.473660,0.396232,-1.156714,1.054607,-0.326146
177,3992288041,0.763844,-0.189708,-0.474349,0.394394,-0.934406,1.466852,-0.992055
178,3992321375,0.767762,-0.184683,-0.470421,0.393875,-1.639131,0.635104,-1.181037
179,3992354709,0.769735,-0.177788,-0.468327,0.395689,-1.820658,0.253182,-1.442701
180,3992388043,0.769992,-0.169982,-0.467998,0.398995,-1.299060,0.585644,-2.126955
181,3992421377,0.770904,-0.164879,-0.465407,0.402390,-1.128775,0.637235,-1.416936
182,3992454711,0.772543,-0.161419,-0.460440,0.406344,-1.028858,0.186415,-1.348643
183,3992488045,0.771858,-0.157319,-0.458215,0.411733,-0.184913,0.024341,-0.883589
184,3992521379,0.770054,-0.153621,-0.456921,0.417901,0.833072,-0.127308,-0.341617
185,3992554713,0.768419,-0.153393,-0.453290,0.424889,1.365887,-0.938864,-0.039454
186,3992588047,0.767584,-0.158658,-0.445689,0.432438,1.881343,-1.415317,0.359082
187,3992621381,0.769754,-0.168496,-0.434648,0.436083,1.928953,-0.801726,1.010501
188,3992654715,0.774712,-0.179279,-0.423574,0.433895,1.465021,-0.937164,1.259265
189,3992688049,0.784100,-0.190057,-0.408837,0.426519,1.577377,-0.207600,1.094093
190,3992721383,0.797565,-0.198126,-0.391110,0.414329,0.981776,-0.688714,0.650558
191,3992754717,0.811356,-0.200294,-0.377482,0.398862,0.325195,-0.590133,0.606105
192,3992788051,0.823363,-0.198316,-0.368541,0.383304,-0.008586,0.347482,0.361134
193,3992821385,0.833141,-0.193362,-0.362750,0.369999,-0.405089,0.449965,-0.062737
194,3992854719,0.839481,-0.186092,-0.362236,0.359759,-0.629816,1.138401,-0.244121
195,3992888053,0.844159,-0.178133,-0.362483,0.352521,-0.789712,1.211694,0.402224
196,3992921387,0.848629,-0.168225,-0.362469,0.346620,-0.934283,0.798640,0.488455
197,3992954721,0.852410,-0.156699,-0.363241,0.341903,-1.130401,0.354896,0.528358
198,3992988055,0.855893,-0.144837,-0.362966,0.338712,-0.929534,0.047315,0.347679
199,3993021389,0.859325,-0.133263,-0.360789,0.337093,-1.469724,-0.453007,-0.114798
200,3993054723,0.861904,-0.121609,-0.358771,0.337070,-1.085112,-0.499229,-0.491599
201,3993088057,0.864079,-0.111572,-0.355662,0.338266,-0.748554,-0.388311,-0.988441
202,3993121391,0.865889,-0.103902,-0.350995,0.340944,-0.713739,-0.512386,-0.942808
203,3993154725,0.866487,-0.097961,-0.347002,0.345242,-0.337577,-0.039573,-1.111259
204,3993188059,0.865762,-0.093689,-0.344951,0.350268,0.053965,0.228094,-1.192250
205,3993221393,0.864411,-0.091187,-0.343251,0.355889,0.163737,0.307276,-1.065689
206,3993254727,0.862325,-0.090354,-0.342345,0.361983,0.360391,0.149828,-0.739891
207,3993288061,0.859631,-0.090398,-0.343249,0.367481,0.825953,0.138609,-0.493225
208,3993321395,0.858359,-0.092683,-0.341780,0.371234,0.982302,-0.009149,-0.270576
209,3993354729,0.858237,-0.097276,-0.339426,0.372501,1.064388,-0.139642,-0.146664
210,3993388063,0.859749,-0.104498,-0.335436,0.370668,1.598033,0.000200,0.100484
211,3993421397,0.864056,-0.113969,-0.327344,0.365052,1.087549,-0.450397,0.331456
212,3993454731,0.868338,-0.122058,-0.322031,0.356913,0.662761,-0.380211,0.833498
213,3993488065,0.873069,-0.128068,-0.317488,0.347204,1.061209,0.280822,1.368681
214,3993521399,0.878742,-0.130363,-0.313169,0.335772,0.554007,-0.055764,1.347730
215,3993554733,0.883284,-0.126978,-0.313872,0.324298,0.249830,-0.035128,1.299639
216,3993588067,0.887149,-0.119017,-0.316998,0.313550,-0.109710,0.355354,1.237267
217,3993621401,0.890289,-0.108474,-0.321069,0.304192,-0.584313,0.525199,0.677863
218,3993654735,0.892468,-0.096807,-0.326085,0.296307,-0.465571,0.503182,0.107562
219,3993688069,0.895158,-0.086451,-0.327620,0.289627,-0.502387,0.012703,-0.035629
220,3993721403,0.897735,-0.076929,-0.327333,0.284616,-1.087715,-0.255487,0.197523
221,3993754737,0.898931,-0.067534,-0.328570,0.281786,-0.937158,-0.506599,-0.338174
222,3993788071,0.899630,-0.059593,-0.329229,0.280576,-0.511562,-0.259535,-0.375128
223,3993821405,0.900873,-0.053362,-0.326340,0.281218,-0.692374,-0.481817,-0.277448
224,3993854739,0.900986,-0.047350,-0.323941,0.284683,-0.802921,-0.718584,-0.632398
225,3993888073,0.898921,-0.041677,-0.324750,0.291103,-0.384603,-0.630824,-0.840776
226,3993921407,0.895444,-0.036976,-0.327093,0.299705,-0.095254,-0.647021,-1.080791
227,3993954741,0.891249,-0.034751,-0.330395,0.308717,0.359485,-0.547116,-1.245808
228,3993988075,0.887522,-0.036289,-0.331842,0.317598,0.451939,-0.664592,-0.659338
229,3994021409,0.884352,-0.041075,-0.331264,0.326341,0.478582,-0.565548,-0.805965
230,3994054743,0.881525,-0.048737,-0.329742,0.334378,0.682650,-0.595275,-0.696023
231,3994088077,0.879027,-0.057934,-0.328520,0.340630,1.379892,-0.335438,0.153705
232,3994121411,0.877962,-0.067392,-0.325818,0.344214,1.403042,-0.255873,0.623163
233,3994154745,0.877298,-0.074173,-0.325215,0.345082,1.186927,-0.310385,0.789786
234,3994188079,0.876441,-0.076984,-0.328210,0.343806,0.940697,0.047319,1.194739
235,3994221413,0.875557,-0.076524,-0.332985,0.341561,0.558524,0.388218,1.107811
236,3994254747,0.875052,-0.073495,-0.338611,0.337970,0.277982,0.469419,0.846472
237,3994288081,0.875358,-0.069067,-0.342897,0.333767,0.073767,0.188604,0.602780
238,3994321415,0.875446,-0.063475,-0.347757,0.329592,-0.188892,-0.047918,0.358212
239,3994354749,0.874082,-0.057622,-0.355397,0.326117,-0.591293,0.742189,0.543614
240,3994388083,0.872807,-0.052308,-0.361412,0.323811,-0.504735,0.983309,0.468366
241,3994421417,0.872789,-0.047804,-0.363590,0.322112,-0.563853,0.772119,0.067430
242,3994454751,0.873361,-0.044731,-0.363639,0.320946,-0.517434,0.336376,-0.272831
243,3994488085,0.873739,-0.042868,-0.363188,0.320682,-0.798117,-0.054725,-0.208574
244,3994521419,0.873033,-0.041277,-0.364149,0.321720,-0.812145,-0.439415,-0.375730