sep=,
DeviceTag:,2C_Leg
FirmwareVersion:,2.2.1
AppVersion:,2023.6.0
SyncStatus:,Synced
OutputRate:,30Hz
FilterProfile:,General
Measurement Mode:,Sensor fusion Mode - Complete(Quaternion)
StartTime: ,2026-05-27_15:18:37_967 AEST
© Movella Technologies B. V. 2005-2026

PacketCounter,SampleTimeFine,Quat_W,Quat_X,Quat_Y,Quat_Z,FreeAcc_X,FreeAcc_Y,FreeAcc_Z
1,3986387923,-0.336201,0.511522,0.593198,-0.522912,0.280295,0.073345,0.130209
2,3986421257,-0.337941,0.513217,0.591633,-0.521902,0.269952,0.048826,0.085855
3,3986454591,-0.340730,0.515723,0.589066,-0.520521,0.213406,0.067431,0.041294
4,3986487925,-0.343922,0.518648,0.586294,-0.518641,-0.057224,-0.084089,0.038763
5,3986521259,-0.346405,0.521111,0.584190,-0.516890,-0.291715,-0.222597,0.152113
6,3986554593,-0.348230,0.522675,0.583105,-0.515308,-0.273349,-0.220816,0.037821
7,3986587927,-0.349791,0.523814,0.582608,-0.513653,-0.039092,0.059611,0.204679
8,3986621261,-0.352371,0.524920,0.581484,-0.512033,0.173848,0.089984,0.170682
9,3986654595,-0.355833,0.525838,0.579713,-0.510703,0.328215,0.373471,0.096669
10,3986687929,-0.360289,0.526487,0.577346,-0.509590,0.355270,0.239834,0.222148
11,3986721263,-0.364655,0.525999,0.575032,-0.509604,0.205564,-0.000478,0.251448
12,3986754597,-0.368188,0.524888,0.573149,-0.510331,0.130878,-0.462046,0.025829
13,3986787931,-0.371378,0.523484,0.571880,-0.510885,-0.213063,-0.019821,0.097894
14,3986821265,-0.374503,0.521157,0.571605,-0.511290,-0.764770,0.133183,0.270473
15,3986854599,-0.377589,0.517362,0.572158,-0.512256,-1.598410,0.463130,0.295486
16,3986887933,-0.382111,0.511143,0.572850,-0.514367,-2.477969,0.925005,0.708426
17,3986921267,-0.390462,0.501308,0.572310,-0.518362,-3.133539,1.343195,0.695033
18,3986954601,-0.403016,0.488725,0.570262,-0.523005,-2.311051,1.844521,1.261303
19,3986987935,-0.417497,0.473292,0.570869,-0.525172,-0.380402,2.199391,2.483941
20,3987021269,-0.425456,0.453650,0.582506,-0.523338,-0.148879,1.647541,0.122782
21,3987054603,-0.433469,0.443353,0.582842,-0.525210,3.485534,-3.268825,-0.324098
22,3987087937,-0.443035,0.431535,0.579829,-0.530380,2.879687,-2.418543,-2.257642
23,3987121271,-0.447510,0.429132,0.577263,-0.531371,5.519867,-3.249132,-2.236433
24,3987154605,-0.449186,0.420111,0.575601,-0.538915,2.924291,-3.869059,-1.896661
25,3987187939,-0.449113,0.408284,0.576919,-0.546601,0.495547,0.091070,-2.371664
26,3987221273,-0.443892,0.399959,0.579760,-0.553966,-1.257687,0.155373,-0.080688
27,3987254607,-0.435289,0.385195,0.585996,-0.564592,-6.198864,0.885453,5.275135
28,3987287941,-0.418355,0.371779,0.599273,-0.572398,-0.939032,4.269561,-0.086329
29,3987321275,-0.418078,0.371375,0.597911,-0.574283,2.667246,0.732143,-0.303167
30,3987354609,-0.423581,0.368960,0.589522,-0.580447,0.724919,-2.403303,0.489900
31,3987387943,-0.423701,0.360366,0.587860,-0.587402,0.154538,-0.521895,0.738641
32,3987421277,-0.424070,0.352728,0.586505,-0.593099,-0.361423,1.187128,0.208200
33,3987454611,-0.427808,0.346396,0.583157,-0.597432,-0.846739,1.186867,-0.223429
34,3987487945,-0.432105,0.341141,0.579619,-0.600797,0.309038,0.134907,-0.315528
35,3987521279,-0.436463,0.338464,0.574734,-0.603846,0.586424,-0.079065,0.382007
36,3987554613,-0.440199,0.337909,0.569214,-0.606667,0.756308,-0.088641,0.600919
37,3987587947,-0.442985,0.337921,0.564945,-0.608620,0.441046,-0.237161,0.129929
38,3987621281,-0.445020,0.338245,0.562214,-0.609484,0.496477,-0.874510,0.171093
39,3987654615,-0.445265,0.338376,0.560962,-0.610385,0.305855,-0.557134,0.109280
40,3987687949,-0.443832,0.338194,0.560700,-0.611768,0.010357,0.349809,0.132088
41,3987721283,-0.443319,0.339145,0.559657,-0.612568,0.179512,0.407037,0.110765
42,3987754617,-0.442190,0.340084,0.559553,-0.612959,0.262762,-0.325657,0.023039
43,3987787951,-0.440089,0.339873,0.560760,-0.613485,0.088151,-0.675418,0.084936
44,3987821285,-0.437540,0.339198,0.562194,-0.614368,0.096091,-0.441092,0.222425
45,3987854619,-0.435287,0.338295,0.563405,-0.615357,0.209358,0.141090,0.127079
46,3987887953,-0.432984,0.337705,0.564855,-0.615976,0.276228,-0.199890,0.194354
47,3987921287,-0.430533,0.337308,0.566297,-0.616587,-0.042157,-0.112846,0.322635
48,3987954621,-0.428672,0.337464,0.567131,-0.617032,-0.298431,-0.184376,0.088660
49,3987987955,-0.426902,0.337333,0.568044,-0.617491,-0.487701,-0.078480,0.024850
50,3988021289,-0.425416,0.336363,0.569130,-0.618045,-0.688732,0.219099,-0.067418
51,3988054623,-0.425215,0.335072,0.569583,-0.618467,-0.740876,0.261108,0.037466
52,3988087957,-0.426091,0.333697,0.569167,-0.618990,-0.800186,0.368754,0.048858
53,3988121291,-0.427791,0.332559,0.568096,-0.619414,-0.221835,0.070966,-0.058800
54,3988154625,-0.429685,0.331076,0.567098,-0.619812,0.315321,0.090404,0.100705
55,3988187959,-0.431967,0.329443,0.565843,-0.620242,0.147738,0.030464,0.322283
56,3988221293,-0.435165,0.327976,0.563574,-0.620850,-0.077107,-0.049746,0.169089
57,3988254627,-0.438538,0.326296,0.560870,-0.621810,0.088610,-0.080622,0.091721
58,3988287961,-0.441762,0.324694,0.558119,-0.622840,0.175995,0.289557,0.072652
59,3988321295,-0.445453,0.323081,0.555337,-0.623537,0.258788,0.351573,0.007814
60,3988354629,-0.449741,0.321242,0.552238,-0.624161,0.266465,-0.110223,0.114033
61,3988387963,-0.453655,0.318957,0.549291,-0.625100,0.147854,-0.276352,0.084852
62,3988421297,-0.456797,0.316403,0.546956,-0.626157,0.257828,-0.246947,0.191912
63,3988454631,-0.459873,0.314197,0.544429,-0.627217,0.299390,-0.453354,0.201675
64,3988487965,-0.462149,0.311777,0.542450,-0.628466,0.142313,-0.218068,0.283135
65,3988521299,-0.463722,0.309647,0.540985,-0.629621,0.096013,0.192661,0.149558
66,3988554633,-0.465465,0.307971,0.539479,-0.630449,0.112121,0.119041,0.085693
67,3988587967,-0.467485,0.307167,0.537843,-0.630744,-0.002826,0.132774,0.004678
68,3988621301,-0.469244,0.306680,0.536319,-0.630973,-0.109389,0.324458,0.152717
69,3988654635,-0.471765,0.306155,0.534472,-0.630914,-0.197385,0.127769,0.077487
70,3988687969,-0.474780,0.305034,0.532368,-0.630975,-0.217748,-0.088333,0.046143
71,3988721303,-0.477657,0.303241,0.529933,-0.631718,0.047120,-0.561039,0.035028
72,3988754637,-0.480127,0.300354,0.527588,-0.633185,-0.007204,-0.874056,0.081039
73,3988787971,-0.482000,0.295759,0.525540,-0.635624,-0.164103,-0.212502,-0.059910
74,3988821305,-0.484189,0.290869,0.523146,-0.638186,0.016740,0.281447,-0.148924
75,3988854639,-0.487388,0.286651,0.519965,-0.640256,0.152387,0.853432,-0.030896
76,3988887973,-0.491211,0.282969,0.516002,-0.642176,0.372861,0.949159,0.072682
77,3988921307,-0.495077,0.279988,0.511548,-0.644074,0.293474,0.631851,0.400845
78,3988954641,-0.498811,0.276598,0.507299,-0.646015,0.278044,-0.230466,0.065709
79,3988987975,-0.502983,0.272145,0.503408,-0.647713,-0.022446,-0.304575,0.185635
80,3989021309,-0.507524,0.268484,0.498568,-0.649440,0.252143,-0.126293,0.357723
81,3989054643,-0.511785,0.266114,0.493221,-0.651152,0.294340,-0.402487,0.325620
82,3989087977,-0.514073,0.263352,0.489941,-0.652947,0.311002,0.286442,0.274044
83,3989121311,-0.517559,0.261190,0.485867,-0.654105,0.355269,0.795931,-0.033325
84,3989154645,-0.521538,0.260021,0.481100,-0.654933,0.514800,0.672286,0.288845
85,3989187979,-0.525195,0.259177,0.476845,-0.655457,0.008554,1.166614,0.067119
86,3989221313,-0.528743,0.258707,0.473306,-0.655355,-0.047402,0.229364,-0.321893
87,3989254647,-0.532164,0.257659,0.470061,-0.655334,0.041178,-0.552078,0.087326
88,3989287981,-0.534820,0.256391,0.466118,-0.656485,-0.435680,-0.773675,-0.015592
89,3989321315,-0.537533,0.254267,0.462462,-0.657680,-0.463930,-0.326275,-0.280420
90,3989354649,-0.539508,0.252041,0.459344,-0.659102,0.258251,-0.117895,0.196136
91,3989387983,-0.541343,0.249763,0.455778,-0.660938,0.326757,0.661445,0.328298
92,3989421317,-0.543892,0.247538,0.451757,-0.662442,-0.053399,1.114416,-0.067883
93,3989454651,-0.547344,0.245400,0.447926,-0.662995,-0.015144,0.859411,-0.099030
94,3989487985,-0.551326,0.243275,0.443375,-0.663537,0.050121,-0.196240,0.288158
95,3989521319,-0.555472,0.240349,0.438840,-0.664161,-0.046598,-1.121979,-0.126321
96,3989554653,-0.558098,0.236639,0.435694,-0.665362,0.621668,-0.908982,0.363017
97,3989587987,-0.560041,0.232951,0.432196,-0.667309,0.828555,-0.218219,0.718639
98,3989621321,-0.562017,0.229342,0.428073,-0.669552,0.210672,-0.097639,0.313925
99,3989654655,-0.563358,0.224535,0.425312,-0.671810,0.901726,-0.571112,0.373008
100,3989687989,-0.564424,0.219547,0.422559,-0.674296,0.741385,0.496992,-0.315402
101,3989721323,-0.565528,0.215411,0.419502,-0.676610,0.470047,0.265148,0.111777
102,3989754657,-0.566185,0.211681,0.417392,-0.678540,0.615790,0.172204,0.174530
103,3989787991,-0.565962,0.208970,0.416340,-0.680211,0.338805,-0.074278,0.506010
104,3989821325,-0.565660,0.206824,0.414721,-0.682104,0.340855,-0.532186,0.405759
105,3989854659,-0.564707,0.204652,0.413279,-0.684421,-0.008603,-0.612143,0.267075
106,3989887993,-0.562840,0.202234,0.411996,-0.687444,0.009803,-0.485134,0.214364
107,3989921327,-0.560677,0.200067,0.411297,-0.690258,0.371132,-0.336616,0.212889
108,3989954661,-0.557684,0.198470,0.411710,-0.692893,0.444423,0.014631,0.386016
109,3989987995,-0.554623,0.196734,0.412783,-0.695202,0.758131,0.221569,0.607156
110,3990021329,-0.552270,0.195475,0.413203,-0.697179,0.640097,0.555975,0.334610
111,3990054663,-0.550960,0.195284,0.412779,-0.698518,0.686250,0.900638,0.225426
112,3990087997,-0.550278,0.195507,0.412314,-0.699268,0.625440,0.437328,0.016657
113,3990121331,-0.549021,0.195596,0.412805,-0.699941,0.103805,-0.012774,0.154645
114,3990154665,-0.547494,0.194998,0.413536,-0.700871,-0.374030,0.028147,-0.146356
115,3990187999,-0.546297,0.194293,0.413347,-0.702112,-0.466072,0.046478,-0.253591
116,3990221333,-0.544593,0.192620,0.413818,-0.703617,-0.094092,-0.113403,-0.472682
117,3990254667,-0.542271,0.190546,0.415235,-0.705139,0.125781,0.143174,0.218313
118,3990288001,-0.540025,0.188201,0.416422,-0.706791,0.524173,-0.065564,0.549991
119,3990321335,-0.537998,0.185971,0.417579,-0.708242,0.117777,-0.212127,0.270203
120,3990354669,-0.536141,0.184756,0.417861,-0.709801,-0.072431,-0.204774,0.390877
121,3990388003,-0.534923,0.183655,0.417189,-0.711399,-0.062481,0.048772,0.057215
122,3990421337,-0.533741,0.182355,0.416861,-0.712813,0.007856,0.571915,0.351247
123,3990454671,-0.532682,0.181960,0.416860,-0.713706,0.450990,0.369973,0.131598
124,3990488005,-0.532359,0.182315,0.416555,-0.714034,0.670760,0.447203,0.259411
125,3990521339,-0.532480,0.183035,0.416547,-0.713764,0.610576,0.779703,0.298176
126,3990554673,-0.532631,0.184796,0.417762,-0.712487,0.626646,0.610281,0.298995
127,3990588007,-0.533498,0.187159,0.418873,-0.710565,0.426886,0.093568,0.245197
128,3990621341,-0.535263,0.189847,0.418779,-0.708578,0.199070,-0.252378,-0.141223
129,3990654675,-0.536367,0.191984,0.419106,-0.706972,0.104638,-0.476468,0.163768
130,3990688009,-0.536822,0.193220,0.419925,-0.705803,-0.037204,-0.728919,0.323409
131,3990721343,-0.537212,0.193930,0.420782,-0.704801,-0.234570,-0.681459,-0.091618
132,3990754677,-0.537669,0.194281,0.420767,-0.704365,-0.128218,-0.785887,-0.044811
133,3990788011,-0.537844,0.193889,0.420402,-0.704557,-0.276522,0.193819,-0.140018
134,3990821345,-0.537877,0.193565,0.420423,-0.704608,-0.127952,0.319269,-0.105409
135,3990854679,-0.538477,0.192857,0.420120,-0.704525,0.161012,0.582197,-0.027986
136,3990888013,-0.538695,0.193265,0.420962,-0.703743,0.098484,0.835726,-0.139336
137,3990921347,-0.539311,0.194382,0.421893,-0.702405,0.676342,1.065136,0.693272
138,3990954681,-0.540539,0.196432,0.422768,-0.700362,0.666672,0.787193,-0.131241
139,3990988015,-0.541326,0.200075,0.424754,-0.697515,0.528417,0.984286,0.732741
140,3991021349,-0.542158,0.205790,0.427233,-0.693682,0.877702,0.074894,0.957272
141,3991054683,-0.542234,0.212547,0.430148,-0.689772,1.167694,-0.808386,0.761868
142,3991088017,-0.540509,0.219114,0.434468,-0.686355,0.768245,-0.652053,0.644331
143,3991121351,-0.537945,0.226297,0.439308,-0.682950,0.485456,-0.623925,0.208663
144,3991154685,-0.534357,0.233591,0.445235,-0.679463,0.264009,-0.495210,0.036736
145,3991188019,-0.529823,0.240274,0.451942,-0.676249,-0.177823,-0.475472,0.084152
146,3991221353,-0.525160,0.246195,0.458368,-0.673424,-0.290551,-0.674248,-0.203296
147,3991254687,-0.520741,0.250859,0.463921,-0.671329,-0.400715,-0.585560,-0.223086
148,3991288021,-0.516025,0.254909,0.469120,-0.669830,-0.257801,-0.265726,-0.093671
149,3991321355,-0.511380,0.258217,0.474448,-0.668372,0.089112,0.218065,-0.270400
150,3991354689,-0.506816,0.260951,0.480009,-0.666814,0.056846,0.244505,0.097083
151,3991388023,-0.502187,0.263542,0.485824,-0.665084,0.016713,0.595178,0.061120
152,3991421357,-0.498698,0.266923,0.490764,-0.662730,0.090859,0.388372,0.096052
153,3991454691,-0.495489,0.270799,0.495449,-0.660073,0.358070,-0.114344,0.237122
154,3991488025,-0.491626,0.273986,0.500590,-0.657763,0.430201,-0.433789,0.462537
155,3991521359,-0.487311,0.276762,0.505720,-0.655885,0.332668,-0.301461,0.134558
156,3991554693,-0.482559,0.279211,0.511278,-0.654049,0.391208,-0.121625,0.014742
157,3991588027,-0.477633,0.281672,0.516919,-0.652173,0.162137,0.019980,0.097063
158,3991621361,-0.472582,0.284213,0.522416,-0.650368,0.136906,0.208069,-0.053305
159,3991654695,-0.467898,0.286562,0.527367,-0.648726,0.094046,0.394138,-0.161444
160,3991688029,-0.463445,0.289246,0.532034,-0.646918,-0.003499,0.547409,-0.013811
161,3991721363,-0.458617,0.291525,0.536685,-0.645492,-0.023381,0.594408,0.269829
162,3991754697,-0.453979,0.293588,0.540936,-0.644286,-0.264567,0.534226,0.058659
163,3991788031,-0.450365,0.295657,0.544383,-0.642972,-0.013869,0.084251,-0.006413
164,3991821365,-0.447258,0.298159,0.547507,-0.641330,-0.005293,0.075274,0.070884
165,3991854699,-0.444258,0.300699,0.550214,-0.639912,-0.066843,-0.200865,0.210960
166,3991888033,-0.441477,0.302616,0.552546,-0.638922,-0.103757,-0.408313,0.347891
167,3991921367,-0.438998,0.304625,0.554231,-0.638216,0.493854,-0.411658,0.083864
168,3991954701,-0.436025,0.306313,0.556666,-0.637325,0.125524,-0.241318,0.122323
169,3991988035,-0.432200,0.308072,0.560011,-0.636151,0.219938,0.252484,0.106573
170,3992021369,-0.428579,0.310710,0.563310,-0.634404,0.337364,0.340321,0.194038
171,3992054703,-0.425081,0.314086,0.566620,-0.632143,0.435464,-0.299532,0.314234
172,3992088037,-0.420869,0.317707,0.570334,-0.629807,0.674286,-0.505317,0.279322
173,3992121371,-0.415780,0.321375,0.574663,-0.627387,0.374943,0.087254,0.245021
174,3992154705,-0.410800,0.325719,0.579119,-0.624323,0.287166,0.181359,0.132911
175,3992188039,-0.406742,0.331088,0.583161,-0.620381,0.560957,-0.227637,0.156497
176,3992221373,-0.403056,0.336899,0.586467,-0.616529,0.114159,-0.387914,0.035492
177,3992254707,-0.398657,0.342053,0.589923,-0.613245,-0.027917,0.080114,-0.074733
178,3992288041,-0.394494,0.347395,0.593125,-0.609837,-0.027102,0.540512,0.075042
179,3992321375,-0.391305,0.352493,0.595939,-0.606211,-0.359745,0.759521,0.082036
180,3992354709,-0.388515,0.358235,0.598663,-0.601940,-0.624518,0.506285,-0.129378
181,3992388043,-0.386184,0.364199,0.600397,-0.598124,-0.148487,0.270988,0.196136
182,3992421377,-0.385066,0.369785,0.600388,-0.595420,-0.227240,-0.022009,0.180886
183,3992454711,-0.381517,0.373055,0.602369,-0.593662,-0.208034,-0.119088,0.269505
184,3992488045,-0.378223,0.375857,0.603888,-0.592457,0.166940,0.275889,0.119732
185,3992521379,-0.374994,0.378645,0.605421,-0.591169,0.192046,-0.058462,0.056231
186,3992554713,-0.371252,0.383076,0.607099,-0.588950,0.780885,-0.682516,0.428744
187,3992588047,-0.366084,0.388509,0.609153,-0.586501,0.744768,-0.481284,0.183427
188,3992621381,-0.360075,0.395240,0.611704,-0.583058,0.894001,-0.146184,0.080168
189,3992654715,-0.354176,0.403355,0.613691,-0.579012,0.290811,-0.577387,0.012652
190,3992688049,-0.348728,0.412005,0.615248,-0.574558,-0.491258,-0.262980,-0.227366
191,3992721383,-0.344053,0.421379,0.616321,-0.569406,-0.703582,0.128357,-0.116217
192,3992754717,-0.341804,0.431059,0.615281,-0.564619,-1.352899,0.537441,0.069322
193,3992788051,-0.339731,0.437925,0.615665,-0.560150,-1.595063,0.656045,0.334288
194,3992821385,-0.335878,0.442215,0.617550,-0.557020,-0.462243,0.270447,0.306502
195,3992854719,-0.336375,0.445687,0.616078,-0.555581,-0.302744,-0.187104,0.238402
196,3992888053,-0.337676,0.447144,0.615118,-0.554683,-0.762772,0.171356,0.451032
197,3992921387,-0.336832,0.448998,0.616555,-0.552099,0.681040,0.341510,-0.031584
198,3992954721,-0.338731,0.451922,0.614482,-0.550860,0.816024,-0.536040,0.010980
199,3992988055,-0.339735,0.455066,0.612313,-0.550069,0.037372,0.237418,0.214782
200,3993021389,-0.337039,0.457007,0.613157,-0.549176,-0.217400,-0.238735,-0.093544
201,3993054723,-0.333740,0.458437,0.613811,-0.549269,-0.535275,-0.180827,0.140131
202,3993088057,-0.330079,0.458336,0.615756,-0.549388,-0.567514,0.342956,0.509384
203,3993121391,-0.326453,0.457821,0.618054,-0.549404,-0.609690,-0.128348,0.053058
204,3993154725,-0.322338,0.457157,0.620127,-0.550050,-0.686429,0.301005,0.108081
205,3993188059,-0.318876,0.456153,0.621846,-0.550960,-0.496181,0.433274,0.381294
206,3993221393,-0.317625,0.455564,0.622402,-0.551542,-0.009830,0.304179,0.313251
207,3993254727,-0.317496,0.455897,0.622551,-0.551173,0.542738,-0.118190,-0.023245
208,3993288061,-0.317523,0.457061,0.622013,-0.550801,0.245340,-0.046732,0.029171
209,3993321395,-0.316965,0.458491,0.621350,-0.550682,0.046582,-0.064311,0.116085
210,3993354729,-0.316116,0.459880,0.620615,-0.550841,0.073821,-0.185841,0.068217
211,3993388063,-0.315562,0.460613,0.620545,-0.550625,0.194501,0.111163,0.313864
212,3993421397,-0.316261,0.461797,0.619899,-0.549959,-0.129556,0.130928,0.116899
213,3993454731,-0.317604,0.463750,0.618303,-0.549338,-0.439199,0.340776,0.154571
214,3993488065,-0.319878,0.466376,0.615862,-0.548537,-0.506335,0.180896,0.182573
215,3993521399,-0.322925,0.468611,0.612960,-0.548097,-0.021389,-0.116571,0.419927
216,3993554733,-0.326627,0.470895,0.609851,-0.547413,0.266699,0.032086,0.005796
217,3993588067,-0.331047,0.473306,0.606534,-0.546364,0.548733,-0.167075,-0.019670
218,3993621401,-0.334766,0.474926,0.603805,-0.545715,0.598365,-0.232564,0.257737
219,3993654735,-0.337832,0.476577,0.601631,-0.544785,0.544809,-0.171826,0.002299
220,3993688069,-0.340155,0.478530,0.600171,-0.543236,0.409896,-0.020058,0.015829
221,3993721403,-0.341400,0.480576,0.599029,-0.541909,0.087277,-0.158547,-0.057179
222,3993754737,-0.340306,0.482131,0.598992,-0.541255,0.161638,-0.380824,-0.010829
223,3993788071,-0.337522,0.482783,0.600095,-0.541195,0.043755,-0.202928,0.167261
224,3993821405,-0.334411,0.482822,0.601702,-0.541307,-0.184917,-0.181526,0.075793
225,3993854739,-0.330459,0.482461,0.603797,-0.541724,-0.387056,-0.063583,0.108997
226,3993888073,-0.326581,0.482415,0.605899,-0.541770,-0.570366,0.074329,0.198033
227,3993921407,-0.323422,0.482479,0.607604,-0.541698,-0.838818,0.319944,0.199803
228,3993954741,-0.321552,0.482700,0.608431,-0.541686,-0.825310,0.422496,0.244341
229,3993988075,-0.320686,0.482880,0.608763,-0.541666,-0.454970,0.279465,0.201047
230,3994021409,-0.320507,0.482799,0.608817,-0.541784,-0.263612,0.005755,0.119108
231,3994054743,-0.319886,0.482608,0.609216,-0.541872,0.112456,-0.060798,0.100610
232,3994088077,-0.319282,0.482707,0.609586,-0.541724,0.187249,0.003665,0.132149
233,3994121411,-0.319471,0.482993,0.609379,-0.541591,0.100010,-0.173605,0.144878
234,3994154745,-0.319773,0.483380,0.609241,-0.541222,0.131984,-0.005022,0.094123
235,3994188079,-0.319954,0.484012,0.608968,-0.540857,0.168415,0.087750,0.194503
236,3994221413,-0.321319,0.485051,0.607809,-0.540421,0.170250,0.129466,0.138182
237,3994254747,-0.323820,0.486211,0.605911,-0.540018,0.237520,-0.026698,0.173701
238,3994288081,-0.326851,0.487681,0.603567,-0.539491,0.256671,-0.147112,0.083775
239,3994321415,-0.329158,0.489133,0.601647,-0.538917,0.182115,-0.171335,0.098683
240,3994354749,-0.330923,0.490200,0.600175,-0.538508,0.042179,-0.203778,0.072773
241,3994388083,-0.332239,0.490954,0.599203,-0.538094,-0.086000,-0.112867,0.129303
242,3994421417,-0.333116,0.491292,0.598588,-0.537926,-0.197092,-0.002431,0.103242
243,3994454751,-0.333413,0.491453,0.598389,-0.537817,-0.192614,0.005857,0.062263
244,3994488085,-0.333026,0.491262,0.598668,-0.537921,-0.194994,-0.108240,0.093848
245,3994521419,-0.332084,0.490811,0.599461,-0.538033,-0.149252,-0.074571,0.139870
246,3994554753,-0.330822,0.490145,0.600580,-0.538169,-0.062304,-0.005350,0.089251