sep=,
DeviceTag:,23_Right
FirmwareVersion:,2.2.1
AppVersion:,2023.6.0
SyncStatus:,Synced
OutputRate:,30Hz
FilterProfile:,General
Measurement Mode:,Sensor fusion Mode - Complete(Quaternion)
StartTime: ,2026-05-01_14:06:47_417 AEST
© Movella Technologies B. V. 2005-2026

PacketCounter,SampleTimeFine,Quat_W,Quat_X,Quat_Y,Quat_Z,FreeAcc_X,FreeAcc_Y,FreeAcc_Z
1,229804098,0.777500,-0.353212,-0.212777,0.474823,1.863389,0.076316,-0.631729
2,229837432,0.775987,-0.353279,-0.218127,0.474820,1.786566,0.621511,0.855921
3,229870766,0.774838,-0.352821,-0.221080,0.475671,0.985233,0.153877,1.285693
4,229904100,0.774346,-0.352406,-0.222669,0.476038,0.852932,0.760891,-0.050338
5,229937434,0.775110,-0.354168,-0.222454,0.473582,0.053638,0.361643,-0.096714
6,229970768,0.776453,-0.356995,-0.221505,0.469688,-0.482908,-0.560448,-0.043213
7,230004102,0.776779,-0.357160,-0.225216,0.467252,-0.244635,-0.903688,-0.532354
8,230037436,0.775865,-0.356765,-0.230913,0.466291,-0.174110,-1.058792,0.463046
9,230070770,0.774813,-0.355717,-0.236433,0.466074,0.502652,-0.019483,0.213709
10,230104104,0.774593,-0.356387,-0.239001,0.464616,1.193227,0.103752,-0.811536
11,230137438,0.774302,-0.360125,-0.241141,0.461100,0.040727,-0.063812,0.500383
12,230170772,0.774821,-0.363884,-0.241441,0.457101,-0.142070,0.063455,0.745683
13,230204106,0.776263,-0.369015,-0.238611,0.452000,0.439746,-0.205950,-0.275729
14,230237440,0.778147,-0.375058,-0.235299,0.445476,0.750338,0.498793,-0.673798
15,230270774,0.780343,-0.382337,-0.230929,0.437666,-0.539969,0.438597,0.587006
16,230304108,0.782237,-0.387130,-0.228340,0.431382,-0.133150,0.828899,0.375438
17,230337442,0.783223,-0.392140,-0.226352,0.426083,0.068912,0.057036,-0.311594
18,230370776,0.781874,-0.395663,-0.230000,0.423342,-0.125846,0.621455,0.369853
19,230404110,0.779751,-0.397598,-0.235935,0.422178,0.136206,0.515794,0.676890
20,230437444,0.777667,-0.399522,-0.240986,0.421352,-0.021432,0.121866,0.588123
21,230470778,0.776105,-0.401418,-0.245278,0.419950,-0.134289,0.340824,0.370206
22,230504112,0.775593,-0.403616,-0.248569,0.416844,0.036384,0.271205,-0.019435
23,230537446,0.775839,-0.406096,-0.251393,0.412259,0.016330,0.234338,0.041195
24,230570780,0.776700,-0.408459,-0.253979,0.406680,-0.029255,0.294324,0.225793
25,230604114,0.778276,-0.410638,-0.256115,0.400081,0.001450,0.273604,0.341509
26,230637448,0.780544,-0.413734,-0.256952,0.391850,0.048473,0.379800,0.203133
27,230670782,0.782827,-0.417855,-0.257576,0.382398,-0.092008,0.525482,0.180972
28,230704116,0.784428,-0.421803,-0.259689,0.373245,-0.254965,0.722447,0.168623
29,230737450,0.784756,-0.424491,-0.264525,0.366041,0.021312,0.683848,0.308646
30,230770784,0.784256,-0.425815,-0.270781,0.360968,-0.055695,0.611493,0.456176
31,230804118,0.784428,-0.424694,-0.276983,0.357189,0.310950,0.322263,-0.436889
32,230837452,0.784967,-0.422650,-0.282238,0.354303,0.741409,0.470569,-0.202859
33,230870786,0.787206,-0.421997,-0.282818,0.349622,0.125723,0.345253,-0.024352
34,230904120,0.789415,-0.421387,-0.282780,0.345381,-0.701981,0.530308,0.651902
35,230937454,0.790617,-0.419735,-0.285572,0.342331,-0.394420,0.634851,0.308954
36,230970788,0.791503,-0.418639,-0.289189,0.338569,-0.055073,0.547645,0.320755
37,231004122,0.792406,-0.417826,-0.292329,0.334744,0.345776,0.757921,0.040762
38,231037456,0.794067,-0.417574,-0.293594,0.329981,0.204913,0.456784,-0.105413
39,231070790,0.796091,-0.417828,-0.293316,0.324991,0.064243,0.484646,-0.061596
40,231104124,0.798169,-0.417316,-0.292744,0.321045,0.029792,0.947634,0.330602
41,231137458,0.799834,-0.416122,-0.292517,0.318649,0.051672,0.849385,0.118160
42,231170792,0.800719,-0.413926,-0.293630,0.318263,0.083746,0.892926,0.108944
43,231204126,0.802193,-0.412219,-0.292726,0.317598,0.569944,1.027474,-0.453918
44,231237460,0.805159,-0.411196,-0.288457,0.315319,-0.324503,0.639949,0.482974
45,231270794,0.808229,-0.409350,-0.284106,0.313810,0.011692,1.104918,-0.125229
46,231304128,0.811429,-0.407242,-0.279493,0.312438,-0.542279,1.088813,0.683150
47,231337462,0.814660,-0.404584,-0.275213,0.311278,-0.012754,1.535367,0.037334
48,231370796,0.816777,-0.401466,-0.273353,0.311406,0.096265,0.805725,0.209311
49,231404130,0.818479,-0.398290,-0.271413,0.312711,-0.475357,0.741746,0.486458
50,231437464,0.820215,-0.395579,-0.268212,0.314361,-0.516793,0.030520,0.105640
51,231470798,0.821747,-0.393009,-0.265921,0.315528,0.230371,0.523246,-0.139497
52,231504132,0.823177,-0.391134,-0.262641,0.316874,-0.158982,0.652631,0.160872
53,231537466,0.824625,-0.389860,-0.257651,0.318771,-0.146890,-0.501712,0.489642
54,231570800,0.825451,-0.389921,-0.251949,0.321107,0.157694,0.104335,-0.101493
55,231604134,0.824892,-0.391379,-0.247107,0.324514,-0.143898,-0.661100,-0.189641
56,231637468,0.823454,-0.393391,-0.242876,0.328898,0.039833,-0.176679,0.391305
57,231670802,0.821660,-0.396025,-0.238061,0.333709,0.289264,-0.149166,0.195896
58,231704136,0.821296,-0.398871,-0.232215,0.335330,0.711788,0.401089,-0.014194
59,231737470,0.821547,-0.401578,-0.226174,0.335613,0.583966,0.455261,0.402696
60,231770804,0.822343,-0.403677,-0.220235,0.335095,0.468933,-0.199107,-0.208970
61,231804138,0.823572,-0.404754,-0.215094,0.334116,0.586230,0.159387,-0.202527
62,231837472,0.824656,-0.404381,-0.210886,0.334576,-0.176589,0.503481,0.335463
63,231870806,0.825363,-0.403455,-0.208008,0.335751,-0.532795,0.038470,-0.067074
64,231904140,0.825422,-0.402079,-0.208058,0.337220,0.056171,0.576350,0.228184
65,231937474,0.825644,-0.400980,-0.208365,0.337796,0.141763,0.853944,0.392645
66,231970808,0.826300,-0.399998,-0.207861,0.337667,-0.079520,-0.088467,0.460692
67,232004142,0.827317,-0.399279,-0.206833,0.336657,-0.102781,0.327254,0.417144
68,232037476,0.829144,-0.398320,-0.204748,0.334568,0.440975,0.340949,-0.279686
69,232070810,0.831245,-0.397770,-0.201729,0.331831,0.074193,0.505085,0.433889
70,232104144,0.834235,-0.397936,-0.196453,0.327262,0.040170,0.342341,0.141888
71,232137478,0.837637,-0.398832,-0.189462,0.321555,0.263512,0.637180,-0.010999
72,232170812,0.839709,-0.399806,-0.186034,0.316909,0.073712,0.810231,0.370797
73,232204146,0.840589,-0.400066,-0.185695,0.314438,-0.395344,0.494707,0.147580
74,232237480,0.841157,-0.399298,-0.187262,0.312962,0.035860,0.750205,0.108225
75,232270814,0.841284,-0.397889,-0.190964,0.312176,0.311513,0.685409,0.286850
76,232304148,0.841608,-0.396186,-0.194173,0.311488,-0.183601,0.247998,-0.098572
77,232337482,0.842548,-0.394014,-0.196800,0.310050,0.372723,0.206385,0.187973
78,232370816,0.844499,-0.394223,-0.194442,0.305939,-0.794431,-0.073135,0.024592
79,232404150,0.846454,-0.394982,-0.191768,0.301205,-1.120300,0.534275,0.473796
80,232437484,0.847832,-0.394896,-0.192090,0.297212,0.223098,1.256951,0.700178
81,232470818,0.848855,-0.396298,-0.190777,0.293244,0.593818,0.456814,-0.388389
82,232504152,0.849586,-0.397494,-0.190955,0.289369,0.018062,0.635732,0.470371
83,232537486,0.849773,-0.399115,-0.192438,0.285580,-0.214623,0.241481,0.270273
84,232570820,0.848789,-0.401446,-0.196371,0.282547,-0.297856,0.600862,0.637980
85,232604154,0.846878,-0.405117,-0.201833,0.279170,-0.102427,0.100570,0.227385
86,232637488,0.844731,-0.408847,-0.207796,0.275844,0.500680,-0.604839,-0.174041
87,232670822,0.841266,-0.412442,-0.215092,0.275489,0.472769,-0.702983,0.002406
88,232704156,0.838764,-0.414706,-0.219607,0.276155,0.496347,-0.885490,-0.960774
89,232737490,0.836363,-0.418431,-0.222281,0.275679,-0.096347,0.062576,0.275556
90,232770824,0.834304,-0.421273,-0.226271,0.274342,0.219713,0.372780,0.908395
91,232804158,0.832785,-0.423828,-0.229906,0.271988,-0.248129,0.342882,0.298164
92,232837492,0.831709,-0.424852,-0.234809,0.269481,0.332997,0.246115,0.513587
93,232870826,0.831511,-0.425548,-0.238078,0.266105,0.104722,-1.251857,-0.126810
94,232904160,0.831465,-0.425818,-0.240425,0.263697,0.837667,-0.199309,-0.474854
95,232937494,0.832034,-0.426220,-0.240995,0.260716,-0.228724,0.084278,0.171293
96,232970828,0.833147,-0.425323,-0.242110,0.257575,0.301223,0.277879,0.190836
97,233004162,0.834503,-0.425026,-0.241561,0.254169,-0.158940,-0.404507,-0.000410
98,233037496,0.835244,-0.424307,-0.242328,0.252196,0.295046,-0.002717,-0.149826
99,233070830,0.835851,-0.422700,-0.243722,0.251541,0.398871,0.830855,0.111292
100,233104164,0.837097,-0.420410,-0.244277,0.250695,-0.032080,0.298972,0.087070
101,233137498,0.838764,-0.418168,-0.243419,0.249705,0.377460,0.607893,0.574683
102,233170832,0.841262,-0.415308,-0.240282,0.249114,0.638982,0.800449,-0.016540
103,233204166,0.843356,-0.413442,-0.236532,0.248726,-0.864363,0.130506,0.079796
104,233237500,0.845927,-0.411037,-0.232833,0.247469,-0.055899,0.813653,0.343700
105,233270834,0.847704,-0.409338,-0.230852,0.246057,-0.130176,0.754087,0.156343
106,233304168,0.848790,-0.406557,-0.231450,0.246360,1.046514,1.127930,0.201441
107,233337502,0.850066,-0.403795,-0.229739,0.248099,0.121356,0.487753,0.097238
108,233370836,0.850771,-0.401203,-0.228877,0.250671,0.122387,1.691367,1.089309
109,233404170,0.851515,-0.399269,-0.226869,0.253046,0.551989,-0.385494,-0.672230
110,233437504,0.852702,-0.398359,-0.222779,0.254116,0.052500,0.479256,0.632740
111,233470838,0.853275,-0.397892,-0.218509,0.256617,1.230454,1.189421,0.521454
112,233504172,0.853037,-0.398142,-0.215127,0.259861,-0.431338,-0.269117,0.807896
113,233537506,0.850611,-0.399412,-0.215874,0.265186,-0.727766,0.116170,1.174468
114,233570840,0.847328,-0.401233,-0.217919,0.271210,0.421339,-0.044644,-0.090348
115,233604174,0.844348,-0.403844,-0.219023,0.275701,-0.184194,0.010727,-0.182057
116,233637508,0.840748,-0.405917,-0.222225,0.281045,-0.077783,-0.007985,-0.034389
117,233670842,0.837523,-0.406299,-0.226304,0.286806,0.959934,-0.378366,-0.265773
118,233704176,0.835310,-0.406289,-0.228673,0.291360,0.538097,0.401328,0.307381
119,233737510,0.834843,-0.404500,-0.228243,0.295495,0.309689,-0.584862,-0.390580
120,233770844,0.833906,-0.400734,-0.230222,0.301673,0.486425,2.038701,0.476885
121,233804178,0.832633,-0.395449,-0.233182,0.309781,1.512725,1.009385,0.003140
122,233837512,0.831167,-0.392515,-0.234782,0.316174,-1.132751,-0.477784,-0.001178
123,233870846,0.830092,-0.388834,-0.238494,0.320736,-0.326594,-0.263143,-0.161206
124,233904180,0.829758,-0.386926,-0.240680,0.322271,0.085417,0.568617,0.832928
125,233937514,0.830379,-0.385350,-0.241884,0.321658,-0.324753,0.196114,0.369535
126,233970848,0.831478,-0.382966,-0.243140,0.320716,0.417041,-0.294361,-0.433155
127,234004182,0.832557,-0.381308,-0.243894,0.319318,-0.005802,0.278214,0.572788
128,234037516,0.834082,-0.379937,-0.243264,0.317447,0.331009,0.440972,-0.106270
129,234070850,0.835086,-0.378185,-0.243024,0.317082,-0.038471,0.522490,0.142764
130,234104184,0.836840,-0.377102,-0.240504,0.315669,-0.118653,-0.159778,-0.568021
131,234137518,0.838123,-0.377429,-0.237735,0.313965,-0.327710,-0.148944,-0.020625
132,234170852,0.839896,-0.379583,-0.232836,0.310281,0.255875,0.958584,0.231059
133,234204186,0.841830,-0.384193,-0.227330,0.303372,0.208390,0.297124,-0.668821
134,234237520,0.843386,-0.387286,-0.225519,0.296388,-0.658661,0.310986,1.024711
135,234270854,0.844428,-0.389664,-0.225448,0.290297,-0.186031,0.381934,0.392198
136,234304188,0.845835,-0.390251,-0.225485,0.285339,-0.051829,-0.962288,-0.095282
137,234337522,0.846334,-0.393361,-0.224204,0.280560,-0.451869,-0.520010,-0.598110
138,234370856,0.847322,-0.394365,-0.222843,0.277232,-0.072610,0.591242,0.856923
139,234404190,0.847668,-0.396506,-0.221156,0.274458,-0.254418,-0.002743,-0.340155
140,234437524,0.846987,-0.399107,-0.221908,0.272175,-0.707261,-0.054127,0.517704
141,234470858,0.846443,-0.401804,-0.223515,0.268560,0.143421,-0.372277,-0.025017
142,234504192,0.844939,-0.406164,-0.225734,0.264856,0.649163,0.104123,-0.197242
143,234537526,0.842457,-0.410080,-0.229577,0.263421,0.323145,0.273095,0.373839
144,234570860,0.839684,-0.414016,-0.234232,0.262016,-0.095254,-0.446225,0.353573
145,234604194,0.837719,-0.416554,-0.238760,0.260191,-0.379096,-1.474517,-0.180898
146,234637528,0.835748,-0.419719,-0.242096,0.258353,-0.480828,-0.681249,-0.011597
147,234670862,0.834776,-0.421985,-0.244101,0.255906,0.660434,-0.196280,-0.230210
148,234704196,0.833551,-0.424146,-0.246005,0.254500,0.843866,1.095829,0.179655
149,234737530,0.832877,-0.424643,-0.247884,0.254052,0.901686,-0.282974,-0.026715
150,234770864,0.832969,-0.425459,-0.246661,0.253576,0.151777,-0.416349,0.384768
151,234804198,0.833786,-0.425208,-0.245128,0.252798,-0.135526,-0.490259,0.367622
152,234837532,0.835285,-0.424552,-0.243189,0.250818,-0.288868,-0.008330,0.230430
153,234870866,0.836910,-0.422563,-0.242726,0.249202,0.276560,0.634132,0.459878
154,234904200,0.838288,-0.421562,-0.240654,0.248274,0.478419,0.161749,-0.161309
155,234937534,0.840196,-0.419253,-0.238207,0.248094,-0.112034,-0.036844,0.477193
156,234970868,0.842178,-0.417123,-0.235248,0.247788,0.036410,0.109802,-0.163514
157,235004202,0.844039,-0.414498,-0.233576,0.247439,0.405159,0.490685,0.258678
158,235037536,0.845829,-0.412186,-0.231050,0.247564,0.028550,0.003089,-0.269423
159,235070870,0.847265,-0.410084,-0.228786,0.248246,0.453037,0.998754,0.613241
160,235104204,0.848907,-0.407736,-0.226487,0.248611,0.177847,0.716619,0.368608
161,235137538,0.850240,-0.404789,-0.224597,0.250578,-0.095113,-0.067393,0.241451
162,235170872,0.850972,-0.403215,-0.222335,0.252641,0.115108,0.074193,-0.557837
163,235204206,0.852180,-0.400582,-0.220306,0.254526,-0.289059,1.325318,1.310828
164,235237540,0.853567,-0.398114,-0.216822,0.256735,0.391717,0.168562,-0.331403
165,235270874,0.854291,-0.396811,-0.213421,0.259178,-0.475957,0.648740,0.530477
166,235304208,0.854935,-0.395382,-0.210109,0.261932,-0.768038,-0.342638,0.223930
167,235337542,0.854772,-0.395160,-0.207742,0.264672,-0.053188,0.514713,0.123057
168,235370876,0.853983,-0.395748,-0.205550,0.268033,-0.388563,-0.313621,1.320939
169,235404210,0.852661,-0.398954,-0.199985,0.271673,-0.410172,0.234098,0.457639
170,235437544,0.850767,-0.402663,-0.196228,0.274860,-0.048809,0.342696,0.313526
171,235470878,0.848643,-0.406386,-0.194393,0.277242,1.041393,-0.337784,-0.497875
172,235504212,0.846452,-0.410756,-0.192599,0.278746,0.745691,-0.379912,-0.844453
173,235537546,0.844114,-0.412942,-0.192324,0.282768,-0.096219,-0.603574,-0.068058
174,235570880,0.841784,-0.412941,-0.193471,0.288866,0.165392,-0.147004,0.182363
175,235604214,0.839403,-0.414754,-0.193409,0.293207,-0.894451,-0.312663,0.579574
176,235637548,0.837446,-0.415516,-0.194045,0.297276,-0.404366,0.529000,0.619496
177,235670882,0.834934,-0.416293,-0.197144,0.301188,0.199536,0.126693,-0.116296
178,235704216,0.834006,-0.416534,-0.197745,0.303027,0.326661,0.191846,-0.026979
179,235737550,0.833508,-0.417089,-0.196511,0.304434,0.374562,0.424955,0.170191
180,235770884,0.833562,-0.416707,-0.194675,0.305985,0.198572,0.474128,0.050627
181,235804218,0.833717,-0.416383,-0.193927,0.306478,-0.742398,0.230808,0.356861
182,235837552,0.834229,-0.414626,-0.195509,0.306460,-0.175378,0.005362,-0.179198
183,235870886,0.834878,-0.411962,-0.197296,0.307142,-0.756337,0.809363,1.266680
184,235904220,0.836029,-0.408864,-0.198716,0.307235,0.254741,-0.566068,-0.612055
185,235937554,0.837140,-0.406058,-0.201035,0.306421,0.087179,0.208444,0.425161
186,235970888,0.838832,-0.404538,-0.200458,0.304175,0.062205,-0.044682,-0.539293
187,236004222,0.840999,-0.402618,-0.200109,0.300951,-0.031809,0.950692,0.748827
188,236037556,0.842744,-0.400455,-0.200488,0.298694,0.324081,-0.462624,-0.558638
189,236070890,0.845001,-0.399432,-0.198231,0.295172,-0.481759,0.713320,0.882295
190,236104224,0.845714,-0.399769,-0.198497,0.292485,-0.968583,0.103734,0.812483
191,236137558,0.846714,-0.400137,-0.199657,0.288268,0.487041,-0.360450,-0.386662
192,236170892,0.847065,-0.402480,-0.200754,0.283167,0.359752,0.780636,0.714863
193,236204226,0.846879,-0.405557,-0.201822,0.278537,0.257471,0.573777,0.268100
194,236237560,0.844935,-0.409757,-0.206301,0.274989,0.677110,-0.059032,0.117196
195,236270894,0.843179,-0.414458,-0.210128,0.270400,0.816209,0.026265,0.184869
196,236304228,0.841567,-0.419469,-0.213785,0.264768,0.300681,-0.247426,0.270547
197,236337562,0.840586,-0.422816,-0.218627,0.258532,0.544259,-0.208667,-0.073987
198,236370896,0.838850,-0.425607,-0.226035,0.253166,0.998626,-0.036470,-0.371817
199,236404230,0.838023,-0.427738,-0.230954,0.247818,0.445626,0.170756,0.927897
200,236437564,0.838355,-0.429555,-0.233895,0.240690,0.358518,0.131714,0.269292
201,236470898,0.838829,-0.430963,-0.236560,0.233820,0.893031,-0.579408,-1.162568
202,236504232,0.839532,-0.431765,-0.237370,0.228944,0.321230,0.276820,-0.171615
203,236537566,0.840069,-0.429878,-0.239385,0.228427,0.408863,0.857143,0.816696
204,236570900,0.839769,-0.428614,-0.242162,0.228979,-0.116883,0.484650,0.732822
205,236604234,0.840157,-0.427310,-0.243912,0.228132,0.270744,0.813294,0.348207
206,236637568,0.840041,-0.425781,-0.247230,0.227846,-0.155980,0.151391,0.169182
207,236670902,0.841280,-0.423955,-0.247642,0.226228,-0.095449,-0.169188,-0.402012
208,236704236,0.842999,-0.421805,-0.246777,0.224788,0.024621,-0.212300,-0.228220
209,236737570,0.844994,-0.419786,-0.243907,0.224209,0.562411,1.098798,0.423115
210,236770904,0.846660,-0.417908,-0.241184,0.224378,-0.071510,0.931513,0.634230
211,236804238,0.848353,-0.415201,-0.239187,0.225144,0.659433,0.597021,-0.203223
212,236837572,0.849944,-0.412742,-0.236891,0.226093,0.419690,0.642036,0.465517
213,236870906,0.851014,-0.410597,-0.235481,0.227440,-0.047725,-0.149367,-0.160528
214,236904240,0.853211,-0.407564,-0.231551,0.228695,-0.674151,0.163056,0.144884
215,236937574,0.855140,-0.404512,-0.228026,0.230447,-0.476171,0.348616,0.122967
216,236970908,0.856586,-0.402492,-0.225110,0.231477,-0.077961,1.222974,0.742516
217,237004242,0.857985,-0.401215,-0.223075,0.230480,0.166036,0.131241,0.526663
218,237037576,0.858847,-0.402309,-0.220201,0.228113,-0.791965,-0.178617,0.577364
219,237070910,0.859020,-0.404374,-0.217297,0.226592,-0.063367,0.163704,0.531729
220,237104244,0.858177,-0.406787,-0.215448,0.227232,0.966930,-0.417252,-0.162751
221,237137578,0.856600,-0.410655,-0.211799,0.229645,-0.047170,-0.881392,-0.384059
222,237170912,0.855257,-0.413220,-0.209166,0.232443,0.893536,0.337541,-0.238340
223,237204246,0.853189,-0.415241,-0.210062,0.235613,1.173361,0.174109,-0.485877
224,237237580,0.850206,-0.417071,-0.212907,0.240556,0.611713,-0.436953,-0.381788
225,237270914,0.847841,-0.417589,-0.214196,0.246780,-0.334886,-0.487797,0.603090
226,237304248,0.846424,-0.417163,-0.214055,0.252422,-0.222846,-0.585435,0.488320
227,237337582,0.846564,-0.418515,-0.209518,0.253520,-0.626656,0.213622,0.265631
228,237370916,0.846738,-0.420515,-0.206236,0.252319,0.009832,0.897743,0.852554
229,237404250,0.846446,-0.420246,-0.206821,0.253262,0.936687,0.267235,-0.522415
230,237437584,0.845583,-0.419674,-0.208664,0.255574,-0.047623,-0.419429,-0.124728
231,237470918,0.846438,-0.416815,-0.209034,0.257114,-0.258089,0.118138,-0.144742
232,237504252,0.846876,-0.414342,-0.209992,0.258885,0.228552,0.414493,0.443858
233,237537586,0.847798,-0.411031,-0.210647,0.260605,-0.263850,0.288591,0.130138
234,237570920,0.849379,-0.406779,-0.210183,0.262496,-0.553763,0.242896,0.477528
235,237604254,0.850305,-0.402668,-0.211401,0.264850,-0.891971,-0.329938,0.038455
236,237637588,0.852012,-0.398043,-0.211477,0.266291,-0.615922,0.079743,0.694972
237,237670922,0.853598,-0.392917,-0.213744,0.267012,0.407227,0.501076,0.104544
238,237704256,0.855276,-0.389534,-0.214440,0.266040,0.354611,0.985355,0.354440
239,237737590,0.857275,-0.387147,-0.213845,0.263556,0.996276,0.464869,-0.261786
240,237770924,0.858861,-0.386867,-0.211704,0.260514,-0.284814,0.137698,-0.154243
241,237804258,0.859812,-0.386163,-0.211769,0.258360,-1.012818,-0.343316,0.775416
242,237837592,0.859959,-0.386090,-0.213144,0.256847,-0.739015,0.054415,0.963790
243,237870926,0.860933,-0.385973,-0.213464,0.253471,0.480465,-0.101387,0.124731
244,237904260,0.859843,-0.387804,-0.217102,0.251276,-0.169695,-0.191993,0.550450
245,237937594,0.857266,-0.387983,-0.226961,0.251096,-0.358706,-1.279682,-0.583833
246,237970928,0.853042,-0.389239,-0.239785,0.251617,-0.041566,-0.558208,0.754129
247,238004262,0.849521,-0.392488,-0.246701,0.251795,-0.474142,0.019849,1.301202
248,238037596,0.847507,-0.395768,-0.249710,0.250480,0.523494,-1.061398,-0.952857
249,238070930,0.846377,-0.400125,-0.250028,0.247037,-0.245034,-0.157620,0.743410
250,238104264,0.846568,-0.403081,-0.248047,0.243549,0.793722,-0.576734,0.041615
251,238137598,0.846474,-0.406379,-0.245035,0.241437,0.998972,0.022592,-0.161185
252,238170932,0.846630,-0.409215,-0.241152,0.240004,0.315352,-1.249766,-0.641076
253,238204266,0.846315,-0.412531,-0.237329,0.239245,-0.371505,-0.610321,0.094984
254,238237600,0.846217,-0.415406,-0.233984,0.237910,-0.162797,-0.551592,0.149055
255,238270934,0.846344,-0.417150,-0.231398,0.236934,-0.068799,0.685301,0.348446
256,238304268,0.847544,-0.418032,-0.227818,0.234547,0.999301,0.699359,-0.439177
257,238337602,0.849647,-0.418385,-0.222148,0.231731,0.027940,0.200617,-0.162435
258,238370936,0.851914,-0.416980,-0.217068,0.230753,0.837530,0.790891,-0.218870
259,238404270,0.854336,-0.414869,-0.211942,0.230368,0.384442,0.484866,-0.238451
260,238437604,0.857052,-0.412422,-0.206481,0.229632,0.049199,0.525541,-0.121678
261,238470938,0.859547,-0.410555,-0.200483,0.228965,-0.989372,0.062924,0.676056
262,238504272,0.862043,-0.407622,-0.195489,0.229140,-0.072353,0.379306,0.214657
263,238537606,0.864681,-0.404195,-0.190423,0.229537,-0.091653,0.044274,0.065995
264,238570940,0.866770,-0.402201,-0.184536,0.229971,-0.149711,0.438795,0.896548
265,238604274,0.868549,-0.400531,-0.178219,0.231151,-0.221279,0.233944,-0.859935
266,238637608,0.869725,-0.399077,-0.172651,0.233461,0.204344,0.614022,1.078262
267,238670942,0.870449,-0.398110,-0.167271,0.236310,-0.198162,0.427321,0.479186
268,238704276,0.870551,-0.399201,-0.160338,0.238887,-0.217831,-0.064977,0.407218
269,238737610,0.869710,-0.401695,-0.154262,0.241754,-0.184604,0.162407,-0.016631
270,238770944,0.868000,-0.404288,-0.151551,0.245265,0.026588,-0.013770,0.643453
271,238804278,0.865667,-0.407435,-0.150164,0.249126,0.378039,0.096931,-0.111658
272,238837612,0.862977,-0.410990,-0.150086,0.252642,0.021501,-0.309657,0.258704
273,238870946,0.860322,-0.412631,-0.151968,0.257844,0.502245,0.420106,0.486584
274,238904280,0.857628,-0.414124,-0.154343,0.262964,0.077054,0.131852,0.244390
275,238937614,0.855665,-0.413771,-0.157318,0.268099,0.231862,-0.216222,-0.008554
276,238970948,0.854072,-0.411982,-0.160985,0.273699,0.457210,-0.466551,0.019285
277,239004282,0.852979,-0.410816,-0.162500,0.277931,0.064130,0.023042,0.311793
278,239037616,0.852965,-0.409784,-0.161474,0.280087,0.324054,-0.574760,-0.055191
279,239070950,0.851956,-0.411366,-0.160776,0.281240,0.643462,0.585756,0.123748
280,239104284,0.850890,-0.413466,-0.160350,0.281629,-0.292044,0.444185,-0.000347
281,239137618,0.849325,-0.413025,-0.164453,0.284618,-0.568257,0.388662,1.006127
282,239170952,0.847544,-0.410023,-0.172630,0.289386,-0.240047,-0.851780,-0.262753
283,239204286,0.846602,-0.406566,-0.179448,0.292853,0.272339,-0.545790,-0.268464
284,239237620,0.846280,-0.404546,-0.182619,0.294617,-0.328738,0.128620,0.247567
285,239270954,0.847292,-0.402481,-0.182865,0.294381,0.767515,0.883976,0.224943
286,239304288,0.847996,-0.400418,-0.184822,0.293945,-0.521545,0.655894,0.449047
287,239337622,0.849265,-0.396782,-0.187196,0.293712,0.089590,0.290124,0.194772
288,239370956,0.850360,-0.394192,-0.189080,0.292821,0.300286,-0.298207,0.130110
289,239404290,0.851914,-0.392824,-0.188813,0.290306,-0.540423,-0.335588,0.118775
290,239437624,0.853065,-0.393456,-0.187658,0.286797,-1.011530,0.081129,0.414771
291,239470958,0.854415,-0.393966,-0.187563,0.282102,-0.568175,-0.874205,1.217096
292,239504292,0.854856,-0.397587,-0.186179,0.276549,-0.230267,-0.693041,0.456424
293,239537626,0.855237,-0.403577,-0.181718,0.269573,-0.143676,0.060480,0.467702
294,239570960,0.854752,-0.409788,-0.179577,0.263097,0.437602,0.612778,0.533740
295,239604294,0.853492,-0.416848,-0.179060,0.256362,1.665575,-0.657576,-0.844610
296,239637628,0.851351,-0.424370,-0.180280,0.250213,1.003430,0.265479,-0.063051
297,239670962,0.849784,-0.430107,-0.181087,0.245108,0.871294,-0.262256,-0.579017
298,239704296,0.848468,-0.435157,-0.180692,0.241011,-0.113970,-0.473685,0.210955
299,239737630,0.848200,-0.438637,-0.178493,0.237255,0.043610,-0.792603,0.059471
300,239770964,0.848807,-0.441752,-0.173699,0.232819,0.755298,0.465206,-0.135471
301,239804298,0.849302,-0.444850,-0.168937,0.228584,-0.354682,-0.257253,0.481787
302,239837632,0.849829,-0.446359,-0.166011,0.225811,-0.052997,0.746752,0.288904
303,239870966,0.850128,-0.446717,-0.166472,0.223628,1.431241,0.041478,-0.416199
304,239904300,0.850847,-0.446638,-0.165586,0.221699,0.151660,0.117886,0.181198
305,239937634,0.852649,-0.445338,-0.161849,0.220143,0.507672,0.164953,0.215223
306,239970968,0.854434,-0.444106,-0.156240,0.219766,-0.792951,-0.073981,0.267125
307,240004302,0.856470,-0.442137,-0.149850,0.220261,-0.012160,0.205102,0.277625
308,240037636,0.858697,-0.439446,-0.143461,0.221227,0.314474,0.701485,0.038682
309,240070970,0.861463,-0.436683,-0.135000,0.221268,0.667887,-0.138753,-0.986114
310,240104304,0.863685,-0.433762,-0.129321,0.221741,-0.456744,0.408131,0.683939
311,240137638,0.865552,-0.430590,-0.124748,0.223261,-0.504797,0.827058,0.779250
312,240170972,0.867551,-0.426853,-0.121166,0.224648,0.358413,0.745500,0.473783
313,240204306,0.868765,-0.424177,-0.118532,0.226420,0.004693,-0.051872,0.090106
314,240237640,0.869989,-0.421030,-0.115888,0.228950,0.765381,-0.010879,-0.905635
315,240270974,0.870676,-0.418315,-0.114304,0.232092,-0.366901,0.310010,0.625579
316,240304308,0.870570,-0.416900,-0.111995,0.236125,-0.332756,0.008098,0.791178
317,240337642,0.870077,-0.416896,-0.108401,0.239598,0.185068,0.373210,0.511909
318,240370976,0.868251,-0.419699,-0.105894,0.242434,0.347595,-0.560000,0.139986
319,240404310,0.865579,-0.424606,-0.103326,0.244541,-0.429855,0.043698,1.704019
320,240437644,0.863220,-0.429236,-0.099902,0.246216,1.503218,0.003434,-0.648391
321,240470978,0.859446,-0.434559,-0.100520,0.249804,0.587524,-0.034823,0.290440
322,240504312,0.855980,-0.439040,-0.101627,0.253397,0.795888,-0.894782,-1.124174
323,240537646,0.852579,-0.441835,-0.105415,0.258407,0.761245,-0.215029,0.170296
324,240570980,0.850145,-0.442817,-0.108234,0.263528,0.233714,-0.806942,0.213135
325,240604314,0.848024,-0.443906,-0.109678,0.267897,-0.408073,-0.360494,0.616943
326,240637648,0.846527,-0.445424,-0.109614,0.270130,-0.022054,0.361750,0.795127
327,240670982,0.845748,-0.447425,-0.107463,0.270126,-0.532434,-0.643402,0.253128
328,240704316,0.845330,-0.448398,-0.106506,0.270201,1.047657,0.172640,0.074615
329,240737650,0.844961,-0.449467,-0.105993,0.269780,1.039520,-0.265664,-0.392610
330,240770984,0.845477,-0.450149,-0.103278,0.268076,-0.492654,0.011506,0.301062
331,240804318,0.846181,-0.449164,-0.102388,0.267846,-0.167218,-0.784815,-0.031991
332,240837652,0.847030,-0.448231,-0.101195,0.267177,0.129775,0.283849,0.017431
333,240870986,0.847751,-0.446965,-0.102102,0.266666,-0.132084,0.213622,0.631506
334,240904320,0.848675,-0.445724,-0.101933,0.265867,0.363250,0.111446,-0.008177
335,240937654,0.849943,-0.444234,-0.101265,0.264564,0.127148,0.057538,0.248829
336,240970988,0.851084,-0.442425,-0.102616,0.263405,1.062617,0.410419,-0.215757
337,241004322,0.852721,-0.439943,-0.104380,0.261567,0.352254,0.065418,0.349942
338,241037656,0.854022,-0.437984,-0.105724,0.260065,0.359300,-0.048353,0.112808
339,241070990,0.855913,-0.436212,-0.105860,0.256751,-0.238783,0.019398,0.200927
340,241104324,0.857110,-0.435643,-0.107868,0.252860,-0.388578,-0.134408,0.461405
341,241137658,0.857850,-0.435731,-0.110671,0.248954,0.083540,-0.096622,0.139722
342,241170992,0.858002,-0.436842,-0.113600,0.245135,-0.111694,-0.817421,-0.070766
343,241204326,0.857622,-0.439312,-0.116246,0.240772,-0.144319,0.518002,0.249734
344,241237660,0.856938,-0.441889,-0.121984,0.235599,0.187364,-0.089515,0.039522
345,241270994,0.855824,-0.445420,-0.128608,0.229395,0.551375,-0.131190,0.533810
346,241304328,0.855067,-0.450008,-0.131996,0.221193,0.560804,-0.166098,0.103997
347,241337662,0.854188,-0.454501,-0.135885,0.212891,0.188987,-0.255255,0.374285
348,241370996,0.853499,-0.458292,-0.139762,0.204867,0.385250,-0.276568,-0.118946
349,241404330,0.853021,-0.461233,-0.143669,0.197419,0.619309,-0.355704,-0.179621
350,241437664,0.852739,-0.463547,-0.147743,0.190070,0.862470,-0.658028,-0.354340
351,241470998,0.852701,-0.465333,-0.151030,0.183173,0.443414,0.045096,0.402571
352,241504332,0.853296,-0.465962,-0.152358,0.177619,1.094528,-0.207351,0.299180
353,241537666,0.853405,-0.467563,-0.152248,0.172918,0.017820,-0.258456,0.219447
354,241571000,0.853828,-0.468375,-0.152234,0.168592,0.513570,-0.216852,-0.084237
355,241604334,0.854502,-0.468796,-0.152407,0.163778,0.091578,-0.168410,-0.143213
356,241637668,0.854781,-0.468910,-0.154423,0.160067,0.392220,-0.254015,0.414989
357,241671002,0.855109,-0.469139,-0.155016,0.157040,0.606669,-0.337509,-0.122318
358,241704336,0.855737,-0.469272,-0.153694,0.154502,0.310368,0.419190,0.397081
359,241737670,0.856648,-0.468673,-0.152490,0.152454,0.882218,0.084103,-0.129843
360,241771004,0.857093,-0.468862,-0.151271,0.150572,-0.498372,-0.062509,0.338816
361,241804338,0.857496,-0.468315,-0.151534,0.149715,0.350738,-0.047173,0.332224
362,241837672,0.857940,-0.467741,-0.151322,0.149177,-0.114929,-0.212331,-0.284618
363,241871006,0.858800,-0.466402,-0.150786,0.148965,0.384536,0.482275,0.598898
364,241904340,0.859493,-0.465422,-0.150180,0.148649,0.239382,0.153903,0.205068
365,241937674,0.860533,-0.464229,-0.148658,0.147884,0.530618,-0.076812,0.052904
366,241971008,0.861431,-0.463558,-0.145940,0.147468,0.371819,0.311928,0.083055
367,242004342,0.862502,-0.462341,-0.143632,0.147300,0.620620,0.415517,0.238204
368,242037676,0.863199,-0.461774,-0.140944,0.147586,0.013496,-0.053062,0.171406
369,242071010,0.864107,-0.461291,-0.137080,0.147422,0.237545,0.377810,0.381212
370,242104344,0.865044,-0.461479,-0.132431,0.145581,0.546289,-0.042393,-0.307555
371,242137678,0.864974,-0.462747,-0.129315,0.144770,-0.202032,0.141434,0.922715
372,242171012,0.864979,-0.464081,-0.124732,0.144488,0.091626,-0.226240,0.266508
373,242204346,0.865226,-0.465229,-0.119560,0.143688,-0.114841,-0.136308,-0.009295
374,242237680,0.865237,-0.466211,-0.115620,0.143667,0.276420,-0.158015,0.035498
375,242271014,0.864834,-0.467770,-0.111456,0.144311,0.675388,-0.233229,-0.010018
376,242304348,0.864512,-0.469071,-0.106948,0.145431,0.244108,-0.077711,0.032324
377,242337682,0.864328,-0.469734,-0.102712,0.147420,0.448495,0.012262,0.200437
378,242371016,0.863869,-0.470157,-0.100284,0.150403,0.202667,-0.271285,0.144080
379,242404350,0.863640,-0.470111,-0.098657,0.152919,0.312995,-0.403353,0.028807
380,242437684,0.863771,-0.469850,-0.096363,0.154435,-0.179603,-0.363277,0.176245
381,242471018,0.864516,-0.468901,-0.093857,0.154693,0.014407,-0.010011,0.859638
382,242504352,0.865421,-0.468061,-0.091150,0.153795,-0.158407,-0.694600,0.007193
383,242537686,0.866082,-0.467440,-0.089066,0.153180,-0.161551,-0.573564,0.010111
384,242571020,0.866821,-0.466595,-0.087100,0.152706,0.081799,-0.513868,-0.107616
385,242604354,0.867482,-0.465661,-0.086517,0.152134,0.290469,0.106675,0.483791
386,242637688,0.868709,-0.463926,-0.085620,0.150940,0.590374,-0.349217,0.102450
387,242671022,0.870196,-0.462332,-0.083408,0.148482,0.160134,-0.708551,0.097578
388,242704356,0.871890,-0.460558,-0.081147,0.145271,-0.152303,-0.671704,0.051643
389,242737690,0.873910,-0.458016,-0.080127,0.141694,0.118118,-0.150156,0.367050
390,242771024,0.875802,-0.455300,-0.080872,0.138302,0.345468,-0.162257,0.374084
391,242804358,0.877052,-0.453711,-0.082134,0.134814,0.153203,-0.514244,0.205863
392,242837692,0.878217,-0.451903,-0.084695,0.131685,0.140222,-0.440648,0.051836
393,242871026,0.879353,-0.449941,-0.088232,0.128464,0.339000,-0.416403,0.180346
394,242904360,0.880303,-0.448300,-0.092584,0.124570,0.402005,-0.496203,0.570524
395,242937694,0.881176,-0.447405,-0.095546,0.119263,0.383832,-0.844835,0.011208
396,242971028,0.881892,-0.447446,-0.096655,0.112747,-0.145190,-0.647914,0.249044
397,243004362,0.882627,-0.446724,-0.099933,0.106842,0.163516,-0.712039,0.356412
398,243037696,0.883129,-0.446431,-0.103061,0.100773,-0.246951,-0.866032,0.562263
399,243071030,0.883239,-0.447671,-0.103404,0.093717,-0.096718,-0.934635,-0.234345
400,243104364,0.882442,-0.450849,-0.102817,0.086345,-0.197581,0.903521,-0.245972
401,243137698,0.881736,-0.452437,-0.106442,0.080670,1.359814,1.195892,0.263459
402,243171032,0.881349,-0.453100,-0.110499,0.075563,1.278565,-0.030070,0.166803
403,243204366,0.881222,-0.453791,-0.111447,0.071392,0.501687,-0.310363,-0.074872
404,243237700,0.881033,-0.455053,-0.109644,0.068418,0.563048,0.008959,-0.318966
405,243271034,0.880189,-0.456526,-0.110774,0.067643,0.592286,0.671651,0.110666
406,243304368,0.878784,-0.458345,-0.113776,0.068623,0.837868,0.407149,0.127798
407,243337702,0.877128,-0.460459,-0.116334,0.071314,0.670268,-0.183828,-0.210129
408,243371036,0.874902,-0.462637,-0.120905,0.076752,0.958264,0.050395,-0.434212
409,243404370,0.872315,-0.463776,-0.129252,0.085252,0.928089,0.183207,-0.468825
410,243437704,0.869361,-0.464459,-0.139529,0.094952,1.133970,0.595706,-0.300612
411,243471038,0.866636,-0.464667,-0.147594,0.106008,0.161359,0.608030,0.638460
412,243504372,0.864754,-0.462862,-0.153206,0.120343,0.296694,-0.139572,0.461477
413,243537706,0.863185,-0.459994,-0.156087,0.137658,0.818951,-0.491998,-0.343593
414,243571040,0.861160,-0.457209,-0.157271,0.156923,0.108297,0.004029,0.075564
415,243604374,0.858912,-0.452967,-0.158128,0.179117,0.180251,0.198700,0.460929
416,243637708,0.856105,-0.448673,-0.157302,0.202556,0.474271,0.353294,-0.060632
417,243671042,0.852310,-0.444656,-0.155689,0.227168,-0.016519,0.151271,0.629443
418,243704376,0.847569,-0.441369,-0.151978,0.252425,0.614171,-0.275881,-0.424584
419,243737710,0.840895,-0.442123,-0.145711,0.276019,-0.433790,0.093726,0.435300
420,243771044,0.833264,-0.443659,-0.139257,0.299066,0.156195,0.651745,0.384783
421,243804378,0.825199,-0.445143,-0.135437,0.320229,0.402658,0.183479,-0.559901
422,243837712,0.815985,-0.446105,-0.138324,0.340619,-0.278227,0.423489,0.614529
423,243871046,0.806911,-0.446075,-0.143346,0.359665,-0.026282,0.518401,0.778727
424,243904380,0.798311,-0.446695,-0.149146,0.375384,-0.637079,0.109715,0.873827
425,243937714,0.791512,-0.447030,-0.153969,0.387248,-0.416162,-0.002021,0.155663
426,243971048,0.785993,-0.447181,-0.158581,0.396347,-0.028042,-0.248174,-0.099075
427,244004382,0.780957,-0.446874,-0.163279,0.404653,-0.081955,-0.129951,0.322144
428,244037716,0.776024,-0.445489,-0.168023,0.413629,0.207671,0.314278,0.246978
429,244071050,0.771276,-0.443467,-0.173217,0.422447,0.351761,0.413968,-0.149296
430,244104384,0.766547,-0.440599,-0.180160,0.431064,0.226087,0.275727,0.099709
431,244137718,0.761573,-0.437283,-0.188475,0.439617,0.288313,0.050646,0.464986
432,244171052,0.756897,-0.433970,-0.197056,0.447147,0.519148,0.419222,0.090920
433,244204386,0.752161,-0.430804,-0.206887,0.453713,-0.312918,0.346728,0.437969
434,244237720,0.746629,-0.426569,-0.218566,0.461311,-0.109646,-0.249100,0.349092
435,244271054,0.739811,-0.421652,-0.231781,0.470278,0.083509,-0.017303,-0.017590
436,244304388,0.732536,-0.416688,-0.244955,0.479327,-0.526479,-0.196012,0.453523
437,244337722,0.725428,-0.411070,-0.258598,0.487748,-0.034663,-0.467408,0.462868
438,244371056,0.719180,-0.406270,-0.270668,0.494428,-0.437068,-0.826145,0.091148
439,244404390,0.713143,-0.401796,-0.283285,0.499732,0.013272,-0.317692,-0.670092
440,244437724,0.706138,-0.395616,-0.298503,0.505716,-0.077030,0.300740,-0.212753
441,244471058,0.698108,-0.387825,-0.314171,0.513350,-0.212452,-0.454878,0.768352
442,244504392,0.690552,-0.380371,-0.328083,0.520397,-1.060213,-0.152578,0.309816
443,244537726,0.683555,-0.372256,-0.341320,0.526948,-0.686758,-1.100240,0.424441
444,244571060,0.677070,-0.364714,-0.353238,0.532709,0.427669,-0.421856,-0.129279
445,244604394,0.672326,-0.359269,-0.360413,0.537588,-0.604780,-0.126429,0.257435
446,244637728,0.667879,-0.354485,-0.364163,0.543746,0.335386,-1.036657,-0.128410
447,244671062,0.661764,-0.350980,-0.365054,0.552822,-0.037148,-0.178356,-0.354902
448,244704396,0.654093,-0.348194,-0.363965,0.564312,0.207096,-0.006773,-0.434498
449,244737730,0.643827,-0.345623,-0.365211,0.576757,-0.725706,0.057792,-0.226006
450,244771064,0.630742,-0.340180,-0.370538,0.590880,-0.461094,-0.011827,0.423335
451,244804398,0.616154,-0.334572,-0.376717,0.605389,-0.412920,0.503155,0.527513
452,244837732,0.601471,-0.329865,-0.381856,0.619357,-0.625477,-0.367608,0.396269
453,244871066,0.584676,-0.323943,-0.387653,0.634772,0.012342,0.043223,0.301732
454,244904400,0.566830,-0.320208,-0.392745,0.649552,-0.318793,-0.127503,-0.372874
455,244937734,0.547208,-0.315788,-0.399489,0.664262,-0.556968,-0.980225,0.946908
456,244971068,0.527072,-0.311498,-0.405919,0.678520,0.222280,0.297864,-0.339225
457,245004402,0.506485,-0.306759,-0.412314,0.692361,-0.281684,-0.721960,0.083699
458,245037736,0.485704,-0.298753,-0.417859,0.707268,0.354752,-0.442862,0.678241
459,245071070,0.468190,-0.293517,-0.420463,0.719619,-0.310658,-0.342481,-1.291449
460,245104404,0.451178,-0.285587,-0.427100,0.729698,-0.563620,-1.325934,1.080818
461,245137738,0.435109,-0.276995,-0.433768,0.738779,-0.550391,-0.571145,0.471502
462,245171072,0.420216,-0.268271,-0.439309,0.747296,0.503984,-1.109357,0.269003
463,245204406,0.405223,-0.258276,-0.444638,0.755897,0.267341,-0.870549,0.036201
464,245237740,0.390646,-0.247511,-0.449352,0.764338,0.257185,-0.637216,-0.293846
465,245271074,0.377261,-0.236387,-0.454250,0.771652,0.336760,-0.813505,-0.180588
466,245304408,0.366266,-0.226508,-0.459749,0.776640,-0.025231,-1.188011,-0.373407
467,245337742,0.356141,-0.215854,-0.467927,0.779494,-0.208503,-0.806062,0.622087
468,245371076,0.346122,-0.204912,-0.476225,0.781931,-0.554400,-0.593304,0.560341
469,245404410,0.335412,-0.193675,-0.483410,0.785047,0.201639,-0.464724,0.143845
470,245437744,0.323744,-0.181598,-0.489633,0.788966,-0.050740,-0.130667,-0.149723
471,245471078,0.313349,-0.169903,-0.494116,0.792962,-0.011374,-0.678376,0.523608
472,245504412,0.303629,-0.158606,-0.496472,0.797599,0.726342,-0.696435,0.244300
473,245537746,0.294812,-0.148324,-0.498261,0.801759,0.453935,-0.183795,-0.424328
474,245571080,0.286815,-0.139817,-0.501264,0.804313,0.091064,-0.799360,0.085209
475,245604414,0.278450,-0.129549,-0.505320,0.806430,-0.838866,-0.122187,-0.001616
476,245637748,0.270393,-0.119224,-0.508767,0.808594,-0.310499,-0.802468,0.316927
477,245671082,0.260991,-0.107686,-0.512312,0.811061,0.063056,-0.807023,0.014495
478,245704416,0.251122,-0.095998,-0.516106,0.813236,-0.516671,-0.649266,0.185716
479,245737750,0.243504,-0.085323,-0.519104,0.814833,0.125714,-1.094462,-0.041609
480,245771084,0.235916,-0.073824,-0.521490,0.816662,-0.665138,-0.436676,0.062057
481,245804418,0.227861,-0.062820,-0.522935,0.818943,0.493620,-0.316563,-0.032249
482,245837752,0.217739,-0.052916,-0.522621,0.822589,-0.801034,-1.234878,0.438160
483,245871086,0.205752,-0.043092,-0.521301,0.827073,0.000953,-0.582791,0.125233
484,245904420,0.190788,-0.032938,-0.519971,0.831950,-0.200299,-0.577021,-0.699648
485,245937754,0.174365,-0.023830,-0.518281,0.836904,-0.529335,-0.893016,0.482444
486,245971088,0.156494,-0.015831,-0.515245,0.842483,0.367025,-0.873068,0.203875
487,246004422,0.137740,-0.008839,-0.512076,0.847776,-0.064221,-1.214531,0.166440
488,246037756,0.119141,-0.002139,-0.509062,0.852439,0.379702,-1.281176,0.379984
489,246071090,0.100472,0.005314,-0.506048,0.856614,0.431733,-0.776996,0.031188
490,246104424,0.082068,0.013153,-0.502931,0.860318,0.271587,-0.596724,-0.043319
491,246137758,0.066055,0.020745,-0.499159,0.863737,0.489276,-0.912457,0.322439
492,246171092,0.052439,0.028072,-0.494837,0.866945,0.723558,-0.727584,0.271552
493,246204426,0.039972,0.035462,-0.490123,0.870011,0.549836,-0.424365,0.157604
494,246237760,0.028630,0.042090,-0.486004,0.872470,0.473443,-0.960101,0.381375
495,246271094,0.018297,0.048663,-0.481578,0.874857,0.386277,-0.822367,0.382061
496,246304428,0.009573,0.054376,-0.477058,0.877133,-0.038424,-0.532728,-0.334628
497,246337762,0.001939,0.059904,-0.472481,0.879298,0.661130,-0.690334,0.138355
498,246371096,-0.006512,0.066066,-0.467841,0.881313,0.652664,-0.714998,0.365878
499,246404430,-0.015333,0.072270,-0.463379,0.883073,0.604064,-0.156793,-0.154169
500,246437764,-0.023031,0.076927,-0.460427,0.884055,0.586134,-0.301954,0.031826
501,246471098,-0.028996,0.079786,-0.457431,0.885181,0.081886,-0.759310,0.206573
502,246504432,-0.033129,0.080053,-0.454626,0.886456,0.379648,-0.634428,0.101494
503,246537766,-0.037017,0.080658,-0.453161,0.886998,1.124438,-0.458744,0.050915
504,246571100,-0.042910,0.083643,-0.451470,0.887318,0.319967,-0.850326,0.186809
505,246604434,-0.048488,0.086642,-0.450623,0.887173,0.667147,-0.734503,0.389122
506,246637768,-0.054987,0.090692,-0.450027,0.886692,0.669377,-0.537179,-0.328648
507,246671102,-0.062342,0.095397,-0.449591,0.885933,0.767914,-0.515056,-0.090638
508,246704436,-0.070918,0.099598,-0.448148,0.885556,0.644661,-0.342516,0.378300
509,246737770,-0.079784,0.100495,-0.447886,0.884833,0.852896,0.115132,0.092807
510,246771104,-0.088824,0.099269,-0.448558,0.883768,0.265460,-0.924207,-0.188483
511,246804438,-0.099012,0.099653,-0.449547,0.882139,1.198037,-0.908472,0.328229
512,246837772,-0.109908,0.101969,-0.451055,0.879811,0.434356,-0.654754,0.011989
513,246871106,-0.120138,0.106825,-0.453470,0.876650,0.969042,-0.915649,0.694998
514,246904440,-0.128007,0.112010,-0.454611,0.874295,0.580851,-0.495779,0.143771
515,246937774,-0.132516,0.115600,-0.455802,0.872534,-0.353146,-0.344615,-0.008179
516,246971108,-0.135801,0.116276,-0.456936,0.871345,1.272403,-0.016004,0.106681
517,247004442,-0.140692,0.114756,-0.455864,0.871333,0.820786,-0.609331,1.238297
518,247037776,-0.145892,0.108931,-0.453603,0.872405,-0.101365,0.424007,-0.358053
519,247071110,-0.150821,0.100798,-0.452770,0.872976,0.184950,-0.698427,-0.311095
520,247104444,-0.155360,0.094111,-0.452314,0.873163,0.821226,-0.855490,-0.193966
521,247137778,-0.160541,0.091395,-0.452211,0.872568,0.525457,-1.057991,0.474089
522,247171112,-0.165948,0.092090,-0.453444,0.870841,0.769454,-0.718325,0.339737
523,247204446,-0.172623,0.095577,-0.454304,0.868717,0.641051,-0.763031,0.251465
524,247237780,-0.179373,0.100107,-0.454743,0.866607,-0.099301,-0.440192,-0.232288
525,247271114,-0.183706,0.102909,-0.455374,0.865039,-0.450114,-0.647780,0.067596
526,247304448,-0.184649,0.101234,-0.457680,0.863817,0.373123,-0.101997,-0.049426
527,247337782,-0.184759,0.100048,-0.459487,0.862973,0.258445,-0.273404,0.176661
528,247371116,-0.182338,0.095045,-0.461658,0.862894,0.222250,-1.297465,1.679921
529,247404450,-0.178779,0.090678,-0.465183,0.862215,0.197926,0.245477,-0.214890
530,247437784,-0.175780,0.089325,-0.469756,0.860493,0.229637,-1.380385,1.278312
531,247471118,-0.172533,0.088893,-0.474520,0.858578,0.078736,-0.422216,0.184186
532,247504452,-0.170035,0.091104,-0.478983,0.856364,-0.505358,-0.687460,0.085801
533,247537786,-0.167787,0.095405,-0.483072,0.854039,-0.170624,0.385385,-0.646257
534,247571120,-0.166527,0.100512,-0.485987,0.852043,0.023418,-0.084915,-0.232359
535,247604454,-0.165260,0.106184,-0.488167,0.850354,-0.025924,0.005200,-0.201523
536,247637788,-0.163271,0.111515,-0.489801,0.849116,-0.598933,-0.191220,0.252574
537,247671122,-0.159932,0.112984,-0.492001,0.848285,0.600184,0.121013,0.809492
538,247704456,-0.155719,0.110600,-0.494564,0.847892,-0.403631,-0.359574,-0.387422
539,247737790,-0.151315,0.107298,-0.496298,0.848100,-0.097634,-0.548525,-0.654284
540,247771124,-0.148841,0.107195,-0.497042,0.848115,-0.354139,-0.076905,-0.604117
541,247804458,-0.148996,0.109658,-0.496840,0.847892,-0.285754,-0.592638,-0.077587
542,247837792,-0.149644,0.112669,-0.496270,0.847717,-0.007023,-1.143168,0.240808
543,247871126,-0.150605,0.116689,-0.494841,0.847838,0.394499,-1.223381,0.922791
544,247904460,-0.151120,0.121093,-0.493028,0.848185,0.322117,-0.446160,0.291338
545,247937794,-0.151867,0.126133,-0.491520,0.848192,0.249671,-0.573226,0.138125
546,247971128,-0.152225,0.129866,-0.489982,0.848455,0.359506,-0.286964,-0.441772
547,248004462,-0.153695,0.134436,-0.487902,0.848677,-0.202266,-1.193952,0.733207
548,248037796,-0.154605,0.136693,-0.485145,0.849731,-0.352048,-0.522784,-0.458711
549,248071130,-0.154594,0.137496,-0.482975,0.850838,0.133055,-0.844253,0.428589
550,248104464,-0.154288,0.137317,-0.480095,0.852551,0.265857,-0.044361,-0.090681
551,248137798,-0.153838,0.134585,-0.477345,0.854610,-0.092520,-0.558056,-0.257770
552,248171132,-0.154046,0.132433,-0.474859,0.856292,1.041109,-0.876881,0.481365
553,248204466,-0.155416,0.131752,-0.471792,0.857843,0.089442,-0.279777,-0.109104
554,248237800,-0.156510,0.129185,-0.470050,0.858990,0.423932,-0.733303,0.221472
555,248271134,-0.158474,0.125164,-0.467401,0.860669,0.850705,-0.621407,0.476640
556,248304468,-0.162822,0.123000,-0.465255,0.861332,0.260649,-0.294210,-0.077625
557,248337802,-0.168023,0.122312,-0.464153,0.861026,0.845435,-0.472569,0.311854
558,248371136,-0.172395,0.120568,-0.463531,0.860742,-0.006593,-0.759232,0.261605
559,248404470,-0.175939,0.118324,-0.464164,0.859996,1.077505,-0.269360,0.751428
560,248437804,-0.178996,0.116377,-0.465141,0.859102,0.215946,-0.852666,0.298824
561,248471138,-0.180845,0.115790,-0.466308,0.858161,0.041530,-0.413098,-0.158461
562,248504472,-0.184275,0.117004,-0.466869,0.856960,0.018452,-0.447425,0.078667
563,248537806,-0.187963,0.116787,-0.467066,0.856082,0.328764,-0.310072,0.123782
564,248571140,-0.193419,0.118023,-0.466588,0.854956,0.576857,-0.291979,0.239246
565,248604474,-0.198795,0.119911,-0.465761,0.853911,0.571266,-0.268898,0.368731
566,248637808,-0.203302,0.122716,-0.465126,0.852797,0.404089,-0.291833,0.195659
567,248671142,-0.207588,0.125367,-0.463944,0.852022,0.343115,-0.086492,0.259937
568,248704476,-0.210926,0.125789,-0.462663,0.851837,-0.011346,-0.285077,-0.442719
569,248737810,-0.213345,0.127126,-0.461368,0.851738,0.579015,-0.520027,0.514361
570,248771144,-0.215148,0.128111,-0.460414,0.851653,0.387340,-0.592242,-0.039660
571,248804478,-0.216432,0.129975,-0.459321,0.851635,-0.060400,-0.397526,-0.238080
572,248837812,-0.217033,0.131899,-0.458895,0.851416,0.440229,-0.577640,0.213016
573,248871146,-0.216919,0.130817,-0.457627,0.852295,0.438200,-0.889179,0.699256
574,248904480,-0.216950,0.129476,-0.456550,0.853068,-0.091273,-0.147302,-0.601463
575,248937814,-0.217832,0.130994,-0.455426,0.853213,1.009299,-0.091470,0.143517
576,248971148,-0.220052,0.133028,-0.452780,0.853737,0.387818,-0.372315,0.170912
577,249004482,-0.221087,0.134653,-0.450488,0.854427,-0.018331,-0.068540,0.050607
578,249037816,-0.222209,0.138297,-0.449265,0.854197,0.879112,-0.249802,0.507174
579,249071150,-0.223373,0.141176,-0.447970,0.854103,-0.165819,-0.609513,-0.053663
580,249104484,-0.223098,0.144633,-0.446458,0.854388,-0.171022,-0.900943,0.507029
581,249137818,-0.222610,0.148735,-0.445258,0.854437,0.160614,-0.121147,0.158282
582,249171152,-0.221128,0.150315,-0.444445,0.854969,0.615907,-0.357725,0.563906
583,249204486,-0.218669,0.151508,-0.444003,0.855620,-0.241825,-0.177080,0.130783
584,249237820,-0.216139,0.153396,-0.444287,0.855779,-0.061793,0.000693,-0.161820
585,249271154,-0.213328,0.155580,-0.446380,0.855001,0.495482,-0.329838,0.910627
586,249304488,-0.209248,0.156205,-0.448970,0.854539,1.018645,-0.011488,0.171366
587,249337822,-0.204737,0.160268,-0.452780,0.852867,0.306863,-0.046332,0.648488
588,249371156,-0.198530,0.162671,-0.457833,0.851181,0.297149,0.325039,0.083841
589,249404490,-0.191404,0.163687,-0.463473,0.849564,0.269216,-0.300762,0.885639
590,249437824,-0.184561,0.165155,-0.468597,0.847982,-0.583947,-0.066043,-0.128297
591,249471158,-0.178207,0.168258,-0.473495,0.846008,0.010237,-0.318307,0.282569
592,249504492,-0.171757,0.171349,-0.477467,0.844488,-0.517706,0.232896,-0.636348
593,249537826,-0.165569,0.175062,-0.480977,0.842969,-0.096296,0.106940,-0.384858
594,249571160,-0.160402,0.180235,-0.483684,0.841327,-0.112910,-0.615839,0.137887
595,249604494,-0.156101,0.185367,-0.485342,0.840066,-0.541771,-0.347792,-0.014844
596,249637828,-0.153489,0.188772,-0.486488,0.839125,-0.534409,0.017049,-0.037757
597,249671162,-0.151894,0.190253,-0.487668,0.838396,-0.011364,-0.327728,-0.062837
598,249704496,-0.152151,0.191982,-0.487566,0.838014,-1.203214,-0.666421,-0.331778
599,249737830,-0.150162,0.189286,-0.486532,0.839586,-0.397656,-0.701491,-0.469646
600,249771164,-0.147673,0.185758,-0.484369,0.842062,0.422474,-0.068759,0.466477
601,249804498,-0.146166,0.181980,-0.482501,0.844220,1.022406,-0.175651,0.086142
602,249837832,-0.145209,0.179865,-0.480921,0.845738,0.794061,-1.075263,0.878068
603,249871166,-0.145109,0.178419,-0.479170,0.847055,0.701959,-0.678288,0.177199
604,249904500,-0.145432,0.177318,-0.477315,0.848277,0.078669,-0.613249,0.018463
605,249937834,-0.145440,0.175194,-0.475781,0.849578,-0.211379,-0.329292,-0.590697
606,249971168,-0.146745,0.172851,-0.473273,0.851232,0.225749,-0.780289,-0.003448
607,250004502,-0.148796,0.170867,-0.470289,0.852929,-0.364467,-0.190172,-1.243199
608,250037836,-0.151572,0.169095,-0.467770,0.854178,0.436851,-1.096475,0.519305
609,250071170,-0.155182,0.166885,-0.464480,0.855758,0.295513,-1.078959,0.437195
610,250104504,-0.160317,0.165608,-0.461957,0.856425,0.930525,-1.142798,1.293850
611,250137838,-0.166174,0.163818,-0.458865,0.857315,0.575738,-0.603901,0.613108
612,250171172,-0.171656,0.161232,-0.456680,0.857891,0.119781,-0.016050,0.005832
613,250204506,-0.176181,0.157144,-0.455920,0.858137,-0.013061,-0.293673,0.050556
614,250237840,-0.178841,0.150047,-0.456083,0.858770,0.008055,-0.422162,-0.098098
615,250271174,-0.181004,0.142183,-0.457344,0.858984,0.661615,0.562462,0.293360
616,250304508,-0.183717,0.134936,-0.459522,0.858414,0.554074,0.205560,0.733494
617,250337842,-0.186438,0.125808,-0.462005,0.857881,0.406891,-0.601530,0.275556
618,250371176,-0.189965,0.119847,-0.465105,0.856284,-0.147456,-0.346963,-0.184679
619,250404510,-0.194715,0.117699,-0.467528,0.854193,-0.405428,-0.779801,0.228035
620,250437844,-0.200293,0.118261,-0.469369,0.851813,-0.106909,0.308946,-0.332133
621,250471178,-0.207031,0.119557,-0.469558,0.849915,0.983623,-0.071680,0.287016
622,250504512,-0.214903,0.122066,-0.467657,0.848651,0.109012,0.335411,-0.083097
623,250537846,-0.220429,0.122046,-0.466578,0.847831,0.103777,-0.091446,0.129004
624,250571180,-0.223332,0.117398,-0.465890,0.848105,0.590769,-0.290478,0.985521
625,250604514,-0.224733,0.112941,-0.465988,0.848287,0.357482,-0.128920,-0.032182
626,250637848,-0.227182,0.112070,-0.465668,0.847925,0.308274,-0.758774,-0.112985
627,250671182,-0.229943,0.112967,-0.464939,0.847462,0.110539,-0.130567,0.229779
628,250704516,-0.232540,0.113474,-0.463806,0.847307,-0.265510,-0.354366,0.178187
629,250737850,-0.234164,0.112839,-0.462418,0.847702,0.286912,-0.964925,0.634958
630,250771184,-0.234848,0.112639,-0.461105,0.848255,-0.107595,0.425284,-0.268671
631,250804518,-0.234523,0.111833,-0.460966,0.848527,0.369061,-0.227025,0.446399
632,250837852,-0.232982,0.108476,-0.459479,0.850192,0.367095,0.138747,-0.171244
633,250871186,-0.231636,0.105741,-0.458199,0.851594,0.703870,-0.345305,-0.230048
634,250904520,-0.232953,0.107946,-0.456509,0.851866,0.384793,-0.645145,0.457311
635,250937854,-0.235830,0.112110,-0.454502,0.851610,0.387167,0.009198,-0.133090
636,250971188,-0.237832,0.115810,-0.452389,0.851683,0.538067,-0.761691,0.597718
637,251004522,-0.238067,0.117941,-0.450954,0.852086,0.568260,-0.497922,0.560464
638,251037856,-0.237049,0.119623,-0.450171,0.852549,0.164719,-0.040783,-0.099430
639,251071190,-0.235103,0.120098,-0.450130,0.853042,0.506423,-0.502105,0.226935
640,251104524,-0.233839,0.121494,-0.450063,0.853228,0.827362,-0.402186,0.229231
641,251137858,-0.233540,0.125049,-0.450232,0.852706,0.159649,-0.410669,0.329172
642,251171192,-0.234442,0.131663,-0.451952,0.850551,1.211879,0.718697,0.442053
643,251204526,-0.235680,0.138481,-0.454177,0.847937,0.508882,-0.213768,0.273672
644,251237860,-0.235582,0.145368,-0.457639,0.844945,0.430310,-0.128630,-0.253370
645,251271194,-0.235084,0.153557,-0.460651,0.841993,-0.322164,-0.405131,0.119299
646,251304528,-0.233347,0.161608,-0.464977,0.838584,0.578044,0.375287,0.466525
647,251337862,-0.229162,0.168187,-0.469500,0.835920,0.198823,-0.244091,0.081569
648,251371196,-0.223923,0.175188,-0.473628,0.833571,-0.059042,-0.041133,0.010597
649,251404530,-0.219610,0.182278,-0.477058,0.831238,-0.141450,0.017859,-0.278357
650,251437864,-0.216291,0.187881,-0.479272,0.829586,0.093602,-0.406333,0.103622
651,251471198,-0.213375,0.192059,-0.480010,0.828957,-0.261293,-0.154203,0.114591
652,251504532,-0.210418,0.193685,-0.479987,0.829348,0.099108,-0.271874,0.011627
653,251537866,-0.207752,0.193564,-0.479796,0.830158,0.958112,-0.024410,0.344637
654,251571200,-0.204075,0.193667,-0.479451,0.831245,-0.797969,-0.536941,-0.119497
655,251604534,-0.197841,0.191757,-0.480334,0.832684,0.080442,-0.151714,-0.740017
656,251637868,-0.193690,0.191424,-0.480261,0.833778,0.337471,-0.613240,0.391458
657,251671202,-0.191880,0.191188,-0.478750,0.835118,-0.500468,-0.823739,0.351691
658,251704536,-0.190546,0.189239,-0.475731,0.837589,0.169101,-0.623660,-0.332623
659,251737870,-0.189567,0.187106,-0.472403,0.840170,0.271919,-0.213030,0.367912
660,251771204,-0.188096,0.183754,-0.469641,0.842785,0.686670,-0.884730,0.059978
661,251804538,-0.188694,0.181780,-0.465538,0.845352,0.162387,-0.640884,0.555792
662,251837872,-0.190613,0.180773,-0.461349,0.847431,-0.941923,-0.524333,-0.294267
663,251871206,-0.193361,0.179473,-0.458731,0.848506,1.253208,-0.301185,0.154575
664,251904540,-0.196981,0.178292,-0.453885,0.850526,0.776490,-0.323095,0.515241
665,251937874,-0.201740,0.179175,-0.449729,0.851432,0.102350,-0.180012,0.298230
666,251971208,-0.205383,0.177990,-0.446085,0.852726,-0.338382,-0.060304,-0.458921
667,252004542,-0.208922,0.175273,-0.443198,0.853934,0.019126,-1.012463,0.411985
668,252037876,-0.215385,0.176846,-0.439747,0.853787,0.073442,-0.438474,0.697965
669,252071210,-0.221691,0.176247,-0.437233,0.853588,0.345428,0.706098,-0.512836
670,252104544,-0.226111,0.173695,-0.437287,0.852924,0.366372,-0.553629,0.602183
671,252137878,-0.230753,0.170954,-0.438309,0.851709,0.024464,-0.227117,1.017839
672,252171212,-0.232925,0.165809,-0.440952,0.850770,0.172234,-0.279282,0.204112
673,252204546,-0.234936,0.163829,-0.443445,0.849304,-0.415568,-0.181626,-0.366396
674,252237880,-0.237458,0.163879,-0.445102,0.847725,-0.504699,-0.256720,-0.307944
675,252271214,-0.240736,0.166299,-0.444127,0.846839,-0.188063,-0.326834,-0.760381
676,252304548,-0.246540,0.174093,-0.441078,0.845195,0.438600,-0.316713,0.626777
677,252337882,-0.251894,0.178331,-0.437052,0.844825,0.710585,0.408423,0.490871
678,252371216,-0.255219,0.177939,-0.434230,0.845364,0.699310,0.346432,0.286431
679,252404550,-0.256346,0.177656,-0.432581,0.845928,0.294055,-1.244727,1.252812
680,252437884,-0.256412,0.178422,-0.431813,0.846139,0.331718,-0.564615,0.246021
681,252471218,-0.257338,0.179125,-0.430033,0.846615,0.358401,-0.374201,0.268913
682,252504552,-0.258856,0.181050,-0.428128,0.846709,0.024737,0.268195,-0.619417
683,252537886,-0.261210,0.184778,-0.424644,0.846935,-0.479992,-0.986381,-0.126201
684,252571220,-0.263323,0.189270,-0.419399,0.847902,0.591621,-0.798902,0.265725
685,252604554,-0.265510,0.194819,-0.414136,0.848550,0.628450,-0.489125,0.398840
686,252637888,-0.266238,0.199138,-0.410138,0.849261,0.883348,-0.576352,1.194035
687,252671222,-0.265118,0.202469,-0.408384,0.849669,0.027618,0.075728,-0.363219
688,252704556,-0.262858,0.202736,-0.406363,0.851275,0.008216,0.151941,-0.569983
689,252737890,-0.261459,0.201968,-0.404575,0.852738,0.519709,0.004963,0.765841
690,252771224,-0.257841,0.197014,-0.405809,0.854411,0.194698,-0.070683,-0.491654
691,252804558,-0.251851,0.192960,-0.408512,0.855834,0.966437,0.203211,0.064814
692,252837892,-0.244127,0.191420,-0.411642,0.856917,0.731139,0.102939,1.083006
693,252871226,-0.235593,0.188562,-0.416506,0.857589,-0.660812,-0.009461,0.004326
694,252904560,-0.225798,0.180961,-0.422949,0.858707,0.312463,0.730937,-0.202477
695,252937894,-0.218830,0.178357,-0.428454,0.858327,0.499216,-0.288037,0.631292
696,252971228,-0.217401,0.183897,-0.432491,0.855491,0.469906,-0.293800,1.133049
697,253004562,-0.218365,0.192682,-0.435610,0.851722,-0.391458,-0.605976,0.115925
698,253037896,-0.217992,0.203461,-0.438157,0.847996,-0.434598,0.070928,-0.692256
699,253071230,-0.215800,0.213435,-0.440229,0.845026,-0.546182,0.471740,-1.096877
700,253104564,-0.212705,0.218582,-0.441434,0.843866,-0.708578,0.691968,0.230063
701,253137898,-0.208396,0.217091,-0.443474,0.844256,-0.557010,0.169994,0.146750
702,253171232,-0.204189,0.210096,-0.445845,0.845804,0.138966,-0.490793,0.257696
703,253204566,-0.201417,0.201477,-0.448119,0.847362,0.341680,0.446467,0.170630
704,253237900,-0.200763,0.194070,-0.449056,0.848749,-0.263093,-0.639650,-0.204503
705,253271234,-0.201251,0.190343,-0.448577,0.849730,0.528299,-0.535000,0.195954
706,253304568,-0.202869,0.188860,-0.446789,0.850618,0.484412,-0.242663,0.111673
707,253337902,-0.204437,0.187569,-0.443694,0.852147,-0.378864,-0.380396,0.085856
708,253371236,-0.205564,0.186188,-0.441364,0.853388,1.061196,-0.084783,0.399345
709,253404570,-0.206697,0.184535,-0.438210,0.855097,0.448340,-0.431436,0.789784
710,253437904,-0.209488,0.181629,-0.435210,0.856571,0.117536,-0.360571,-0.262549
711,253471238,-0.213417,0.179103,-0.432443,0.857534,-0.396350,-1.352531,0.133590
712,253504572,-0.217273,0.178933,-0.429724,0.857967,-0.706203,-0.668276,0.542375
713,253537906,-0.219139,0.174428,-0.429264,0.858651,-0.272930,-0.420172,0.533742
714,253571240,-0.219192,0.166495,-0.430526,0.859580,0.595977,0.275643,0.781235
715,253604574,-0.219904,0.158238,-0.430428,0.861006,-0.035048,0.413662,-0.152607
716,253637908,-0.222811,0.152600,-0.430763,0.861108,-0.265576,0.080466,0.422708
717,253671242,-0.225310,0.144981,-0.433041,0.860631,0.791765,0.474826,0.763891
718,253704576,-0.229909,0.139950,-0.435413,0.859050,0.017087,-0.741579,0.677788
719,253737910,-0.235958,0.140512,-0.437615,0.856194,0.093700,0.294274,-0.514235
720,253771244,-0.243730,0.147762,-0.438796,0.852183,0.154318,-0.011779,0.001242
721,253804578,-0.252043,0.157146,-0.438849,0.848049,0.205378,0.173550,0.542961
722,253837912,-0.258954,0.165101,-0.438090,0.844842,-0.302812,0.239339,0.309875
723,253871246,-0.263235,0.168317,-0.437814,0.843025,-0.012636,0.952302,-0.155562
724,253904580,-0.265473,0.166186,-0.438991,0.842134,0.154200,0.957151,-0.592833
725,253937914,-0.266714,0.160468,-0.441769,0.841398,0.195066,-0.342238,0.319401
726,253971248,-0.268443,0.155548,-0.443878,0.840661,-0.428573,-0.507479,0.171217
727,254004582,-0.270493,0.151986,-0.444226,0.840471,-0.422181,-0.284005,-0.538681
728,254037916,-0.272580,0.150019,-0.443985,0.840278,0.855599,-0.313297,0.937097
729,254071250,-0.274101,0.147281,-0.444046,0.840235,0.776676,1.057765,-0.335920
730,254104584,-0.274778,0.145454,-0.443500,0.840621,0.609901,-0.283760,0.446066
731,254137918,-0.275464,0.145747,-0.441986,0.841143,0.032295,-0.060768,0.076051
732,254171252,-0.275385,0.143400,-0.441533,0.841810,0.279631,-0.638534,0.497569
733,254204586,-0.276532,0.143698,-0.440785,0.841775,0.370479,-0.114057,0.347209
734,254237920,-0.278180,0.145167,-0.439070,0.841876,0.773010,-0.059793,0.459497
735,254271254,-0.278295,0.146472,-0.436607,0.842892,-0.547954,-0.525942,-0.174923
736,254304588,-0.276053,0.147867,-0.434342,0.844554,0.549442,-0.561368,0.896652
737,254337922,-0.273641,0.149200,-0.432830,0.845880,0.075180,0.276394,0.310659
738,254371256,-0.271424,0.150956,-0.432517,0.846443,0.882123,-0.783095,0.805094
739,254404590,-0.269659,0.154386,-0.432285,0.846507,-0.309737,0.826450,-0.416104
740,254437924,-0.267552,0.155112,-0.433417,0.846464,-0.364569,0.532667,-0.368248
741,254471258,-0.264495,0.154398,-0.437417,0.845497,0.745708,0.278623,0.293603
742,254504592,-0.261084,0.155819,-0.440542,0.844674,-0.206032,0.061794,-0.234171
743,254537926,-0.256876,0.159962,-0.443787,0.843490,-0.631832,-0.134077,0.620026
744,254571260,-0.252849,0.164521,-0.447456,0.841890,-0.828107,0.810271,0.188418
745,254604594,-0.246804,0.164486,-0.451148,0.841720,-0.061205,0.006204,0.578770
746,254637928,-0.239856,0.162486,-0.454469,0.842331,-0.163621,0.739534,-0.295247
747,254671262,-0.233706,0.161976,-0.457181,0.842690,-0.546190,0.211706,-0.713424
748,254704596,-0.229486,0.164627,-0.459190,0.842243,-0.073467,0.335299,-0.113074
749,254737930,-0.226352,0.167333,-0.460308,0.841948,-0.941759,0.238377,-0.446951
750,254771264,-0.223780,0.170856,-0.460970,0.841566,-0.766864,-1.140981,0.917936
751,254804598,-0.220462,0.173643,-0.462271,0.841157,0.415904,0.454802,0.144033
752,254837932,-0.219215,0.178590,-0.462497,0.840323,-0.009419,0.001695,-0.111301
753,254871266,-0.222437,0.190243,-0.460461,0.838033,0.423562,-0.313642,0.509997
754,254904600,-0.227022,0.206111,-0.456837,0.835030,0.272173,-0.836315,0.839620
755,254937934,-0.229898,0.218284,-0.453483,0.832975,-0.990613,0.181323,-0.354015
756,254971268,-0.228273,0.218759,-0.451844,0.834188,0.014220,-0.455890,-0.050381
757,255004602,-0.225003,0.213707,-0.451523,0.836556,-0.610495,-0.164446,-0.787470
758,255037936,-0.221643,0.207367,-0.450020,0.839852,0.222830,-0.631961,0.106951
759,255071270,-0.220767,0.202774,-0.447777,0.842398,0.392741,-0.640884,0.462074
760,255104604,-0.220775,0.198791,-0.445392,0.844607,-0.285192,-0.552117,0.452959
761,255137938,-0.221178,0.192878,-0.443999,0.846604,1.001428,-0.384160,0.516692
762,255171272,-0.221770,0.187528,-0.442492,0.848439,-0.174214,-0.559017,0.282361
763,255204606,-0.221225,0.183765,-0.441451,0.849945,-0.144056,-0.574307,-0.090254
764,255237940,-0.221747,0.182873,-0.439410,0.851058,-0.548366,-0.842564,0.432432
765,255271274,-0.221916,0.179542,-0.438113,0.852391,-0.475417,-0.617261,0.285184
766,255304608,-0.223036,0.175514,-0.438705,0.852633,0.684778,-0.707631,0.675138
767,255337942,-0.224458,0.173438,-0.438810,0.852630,-0.075220,-0.252213,0.007494
768,255371276,-0.226907,0.173764,-0.439805,0.851403,0.798432,-0.197936,1.007029
769,255404610,-0.229098,0.172201,-0.440395,0.850828,-0.354725,0.238043,0.249348
770,255437944,-0.231310,0.171695,-0.442429,0.849276,0.481775,-0.529123,1.341019
771,255471278,-0.234649,0.172518,-0.443633,0.847562,0.605873,0.616388,-0.142982
772,255504612,-0.237153,0.176620,-0.444062,0.845795,-0.780682,0.829863,-0.212413
773,255537946,-0.237207,0.177231,-0.445336,0.844981,0.154227,1.306612,-0.446262
774,255571280,-0.236507,0.176255,-0.444873,0.845625,-0.272842,0.800747,0.069174
775,255604614,-0.235690,0.175305,-0.444235,0.846386,0.105943,0.716153,-0.594585
776,255637948,-0.234946,0.173513,-0.444093,0.847036,0.705878,0.215243,0.979844
777,255671282,-0.235036,0.172359,-0.444027,0.847281,0.216820,-0.332701,0.075678
778,255704616,-0.234036,0.172207,-0.444311,0.847440,-0.368982,-0.854555,0.193851
779,255737950,-0.234608,0.173695,-0.444199,0.847037,-0.213695,-0.571335,0.066785
780,255771284,-0.236354,0.175909,-0.442672,0.846894,-0.093707,-0.612149,0.418778
781,255804618,-0.237283,0.178243,-0.440216,0.847426,0.213896,-0.080328,0.192099
782,255837952,-0.236509,0.179232,-0.437614,0.848781,-0.168719,-0.399843,0.138192
783,255871286,-0.235806,0.179869,-0.434221,0.850582,0.078162,-0.449354,0.171868
784,255904620,-0.236985,0.181375,-0.429998,0.852079,0.550837,-1.046480,0.316955
785,255937954,-0.238930,0.186086,-0.424071,0.853489,-0.089886,-0.634562,0.839355
786,255971288,-0.241788,0.194143,-0.417929,0.853919,0.299461,0.118949,-0.125422
787,256004622,-0.243599,0.201469,-0.412207,0.854488,0.035594,0.722296,0.056255
788,256037956,-0.243833,0.207624,-0.409100,0.854441,-0.406088,0.767788,-0.145460
789,256071290,-0.242487,0.214190,-0.408288,0.853592,0.288549,0.466365,0.895912
790,256104624,-0.240276,0.220214,-0.408295,0.852680,-0.403497,0.762780,-0.621141
791,256137958,-0.235854,0.222335,-0.411052,0.852040,-0.137068,0.898239,-0.351614
792,256171292,-0.229762,0.219968,-0.415633,0.852096,0.302490,1.257946,0.150011
793,256204626,-0.221984,0.216333,-0.423603,0.851163,-0.399945,0.811890,-0.543878
794,256237960,-0.211042,0.212737,-0.432859,0.850196,-0.807285,-1.562345,0.631264
795,256271294,-0.199148,0.209938,-0.441244,0.849450,-1.051025,0.020595,-0.508204
796,256304628,-0.190418,0.208560,-0.448487,0.847997,-0.189389,0.616112,0.143059
797,256337962,-0.188227,0.209544,-0.452778,0.845961,-0.021275,0.424642,0.445350
798,256371296,-0.188531,0.208272,-0.454226,0.845431,-0.064031,0.141176,0.360195
799,256404630,-0.188295,0.206168,-0.454937,0.845616,0.433025,0.288247,-0.059809
800,256437964,-0.186523,0.205130,-0.455463,0.845979,0.379151,-0.211232,0.452497
801,256471298,-0.182634,0.203239,-0.456056,0.846963,-0.413393,-0.107409,0.424463
802,256504632,-0.178249,0.200171,-0.457463,0.847869,-0.111989,0.249435,-0.416440
803,256537966,-0.175917,0.198448,-0.457875,0.848538,-0.034952,-0.093411,-0.406133
804,256571300,-0.175783,0.197814,-0.456290,0.849567,-0.422679,-0.810948,0.538755
805,256604634,-0.177617,0.202558,-0.452926,0.849868,-1.038217,-0.133710,-1.463699
806,256637968,-0.179620,0.206751,-0.449720,0.850140,0.068291,-0.524455,1.351518
807,256671302,-0.177787,0.201046,-0.447042,0.853300,-0.295545,-0.344579,0.418511
808,256704636,-0.174267,0.191925,-0.445657,0.856843,0.719993,-0.244746,0.178742
809,256737970,-0.172473,0.186355,-0.443852,0.859370,0.246070,-0.052234,-0.003546
810,256771304,-0.172220,0.180862,-0.442205,0.861441,0.378215,-0.485239,0.409742
811,256804638,-0.172272,0.173632,-0.439147,0.864476,-0.055260,0.153857,-0.088034
812,256837972,-0.172825,0.164898,-0.437255,0.867032,-0.102134,-0.195091,-0.131021
813,256871306,-0.172557,0.155749,-0.434947,0.869932,0.052144,-0.136825,0.494366
814,256904640,-0.172011,0.146834,-0.433203,0.872458,-0.200638,-0.240411,0.259437
815,256937974,-0.172783,0.139060,-0.433710,0.873327,0.607549,0.172198,0.529004
816,256971308,-0.174251,0.132005,-0.434427,0.873773,-0.267127,0.070317,0.035797
817,257004642,-0.175300,0.124655,-0.436621,0.873549,-0.144016,0.379379,-0.004418
818,257037976,-0.176583,0.118004,-0.438922,0.873061,-0.852518,0.629514,-0.081827
819,257071310,-0.179683,0.111586,-0.442455,0.871488,-0.006239,0.206723,0.407515
820,257104644,-0.185385,0.108858,-0.444618,0.869536,-0.199796,0.262118,-0.346068
821,257137978,-0.191025,0.109626,-0.445783,0.867620,-0.123577,0.157443,0.346767
822,257171312,-0.196843,0.111048,-0.447012,0.865504,0.153885,0.972802,0.213155
823,257204646,-0.200308,0.110406,-0.448658,0.863938,0.277384,0.667102,0.010477
824,257237980,-0.202064,0.109383,-0.450185,0.862864,0.275964,0.347198,0.485214
825,257271314,-0.203434,0.107749,-0.452172,0.861708,0.497474,0.555417,-0.040232
826,257304648,-0.204123,0.107533,-0.453707,0.860765,-0.540961,-0.193403,0.374316
827,257337982,-0.205241,0.107995,-0.455518,0.859483,0.176270,0.535787,0.048212
828,257371316,-0.206501,0.108805,-0.456134,0.858753,-0.618569,-0.048489,0.001902
829,257404650,-0.207003,0.108669,-0.456441,0.858486,-0.159820,0.025802,0.013870
830,257437984,-0.207494,0.109238,-0.456091,0.858481,-0.073888,0.265972,0.014977
831,257471318,-0.207366,0.109305,-0.456015,0.858544,0.200910,-0.216412,0.270901
832,257504652,-0.206498,0.109086,-0.455332,0.859143,0.179330,-0.210134,0.443141
833,257537986,-0.205696,0.109507,-0.454573,0.859684,0.208739,0.397703,-0.164739
834,257571320,-0.205276,0.110391,-0.454145,0.859897,0.515510,0.069860,0.387968
835,257604654,-0.204223,0.111061,-0.453076,0.860625,-0.003105,-0.173443,0.088901
836,257637988,-0.202176,0.111276,-0.451506,0.861905,0.028837,0.007415,0.671337
837,257671322,-0.198420,0.109256,-0.450549,0.863535,-0.151202,0.504448,-0.270885
838,257704656,-0.192414,0.105805,-0.450730,0.865228,0.239664,0.433281,0.146147
839,257737990,-0.186353,0.103918,-0.451976,0.866134,0.574158,0.117302,0.828119
840,257771324,-0.180320,0.101826,-0.454391,0.866395,-0.176616,-0.202781,0.068612
841,257804658,-0.175020,0.100811,-0.457513,0.865958,-0.394829,-0.260423,-0.059565
842,257837992,-0.171574,0.102178,-0.460231,0.865046,-0.923040,0.133850,-0.216912
843,257871326,-0.168979,0.105853,-0.463340,0.863454,0.436523,-0.120280,0.537512
844,257904660,-0.165598,0.109464,-0.465110,0.862707,-0.258648,0.320015,0.088934
845,257937994,-0.160562,0.111971,-0.467680,0.861947,0.518690,0.727009,0.311592
846,257971328,-0.154387,0.113281,-0.470221,0.861522,0.128228,0.362248,0.224722
847,258004662,-0.146689,0.111888,-0.472520,0.861791,-0.213203,0.593679,-0.267732
848,258037996,-0.138403,0.110992,-0.474701,0.862079,-0.147154,0.190960,0.104627
849,258071330,-0.132219,0.112311,-0.475810,0.862267,-0.811499,0.037582,-0.304144
850,258104664,-0.127603,0.113953,-0.476568,0.862328,-0.319737,-0.248067,0.551369
851,258137998,-0.124589,0.116031,-0.477246,0.862117,-0.099529,0.316824,-0.068966
852,258171332,-0.122749,0.118556,-0.478135,0.861545,0.093378,-0.094681,0.094600
853,258204666,-0.120763,0.121519,-0.478634,0.861135,-0.617297,0.214115,0.201735
854,258238000,-0.118553,0.123930,-0.479896,0.860396,0.221945,0.413297,0.219426
855,258271334,-0.117170,0.125425,-0.480204,0.860197,-0.522412,0.368486,0.017658
856,258304668,-0.115633,0.124491,-0.480374,0.860446,-0.009240,-0.039283,0.237068
857,258338002,-0.113725,0.122900,-0.480444,0.860889,-0.035407,-0.040754,0.006887
858,258371336,-0.112202,0.122373,-0.480875,0.860924,-0.071169,-0.144594,0.009792
859,258404670,-0.111422,0.123103,-0.481428,0.860612,0.070832,-0.431050,0.267098
860,258438004,-0.111664,0.125227,-0.481824,0.860052,-0.362275,-0.460865,0.183375
861,258471338,-0.112008,0.127057,-0.482141,0.859562,0.098786,-0.080058,-0.003605
862,258504672,-0.112687,0.129036,-0.482199,0.859146,0.030519,0.036947,0.100660
863,258538006,-0.113373,0.130463,-0.482186,0.858847,0.141710,0.016062,0.076968
864,258571340,-0.114141,0.130769,-0.481772,0.858931,-0.030310,-0.368329,0.393362
865,258604674,-0.115151,0.131468,-0.481481,0.858853,0.147563,-0.150555,0.285614
866,258638008,-0.116107,0.131873,-0.481197,0.858821,-0.175448,0.110989,0.058969
867,258671342,-0.116565,0.131000,-0.481069,0.858964,-0.378577,-0.008384,-0.247043
868,258704676,-0.117261,0.130435,-0.480985,0.859002,0.097888,-0.299959,0.297936
869,258738010,-0.118226,0.128795,-0.480382,0.859455,-0.076895,-0.221487,0.384869
870,258771344,-0.118164,0.126191,-0.480308,0.859891,0.015983,-0.086901,0.236575
871,258804678,-0.118181,0.125259,-0.480686,0.859814,0.203641,0.124190,0.092991
872,258838012,-0.118139,0.123894,-0.480728,0.859994,-0.426058,-0.132509,-0.012383
873,258871346,-0.118299,0.122003,-0.480367,0.860444,-0.276777,0.034485,-0.073470
874,258904680,-0.119039,0.119896,-0.480024,0.860829,-0.110290,0.019657,0.120419
875,258938014,-0.119996,0.117235,-0.479233,0.861504,0.120961,-0.084710,0.410824
876,258971348,-0.121522,0.115649,-0.478764,0.861765,-0.134463,0.077877,0.018219
877,259004682,-0.123101,0.114864,-0.478645,0.861712,-0.159922,0.131533,0.244481
878,259038016,-0.124420,0.112524,-0.478289,0.862029,-0.196917,-0.012145,0.158116
879,259071350,-0.126107,0.109862,-0.478158,0.862199,0.047121,0.059920,-0.023449
880,259104684,-0.129122,0.108773,-0.477754,0.862115,-0.123005,0.319159,0.064001
881,259138018,-0.131913,0.106828,-0.477001,0.862353,-0.343960,0.106644,0.292431
882,259171352,-0.134324,0.103751,-0.476045,0.862884,-0.340769,0.290928,-0.022388
883,259204686,-0.136329,0.100764,-0.475277,0.863347,-0.166415,0.158508,-0.002383
884,259238020,-0.138195,0.097838,-0.474169,0.863996,0.166450,0.263062,0.217562
885,259271354,-0.140238,0.095047,-0.473003,0.864617,0.152783,0.082435,0.292050
886,259304688,-0.141070,0.092390,-0.471514,0.865583,0.075769,0.071676,0.229105
887,259338022,-0.140750,0.089815,-0.469807,0.866833,-0.191213,0.366872,-0.010696
888,259371356,-0.140026,0.086915,-0.468137,0.868149,-0.008983,0.186681,0.230333
889,259404690,-0.138920,0.083736,-0.466432,0.869555,0.081818,0.372581,0.111668
890,259438024,-0.137998,0.082043,-0.465230,0.870507,0.266714,0.390169,0.130376
891,259471358,-0.137646,0.082578,-0.464215,0.871053,0.304033,0.335967,0.037113
892,259504692,-0.138403,0.085562,-0.463060,0.871260,0.210611,0.628931,-0.078911
893,259538026,-0.139916,0.091675,-0.461367,0.871295,-0.292152,0.154956,0.412733
894,259571360,-0.140456,0.097533,-0.459365,0.871630,0.111017,0.198107,0.431731
895,259604694,-0.140361,0.103745,-0.456943,0.872201,0.140466,0.186134,0.187086
896,259638028,-0.139251,0.110481,-0.454085,0.873044,-0.322480,0.219565,0.368353
897,259671362,-0.135945,0.113790,-0.451620,0.874417,-0.205644,0.444377,-0.042716
898,259704696,-0.131117,0.116172,-0.449432,0.875967,0.097481,0.301822,0.203924
899,259738030,-0.127557,0.121664,-0.447273,0.876852,-0.150940,0.415810,-0.189140
900,259771364,-0.123188,0.127568,-0.446442,0.877061,0.321092,0.188981,0.480250
901,259804698,-0.117402,0.132195,-0.445162,0.877820,0.349885,0.360385,0.269034
902,259838032,-0.110218,0.135607,-0.444422,0.878605,0.173553,0.522425,-0.125745
903,259871366,-0.102384,0.138336,-0.444336,0.879171,0.318029,0.063612,0.548973
904,259904700,-0.093253,0.139657,-0.444742,0.879773,0.388853,0.692642,0.109454
905,259938034,-0.082764,0.139697,-0.446004,0.880176,0.412028,-0.139720,0.156157
906,259971368,-0.072013,0.141925,-0.447218,0.880149,0.007934,0.292235,-0.171897
907,260004702,-0.059827,0.144192,-0.449123,0.879723,0.049681,0.092872,0.296698
908,260038036,-0.045997,0.144805,-0.451039,0.879474,0.351528,0.583099,-0.060027
909,260071370,-0.032199,0.145973,-0.453479,0.878639,0.186133,0.301250,0.212341
910,260104704,-0.018508,0.147065,-0.456179,0.877454,0.267452,0.652667,0.305374
911,260138038,-0.004071,0.144878,-0.459454,0.876294,0.224997,0.827641,-0.056847
912,260171372,0.009263,0.141858,-0.463461,0.874637,0.034186,0.385622,0.427177
913,260204706,0.022359,0.136873,-0.467069,0.873274,0.372857,0.312899,0.133775
914,260238040,0.035203,0.131868,-0.470930,0.871546,-0.047431,-0.192908,0.078796
915,260271374,0.047976,0.126662,-0.474648,0.869689,-0.251202,1.109064,-0.354615
916,260304708,0.059762,0.117963,-0.478540,0.868049,-0.210985,0.987375,-0.159706
917,260338042,0.069437,0.105920,-0.482440,0.866722,0.042505,0.929181,-0.030329
918,260371376,0.078060,0.091466,-0.486193,0.865536,-0.093578,0.632250,0.025453
919,260404710,0.086033,0.075329,-0.489572,0.864429,-0.050790,0.522839,-0.242456
920,260438044,0.093089,0.058781,-0.492125,0.863532,-0.187845,0.337211,0.065509
921,260471378,0.098026,0.043509,-0.494380,0.862602,-0.263937,-0.239610,0.517632
922,260504712,0.101299,0.028683,-0.496060,0.861879,0.176144,0.159778,0.092211
923,260538046,0.102470,0.016631,-0.496960,0.861539,0.046421,0.136431,-0.306145
924,260571380,0.102241,0.007235,-0.497790,0.861217,-0.358254,0.310034,-0.014992
925,260604714,0.102452,-0.001246,-0.498330,0.860909,-0.347634,-0.333309,-0.204898
926,260638048,0.102490,-0.008092,-0.499487,0.860197,0.215291,-0.347073,0.466760
927,260671382,0.102713,-0.015561,-0.499565,0.860022,0.238064,-0.391322,0.374077
928,260704716,0.103877,-0.024875,-0.498081,0.860524,0.097732,-0.493134,0.224590
929,260738050,0.105558,-0.035264,-0.496028,0.861142,0.520177,-0.361654,-0.051922
930,260771384,0.106866,-0.044176,-0.492772,0.862438,-0.166037,-0.932451,0.315685
931,260804718,0.108597,-0.053687,-0.488753,0.863968,-0.016206,-0.316918,0.250762
932,260838052,0.111166,-0.065270,-0.484643,0.865158,0.582196,-0.896105,0.673244
933,260871386,0.112330,-0.075041,-0.480259,0.866659,-0.298370,-0.565376,-0.594017
934,260904720,0.112255,-0.082718,-0.476340,0.868131,0.028458,-0.612124,0.549065
935,260938054,0.112237,-0.091281,-0.471892,0.869703,-0.025333,-0.668549,0.507645
936,260971388,0.112314,-0.100670,-0.466615,0.871503,-1.145357,-1.076853,0.675537
937,261004722,0.112935,-0.108266,-0.462634,0.872633,-0.280147,-0.542041,-0.356548
938,261038056,0.114038,-0.115014,-0.460295,0.872863,-0.585913,-0.966906,0.608788
939,261071390,0.115481,-0.121243,-0.457424,0.873340,-0.762444,-1.006790,0.453877
940,261104724,0.117472,-0.127202,-0.454868,0.873562,-0.729489,-0.433001,-0.019494
941,261138058,0.120734,-0.134107,-0.452825,0.873146,-0.540762,-0.920090,0.023428
942,261171392,0.125143,-0.142329,-0.451285,0.872020,-0.128212,-0.921346,-0.237386
943,261204726,0.129988,-0.149431,-0.450953,0.870293,-0.804627,-1.402266,0.640434
944,261238060,0.135610,-0.157458,-0.449798,0.868616,-0.710791,-0.950775,0.224789
945,261271394,0.141900,-0.165078,-0.448344,0.866947,-0.789891,-1.342490,0.413784
946,261304728,0.148019,-0.168670,-0.446842,0.866007,-1.089533,-0.653814,0.043617
947,261338062,0.154397,-0.170252,-0.445473,0.865289,-1.175598,-0.830582,0.305115
948,261371396,0.162301,-0.172846,-0.443987,0.864091,-0.157897,-0.551479,-0.335133
949,261404730,0.172296,-0.176755,-0.442837,0.861953,-0.768505,-0.437526,0.470541
950,261438064,0.184113,-0.180353,-0.442149,0.859113,-0.269315,-0.076506,-0.263432
951,261471398,0.197397,-0.183399,-0.441602,0.855793,-0.407090,-0.481092,0.400172
952,261504732,0.212437,-0.185051,-0.440292,0.852505,-0.053540,-0.294349,0.071959
953,261538066,0.229817,-0.186361,-0.440381,0.847652,0.338502,-0.490085,1.073916
954,261571400,0.247649,-0.190373,-0.441549,0.841106,-1.199129,-0.457243,0.247910
955,261604734,0.263028,-0.192643,-0.443492,0.834874,-0.721211,1.199808,-1.340690
956,261638068,0.276949,-0.194536,-0.445423,0.828884,-0.537450,0.846148,0.477128
957,261671402,0.292607,-0.198545,-0.444751,0.822893,-0.123420,0.218828,0.306130
958,261704736,0.309013,-0.203948,-0.443326,0.816317,-0.374679,-0.297948,0.400393
959,261738070,0.325706,-0.208832,-0.442491,0.809013,-0.151034,-0.474654,0.947845
960,261771404,0.339976,-0.212598,-0.442455,0.802151,-1.146216,0.431375,0.600300
961,261804738,0.351746,-0.215613,-0.442944,0.795978,-0.701319,0.941574,-0.345437
962,261838072,0.360739,-0.219304,-0.444609,0.789994,-0.718249,0.703207,-0.800675
963,261871406,0.367824,-0.221463,-0.447744,0.784334,-1.208921,0.421494,0.358588
964,261904740,0.376228,-0.227445,-0.447963,0.778489,-0.277640,0.592212,-0.324081
965,261938074,0.383888,-0.233914,-0.448084,0.772743,-0.698708,0.740340,-0.320132
966,261971408,0.391138,-0.238830,-0.448880,0.767120,-0.772755,0.176083,0.621282
967,262004742,0.397892,-0.243621,-0.448731,0.762212,-0.886468,0.312116,-0.149022
968,262038076,0.404576,-0.248467,-0.448498,0.757250,-0.785595,0.181303,0.243052
969,262071410,0.412486,-0.254813,-0.445582,0.752581,-0.298934,0.329756,0.139285
970,262104744,0.419391,-0.261555,-0.441023,0.749129,-0.419449,1.453120,-0.195323
971,262138078,0.427823,-0.274478,-0.434021,0.743808,-0.394313,1.712722,-0.196176
972,262171412,0.437311,-0.293970,-0.423844,0.736677,-0.496039,-0.364596,0.429714
973,262204746,0.443255,-0.303071,-0.417376,0.733120,-1.002736,0.722994,0.032264
974,262238080,0.448331,-0.310950,-0.411443,0.730082,-0.623573,1.052718,-0.495725
975,262271414,0.451373,-0.317515,-0.407421,0.727633,-1.109294,-1.089300,0.638295
976,262304748,0.452364,-0.320427,-0.405549,0.726787,-0.808906,0.174302,0.264930
977,262338082,0.453729,-0.324390,-0.402644,0.725792,-0.490378,0.951103,-0.251720
978,262371416,0.454885,-0.328810,-0.399610,0.724756,-0.613038,0.657418,0.062394
979,262404750,0.456462,-0.333825,-0.394136,0.724469,0.025930,0.500659,0.356320
980,262438084,0.459326,-0.340894,-0.386488,0.723487,0.545201,0.792857,-0.109048
981,262471418,0.462781,-0.348057,-0.379886,0.721368,-0.339745,0.066251,0.753151
982,262504752,0.466515,-0.354888,-0.373124,0.719160,-0.367500,-0.295171,0.016646
983,262538086,0.470565,-0.362943,-0.367344,0.715468,0.370734,0.159797,-0.880333
984,262571420,0.473903,-0.370603,-0.362796,0.711649,-0.503091,-0.432502,1.031034
985,262604754,0.476456,-0.376642,-0.356840,0.709782,-0.668013,0.185926,0.384017
986,262638088,0.478487,-0.382548,-0.349981,0.708672,-0.196854,0.641886,-0.086977
987,262671422,0.479977,-0.386952,-0.343574,0.708409,-0.390229,0.120035,0.153098
988,262704756,0.481150,-0.390344,-0.337772,0.708542,-0.418335,0.547829,0.269993
989,262738090,0.483020,-0.393136,-0.332064,0.708424,-0.564372,0.317366,0.245256
990,262771424,0.484476,-0.395367,-0.326590,0.708733,-0.395315,-0.110913,-0.037895
991,262804758,0.486273,-0.396804,-0.321073,0.709220,-0.362028,0.359285,0.265179
992,262838092,0.489437,-0.398257,-0.315126,0.708896,-0.428185,0.256126,0.149632
993,262871426,0.493325,-0.399311,-0.309737,0.707982,-0.307202,0.169879,0.230292
994,262904760,0.497521,-0.399624,-0.305203,0.706838,-0.415594,0.212217,0.086705
995,262938094,0.502195,-0.399666,-0.301064,0.705282,-0.476687,0.324008,0.252566
996,262971428,0.507403,-0.400510,-0.296432,0.703034,-0.361487,-0.083848,0.092705
997,263004762,0.512522,-0.402188,-0.290905,0.700668,-0.743073,0.513027,0.503403
998,263038096,0.517564,-0.403237,-0.284392,0.699031,-0.232743,0.683495,-0.061429
999,263071430,0.522614,-0.403940,-0.278656,0.697175,-0.598160,0.429416,-0.044374
1000,263104764,0.528344,-0.404646,-0.273461,0.694499,-0.591994,0.315834,0.207664
1001,263138098,0.534709,-0.406345,-0.268509,0.690556,-0.517129,0.137140,-0.029951
1002,263171432,0.541234,-0.408838,-0.264506,0.685529,-0.881235,0.265932,0.204284
1003,263204766,0.547675,-0.411035,-0.260972,0.680434,-0.622352,0.313606,0.062491
1004,263238100,0.553446,-0.412545,-0.258246,0.675876,-0.619685,0.745922,0.242122
1005,263271434,0.558704,-0.413554,-0.255612,0.671924,-0.636199,0.537678,0.329775
1006,263304768,0.563629,-0.414187,-0.253349,0.668267,-0.421657,0.646450,-0.051764
1007,263338102,0.568809,-0.415085,-0.251512,0.664002,-0.795301,0.615437,-0.078574
1008,263371436,0.573902,-0.416316,-0.250620,0.659167,-0.168530,-0.380895,0.134373
1009,263404770,0.578891,-0.417666,-0.250560,0.653954,-0.720186,0.246855,0.229273
1010,263438104,0.585000,-0.418981,-0.249758,0.647956,-0.521250,0.741730,0.164616
1011,263471438,0.591972,-0.421167,-0.248420,0.640679,-0.169915,0.338361,-0.052084
1012,263504772,0.599339,-0.423320,-0.247776,0.632609,-0.329351,0.290393,0.485516
1013,263538106,0.607453,-0.426372,-0.246707,0.623168,-0.707386,0.682713,0.488435
1014,263571440,0.616173,-0.430091,-0.245619,0.612388,-0.340695,0.469434,0.253060
1015,263604774,0.624141,-0.433956,-0.245394,0.601587,-0.047147,0.769283,-0.170703
1016,263638108,0.631692,-0.437927,-0.246304,0.590351,-0.158197,0.195999,-0.213092
1017,263671442,0.638599,-0.441828,-0.247802,0.579283,-0.079913,0.266930,-0.183967
1018,263704776,0.645163,-0.445275,-0.250585,0.568065,-0.146408,0.301799,0.315668
1019,263738110,0.652148,-0.448841,-0.253645,0.555792,-0.197135,0.383922,0.109695
1020,263771444,0.659497,-0.452336,-0.257095,0.542543,-0.726275,0.260427,0.398472
1021,263804778,0.666984,-0.455586,-0.261203,0.528529,-0.080356,0.001906,0.061624
1022,263838112,0.674150,-0.458574,-0.265748,0.514398,-0.041497,0.537710,0.440364
1023,263871446,0.681494,-0.461420,-0.269043,0.500269,-0.137052,0.619848,0.558800
1024,263904780,0.688477,-0.464262,-0.271531,0.486546,0.102269,0.509085,-0.210494
1025,263938114,0.694228,-0.466696,-0.274777,0.474062,0.070980,0.521866,-0.260836
1026,263971448,0.699493,-0.468780,-0.277897,0.462303,-0.117181,0.577491,0.048573
1027,264004782,0.704256,-0.470858,-0.280495,0.451258,-0.222039,0.499583,0.179828
1028,264038116,0.708524,-0.472491,-0.282950,0.441227,-0.210783,0.446120,-0.201671
1029,264071450,0.711588,-0.473887,-0.286285,0.432562,-0.198492,0.402311,-0.133077
1030,264104784,0.714271,-0.475104,-0.289043,0.424903,-0.663228,0.301861,0.270743
1031,264138118,0.716743,-0.475981,-0.291251,0.418199,-0.142909,0.702229,0.081429
1032,264171452,0.718713,-0.475734,-0.294482,0.412801,-0.071720,0.753692,0.140105
1033,264204786,0.720299,-0.475198,-0.297656,0.408353,0.094397,0.401400,-0.067033
1034,264238120,0.721918,-0.474824,-0.300168,0.404068,-0.336503,0.671468,0.120108
1035,264271454,0.723550,-0.474138,-0.302492,0.400203,-0.558001,1.004133,0.016422
1036,264304788,0.724846,-0.472873,-0.305933,0.396724,-0.063393,0.765274,0.335889
1037,264338122,0.726331,-0.471837,-0.309315,0.392598,-0.490226,0.582024,0.298865
1038,264371456,0.728059,-0.470700,-0.312403,0.388293,-0.344672,0.591909,-0.028250
1039,264404790,0.730380,-0.469254,-0.314821,0.383703,-0.299866,0.744495,0.121796
1040,264438124,0.732835,-0.467664,-0.317116,0.379047,-0.584418,0.813420,0.272355
1041,264471458,0.734458,-0.466099,-0.320722,0.374774,-0.563830,0.792569,0.172908
1042,264504792,0.736209,-0.464608,-0.323843,0.370483,-0.257188,0.483491,-0.290609
1043,264538126,0.737998,-0.462762,-0.326572,0.366821,-0.133234,0.631310,-0.079122
1044,264571460,0.740052,-0.461215,-0.327720,0.363590,-0.350128,0.584220,0.194955
1045,264604794,0.741881,-0.459134,-0.328351,0.361924,-0.386255,0.572889,0.123444
1046,264638128,0.744066,-0.457298,-0.327908,0.360161,-0.075231,0.828045,-0.093342
1047,264671462,0.746801,-0.456402,-0.325957,0.357398,-0.223050,0.410098,0.391811
1048,264704796,0.749483,-0.456011,-0.323308,0.354678,-0.616224,0.471792,0.376100
1049,264738130,0.751110,-0.455796,-0.321571,0.353087,-0.639651,0.243795,-0.086555
1050,264771464,0.751793,-0.455029,-0.321120,0.353034,-0.579528,0.372468,-0.206939
1051,264804798,0.751456,-0.453416,-0.321982,0.355037,-0.155304,0.612577,0.200910
1052,264838132,0.751038,-0.452147,-0.322109,0.357416,-0.328443,0.436610,0.310149
1053,264871466,0.750746,-0.451246,-0.321866,0.359382,-0.234167,0.256113,0.070864
1054,264904800,0.750648,-0.450692,-0.321533,0.360578,-0.237479,0.216764,0.139598
1055,264938134,0.750757,-0.450080,-0.320965,0.361621,-0.116086,0.048862,0.121551
1056,264971468,0.751696,-0.449691,-0.318482,0.362348,-0.073711,0.274915,-0.110673
1057,265004802,0.753537,-0.449045,-0.314620,0.362699,-0.403421,0.103186,0.050682
1058,265038136,0.755002,-0.448015,-0.311818,0.363346,-0.139218,0.263542,0.239418
1059,265071470,0.756795,-0.446977,-0.308396,0.363813,-0.121006,-0.165596,0.140073
1060,265104804,0.758602,-0.446886,-0.304059,0.363812,0.011466,0.267564,-0.051477
1061,265138138,0.759863,-0.446320,-0.300901,0.364502,-0.483985,-0.003823,0.010232
1062,265171472,0.760719,-0.444392,-0.298889,0.366719,-0.533540,0.123106,0.552354
1063,265204806,0.761716,-0.442557,-0.296177,0.369062,-0.390878,-0.064967,0.064997
1064,265238140,0.762593,-0.440743,-0.294692,0.370606,-0.558237,-0.206735,-0.067672
1065,265271474,0.763446,-0.439134,-0.294882,0.370611,-0.247947,0.141294,0.059121
1066,265304808,0.764731,-0.438285,-0.294590,0.369194,-0.426620,0.059051,0.432046
1067,265338142,0.766139,-0.437409,-0.293560,0.368133,-0.420544,-0.153076,0.426057
1068,265371476,0.768050,-0.436757,-0.290722,0.367176,-0.317798,0.178574,0.105609
1069,265404810,0.770278,-0.436011,-0.286905,0.366397,-0.193463,0.401339,0.002977
1070,265438144,0.770820,-0.433596,-0.286364,0.368541,-0.525896,-0.330260,0.263432
1071,265471478,0.770723,-0.431252,-0.286279,0.371547,0.392763,0.400122,-0.175331
1072,265504812,0.771011,-0.430382,-0.284588,0.373252,-0.466955,0.420772,-0.128306
1073,265538146,0.771015,-0.429221,-0.284698,0.374496,-0.429693,0.662620,-0.045012
1074,265571480,0.771118,-0.428433,-0.285454,0.374611,-0.683105,0.044762,0.275813
1075,265604814,0.771726,-0.427767,-0.285832,0.373832,-0.224260,0.182959,0.067699
1076,265638148,0.772818,-0.427869,-0.285273,0.371880,0.022168,0.370092,-0.197060
1077,265671482,0.774731,-0.429198,-0.283056,0.368045,-0.809985,0.618474,0.166682
1078,265704816,0.776422,-0.429747,-0.282175,0.364497,-0.005029,0.790436,0.045290
1079,265738150,0.777607,-0.430166,-0.281507,0.361985,-0.202258,0.751366,0.305822
1080,265771484,0.778913,-0.430492,-0.280147,0.359839,-0.038023,0.576333,0.003960
1081,265804818,0.780032,-0.431189,-0.279073,0.357407,-0.287791,0.594877,0.034982
1082,265838152,0.781442,-0.433100,-0.276221,0.354219,-0.129624,0.096077,-0.073159
1083,265871486,0.782327,-0.435056,-0.274125,0.351485,-0.459734,0.533980,0.389911
1084,265904820,0.782149,-0.436718,-0.274685,0.349375,-0.436764,0.516481,0.414477
1085,265938154,0.781395,-0.439012,-0.275692,0.347388,-0.372935,0.002112,0.050899
1086,265971488,0.780953,-0.442522,-0.274960,0.344499,-0.692614,-0.175050,0.454635
1087,266004822,0.780319,-0.447629,-0.273066,0.340825,0.280965,0.226024,-0.045216
1088,266038156,0.778506,-0.452725,-0.272987,0.338293,-0.133988,0.600862,-0.260865
1089,266071490,0.775075,-0.456543,-0.277561,0.337316,-0.081670,0.408857,0.054866
1090,266104824,0.770795,-0.459923,-0.284458,0.336788,-0.089014,0.120764,0.242866
1091,266138158,0.766710,-0.462636,-0.291986,0.335951,-0.267709,0.287019,0.550869
1092,266171492,0.763774,-0.464224,-0.298320,0.334881,-0.081010,0.354325,0.298640
1093,266204826,0.761483,-0.464689,-0.304027,0.334323,-0.372619,-0.446950,-0.139013
1094,266238160,0.758679,-0.463507,-0.311809,0.335168,-0.166602,0.691854,0.282585
1095,266271494,0.756539,-0.462716,-0.318490,0.334815,-0.616335,0.489581,0.689508
1096,266304828,0.755405,-0.463117,-0.322292,0.333180,-0.278740,0.591942,0.440545
1097,266338162,0.755076,-0.464416,-0.323688,0.330757,0.217175,0.345014,-0.211927
1098,266371496,0.753947,-0.465135,-0.326444,0.329612,0.299883,-0.267622,-0.123569
1099,266404830,0.753911,-0.465760,-0.326799,0.328455,0.345849,0.071888,0.011070
1100,266438164,0.755252,-0.465986,-0.324291,0.327539,0.219256,0.212012,0.372353
1101,266471498,0.757889,-0.467045,-0.317781,0.326317,0.129423,0.169018,0.119109
1102,266504832,0.759993,-0.468225,-0.311327,0.325955,0.163561,0.180041,-0.108082
1103,266538166,0.761057,-0.469202,-0.306189,0.326935,0.463687,-0.152458,-0.760525
1104,266571500,0.761032,-0.470344,-0.303234,0.328104,0.165136,0.096392,-0.487626
1105,266604834,0.759784,-0.471367,-0.302161,0.330507,0.242779,-0.206879,0.259098
1106,266638168,0.758543,-0.472861,-0.300229,0.332975,-0.006364,0.237690,0.387468
1107,266671502,0.756791,-0.474455,-0.299230,0.335585,-0.479173,0.001915,0.395484
1108,266704836,0.754827,-0.475415,-0.299300,0.338574,-0.108562,-0.178902,-0.032992
1109,266738170,0.753560,-0.476396,-0.298760,0.340488,0.173647,-0.060319,-0.393302
1110,266771504,0.753064,-0.477216,-0.297580,0.341469,-0.153191,0.135454,0.250134
1111,266804838,0.753770,-0.478092,-0.294725,0.341160,-0.079363,0.335524,0.198676
1112,266838172,0.754957,-0.479360,-0.291486,0.339536,-0.248853,0.232936,0.087557
1113,266871506,0.755843,-0.480780,-0.289267,0.337449,-0.480604,0.384103,0.169832
1114,266904840,0.756281,-0.482130,-0.288362,0.335309,-0.274609,0.450992,0.112052
1115,266938174,0.755990,-0.483553,-0.288709,0.333614,-0.472497,0.529125,0.187699
1116,266971508,0.755160,-0.484559,-0.290356,0.332603,-0.322907,0.557519,0.055006
1117,267004842,0.753838,-0.485525,-0.293215,0.331682,-0.447180,0.569725,0.079767
1118,267038176,0.752565,-0.486304,-0.296709,0.330323,-0.555250,0.415047,0.093204
1119,267071510,0.751260,-0.486736,-0.300727,0.329023,-0.244285,0.739303,0.137502
1120,267104844,0.750718,-0.487005,-0.303719,0.327107,-0.355198,0.831140,-0.028496
1121,267138178,0.750525,-0.487023,-0.306231,0.325173,-0.514377,0.766707,0.185314
1122,267171512,0.750760,-0.487196,-0.307590,0.323084,-0.351443,1.051771,0.151850
1123,267204846,0.751754,-0.487367,-0.307766,0.320336,-0.384297,1.064897,0.029957
1124,267238180,0.752387,-0.487323,-0.308206,0.318487,-0.499169,0.968243,-0.059325
1125,267271514,0.752768,-0.486614,-0.309209,0.317699,-0.552760,1.221591,0.199978
1126,267304848,0.753116,-0.485645,-0.310207,0.317383,-0.409069,1.116004,0.272266
1127,267338182,0.753648,-0.484475,-0.310837,0.317292,-0.508029,0.587278,-0.165794
1128,267371516,0.754331,-0.483097,-0.310902,0.317706,-0.997576,0.884213,0.199975
1129,267404850,0.755303,-0.481497,-0.310730,0.317994,-0.650240,0.604858,0.068937
1130,267438184,0.756684,-0.479875,-0.309943,0.317931,-0.478404,1.182341,0.198058
1131,267471518,0.758687,-0.478124,-0.308322,0.317372,-0.291975,1.097355,0.167836
1132,267504852,0.760961,-0.476103,-0.306532,0.316699,0.166389,0.827852,-0.001925
1133,267538186,0.762801,-0.473946,-0.304533,0.317434,-0.464686,0.413693,-0.138153
1134,267571520,0.764876,-0.471377,-0.301506,0.319151,-0.905744,0.980925,0.007556
1135,267604854,0.766689,-0.468021,-0.299381,0.321730,-0.300846,0.628540,0.038710
1136,267638188,0.767527,-0.465230,-0.298621,0.324476,-0.880793,0.321829,0.235437
1137,267671522,0.768945,-0.462726,-0.296966,0.326213,-0.149035,0.790776,0.457703
1138,267704856,0.770985,-0.460779,-0.293818,0.327002,-0.270605,0.875906,0.304571
1139,267738190,0.772873,-0.459033,-0.290404,0.328051,-0.402293,-0.043543,0.015965
1140,267771524,0.774152,-0.457850,-0.286580,0.330044,-0.387794,1.129763,0.317437
1141,267804858,0.775583,-0.456710,-0.282119,0.332101,-0.250145,-0.094588,-0.084118
1142,267838192,0.775500,-0.456058,-0.280299,0.334722,0.105171,0.806218,0.443315
1143,267871526,0.774825,-0.456372,-0.278142,0.337644,-1.277966,-0.144263,0.493737
1144,267904860,0.773479,-0.456198,-0.276334,0.342415,-0.140323,-0.480843,-0.316543
1145,267938194,0.771565,-0.456431,-0.274750,0.347657,0.097403,0.310585,0.119616
1146,267971528,0.770094,-0.458011,-0.271673,0.351240,-0.214061,0.410980,-0.242465
1147,268004862,0.768657,-0.458297,-0.269891,0.355365,-0.136616,0.618727,0.466494
1148,268038196,0.766888,-0.458348,-0.268300,0.360290,0.144336,0.739473,0.355162
1149,268071530,0.766025,-0.457502,-0.265539,0.365214,-0.032503,0.127116,0.076060
1150,268104864,0.765742,-0.456274,-0.262669,0.369397,0.248961,0.387381,-0.209705
1151,268138198,0.766005,-0.455030,-0.260568,0.371864,0.240382,0.488103,-0.118848
1152,268171532,0.767394,-0.453589,-0.257630,0.372809,-1.063635,0.661673,0.943997
1153,268204866,0.769677,-0.451946,-0.253892,0.372660,-0.577977,-0.327687,0.302588
1154,268238200,0.771830,-0.451071,-0.249653,0.372133,-0.307368,0.292292,-0.320608
1155,268271534,0.773766,-0.449432,-0.246557,0.372160,-0.281809,1.062263,0.380877
1156,268304868,0.774379,-0.446851,-0.246280,0.374170,-0.566220,-0.343976,0.180256
1157,268338202,0.774492,-0.444610,-0.247220,0.375981,-0.423150,0.756451,-0.071352
1158,268371536,0.776139,-0.442873,-0.245938,0.375475,-0.275481,0.670629,-0.209875
1159,268404870,0.778834,-0.441868,-0.243202,0.372852,-0.136520,-0.112799,0.342110
1160,268438204,0.781586,-0.441201,-0.240347,0.369720,-0.334208,0.685968,0.186192
1161,268471538,0.784240,-0.440494,-0.237951,0.366480,-0.785746,0.320548,0.646942
1162,268504872,0.786859,-0.438790,-0.235669,0.364379,-0.304442,-0.130445,0.177140
1163,268538206,0.789315,-0.437641,-0.233455,0.361866,0.478065,1.673602,-0.130491
1164,268571540,0.791570,-0.436636,-0.231276,0.359545,-1.073173,-0.556428,-0.049309
1165,268604874,0.793768,-0.435223,-0.229823,0.357339,0.107181,0.395122,-0.209444
1166,268638208,0.795352,-0.434064,-0.230121,0.355027,-0.480936,0.605151,0.756557
1167,268671542,0.796803,-0.432188,-0.231455,0.353189,-0.374244,0.245015,0.387509
1168,268704876,0.796538,-0.429190,-0.236424,0.354151,0.225703,-0.033178,-0.005581
1169,268738210,0.794873,-0.426026,-0.244053,0.356530,-0.698506,1.273295,0.307117
1170,268771544,0.793081,-0.423832,-0.251507,0.357950,0.085114,-0.370355,-0.526125
1171,268804878,0.791737,-0.422892,-0.258280,0.357214,0.329594,0.905599,0.244525
1172,268838212,0.790999,-0.423401,-0.262199,0.355386,-0.148529,-0.246494,0.000452
1173,268871546,0.791058,-0.424276,-0.263480,0.353257,0.285193,0.360553,0.326565
1174,268904880,0.789903,-0.427187,-0.266701,0.349899,0.317520,0.727355,0.311086
1175,268938214,0.788703,-0.432318,-0.269959,0.343754,-0.634115,-0.089137,0.107238
1176,268971548,0.785225,-0.437538,-0.277167,0.339345,-0.477981,-0.397041,0.310744
1177,269004882,0.781752,-0.442842,-0.283545,0.335190,-0.017964,0.058669,-0.090370
1178,269038216,0.778662,-0.447128,-0.289962,0.331179,-0.048448,0.343551,0.329113
1179,269071550,0.775549,-0.450382,-0.297310,0.327538,0.040937,-0.791595,-0.094622
1180,269104884,0.773199,-0.453529,-0.302932,0.323577,0.034965,-0.363406,-0.077611
1181,269138218,0.771087,-0.456186,-0.307857,0.320218,-0.180240,-0.017170,0.156672
1182,269171552,0.769975,-0.457460,-0.312373,0.316680,0.207140,0.070059,0.204964
1183,269204886,0.769127,-0.458025,-0.316206,0.314112,1.029084,0.307912,0.269835
1184,269238220,0.770386,-0.459582,-0.315657,0.309266,-0.188709,-0.135042,0.066732
1185,269271554,0.771639,-0.460544,-0.315687,0.304647,0.526105,0.105497,-0.435129
1186,269304888,0.772710,-0.461751,-0.316180,0.299551,-0.455614,0.291804,0.053310
1187,269338222,0.773304,-0.462633,-0.317504,0.295225,-0.208046,0.724882,0.146070
1188,269371556,0.772722,-0.462594,-0.320599,0.293462,-0.255803,0.126118,-0.107489
1189,269404890,0.771519,-0.461948,-0.324649,0.293190,0.159470,0.664913,0.200748
1190,269438224,0.770856,-0.460959,-0.327718,0.293076,0.149342,0.131905,-0.101939
1191,269471558,0.770167,-0.460332,-0.330103,0.293197,-0.731352,0.540133,0.259905
1192,269504892,0.770565,-0.458879,-0.331094,0.293312,0.079861,0.199780,-0.015132
1193,269538226,0.771727,-0.457753,-0.330707,0.292451,-0.201989,0.655000,0.271016
1194,269571560,0.773591,-0.456253,-0.329348,0.291404,-0.320523,0.244933,-0.068944
1195,269604894,0.775457,-0.454570,-0.327699,0.290934,0.385439,0.550414,-0.015636
1196,269638228,0.777084,-0.453252,-0.325774,0.290809,-1.031859,0.945986,0.184112
1197,269671562,0.778440,-0.450855,-0.325042,0.291725,-0.187303,1.055141,0.264443
1198,269704896,0.779190,-0.448350,-0.325238,0.293361,0.334880,0.993157,0.146196
1199,269738230,0.779777,-0.446560,-0.324506,0.295335,0.018360,0.446298,0.208097
1200,269771564,0.781375,-0.444486,-0.320886,0.298183,-0.506924,0.696921,0.428144
1201,269804898,0.783786,-0.442571,-0.314737,0.301240,0.146760,0.903244,-0.148503
1202,269838232,0.786292,-0.441325,-0.308694,0.302788,-0.574420,0.503344,0.330676
1203,269871566,0.787916,-0.440739,-0.303831,0.304336,-0.242615,0.330402,-0.003649
1204,269904900,0.788937,-0.441048,-0.299730,0.305306,0.024231,1.295493,0.738592
1205,269938234,0.789177,-0.441549,-0.297007,0.306620,-0.049112,0.697217,0.524433
1206,269971568,0.789357,-0.442779,-0.293342,0.307908,0.418187,0.080914,0.335752
1207,270004902,0.790021,-0.445313,-0.287548,0.308016,0.044012,-0.296161,0.195823
1208,270038236,0.790218,-0.447876,-0.281876,0.309036,-0.853187,-0.313296,0.173774
1209,270071570,0.789244,-0.449500,-0.278760,0.311981,0.084626,0.341048,-0.142197
1210,270104904,0.787354,-0.449995,-0.278539,0.316212,0.629431,-0.185652,-0.366417
1211,270138238,0.786143,-0.450172,-0.277614,0.319767,-0.024892,-0.045400,0.085896
1212,270171572,0.785269,-0.449489,-0.276706,0.323637,0.035760,-0.885728,-0.174846
1213,270204906,0.784874,-0.448573,-0.275233,0.327105,-0.382312,0.163462,0.439364
1214,270238240,0.785077,-0.447935,-0.273291,0.329113,-0.148979,-0.343726,0.126695
1215,270271574,0.785576,-0.447913,-0.271695,0.329274,-0.090010,0.239549,0.264712
1216,270304908,0.786459,-0.447905,-0.269821,0.328719,0.010237,-0.077323,0.157027
1217,270338242,0.787175,-0.447998,-0.268110,0.328277,-0.272506,-0.273542,-0.000787
1218,270371576,0.787467,-0.447615,-0.267402,0.328676,0.261671,0.189200,-0.573007
1219,270404910,0.787576,-0.445669,-0.268320,0.330308,0.044035,0.824639,0.383889
1220,270438244,0.787743,-0.443629,-0.269039,0.332066,0.454704,-0.748618,-0.162848
1221,270471578,0.788755,-0.442777,-0.267009,0.332439,-0.400613,0.457548,0.401943
1222,270504912,0.790570,-0.441412,-0.264822,0.331692,0.043625,0.146424,0.036749
1223,270538246,0.791030,-0.439929,-0.265380,0.332118,-0.312263,0.109179,0.341019
1224,270571580,0.791919,-0.438973,-0.264439,0.332015,-0.073321,-0.047807,-0.411972
1225,270604914,0.792600,-0.437428,-0.264671,0.332244,-0.274873,0.686379,0.237106
1226,270638248,0.793318,-0.435686,-0.265554,0.332116,-0.202962,0.002519,0.045429
1227,270671582,0.794154,-0.433846,-0.266283,0.331942,-0.130326,0.370924,0.197083
1228,270704916,0.795232,-0.431921,-0.266638,0.331585,-0.363689,-0.084617,0.110599
1229,270738250,0.796552,-0.430783,-0.266965,0.329630,-0.045681,0.078809,-0.129406
1230,270771584,0.798597,-0.429433,-0.267091,0.326324,-0.265393,0.345967,0.398129
1231,270804918,0.800589,-0.428576,-0.266035,0.323420,-0.560887,0.175761,0.241060
1232,270838252,0.801973,-0.427955,-0.266017,0.320819,-0.325571,-0.172859,-0.170984
1233,270871586,0.802339,-0.427983,-0.267406,0.318704,-0.012805,0.451797,0.455606
1234,270904920,0.802849,-0.429001,-0.267668,0.315817,-0.351029,0.419282,0.255120
1235,270938254,0.802010,-0.431295,-0.269553,0.313211,-0.635695,-0.773602,-0.177907
1236,270971588,0.800573,-0.433875,-0.272502,0.310764,0.341039,0.024320,-0.050508
1237,271004922,0.798206,-0.437701,-0.275620,0.308729,0.152772,0.405412,0.229331
1238,271038256,0.796064,-0.442021,-0.278067,0.305898,-0.344924,-0.353667,-0.167150
1239,271071590,0.794246,-0.445477,-0.280888,0.303019,0.276068,0.438155,0.079204
1240,271104924,0.791611,-0.449297,-0.285244,0.300192,-0.592891,-1.059136,-0.281427
1241,271138258,0.789933,-0.451896,-0.288769,0.297326,0.474415,0.036380,0.076953
1242,271171592,0.788294,-0.454647,-0.291280,0.295026,-0.008510,0.071843,0.238035
1243,271204926,0.787296,-0.456369,-0.293464,0.292861,0.695686,0.389495,0.086018
1244,271238260,0.786491,-0.457767,-0.295682,0.290603,0.212224,0.325315,-0.059184
1245,271271594,0.786548,-0.458126,-0.297441,0.288075,0.091569,-0.315373,-0.131804
1246,271304928,0.787118,-0.458122,-0.297926,0.286015,-0.240136,0.096543,0.331057
1247,271338262,0.787797,-0.458535,-0.297507,0.283914,-0.304894,-0.149773,0.195578
1248,271371596,0.788413,-0.458877,-0.297463,0.281688,-0.131815,0.751357,0.169076
1249,271404930,0.788572,-0.458917,-0.298772,0.279787,0.040082,0.847782,0.293006
1250,271438264,0.788500,-0.458395,-0.300681,0.278798,0.734269,-0.181422,-0.189798
1251,271471598,0.789048,-0.458196,-0.300456,0.277815,-0.257787,0.077469,-0.096958
1252,271504932,0.790074,-0.457184,-0.299470,0.277631,-0.193813,0.437780,0.096909
1253,271538266,0.791411,-0.455779,-0.298340,0.277350,-0.361886,0.455938,0.322862
1254,271571600,0.792259,-0.454252,-0.298175,0.277610,-0.130353,-0.085639,-0.006991
1255,271604934,0.793150,-0.452808,-0.297583,0.278059,-0.337489,0.556145,0.176558
1256,271638268,0.794584,-0.450945,-0.296411,0.278246,-0.228866,0.483365,0.194821
1257,271671602,0.796395,-0.449025,-0.294337,0.278374,0.054965,0.848515,0.031679
1258,271704936,0.798295,-0.446913,-0.292312,0.278466,-0.448660,0.707848,0.468358
1259,271738270,0.799688,-0.444787,-0.290868,0.279382,-0.066125,0.535991,-0.120054
1260,271771604,0.800712,-0.442791,-0.289801,0.280727,0.116788,0.425474,0.075393
1261,271804938,0.801749,-0.440781,-0.288000,0.282776,-0.078097,0.682575,0.239845
1262,271838272,0.803463,-0.439071,-0.284779,0.283830,0.500157,1.151855,0.228671
1263,271871606,0.804781,-0.437830,-0.281756,0.285030,-0.145369,0.798968,0.503663
1264,271904940,0.805506,-0.437493,-0.278642,0.286557,-0.361964,-0.194183,-0.415620
1265,271938274,0.805912,-0.437126,-0.275521,0.288983,-0.646572,0.779156,0.826864
1266,271971608,0.805984,-0.437001,-0.273198,0.291167,0.502266,0.606915,0.782021
1267,272004942,0.805905,-0.438611,-0.269044,0.292829,-0.367121,0.132826,0.488795
1268,272038276,0.805900,-0.440745,-0.264244,0.294006,0.052148,-0.077526,0.147476
1269,272071610,0.805548,-0.443239,-0.259599,0.295357,0.202766,-0.080896,-0.153823
1270,272104944,0.804940,-0.445533,-0.255661,0.296993,0.092605,-0.417648,0.149032
1271,272138278,0.804167,-0.447797,-0.251834,0.298945,-0.195532,0.176901,0.262012
1272,272171612,0.802935,-0.449462,-0.249487,0.301713,0.123983,-0.700054,-0.201978
1273,272204946,0.801292,-0.450467,-0.248724,0.305193,0.342757,-0.171763,-0.107947
1274,272238280,0.800418,-0.450785,-0.247569,0.307943,0.118896,-0.091748,-0.011595
1275,272271614,0.799852,-0.450550,-0.246579,0.310540,-0.021943,0.153203,0.422147
1276,272304948,0.800129,-0.450527,-0.244279,0.311675,-0.370878,-0.387523,0.047659
1277,272338282,0.800809,-0.450590,-0.241595,0.311930,-0.267198,0.159658,0.111405
1278,272371616,0.800982,-0.450802,-0.240607,0.311943,0.185727,0.522863,0.055038
1279,272404950,0.801133,-0.450050,-0.240513,0.312714,0.005359,0.350124,0.276045
1280,272438284,0.801185,-0.449064,-0.240881,0.313711,0.273728,0.128273,-0.045886
1281,272471618,0.801404,-0.446984,-0.241554,0.315600,-0.212343,0.518680,0.149395
1282,272504952,0.801592,-0.443916,-0.242825,0.318465,-0.076799,0.634421,0.165381
1283,272538286,0.801737,-0.440330,-0.245090,0.321332,-0.516614,0.307953,0.412889
1284,272571620,0.801316,-0.437176,-0.248679,0.323918,-0.122559,0.457909,-0.296063
1285,272604954,0.801450,-0.435362,-0.250460,0.324658,-0.245195,0.348332,-0.291104
1286,272638288,0.802159,-0.433436,-0.251378,0.324775,0.014357,0.570945,0.372800
1287,272671622,0.803398,-0.432419,-0.250717,0.323577,-0.584259,-0.228111,0.322218
1288,272704956,0.805358,-0.431410,-0.248377,0.321852,-0.296891,0.553594,-0.365243
1289,272738290,0.807586,-0.430170,-0.245947,0.319786,-0.800419,0.407559,0.434738
1290,272771624,0.809525,-0.428904,-0.244888,0.317390,0.144435,0.891734,0.353812
1291,272804958,0.812434,-0.427758,-0.242283,0.313476,-0.692735,0.664251,0.325050
1292,272838292,0.814834,-0.426569,-0.241004,0.309835,-0.212445,0.452925,0.215039
1293,272871626,0.816792,-0.426480,-0.239769,0.305730,-0.124438,1.153423,0.833726
1294,272904960,0.818430,-0.426968,-0.238599,0.301556,-0.186362,0.485790,0.737384
1295,272938294,0.818904,-0.429349,-0.238480,0.296948,0.656085,0.549741,-0.365596
1296,272971628,0.817664,-0.432466,-0.241919,0.293036,0.119680,0.097404,0.050720
1297,273004962,0.816187,-0.435969,-0.245071,0.289319,-0.145343,-0.319343,0.156346
1298,273038296,0.814342,-0.439583,-0.248706,0.285928,-0.036234,-0.590611,0.333702
1299,273071630,0.813190,-0.446483,-0.247892,0.279141,0.965126,0.692781,-0.088994
1300,273104964,0.813438,-0.453581,-0.243793,0.270448,0.020541,-0.814146,-0.643210
1301,273138298,0.812421,-0.457440,-0.246612,0.264385,0.183681,-0.606146,-0.293187
1302,273171632,0.811210,-0.459900,-0.250729,0.259925,0.843097,-0.391974,0.238567
1303,273204966,0.810974,-0.461662,-0.252510,0.255781,0.477420,-0.170257,-0.016831
1304,273238300,0.810143,-0.462211,-0.256269,0.253674,-0.340108,-0.715648,0.122119
1305,273271634,0.808422,-0.462400,-0.261453,0.253531,0.744230,-0.626230,-0.467981
1306,273304968,0.807518,-0.462597,-0.264048,0.253362,-0.424367,0.376379,0.070754
1307,273338302,0.806636,-0.461252,-0.267818,0.254663,0.041898,0.634199,0.354321
1308,273371636,0.805520,-0.459591,-0.273056,0.255636,0.207176,-0.290171,-0.274860
1309,273404970,0.805038,-0.458383,-0.276559,0.255555,0.071848,0.683997,0.128392
1310,273438304,0.804998,-0.456914,-0.278494,0.256211,-0.146001,0.737382,0.511264
1311,273471638,0.805224,-0.455391,-0.279614,0.256993,0.266393,0.645581,0.157096
1312,273504972,0.806252,-0.453867,-0.279328,0.256776,-0.224172,0.789129,0.350849
1313,273538306,0.807423,-0.451690,-0.278991,0.257302,-0.149831,0.194951,-0.245853
1314,273571640,0.809351,-0.448702,-0.277514,0.258068,-0.037636,0.736697,0.331418
1315,273604974,0.811541,-0.445627,-0.274742,0.259479,-0.041890,0.871489,0.366232
1316,273638308,0.814116,-0.442787,-0.270418,0.260814,-0.423990,0.605622,0.059711
1317,273671642,0.816570,-0.440375,-0.265827,0.261946,-0.370457,0.738428,0.440054
1318,273704976,0.819411,-0.437848,-0.260878,0.262286,-0.716904,-0.167769,0.648393
1319,273738310,0.822042,-0.437006,-0.254217,0.261995,-0.595351,-0.450284,-0.332294
1320,273771644,0.825485,-0.437348,-0.244545,0.259796,1.491096,-0.995849,-1.515675
1321,273804978,0.828218,-0.439312,-0.233837,0.257635,-0.644216,0.660158,1.145298
1322,273838312,0.829125,-0.440455,-0.227013,0.258865,-0.142551,0.363810,0.974572
1323,273871646,0.828580,-0.441446,-0.222992,0.262395,-0.556258,-0.347879,0.661740
1324,273904980,0.827151,-0.443302,-0.219938,0.266321,0.375135,-0.089473,-0.159189
1325,273938314,0.824781,-0.446260,-0.218001,0.270296,0.701721,-0.018144,-0.315799
1326,273971648,0.822912,-0.447631,-0.217233,0.274313,0.688587,0.577232,0.068912
1327,274004982,0.820707,-0.447753,-0.218697,0.279507,0.252810,-0.701883,-0.009759
1328,274038316,0.819003,-0.446888,-0.220393,0.284514,0.440622,-0.791199,-0.362159
1329,274071650,0.818411,-0.446406,-0.219189,0.287883,0.022718,-0.299175,0.263951
1330,274104984,0.818522,-0.446172,-0.216432,0.290008,-0.523844,0.157950,0.809459
1331,274138318,0.818780,-0.445974,-0.214098,0.291314,0.288939,-0.098277,0.021662
1332,274171652,0.818977,-0.446318,-0.212570,0.291354,-0.475433,0.155565,0.002114
1333,274204986,0.818606,-0.445950,-0.213677,0.292147,0.224111,0.238911,-0.483810
1334,274238320,0.818298,-0.443840,-0.216077,0.294452,-0.165672,0.296458,0.473489
1335,274271654,0.818464,-0.441823,-0.217008,0.296330,-0.572031,-0.237153,-0.137392
1336,274304988,0.819804,-0.439402,-0.216065,0.296915,-0.319771,1.070927,0.557574
1337,274338322,0.821319,-0.436359,-0.216243,0.297088,-0.606280,0.415413,0.703787
1338,274371656,0.822562,-0.433651,-0.217367,0.296790,0.074848,-0.316852,-0.245000
1339,274404990,0.824034,-0.431589,-0.217407,0.295683,0.850798,2.078846,0.135249
1340,274438324,0.825950,-0.428754,-0.217327,0.294517,0.037196,0.390695,-0.093893
1341,274471658,0.827462,-0.425319,-0.219469,0.293667,-0.087808,0.302315,0.640433
1342,274504992,0.829540,-0.422304,-0.220736,0.291193,-0.244854,-0.454888,0.027034
1343,274538326,0.831755,-0.420755,-0.220458,0.287301,-0.406073,0.626676,0.454435
1344,274571660,0.834335,-0.423574,-0.214495,0.280103,-0.296487,-0.306871,0.296910
1345,274604994,0.836725,-0.427610,-0.206940,0.272419,-0.402659,0.562132,1.669405
1346,274638328,0.840108,-0.430323,-0.199067,0.263454,0.304815,-1.387981,-0.043856
1347,274671662,0.842575,-0.433404,-0.193812,0.254286,-0.504006,-0.538780,0.316298
1348,274704996,0.843972,-0.437057,-0.190648,0.245645,-0.406950,-0.127575,0.011058
1349,274738330,0.843252,-0.439808,-0.194773,0.239905,0.183736,-0.122280,0.136791
1350,274771664,0.841466,-0.442044,-0.202175,0.235909,0.613384,-0.911361,-0.697143
1351,274804998,0.839553,-0.444718,-0.207997,0.232613,1.188104,-0.752412,-1.518001
1352,274838332,0.837792,-0.446612,-0.213518,0.230322,0.451767,-0.142744,0.129576
1353,274871666,0.836016,-0.447947,-0.219154,0.228884,-0.229991,-0.554334,0.697776
1354,274905000,0.835185,-0.449297,-0.222334,0.226190,-0.293831,-0.034550,0.158260
1355,274938334,0.834710,-0.451028,-0.224319,0.222506,0.176286,-0.172304,-0.076430
1356,274971668,0.834398,-0.452554,-0.226024,0.218824,0.872699,-0.076068,-0.601776
1357,275005002,0.833973,-0.454130,-0.227518,0.215609,0.377044,-0.170496,-0.389319
1358,275038336,0.833460,-0.454743,-0.229768,0.213904,0.304978,0.684690,0.008486
1359,275071670,0.832754,-0.453222,-0.234353,0.214908,1.018814,0.986655,0.449084
1360,275105004,0.831802,-0.451827,-0.238901,0.216518,-0.499518,0.039510,0.376402
1361,275138338,0.831909,-0.450468,-0.241157,0.216435,-0.139019,0.197815,0.048029
1362,275171672,0.832448,-0.449021,-0.242272,0.216125,-0.237956,0.335119,0.183895
1363,275205006,0.833896,-0.447204,-0.241512,0.215157,-0.240327,0.254200,0.048222
1364,275238340,0.836173,-0.444706,-0.238689,0.214650,-0.683703,1.052302,0.704993
1365,275271674,0.837916,-0.441494,-0.237398,0.215910,-0.089520,0.434929,0.356576
1366,275305008,0.840252,-0.438449,-0.234602,0.216092,0.999373,1.215245,-0.137330
1367,275338342,0.842321,-0.435536,-0.232165,0.216559,0.570101,0.891872,0.085593
1368,275371676,0.843960,-0.433000,-0.229717,0.217872,-0.213284,0.283879,0.251912
1369,275405010,0.845577,-0.430118,-0.227350,0.219786,0.031103,0.227181,0.025329
1370,275438344,0.847104,-0.427418,-0.224623,0.221964,-0.526918,0.788314,0.816928
1371,275471678,0.847734,-0.426113,-0.222778,0.223920,0.044557,-0.190777,0.069020
1372,275505012,0.847984,-0.425982,-0.219838,0.226117,0.053900,0.645363,0.447343
1373,275538346,0.847387,-0.426275,-0.217950,0.229603,0.326005,0.281380,0.197936
1374,275571680,0.845889,-0.427404,-0.217296,0.233613,0.350606,-0.290496,0.211761
1375,275605014,0.844587,-0.429834,-0.214355,0.236564,0.342530,-0.074677,0.239293
1376,275638348,0.842958,-0.432981,-0.211388,0.239293,0.248857,-0.111900,0.120008
1377,275671682,0.841479,-0.435667,-0.208509,0.242130,-0.038328,-0.414341,-0.173072
1378,275705016,0.839447,-0.437303,-0.208565,0.246153,1.338503,0.307726,-0.305845
1379,275738350,0.837689,-0.437888,-0.209615,0.250176,0.644354,-0.776603,0.169498
1380,275771684,0.836831,-0.437389,-0.209051,0.254357,-0.296404,-0.167210,0.868270
1381,275805018,0.837083,-0.437470,-0.205553,0.256232,-0.499134,-0.945620,0.207985
1382,275838352,0.837550,-0.438610,-0.201526,0.255957,-0.456162,-0.147498,-0.090582
1383,275871686,0.837366,-0.439158,-0.200228,0.256637,0.234943,0.382025,0.270219
1384,275905020,0.836239,-0.439180,-0.201651,0.259148,0.154759,-0.374106,-0.281157
1385,275938354,0.834858,-0.438532,-0.203720,0.263051,-0.023879,0.082474,0.120730
1386,275971688,0.834195,-0.437260,-0.204261,0.266823,-0.152442,0.079766,0.005403
1387,276005022,0.833880,-0.436123,-0.204583,0.269408,0.425673,0.424866,0.014357
1388,276038356,0.833972,-0.435925,-0.204331,0.269638,-0.055805,0.542970,0.175735
1389,276071690,0.834152,-0.434745,-0.205424,0.270154,0.301441,0.245856,0.009705
1390,276105024,0.834660,-0.433143,-0.206245,0.270531,-0.641520,0.082924,0.202219
1391,276138358,0.835748,-0.430344,-0.207003,0.271061,-0.571426,0.760430,0.879230
1392,276171692,0.836801,-0.427559,-0.207863,0.271560,-0.010735,-0.305106,-0.115776
1393,276205026,0.838466,-0.425419,-0.207132,0.270344,-0.905990,0.119326,0.258371
1394,276238360,0.840213,-0.423342,-0.206773,0.268446,0.048492,0.102411,0.256683
1395,276271694,0.842318,-0.421344,-0.204866,0.266449,0.088929,0.638651,0.496284
1396,276305028,0.844364,-0.420239,-0.202461,0.263540,-0.256385,0.720155,0.046872
1397,276338362,0.845262,-0.419193,-0.203826,0.261265,-0.173898,0.049328,1.062475
1398,276371696,0.845862,-0.420287,-0.202851,0.258308,-0.702400,-0.504807,0.081278
1399,276405030,0.846389,-0.421621,-0.201501,0.255448,-0.028558,0.795627,0.464035
1400,276438364,0.844975,-0.424377,-0.204958,0.252803,0.741838,-0.089217,-0.319733
1401,276471698,0.843410,-0.427570,-0.208231,0.249957,0.660922,0.038799,0.157556
1402,276505032,0.841082,-0.432173,-0.211221,0.247363,0.045943,-0.551162,0.340879
1403,276538366,0.839599,-0.437625,-0.211185,0.242803,-0.781944,-0.898948,0.460443
1404,276571700,0.839137,-0.443795,-0.208383,0.235515,-0.055782,-0.542886,-0.188633
1405,276605034,0.838959,-0.448910,-0.206751,0.227764,0.147923,-0.065280,-0.347034
1406,276638368,0.837456,-0.451543,-0.210753,0.224398,0.245271,-0.212575,-0.019570
1407,276671702,0.836374,-0.452748,-0.214007,0.222921,0.970733,-0.228596,-0.598820
1408,276705036,0.836126,-0.453477,-0.214933,0.221476,0.058557,-0.400703,0.304271
1409,276738370,0.837126,-0.453795,-0.213386,0.218524,-0.237473,0.173474,0.816965
1410,276771704,0.837841,-0.454029,-0.212738,0.215910,0.298888,0.570892,0.257743
1411,276805038,0.837701,-0.454275,-0.214215,0.214474,0.238714,0.130850,-0.400648
1412,276838372,0.837146,-0.453772,-0.217202,0.214698,-0.113695,0.162904,0.330842
1413,276871706,0.837128,-0.452618,-0.219129,0.215251,0.043877,0.149131,0.182293
1414,276905040,0.837319,-0.451260,-0.220588,0.215863,0.374518,0.127286,0.012683
1415,276938374,0.837952,-0.450019,-0.220422,0.216168,-0.432468,0.137626,0.045418
1416,276971708,0.839477,-0.447562,-0.219159,0.216637,-0.016829,0.765120,0.288035
1417,277005042,0.840828,-0.445548,-0.217898,0.216822,0.000003,0.727035,0.567861
1418,277038376,0.841779,-0.443441,-0.217719,0.217631,0.529948,0.462056,0.091365
1419,277071710,0.842937,-0.441753,-0.216113,0.218181,0.060226,0.279731,0.168035
1420,277105044,0.845195,-0.438611,-0.212218,0.219602,0.277516,0.537568,0.151358
1421,277138378,0.846358,-0.436845,-0.208899,0.221813,-0.685351,-0.123521,1.252599
1422,277171712,0.847782,-0.435832,-0.203126,0.223722,0.603460,0.307792,0.165420
1423,277205046,0.848543,-0.436737,-0.196293,0.225168,0.242309,0.660742,0.308861
1424,277238380,0.848590,-0.437723,-0.190442,0.228080,0.379286,0.360160,-0.666727
1425,277271714,0.847952,-0.438560,-0.185766,0.232656,0.035758,0.383807,0.449377
1426,277305048,0.846429,-0.440030,-0.182965,0.237592,0.453957,0.011415,0.291270
1427,277338382,0.845249,-0.442575,-0.178356,0.240552,0.265516,-0.356442,0.482842
1428,277371716,0.843862,-0.446423,-0.172338,0.242690,0.483589,0.162295,0.711423
1429,277405050,0.842501,-0.450703,-0.165032,0.244578,0.911253,0.266876,-0.315829
1430,277438384,0.840177,-0.454690,-0.160881,0.247935,0.262863,0.092945,-0.236053
1431,277471718,0.838297,-0.455889,-0.159350,0.253033,0.020884,-0.412256,0.021078
1432,277505052,0.836493,-0.456206,-0.159549,0.258256,0.052809,-0.837305,-0.089035
1433,277538386,0.835466,-0.455274,-0.159978,0.262916,0.208026,-0.484141,-0.117393
1434,277571720,0.835477,-0.454426,-0.158315,0.265344,-0.083878,0.223128,0.509058
1435,277605054,0.835389,-0.453410,-0.157552,0.267802,-0.179156,0.093078,0.407613
1436,277638388,0.835378,-0.451191,-0.158895,0.270775,0.170733,0.066457,0.335667
1437,277671722,0.834848,-0.450413,-0.160332,0.272846,0.509445,-0.417485,-0.381975
1438,277705056,0.835439,-0.450299,-0.157864,0.272665,0.617726,-0.543826,-0.651390
1439,277738390,0.836543,-0.451315,-0.151839,0.271017,-0.159555,0.428162,0.293940
1440,277771724,0.838343,-0.453289,-0.143725,0.266548,0.426862,0.764546,0.851339
1441,277805058,0.840561,-0.455028,-0.134412,0.261409,-0.161645,-0.981369,-0.183119
1442,277838392,0.842040,-0.454738,-0.130207,0.259274,-0.024616,0.493094,0.713588
1443,277871726,0.843171,-0.453222,-0.128889,0.258914,1.019809,-0.230045,-0.843616
1444,277905060,0.843834,-0.451264,-0.130154,0.259538,-0.231371,1.262733,0.812407
1445,277938394,0.845239,-0.448826,-0.130384,0.259077,-0.480953,-0.493164,0.004044
1446,277971728,0.847111,-0.446071,-0.130517,0.257654,-0.722595,-0.027633,0.660543
1447,278005062,0.848986,-0.444351,-0.129662,0.254870,0.311476,0.555870,-0.387300
1448,278038396,0.850942,-0.442037,-0.129847,0.252260,-0.054367,0.751054,0.894348
1449,278071730,0.852536,-0.440831,-0.128388,0.249723,0.389226,-0.395261,-0.253465
1450,278105064,0.853653,-0.440304,-0.126940,0.247572,-0.685873,0.731481,1.441554
1451,278138398,0.854450,-0.439277,-0.126161,0.247042,0.490294,0.311275,1.270411
1452,278171732,0.854159,-0.439594,-0.125390,0.247875,0.420771,-0.292308,-0.276743
1453,278205066,0.853484,-0.440394,-0.125291,0.248830,0.172531,-0.223782,-0.571370
1454,278238400,0.852060,-0.443543,-0.125549,0.247984,-1.092266,-1.470301,0.068891
1455,278271734,0.850759,-0.447154,-0.125776,0.245843,-0.858770,-1.115600,0.055034
1456,278305068,0.849949,-0.450223,-0.125981,0.242920,0.878617,0.397607,0.354031
1457,278338402,0.849956,-0.453914,-0.123632,0.237166,1.393856,-0.335360,-0.880375
1458,278371736,0.849433,-0.458829,-0.121073,0.230816,0.000367,-0.757203,-0.215158
1459,278405070,0.849499,-0.462988,-0.116978,0.224289,0.237626,-0.381208,0.369781
1460,278438404,0.849740,-0.467452,-0.111554,0.216752,-0.090024,-0.617006,0.037075
1461,278471738,0.849730,-0.471259,-0.108188,0.210154,0.722436,0.101174,0.273042
1462,278505072,0.849750,-0.474949,-0.104911,0.203313,1.212994,-0.385734,-0.502438
1463,278538406,0.849601,-0.478716,-0.101256,0.196853,0.666657,0.002757,0.263267
1464,278571740,0.849812,-0.482080,-0.094922,0.190798,-0.478142,-0.178513,0.008065
1465,278605074,0.850028,-0.484715,-0.089994,0.185471,1.579991,0.399410,-0.271554
1466,278638408,0.849775,-0.488343,-0.084265,0.179719,-0.095419,-0.681183,-0.242463
1467,278671742,0.849695,-0.491620,-0.077399,0.174161,0.326956,0.699058,0.167616
1468,278705076,0.849654,-0.494494,-0.071337,0.168734,-0.029418,0.225273,0.267785
1469,278738410,0.849466,-0.496799,-0.066281,0.164924,0.533433,0.140556,0.063035
1470,278771744,0.848786,-0.498288,-0.063007,0.165220,-0.140226,-0.768556,-0.566163
1471,278805078,0.847033,-0.499614,-0.063043,0.170124,1.263771,1.231373,0.240997
1472,278838412,0.846258,-0.499887,-0.057699,0.175005,-0.423724,0.707001,0.887319
1473,278871746,0.846109,-0.499171,-0.048616,0.180444,0.154517,-0.499455,0.102531
1474,278905080,0.846147,-0.498151,-0.035988,0.185960,0.122188,-0.235330,0.197353
1475,278938414,0.846849,-0.496427,-0.018233,0.189919,-0.029033,0.782295,0.041549
1476,278971748,0.847349,-0.495251,0.000912,0.191624,-1.696369,-0.192831,-0.285779
1477,279005082,0.847060,-0.493936,0.015833,0.195606,-1.046486,0.387530,0.218695
1478,279038416,0.846674,-0.492287,0.031051,0.199571,-0.137188,0.854778,0.373379
1479,279071750,0.846403,-0.490921,0.050229,0.200178,0.961898,1.219809,1.649213
1480,279105084,0.845090,-0.492424,0.074379,0.194432,0.331633,0.868039,0.808012
1481,279138418,0.841878,-0.496911,0.096260,0.187218,-0.475278,-0.098648,0.989628
1482,279171752,0.838980,-0.501088,0.110569,0.181089,-0.291972,0.019133,-0.295238
1483,279205086,0.835774,-0.506002,0.118083,0.177471,1.470457,0.433858,-0.438148
1484,279238420,0.833215,-0.510186,0.123787,0.173594,1.524251,-0.018986,-1.010457
1485,279271754,0.831372,-0.513693,0.124018,0.171915,0.584034,-0.332231,0.124324
