sep=,
DeviceTag:,2C_Leg
FirmwareVersion:,2.2.1
AppVersion:,2023.6.0
SyncStatus:,Synced
OutputRate:,30Hz
FilterProfile:,General
Measurement Mode:,Sensor fusion Mode - Complete(Quaternion)
StartTime: ,2026-05-27_15:38:54_207 AEST
© Movella Technologies B. V. 2005-2026

PacketCounter,SampleTimeFine,Quat_W,Quat_X,Quat_Y,Quat_Z,FreeAcc_X,FreeAcc_Y,FreeAcc_Z
1,907611617,-0.590994,0.768081,-0.072343,0.235690,0.017824,0.051290,0.159820
2,907644951,-0.589489,0.768062,-0.075609,0.238478,-0.019810,-0.148953,0.203390
3,907678285,-0.587730,0.768147,-0.079291,0.241332,-0.209256,-0.229856,0.165186
4,907711619,-0.585929,0.768159,-0.083352,0.244288,-0.578256,0.005334,0.149080
5,907744953,-0.584518,0.768189,-0.086335,0.246526,-0.681164,0.197547,0.124346
6,907778287,-0.583645,0.768572,-0.086914,0.247199,-0.547413,-0.039071,0.172418
7,907811621,-0.583333,0.769140,-0.085594,0.246627,-0.492465,-0.192153,0.120088
8,907844955,-0.583698,0.769722,-0.082881,0.244867,-0.192422,-0.192541,0.095942
9,907878289,-0.584208,0.770450,-0.079276,0.242545,-0.026549,-0.147521,0.205049
10,907911623,-0.584943,0.771110,-0.075193,0.239964,0.037651,-0.045678,0.208327
11,907944957,-0.585984,0.771626,-0.070759,0.237094,-0.021350,0.076307,0.142520
12,907978291,-0.587077,0.772227,-0.066129,0.233750,-0.050210,0.180810,0.124793
13,908011625,-0.587929,0.772962,-0.061525,0.230410,-0.075741,0.064576,0.123417
14,908044959,-0.588428,0.773557,-0.058028,0.228034,0.205749,-0.147395,0.128748
15,908078293,-0.588587,0.773864,-0.056161,0.227048,0.165985,-0.131255,0.197678
16,908111627,-0.588626,0.773998,-0.055069,0.226756,-0.018956,0.157316,0.144632
17,908144961,-0.588704,0.774186,-0.053784,0.226218,0.005478,0.355750,0.130040
18,908178295,-0.589098,0.774337,-0.052129,0.225063,-0.050897,0.338582,0.169599
19,908211629,-0.589582,0.774536,-0.050296,0.223523,0.117186,0.131401,0.169371
20,908244963,-0.590024,0.774677,-0.048848,0.222185,0.160176,0.053559,0.206728
21,908278297,-0.590632,0.774599,-0.047774,0.221071,0.154448,0.112765,0.173912
22,908311631,-0.591266,0.774514,-0.046642,0.219913,0.026802,-0.037962,0.159092
23,908344965,-0.592016,0.774448,-0.045242,0.218418,-0.080351,-0.169550,0.111782
24,908378299,-0.592893,0.774412,-0.043484,0.216512,-0.147192,-0.137533,0.146708
25,908411633,-0.593551,0.774502,-0.041658,0.214740,-0.043873,-0.226234,0.062305
26,908444967,-0.593672,0.774727,-0.040730,0.213771,0.152058,-0.352429,0.063234
27,908478301,-0.593090,0.774979,-0.041415,0.214338,0.252468,-0.267432,0.036724
28,908511635,-0.591616,0.775318,-0.044057,0.216650,0.166671,0.064642,0.135706
29,908544969,-0.589735,0.775414,-0.048503,0.220448,0.178723,0.387426,0.198086
30,908578303,-0.587777,0.775264,-0.053787,0.224937,0.103379,0.525428,0.127851
31,908611637,-0.585857,0.775188,-0.058707,0.228939,-0.026469,0.425257,0.118803
32,908644971,-0.584085,0.775406,-0.062376,0.231741,-0.099053,0.354811,0.143427
33,908678305,-0.582678,0.775813,-0.064700,0.233279,0.007389,0.165432,0.193526
34,908711639,-0.581755,0.776082,-0.066292,0.234240,-0.079042,0.021827,0.151101
35,908744973,-0.581150,0.776365,-0.067113,0.234567,-0.180666,-0.109313,0.129612
36,908778307,-0.580578,0.776778,-0.067507,0.234506,-0.178150,-0.173405,0.079704
37,908811641,-0.579737,0.777326,-0.067997,0.234626,-0.020923,-0.125186,0.132547
38,908844975,-0.578788,0.777743,-0.068912,0.235319,-0.045625,0.031007,0.176256
39,908878309,-0.577923,0.778062,-0.069921,0.236095,-0.155592,0.133458,0.148440
40,908911643,-0.577300,0.778408,-0.070424,0.236329,-0.150673,0.182100,0.152008
41,908944977,-0.576967,0.778830,-0.070186,0.235821,-0.079248,0.004925,0.173366
42,908978311,-0.576944,0.779116,-0.069680,0.235081,-0.152254,-0.024902,0.126584
43,909011645,-0.577017,0.779466,-0.068758,0.234010,-0.080861,-0.138384,0.153681
44,909044979,-0.577245,0.779741,-0.067672,0.232847,-0.098868,0.067169,0.196553
45,909078313,-0.577710,0.779944,-0.066257,0.231416,-0.084716,0.060570,0.120833
46,909111647,-0.578193,0.780223,-0.064586,0.229734,-0.030454,-0.083825,0.129099
47,909144981,-0.578556,0.780448,-0.063291,0.228415,-0.003043,-0.133532,0.124134
48,909178315,-0.578656,0.780655,-0.062600,0.227644,-0.090101,-0.074727,0.088120
49,909211649,-0.578582,0.780817,-0.062353,0.227342,-0.001978,0.023014,0.109131
50,909244983,-0.578369,0.780893,-0.062582,0.227561,-0.032184,0.149582,0.109116
51,909278317,-0.578029,0.781001,-0.063137,0.227902,-0.072793,0.136944,0.128500
52,909311651,-0.577471,0.781164,-0.063971,0.228523,-0.016102,0.146288,0.141865
53,909344985,-0.576728,0.781267,-0.065344,0.229656,-0.005787,0.191628,0.089748
54,909378319,-0.575785,0.781480,-0.066849,0.230861,-0.070441,0.109490,0.089116
55,909411653,-0.574686,0.781928,-0.067949,0.231757,0.009479,0.126301,0.141282
56,909444987,-0.573744,0.782396,-0.068516,0.232346,-0.020796,0.224077,0.207421
57,909478321,-0.573278,0.782717,-0.068431,0.232442,-0.090733,0.240895,0.161981
58,909511655,-0.573198,0.783054,-0.067466,0.231784,-0.089750,0.201901,0.108753
59,909544989,-0.573193,0.783586,-0.065903,0.230444,-0.015063,0.049589,0.135013
60,909578323,-0.572986,0.784261,-0.064429,0.229075,0.173622,-0.004048,0.100921
61,909611657,-0.572382,0.784909,-0.063749,0.228557,0.234078,0.016901,0.165755
62,909644991,-0.571359,0.785500,-0.064147,0.228973,0.126245,0.127133,0.095653
63,909678325,-0.570071,0.786077,-0.065189,0.229905,-0.054639,0.350846,0.093206
64,909711659,-0.568853,0.786613,-0.066070,0.230836,-0.093062,0.382519,0.204204
65,909744993,-0.567787,0.787137,-0.066555,0.231537,-0.217206,0.172764,0.098178
66,909778327,-0.566649,0.787898,-0.066665,0.231703,-0.232810,-0.111352,0.048134
67,909811661,-0.565225,0.788870,-0.066679,0.231870,-0.095746,-0.209995,0.125534
68,909844995,-0.563742,0.789676,-0.067045,0.232629,-0.010616,-0.112778,0.163786
69,909878329,-0.562415,0.790243,-0.067550,0.233767,-0.084512,-0.029501,0.145208
70,909911663,-0.561208,0.790733,-0.067878,0.234913,-0.143322,0.354824,0.173118
71,909944997,-0.560009,0.790895,-0.068539,0.237027,-0.018158,0.176708,0.332611
72,909978331,-0.559079,0.790274,-0.070292,0.240750,-0.024752,0.280134,0.200247
73,910011665,-0.558510,0.789268,-0.072341,0.244734,-0.009125,0.353030,0.170296
74,910044999,-0.558067,0.788326,-0.074032,0.248248,-0.004049,0.112466,0.023066
75,910078333,-0.557230,0.787474,-0.076439,0.252076,0.169360,0.072832,0.142871
76,910111667,-0.556423,0.786666,-0.079023,0.255558,0.270626,0.038744,0.040767
77,910145001,-0.555206,0.786356,-0.081621,0.258327,0.302789,0.030234,0.079326
78,910178335,-0.553792,0.786477,-0.083678,0.260331,0.079997,0.107128,0.058233
79,910211669,-0.552080,0.787347,-0.084699,0.261004,0.028119,0.249655,0.163330
80,910245003,-0.550551,0.788494,-0.084675,0.260780,0.009255,0.344754,0.267523
81,910278337,-0.549195,0.789903,-0.083989,0.259593,0.338656,-0.258756,0.119677
82,910311671,-0.547428,0.791220,-0.084354,0.259197,0.104022,0.057638,0.093895
83,910345005,-0.545504,0.792744,-0.084874,0.258425,0.074361,0.340354,0.095023
84,910378339,-0.543267,0.794905,-0.084802,0.256518,0.512787,0.277873,0.223422
85,910411673,-0.541997,0.796805,-0.083857,0.253603,-0.084974,0.868529,0.160906
86,910445007,-0.542551,0.798543,-0.080354,0.248024,-0.324790,0.817218,0.062737
87,910478341,-0.544410,0.800440,-0.074067,0.239651,-0.534341,1.082007,0.040029
88,910511675,-0.548178,0.802426,-0.064941,0.226715,-0.545747,0.909510,-0.289782
89,910545009,-0.552259,0.804922,-0.054164,0.210195,0.153061,0.419757,0.130475
90,910578343,-0.555973,0.807102,-0.044450,0.193674,0.852773,-0.042725,0.145952
91,910611677,-0.557851,0.808849,-0.038952,0.181805,2.283164,-0.721865,0.113872
92,910645011,-0.557936,0.810053,-0.038304,0.176236,2.003354,-0.949492,0.390508
93,910678345,-0.557835,0.810571,-0.040636,0.173634,0.120514,-0.536931,0.455786
94,910711679,-0.557777,0.811352,-0.042459,0.169689,-0.965357,-0.110875,0.065326
95,910745013,-0.556907,0.812897,-0.043575,0.164800,-0.794701,0.183799,0.436224
96,910778347,-0.556999,0.813814,-0.044306,0.159692,-0.734631,0.787759,0.467654
97,910811681,-0.558946,0.813906,-0.043588,0.152449,-0.272127,0.902497,0.044053
98,910845015,-0.562243,0.813161,-0.042286,0.144460,0.167876,0.736101,-0.269294
99,910878349,-0.566604,0.811612,-0.040659,0.136373,0.283010,0.701428,-0.254433
100,910911683,-0.572335,0.808772,-0.039661,0.129427,0.041369,0.835894,-0.085257
101,910945017,-0.579891,0.804107,-0.040455,0.124526,-0.218495,1.069771,-0.028636
102,910978351,-0.590050,0.797159,-0.042841,0.120617,-0.434538,1.330313,-0.065059
103,911011685,-0.602713,0.788038,-0.046167,0.116647,-0.502911,1.512661,0.248416
104,911045019,-0.616523,0.777561,-0.050694,0.112841,-0.393178,1.597555,0.654295
105,911078353,-0.632128,0.765148,-0.055204,0.109185,-0.157832,1.384334,1.056279
106,911111687,-0.649550,0.749920,-0.061554,0.109183,0.165225,0.832210,1.154091
107,911145021,-0.666671,0.733040,-0.070234,0.115212,0.359915,-0.073119,1.140176
108,911178355,-0.683676,0.715285,-0.077453,0.122318,0.332124,-1.138742,1.023019
109,911211689,-0.698315,0.698664,-0.086670,0.129297,0.011667,-1.408023,0.685947
110,911245023,-0.711275,0.682729,-0.096434,0.136655,0.038199,-1.036511,-0.166346
111,911278357,-0.721432,0.668485,-0.106323,0.146164,0.092510,-1.195772,-0.462940
112,911311691,-0.728876,0.656706,-0.114691,0.155974,0.016320,-1.166665,-0.361281
113,911345025,-0.733616,0.647480,-0.122048,0.166392,-0.231357,-0.801008,-0.921969
114,911378359,-0.735746,0.641232,-0.128544,0.176011,-0.547178,-0.113342,-1.418656
115,911411693,-0.736874,0.637949,-0.131554,0.180933,-0.825527,1.475492,-1.432854
116,911445027,-0.737935,0.636471,-0.132110,0.181408,-0.638009,2.440433,-1.008221
117,911478361,-0.738311,0.635820,-0.131063,0.182913,0.418130,2.620520,-0.237323
118,911511695,-0.736210,0.637537,-0.125833,0.188981,0.976292,-1.179049,-1.658250
119,911545029,-0.729064,0.648950,-0.106180,0.189899,-0.044764,-6.981774,-3.260971
120,911578363,-0.706676,0.672347,-0.102364,0.195153,-2.958332,-1.810273,1.084953
121,911611697,-0.679585,0.685534,-0.140233,0.220333,1.780151,-1.898773,6.900290
122,911645031,-0.660335,0.690752,-0.158030,0.248699,-1.506938,0.985004,-0.606349
123,911678365,-0.641733,0.702678,-0.158558,0.263224,-1.080832,0.366544,-2.404688
124,911711699,-0.625457,0.720038,-0.146541,0.262449,0.877389,0.062879,1.682109
125,911745033,-0.610374,0.733853,-0.139964,0.263284,-0.287818,1.212538,-0.254714
126,911778367,-0.597202,0.747622,-0.132718,0.258461,1.865867,0.952679,0.074190
127,911811701,-0.584529,0.761180,-0.124204,0.252011,2.623064,-0.345859,0.247370
128,911845035,-0.573690,0.771581,-0.120454,0.247060,0.715508,0.085271,-0.086766
129,911878369,-0.564785,0.779954,-0.119686,0.241598,0.434425,1.257530,0.058203
130,911911703,-0.556102,0.788827,-0.116426,0.234418,0.562926,0.770288,-0.223658
131,911945037,-0.546562,0.798063,-0.113864,0.226729,1.194512,0.849074,-0.029700
132,911978371,-0.537677,0.806191,-0.113190,0.219436,2.600938,2.277771,0.354300
133,912011705,-0.531377,0.810607,-0.116605,0.216710,3.105474,4.410840,0.266941
134,912045039,-0.532053,0.810144,-0.121435,0.214116,1.766232,6.149235,0.725827
135,912078373,-0.543189,0.802296,-0.128858,0.211347,0.688195,6.743705,1.766797
136,912111707,-0.564785,0.787472,-0.136401,0.205684,-1.092968,5.687695,1.850768
137,912145041,-0.597682,0.766851,-0.134995,0.191044,-0.777528,3.205384,1.585621
138,912178375,-0.632363,0.746540,-0.120341,0.168280,-2.898520,-0.690457,3.124952
139,912211709,-0.661035,0.727062,-0.106287,0.152056,-1.476869,-3.987278,3.830158
140,912245043,-0.685660,0.705704,-0.096319,0.150270,0.310647,-4.868373,0.591984
141,912278377,-0.704363,0.684417,-0.098267,0.160604,-1.054231,-3.382184,-0.925809
142,912311711,-0.720534,0.661520,-0.113144,0.174429,-0.517430,-3.075632,-1.946317
143,912345045,-0.731613,0.641279,-0.136424,0.186807,-1.312713,-3.159050,-2.107053
144,912378379,-0.738762,0.623874,-0.159507,0.198933,-0.725334,-2.820408,-1.995278
145,912411713,-0.742135,0.612900,-0.173823,0.208278,-1.165015,-1.617955,-2.651280
146,912445047,-0.741094,0.612074,-0.176137,0.212428,-1.673570,-0.070367,-1.670199
147,912478381,-0.742185,0.617683,-0.158109,0.206483,-0.707838,3.201805,-0.854928
148,912511715,-0.745988,0.622419,-0.130071,0.197948,0.158812,4.814084,1.430996
149,912545049,-0.749874,0.623054,-0.107569,0.194749,1.157495,2.182430,-0.663476
150,912578383,-0.743092,0.629775,-0.101416,0.202282,2.247528,-2.364775,-3.192667
151,912611717,-0.723149,0.644489,-0.115797,0.219741,1.309078,-9.012346,1.115556
152,912645051,-0.695827,0.651366,-0.164925,0.253677,-4.272338,-2.393173,4.418630
153,912678385,-0.674209,0.655934,-0.185360,0.284324,-2.153700,-1.088838,-1.133060
154,912711719,-0.653200,0.674243,-0.177682,0.295227,-3.064022,1.139936,-1.630565
155,912745053,-0.639209,0.692801,-0.163229,0.291203,-0.328502,0.057388,1.072703
156,912778387,-0.627591,0.708291,-0.152427,0.284999,0.549953,1.000236,0.327888
157,912811721,-0.619691,0.723454,-0.134572,0.272933,1.960988,1.103544,0.008279
158,912845055,-0.613381,0.738360,-0.113683,0.256259,1.174744,-0.699808,-0.438887
159,912878389,-0.606930,0.749908,-0.100067,0.243444,0.657151,-0.967177,0.074278
160,912911723,-0.600043,0.758616,-0.093645,0.235979,0.337403,-0.742697,0.140238
161,912945057,-0.591339,0.767498,-0.089259,0.230875,0.328768,-0.260923,0.152088
162,912978391,-0.581017,0.777421,-0.084289,0.225688,0.292842,0.322587,0.147879
163,913011725,-0.571578,0.787646,-0.076305,0.217012,0.308806,1.024366,0.156295
164,913045059,-0.563011,0.798038,-0.065912,0.204486,0.696161,1.838061,0.234139
165,913078393,-0.554821,0.808081,-0.056180,0.189809,0.249397,2.674503,0.128699
166,913111727,-0.549975,0.815099,-0.049251,0.175273,1.262741,4.254928,0.358887
167,913145061,-0.550561,0.817510,-0.045236,0.162846,2.224982,5.274395,0.012766
168,913178395,-0.557525,0.814007,-0.047905,0.155783,4.009519,5.500318,1.714838
169,913211729,-0.573154,0.802253,-0.057680,0.156722,-1.285561,3.550642,2.131561
170,913245063,-0.599566,0.782162,-0.070495,0.154203,-3.344387,5.964815,-0.102501
171,913278397,-0.635097,0.756535,-0.070447,0.139098,-0.472406,2.548509,1.468770
172,913311731,-0.666311,0.735366,-0.052008,0.112100,-3.061195,-3.297544,3.427223
173,913345065,-0.690405,0.716560,-0.033894,0.093488,-0.955330,-4.713750,1.974839
174,913378399,-0.713253,0.694448,-0.026092,0.091295,0.715145,-3.497859,0.866732
175,913411733,-0.732623,0.672814,-0.031806,0.097866,1.181974,-3.384462,-0.286765
176,913445067,-0.747906,0.652059,-0.053272,0.112346,1.243347,-4.076001,-1.510486
177,913478401,-0.756964,0.632269,-0.094377,0.135421,-0.447385,-3.825720,-2.082954
178,913511735,-0.760985,0.615623,-0.132417,0.156145,-1.313037,-1.941193,-2.005202
179,913545069,-0.763164,0.605788,-0.150669,0.167051,-1.703780,-0.915513,-2.940365
180,913578403,-0.762825,0.604078,-0.154293,0.171424,-2.593642,-0.998294,-3.084325
181,913611737,-0.761091,0.608910,-0.146012,0.169275,-2.022969,-0.138864,-2.898424
182,913645071,-0.756959,0.621723,-0.125837,0.156979,-3.931184,1.230229,-1.039122
183,913678405,-0.748732,0.633117,-0.125633,0.150948,0.548517,2.321801,2.955615
184,913711739,-0.744458,0.635027,-0.130812,0.159423,1.992748,3.964828,4.235949
185,913745073,-0.741596,0.635139,-0.127322,0.174434,0.921117,0.569201,-1.152905
186,913778407,-0.728168,0.649472,-0.118463,0.184197,0.171790,-4.465366,-3.168829
187,913811741,-0.705665,0.671731,-0.124025,0.188249,-2.848112,-0.478560,2.012221
188,913845075,-0.694519,0.675615,-0.152724,0.194596,-4.262844,3.616747,8.081459
189,913878409,-0.685180,0.675449,-0.162646,0.218741,1.609283,-0.538036,0.390681
190,913911743,-0.677928,0.688977,-0.131206,0.220259,4.520585,-6.757324,-5.154428
191,913945077,-0.671599,0.699013,-0.115876,0.216595,3.471161,-3.043998,-1.700958
192,913978411,-0.663540,0.708428,-0.111134,0.213304,-0.847136,-2.159246,1.437932
193,914011745,-0.653307,0.715584,-0.114072,0.219368,-0.442217,-1.012072,-0.409355
194,914045079,-0.640651,0.726994,-0.109336,0.221578,-1.138448,-0.339950,-0.672096
195,914078413,-0.627589,0.741074,-0.098199,0.217494,-0.067409,-0.925847,-0.560439
196,914111747,-0.614220,0.754526,-0.091239,0.212380,0.890301,-1.273599,-0.522015
197,914145081,-0.599844,0.765112,-0.093674,0.214525,1.479791,-0.420607,1.042234
198,914178415,-0.586017,0.773821,-0.094986,0.220834,0.173829,1.981963,0.133688
199,914211749,-0.575835,0.782011,-0.090782,0.220535,0.177917,3.305397,-0.202304
200,914245083,-0.570502,0.788705,-0.082224,0.213815,0.319657,3.398909,-0.146216
201,914278417,-0.569532,0.792871,-0.071298,0.204720,0.651750,2.227538,-0.275460
202,914311751,-0.569417,0.797156,-0.058653,0.192017,0.164982,0.499391,-0.624524
203,914345085,-0.566727,0.803064,-0.047411,0.177949,0.920408,-0.440137,0.231774
204,914378419,-0.563613,0.807899,-0.038812,0.167742,1.710275,0.297450,0.638153
205,914411753,-0.560348,0.811679,-0.035065,0.161131,2.051347,1.943369,1.184013
206,914445087,-0.559247,0.812928,-0.035226,0.158599,2.393016,3.142288,1.699419
207,914478421,-0.563890,0.809213,-0.039428,0.160166,0.231815,4.688067,1.518144
208,914511755,-0.578102,0.798823,-0.049165,0.158960,-4.673779,6.650600,1.157365
209,914545089,-0.604829,0.779901,-0.059547,0.149650,-1.563354,5.918406,-0.232686
210,914578423,-0.639658,0.756811,-0.051820,0.124073,-0.812202,0.997382,1.133250
211,914611757,-0.668989,0.736524,-0.032227,0.094611,-2.249264,-4.363642,4.125719
212,914645091,-0.693249,0.715884,-0.021199,0.080443,0.499138,-4.192220,2.328577
213,914678425,-0.716375,0.692599,-0.021664,0.081549,1.085907,-3.444143,0.769595
214,914711759,-0.736344,0.669777,-0.032012,0.090423,1.359382,-3.834157,-1.020643
215,914745093,-0.750655,0.650419,-0.053407,0.103074,0.303671,-3.954172,-2.480192
216,914778427,-0.758847,0.634247,-0.087844,0.119042,-0.395405,-3.532503,-2.468224
217,914811761,-0.761269,0.622151,-0.121623,0.136417,-0.825928,-2.980404,-2.027172
218,914845095,-0.760022,0.616353,-0.140768,0.150551,-1.259470,-1.745310,-2.591844
219,914878429,-0.757585,0.616828,-0.145089,0.156659,-1.865441,-0.331053,-2.259551
220,914911763,-0.757746,0.620681,-0.131132,0.152922,-1.862645,1.867503,-1.050720
221,914945097,-0.757063,0.628683,-0.107577,0.141579,-2.472825,1.470557,0.760811
222,914978431,-0.756136,0.631571,-0.102736,0.137211,1.963751,5.749852,4.091114
223,915011765,-0.761670,0.622813,-0.100599,0.147810,1.852905,2.927148,1.892851
224,915045099,-0.764992,0.617851,-0.089297,0.158361,0.239022,0.139390,-1.732463
225,915078433,-0.762192,0.619683,-0.085061,0.166813,0.102579,-2.975209,-2.444959
226,915111767,-0.745744,0.628954,-0.118764,0.184883,-4.367179,-2.812280,1.308265
227,915145101,-0.727065,0.632152,-0.172659,0.204827,-6.536858,1.264806,5.338416
228,915178435,-0.717902,0.636147,-0.178901,0.218937,1.573662,-3.308237,0.352770
229,915211769,-0.705784,0.656013,-0.148384,0.222492,3.043792,-6.275624,-2.872977
230,915245103,-0.689191,0.674207,-0.130698,0.231050,1.072658,-3.232959,-1.487384
231,915278437,-0.674829,0.691949,-0.115282,0.229187,-1.344527,-0.811810,0.531239
232,915311771,-0.659373,0.706327,-0.112945,0.231468,1.240909,-2.094277,0.651476
233,915345105,-0.642071,0.718234,-0.113143,0.243081,0.963666,0.488910,-0.213147
234,915378439,-0.629209,0.733016,-0.097878,0.239183,-1.421659,2.167825,-0.932611
235,915411773,-0.619521,0.749436,-0.073958,0.221526,-0.177955,1.442350,0.100797
236,915445107,-0.610932,0.763294,-0.050882,0.203863,0.861862,0.224378,0.228149
237,915478441,-0.603293,0.773458,-0.032941,0.191623,1.655767,0.634535,0.796824
238,915511775,-0.596945,0.780785,-0.019253,0.183480,0.725397,0.117393,0.146349
239,915545109,-0.589230,0.788237,-0.008522,0.177263,1.494787,-0.116034,-0.119995
240,915578443,-0.579238,0.795769,-0.004410,0.176694,0.322893,-0.334581,0.309090
241,915611777,-0.569400,0.802653,-0.001273,0.177580,-1.386203,1.041345,-0.357222
242,915645111,-0.559473,0.809563,0.000770,0.177770,-0.224994,1.417636,-0.071231
243,915678445,-0.553140,0.814248,0.005135,0.176110,-1.084844,1.944448,-0.010876
244,915711779,-0.549800,0.817809,0.013058,0.169535,-0.812294,1.773131,0.235048
245,915745113,-0.547594,0.821017,0.022286,0.159936,-0.738332,1.494310,0.209079
246,915778447,-0.546591,0.823150,0.028618,0.151154,0.175414,2.252347,0.125428
247,915811781,-0.546510,0.824255,0.031344,0.144753,0.909646,3.310304,1.096904
248,915845115,-0.550708,0.821784,0.028418,0.143489,0.034766,4.751900,2.899520
249,915878449,-0.568107,0.809939,0.019862,0.144440,-5.034060,3.148411,0.025368
250,915911783,-0.592718,0.792992,0.001628,0.140893,-4.877243,2.799441,-1.643003
251,915945117,-0.616805,0.778224,-0.006803,0.117805,-0.206094,2.191833,-0.210530
252,915978451,-0.637238,0.765475,-0.008941,0.088885,3.541382,-1.561326,2.628837
253,916011785,-0.656832,0.749462,-0.024854,0.079155,5.738950,-4.340795,2.614834
254,916045119,-0.676498,0.728139,-0.060162,0.092461,5.208404,-3.188197,1.208473
255,916078453,-0.693770,0.703086,-0.100389,0.119499,2.653925,-1.957807,0.013568
256,916111787,-0.706494,0.679553,-0.132046,0.147113,1.094227,-2.603553,0.091192
257,916145121,-0.714142,0.660485,-0.154963,0.172485,1.115696,-3.414836,-1.412440
258,916178455,-0.718175,0.644202,-0.177429,0.194299,-1.040113,-2.894741,-1.901133
259,916211789,-0.718513,0.630684,-0.202611,0.211968,-2.677206,-1.366693,-1.041188
260,916245123,-0.718861,0.618933,-0.223136,0.224446,-2.527563,0.197468,-0.659228
261,916278457,-0.720709,0.611169,-0.231282,0.231441,-1.277531,0.262376,-0.189159
262,916311791,-0.725307,0.605975,-0.225990,0.235919,1.308514,-0.114272,-0.060660
263,916345125,-0.730450,0.602201,-0.213685,0.241122,2.089408,0.522424,0.361690
264,916378459,-0.737513,0.598054,-0.195229,0.245552,1.294879,2.811338,0.477878
265,916411793,-0.742317,0.595105,-0.180141,0.249738,2.054940,0.757870,-0.762098
266,916445127,-0.740121,0.591734,-0.183402,0.261611,2.010585,-1.281815,-2.046413
267,916478461,-0.722308,0.594874,-0.209904,0.283446,-1.040924,-6.084706,-3.587253
268,916511795,-0.697919,0.597336,-0.259057,0.298316,-6.017422,1.842583,4.319439
269,916545129,-0.666145,0.585012,-0.320584,0.333531,-1.595684,0.104564,5.731101
270,916578463,-0.651741,0.594975,-0.317326,0.347199,0.564116,-2.124363,-2.925330
271,916611797,-0.633782,0.620092,-0.299039,0.352687,0.488071,-5.726006,-2.358797
272,916645131,-0.610501,0.640742,-0.294193,0.360824,-1.892066,-0.856868,0.110283
273,916678465,-0.595187,0.656679,-0.291441,0.359990,-1.322821,0.994488,0.786438
274,916711799,-0.581066,0.669409,-0.291488,0.359575,1.986148,-2.251672,0.755499
275,916745133,-0.568281,0.680529,-0.287309,0.362486,1.239372,-0.572285,-0.612223
276,916778467,-0.560214,0.695470,-0.275676,0.355653,0.146016,0.540134,-0.467695
277,916811801,-0.556030,0.711911,-0.261741,0.339868,-0.022545,0.262865,0.256668
278,916845135,-0.551335,0.725635,-0.249731,0.327297,0.596132,-0.643780,0.404154
279,916878469,-0.543984,0.734944,-0.243279,0.323664,0.836090,-1.328700,-0.072480
280,916911803,-0.536027,0.740628,-0.243056,0.324152,0.621871,-0.533297,-0.156718
281,916945137,-0.528827,0.747019,-0.242148,0.321984,0.881441,0.556804,0.111410
282,916978471,-0.524087,0.755752,-0.235499,0.314192,0.521677,1.402293,0.265252
283,917011805,-0.521046,0.765607,-0.224510,0.303244,0.545240,1.578292,0.142728
284,917045139,-0.518552,0.776366,-0.211721,0.289031,1.141347,1.257720,-0.404398
285,917078473,-0.516914,0.786994,-0.200029,0.270988,1.864185,1.888113,-0.127533
286,917111807,-0.517005,0.794457,-0.190961,0.255112,2.287310,2.539232,0.136461
287,917145141,-0.517258,0.799613,-0.184950,0.242613,1.254824,3.694542,0.006903
288,917178475,-0.520074,0.801582,-0.183779,0.230692,2.641959,4.841954,0.853814
289,917211809,-0.531130,0.796743,-0.185898,0.220335,2.264923,2.750270,3.675280
290,917245143,-0.552052,0.781417,-0.192681,0.217956,0.902946,4.111182,1.554282
291,917278477,-0.579563,0.756371,-0.204544,0.224001,3.069846,2.031219,-0.276017
292,917311811,-0.609815,0.728275,-0.212294,0.229517,1.742265,-1.485456,1.439198
293,917345145,-0.633559,0.703731,-0.216398,0.237785,-1.020518,-3.598639,3.669552
294,917378479,-0.654115,0.679358,-0.219048,0.250257,-1.197730,-3.416227,2.157328
295,917411813,-0.670336,0.654029,-0.224663,0.269123,-0.936143,-4.494003,0.784123
296,917445147,-0.683069,0.627804,-0.234867,0.290035,-0.832226,-4.259933,-0.956193
297,917478481,-0.687410,0.600998,-0.253641,0.319280,-1.286879,-4.949926,-2.363998
298,917511815,-0.685297,0.574680,-0.279434,0.349331,-2.460474,-3.019723,-2.652734
299,917545149,-0.680170,0.554015,-0.303404,0.372004,-2.707750,-1.270855,-3.200902
300,917578483,-0.672736,0.540370,-0.324327,0.387612,-3.175488,1.352688,-2.431629
301,917611817,-0.667385,0.533625,-0.335667,0.396452,-1.036136,2.478391,-1.030682
302,917645151,-0.664621,0.535318,-0.336345,0.398234,-0.609275,1.602981,1.020814
303,917678485,-0.656143,0.531540,-0.349791,0.405700,0.909677,0.474861,1.550719
304,917711819,-0.645962,0.523081,-0.366080,0.418461,1.228463,0.030896,-0.139585
305,917745153,-0.632165,0.521563,-0.380330,0.428593,-0.284808,-0.180706,-1.819517
306,917778487,-0.617893,0.525319,-0.391273,0.434922,-1.415590,0.327151,-2.345487
307,917811821,-0.605960,0.536690,-0.396715,0.432896,-3.328196,2.539047,3.862563
308,917845155,-0.599387,0.538689,-0.398247,0.438125,1.098262,0.598205,8.225056
309,917878489,-0.596638,0.551625,-0.378435,0.443310,-3.416940,-1.485497,-5.787280
310,917911823,-0.592447,0.580732,-0.357982,0.428499,-2.577563,-7.724694,-3.843384
311,917945157,-0.569543,0.592905,-0.369941,0.432704,-0.908750,-2.971759,2.426277
312,917978491,-0.552044,0.601498,-0.377743,0.436764,0.082742,1.415236,-0.070518
313,918011825,-0.534813,0.610920,-0.385194,0.438615,1.247439,-0.573405,0.786560
314,918045159,-0.521360,0.621860,-0.385699,0.438994,1.352821,-0.339218,0.078943
315,918078493,-0.510884,0.634835,-0.382810,0.435251,1.231988,0.591428,-0.483675
316,918111827,-0.504582,0.649930,-0.377427,0.424903,0.539930,1.126071,0.217647
317,918145161,-0.498919,0.663566,-0.370819,0.416244,0.631737,-1.376251,0.828000
318,918178495,-0.491975,0.669693,-0.369501,0.415867,0.319280,-1.550735,-0.115856
319,918211829,-0.484107,0.672023,-0.373231,0.418007,0.819513,-0.474116,-0.409463
320,918245163,-0.476905,0.676331,-0.374642,0.418075,0.279634,0.752317,-0.159398
321,918278497,-0.471569,0.684691,-0.372002,0.412843,0.070688,0.568366,-0.204086
322,918311831,-0.465101,0.694427,-0.369614,0.406008,0.936543,0.507071,0.166376
323,918345165,-0.458722,0.705254,-0.366383,0.397442,1.181668,0.874881,0.174619
324,918378499,-0.453422,0.715591,-0.363412,0.387653,1.527710,0.434277,-0.037606
325,918411833,-0.446767,0.724880,-0.362092,0.379265,1.792249,0.536256,-0.148344
326,918445167,-0.442284,0.733178,-0.360878,0.369602,1.905434,2.109614,0.033979
327,918478501,-0.440184,0.737586,-0.361649,0.362518,3.260591,2.636679,0.055697
328,918511835,-0.439726,0.735051,-0.367764,0.362071,6.093157,1.606966,1.415004
329,918545169,-0.447195,0.720336,-0.377965,0.371860,3.661672,1.252677,3.832472
330,918578503,-0.463320,0.690721,-0.393782,0.391382,-1.334317,6.223706,0.583400
331,918611837,-0.489734,0.661078,-0.403004,0.400910,2.451678,3.733418,-0.430220
332,918645171,-0.531184,0.645090,-0.390542,0.386243,-0.206792,-2.793584,2.541557
333,918678505,-0.559751,0.631656,-0.379113,0.379431,-1.447824,-5.810135,1.880141
334,918711839,-0.571479,0.610432,-0.382643,0.392904,-0.860697,-5.754851,1.016287
335,918745173,-0.578839,0.582021,-0.392696,0.414719,-1.099888,-4.612360,-0.175392
336,918778507,-0.579968,0.551679,-0.407430,0.439650,-1.884404,-4.311854,-0.653966
337,918811841,-0.570849,0.517183,-0.430742,0.470234,-2.177151,-4.100523,-1.951089
338,918845175,-0.555929,0.483089,-0.456417,0.499255,-1.986222,-2.810855,-2.223730
339,918878509,-0.539922,0.456273,-0.478225,0.521158,-1.743571,-0.676174,-1.399978
340,918911843,-0.524654,0.436018,-0.495482,0.537708,-1.211770,1.352325,-0.325371
341,918945177,-0.513795,0.418284,-0.504766,0.553415,-0.279573,1.470060,-0.258346
342,918978511,-0.502345,0.404289,-0.511285,0.568148,-1.009552,-1.592516,-0.403895
343,919011845,-0.483745,0.389275,-0.524387,0.582649,-0.911150,-0.933283,-0.637819
344,919045179,-0.458905,0.366887,-0.544122,0.598946,1.099826,1.335144,0.615631
345,919078513,-0.440687,0.354239,-0.558343,0.607098,-0.848558,2.947245,-2.277791
346,919111847,-0.425321,0.360010,-0.568303,0.605419,-3.959432,1.553013,-4.833676
347,919145181,-0.403234,0.366488,-0.587048,0.598722,-1.462541,-2.187146,1.643155
348,919178515,-0.384435,0.360240,-0.605664,0.596334,4.758430,7.238223,11.941410
349,919211849,-0.374333,0.364944,-0.604756,0.600804,0.429316,-4.347830,-1.830811
350,919245183,-0.375548,0.392812,-0.592963,0.594190,-6.536451,-2.110415,-4.385889
351,919278517,-0.359380,0.404598,-0.600276,0.588914,-3.380897,-2.011589,-0.494037
352,919311851,-0.336823,0.400830,-0.614502,0.590151,0.366105,-0.620655,1.018873
353,919345185,-0.309150,0.390901,-0.631648,0.593842,0.093163,-2.039060,0.964094
354,919378519,-0.281551,0.384587,-0.645035,0.597291,0.378797,-2.438654,0.307280
355,919411853,-0.263168,0.385084,-0.652423,0.597328,0.371784,-0.922392,-0.488617
356,919445187,-0.251930,0.389348,-0.657853,0.593442,0.505700,0.843402,-0.394692
357,919478521,-0.242651,0.395222,-0.663986,0.586557,0.106025,0.191170,0.027386
358,919511855,-0.233206,0.400060,-0.670139,0.580073,-0.080107,-0.513647,0.170000
359,919545189,-0.220661,0.402181,-0.678180,0.574140,0.583386,-0.555758,-0.020458
360,919578523,-0.209522,0.402776,-0.686839,0.567564,1.875384,-1.309991,-0.440370
361,919611857,-0.202711,0.403414,-0.695578,0.558875,2.721329,-3.724843,0.310008
362,919645191,-0.197266,0.400547,-0.703835,0.552512,4.988181,-2.804955,-0.011185
363,919678525,-0.193006,0.391791,-0.708986,0.553708,6.293965,-3.268453,0.147946
364,919711859,-0.199529,0.374072,-0.710764,0.561318,4.060923,-1.247130,4.130825
365,919745193,-0.214383,0.345094,-0.704022,0.582501,3.512974,-1.940771,2.651684
366,919778527,-0.230879,0.314892,-0.687854,0.611883,-1.749018,-4.954895,1.136248
367,919811861,-0.243574,0.294160,-0.672971,0.633448,-5.900037,-1.233472,2.104057
368,919845195,-0.239868,0.270669,-0.664839,0.653603,-5.791859,-1.116548,1.836522
369,919878529,-0.225378,0.247154,-0.656059,0.676543,-5.221563,-0.246604,0.501886
370,919911863,-0.204514,0.221606,-0.647423,0.699938,-6.014122,0.737480,-2.200099
371,919945197,-0.169734,0.182888,-0.646069,0.721347,-6.806700,1.538021,-2.427735
372,919978531,-0.122654,0.129578,-0.649242,0.739361,-5.607174,2.472095,-1.489672
373,920011865,-0.072739,0.073535,-0.653815,0.749555,-2.338002,3.495022,-1.541526
374,920045199,-0.032333,0.025387,-0.658239,0.751689,2.299499,2.312801,0.201077
375,920078533,-0.001658,-0.004418,-0.657702,0.753267,3.116765,1.469666,0.024037
376,920111867,0.028685,-0.028650,-0.656649,0.753109,0.303141,1.640013,-0.051224
377,920145201,0.059242,-0.063272,-0.654752,0.750861,1.986785,1.509890,-0.171786
378,920178535,0.077261,-0.083350,-0.652425,0.749287,3.983151,-0.313436,-0.998713
379,920211869,0.080545,-0.078674,-0.655219,0.747005,2.930948,0.529998,-1.543856
380,920245203,0.075242,-0.054266,-0.661447,0.744236,0.900806,0.142550,-0.130122
381,920278537,0.070370,-0.022357,-0.665785,0.742484,-3.155250,-4.493860,2.579074
382,920311871,0.078999,-0.013362,-0.676541,0.732037,-2.751426,7.422502,1.637485
383,920345205,0.093789,-0.024647,-0.688394,0.718828,-0.616383,1.305040,-0.462569
384,920378539,0.122200,-0.043605,-0.699433,0.702826,-2.440984,3.152637,-1.249099
385,920411873,0.137850,-0.040273,-0.712515,0.686807,1.237608,-0.085925,-0.592054
386,920445207,0.146955,-0.034643,-0.726537,0.670338,-0.742575,0.220249,1.295756
387,920478541,0.156617,-0.034276,-0.738190,0.655268,0.529792,-1.500206,0.270454
388,920511875,0.161750,-0.029501,-0.749466,0.641304,-2.066351,-0.418119,-0.218609
389,920545209,0.164382,-0.023544,-0.761489,0.626549,-0.390292,-1.238057,0.571115
390,920578543,0.166730,-0.019188,-0.770368,0.615119,0.061426,-0.898099,0.280573
391,920611877,0.171281,-0.019925,-0.775941,0.606784,-0.712088,-0.541462,0.187252
392,920645211,0.177081,-0.021090,-0.780788,0.598809,-0.389333,-0.344557,-0.082098
393,920678545,0.178733,-0.019081,-0.786700,0.590591,0.024030,-0.828483,-0.074512
394,920711879,0.175983,-0.013741,-0.793553,0.582340,-0.459419,-0.726186,0.124547
395,920745213,0.172258,-0.008126,-0.800313,0.574252,-0.399118,-0.872513,0.174364
396,920778547,0.167411,-0.002607,-0.807174,0.566076,-0.039984,-1.082366,0.139128
397,920811881,0.160894,0.003091,-0.815401,0.556084,-0.050671,-1.210515,0.309884
398,920845215,0.152262,0.009215,-0.823970,0.545720,-0.319572,-1.441852,0.374350
399,920878549,0.144756,0.013619,-0.831308,0.536462,-0.689476,-2.777424,0.044759
400,920911883,0.138867,0.014537,-0.836566,0.529779,-2.320224,-4.093092,1.636632
401,920945217,0.136252,0.014391,-0.834473,0.533749,0.121635,-5.637238,0.931184
402,920978551,0.129474,0.014929,-0.822420,0.553754,2.276335,-4.282773,-0.741618
403,921011885,0.119148,0.008964,-0.805971,0.579774,3.236424,-2.002765,-1.440058
404,921045219,0.100613,0.006031,-0.789926,0.604865,2.477899,-1.234928,0.429850
405,921078553,0.075669,0.010988,-0.772488,0.630414,0.098957,-0.342001,2.581577
406,921111887,0.056244,0.018772,-0.752009,0.656484,-2.185342,2.699278,2.660701
407,921145221,0.052576,0.015894,-0.731131,0.680026,-3.275085,3.761284,1.478350
408,921178555,0.062810,-0.001260,-0.710287,0.701106,-2.543367,3.168239,1.741750
409,921211889,0.082377,-0.024118,-0.689078,0.719589,-2.335357,3.074103,0.436333
410,921245223,0.107805,-0.047520,-0.668750,0.734096,-2.060506,2.976635,-0.769517
411,921278557,0.134879,-0.074431,-0.651345,0.742982,-0.951595,2.768939,-1.169850
412,921311891,0.155720,-0.097541,-0.638311,0.747530,0.728144,1.955598,-2.003547
413,921345225,0.170641,-0.114494,-0.630287,0.748676,2.419367,0.802951,-1.535070
414,921378559,0.184349,-0.127435,-0.624526,0.748163,2.201575,0.334730,-1.080140
415,921411893,0.194613,-0.138049,-0.620653,0.746902,1.861365,0.522588,-1.334813
416,921445227,0.200251,-0.149605,-0.617757,0.745586,2.604770,-0.462686,-0.911096
417,921478561,0.203456,-0.157255,-0.616145,0.744477,0.818633,-0.580613,0.106051
418,921511895,0.207202,-0.158289,-0.616385,0.743025,-0.893100,-0.134340,0.401373
419,921545229,0.210453,-0.150821,-0.620278,0.740420,-0.945258,1.007855,-0.347031
420,921578563,0.213338,-0.144666,-0.627918,0.734359,-0.284355,1.296338,-1.435849
421,921611897,0.217507,-0.144654,-0.639672,0.722904,0.292543,0.947605,-0.762011
422,921645231,0.224556,-0.144887,-0.655483,0.706349,0.914353,1.996976,-0.759768
423,921678565,0.230261,-0.145560,-0.674932,0.685758,0.621801,-0.871251,3.143452
424,921711899,0.239929,-0.159563,-0.682662,0.671528,1.376176,-2.610273,7.500597
425,921745233,0.252532,-0.163296,-0.689978,0.658404,1.352026,-0.918319,-2.020015
426,921778567,0.251289,-0.153095,-0.706319,0.643843,-0.857775,1.948872,-2.829753
427,921811901,0.245778,-0.142409,-0.719287,0.633990,0.679520,0.941760,-0.932129
428,921845235,0.240499,-0.134379,-0.733230,0.621676,0.151909,2.824093,-0.043443
429,921878569,0.239014,-0.131072,-0.744686,0.609212,-1.703559,2.587067,1.044434
430,921911903,0.242091,-0.129596,-0.750505,0.601119,-1.707565,0.363779,0.768686
431,921945237,0.243691,-0.126592,-0.753935,0.596805,-1.120260,-1.049870,0.183016
432,921978571,0.241267,-0.120028,-0.757737,0.594326,-0.244129,-0.843947,0.098719
433,922011905,0.236047,-0.110531,-0.762116,0.592663,0.136159,-0.259145,0.001972
434,922045239,0.231033,-0.101428,-0.766676,0.590380,0.036992,0.747613,-0.143182
435,922078573,0.229110,-0.096480,-0.770516,0.586950,-0.474686,1.137324,-0.090030
436,922111907,0.229765,-0.096519,-0.773486,0.582766,-0.651594,0.449361,0.426160
437,922145241,0.231789,-0.096948,-0.775971,0.578575,0.035222,-0.888265,0.138154
438,922178575,0.232827,-0.095738,-0.778737,0.574630,0.387372,-1.489003,-0.177271
439,922211909,0.230531,-0.091969,-0.781871,0.571910,-0.014125,-1.050078,0.029012
440,922245243,0.226942,-0.086738,-0.784997,0.569876,-0.688295,-0.199170,0.061439
441,922278577,0.225834,-0.084377,-0.787197,0.567632,-1.001875,0.229711,0.004576
442,922311911,0.227071,-0.084781,-0.788814,0.564826,0.040595,-0.021268,-0.268874
443,922345245,0.227906,-0.085604,-0.791456,0.560655,0.163786,0.092165,-0.009920
444,922378579,0.228253,-0.086257,-0.795056,0.555294,0.086639,-0.051422,-0.046929
445,922411913,0.227422,-0.086074,-0.799850,0.548740,0.137199,-0.337292,0.067884
446,922445247,0.224397,-0.085004,-0.805708,0.541534,-0.667894,-0.528407,0.154529
447,922478581,0.221523,-0.084091,-0.811440,0.534253,-0.761795,-0.798054,0.309230
448,922511915,0.218885,-0.083458,-0.816275,0.528038,-0.437895,-1.552945,-0.071293
449,922545249,0.215994,-0.082905,-0.821070,0.521844,-1.015657,-1.232582,0.246361
450,922578583,0.213177,-0.083926,-0.825910,0.515160,-1.143561,-1.641633,1.025672
451,922611917,0.209135,-0.084561,-0.828700,0.512223,-1.050676,-2.578782,1.469143
452,922645251,0.205510,-0.083973,-0.828149,0.514673,-0.583971,-3.451533,0.942051
453,922678585,0.201685,-0.082279,-0.822803,0.524932,-0.171442,-3.559616,-0.449432
454,922711919,0.196856,-0.083503,-0.812231,0.542734,1.858745,-3.514377,-1.875029
455,922745253,0.187134,-0.086301,-0.799337,0.564445,2.023154,-2.450105,-1.166347
456,922778587,0.170961,-0.086356,-0.785227,0.588845,1.198192,-1.571098,0.814762
457,922811921,0.157258,-0.086464,-0.767368,0.615585,-1.372945,0.805778,2.828012
458,922845255,0.151927,-0.090256,-0.745661,0.642469,-2.337950,3.305964,2.718620
459,922878589,0.159756,-0.100935,-0.722920,0.664591,-2.707078,3.787020,1.634766
460,922911923,0.179511,-0.118664,-0.701071,0.679852,-1.669144,3.593951,1.839122
461,922945257,0.201435,-0.135628,-0.680214,0.691624,-0.521719,3.014333,0.188703
462,922978591,0.224440,-0.152308,-0.661126,0.699533,-0.817982,3.226520,-1.238022
463,923011925,0.249088,-0.173426,-0.644133,0.702122,-0.808819,2.982165,-1.682199
464,923045259,0.271698,-0.196222,-0.630551,0.700062,0.026184,1.820869,-1.087544
465,923078593,0.291640,-0.217787,-0.618164,0.696702,1.635249,0.015575,-0.499482
466,923111927,0.309699,-0.236070,-0.604123,0.695268,2.127158,-1.145045,-0.724327
467,923145261,0.322202,-0.248655,-0.592059,0.695577,2.290591,-1.582026,-0.753896
468,923178595,0.328166,-0.252997,-0.583856,0.698152,2.240606,-1.092967,-0.926022
469,923211929,0.328489,-0.248592,-0.580137,0.702668,1.851501,-0.403679,-0.867013
470,923245263,0.329277,-0.239394,-0.577631,0.707541,-0.547760,-0.424369,-0.089342
471,923278597,0.335641,-0.228835,-0.575120,0.710085,-2.947553,1.527717,-0.078898
472,923311931,0.344317,-0.220497,-0.576900,0.707119,-1.329907,0.924541,-0.888625
473,923345265,0.347925,-0.223617,-0.580750,0.701197,-0.237944,-1.862403,-0.442165
474,923378599,0.345525,-0.230328,-0.586584,0.695331,1.868812,-0.399067,-1.971789
475,923411933,0.350238,-0.246205,-0.599953,0.675854,4.008573,3.428051,-1.434848
476,923445267,0.356160,-0.259306,-0.617878,0.651261,1.727889,-1.784972,5.132826
477,923478601,0.361764,-0.268271,-0.623064,0.639494,-1.217033,-4.462286,4.999431
478,923511935,0.360264,-0.264026,-0.637334,0.627941,1.164541,-0.019987,0.069252
479,923545269,0.357767,-0.251364,-0.656488,0.614692,-1.629644,4.175726,-2.046213
480,923578603,0.351191,-0.240393,-0.673928,0.603905,0.561664,2.619093,-1.801569
481,923611937,0.350686,-0.244134,-0.685741,0.589222,1.108468,2.293455,0.128586
482,923645271,0.354528,-0.250168,-0.695097,0.573211,-0.061725,2.090808,0.487375
483,923678605,0.355943,-0.249372,-0.703244,0.562647,0.368137,0.008186,0.397113
484,923711939,0.352126,-0.240825,-0.712284,0.557375,0.750729,-1.135850,0.169209
485,923745273,0.340436,-0.222404,-0.724519,0.556522,0.340775,-0.812415,-0.063159
486,923778607,0.323628,-0.198144,-0.738352,0.557535,-0.104957,0.784867,0.125550
487,923811941,0.309350,-0.177810,-0.748694,0.558702,-0.321734,1.584937,-0.216742
488,923845275,0.300460,-0.166006,-0.755773,0.557654,-0.287669,1.407532,-0.290908
489,923878609,0.295488,-0.160369,-0.762022,0.553441,-0.246077,0.376930,0.307435
490,923911943,0.290939,-0.154758,-0.768524,0.548434,0.455946,-1.291425,-0.086480
491,923945277,0.284568,-0.147011,-0.775933,0.543453,0.135176,-1.795295,-0.291610
492,923978611,0.276099,-0.137537,-0.784242,0.538352,-0.939177,-1.461674,0.022869
493,924011945,0.266464,-0.127168,-0.792469,0.533689,-0.927104,-0.994782,0.025496
494,924045279,0.257367,-0.118163,-0.799596,0.529576,-1.279161,-1.426980,-0.111721
495,924078613,0.250101,-0.111756,-0.805729,0.525134,-1.167304,-1.870459,-0.209511
496,924111947,0.244078,-0.105881,-0.811547,0.520203,-0.829204,-2.053883,-0.534282
497,924145281,0.237113,-0.099316,-0.817394,0.515545,-0.927139,-1.753265,-0.639090
498,924178615,0.227516,-0.091070,-0.822761,0.512848,-1.349761,-1.166623,1.153866
499,924211949,0.219536,-0.082792,-0.823819,0.516020,-1.366103,-1.833366,2.983399
500,924245283,0.216700,-0.077889,-0.817985,0.527144,-1.485533,-4.067422,2.476628
501,924278617,0.215156,-0.075593,-0.804545,0.548366,4.975186,-3.261718,-0.213228
502,924311951,0.206050,-0.079938,-0.789008,0.573258,5.066942,-4.321196,-1.347142
503,924345285,0.181045,-0.074423,-0.772361,0.604274,2.042888,-2.463423,0.329431
504,924378619,0.151291,-0.060063,-0.756362,0.633581,0.193359,1.689731,2.639372
505,924411953,0.129975,-0.048193,-0.738703,0.659626,-1.172688,4.243970,2.039393
506,924445287,0.123064,-0.048342,-0.719212,0.682097,-2.819375,3.832575,1.680838
507,924478621,0.127595,-0.056704,-0.699489,0.700874,-2.713155,3.074927,0.853466
508,924511955,0.139845,-0.067124,-0.681146,0.715530,-2.260126,3.262053,-0.035761
509,924545289,0.161259,-0.082601,-0.663466,0.725941,-1.943569,4.018862,-1.141720
510,924578623,0.189378,-0.108594,-0.645895,0.731551,-0.862820,3.282092,-1.907286
511,924611957,0.215377,-0.140057,-0.630663,0.732302,0.956973,1.522987,-1.592813
512,924645291,0.235928,-0.167901,-0.617442,0.731380,2.713774,-0.594875,-0.636849
513,924678625,0.249286,-0.185209,-0.607485,0.731109,3.231656,-1.097807,-0.874724
514,924711959,0.254812,-0.191908,-0.602421,0.731667,2.976003,-0.231435,-1.178631
515,924745293,0.255954,-0.192550,-0.600745,0.732477,2.146074,-0.207479,-1.233976
516,924778627,0.256542,-0.190090,-0.600354,0.733234,0.778767,-0.380834,-0.782380
517,924811961,0.258172,-0.183663,-0.602746,0.732337,-0.483930,-0.317459,-0.469270
518,924845295,0.258414,-0.170155,-0.607387,0.731680,-1.959906,-0.833645,0.374838
519,924878629,0.254374,-0.151360,-0.616433,0.729657,-0.113198,-1.620207,-0.480343
520,924911963,0.247759,-0.137087,-0.632538,0.720918,-0.843003,2.118150,-1.748058
521,924945297,0.247982,-0.139898,-0.654541,0.700368,3.290980,2.734494,2.817131
522,924978631,0.259531,-0.166247,-0.663074,0.682161,-0.768041,1.508017,7.908749
523,925011965,0.292799,-0.203028,-0.661902,0.659499,1.119850,-0.592760,-0.193314
524,925045299,0.304128,-0.205415,-0.676126,0.638881,0.344648,0.564734,-4.023543
525,925078633,0.293316,-0.191174,-0.693567,0.629594,0.832119,0.077652,-1.015447
526,925111967,0.293865,-0.192763,-0.707947,0.612620,0.846800,3.299394,0.777899
527,925145301,0.299502,-0.196564,-0.717564,0.597300,-1.594189,1.512350,1.018729
528,925178635,0.301377,-0.194050,-0.724808,0.588366,-1.358470,0.711430,-0.212555
529,925211969,0.301134,-0.190400,-0.731688,0.581124,-0.760719,-0.491917,0.342544
530,925245303,0.297586,-0.182653,-0.737730,0.577789,0.658437,-1.354606,-0.282032
531,925278637,0.289405,-0.169394,-0.745835,0.575574,0.917347,-0.074120,-0.181022
532,925311971,0.279361,-0.154155,-0.753938,0.574261,0.665510,1.308443,-0.565289
533,925345305,0.269685,-0.143220,-0.762075,0.570969,-0.703624,2.146842,-0.027606
534,925378639,0.265424,-0.138746,-0.769008,0.564740,-0.449634,0.905641,0.385466
535,925411973,0.264674,-0.136175,-0.774735,0.557848,0.353093,-1.169432,-0.301404
536,925445307,0.262068,-0.133057,-0.780800,0.551338,-0.114951,-1.962524,0.038681
537,925478641,0.257040,-0.127895,-0.786960,0.546142,-0.374085,-2.044375,0.035890
538,925511975,0.249134,-0.119593,-0.793276,0.542538,-0.582452,-2.042377,-0.039431
539,925545309,0.238590,-0.108135,-0.798920,0.541400,-0.324176,-2.061202,-0.111995
540,925578643,0.225366,-0.094449,-0.803881,0.542283,-0.663098,-1.226332,-0.628760
541,925611977,0.213072,-0.082666,-0.808162,0.542813,-1.270495,-0.897578,-0.424276
542,925645311,0.201805,-0.073423,-0.811995,0.542727,-2.303621,-0.445804,0.328540
543,925678645,0.192376,-0.065791,-0.814962,0.542683,-1.237515,-0.865443,1.803721
544,925711979,0.186036,-0.059828,-0.812410,0.549370,-0.800608,-2.984312,3.027421
545,925745313,0.182342,-0.058169,-0.802279,0.565439,2.502966,-3.128692,1.021567
546,925778647,0.174923,-0.063899,-0.789505,0.584812,3.995488,-3.811627,-0.121200
547,925811981,0.155475,-0.063380,-0.774562,0.609811,1.539716,-2.229550,0.290758
548,925845315,0.133651,-0.056674,-0.758141,0.635730,0.802241,0.632304,1.005324
549,925878649,0.117890,-0.051588,-0.741439,0.658570,-0.046942,3.083614,1.584801
550,925911983,0.111257,-0.053362,-0.723847,0.678841,-1.533970,3.856772,1.336878
551,925945317,0.115640,-0.059896,-0.705474,0.696671,-2.615054,3.202320,0.548265
552,925978651,0.125244,-0.068763,-0.688524,0.711003,-2.818402,3.251161,-0.170628
553,926011985,0.143628,-0.082849,-0.672828,0.720982,-2.293465,3.541036,-0.952223
554,926045319,0.169909,-0.105487,-0.657224,0.726681,-1.077614,2.650128,-1.066224
555,926078653,0.197405,-0.133511,-0.640684,0.729887,0.151374,0.963362,-0.793553
556,926111987,0.221708,-0.161983,-0.623256,0.732232,1.200379,-0.903157,0.283398
557,926145321,0.241536,-0.183541,-0.606642,0.734823,1.819519,-1.463837,0.144794
558,926178655,0.253051,-0.195741,-0.592916,0.738990,2.523569,-0.967394,-0.178586
559,926211989,0.259438,-0.200687,-0.581166,0.744760,1.996658,-0.080966,-0.517337
560,926245323,0.263135,-0.197783,-0.573209,0.750386,1.110283,0.767770,-1.353903
561,926278657,0.266230,-0.191205,-0.570810,0.752824,0.796822,1.226621,-1.925580
562,926311991,0.269536,-0.184792,-0.572536,0.751937,0.182230,1.016693,-2.459490
563,926345325,0.272098,-0.180541,-0.578453,0.747506,-0.184872,0.661114,-2.408443
564,926378659,0.274163,-0.179243,-0.588634,0.739068,-0.487142,0.354161,-0.886035
565,926411993,0.277370,-0.175589,-0.602448,0.727527,-1.038648,-0.203734,0.922375
566,926445327,0.283727,-0.172037,-0.620175,0.710838,0.407156,1.341609,0.796893
567,926478661,0.293166,-0.178137,-0.642226,0.685472,2.452219,-0.005205,3.688022
568,926511995,0.296353,-0.197315,-0.654055,0.667427,2.454829,-1.469621,8.261595
569,926545329,0.317013,-0.223384,-0.655787,0.647728,2.055619,-0.110674,-3.343718
570,926578663,0.320912,-0.218688,-0.674205,0.628207,-2.299545,1.439083,-3.119162
571,926611997,0.307378,-0.199713,-0.692963,0.620839,-0.174536,-0.369682,-0.788760
572,926645331,0.299659,-0.194179,-0.710030,0.606927,-0.125319,3.619362,1.713493
573,926678665,0.302207,-0.196013,-0.717839,0.595787,-1.700198,1.842012,0.572673
574,926711999,0.309323,-0.201571,-0.722141,0.584984,-0.914699,0.847240,0.249961
575,926745333,0.313103,-0.202427,-0.726010,0.577845,0.293916,-1.255920,-0.335410
576,926778667,0.310279,-0.197165,-0.733408,0.571813,0.442231,0.148067,0.569281
577,926812001,0.307737,-0.189362,-0.739894,0.567453,0.122146,0.501362,-0.177851
578,926845335,0.303207,-0.181369,-0.746485,0.563859,0.351665,1.138452,-0.261077
579,926878669,0.299107,-0.176923,-0.752290,0.559731,0.096746,1.025004,0.185987
580,926912003,0.296878,-0.173165,-0.757835,0.554589,0.154178,0.089205,0.069884
581,926945337,0.294217,-0.168171,-0.763829,0.549295,0.642917,-1.548208,-0.180266
582,926978671,0.288272,-0.162046,-0.770279,0.545267,0.016860,-1.572743,-0.044333
583,927012005,0.281158,-0.155181,-0.776673,0.541898,-0.424561,-0.609423,0.024708
584,927045339,0.275905,-0.150095,-0.781904,0.538497,-0.813981,-0.216114,0.071331
585,927078673,0.272509,-0.146150,-0.786215,0.535024,-0.772273,-0.677441,-0.253782
586,927112007,0.269350,-0.142206,-0.790654,0.531131,-0.642791,-0.750083,-0.304255
587,927145341,0.266260,-0.137424,-0.795338,0.526937,-0.506551,-0.551239,-0.037064
588,927178675,0.263111,-0.131932,-0.800766,0.521676,-1.216733,0.280126,0.040770
589,927212009,0.261790,-0.127202,-0.806469,0.514683,-1.042653,0.461454,0.416530
590,927245343,0.262996,-0.123946,-0.810697,0.508179,-0.570833,-0.659426,1.179580
591,927278677,0.263031,-0.118281,-0.813495,0.505031,0.960647,-2.483193,1.478189
592,927312011,0.256054,-0.108468,-0.815863,0.506995,1.525382,-3.284368,1.895222
593,927345345,0.245529,-0.098822,-0.814822,0.515772,0.754033,-3.773316,0.252651
594,927378679,0.234217,-0.090531,-0.808920,0.531602,0.258161,-2.792192,-0.677137
595,927412013,0.224421,-0.087090,-0.798192,0.552219,3.441734,-2.370970,-1.634044
596,927445347,0.210451,-0.087350,-0.784719,0.576456,3.213019,-1.685070,-0.688596
597,927478681,0.189996,-0.085140,-0.769795,0.603385,2.064101,-0.633675,0.822575
598,927512015,0.166843,-0.080070,-0.756121,0.627724,0.349627,0.929811,1.891541
599,927545349,0.145432,-0.073086,-0.743317,0.648840,-0.683952,2.045386,1.744886
600,927578683,0.131384,-0.067695,-0.730035,0.667241,-0.935947,3.040568,2.096644
601,927612017,0.129587,-0.069306,-0.713730,0.684834,-0.517717,2.446602,1.151749
602,927645351,0.136214,-0.081149,-0.694250,0.702055,-0.841253,1.965649,0.435435
603,927678685,0.146426,-0.101303,-0.673998,0.716958,-0.332096,1.729578,-0.588273
604,927712019,0.153919,-0.125887,-0.656327,0.727806,0.438101,1.470152,-1.212301
605,927745353,0.160620,-0.150261,-0.642964,0.733639,0.793562,1.689652,-1.540133
606,927778687,0.166941,-0.171927,-0.634521,0.734819,1.028930,1.655142,-1.344167
607,927812021,0.171406,-0.186761,-0.630110,0.733966,0.968383,0.624787,-1.357244
608,927845355,0.171453,-0.190677,-0.628735,0.734128,0.718218,-0.472583,-0.580838
609,927878689,0.169539,-0.190112,-0.627441,0.735824,0.694545,-1.153845,-0.535377
610,927912023,0.171913,-0.196762,-0.625886,0.734849,-0.046602,-2.043840,-1.149834
611,927945357,0.181620,-0.210478,-0.621268,0.732628,-1.583778,-3.917753,1.322335
612,927978691,0.187543,-0.209449,-0.616178,0.735723,-0.976122,-2.688115,0.566660
613,928012025,0.186649,-0.193350,-0.617121,0.739558,0.758405,0.094478,-1.497380
614,928045359,0.190046,-0.185041,-0.623732,0.735259,2.876506,3.232547,-1.483532
615,928078693,0.191849,-0.195034,-0.632825,0.724357,1.223963,-1.652748,5.550233
616,928112027,0.209072,-0.221460,-0.630651,0.713813,1.709263,1.993339,3.137068
617,928145361,0.210950,-0.209972,-0.639490,0.708851,-2.665021,4.623863,-2.803692
618,928178695,0.221913,-0.197631,-0.657881,0.692022,-4.006360,8.539207,-0.922659
619,928212029,0.247959,-0.206162,-0.670499,0.668169,0.277709,3.036747,-0.320125
620,928245363,0.262027,-0.209147,-0.684818,0.647016,2.046740,-0.921054,-0.032413
621,928278697,0.273243,-0.216722,-0.698645,0.624716,-0.502377,1.419302,-0.102089
622,928312031,0.292700,-0.233262,-0.705778,0.601497,-1.730545,0.153253,0.670263
623,928345365,0.305114,-0.238722,-0.712457,0.585088,0.115994,-1.588181,-0.188133
624,928378699,0.302161,-0.230048,-0.724439,0.575300,0.491701,-1.736580,0.069625
625,928412033,0.290844,-0.216515,-0.737784,0.569394,-0.835925,-0.742454,0.453121
626,928445367,0.285999,-0.207792,-0.746975,0.563082,-1.398702,0.020080,0.287339
627,928478701,0.285661,-0.203393,-0.753668,0.555895,-1.356151,0.419138,0.122198
628,928512035,0.287519,-0.204201,-0.758304,0.548284,-1.116915,0.718970,-0.415319
629,928545369,0.288418,-0.206458,-0.763062,0.540308,-1.404560,0.529754,0.100130
630,928578703,0.291544,-0.208697,-0.766545,0.532787,-0.534309,-0.004964,0.042824
631,928612037,0.295011,-0.207524,-0.771131,0.524657,-0.026947,-0.570031,-0.205186
632,928645371,0.294062,-0.205344,-0.776721,0.517756,-0.201489,-0.374429,-0.261207
633,928678705,0.291808,-0.204696,-0.782547,0.510464,-0.801080,-0.119238,0.166322
634,928712039,0.289812,-0.204533,-0.787610,0.503836,-1.009777,-0.660254,0.132952
635,928745373,0.286352,-0.203719,-0.793372,0.497058,-0.902969,-1.221021,-0.073836
636,928778707,0.282421,-0.203118,-0.799284,0.490032,-1.132742,-2.228895,-0.199368
637,928812041,0.277143,-0.202838,-0.803574,0.486131,-1.564086,-3.329513,-0.526386
638,928845375,0.274684,-0.206929,-0.804066,0.484987,-4.122106,-2.348840,0.843740
639,928878709,0.277721,-0.215216,-0.799862,0.486599,-4.714686,-1.818310,2.540784
640,928912043,0.288178,-0.228252,-0.786296,0.496586,-1.163122,-3.895328,1.779473
641,928945377,0.299197,-0.246584,-0.765830,0.513017,2.016720,-4.901274,0.549738
642,928978711,0.305629,-0.263821,-0.741182,0.536324,-1.116628,-3.738966,-0.140496
643,929012045,0.298207,-0.266312,-0.719392,0.568005,-0.523589,0.724646,1.700657
644,929045379,0.289319,-0.266820,-0.698912,0.597184,0.472885,4.768525,2.791804
645,929078713,0.292465,-0.278973,-0.674971,0.617299,-0.790212,6.191988,2.328208
646,929112047,0.310509,-0.300639,-0.646721,0.628457,-0.382463,4.562027,0.247167
647,929145381,0.334287,-0.321708,-0.619614,0.633119,0.376290,3.658557,-0.665158
648,929178715,0.361351,-0.340531,-0.594271,0.632701,0.762676,4.034864,-1.837624
649,929212049,0.388546,-0.362745,-0.569506,0.626990,1.090584,3.871103,-1.988179
650,929245383,0.414462,-0.387644,-0.545774,0.616514,1.955086,2.275043,-1.501441
651,929278717,0.435790,-0.412606,-0.523984,0.604392,2.197053,-0.839711,-0.997497
652,929312051,0.451290,-0.431935,-0.505212,0.595429,1.604880,-2.438246,-0.770263
653,929345385,0.459729,-0.440578,-0.494889,0.591295,1.335694,-2.796174,0.052481
654,929378719,0.462838,-0.442050,-0.490567,0.591373,0.626365,-1.994476,0.204543
655,929412053,0.466270,-0.440900,-0.486128,0.593198,-1.345497,0.153714,1.148321
656,929445387,0.478617,-0.437567,-0.477525,0.592820,-3.920432,1.371735,0.707721
657,929478721,0.493893,-0.434975,-0.468015,0.589773,-3.418653,0.685485,-0.009272
658,929512055,0.506340,-0.436985,-0.459990,0.584019,-0.748353,1.552364,-1.935288
659,929545389,0.519383,-0.452086,-0.453818,0.565609,2.380496,2.562756,-4.261335
660,929578723,0.527176,-0.476463,-0.455888,0.535947,3.060822,-1.319755,0.737941
661,929612057,0.535421,-0.509624,-0.437981,0.511650,-2.773355,-5.842112,10.973064
662,929645391,0.557696,-0.522929,-0.419920,0.489073,2.238420,-1.056050,0.874849
663,929678725,0.546874,-0.493496,-0.460353,0.495450,5.311968,3.857262,-8.801933
664,929712059,0.541719,-0.495123,-0.481640,0.478979,4.141971,7.916473,0.064635
665,929745393,0.546596,-0.506736,-0.483804,0.458682,-0.272647,-0.789014,2.034752
666,929778727,0.550238,-0.515870,-0.484354,0.443310,-0.625036,0.640750,-0.165285
667,929812061,0.550940,-0.521130,-0.490809,0.428953,0.568458,2.494254,0.110906
668,929845395,0.551438,-0.525582,-0.497832,0.414546,0.899443,1.267846,-0.519885
669,929878729,0.547413,-0.528351,-0.508526,0.403224,0.000616,-0.925291,-0.450216
670,929912063,0.538394,-0.527791,-0.523353,0.397084,0.377661,-0.425374,0.102718
671,929945397,0.531981,-0.530592,-0.533536,0.388347,0.587140,1.552367,0.761415
672,929978731,0.530337,-0.536091,-0.538439,0.376082,-0.231619,-0.196586,0.041724
673,930012065,0.525998,-0.539801,-0.546429,0.365188,-0.999279,-0.904857,-0.293800
674,930045399,0.517428,-0.541019,-0.557907,0.358207,-1.107286,0.065650,0.039314
675,930078733,0.506684,-0.541249,-0.570878,0.352738,-1.051842,0.393002,-0.133926
676,930112067,0.497487,-0.542559,-0.581590,0.346257,-1.235806,0.885620,0.101389
677,930145401,0.489462,-0.544224,-0.590104,0.340632,-1.770119,0.432213,0.080978
678,930178735,0.482006,-0.546378,-0.596982,0.335796,-2.207775,0.210562,0.165442
679,930212069,0.476977,-0.549841,-0.600740,0.330580,-3.228130,-0.349513,0.012952
680,930245403,0.476866,-0.554248,-0.598810,0.326865,-4.397589,1.072957,0.228478
681,930278737,0.482432,-0.560310,-0.588595,0.326913,-4.652774,0.756788,2.620793
682,930312071,0.500858,-0.571912,-0.559076,0.330905,-2.550062,-4.862862,2.842969
683,930345405,0.520873,-0.582165,-0.521491,0.343260,-4.363569,-4.437474,0.406429
684,930378739,0.520377,-0.577151,-0.503660,0.377408,-0.686391,1.018707,0.573603
685,930412073,0.508439,-0.563066,-0.496363,0.421990,4.270983,5.715668,1.754217
686,930445407,0.512777,-0.561930,-0.476999,0.440194,3.547194,7.522652,1.180934
687,930478741,0.531221,-0.570376,-0.445968,0.439993,3.604095,5.362480,0.192802
688,930512075,0.551363,-0.579164,-0.415688,0.433332,4.642505,4.757543,-1.125751
689,930545409,0.573994,-0.593286,-0.382302,0.415202,5.298233,3.272529,-1.605883
690,930578743,0.599887,-0.613640,-0.343691,0.381398,6.262070,1.671095,-1.962677
691,930612077,0.622925,-0.638572,-0.300949,0.337084,5.069331,-0.066635,-0.865502
692,930645411,0.642136,-0.658927,-0.257424,0.295320,0.597759,-1.790027,0.267985
693,930678745,0.658753,-0.669929,-0.217135,0.264758,-3.018208,-1.409708,1.359630
694,930712079,0.675417,-0.673013,-0.184174,0.238643,-1.838247,-0.577635,0.763575
695,930745413,0.691503,-0.670831,-0.158387,0.216166,-0.118531,-0.028567,0.313524
696,930778747,0.707389,-0.663915,-0.139099,0.198680,0.369430,0.255792,-0.170934
697,930812081,0.722687,-0.653290,-0.128179,0.185772,1.169566,0.139104,-1.046691
698,930845415,0.736083,-0.642391,-0.125233,0.172733,1.950032,0.286554,-1.221766
699,930878749,0.746457,-0.634508,-0.124588,0.157113,2.490093,0.945224,-0.956375
700,930912083,0.753508,-0.633780,-0.113498,0.132938,2.414522,0.051952,-0.835239
701,930945417,0.756186,-0.639550,-0.092740,0.102776,1.213617,-0.766324,-0.732016
702,930978751,0.754362,-0.648865,-0.069909,0.070920,0.432146,-1.498240,-1.044633
703,931012085,0.746394,-0.662539,-0.050776,0.036944,0.591853,-2.532850,-1.795779
704,931045419,0.729573,-0.683192,-0.031135,-0.002803,-1.094610,-3.928807,-0.472943
705,931078753,0.708967,-0.704599,-0.002698,-0.030057,-5.384587,0.954330,3.651331
706,931112087,0.694536,-0.717296,0.026149,-0.049266,-6.931543,1.621063,6.731201
707,931145421,0.675757,-0.732755,0.027475,-0.075313,4.257973,-0.520723,-0.616495
708,931178755,0.662367,-0.744782,0.000311,-0.081085,5.235157,-1.194399,-5.264653
709,931212089,0.646981,-0.757607,0.001737,-0.086316,1.398814,-2.061468,0.604727
710,931245423,0.632236,-0.766973,0.022610,-0.107347,2.198345,-1.386564,1.208759
711,931278757,0.621818,-0.771475,0.040386,-0.128624,0.021189,-0.277260,0.621955
712,931312091,0.613771,-0.774336,0.048580,-0.146060,-0.749697,1.265688,0.374878
713,931345425,0.607341,-0.777881,0.047088,-0.154355,-0.388037,0.696486,-0.730048
714,931378759,0.600000,-0.783747,0.041728,-0.154931,0.941328,-0.274579,-0.037745
715,931412093,0.593088,-0.788017,0.041577,-0.159853,1.842927,-0.343597,0.440674
716,931445427,0.586207,-0.790283,0.047644,-0.171902,0.595848,-0.509842,-0.252989
717,931478761,0.578609,-0.792434,0.055566,-0.184873,-0.334373,0.142149,0.363474
718,931512095,0.572807,-0.794426,0.058624,-0.193257,-0.737780,0.962574,0.215510
719,931545429,0.568310,-0.797187,0.054864,-0.196244,-0.904491,0.987839,-0.181615
720,931578763,0.564422,-0.800406,0.048386,-0.196069,-0.592102,0.996141,-0.153556
721,931612097,0.561588,-0.803563,0.040123,-0.193134,1.232801,0.067382,0.131289
722,931645431,0.559862,-0.805341,0.034636,-0.191798,0.910749,-0.145624,0.253844
723,931678765,0.557055,-0.807620,0.030669,-0.191058,0.364300,0.266315,0.288018
724,931712099,0.553793,-0.811003,0.024322,-0.187085,0.505824,0.643579,-0.085398
725,931745433,0.551710,-0.814137,0.016019,-0.180404,-0.056131,1.083440,-0.447740
726,931778767,0.548518,-0.818358,0.008070,-0.171346,0.579974,1.051512,0.018458
727,931812101,0.544401,-0.822837,0.002062,-0.162997,0.979685,1.056960,0.218918
728,931845435,0.540012,-0.827202,-0.001832,-0.155326,1.050979,1.452349,-0.021793
729,931878769,0.535796,-0.831084,-0.002809,-0.149060,1.934422,2.069625,0.368865
730,931912103,0.532492,-0.833620,-0.000200,-0.146749,1.633399,2.510932,2.183488
731,931945437,0.536668,-0.831020,0.003428,-0.146242,-0.304804,3.571956,1.030109
732,931978771,0.549918,-0.822142,0.011207,-0.146804,-1.688834,3.636197,-0.171549
733,932012105,0.566999,-0.809947,0.025883,-0.147763,-2.198150,2.797535,-0.466379
734,932045439,0.588009,-0.795496,0.036814,-0.141706,-1.775399,3.424645,0.319409
735,932078773,0.613074,-0.778275,0.038656,-0.130151,0.170558,1.429026,1.539940
736,932112107,0.638149,-0.760299,0.034645,-0.116259,1.475655,-2.120659,2.224010
737,932145441,0.660348,-0.741512,0.038612,-0.112316,1.393568,-2.335843,2.084689
738,932178775,0.681773,-0.719958,0.050739,-0.119488,1.760744,-1.754626,1.548431
739,932212109,0.701236,-0.697539,0.065123,-0.132182,1.481288,-1.451122,0.848686
740,932245443,0.718036,-0.675422,0.079990,-0.147771,1.443963,-2.515411,-0.194205
741,932278777,0.730798,-0.654568,0.101151,-0.165073,0.675866,-2.757154,-1.662781
742,932312111,0.738981,-0.637331,0.122842,-0.180641,-0.450865,-2.120111,-2.011634
743,932345445,0.743069,-0.625223,0.140335,-0.193018,-1.717507,-1.378833,-2.403461
744,932378779,0.745278,-0.615699,0.154528,-0.203967,-0.922857,-0.209247,-1.386451
745,932412113,0.745366,-0.608438,0.166801,-0.215443,-0.191754,-0.232065,-1.122875
746,932445447,0.743554,-0.603834,0.178331,-0.225201,-1.208009,0.924176,-0.019444
747,932478781,0.742038,-0.598348,0.190255,-0.234876,-1.081603,1.152067,0.411656
748,932512115,0.736297,-0.598910,0.199609,-0.243589,-1.748834,-0.694492,-0.896194
749,932545449,0.723686,-0.613679,0.196084,-0.247454,-2.973666,-4.271049,-4.539452
750,932578783,0.704448,-0.640068,0.181845,-0.246988,4.704367,1.299833,3.295975
751,932612117,0.679995,-0.652769,0.204415,-0.264045,-6.834079,-2.081555,9.322788
752,932645451,0.669289,-0.667195,0.188676,-0.267040,-1.586576,-0.151948,-7.752393
753,932678785,0.648991,-0.693716,0.172330,-0.260531,4.172400,-3.888855,-0.297935
754,932712119,0.631248,-0.709671,0.168197,-0.263832,0.503437,0.326539,1.626438
755,932745453,0.616211,-0.721012,0.169167,-0.267983,1.165884,2.848177,0.608355
756,932778787,0.604281,-0.735174,0.158120,-0.263378,2.288913,1.342345,0.113486
757,932812121,0.594901,-0.746971,0.146236,-0.258357,1.100347,0.257950,-0.076227
758,932845455,0.588374,-0.754765,0.139604,-0.254286,0.078294,-0.904233,-0.553335
759,932878789,0.580650,-0.761393,0.136233,-0.254112,0.958722,-1.492625,0.992499
760,932912123,0.571461,-0.767561,0.133747,-0.257681,-0.999041,-0.079026,-0.259889
761,932945457,0.562669,-0.775780,0.128485,-0.255081,-0.983242,0.614251,0.066718
762,932978791,0.553893,-0.784951,0.120377,-0.250137,0.126120,0.213480,-0.066788
763,933012125,0.545042,-0.794284,0.112193,-0.243845,0.274083,0.922539,-0.206824
764,933045459,0.535510,-0.804047,0.104814,-0.236130,0.380380,1.227145,0.147900
765,933078793,0.524832,-0.814212,0.097647,-0.228212,0.312225,2.478781,-0.075701
766,933112127,0.515229,-0.823628,0.090373,-0.219121,0.499845,2.777856,0.060703
767,933145461,0.509154,-0.830271,0.083928,-0.210650,2.286346,2.236868,1.095868
768,933178795,0.509236,-0.832089,0.078228,-0.205409,1.767443,3.726279,0.970828
769,933212129,0.518263,-0.828683,0.071004,-0.199128,0.394756,5.275003,1.040589
770,933245463,0.542506,-0.816836,0.061648,-0.186201,-3.050252,4.972501,-0.837494
771,933278797,0.572195,-0.801600,0.056691,-0.163777,-4.784707,2.787509,-0.148593
772,933312131,0.606049,-0.782936,0.049584,-0.131387,-2.703931,2.200301,1.754656
773,933345465,0.638139,-0.764092,0.025718,-0.091019,0.013342,-1.409879,3.643161
774,933378799,0.664543,-0.744758,0.000460,-0.061025,3.104464,-5.247693,2.885431
775,933412133,0.687236,-0.724250,-0.003626,-0.056217,2.880716,-4.440906,1.267163
776,933445467,0.707443,-0.703146,0.013112,-0.070305,3.491934,-3.934975,0.285710
777,933478801,0.723708,-0.682273,0.041142,-0.095198,2.655099,-3.862926,-1.217171
778,933512135,0.732967,-0.664615,0.073341,-0.125191,1.692015,-3.498122,-1.521958
779,933545469,0.736431,-0.650604,0.103113,-0.154131,0.389322,-2.597542,-1.143625
780,933578803,0.737349,-0.640545,0.123069,-0.175723,-0.803098,-1.404307,-1.945587
781,933612137,0.736897,-0.633788,0.135335,-0.192316,-2.209074,-0.520809,-1.068888
782,933645471,0.736520,-0.626855,0.145201,-0.208597,-1.544351,0.139889,-0.460964
783,933678805,0.735998,-0.619954,0.156681,-0.222304,-1.962911,-0.028058,-0.963220
784,933712139,0.735943,-0.614937,0.166527,-0.229160,-2.995862,0.451174,-1.143680
785,933745473,0.737673,-0.610780,0.169013,-0.232865,-1.136874,0.672162,0.021049
786,933778807,0.738454,-0.610762,0.160409,-0.236495,0.836960,-0.275512,0.866596
787,933812141,0.737393,-0.614322,0.143146,-0.241608,1.208227,-1.357982,-1.047042
788,933845475,0.731610,-0.622762,0.130247,-0.244859,1.146248,-0.509404,-1.585007
789,933878809,0.720164,-0.634491,0.131045,-0.248227,-0.190294,-0.676200,-0.528138
790,933912143,0.700828,-0.651417,0.139163,-0.255216,-1.522238,-3.186761,2.123416
791,933945477,0.675503,-0.663295,0.162412,-0.278142,-0.278517,0.509022,4.493802
792,933978811,0.659969,-0.671859,0.179784,-0.284130,-5.178371,4.599984,1.745294
793,934012145,0.642313,-0.683785,0.187731,-0.290921,-2.466883,-1.347414,-1.791064
794,934045479,0.621655,-0.695938,0.192172,-0.303796,3.549437,-1.724179,-1.493761
795,934078813,0.609167,-0.706114,0.191995,-0.305715,-0.478167,-1.698728,0.124442
796,934112147,0.596045,-0.716837,0.192114,-0.306548,1.000366,-1.658814,0.802291
797,934145481,0.588390,-0.726253,0.185842,-0.303021,1.077170,-0.435017,0.363915
798,934178815,0.583829,-0.733349,0.177504,-0.299735,0.662052,1.134472,0.881312
799,934212149,0.584310,-0.741622,0.157832,-0.289264,-0.590208,1.168018,-0.432074
800,934245483,0.587132,-0.750130,0.134515,-0.272931,-0.568611,-1.031661,-0.684826
801,934278817,0.587306,-0.757394,0.118646,-0.259526,0.546113,-2.581423,0.298365
802,934312151,0.584169,-0.762228,0.112392,-0.255202,0.249780,-2.024101,0.156704
803,934345485,0.579079,-0.766124,0.110713,-0.255869,0.350673,-0.283422,0.437121
804,934378819,0.573328,-0.770454,0.109107,-0.256509,0.037145,0.520784,-0.113394
805,934412153,0.568032,-0.775742,0.105326,-0.253921,-0.570919,1.548148,-0.091212
806,934445487,0.564152,-0.781364,0.098174,-0.248131,-0.256875,1.623433,0.165822
807,934478821,0.561816,-0.786242,0.089824,-0.241087,0.821721,0.349483,0.019146
808,934512155,0.559239,-0.789939,0.085093,-0.236670,0.753565,-0.006865,-0.170886
809,934545489,0.555480,-0.792946,0.084697,-0.235606,0.576314,0.029079,-0.191533
810,934578823,0.549990,-0.796357,0.085815,-0.236573,0.309279,-0.097632,-0.297880
811,934612157,0.542895,-0.800947,0.086695,-0.237146,0.110219,0.014852,-0.215221
812,934645491,0.534193,-0.806805,0.086061,-0.237282,0.513413,0.506882,-0.008113
813,934678825,0.525578,-0.812776,0.084556,-0.236684,-0.073616,1.582601,-0.149078
814,934712159,0.517869,-0.818236,0.083777,-0.235133,0.005426,2.108489,-0.134837
815,934745493,0.511282,-0.823276,0.082323,-0.232454,0.822111,1.883441,0.434319
816,934778827,0.507469,-0.827172,0.079059,-0.228072,0.134243,2.448295,0.654087
817,934812161,0.508111,-0.829896,0.071665,-0.219009,0.027133,3.237064,1.136101
818,934845495,0.516123,-0.829958,0.058121,-0.203503,-0.233493,4.431795,1.561592
819,934878829,0.535050,-0.823813,0.040578,-0.182789,-1.689920,4.684024,0.117474
820,934912163,0.562109,-0.811225,0.029801,-0.158321,-3.200632,2.867557,-0.949327
821,934945497,0.592271,-0.795311,0.019937,-0.127680,-2.301750,0.836768,0.161747
822,934978831,0.621052,-0.777853,0.009209,-0.095705,-0.057533,-0.054739,1.578811
823,935012165,0.645068,-0.760641,0.000068,-0.072927,2.697958,-2.031656,1.930206
824,935045499,0.664548,-0.744086,0.001995,-0.068659,4.073031,-3.949301,1.703341
825,935078833,0.682095,-0.726001,0.021411,-0.084940,3.611578,-2.865978,1.851004
826,935112167,0.698948,-0.704511,0.050279,-0.112308,2.212822,-2.428865,0.543749
827,935145501,0.711752,-0.683200,0.080097,-0.142257,1.684167,-2.033862,0.147343
828,935178835,0.720286,-0.663662,0.106734,-0.171331,0.815013,-1.705379,0.048816
829,935212169,0.726877,-0.645276,0.128714,-0.196741,-0.960616,-1.191596,-1.074521
830,935245503,0.731941,-0.627973,0.149545,-0.218069,-2.300482,-0.554464,-1.108292
831,935278837,0.737158,-0.610717,0.168286,-0.235173,-3.200294,-0.214032,-1.415579
832,935312171,0.741572,-0.598126,0.180969,-0.244074,-3.169923,-0.040195,-1.629073
833,935345505,0.744461,-0.593012,0.184850,-0.244846,-2.965358,-0.917214,-1.656299
834,935378839,0.746182,-0.592704,0.181978,-0.242494,-1.287773,-1.472929,-1.877652
835,935412173,0.745805,-0.594246,0.176794,-0.243712,0.661893,-0.693014,-1.107442
836,935445507,0.743132,-0.596949,0.171677,-0.248875,1.326577,0.747692,-0.289490
837,935478841,0.740597,-0.601805,0.164422,-0.249635,1.766991,1.804914,0.669622
838,935512175,0.735218,-0.608414,0.161739,-0.251263,0.475626,1.114481,0.009945
839,935545509,0.724647,-0.620105,0.162479,-0.252909,-1.273983,-2.466150,-1.165209
840,935578843,0.705420,-0.638849,0.167465,-0.257321,-3.429630,-1.844329,3.080310
841,935612177,0.689475,-0.647497,0.183453,-0.267810,0.489890,1.275048,4.890666
842,935645511,0.675135,-0.655612,0.192782,-0.277861,-2.649831,1.741341,0.525257
843,935678845,0.656788,-0.673355,0.187103,-0.283231,1.145518,-2.810524,-2.209135
844,935712179,0.642560,-0.693850,0.168643,-0.277945,0.244875,-2.744181,-2.441093
845,935745513,0.624553,-0.714108,0.159897,-0.272803,0.107133,-4.417998,0.134335
846,935778847,0.607094,-0.725000,0.167044,-0.279130,1.410761,-0.922823,1.781377
847,935812181,0.595757,-0.731117,0.170211,-0.285614,0.434514,1.255371,0.931770
848,935845515,0.589548,-0.738128,0.161181,-0.285702,0.031484,2.344341,0.351806
849,935878849,0.587577,-0.748078,0.139755,-0.274966,-0.630236,0.958203,-0.660300
850,935912183,0.587521,-0.757960,0.114374,-0.259306,-0.325546,-1.017498,0.380507
851,935945517,0.587978,-0.764154,0.095184,-0.247580,0.436059,-2.091622,-0.090408
852,935978851,0.586692,-0.768528,0.083264,-0.241307,0.095212,-0.991827,-0.025821
853,936012185,0.583736,-0.773761,0.071379,-0.235492,-0.085301,-0.178266,0.181086
854,936045519,0.580287,-0.779685,0.058173,-0.227988,-0.545942,0.903059,-0.296984
855,936078853,0.576267,-0.786435,0.044263,-0.217905,-0.828871,1.762173,-0.338958
856,936112187,0.571905,-0.793543,0.029417,-0.205800,0.009020,1.342271,-0.055342
857,936145521,0.568871,-0.799040,0.015571,-0.194122,0.608864,1.102863,-0.054070
858,936178855,0.565692,-0.803702,0.003778,-0.184519,0.646588,1.106911,-0.351358
859,936212189,0.560752,-0.809170,-0.007364,-0.175362,0.536754,0.769363,-0.176852
860,936245523,0.554835,-0.815056,-0.018112,-0.165886,-0.355410,1.166772,0.251329
861,936278857,0.549584,-0.820226,-0.028879,-0.156070,-0.339397,1.696115,0.277707
862,936312191,0.544029,-0.825082,-0.035293,-0.148431,0.540235,1.989774,1.937772
863,936345525,0.542742,-0.826689,-0.036814,-0.143757,0.176552,3.771411,1.280535
864,936378859,0.549303,-0.823136,-0.035999,-0.139364,0.498112,5.504397,1.597412
865,936412193,0.568448,-0.810476,-0.028781,-0.138463,-3.535241,3.790486,-0.772215
866,936445527,0.592704,-0.794521,-0.015949,-0.131107,-4.946070,3.354365,-1.588664
867,936478861,0.621995,-0.775335,-0.013534,-0.108623,-0.388919,2.767775,0.882644
868,936512195,0.649856,-0.755483,-0.024671,-0.079554,2.347476,-1.938069,3.235012
869,936545529,0.676675,-0.732459,-0.029042,-0.069101,3.978097,-4.533724,3.328700
870,936578863,0.703689,-0.705654,-0.010926,-0.082223,3.745141,-3.935047,2.395201
871,936612197,0.727782,-0.677576,0.021139,-0.103836,1.933403,-3.781356,1.340272
872,936645531,0.746159,-0.651416,0.051925,-0.127328,0.822306,-3.984152,-0.500950
873,936678865,0.758126,-0.629558,0.080336,-0.149842,0.034342,-3.950088,-2.383145
874,936712199,0.763171,-0.614737,0.105062,-0.169218,-0.760885,-3.646083,-3.659770
875,936745533,0.762882,-0.607400,0.124000,-0.183590,-1.699275,-2.907886,-4.438046
876,936778867,0.758937,-0.606045,0.139705,-0.192903,-3.472157,-1.781033,-4.045477
877,936812201,0.752390,-0.609985,0.151485,-0.197194,-3.411376,0.094973,-2.569729
878,936845535,0.742981,-0.615980,0.168226,-0.200632,-0.541469,1.411478,1.428144
879,936878869,0.732746,-0.616743,0.195954,-0.210520,1.086504,4.333322,4.562272
880,936912203,0.731960,-0.613340,0.202685,-0.216730,1.235923,4.517425,2.935610
881,936945537,0.732604,-0.617729,0.187148,-0.216061,-0.236968,-0.366703,-0.493963
882,936978871,0.730302,-0.627835,0.167820,-0.210533,-2.669211,-0.307775,0.857439
883,937012205,0.720596,-0.640718,0.160572,-0.210816,0.050561,-3.472640,1.404393
884,937045539,0.709761,-0.646447,0.168423,-0.223572,-1.434843,-4.003191,-0.110483
885,937078873,0.698336,-0.660347,0.159368,-0.225555,1.678620,-5.955263,-2.230923
886,937112207,0.680498,-0.676456,0.156888,-0.233925,1.163435,-3.437871,-0.064269
887,937145541,0.665308,-0.692188,0.148100,-0.237304,-1.023865,0.330559,-0.723028
888,937178875,0.650832,-0.710195,0.136173,-0.231307,-0.805609,-0.401141,-0.192043
889,937212209,0.636095,-0.725996,0.128383,-0.227673,1.508212,-0.753799,0.228353
890,937245543,0.619283,-0.740520,0.124762,-0.229257,2.940810,-0.743885,0.779860
891,937278877,0.605752,-0.751643,0.122589,-0.230379,0.714070,0.789415,-0.026527
892,937312211,0.595625,-0.761489,0.117591,-0.227031,-0.564029,2.171934,-0.104173
893,937345545,0.587653,-0.769117,0.111908,-0.224956,0.094537,1.080245,0.378561
894,937378879,0.581867,-0.774134,0.107102,-0.225126,0.715230,0.476581,0.018756
895,937412213,0.577159,-0.779015,0.100892,-0.223270,0.702032,0.133309,-0.096615
896,937445547,0.572433,-0.783742,0.094749,-0.221580,0.056741,0.166528,-0.227344
897,937478881,0.566157,-0.789228,0.089764,-0.220302,-0.040263,-0.097779,-0.464978
898,937512215,0.558076,-0.795393,0.088050,-0.219441,0.366699,0.557097,-0.029290
899,937545549,0.550044,-0.801332,0.087171,-0.218462,0.357394,1.688705,0.077350
900,937578883,0.544740,-0.805875,0.083557,-0.216443,0.560954,2.695597,-0.337767
901,937612217,0.541472,-0.809895,0.075788,-0.212463,0.275114,2.517781,-0.157170
902,937645551,0.540490,-0.813880,0.062962,-0.203743,0.093946,1.686839,0.547749
903,937678885,0.541224,-0.816421,0.052330,-0.194424,0.830801,1.776321,1.683776
904,937712219,0.545221,-0.815309,0.047871,-0.188996,1.372243,3.728009,1.902262
905,937745553,0.556874,-0.807604,0.049952,-0.187556,-2.120290,3.998579,2.269340
906,937778887,0.578516,-0.792477,0.060915,-0.183289,-5.794348,4.845712,-0.522707
907,937812221,0.609887,-0.771526,0.069458,-0.167230,-1.416939,4.708612,-1.007214
908,937845555,0.644963,-0.750355,0.059496,-0.132121,0.286206,-0.338688,1.990335
909,937878889,0.673302,-0.731393,0.038920,-0.101086,2.125710,-5.051897,3.362463
910,937912223,0.697448,-0.710153,0.029358,-0.091610,3.839978,-4.637684,2.131302
911,937945557,0.719823,-0.685792,0.038056,-0.100505,4.234162,-4.362152,1.045689
912,937978891,0.737939,-0.661196,0.058081,-0.122060,3.898897,-4.458097,0.188283
913,938012225,0.749098,-0.638095,0.088590,-0.154415,2.074035,-4.073824,-1.195552
914,938045559,0.753020,-0.618086,0.124506,-0.188239,-0.190231,-3.070302,-2.429828
915,938078893,0.750860,-0.604006,0.156961,-0.216228,-1.941568,-2.699908,-2.833195
916,938112227,0.745973,-0.593918,0.184350,-0.238338,-3.343042,-1.581758,-3.206647
917,938145561,0.740834,-0.586781,0.205452,-0.254258,-3.763909,0.045593,-2.555334
918,938178895,0.737574,-0.584702,0.213627,-0.261681,-2.111576,1.086258,-0.567973
919,938212229,0.734068,-0.586982,0.217172,-0.263510,-1.718507,0.824909,0.496671
920,938245563,0.731378,-0.584609,0.229037,-0.266208,0.999171,2.348311,2.701106
921,938278897,0.730630,-0.578992,0.236409,-0.273979,2.537316,0.992623,1.767678
922,938312231,0.727211,-0.581575,0.234256,-0.279400,0.340985,0.438639,0.222315
923,938345565,0.723081,-0.588620,0.228716,-0.279955,-1.880796,-1.357382,-2.697298
924,938378899,0.712301,-0.603908,0.226084,-0.277154,-2.721992,-1.140445,-0.317203
925,938412233,0.699196,-0.610829,0.240774,-0.282922,-0.293759,1.040813,4.057504
926,938445567,0.690544,-0.612874,0.247556,-0.293692,-2.066485,2.477224,2.911963
927,938478901,0.686124,-0.629691,0.223743,-0.287519,1.382362,-4.586338,-2.653773
928,938512235,0.678410,-0.648043,0.203563,-0.279941,1.110458,-4.577190,-1.816661
929,938545569,0.667462,-0.662331,0.196164,-0.278096,-0.621570,-1.991221,0.260370
930,938578903,0.655870,-0.672206,0.198149,-0.280565,1.048124,-1.977477,0.737724
931,938612237,0.642028,-0.678763,0.207605,-0.289804,1.363549,-1.786484,0.294212
932,938645571,0.627126,-0.686128,0.215405,-0.299244,0.375191,-0.721291,-0.261837
933,938678905,0.613511,-0.695496,0.218851,-0.303315,-0.666565,0.564593,-0.316433
934,938712239,0.601598,-0.707723,0.216886,-0.300289,-1.034636,0.940794,-0.211537
935,938745573,0.590622,-0.720326,0.212923,-0.294897,0.049069,0.322780,0.325140
936,938778907,0.581098,-0.729960,0.209320,-0.292701,1.266537,-0.201113,0.285120
937,938812241,0.571904,-0.736515,0.210013,-0.293890,1.318971,-0.178829,-0.163600
938,938845575,0.563544,-0.741240,0.213224,-0.295841,0.789097,0.073773,-0.008218
939,938878909,0.555369,-0.746046,0.215991,-0.297210,0.487749,0.793577,-0.074991
940,938912243,0.547169,-0.752008,0.217004,-0.296655,1.055299,1.026149,-0.429785
941,938945577,0.538704,-0.758917,0.217068,-0.294500,1.358296,0.585289,-0.003347
942,938978911,0.531675,-0.765333,0.216467,-0.291090,0.960871,1.036369,-0.072829
943,939012245,0.526601,-0.771341,0.214754,-0.285675,0.901102,1.560301,0.025606
944,939045579,0.523198,-0.777279,0.210611,-0.278834,0.403056,1.658370,-0.106826
945,939078913,0.520526,-0.782658,0.207134,-0.271293,2.080878,1.422582,0.429585
946,939112247,0.520217,-0.783551,0.209361,-0.267572,4.587502,1.774267,2.609482
947,939145581,0.526637,-0.772407,0.222868,-0.276363,0.510879,3.013148,2.048352
948,939178915,0.541889,-0.748604,0.250988,-0.288027,-2.286547,7.884452,1.016240
949,939212249,0.567572,-0.721674,0.270507,-0.289620,2.077445,6.406531,0.599566
950,939245583,0.606238,-0.700337,0.262243,-0.270625,2.518781,-0.918121,1.918264
951,939278917,0.637990,-0.685713,0.240907,-0.254432,-0.756293,-7.431826,3.713105
952,939312251,0.656271,-0.666732,0.236450,-0.262437,1.611826,-6.709534,1.237112
953,939345585,0.670620,-0.641046,0.245959,-0.280782,0.592704,-5.425911,0.165695
954,939378919,0.678819,-0.614807,0.260810,-0.305289,-0.434992,-6.402071,-1.126099
955,939412253,0.677322,-0.587385,0.286771,-0.337611,-0.585580,-5.207132,-3.195427
956,939445587,0.665423,-0.559659,0.322263,-0.374360,-1.107977,-4.103016,-3.005527
957,939478921,0.645684,-0.533954,0.360561,-0.409861,-2.334345,-2.519055,-0.434689
958,939512255,0.628390,-0.507923,0.392121,-0.439758,-1.319297,1.037309,0.689713
959,939545589,0.617491,-0.482720,0.411971,-0.464726,-0.023475,2.352813,1.095149
960,939578923,0.610675,-0.466307,0.420054,-0.482901,-0.545476,1.172270,0.538091
961,939612257,0.604960,-0.453447,0.425977,-0.496949,-1.721831,0.980545,-0.625823
962,939645591,0.601000,-0.442118,0.430204,-0.508192,-1.795790,1.143038,-1.623864
963,939678925,0.598935,-0.437311,0.429218,-0.515571,-1.474841,0.230517,-2.002779
964,939712259,0.594783,-0.439262,0.425983,-0.521369,-0.785276,-1.417454,-1.820902
965,939745593,0.584438,-0.444174,0.427232,-0.527844,-0.525476,-2.412036,-1.530546
966,939778927,0.569040,-0.450350,0.436127,-0.532144,-0.607098,-1.227531,-0.615946
967,939812261,0.548576,-0.450562,0.455047,-0.537583,-0.456782,-0.166062,-0.080183
968,939845595,0.523977,-0.452933,0.474438,-0.543336,-0.946718,0.008053,0.287251
969,939878929,0.497382,-0.458077,0.491867,-0.548497,0.226974,2.929408,4.495150
970,939912263,0.477829,-0.445612,0.511491,-0.558114,5.327169,4.757452,5.290648
971,939945597,0.474697,-0.450556,0.508602,-0.559456,-0.000959,1.984628,-0.099085
972,939978931,0.477046,-0.480687,0.491332,-0.547691,-5.244300,-3.981222,-4.004457
973,940012265,0.468596,-0.500222,0.488279,-0.540170,-2.609622,-3.822293,-0.846768
974,940045599,0.453065,-0.509352,0.496906,-0.537012,-2.639184,-0.967878,0.507956
975,940078933,0.431592,-0.507175,0.514326,-0.540347,-0.767272,-0.917137,0.459715
976,940112267,0.410165,-0.504022,0.528521,-0.546257,0.409713,-1.279492,0.381494
977,940145601,0.394357,-0.502933,0.536929,-0.550685,1.247051,-0.538971,0.321085
978,940178935,0.382974,-0.500992,0.542852,-0.554666,2.027132,-0.523123,0.162501
979,940212269,0.375777,-0.500365,0.545609,-0.557443,1.034021,-0.627716,0.119265
980,940245603,0.371503,-0.503569,0.545393,-0.557633,-0.562374,-0.237839,-0.257582
981,940278937,0.366369,-0.507213,0.546639,-0.556506,-1.385963,0.173567,-0.374506
982,940312271,0.358260,-0.507738,0.551958,-0.556057,-1.055045,-0.297225,0.164638
983,940345605,0.347720,-0.507358,0.558478,-0.556584,-0.323713,0.000521,0.395496
984,940378939,0.336896,-0.508976,0.564258,-0.555935,0.105304,0.079871,-0.069718
985,940412273,0.327487,-0.512560,0.569280,-0.553136,0.501632,-0.097894,-0.074038
986,940445607,0.320009,-0.519471,0.573512,-0.546656,0.047919,-0.432574,0.321004
987,940478941,0.312968,-0.526376,0.577672,-0.539704,0.519148,-0.395197,0.230091
988,940512275,0.307689,-0.534035,0.580380,-0.532258,1.104248,-0.063530,0.050479
989,940545609,0.304297,-0.543709,0.581635,-0.522962,1.147211,-0.294591,-0.113714
990,940578943,0.302746,-0.555130,0.581680,-0.511692,1.171961,-0.219522,0.033421
991,940612277,0.302496,-0.565225,0.581740,-0.500600,1.857854,-0.129955,-0.094114
992,940645611,0.302117,-0.572130,0.583591,-0.490734,2.307250,-1.324678,0.275491
993,940678945,0.298757,-0.573454,0.588676,-0.485140,2.308652,-3.164098,2.018467
994,940712279,0.295782,-0.567714,0.592621,-0.488896,4.317356,-0.671370,1.965465
995,940745613,0.301930,-0.552879,0.592723,-0.501844,5.014032,2.706284,0.224449
996,940778947,0.319149,-0.531543,0.592640,-0.514188,3.815202,5.160097,-1.881164
997,940812281,0.351947,-0.517013,0.585683,-0.515569,3.291464,3.075629,-1.180340
998,940845615,0.394971,-0.513331,0.566933,-0.509001,-0.450960,-0.828455,2.413775
999,940878949,0.428644,-0.511405,0.546952,-0.505547,-4.766833,-4.322820,3.743436
1000,940912283,0.444082,-0.496486,0.537956,-0.516625,-4.871112,-5.112203,0.791576
1001,940945617,0.443256,-0.468887,0.542009,-0.538425,-4.162257,-4.157279,0.628543
1002,940978951,0.433024,-0.437886,0.551465,-0.562705,-3.601015,-2.922992,-0.188537
1003,941012285,0.415248,-0.407154,0.562662,-0.587547,-4.052557,-3.072429,-1.897337
1004,941045619,0.385891,-0.372845,0.581327,-0.611669,-3.998875,-2.131025,-1.745610
1005,941078953,0.348085,-0.333744,0.602261,-0.636191,-2.080040,-0.726834,-0.139006
1006,941112287,0.313445,-0.293152,0.616933,-0.659706,0.666661,0.106643,0.436158
1007,941145621,0.285159,-0.256180,0.624622,-0.680374,1.336768,0.524607,1.281772
1008,941178955,0.262024,-0.226248,0.626803,-0.698053,0.621821,1.213479,0.548418
1009,941212289,0.244245,-0.200515,0.626699,-0.712314,0.628258,2.113863,-0.181525
1010,941245623,0.232071,-0.178785,0.624307,-0.724171,1.265011,2.533287,-0.735240
1011,941278957,0.226494,-0.166307,0.618781,-0.733592,0.164964,1.657639,-0.769262
1012,941312291,0.220067,-0.162761,0.613297,-0.740913,-1.548321,1.024662,-1.580298
1013,941345625,0.206639,-0.161115,0.612509,-0.745775,-2.242031,0.298607,-2.534853
1014,941378959,0.192028,-0.160061,0.616573,-0.746557,-1.094881,-0.712827,-1.724924
1015,941412293,0.175670,-0.157671,0.627696,-0.741810,-0.341656,0.179271,-0.797756
1016,941445627,0.150062,-0.147447,0.645367,-0.734335,-0.256364,-0.435329,0.519115
1017,941478961,0.124965,-0.141571,0.662102,-0.725236,0.138871,1.740614,0.188790
1018,941512295,0.104388,-0.144617,0.682297,-0.708989,1.213879,2.471317,5.530099
1019,941545629,0.091901,-0.141220,0.692671,-0.701301,5.517256,0.312540,3.579159
1020,941578963,0.084361,-0.154421,0.704803,-0.687237,-1.284921,2.555777,-4.541199
1021,941612297,0.085903,-0.182563,0.718877,-0.665215,-4.930541,-0.839811,-0.452227
1022,941645631,0.083225,-0.196859,0.728748,-0.650578,-2.652090,0.047089,-1.051543
1023,941678965,0.076094,-0.200977,0.740344,-0.636956,-2.223213,-0.298562,1.648520
1024,941712299,0.061940,-0.193585,0.749067,-0.630549,-1.436589,-0.495753,1.133281
1025,941745633,0.044305,-0.185845,0.755810,-0.626302,-0.453210,-1.797002,0.455453
1026,941778967,0.032938,-0.181970,0.760131,-0.622903,1.279704,-2.353676,0.243546
1027,941812301,0.029896,-0.185451,0.762096,-0.619620,0.844364,-1.186085,-0.051359
1028,941845635,0.030522,-0.191225,0.763241,-0.616417,-0.271189,0.615465,-0.348972
1029,941878969,0.029719,-0.194828,0.764733,-0.613471,-0.676834,1.109655,-0.439540
1030,941912303,0.027207,-0.197338,0.768289,-0.608321,-1.611425,0.372852,-0.045687
1031,941945637,0.021422,-0.197804,0.772901,-0.602531,-0.969660,-0.277937,0.393278
1032,941978971,0.016028,-0.197521,0.777279,-0.597135,0.870753,-0.913443,-0.279377
1033,942012305,0.013769,-0.198596,0.781640,-0.591113,0.931547,-1.451912,0.000288
1034,942045639,0.013324,-0.201430,0.785244,-0.585360,1.005370,-1.560367,0.011034
1035,942078973,0.015319,-0.205628,0.788214,-0.579833,0.701363,-1.665355,-0.293375
1036,942112307,0.017876,-0.208689,0.790777,-0.575158,0.110066,-1.686141,-0.371135
1037,942145641,0.020084,-0.210603,0.793203,-0.571031,0.114066,-1.612636,0.044663
1038,942178975,0.024692,-0.214498,0.795510,-0.566172,-0.316702,-0.887321,0.442594
1039,942212309,0.030405,-0.218167,0.797854,-0.561170,-1.012348,-1.221192,1.376383
1040,942245643,0.034204,-0.218195,0.799562,-0.558505,-0.224593,-2.114206,1.431546
1041,942278977,0.035931,-0.215852,0.798884,-0.560274,1.114389,-2.926022,1.314176
1042,942312311,0.039167,-0.210793,0.792254,-0.571290,3.542041,-2.410243,-0.081672
1043,942345645,0.049568,-0.201008,0.782283,-0.587518,5.354157,-0.243102,-1.054902
1044,942378979,0.072124,-0.191659,0.768663,-0.605992,4.323838,-0.736347,-1.003907
1045,942412313,0.108033,-0.192148,0.750712,-0.622772,1.088205,-0.079774,0.829709
1046,942445647,0.143352,-0.198253,0.729452,-0.638789,-3.398382,1.237295,2.812904
1047,942478981,0.161322,-0.196818,0.707977,-0.658796,-6.680170,1.281274,2.144271
1048,942512315,0.154297,-0.181678,0.691538,-0.681885,-6.829855,0.997852,1.243770
1049,942545649,0.130315,-0.151208,0.680546,-0.704994,-5.363114,1.018369,-0.361215
1050,942578983,0.100625,-0.116570,0.673974,-0.722530,-4.842828,1.917321,-1.254001
1051,942612317,0.063655,-0.079685,0.672006,-0.733493,-4.197327,2.264910,-2.486236
1052,942645651,0.019247,-0.037081,0.673408,-0.738093,-2.648046,1.896947,-0.703561
1053,942678985,-0.024472,0.006612,0.672592,-0.739583,1.413563,0.108794,0.372835
1054,942712319,-0.062730,0.047264,0.664847,-0.742842,2.843850,-1.089464,1.051829
1055,942745653,-0.094900,0.082447,0.653639,-0.746296,1.837810,-0.815155,1.018912
1056,942778987,-0.118020,0.109707,0.640859,-0.750560,1.603273,-0.184819,0.885891
1057,942812321,-0.134321,0.127668,0.627571,-0.756186,1.528594,0.692400,0.168290
1058,942845655,-0.145057,0.135867,0.614983,-0.763085,1.031435,1.468203,-0.759491
1059,942878989,-0.153554,0.136158,0.605928,-0.768595,0.062177,2.238701,-1.637636
1060,942912323,-0.161408,0.131466,0.602834,-0.770234,-0.171759,2.738199,-2.826830
1061,942945657,-0.168149,0.126053,0.605736,-0.767415,0.123343,2.487499,-2.922752
1062,942978991,-0.175516,0.124461,0.612105,-0.760945,-0.170901,1.747667,-1.812315
1063,943012325,-0.186807,0.129470,0.622208,-0.749135,-0.047675,0.755791,-0.467378
1064,943045659,-0.198985,0.135404,0.633826,-0.735079,-0.247329,-1.410510,1.571393
1065,943078993,-0.211021,0.137502,0.643532,-0.722797,-0.341964,-3.095103,1.793361
1066,943112327,-0.222966,0.142334,0.654518,-0.708264,1.529613,0.748742,0.097710
1067,943145661,-0.230723,0.151970,0.669376,-0.689647,3.542270,-1.560377,3.332746
1068,943178995,-0.244510,0.173134,0.671744,-0.677499,0.219653,-1.717816,4.227544
1069,943212329,-0.264320,0.186813,0.682531,-0.655280,-1.694839,1.737777,-1.290740
1070,943245663,-0.259058,0.168094,0.700664,-0.643202,-0.253546,3.875016,-4.266399
1071,943278997,-0.254017,0.165227,0.717754,-0.626905,0.901674,1.548432,0.065457
1072,943312331,-0.260663,0.176132,0.727971,-0.609176,-0.226261,1.028007,1.936739
1073,943345665,-0.270626,0.184293,0.732828,-0.596461,-1.180345,0.231990,0.844030
1074,943378999,-0.276271,0.184610,0.738306,-0.586943,-0.727175,-0.006491,-0.023479
1075,943412333,-0.277173,0.181934,0.743607,-0.580627,-0.501999,-0.238543,0.104828
1076,943445667,-0.275915,0.177044,0.749224,-0.575496,-0.485060,-0.707278,0.092787
1077,943479001,-0.272767,0.167968,0.755350,-0.571696,-0.006789,-0.258959,-0.102076
1078,943512335,-0.269285,0.159754,0.761343,-0.567737,-0.132507,1.215508,-0.645071
1079,943545669,-0.266763,0.156730,0.767181,-0.561882,-0.196677,1.341339,0.012071
1080,943579003,-0.267277,0.156913,0.772167,-0.554711,-0.189931,-0.151823,0.361603
1081,943612337,-0.268105,0.155586,0.777306,-0.547460,0.052984,-1.607717,-0.183427
1082,943645671,-0.266852,0.153151,0.783000,-0.540602,-0.389233,-1.359738,-0.126084
1083,943679005,-0.263775,0.149546,0.789166,-0.534117,-0.743604,-0.951228,0.176839
1084,943712339,-0.260764,0.146152,0.794907,-0.527987,-0.909269,-0.689942,0.205711
1085,943745673,-0.258031,0.143069,0.799764,-0.522813,-0.668247,-1.179336,-0.141772
1086,943779007,-0.254738,0.138343,0.805150,-0.517406,-0.163996,-1.631637,-0.226909
1087,943812341,-0.248392,0.130006,0.811540,-0.512648,-0.491194,-1.270914,-0.368718
1088,943845675,-0.239558,0.120747,0.818129,-0.508628,-1.516548,-1.000304,-0.207532
1089,943879009,-0.229542,0.112146,0.824375,-0.505118,-2.139834,-1.091294,1.334267
1090,943912343,-0.221759,0.105384,0.827319,-0.505238,-0.791481,-3.065333,3.305775
1091,943945677,-0.217069,0.100488,0.823591,-0.514283,-0.244890,-4.095714,0.914857
1092,943979011,-0.213472,0.100030,0.812063,-0.533838,-0.007403,-3.678159,-1.070217
1093,944012345,-0.209381,0.105864,0.796458,-0.557327,3.643678,-2.975281,-1.727324
1094,944045679,-0.199885,0.110376,0.780464,-0.582018,1.811389,-2.235511,-0.591728
1095,944079013,-0.183862,0.108918,0.763615,-0.609285,-0.404092,-0.437023,1.033084
1096,944112347,-0.169604,0.106562,0.744855,-0.636455,-1.659087,3.383038,3.299504
1097,944145681,-0.169889,0.112394,0.722141,-0.661077,-2.318834,4.558883,2.511865
1098,944179015,-0.181763,0.124629,0.699097,-0.680220,-1.189829,3.377332,2.331388
1099,944212349,-0.198197,0.133361,0.675891,-0.697216,-0.840277,3.346244,0.894523
1100,944245683,-0.217166,0.139937,0.654692,-0.710380,-1.474584,4.235608,-0.687527
1101,944279017,-0.245246,0.159189,0.633846,-0.716071,-0.597209,3.479591,-1.977746
1102,944312351,-0.272669,0.186219,0.614475,-0.716519,0.304808,1.649575,-1.320090
1103,944345685,-0.294246,0.213449,0.597353,-0.714866,1.982584,-0.061965,-0.766302
1104,944379019,-0.311408,0.233996,0.583025,-0.712992,2.532658,-1.151810,-0.835880
1105,944412353,-0.321906,0.244583,0.573448,-0.712543,2.584766,-1.571276,-1.085354
1106,944445687,-0.325149,0.246616,0.569396,-0.713619,2.322044,-0.947327,-1.187260
1107,944479021,-0.323416,0.240566,0.569948,-0.716027,1.912741,-0.208653,-1.367068
1108,944512355,-0.318189,0.226038,0.575649,-0.718538,0.904992,0.223983,-1.344671
1109,944545689,-0.311466,0.203437,0.584744,-0.720890,-0.727788,0.124412,-0.355408
1110,944579023,-0.307010,0.175911,0.594995,-0.721656,-2.888971,0.506903,0.625870
1111,944612357,-0.305240,0.151400,0.608177,-0.716961,-2.316531,0.724534,-0.964808
1112,944645691,-0.308357,0.155851,0.623385,-0.701443,-0.529853,3.638003,-1.885031
1113,944679025,-0.314469,0.195063,0.640596,-0.672832,4.265252,1.015774,4.827925
1114,944712359,-0.340974,0.246868,0.636140,-0.646625,0.403436,0.142886,7.269505
1115,944745693,-0.372436,0.273690,0.636263,-0.617705,-0.991392,-4.196219,-3.571150
1116,944779027,-0.357184,0.248671,0.661897,-0.610311,1.724655,-1.185314,-2.881513
1117,944812361,-0.347184,0.239717,0.681196,-0.598312,1.098107,0.315978,0.522532
1118,944845695,-0.347829,0.241674,0.694173,-0.582012,-0.435244,3.719469,1.236233
1119,944879029,-0.349374,0.241922,0.702828,-0.570482,-0.831845,2.456640,0.313668
1120,944912363,-0.353123,0.243563,0.709182,-0.559506,0.290484,1.257136,-0.249090
1121,944945697,-0.353504,0.243873,0.715714,-0.550744,0.217569,-0.866398,0.186820
1122,944979031,-0.348256,0.234961,0.725104,-0.545656,-0.377057,-1.761703,0.466537
1123,945012365,-0.337529,0.215658,0.736669,-0.544876,-0.516023,-0.616904,-0.349858
1124,945045699,-0.325038,0.196742,0.747438,-0.544964,0.011491,1.465751,-0.179914
1125,945079033,-0.316121,0.185570,0.754666,-0.544165,0.092319,2.045238,0.289216
1126,945112367,-0.311682,0.180605,0.759563,-0.541578,0.742116,0.358670,0.009734
1127,945145701,-0.306992,0.172901,0.765733,-0.538070,0.512791,-0.939050,-0.113796
1128,945179035,-0.298317,0.162444,0.773630,-0.534903,0.041097,-1.192658,-0.299671
1129,945212369,-0.288525,0.152092,0.781930,-0.531237,-0.474955,-1.529526,0.153914
1130,945245703,-0.278298,0.141791,0.789743,-0.527974,-1.350405,-1.494499,-0.070138
1131,945279037,-0.267570,0.131587,0.797739,-0.524126,-1.609188,-1.269323,-0.078662
1132,945312371,-0.258700,0.123312,0.804867,-0.519677,-1.269022,-1.555862,-0.077114
1133,945345705,-0.252405,0.116644,0.810701,-0.515223,-0.770344,-1.814330,-0.458891
1134,945379039,-0.246795,0.110070,0.815913,-0.511143,-1.602698,-0.567289,0.165974
1135,945412373,-0.241134,0.103765,0.820984,-0.507029,-1.115766,-0.346759,1.897090
1136,945445707,-0.237146,0.098119,0.822909,-0.506912,0.085538,-3.044559,1.807288
1137,945479041,-0.231027,0.092208,0.821384,-0.513282,-0.400426,-4.176414,1.124907
1138,945512375,-0.222853,0.085232,0.814760,-0.528435,-0.628453,-4.070808,0.504632
1139,945545709,-0.213629,0.082193,0.802238,-0.551386,5.154550,-3.945907,-1.563061
1140,945579043,-0.196662,0.080321,0.785116,-0.581782,3.050699,-3.296536,-1.711639
1141,945612377,-0.167547,0.069865,0.766585,-0.615955,1.751452,-1.117507,0.851886
1142,945645711,-0.134670,0.050493,0.748089,-0.647829,0.681532,3.480381,4.364065
1143,945679045,-0.114915,0.034318,0.726192,-0.676955,-1.715417,5.245162,2.930291
1144,945712379,-0.112862,0.030482,0.703208,-0.701311,-2.223837,4.151745,1.697057
1145,945745713,-0.118966,0.034535,0.680933,-0.721796,-1.585328,4.236570,0.820818
1146,945779047,-0.137881,0.050109,0.659707,-0.737069,-1.723964,4.536636,-0.735648
1147,945812381,-0.165430,0.080235,0.639345,-0.746618,-1.148923,3.577737,-1.681475
1148,945845715,-0.188059,0.114771,0.623789,-0.749903,0.332289,1.932692,-2.307043
1149,945879049,-0.201656,0.140719,0.616491,-0.747983,1.862418,0.703711,-1.831717
1150,945912383,-0.211480,0.157643,0.611438,-0.746039,2.598980,-0.548026,-1.919048
1151,945945717,-0.215418,0.160868,0.609629,-0.745704,2.672739,-0.878134,-1.872479
1152,945979051,-0.209772,0.148812,0.613580,-0.746576,2.789682,-1.424780,-0.807014
1153,946012385,-0.201317,0.135400,0.617050,-0.748594,0.550826,-1.172721,-0.680139
1154,946045719,-0.198683,0.127540,0.617951,-0.749933,-2.966048,-1.992169,1.722697
1155,946079053,-0.207125,0.124984,0.614285,-0.751091,-2.952312,-2.353600,1.750483
1156,946112387,-0.213220,0.123958,0.615805,-0.748306,-0.644003,1.191580,-1.394715
1157,946145721,-0.222591,0.132962,0.625330,-0.736031,-0.200758,4.053893,-1.916237
1158,946179055,-0.239684,0.152989,0.642568,-0.711518,3.679656,1.635804,2.785232
1159,946212389,-0.250227,0.178774,0.650827,-0.694159,3.477269,-1.663964,4.076730
1160,946245723,-0.263884,0.200422,0.654559,-0.679525,3.464923,-0.770703,1.466458
1161,946279057,-0.285563,0.208302,0.667858,-0.655008,-2.341920,2.143595,-1.826778
1162,946312391,-0.274000,0.173432,0.688176,-0.649049,0.216750,0.477404,-2.820136
1163,946345725,-0.252089,0.147297,0.711305,-0.639379,0.317662,4.375701,-0.599689
1164,946379059,-0.253331,0.152161,0.726695,-0.620154,-2.020345,3.974844,1.319333
1165,946412393,-0.262858,0.160256,0.732417,-0.607285,-1.267497,-1.004789,1.138748
1166,946445727,-0.266992,0.160204,0.736914,-0.600011,-0.425544,-2.388260,0.228154
1167,946479061,-0.262523,0.149648,0.744439,-0.595401,-0.189373,-0.896392,-0.135665
1168,946512395,-0.254489,0.136880,0.752958,-0.591234,0.053624,-0.002038,0.250624
1169,946545729,-0.248005,0.124690,0.760038,-0.587617,-0.760197,0.924353,0.005467
1170,946579063,-0.246156,0.119376,0.763478,-0.585033,-0.711025,1.523015,-0.340010
1171,946612397,-0.246600,0.119033,0.766422,-0.581053,0.039467,0.640950,0.199912
1172,946645731,-0.246552,0.115044,0.770415,-0.576579,0.866565,-0.491095,-0.108762
1173,946679065,-0.242712,0.107720,0.775868,-0.572296,0.603954,-0.971008,-0.282533
1174,946712399,-0.234670,0.098476,0.782192,-0.568694,-0.187667,-0.992799,0.187460
1175,946745733,-0.226618,0.089129,0.787612,-0.566015,-0.491523,-0.850224,0.176973
1176,946779067,-0.219114,0.080548,0.791641,-0.564633,-0.482284,-0.812530,-0.256441
1177,946812401,-0.211942,0.072649,0.795943,-0.562390,-0.693912,-0.188099,-0.221417
1178,946845735,-0.206421,0.066609,0.800532,-0.558666,-0.622234,-0.221833,-0.296140
1179,946879069,-0.201221,0.061150,0.805151,-0.554534,-0.297134,-0.376122,-0.144723
1180,946912403,-0.195097,0.054487,0.810248,-0.549974,-0.497903,0.049491,0.410456
1181,946945737,-0.188985,0.047463,0.815410,-0.545108,-0.379114,-0.211192,0.529704
1182,946979071,-0.181170,0.040198,0.821127,-0.539739,0.034766,-0.736660,1.010662
1183,947012405,-0.174301,0.034293,0.825880,-0.535136,-0.438120,-1.378150,1.774215
1184,947045739,-0.167866,0.031161,0.827982,-0.534136,0.578804,-2.923089,1.492789
1185,947079073,-0.158770,0.027329,0.827038,-0.538570,0.683466,-3.321201,0.536303
1186,947112407,-0.150042,0.026232,0.821843,-0.548981,0.840737,-4.003407,-0.660917
1187,947145741,-0.140079,0.029202,0.810527,-0.567958,3.831400,-3.619903,-1.642282
1188,947179075,-0.122451,0.030942,0.796785,-0.590921,2.281181,-2.502366,-0.294631
1189,947212409,-0.094862,0.026181,0.780229,-0.617709,0.330533,-0.689949,1.219394
1190,947245743,-0.069037,0.018551,0.762652,-0.642851,-1.442699,2.458352,2.684822
1191,947279077,-0.055701,0.016606,0.744158,-0.665475,-2.768595,3.563446,1.905716
1192,947312411,-0.056517,0.022771,0.726323,-0.684651,-2.789302,3.320924,1.445039
1193,947345745,-0.069683,0.035641,0.707591,-0.702278,-2.903328,3.243906,0.327214
1194,947379079,-0.091683,0.056467,0.690159,-0.715605,-2.555274,3.634786,-0.893971
1195,947412413,-0.121697,0.087211,0.674201,-0.723217,-1.775219,3.732421,-0.778334
1196,947445747,-0.156440,0.124251,0.657286,-0.726684,-0.104543,2.157742,-0.816176
1197,947479081,-0.186016,0.157818,0.640804,-0.727920,0.894300,0.579928,-0.320941
1198,947512415,-0.207102,0.181831,0.626371,-0.729185,2.271706,-0.048156,-0.618103
1199,947545749,-0.220373,0.195374,0.614612,-0.731794,2.747572,-0.585690,-0.074202
1200,947579083,-0.229474,0.203486,0.605722,-0.734194,1.872389,0.193727,-0.034006
1201,947612417,-0.233761,0.203761,0.601663,-0.736101,1.968950,0.836537,-1.062999
1202,947645751,-0.236923,0.205097,0.600033,-0.736049,1.106538,0.934552,-1.324906
1203,947679085,-0.244361,0.214181,0.597706,-0.732917,-0.870567,0.203236,-0.879964
1204,947712419,-0.254861,0.227776,0.595000,-0.727423,-0.806790,0.017177,-0.809241
1205,947745753,-0.264889,0.240853,0.596663,-0.718208,-0.342264,0.340307,-0.496256
1206,947779087,-0.274722,0.252539,0.602350,-0.705643,0.770447,0.343842,-0.762815
1207,947812421,-0.281738,0.259212,0.614917,-0.689431,2.673137,1.374939,-0.112465
1208,947845755,-0.285252,0.261581,0.633102,-0.670368,1.515625,-0.705142,3.177734
1209,947879089,-0.291125,0.264303,0.642957,-0.657269,1.279188,-4.398985,2.785837
1210,947912423,-0.293054,0.262834,0.657312,-0.642638,1.362103,-0.158658,0.446169
1211,947945757,-0.294145,0.257714,0.676696,-0.623818,-1.448382,1.923049,0.105899
1212,947979091,-0.282493,0.236278,0.696683,-0.615637,-0.736419,1.069705,-0.797071
1213,948012425,-0.274959,0.225038,0.709970,-0.608033,-1.255125,1.864353,-0.077572
1214,948045759,-0.275403,0.224592,0.717508,-0.599082,-0.265522,2.314751,-0.206833
1215,948079093,-0.281686,0.231204,0.722570,-0.587449,0.265694,1.663252,-0.068969
1216,948112427,-0.289032,0.236756,0.726029,-0.577316,-0.310892,1.224584,-0.032454
1217,948145761,-0.295352,0.242328,0.728529,-0.568591,-1.071744,1.182108,0.713894
1218,948179095,-0.301524,0.247128,0.729157,-0.562447,-0.568475,-0.999200,0.799448
1219,948212429,-0.303538,0.244751,0.731035,-0.559960,-0.120333,-2.066813,0.095477
1220,948245763,-0.299705,0.236658,0.735064,-0.560229,0.339350,0.131985,-0.774253
1221,948279097,-0.295489,0.229976,0.739633,-0.559237,-0.034059,1.986142,-0.211602
1222,948312431,-0.296558,0.229739,0.742566,-0.554865,-0.110637,1.733691,-0.105846
1223,948345765,-0.300343,0.233774,0.744895,-0.547980,-0.755679,-0.009890,0.235785
1224,948379099,-0.304398,0.238266,0.746920,-0.541007,-0.666655,-1.116973,-0.012583
1225,948412433,-0.305948,0.241023,0.749369,-0.535496,-0.372108,-1.288429,-0.053133
1226,948445767,-0.305143,0.241985,0.752612,-0.530953,-0.474432,-0.674008,0.136383
1227,948479101,-0.304935,0.242970,0.755192,-0.526946,-0.814180,0.048203,0.198927
1228,948512435,-0.306256,0.244609,0.756999,-0.522811,-0.529599,0.089099,0.131876
1229,948545769,-0.306140,0.244812,0.759586,-0.519018,-0.033882,-0.198284,-0.303212
1230,948579103,-0.303633,0.243164,0.763901,-0.514916,-0.206052,-0.723163,-0.114756
1231,948612437,-0.298667,0.239642,0.769353,-0.511342,-0.421678,-0.890445,-0.288320
1232,948645771,-0.292954,0.236779,0.775260,-0.507042,-1.420422,-0.205946,-0.014170
1233,948679105,-0.290351,0.236220,0.780124,-0.501307,-1.785091,0.701777,0.604912
1234,948712439,-0.291363,0.236507,0.782683,-0.496573,-1.436042,0.064881,0.739765
1235,948745773,-0.293684,0.236019,0.783734,-0.493772,-1.166181,-0.524630,1.583755
1236,948779107,-0.295916,0.235904,0.782529,-0.494406,0.117262,-1.885405,1.513058
1237,948812441,-0.296619,0.237497,0.777815,-0.500621,0.621550,-3.946232,-0.160161
1238,948845775,-0.294737,0.241214,0.769554,-0.512579,0.282263,-4.529132,-1.203873
1239,948879109,-0.286180,0.244873,0.759806,-0.529942,2.092359,-3.886137,-0.967282
1240,948912443,-0.272709,0.246318,0.746718,-0.554415,-0.997941,-1.835216,0.019908
1241,948945777,-0.260698,0.249703,0.729732,-0.580674,-1.461915,0.451919,1.184963
1242,948979111,-0.256955,0.256080,0.710039,-0.603528,-2.498929,2.909214,2.177577
1243,949012445,-0.259598,0.261661,0.688665,-0.624410,-2.285410,4.012207,1.614779
1244,949045779,-0.269593,0.267829,0.668786,-0.638998,-1.462745,4.804735,1.236761
1245,949079113,-0.287358,0.275587,0.648941,-0.648351,-0.523372,5.070238,1.199183
1246,949112447,-0.314627,0.289935,0.625819,-0.652153,-0.299895,4.352167,-0.692058
1247,949145781,-0.348389,0.315061,0.599731,-0.647835,0.710011,4.077548,-1.348342
1248,949179115,-0.383626,0.345347,0.572098,-0.637398,0.752972,3.432264,-1.552115
1249,949212449,-0.414963,0.373895,0.546396,-0.624071,1.272763,2.320867,-0.782356
1250,949245783,-0.443741,0.400737,0.522134,-0.608182,1.425599,0.750853,0.120866
1251,949279117,-0.472558,0.425223,0.496839,-0.590788,1.044808,-0.679653,0.385468
1252,949312451,-0.498307,0.443109,0.474282,-0.574809,0.637878,-1.182847,-0.253844
1253,949345785,-0.518377,0.456042,0.457081,-0.560708,0.846193,-0.886953,-0.470076
1254,949379119,-0.534209,0.468825,0.441896,-0.547318,1.183565,-1.577788,-0.305853
1255,949412453,-0.546753,0.477242,0.428941,-0.537881,0.922362,-1.867903,-0.196928
1256,949445787,-0.555847,0.477576,0.424713,-0.531582,1.164729,-0.187267,-0.839339
1257,949479121,-0.564264,0.474481,0.427303,-0.523348,1.049281,1.065666,-1.238782
1258,949512455,-0.574116,0.475955,0.430080,-0.508816,1.058552,2.682358,-1.217748
1259,949545789,-0.583701,0.488043,0.431005,-0.485126,0.664384,0.946459,-0.665207
1260,949579123,-0.591568,0.506667,0.427678,-0.458729,-0.843780,0.163153,0.135742
1261,949612457,-0.597653,0.527470,0.424497,-0.429411,-0.771725,-0.687762,-0.522147
1262,949645791,-0.594660,0.543974,0.432189,-0.404587,-0.642765,-6.276407,1.201611
1263,949679125,-0.586953,0.557748,0.434683,-0.394284,-3.582858,-3.118449,7.051754
1264,949712459,-0.587239,0.578566,0.430346,-0.367722,2.291471,1.004077,0.029483
1265,949745793,-0.574953,0.578751,0.455834,-0.355945,2.359610,2.788711,-2.426231
1266,949779127,-0.565549,0.582916,0.467076,-0.349583,-0.258934,0.502146,-0.388391
1267,949812461,-0.557207,0.591001,0.474598,-0.339117,2.621502,0.803420,-0.550137
1268,949845795,-0.554530,0.605348,0.471257,-0.322449,3.186682,0.561873,0.624182
1269,949879129,-0.556038,0.619464,0.465103,-0.301282,0.906201,2.372921,0.698427
1270,949912463,-0.559096,0.630419,0.457833,-0.283511,-0.518964,2.615144,0.610665
1271,949945797,-0.563616,0.639047,0.449275,-0.268538,-1.512774,0.991368,0.843906
1272,949979131,-0.565905,0.642620,0.446388,-0.259874,-1.433113,-0.479977,-0.106162
1273,950012465,-0.564292,0.643448,0.449231,-0.256411,-0.009947,-0.536586,-0.623763
1274,950045799,-0.560859,0.645753,0.452063,-0.253150,2.125055,0.808192,-0.405248
1275,950079133,-0.559843,0.653352,0.448219,-0.242510,1.462263,0.723235,0.423757
1276,950112467,-0.561223,0.662311,0.440980,-0.227848,-0.462664,0.035742,0.115766
1277,950145801,-0.561000,0.669760,0.435656,-0.216588,-1.687507,-0.275138,-0.184557
1278,950179135,-0.557636,0.674682,0.435422,-0.210380,-1.469823,0.175114,-0.062725
1279,950212469,-0.553140,0.677048,0.438442,-0.208365,-0.289898,1.243964,0.171494
1280,950245803,-0.550094,0.678173,0.441007,-0.207356,0.032280,1.044659,-0.039914
1281,950279137,-0.547263,0.679815,0.442716,-0.205822,0.155942,0.526384,-0.097498
1282,950312471,-0.543646,0.682662,0.444262,-0.202631,-0.144134,0.424862,-0.164243
1283,950345805,-0.539413,0.685695,0.446224,-0.199363,-1.032634,0.307001,-0.337667
1284,950379139,-0.534236,0.688641,0.448693,-0.197602,-1.103792,1.661463,-0.028328
1285,950412473,-0.528416,0.691650,0.451791,-0.195672,-0.447586,2.199249,0.901641
1286,950445807,-0.524457,0.693555,0.453869,-0.194769,-0.903318,1.410570,1.561383
1287,950479141,-0.524271,0.692885,0.454041,-0.197236,-2.462896,0.541662,2.217839
1288,950512475,-0.530142,0.690261,0.449155,-0.201877,-2.447454,0.854892,0.553334
1289,950545809,-0.539836,0.687548,0.439044,-0.207608,-2.157365,-0.752887,-0.258317
1290,950579143,-0.549798,0.686135,0.424379,-0.216446,-3.058397,-2.703541,-0.942206
1291,950612477,-0.559011,0.683393,0.408677,-0.231235,-2.574376,-0.832559,-0.699208
1292,950645811,-0.568266,0.678749,0.391208,-0.251665,-0.702406,0.201701,-0.488558
1293,950679145,-0.578037,0.673694,0.372078,-0.271242,1.780023,1.782564,1.139679
1294,950712479,-0.589046,0.669962,0.350277,-0.285457,3.097485,2.860996,1.595150
1295,950745813,-0.602772,0.666228,0.328524,-0.291348,4.690104,1.883256,1.751400
1296,950779147,-0.619715,0.664308,0.305140,-0.285557,5.241676,1.776206,0.803263
1297,950812481,-0.639371,0.665181,0.277091,-0.268263,5.093191,1.547979,-0.546726
1298,950845815,-0.658290,0.670383,0.244123,-0.240105,5.304902,1.110474,-1.481059
1299,950879149,-0.673881,0.681016,0.203451,-0.201778,4.158384,-0.510996,-0.866332
1300,950912483,-0.687985,0.692591,0.152138,-0.154446,1.454374,-1.002575,0.325508
1301,950945817,-0.703556,0.696122,0.095472,-0.106370,-0.373568,0.249555,1.287782
1302,950979151,-0.717246,0.692435,0.044210,-0.064370,-1.997474,0.089448,1.438058
1303,951012485,-0.729622,0.683017,0.005620,-0.033361,-2.358711,0.252285,1.026343
1304,951045819,-0.742681,0.669242,-0.018279,-0.014559,-1.508362,-0.603875,0.511563
1305,951079153,-0.754867,0.655154,-0.030696,-0.003523,-0.708357,-1.303169,-0.419943
1306,951112487,-0.765547,0.642414,-0.035182,0.003077,-0.144998,-2.015040,-0.987777
1307,951145821,-0.773668,0.632551,-0.035126,0.009408,0.229060,-2.344125,-1.895786
1308,951179155,-0.777193,0.628089,-0.034234,0.017564,0.350961,-2.528379,-2.662989
1309,951212489,-0.775476,0.630088,-0.031507,0.025271,0.262055,-2.672285,-3.120472
1310,951245823,-0.769820,0.637057,-0.023228,0.031654,0.754706,-1.986264,-2.206631
1311,951279157,-0.759152,0.649210,-0.015413,0.044530,1.955547,-0.483961,0.252595
1312,951312491,-0.746383,0.662156,-0.010844,0.065950,1.891063,2.697588,2.051821
1313,951345825,-0.734794,0.673262,-0.007212,0.082156,-1.033713,4.897273,1.595075
1314,951379159,-0.719449,0.687622,-0.015697,0.096582,-4.650928,-1.211830,0.617295
1315,951412493,-0.699573,0.706344,-0.030373,0.103727,-3.055362,-1.320614,5.321475
1316,951445827,-0.686704,0.709805,-0.069593,0.140626,1.479573,0.376129,1.967634
1317,951479161,-0.667856,0.724217,-0.065575,0.158693,1.805961,-3.041143,-4.870904
1318,951512495,-0.655582,0.738727,-0.048920,0.148685,0.051358,-0.166755,-1.238512
1319,951545829,-0.638469,0.751817,-0.055746,0.155005,0.942993,-3.064049,1.467935
1320,951579163,-0.627752,0.757039,-0.066347,0.168592,0.932088,0.278068,0.655328
1321,951612497,-0.619221,0.761951,-0.067487,0.177335,0.187719,1.476884,0.115723
1322,951645831,-0.614038,0.767470,-0.057953,0.174914,0.685713,0.979675,-0.149371
1323,951679165,-0.610494,0.772324,-0.046231,0.169353,0.552433,0.215530,0.524709
1324,951712499,-0.608626,0.775440,-0.033575,0.164759,0.157481,0.211926,-0.166692
1325,951745833,-0.606341,0.778407,-0.024477,0.160744,0.668550,-1.211203,-0.474737
1326,951779167,-0.601936,0.782035,-0.022060,0.160041,0.754423,-0.891721,0.109301
1327,951812501,-0.596352,0.785533,-0.023346,0.163594,0.017343,-0.036343,0.041794
1328,951845835,-0.589914,0.789444,-0.024837,0.167836,-0.344427,1.104906,-0.125596
1329,951879169,-0.583566,0.793913,-0.024049,0.169059,-0.241008,1.094553,0.005904
1330,951912503,-0.577354,0.798452,-0.022272,0.169251,0.492438,0.900502,0.106224
1331,951945837,-0.571994,0.802400,-0.020362,0.169024,0.721797,0.805014,0.111667
1332,951979171,-0.567040,0.805983,-0.018753,0.168851,0.354244,0.835615,-0.198251
1333,952012505,-0.561955,0.809543,-0.016830,0.169022,0.555846,0.725313,-0.114372
1334,952045839,-0.556103,0.813615,-0.015027,0.168996,0.580949,0.441134,-0.211431
1335,952079173,-0.549622,0.818329,-0.012872,0.167610,1.050457,0.038082,-0.123211
1336,952112507,-0.541549,0.823771,-0.011850,0.167304,1.210935,0.074348,0.814495
1337,952145841,-0.533515,0.828894,-0.012158,0.167792,-0.297644,1.367100,0.893782
1338,952179175,-0.526738,0.833443,-0.013405,0.166569,0.082183,2.253122,1.542016
1339,952212509,-0.523482,0.835782,-0.013546,0.165098,0.263920,2.665181,1.163069
1340,952245843,-0.526311,0.834418,-0.013382,0.163001,0.220144,3.001544,0.352421
1341,952279177,-0.536338,0.828965,-0.013228,0.158080,-0.513005,3.260667,-0.780487
1342,952312511,-0.553828,0.819119,-0.013266,0.148822,-3.019057,3.186627,-1.468792
1343,952345845,-0.575644,0.806385,-0.014660,0.134786,-3.008619,2.729787,-1.100765
1344,952379179,-0.600235,0.791740,-0.012134,0.112805,-1.297250,1.517602,0.450300
1345,952412513,-0.625869,0.774694,-0.008084,0.089870,1.063021,-0.195492,2.536354
1346,952445847,-0.650401,0.755635,-0.007993,0.077050,2.377231,-2.337451,2.460124
1347,952479181,-0.672188,0.736228,-0.015717,0.076742,2.518824,-3.094269,2.184119
1348,952512515,-0.690368,0.717330,-0.029559,0.089227,2.404678,-2.922855,1.476151
1349,952545849,-0.705258,0.698880,-0.047386,0.109262,1.639530,-3.289933,0.024004
1350,952579183,-0.716466,0.681257,-0.068864,0.133521,1.680627,-3.240773,-1.460598
1351,952612517,-0.722513,0.664634,-0.099036,0.162586,0.985644,-2.989948,-1.044372
1352,952645851,-0.724449,0.649087,-0.131941,0.190937,-0.453830,-1.284587,0.048319
1353,952679185,-0.726375,0.634589,-0.156540,0.212550,-1.814584,0.003082,0.016425
1354,952712519,-0.728228,0.622907,-0.172892,0.227562,-2.736995,0.293969,-0.542080
1355,952745853,-0.730804,0.615127,-0.179546,0.235188,-2.952066,0.186458,-1.304160
1356,952779187,-0.733391,0.611221,-0.180415,0.236648,-2.353937,-0.258431,-1.129570
1357,952812521,-0.736642,0.609475,-0.176131,0.234267,-1.640508,-0.422419,-0.918152
1358,952845855,-0.739697,0.609967,-0.166810,0.230151,-0.305364,0.096538,-0.693040
1359,952879189,-0.742048,0.610565,-0.153877,0.230005,2.707538,-0.486816,-0.307192
1360,952912523,-0.740228,0.612662,-0.144744,0.236141,2.040960,0.330115,-0.706630
1361,952945857,-0.736484,0.616913,-0.141601,0.238673,0.556128,1.804536,-0.464636
1362,952979191,-0.727601,0.626674,-0.143783,0.239182,-0.692236,-0.792544,-1.723326
1363,953012525,-0.708411,0.643970,-0.151744,0.245837,-2.055692,-2.662236,1.194606
1364,953045859,-0.689570,0.656559,-0.165725,0.256835,0.775857,2.113011,6.634750
1365,953079193,-0.680989,0.659689,-0.177627,0.263663,-3.564248,4.248359,1.939131
1366,953112527,-0.667618,0.674111,-0.173403,0.264194,-1.225984,-2.128966,-0.783957
1367,953145861,-0.650435,0.690877,-0.164589,0.269331,2.586956,-3.584668,-2.262949
1368,953179195,-0.637827,0.708027,-0.150743,0.262976,0.572176,-4.314409,-1.251184
1369,953212529,-0.621623,0.720782,-0.153773,0.265364,0.260344,-2.116028,0.993224
1370,953245863,-0.609364,0.729337,-0.157073,0.268472,1.533247,-1.069017,0.866783
1371,953279197,-0.601187,0.733711,-0.158987,0.273808,0.791896,1.297595,0.630156
1372,953312531,-0.596517,0.739257,-0.151993,0.273074,-0.685832,2.327101,-0.229701
1373,953345865,-0.594616,0.748099,-0.133940,0.262385,-1.022378,0.476986,-0.430653
1374,953379199,-0.593024,0.756764,-0.114889,0.249875,-0.004415,-2.217664,0.016167
1375,953412533,-0.589438,0.763160,-0.103871,0.243650,0.446993,-2.400931,0.127088
1376,953445867,-0.582712,0.768647,-0.101635,0.243526,0.361529,-0.795471,-0.054420
1377,953479201,-0.574711,0.774276,-0.100683,0.245095,0.032869,1.360461,0.108760
1378,953512535,-0.568613,0.779634,-0.096807,0.243892,-0.200760,2.708795,-0.042862
1379,953545869,-0.564063,0.785999,-0.087566,0.237435,0.161045,1.559584,0.028410
1380,953579203,-0.560420,0.792231,-0.077212,0.228788,0.482491,1.148097,0.038216
1381,953612537,-0.557021,0.797240,-0.069763,0.221977,0.940524,0.856131,0.000181
1382,953645871,-0.553227,0.801153,-0.065550,0.218639,1.055355,0.903370,-0.270473
1383,953679205,-0.548980,0.805273,-0.060750,0.215573,0.413409,0.644737,-0.055406
1384,953712539,-0.546396,0.808787,-0.053253,0.210914,-0.036878,0.513581,-0.280187
1385,953745873,-0.543551,0.813521,-0.043281,0.202160,0.363083,0.212215,0.370738
1386,953779207,-0.539735,0.819230,-0.032404,0.191059,-0.350009,0.226565,0.642883
1387,953812541,-0.536420,0.824270,-0.023445,0.179691,0.202908,0.877716,1.444440
1388,953845875,-0.535163,0.827198,-0.016474,0.170524,0.400809,1.705316,1.467778
1389,953879209,-0.537310,0.827416,-0.010182,0.163041,0.353792,2.670058,0.785788
1390,953912543,-0.545361,0.823846,-0.003561,0.154439,-0.199508,3.762589,-0.395126
1391,953945877,-0.561384,0.815209,0.001508,0.142426,-3.294637,3.516413,-1.196157
1392,953979211,-0.583475,0.802308,0.002921,0.125921,-3.970574,3.182981,-0.904525
1393,954012545,-0.610326,0.785721,0.006414,0.100539,-1.979166,2.073111,0.359637
1394,954045879,-0.639148,0.765758,0.014531,0.069985,-0.357175,-0.317645,2.065949
1395,954079213,-0.665792,0.744428,0.025418,0.043676,1.494064,-3.121787,3.175277
1396,954112547,-0.689937,0.722482,0.030017,0.033330,3.006217,-4.100128,2.201401
1397,954145881,-0.711806,0.700934,0.022381,0.039083,2.950157,-3.438229,1.351079
1398,954179215,-0.731115,0.680213,0.006967,0.052331,2.517470,-3.376997,-0.022499
1399,954212549,-0.745316,0.662567,-0.015199,0.072687,2.229990,-3.218362,-1.126838
1400,954245883,-0.753742,0.648298,-0.044327,0.098099,1.599049,-2.889099,-1.677499
1401,954279217,-0.756257,0.638526,-0.074812,0.121523,-0.346609,-1.931302,-1.392233
1402,954312551,-0.756829,0.630936,-0.099447,0.138728,-2.574287,-0.187853,-1.158049
1403,954345885,-0.758719,0.623157,-0.116437,0.149896,-3.335723,1.409314,-0.889468
1404,954379219,-0.761293,0.618183,-0.121715,0.153210,-2.619473,1.124773,-0.379510
1405,954412553,-0.764129,0.616063,-0.118002,0.150512,-1.955549,-0.214029,-0.687969
1406,954445887,-0.766303,0.614222,-0.114836,0.149430,-0.258598,-0.512559,-0.470696
1407,954479221,-0.767919,0.612673,-0.109908,0.151190,1.204964,-0.175770,-0.027170
1408,954512555,-0.768166,0.612351,-0.103619,0.155617,1.711652,-0.235183,-0.509712
1409,954545889,-0.763828,0.616247,-0.103174,0.161762,0.927201,-1.239353,-1.520180
1410,954579223,-0.752735,0.626191,-0.109535,0.171122,0.278468,-1.532391,-1.661144
1411,954612557,-0.733539,0.642123,-0.120328,0.187417,-0.116860,-2.750311,-0.335021
1412,954645891,-0.708404,0.660654,-0.136675,0.207425,-3.903493,1.029599,3.297570
1413,954679225,-0.694003,0.667886,-0.156662,0.218518,-2.993033,5.441160,4.854839
1414,954712559,-0.683268,0.674637,-0.164984,0.225378,-3.702822,2.164019,0.995616
1415,954745893,-0.668345,0.689043,-0.156598,0.232414,4.673109,-2.850643,0.211160
1416,954779227,-0.661837,0.703348,-0.128111,0.225537,0.271521,-2.693176,-2.290840
1417,954812561,-0.653621,0.718537,-0.108948,0.211234,0.347931,-3.290882,-1.210988
1418,954845895,-0.638480,0.729845,-0.114808,0.215623,0.761269,-4.253139,0.389035
1419,954879229,-0.624830,0.736489,-0.124726,0.227201,-0.391922,-1.638990,0.164610
1420,954912563,-0.614534,0.742751,-0.125932,0.234128,0.415080,1.255643,0.566344
1421,954945897,-0.609063,0.748419,-0.119951,0.233511,1.031537,1.827594,0.843229
1422,954979231,-0.607314,0.753289,-0.107423,0.228455,0.485604,1.280741,0.449612
1423,955012565,-0.606772,0.758640,-0.089087,0.219915,0.013670,-0.178343,-0.391485
1424,955045899,-0.606482,0.763112,-0.073484,0.210823,0.848782,-1.882366,-0.200109
1425,955079233,-0.604499,0.765992,-0.067510,0.208048,0.488920,-1.720819,0.033727
1426,955112567,-0.600555,0.768922,-0.065671,0.209251,-0.642302,-0.438024,-0.192360
1427,955145901,-0.595230,0.773496,-0.061032,0.209010,-0.704475,0.467009,-0.005999
1428,955179235,-0.589751,0.779239,-0.053686,0.205191,-0.236161,1.582480,0.101523
1429,955212569,-0.585161,0.784712,-0.045171,0.199447,0.033147,1.672645,0.261324
1430,955245903,-0.581134,0.789505,-0.036897,0.193928,0.693682,1.255213,0.235859
1431,955279237,-0.577272,0.793349,-0.031461,0.190709,0.871027,1.022460,0.127009
1432,955312571,-0.573212,0.796728,-0.028414,0.189340,0.385582,1.312694,-0.203359
1433,955345905,-0.568923,0.800602,-0.023626,0.186575,-0.222379,1.278636,-0.307447
1434,955379239,-0.565150,0.805199,-0.014390,0.179051,-1.472689,1.265059,-0.386321
1435,955412573,-0.562078,0.810508,-0.000406,0.164773,-0.603626,-0.007257,-0.302293
1436,955445907,-0.557620,0.816115,0.012871,0.151181,2.185008,-0.824074,0.430491
1437,955479241,-0.551942,0.821146,0.021693,0.143578,1.435557,-0.180801,0.635327
1438,955512575,-0.547358,0.824938,0.027591,0.138276,0.848632,0.587413,0.816890
1439,955545909,-0.543600,0.828009,0.032436,0.133614,-0.410280,1.817839,1.954926
1440,955579243,-0.543821,0.828836,0.039832,0.125335,-1.996035,3.024922,1.625501
1441,955612577,-0.550416,0.826136,0.049741,0.109876,-2.098113,3.660131,-0.071680
1442,955645911,-0.564130,0.818743,0.060127,0.088359,-2.210672,3.280875,-0.902075
1443,955679245,-0.583944,0.806479,0.067500,0.063640,-4.476636,1.650874,-1.155772
1444,955712579,-0.606246,0.791331,0.070141,0.036696,-2.505454,1.116276,0.125685
1445,955745913,-0.630875,0.772358,0.073812,0.004212,-0.111228,-0.152324,1.579903
1446,955779247,-0.653148,0.752893,0.077521,-0.023353,2.047209,-1.861101,2.239576
1447,955812581,-0.672265,0.735339,0.076882,-0.037828,4.145498,-2.769504,1.980662
1448,955845915,-0.689724,0.720161,0.065859,-0.036282,4.287988,-2.849513,1.391916
1449,955879249,-0.708238,0.704093,0.046127,-0.023035,4.335227,-2.370769,0.495607
1450,955912583,-0.723822,0.689671,0.021001,0.000346,3.720773,-2.522031,-0.469430
1451,955945917,-0.734468,0.677861,-0.009442,0.031263,2.152370,-3.227553,-1.182931
1452,955979251,-0.740427,0.667884,-0.041899,0.062832,0.484817,-2.705719,-1.670663
1453,956012585,-0.742797,0.659719,-0.071274,0.089164,-1.338076,-1.315914,-1.227646
1454,956045919,-0.743782,0.652166,-0.097362,0.109517,-3.128755,0.460928,-0.416075
1455,956079253,-0.746696,0.643359,-0.114708,0.124025,-2.866147,1.369533,0.760663
1456,956112587,-0.752058,0.634797,-0.119499,0.131026,-1.711733,0.559285,0.526904
1457,956145921,-0.757497,0.627923,-0.117439,0.134627,-0.647204,-0.491249,-0.265551
1458,956179255,-0.761803,0.622981,-0.112153,0.137758,0.390557,-1.130548,-0.951276
1459,956212589,-0.763334,0.620084,-0.109426,0.144389,0.982386,-0.864113,-1.702487
1460,956245923,-0.759973,0.619775,-0.117657,0.156466,0.940294,-0.653572,-1.046436
1461,956279257,-0.753570,0.620277,-0.136749,0.169390,-0.403012,-0.167350,-0.230154
1462,956312591,-0.744806,0.621017,-0.162511,0.182204,-1.134081,0.160409,0.108994
1463,956345925,-0.734020,0.623153,-0.185586,0.196107,-1.047280,0.353843,0.050909
1464,956379259,-0.723448,0.630230,-0.193071,0.205334,-2.348793,-0.385539,-0.701030
1465,956412593,-0.713831,0.646671,-0.178811,0.200734,-5.494894,0.498529,0.571138
1466,956445927,-0.709438,0.662196,-0.154869,0.184975,-0.684312,1.377825,1.904513
1467,956479261,-0.702893,0.674500,-0.138795,0.178138,0.673741,-0.017239,0.915366
1468,956512595,-0.684831,0.691733,-0.135669,0.184692,2.298117,-2.617891,2.918175
1469,956545929,-0.669413,0.709231,-0.121780,0.184532,0.433712,-1.322479,-0.361506
1470,956579263,-0.658717,0.724136,-0.104935,0.175252,1.262431,-0.945825,-0.706535
1471,956612597,-0.648655,0.733119,-0.102988,0.176588,0.407487,0.568153,-0.231700
1472,956645931,-0.638140,0.741696,-0.102857,0.179136,-0.306367,-1.360792,-0.588998
1473,956679265,-0.625751,0.750269,-0.105987,0.185215,1.305361,-1.999458,0.060568
1474,956712599,-0.614086,0.756923,-0.111798,0.193578,1.535817,-0.510841,0.395697
1475,956745933,-0.604088,0.761511,-0.119924,0.201998,1.804695,0.162924,0.646765
1476,956779267,-0.596539,0.763732,-0.128808,0.210401,0.926016,1.308666,0.507629
1477,956812601,-0.591626,0.765506,-0.132555,0.215438,-0.294385,1.919312,0.260468
1478,956845935,-0.588589,0.768028,-0.130516,0.216027,-0.299061,0.286065,-0.211682
1479,956879269,-0.586291,0.769926,-0.129243,0.216284,0.144667,-1.285203,-0.044840
1480,956912603,-0.583579,0.771456,-0.129814,0.217818,0.075515,-1.214362,-0.204341
1481,956945937,-0.578747,0.774528,-0.130549,0.219365,-0.173438,-1.155050,-0.435350
1482,956979271,-0.570547,0.779516,-0.133575,0.221347,-0.201275,-0.581591,0.023538
