sep=,
DeviceTag:,D_Wrist
FirmwareVersion:,2.2.1
AppVersion:,2023.6.0
SyncStatus:,Synced
OutputRate:,30Hz
FilterProfile:,General
Measurement Mode:,Sensor fusion Mode - Complete(Quaternion)
StartTime: ,2026-09-07_17:06:41_558 AEST
© Movella Technologies B. V. 2005-2026

PacketCounter,SampleTimeFine,Quat_W,Quat_X,Quat_Y,Quat_Z,FreeAcc_X,FreeAcc_Y,FreeAcc_Z
1,3399139328,0.681348,0.124348,-0.596359,0.405785,-0.453648,0.278183,-0.576936
2,3399172662,0.687662,0.121407,-0.595003,0.397940,-0.374547,0.146991,-0.657625
3,3399205996,0.692737,0.120590,-0.594178,0.390550,-0.397844,-0.431196,-0.759157
4,3399239330,0.695899,0.122513,-0.594210,0.384230,-0.602151,-0.954531,-1.283657
5,3399272664,0.696734,0.127845,-0.594863,0.379946,-0.553084,-1.395613,-1.338554
6,3399305998,0.695849,0.136347,-0.595484,0.377633,-0.608795,-1.560534,-1.036526
7,3399339332,0.694099,0.146584,-0.595537,0.376933,-0.532287,-1.768858,-0.459455
8,3399372666,0.691349,0.157132,-0.595037,0.378525,-0.529977,-2.001247,0.288432
9,3399406000,0.686637,0.169391,-0.591853,0.386717,-0.228783,-1.874545,0.981090
10,3399439334,0.682802,0.175028,-0.588640,0.395796,-1.300073,-2.142117,2.490277
11,3399472668,0.678596,0.186620,-0.577528,0.413697,-0.939064,-2.776129,2.766688
12,3399506002,0.672048,0.202254,-0.559720,0.440639,-0.122622,-1.368916,1.442880
13,3399539336,0.664886,0.214754,-0.538528,0.470954,0.477011,-0.070367,1.307798
14,3399572670,0.661731,0.217747,-0.516021,0.498422,0.604310,0.594195,1.576275
15,3399606004,0.663528,0.208175,-0.494603,0.521311,1.104596,0.874503,1.628983
16,3399639338,0.668905,0.186357,-0.475881,0.539795,1.610814,0.718097,1.514848
17,3399672672,0.674600,0.162402,-0.453161,0.559633,2.119447,0.074777,1.910050
18,3399706006,0.675927,0.150100,-0.420255,0.586500,2.700789,-0.320802,1.811547
19,3399739340,0.675006,0.143401,-0.381913,0.614776,2.189613,0.738472,1.451372
20,3399772674,0.674909,0.130081,-0.345587,0.638866,0.923980,1.728872,0.531017
21,3399806008,0.676388,0.102023,-0.318716,0.656136,0.210313,2.005282,-0.523551
22,3399839342,0.677334,0.061109,-0.301987,0.668051,0.463416,2.006780,-0.135503
23,3399872676,0.676789,0.014517,-0.290288,0.676374,-0.201107,1.797774,-0.969842
24,3399906010,0.673882,-0.037977,-0.287304,0.679632,-0.342306,1.041800,-1.181426
25,3399939344,0.667277,-0.096362,-0.293686,0.677648,-0.377531,0.648633,-0.396874
26,3399972678,0.655559,-0.156069,-0.304322,0.673257,0.658333,0.342184,-0.204618
27,3400006012,0.642208,-0.205682,-0.307497,0.671352,1.542936,-0.056589,0.584001
28,3400039346,0.632138,-0.239235,-0.298136,0.674008,0.925309,0.130495,0.256241
29,3400072680,0.624905,-0.265309,-0.283439,0.677326,0.604852,0.363363,-0.458112
30,3400106014,0.617082,-0.294007,-0.272919,0.676970,-0.024983,-0.196333,-0.932205
31,3400139348,0.608010,-0.324613,-0.266853,0.673605,0.024402,-0.232620,-0.299106
32,3400172682,0.599615,-0.351786,-0.260028,0.670148,0.416653,-0.507545,-0.153015
33,3400206016,0.593622,-0.373026,-0.249890,0.667849,0.238563,-0.907950,0.214070
34,3400239350,0.590244,-0.387340,-0.235926,0.667774,0.429091,-0.810098,0.215037
35,3400272684,0.587767,-0.398066,-0.220743,0.668842,0.000438,-0.856609,-0.456991
36,3400306018,0.583527,-0.409790,-0.208772,0.669317,-0.474205,-1.020742,-0.640617
37,3400339352,0.576992,-0.423775,-0.202769,0.668119,-0.578558,-0.990499,-0.668896
38,3400372686,0.572410,-0.434714,-0.196858,0.666799,0.254931,-0.641884,0.049788
39,3400406020,0.573215,-0.438072,-0.187624,0.666572,-0.139337,-0.807159,-0.689781
40,3400439354,0.576384,-0.437619,-0.178986,0.666512,0.415158,-0.604484,-0.414871
41,3400472688,0.580914,-0.433615,-0.171125,0.667261,0.552484,-0.590412,-0.626077
42,3400506022,0.582453,-0.431169,-0.167860,0.668332,0.039623,-0.757197,-1.015905
43,3400539356,0.578706,-0.433840,-0.171633,0.668901,0.924531,-0.221686,0.180610
44,3400572690,0.576342,-0.433797,-0.172453,0.670756,0.857681,-0.433341,0.600579
45,3400606024,0.575394,-0.430949,-0.169488,0.674152,0.196366,-0.817307,0.106509
46,3400639358,0.571945,-0.430310,-0.169113,0.677580,0.013587,-1.110858,0.003502
47,3400672692,0.568587,-0.430612,-0.170580,0.679845,0.054063,-1.271191,-0.395927
48,3400706026,0.567396,-0.429748,-0.172105,0.681000,-0.162873,-1.543766,-0.627805
49,3400739360,0.566948,-0.431375,-0.176618,0.679187,-0.914780,-1.353030,-0.999769
50,3400772694,0.565735,-0.435474,-0.184275,0.675538,-0.023394,-0.081882,-0.924128
51,3400806028,0.560548,-0.444181,-0.200713,0.669482,0.093396,0.682610,-1.610662
52,3400839362,0.554330,-0.453978,-0.222290,0.661221,0.706011,3.306311,0.351164
53,3400872696,0.554136,-0.454605,-0.236160,0.656124,1.082653,3.705492,-0.284315
54,3400906030,0.544202,-0.458979,-0.259499,0.652569,2.587134,2.832232,-1.407412
55,3400939364,0.543229,-0.447119,-0.269279,0.657632,3.729130,3.207890,0.337374
56,3400972698,0.539780,-0.436028,-0.278549,0.664026,1.663213,1.747105,-2.902977
57,3401006032,0.524314,-0.438624,-0.302762,0.664110,-0.109358,0.234958,-0.914582
58,3401039366,0.508859,-0.442951,-0.325148,0.662675,-1.791012,-0.625732,2.452518
59,3401072700,0.500500,-0.447382,-0.338451,0.659396,-5.310294,-2.575134,3.059567
60,3401106034,0.496535,-0.457863,-0.344075,0.652250,-5.461196,-2.386597,4.507239
61,3401139368,0.505576,-0.466102,-0.332333,0.645523,-5.180874,-1.627245,4.560883
62,3401172702,0.518780,-0.476226,-0.313791,0.636879,-3.344566,-1.427590,2.084883
63,3401206036,0.531627,-0.490201,-0.299384,0.622453,-1.129785,-0.545149,-0.270543
64,3401239370,0.544923,-0.503052,-0.289597,0.605091,1.370317,1.405500,-2.975315
65,3401272704,0.553232,-0.515327,-0.286727,0.588356,3.556773,3.737907,-1.637717
66,3401306038,0.560121,-0.518700,-0.288183,0.578073,5.597640,2.665581,-4.221281
67,3401339372,0.559042,-0.513591,-0.300041,0.577646,7.015298,3.085065,-1.411058
68,3401372706,0.557823,-0.489455,-0.311923,0.593275,4.284693,1.214639,-3.323095
69,3401406040,0.542222,-0.475041,-0.334166,0.607180,-0.613547,-0.491674,1.287058
70,3401439374,0.529707,-0.466397,-0.348616,0.616729,-5.991060,-1.725883,2.996037
71,3401472708,0.520224,-0.472987,-0.353764,0.616850,-8.267303,-2.753956,3.921659
72,3401506042,0.518572,-0.490064,-0.350281,0.606817,-7.750108,-1.499997,3.538261
73,3401539376,0.527019,-0.509027,-0.340159,0.589439,-5.020319,0.755875,0.846976
74,3401572710,0.539839,-0.526186,-0.329572,0.568409,0.127433,2.454177,0.838671
75,3401606044,0.551845,-0.538756,-0.323534,0.548213,3.364086,4.547391,-2.526570
76,3401639378,0.555330,-0.546950,-0.321706,0.537553,6.417419,5.301391,1.832787
77,3401672712,0.566091,-0.531460,-0.309417,0.548959,6.370759,5.930095,-2.318926
78,3401706046,0.566226,-0.515834,-0.299411,0.568911,6.421505,5.818124,-0.961847
79,3401739380,0.582332,-0.487216,-0.271508,0.591437,1.162097,2.047894,-1.776806
80,3401772714,0.604230,-0.464433,-0.242145,0.600481,-2.964761,1.504626,-5.060674
81,3401806048,0.627269,-0.456800,-0.218606,0.591677,0.488492,1.105583,-1.058935
82,3401839382,0.670941,-0.433935,-0.181637,0.573192,-1.613774,-0.200869,-0.748792
83,3401872716,0.717700,-0.412234,-0.153828,0.539732,-2.809896,0.679535,-4.117596
84,3401906050,0.762858,-0.401509,-0.145478,0.485466,-1.334688,-1.863490,-3.173562
85,3401939384,0.816618,-0.366482,-0.142913,0.422379,-0.820405,-0.324586,-2.623032
86,3401972718,0.865576,-0.321242,-0.154667,0.351658,-1.011116,-1.693349,-4.429011
87,3402006052,0.902891,-0.267562,-0.178931,0.284930,2.296717,-2.606855,3.020187
88,3402039386,0.926944,-0.208039,-0.209720,0.231335,2.057933,-4.020208,5.069024
89,3402072720,0.930499,-0.199480,-0.245429,0.184790,1.366949,-7.351573,6.733004
90,3402106054,0.936071,-0.175938,-0.264440,0.151300,-2.427221,-5.013239,3.813182
91,3402139388,0.937077,-0.174763,-0.275312,0.124705,-1.464449,-3.178027,1.054359
92,3402172722,0.936416,-0.184880,-0.276773,0.111102,-1.241086,-7.554117,6.363968
93,3402206056,0.938041,-0.183932,-0.269182,0.117440,-0.438013,-5.166024,4.178616
94,3402239390,0.937163,-0.191559,-0.255105,0.141264,-0.125478,-5.817534,3.016379
95,3402272724,0.933266,-0.196230,-0.238642,0.183201,0.729093,-6.068277,1.203403
96,3402306058,0.922008,-0.194128,-0.228005,0.245425,2.283746,-4.244019,-0.465264
97,3402339392,0.901516,-0.193005,-0.220979,0.318103,1.595914,-0.861916,1.037448
98,3402372726,0.871342,-0.212575,-0.218757,0.384348,-2.708271,0.196298,-0.629916
99,3402406060,0.822983,-0.278087,-0.236026,0.435502,-4.154355,-0.946295,-2.919825
100,3402439394,0.758518,-0.366919,-0.267189,0.467584,-5.063641,-2.483950,-0.081474
101,3402472728,0.693054,-0.440341,-0.295239,0.488481,-2.469814,-1.464880,-0.719015
102,3402506062,0.645435,-0.484772,-0.308599,0.503170,-1.489786,-0.214069,1.901670
103,3402539396,0.628923,-0.496516,-0.303475,0.515590,0.016211,2.501034,-0.844930
104,3402572730,0.624170,-0.504182,-0.297109,0.517632,1.930436,2.602345,-5.932077
105,3402606064,0.593673,-0.545826,-0.315962,0.499798,6.291132,4.268716,-3.441775
106,3402639398,0.556302,-0.587706,-0.341929,0.477721,6.503218,7.580440,3.819091
107,3402672732,0.549048,-0.586279,-0.346909,0.484232,7.988585,2.933306,-2.156578
108,3402706066,0.535282,-0.578840,-0.363738,0.496101,5.360450,2.318154,-1.933503
109,3402739400,0.518453,-0.567416,-0.390908,0.506399,1.291588,0.335411,-1.601693
110,3402772734,0.508713,-0.554173,-0.411427,0.514621,-5.111287,-0.752510,0.759404
111,3402806068,0.497386,-0.560626,-0.422827,0.509438,-6.740989,-3.350237,0.965543
112,3402839402,0.492169,-0.578856,-0.418911,0.497204,-8.050941,-3.347896,4.604435
113,3402872736,0.500187,-0.592506,-0.398608,0.489760,-3.857665,-1.931362,2.514712
114,3402906070,0.505044,-0.607496,-0.380745,0.480537,-0.911888,-0.503100,1.469609
115,3402939404,0.514421,-0.612862,-0.366536,0.474789,2.570775,0.441418,0.042931
116,3402972738,0.528621,-0.605619,-0.356440,0.476172,5.598358,1.585216,-1.459835
117,3403006072,0.533021,-0.595553,-0.359725,0.481462,7.337843,3.255813,-1.834438
118,3403039406,0.530412,-0.579825,-0.372281,0.493838,4.135510,2.657684,-1.889934
119,3403072740,0.518123,-0.567149,-0.392850,0.505532,-0.356617,0.787092,-1.430202
120,3403106074,0.498640,-0.568009,-0.414165,0.507144,-4.586926,-1.545542,1.357783
121,3403139408,0.487270,-0.577887,-0.419855,0.502335,-6.315089,-2.657650,2.698059
122,3403172742,0.489932,-0.591349,-0.406664,0.494874,-6.023059,-1.351975,1.920774
123,3403206076,0.492997,-0.613013,-0.389554,0.478978,-3.346122,0.812609,-0.861291
124,3403239410,0.493021,-0.639238,-0.377393,0.453744,-0.212246,3.038829,-1.206351
125,3403272744,0.506598,-0.649426,-0.364069,0.434812,4.077453,3.972325,0.143196
126,3403306078,0.528276,-0.642155,-0.353431,0.428546,5.778540,4.880816,-0.021377
127,3403339412,0.554637,-0.618937,-0.343939,0.437041,5.972068,4.112779,-0.356039
128,3403372746,0.582205,-0.587813,-0.334274,0.451417,4.058652,3.620948,-1.114033
129,3403406080,0.618114,-0.549124,-0.318210,0.463836,3.398446,1.698810,-0.812064
130,3403439414,0.664541,-0.502303,-0.293745,0.468823,3.399305,0.477016,-1.277904
131,3403472748,0.712084,-0.457170,-0.270873,0.458871,2.653355,-0.944430,-2.893680
132,3403506082,0.763315,-0.406354,-0.252549,0.434106,2.140871,-3.059068,-1.199781
133,3403539416,0.818258,-0.336556,-0.239081,0.400035,-1.202883,-3.192704,-3.707146
134,3403572750,0.857488,-0.276982,-0.245901,0.357115,-2.668198,-2.318508,-4.757510
135,3403606084,0.879437,-0.237536,-0.274160,0.308232,-2.437856,-2.831551,-2.358132
136,3403639418,0.890507,-0.211083,-0.308520,0.259347,-1.191188,-3.050395,6.378559
137,3403672752,0.899583,-0.171946,-0.328169,0.231285,-2.657497,-4.348770,6.293833
138,3403706086,0.898695,-0.168082,-0.343793,0.214254,-2.674756,-3.129057,2.811326
139,3403739420,0.891319,-0.187573,-0.353651,0.212840,-2.625164,-5.702390,3.825180
140,3403772754,0.882718,-0.202977,-0.355406,0.230868,-3.516512,-4.635776,2.315257
141,3403806088,0.869018,-0.227276,-0.355763,0.258049,-2.985476,-3.016815,1.307938
142,3403839422,0.846608,-0.267740,-0.357835,0.289010,-2.262311,-3.434225,2.421797
143,3403872756,0.817800,-0.309056,-0.361090,0.324506,-1.816602,-1.909943,1.351302
144,3403906090,0.774080,-0.369855,-0.373894,0.352439,-1.741099,-0.944340,-1.470471
145,3403939424,0.714517,-0.441344,-0.397608,0.369583,0.123429,-2.782164,-0.311402
146,3403972758,0.653459,-0.493202,-0.423779,0.387502,1.094748,-2.581072,0.068832
147,3404006092,0.593975,-0.528786,-0.451343,0.404810,0.669652,-1.505501,-0.328396
148,3404039426,0.540112,-0.550404,-0.478040,0.420496,0.566811,-0.929495,-0.417192
149,3404072760,0.494039,-0.562347,-0.502653,0.432474,1.198376,-0.304397,1.365595
150,3404106094,0.460898,-0.563102,-0.520995,0.446158,2.218158,0.156290,1.155135
151,3404139428,0.436008,-0.557102,-0.536413,0.460216,3.071452,0.444691,-0.306480
152,3404172762,0.418079,-0.546709,-0.549655,0.473499,1.143538,1.466929,0.995640
153,3404206096,0.412444,-0.527254,-0.553757,0.495228,1.808210,1.898806,0.424062
154,3404239430,0.409676,-0.505013,-0.554135,0.519678,3.143028,2.508507,-0.272537
155,3404272764,0.403131,-0.484225,-0.556854,0.541228,2.427695,3.348760,-1.629129
156,3404306098,0.388529,-0.466323,-0.567072,0.556795,1.953223,3.418433,-2.118631
157,3404339432,0.366854,-0.447061,-0.586476,0.567101,2.050490,2.794569,-1.876486
158,3404372766,0.339791,-0.421340,-0.616054,0.572272,0.844571,1.808686,-1.901079
159,3404406100,0.310511,-0.392845,-0.651764,0.569617,-1.633463,0.178742,-0.640721
160,3404439434,0.287955,-0.366849,-0.679643,0.566209,-2.247348,-2.625583,2.109251
161,3404472768,0.278742,-0.348813,-0.686265,0.574175,-2.824669,-4.793752,3.539154
162,3404506102,0.278557,-0.345085,-0.677391,0.586913,-1.708655,-4.169473,1.073380
163,3404539436,0.276944,-0.357744,-0.668788,0.589956,-0.839448,-3.209147,-0.339271
164,3404572770,0.274635,-0.378137,-0.663042,0.584778,-1.414797,-1.920444,0.289613
165,3404606104,0.280663,-0.394013,-0.650628,0.585379,0.605747,1.065403,0.435659
166,3404639438,0.293880,-0.398338,-0.635279,0.592778,0.360001,2.728649,0.523174
167,3404672772,0.310712,-0.387580,-0.620486,0.606827,0.945416,3.174398,-1.275301
168,3404706106,0.318768,-0.366868,-0.618391,0.617568,1.406279,3.842425,-2.223073
169,3404739440,0.316556,-0.339313,-0.628731,0.623987,0.424785,3.234625,-1.288198
170,3404772774,0.308732,-0.311413,-0.643448,0.627443,-1.152768,0.678513,-0.640818
171,3404806108,0.300341,-0.292743,-0.657025,0.626433,-1.227607,-1.703919,1.102240
172,3404839442,0.295814,-0.286270,-0.660541,0.627879,-0.768880,-2.249022,1.886947
173,3404872776,0.294661,-0.292805,-0.656133,0.630027,-0.638954,-2.411893,0.992135
174,3404906110,0.295107,-0.308726,-0.650725,0.627822,-0.849213,-1.558208,-0.103954
175,3404939444,0.296820,-0.328337,-0.647300,0.620564,-0.975493,-0.784629,-0.761842
176,3404972778,0.301470,-0.344512,-0.643954,0.612987,-0.813800,0.443155,-0.471635
177,3405006112,0.312531,-0.350566,-0.636654,0.611639,-0.852361,1.982101,0.022973
178,3405039446,0.327412,-0.345797,-0.628446,0.615048,0.008352,3.069597,-0.707318
179,3405072780,0.337875,-0.334203,-0.626803,0.617471,0.032008,3.457951,-0.735966
180,3405106114,0.342511,-0.317727,-0.629276,0.621089,-0.505243,3.402637,-0.842176
181,3405139448,0.340840,-0.302644,-0.635625,0.623072,-1.163357,3.023904,-0.168961
182,3405172782,0.338738,-0.290595,-0.640173,0.625294,-1.685493,2.201125,0.337859
183,3405206116,0.339227,-0.283340,-0.639132,0.629409,-2.012010,2.415563,0.871576
184,3405239450,0.342513,-0.284989,-0.634442,0.631627,-1.978151,2.564709,-0.199300
185,3405272784,0.346588,-0.296989,-0.631016,0.627293,-1.776456,2.217834,-0.000789
186,3405306118,0.354923,-0.313855,-0.625256,0.620147,-1.395228,2.744366,0.458144
187,3405339452,0.371902,-0.332545,-0.612539,0.613109,-0.338999,3.155834,0.388017
188,3405372786,0.398070,-0.352015,-0.594003,0.603978,0.260860,2.540395,-0.872136
189,3405406120,0.433182,-0.370057,-0.571526,0.590570,0.796717,2.032870,-0.653707
190,3405439454,0.480181,-0.380163,-0.542267,0.575198,0.841976,0.583278,-0.771104
191,3405472788,0.535326,-0.381592,-0.510809,0.553977,1.825617,-0.018792,-2.120248
192,3405506122,0.583105,-0.391345,-0.493674,0.512959,1.892610,-0.333794,-4.168964
193,3405539456,0.608404,-0.425224,-0.499578,0.446603,2.909116,-1.554576,-0.430275
194,3405572790,0.623763,-0.460835,-0.505250,0.378518,1.905081,-2.614090,0.949582
195,3405606124,0.643225,-0.479349,-0.502926,0.321802,0.643958,-3.514793,1.340749
196,3405639458,0.673867,-0.470214,-0.496249,0.280255,-0.273380,-4.543938,0.786376
197,3405672792,0.711670,-0.433776,-0.491023,0.253503,0.151138,-5.325728,-0.653071
198,3405706126,0.764553,-0.348798,-0.479074,0.253555,-2.112782,-7.379762,5.282454
199,3405739460,0.818413,-0.204900,-0.452042,0.289616,0.618390,-5.700345,2.760931
200,3405772794,0.843238,-0.078229,-0.417945,0.328870,-0.102467,-4.159935,3.654662
201,3405806128,0.848197,-0.015781,-0.390629,0.357386,-1.051804,-2.747258,1.603108
202,3405839462,0.845065,-0.028406,-0.382002,0.373011,-1.734655,-3.125386,0.419268
203,3405872796,0.834835,-0.080308,-0.384791,0.385409,-1.407914,-3.587555,0.351172
204,3405906130,0.818297,-0.140080,-0.388196,0.400094,-0.668679,-4.164696,1.141706
205,3405939464,0.797507,-0.191001,-0.387602,0.421034,-0.039718,-3.665138,1.672114
206,3405972798,0.771390,-0.237550,-0.385857,0.446816,0.240909,-2.567397,1.345466
207,3406006132,0.738243,-0.283684,-0.385098,0.475630,0.070481,-2.371599,1.877729
208,3406039466,0.699979,-0.324677,-0.385115,0.506265,-1.618823,-1.108082,1.001236
209,3406072800,0.651347,-0.378353,-0.394949,0.525941,-3.300867,-0.098069,0.602780
210,3406106134,0.597178,-0.436482,-0.409507,0.534013,-1.959870,-0.603055,1.022968
211,3406139468,0.545066,-0.486281,-0.423212,0.536030,0.663641,-0.134054,0.274699
212,3406172802,0.497793,-0.527659,-0.437593,0.531313,0.232441,0.824629,-1.693403
213,3406206136,0.458250,-0.562403,-0.452329,0.518760,0.456951,2.211612,-1.692248
214,3406239470,0.439963,-0.579135,-0.458112,0.511050,2.707849,3.040821,-0.390396
215,3406272804,0.439567,-0.576812,-0.458355,0.513792,5.044965,3.833570,-1.054949
216,3406306138,0.449080,-0.556240,-0.456757,0.529434,4.243052,4.633151,-1.028379
217,3406339472,0.452457,-0.530968,-0.457644,0.551290,4.984951,3.181860,-3.580337
218,3406372806,0.439606,-0.512279,-0.472014,0.567029,3.260159,2.197955,-3.227224
219,3406406140,0.419879,-0.497789,-0.493798,0.576259,0.478199,1.327932,-1.231515
220,3406439474,0.399962,-0.486616,-0.515774,0.580703,-1.657532,-1.455607,0.745204
221,3406472808,0.390482,-0.473112,-0.522181,0.592468,-3.096093,-1.848559,3.153486
222,3406506142,0.387935,-0.468338,-0.514637,0.604416,-3.358786,-2.385752,2.703211
223,3406539476,0.384441,-0.477832,-0.506480,0.606105,-2.836492,-1.914146,0.838528
224,3406572810,0.376122,-0.499093,-0.504278,0.595940,-1.255398,-1.267234,0.161770
225,3406606144,0.371116,-0.519076,-0.500809,0.584830,-1.178697,0.637619,1.519722
226,3406639478,0.378310,-0.526956,-0.488488,0.583594,1.400665,2.103920,-0.738632
227,3406672812,0.384272,-0.527715,-0.481722,0.584637,1.398253,3.310027,-2.197599
228,3406706146,0.385152,-0.520630,-0.483378,0.589025,2.271245,4.088076,-0.662424
229,3406739480,0.383987,-0.501128,-0.490756,0.600489,1.885631,2.413231,-2.044535
230,3406772814,0.379589,-0.478691,-0.502381,0.611869,-1.233683,0.341275,-1.594444
231,3406806148,0.375310,-0.466417,-0.514151,0.614206,-2.647451,-1.563751,0.343475
232,3406839482,0.374485,-0.466837,-0.517727,0.611382,-1.906984,-1.970828,0.836850
233,3406872816,0.374592,-0.480375,-0.514842,0.603210,-2.166715,-2.566129,0.820924
234,3406906150,0.371787,-0.501447,-0.515149,0.587325,-1.080241,-1.633062,0.148025
235,3406939484,0.370876,-0.519958,-0.515890,0.570925,-1.752223,0.509642,1.300418
236,3406972818,0.381554,-0.526016,-0.508786,0.564681,-0.379780,1.733378,-0.533271
237,3407006152,0.389454,-0.527463,-0.506996,0.559524,1.074478,2.741790,-0.926140
238,3407039486,0.394295,-0.524093,-0.510546,0.556061,0.813607,3.758356,-0.110309
239,3407072820,0.400200,-0.515209,-0.511951,0.558847,0.343188,3.959877,-0.337783
240,3407106154,0.405427,-0.506341,-0.512062,0.563066,-0.381184,3.645921,-0.649814
241,3407139488,0.415743,-0.497295,-0.504563,0.570328,-0.000760,3.519105,1.206040
242,3407172822,0.432795,-0.489251,-0.483764,0.582493,-0.778672,2.429797,-0.990355
243,3407206156,0.454718,-0.484484,-0.456634,0.591604,-0.709627,2.237829,-2.609138
244,3407239490,0.481380,-0.481507,-0.430268,0.592703,-0.092480,1.327353,-2.072151
245,3407272824,0.516494,-0.474011,-0.400344,0.590149,2.091325,0.355466,-0.296739
246,3407306158,0.557949,-0.460101,-0.373474,0.580965,1.426085,-0.237877,-1.577829
247,3407339492,0.599709,-0.444368,-0.356694,0.561835,1.163236,-0.354439,-2.509531
248,3407372826,0.643763,-0.422678,-0.344779,0.536697,1.381621,-1.016919,-1.282080
249,3407406160,0.692595,-0.386544,-0.334782,0.508745,0.912733,-1.905559,-1.789254
250,3407439494,0.741478,-0.339501,-0.328112,0.476754,-0.296319,-1.483518,-0.385794
251,3407472828,0.786469,-0.286206,-0.325946,0.439676,-1.489730,-2.075911,-2.180737
252,3407506162,0.822163,-0.233388,-0.333133,0.398251,-0.177716,-2.018299,-2.268799
253,3407539496,0.846410,-0.188496,-0.349156,0.355181,0.353693,-2.422762,0.711625
254,3407572830,0.860163,-0.156564,-0.370829,0.313204,1.558409,-3.310194,4.193650
255,3407606164,0.869557,-0.125247,-0.386673,0.280482,-0.375420,-3.985248,5.272376
256,3407639498,0.876166,-0.092195,-0.394036,0.261862,0.227504,-4.454820,5.985888
257,3407672832,0.877553,-0.084811,-0.399183,0.251721,-0.021808,-1.825405,2.213021
258,3407706166,0.872826,-0.118711,-0.405338,0.244511,-0.623093,-3.514939,2.206845
259,3407739500,0.863773,-0.161853,-0.408737,0.246246,-1.355072,-4.651041,2.252270
260,3407772834,0.854967,-0.190127,-0.406756,0.259683,-0.825835,-3.864293,1.206132
261,3407806168,0.847214,-0.204506,-0.400382,0.283026,-0.385174,-3.627719,0.977114
262,3407839502,0.835239,-0.224625,-0.394688,0.310073,0.071310,-2.461365,0.150914
263,3407872836,0.818263,-0.250693,-0.391462,0.338171,-0.252162,-2.663763,-0.090810
264,3407906170,0.800154,-0.269405,-0.388328,0.369297,0.220572,-2.761770,0.472859
265,3407939504,0.780128,-0.280694,-0.387261,0.403291,1.373968,-1.979789,-1.300471
266,3407972838,0.757062,-0.288525,-0.389133,0.438393,1.331781,-2.107666,-0.398498
267,3408006172,0.731031,-0.293157,-0.394001,0.473730,1.534860,-1.368164,0.540848
268,3408039506,0.701326,-0.297248,-0.401986,0.508130,1.784796,-0.737119,0.160781
269,3408072840,0.666331,-0.303729,-0.414756,0.540123,2.037613,-0.497542,0.215374
270,3408106174,0.624368,-0.315138,-0.434924,0.567183,1.948560,0.237845,0.231740
271,3408139508,0.577385,-0.327597,-0.460382,0.589372,1.803297,0.195349,0.228899
272,3408172842,0.531740,-0.331643,-0.484398,0.610432,1.131275,0.550314,0.601296
273,3408206176,0.494437,-0.320770,-0.497664,0.636375,0.737497,0.552845,0.464067
274,3408239510,0.463420,-0.303790,-0.504913,0.661831,0.167423,0.626527,-1.945245
275,3408272844,0.435009,-0.290524,-0.515103,0.678995,0.078098,0.015203,-2.101054
276,3408306178,0.409795,-0.283501,-0.528859,0.687028,-0.271052,-0.571162,-0.279872
277,3408339512,0.389710,-0.281862,-0.541084,0.689864,0.099257,-0.111339,1.480760
278,3408372846,0.376439,-0.281550,-0.543427,0.695496,0.343523,1.425975,1.794029
279,3408406180,0.367706,-0.285091,-0.539591,0.701684,-1.110933,2.359893,0.569767
280,3408439514,0.360530,-0.294383,-0.534783,0.705243,-1.296867,3.091979,-1.347200
281,3408472848,0.353092,-0.305538,-0.534707,0.704318,-0.739806,3.145577,-2.701082
282,3408506182,0.344656,-0.310879,-0.542032,0.700551,-0.530053,4.200796,-2.351670
283,3408539516,0.339505,-0.301658,-0.546840,0.703356,-1.098968,5.312083,0.041387
284,3408572850,0.338047,-0.278089,-0.544197,0.715712,-1.486808,4.205650,-2.139015
285,3408606184,0.334012,-0.254446,-0.548177,0.723325,-1.848454,1.310092,-2.496806
286,3408639518,0.331471,-0.236904,-0.559831,0.721524,-1.630286,-1.765544,0.062919
287,3408672852,0.333936,-0.227923,-0.568163,0.716751,-0.690440,-3.626135,3.191843
288,3408706186,0.340131,-0.227579,-0.569664,0.712745,0.135178,-3.516337,4.481745
289,3408739520,0.345807,-0.235421,-0.566828,0.709721,-0.058758,-2.867245,3.059624
290,3408772854,0.347031,-0.252593,-0.566666,0.703321,-0.796245,-1.650998,1.758035
291,3408806188,0.344442,-0.274545,-0.568911,0.694499,-0.236445,0.245554,0.508842
292,3408839522,0.343293,-0.291379,-0.568950,0.688148,-0.911977,1.188279,-0.252772
293,3408872856,0.347924,-0.298552,-0.563331,0.687370,-1.126815,2.212786,-1.495916
294,3408906190,0.353851,-0.297996,-0.558596,0.688449,-0.639350,3.309471,-1.849853
295,3408939524,0.359267,-0.289875,-0.555030,0.691987,-0.937386,3.889411,-0.464308
296,3408972858,0.361775,-0.279097,-0.553865,0.696032,-0.707227,3.370217,-1.162345
297,3409006192,0.362861,-0.268516,-0.554841,0.698846,-0.219549,0.890771,-0.687915
298,3409039526,0.365970,-0.258246,-0.551534,0.703697,-0.637710,-1.373698,1.015721
299,3409072860,0.371454,-0.253996,-0.545914,0.706746,-0.733479,-3.092773,1.479845
300,3409106194,0.378097,-0.257806,-0.542561,0.704421,-0.428526,-2.794144,1.264035
301,3409139528,0.384769,-0.268696,-0.541557,0.697478,-0.013904,-1.613286,0.164581
302,3409172862,0.389614,-0.285277,-0.543690,0.686457,-0.280199,-0.493522,0.142413
303,3409206196,0.393097,-0.304872,-0.548513,0.672060,-1.098279,0.186503,-1.096197
304,3409239530,0.396742,-0.325786,-0.555825,0.653851,-2.049157,1.119144,-1.623656
305,3409272864,0.400703,-0.347383,-0.567013,0.630287,-2.019613,2.686969,-1.968378
306,3409306198,0.405008,-0.367625,-0.579524,0.604133,-1.437262,4.242559,0.410329
307,3409339532,0.413671,-0.378582,-0.582044,0.588880,-0.553894,5.042806,2.198771
308,3409372866,0.425837,-0.378823,-0.573226,0.588703,-0.448429,4.665846,0.917162
309,3409406200,0.435939,-0.374713,-0.560578,0.596073,0.256665,4.759544,1.854413
310,3409439534,0.456469,-0.358588,-0.532136,0.616349,0.142085,3.733371,2.287912
311,3409472868,0.488784,-0.333080,-0.488721,0.641330,-0.021259,2.418380,0.702447
312,3409506202,0.529098,-0.304007,-0.436239,0.661312,0.395653,1.887835,0.409193
313,3409539536,0.573616,-0.275879,-0.382979,0.669467,0.396857,0.057665,-1.600063
314,3409572870,0.617617,-0.255261,-0.342605,0.660315,1.165417,-0.422574,-1.768962
315,3409606204,0.660448,-0.242814,-0.314606,0.637085,1.589803,-0.595605,-1.706259
316,3409639538,0.698893,-0.242425,-0.299415,0.602605,1.410638,-0.888234,-1.698516
317,3409672872,0.731857,-0.252044,-0.292774,0.561379,2.556818,-1.445314,-0.965034
318,3409706206,0.762444,-0.258920,-0.284121,0.520498,2.439794,-2.445008,-0.332833
319,3409739540,0.793793,-0.254905,-0.272385,0.480340,1.374722,-2.943261,-0.411757
320,3409772874,0.826507,-0.231807,-0.256719,0.444129,1.617439,-3.560014,-0.608876
321,3409806208,0.852615,-0.203519,-0.247274,0.412901,0.862793,-3.808414,-2.103450
322,3409839542,0.870398,-0.184970,-0.247125,0.383571,-0.134730,-2.710713,1.870550
323,3409872876,0.885576,-0.145233,-0.239610,0.370476,0.737085,-6.227244,2.727291
324,3409906210,0.894234,-0.103101,-0.232713,0.368190,-1.267667,-2.840522,0.520757
325,3409939544,0.894774,-0.084237,-0.233220,0.371345,-0.559573,-2.963623,0.805316
326,3409972878,0.890258,-0.084945,-0.239138,0.378208,-0.546121,-2.946456,0.643406
327,3410006212,0.882530,-0.091932,-0.245577,0.390366,0.026473,-3.473246,0.961439
328,3410039546,0.871431,-0.102882,-0.252116,0.408000,0.184530,-3.557188,0.619278
329,3410072880,0.854899,-0.122858,-0.262257,0.430440,-0.032670,-2.753622,0.358756
330,3410106214,0.829550,-0.160813,-0.280499,0.455313,0.338762,-2.811098,0.131301
331,3410139548,0.795183,-0.208153,-0.305335,0.480761,0.893410,-2.970636,0.790421
332,3410172882,0.754539,-0.252456,-0.331657,0.506897,1.160716,-2.822848,1.541096
333,3410206216,0.711595,-0.287208,-0.354634,0.534212,0.832548,-2.716441,1.989942
334,3410239550,0.668717,-0.312642,-0.372178,0.562636,0.572455,-2.165750,2.280053
335,3410272884,0.624290,-0.333065,-0.386564,0.591525,0.939556,-1.983649,0.924763
336,3410306218,0.575384,-0.354250,-0.403928,0.616674,1.610364,-1.501487,0.645825
337,3410339552,0.524617,-0.372475,-0.422629,0.638301,1.895206,-0.756848,0.934591
338,3410372886,0.476255,-0.384114,-0.438541,0.658273,2.370009,0.484338,1.589170
339,3410406220,0.433638,-0.388355,-0.448709,0.678088,1.832242,1.298688,1.323236
340,3410439554,0.395515,-0.389154,-0.455194,0.696369,1.340163,1.478406,-0.536709
341,3410472888,0.359450,-0.390689,-0.464458,0.708830,1.054804,1.243751,-1.214605
342,3410506222,0.326872,-0.391377,-0.476868,0.715947,0.286010,1.560326,-1.841159
343,3410539556,0.300367,-0.391252,-0.490349,0.718515,-0.535179,1.873886,-2.219091
344,3410572890,0.285132,-0.386807,-0.497536,0.722178,-0.756290,3.063766,-0.719629
345,3410606224,0.279305,-0.378054,-0.497810,0.728870,-0.851839,3.530477,-1.682969
346,3410639558,0.271815,-0.371742,-0.504011,0.730685,-1.363969,3.602556,-2.388130
347,3410672892,0.263064,-0.366747,-0.512468,0.730530,-1.184232,5.785026,0.081672
348,3410706226,0.256281,-0.358854,-0.515636,0.734620,-0.614133,3.823436,-1.657770
349,3410739560,0.242424,-0.349628,-0.528019,0.734976,-0.672888,2.178198,-1.526525
350,3410772894,0.224865,-0.338268,-0.548690,0.730721,0.234961,-0.295911,-1.938302
351,3410806228,0.207568,-0.326027,-0.574907,0.721185,-1.706188,-2.580558,0.617911
352,3410839562,0.199638,-0.319047,-0.590322,0.714057,-1.135234,-4.203627,2.219061
353,3410872896,0.198443,-0.323574,-0.598574,0.705431,-0.398663,-3.600525,1.658321
354,3410906230,0.198823,-0.341727,-0.609294,0.687355,-1.374744,-3.509273,1.083908
355,3410939564,0.204601,-0.363970,-0.614399,0.669464,-2.906031,-0.948182,2.039986
356,3410972898,0.221027,-0.377631,-0.603538,0.666549,-2.721184,2.822526,1.156862
357,3411006232,0.243782,-0.380555,-0.581572,0.676407,-1.542236,5.133935,0.569560
358,3411039566,0.263684,-0.377341,-0.560092,0.688756,-0.740016,6.378953,-0.525897
359,3411072900,0.277147,-0.372210,-0.543777,0.699257,-0.940144,5.265971,-1.176588
360,3411106234,0.292850,-0.364491,-0.525418,0.710862,-2.028117,3.752120,-1.984235
361,3411139568,0.318564,-0.358920,-0.503601,0.718390,-1.136558,1.890436,-2.697301
362,3411172902,0.350853,-0.362763,-0.492338,0.709163,0.117048,1.318375,-2.105740
363,3411206236,0.389277,-0.372642,-0.489698,0.685421,0.895126,1.049705,-1.231632
364,3411239570,0.428281,-0.386123,-0.491609,0.652540,0.942370,0.317025,0.037521
365,3411272904,0.467799,-0.396763,-0.492497,0.617409,1.159319,-0.045032,0.939986
366,3411306238,0.506931,-0.402013,-0.490327,0.583943,2.423131,-0.391794,1.228622
367,3411339572,0.544374,-0.402159,-0.486201,0.552755,1.552677,-0.989118,2.546932
368,3411372906,0.581879,-0.395324,-0.478001,0.525980,1.414318,-1.045539,2.011639
369,3411406240,0.615112,-0.388810,-0.469974,0.499592,1.633991,-1.156039,0.081029
370,3411439574,0.642554,-0.387298,-0.464492,0.470505,0.960687,-1.209118,0.848237
371,3411472908,0.667294,-0.386686,-0.459283,0.440744,0.538537,-0.918452,1.181633
372,3411506242,0.687973,-0.390040,-0.453873,0.410567,0.403430,-1.076395,0.635096
373,3411539576,0.705138,-0.396568,-0.447266,0.381407,0.730279,-2.413337,1.730102
374,3411572910,0.719448,-0.400403,-0.440407,0.357934,-0.118360,-2.845984,1.232229
375,3411606244,0.727965,-0.403143,-0.435843,0.342909,-1.325001,-2.373910,-0.444227
376,3411639578,0.729616,-0.407041,-0.436307,0.334093,-1.725813,-2.923696,-0.511518
377,3411672912,0.726238,-0.410591,-0.441184,0.330687,-1.684186,-3.219773,-0.419568
378,3411706246,0.720996,-0.410629,-0.446356,0.335139,-1.469957,-3.518824,0.102445
379,3411739580,0.713159,-0.409980,-0.451603,0.345512,-0.886154,-4.356080,-0.109396
380,3411772914,0.694280,-0.421747,-0.461213,0.356920,-0.255290,-4.557251,0.985724
381,3411806248,0.669008,-0.437007,-0.468481,0.376807,0.312755,-4.555220,2.417283
382,3411839582,0.634181,-0.459530,-0.474673,0.401667,1.390931,-3.650265,1.614937
383,3411872916,0.585313,-0.490259,-0.485009,0.426408,1.084887,-2.699695,1.586786
384,3411906250,0.519640,-0.525782,-0.502925,0.447882,0.675726,-1.536241,0.114388
385,3411939584,0.442916,-0.558146,-0.526494,0.463795,-0.942931,-0.881181,1.590960
386,3411972918,0.390956,-0.565319,-0.532802,0.493653,-2.710324,0.529829,3.057450
387,3412006252,0.372320,-0.554742,-0.516797,0.535316,-1.588851,2.074398,0.009375
388,3412039586,0.368817,-0.541737,-0.498262,0.567657,-1.845972,3.343390,-3.735067
389,3412072920,0.363542,-0.536899,-0.493711,0.579508,1.530676,7.563314,-1.998680
390,3412106254,0.361313,-0.529388,-0.493552,0.587887,3.445157,12.252057,2.707601
391,3412139588,0.363193,-0.511562,-0.481199,0.612247,2.041528,8.351086,-3.449929
392,3412172922,0.341310,-0.507221,-0.489773,0.621578,1.111622,4.871917,-4.451862
393,3412206256,0.319117,-0.507782,-0.509358,0.617155,-2.202286,1.470655,-1.618135
394,3412239590,0.313731,-0.507719,-0.518261,0.612538,-5.188315,-1.534063,-0.601048
395,3412272924,0.322356,-0.513768,-0.516063,0.604824,-5.945899,-2.536929,1.174198
396,3412306258,0.348873,-0.523178,-0.497275,0.597741,-4.086854,-0.858208,2.194050
397,3412339592,0.382056,-0.534567,-0.469774,0.589567,-1.538758,0.383074,1.567067
398,3412372926,0.412322,-0.544598,-0.441158,0.582055,-0.154207,1.522798,1.369061
399,3412406260,0.440149,-0.549237,-0.415167,0.576409,1.622116,2.597906,-0.131565
400,3412439594,0.462404,-0.551991,-0.397017,0.569095,2.552565,3.713545,-0.975745
401,3412472928,0.482302,-0.550786,-0.383000,0.563324,3.513295,3.628419,-0.914905
402,3412506262,0.502289,-0.544455,-0.372354,0.559133,3.308534,2.906730,-1.840235
403,3412539596,0.519108,-0.539690,-0.367763,0.551376,2.363013,2.360692,-1.585324
404,3412572930,0.536929,-0.536864,-0.363601,0.539706,1.844497,1.868049,0.183647
405,3412606264,0.564094,-0.530148,-0.351564,0.526449,0.978898,0.615534,-0.315040
406,3412639598,0.593462,-0.526044,-0.337260,0.507286,0.647686,0.170644,0.006805
407,3412672932,0.626629,-0.522529,-0.321168,0.480785,0.351411,-1.054673,-0.009450
408,3412706266,0.661850,-0.518653,-0.305443,0.446837,0.523788,-1.068698,-0.621590
409,3412739600,0.698073,-0.512941,-0.290922,0.406146,0.453952,-1.765167,-0.848440
410,3412772934,0.733628,-0.503325,-0.278785,0.361576,1.256895,-2.419733,0.526949
411,3412806268,0.764241,-0.492956,-0.270309,0.316018,0.996896,-3.192307,0.788790
412,3412839602,0.788466,-0.482459,-0.265822,0.273674,-0.411894,-3.422910,0.019396
413,3412872936,0.806413,-0.472000,-0.266496,0.236427,-0.602961,-4.019458,-1.245435
414,3412906270,0.824674,-0.453876,-0.269918,0.202627,-1.193552,-3.600022,-0.799965
415,3412939604,0.849962,-0.414470,-0.272151,0.178095,-0.876684,-4.905949,2.634036
416,3412972938,0.878581,-0.355609,-0.272697,0.165160,-0.766909,-5.042593,1.538690
417,3413006272,0.900760,-0.296651,-0.272164,0.162975,-0.139405,-4.447486,0.276328
418,3413039606,0.910316,-0.262529,-0.272526,0.167741,-0.857120,-2.985227,-0.359596
419,3413072940,0.909645,-0.254734,-0.275709,0.177888,-1.269661,-3.139894,0.458259
420,3413106274,0.902176,-0.262707,-0.283086,0.192169,-1.463092,-2.762990,-0.120431
421,3413139608,0.890104,-0.276682,-0.294482,0.210821,-0.770435,-2.827810,-0.002995
422,3413172942,0.876873,-0.287185,-0.305736,0.234835,-0.344856,-3.105020,1.624812
423,3413206276,0.864814,-0.288046,-0.313736,0.265894,-0.281250,-1.886955,1.019518
424,3413239610,0.850102,-0.291942,-0.319806,0.299707,0.014776,-1.621470,1.447552
425,3413272944,0.832359,-0.300118,-0.324921,0.333972,0.515979,-1.396358,1.481192
426,3413306278,0.811368,-0.312375,-0.329751,0.367930,0.959484,-1.311004,1.671702
427,3413339612,0.786942,-0.327041,-0.335192,0.401768,0.972297,-0.741085,1.080655
428,3413372946,0.756028,-0.348859,-0.344786,0.433411,1.040466,-0.587874,0.450917
429,3413406280,0.718838,-0.375813,-0.359416,0.461368,1.058248,-0.357211,0.335695
430,3413439614,0.680392,-0.400545,-0.375342,0.485543,1.024368,0.054380,0.834878
431,3413472948,0.647014,-0.416716,-0.387184,0.507752,1.133551,0.410936,1.288033
432,3413506282,0.622993,-0.421158,-0.391104,0.530610,0.972728,0.805691,0.406051
433,3413539616,0.606296,-0.417329,-0.389220,0.553852,0.721214,1.059438,-0.490057
434,3413572950,0.593962,-0.409426,-0.384823,0.575755,0.548262,1.085927,-1.203374
435,3413606284,0.581837,-0.402449,-0.383720,0.593518,0.480927,0.984845,-1.163182
436,3413639618,0.568889,-0.399281,-0.387828,0.605420,-0.330119,0.951143,-1.840379
437,3413672952,0.554347,-0.403209,-0.399572,0.608660,0.224305,0.653082,-3.077067
438,3413706286,0.538407,-0.413362,-0.417828,0.603882,1.372805,1.250453,-1.904902
439,3413739620,0.521019,-0.426822,-0.440910,0.593266,2.567404,2.499894,-0.642538
440,3413772954,0.506568,-0.433621,-0.463143,0.583835,2.886971,4.408274,0.455844
441,3413806288,0.497017,-0.422012,-0.480867,0.586218,2.754896,4.386853,-0.166565
442,3413839622,0.484523,-0.394956,-0.502180,0.597550,2.508116,3.888100,-2.185588
443,3413872956,0.461500,-0.369078,-0.536922,0.602095,-0.702431,2.681558,-0.750372
444,3413906290,0.438382,-0.353058,-0.572250,0.596411,-1.692351,-1.099389,0.937215
445,3413939624,0.422274,-0.348428,-0.592797,0.590659,-4.014478,-5.085900,4.786742
446,3413972958,0.416018,-0.353258,-0.593668,0.591355,-5.129008,-6.687142,4.154267
447,3414006292,0.411819,-0.371977,-0.584118,0.592324,-3.294195,-4.942461,2.749982
448,3414039626,0.408447,-0.394539,-0.568409,0.595337,-1.010473,-2.453655,2.842576
449,3414072960,0.409580,-0.412264,-0.543997,0.605271,0.188432,-0.090870,0.857509
450,3414106294,0.408461,-0.430102,-0.522180,0.612783,-0.225962,1.177706,-1.404799
451,3414139628,0.402868,-0.448102,-0.508579,0.615023,0.840076,2.034469,-1.940110
452,3414172962,0.396079,-0.461789,-0.502876,0.613997,0.997670,3.195196,-1.730657
453,3414206296,0.391886,-0.467881,-0.502159,0.612660,0.756898,4.207431,-1.673970
454,3414239630,0.389340,-0.466675,-0.505255,0.612658,0.543194,4.681992,-1.401978
455,3414272964,0.387561,-0.458735,-0.510719,0.615248,-0.041333,4.488218,-1.099408
456,3414306298,0.384977,-0.447629,-0.518709,0.618358,-0.558653,3.594500,-1.161843
457,3414339632,0.383132,-0.437488,-0.527394,0.619414,-1.576729,2.462852,-0.344689
458,3414372966,0.386188,-0.430771,-0.531289,0.618895,-2.450727,1.724274,0.459817
459,3414406300,0.395585,-0.430185,-0.529173,0.615169,-2.675433,1.394925,0.392280
460,3414439634,0.410710,-0.437057,-0.521926,0.606543,-1.883918,1.868441,1.128020
461,3414472968,0.432233,-0.448309,-0.508783,0.594422,-0.975413,2.050543,0.688885
462,3414506302,0.458405,-0.460881,-0.492497,0.578709,-0.261490,2.047060,0.415311
463,3414539636,0.491993,-0.466810,-0.471156,0.563956,0.722688,1.527521,0.608465
464,3414572970,0.529025,-0.463678,-0.449155,0.550816,1.261654,0.124871,-0.654219
465,3414606304,0.561198,-0.456112,-0.434481,0.536888,0.824203,-0.356635,0.646525
466,3414639638,0.593253,-0.438902,-0.421239,0.527236,0.284148,-0.304857,1.446679
467,3414672972,0.627774,-0.410791,-0.403759,0.523578,0.792454,-0.392163,0.650509
468,3414706306,0.662301,-0.378598,-0.385225,0.519256,0.813578,-0.538104,-0.302289
469,3414739640,0.694767,-0.347885,-0.371098,0.508493,0.366421,-0.794410,-0.908075
470,3414772974,0.725981,-0.318851,-0.361261,0.490693,-0.875434,-0.741789,-2.585423
471,3414806308,0.754876,-0.291432,-0.355502,0.467815,-0.963303,-1.278514,-2.730859
472,3414839642,0.779943,-0.265809,-0.356820,0.440133,-0.401619,-1.940942,-2.619848
473,3414872976,0.801342,-0.237567,-0.361788,0.412949,0.937296,-2.633459,0.610319
474,3414906310,0.819849,-0.201278,-0.363303,0.394143,-0.324101,-3.361881,4.235499
475,3414939644,0.830850,-0.167202,-0.363803,0.386500,0.374515,-2.510103,1.635957
476,3414972978,0.830080,-0.163738,-0.371061,0.382719,1.062080,-2.908283,1.421527
477,3415006312,0.821807,-0.177373,-0.380424,0.385295,0.578230,-3.997950,2.016992
478,3415039646,0.810755,-0.190037,-0.387372,0.395612,0.179206,-3.600823,0.864819
479,3415072980,0.798634,-0.199079,-0.391311,0.411620,0.052900,-3.433268,0.194929
480,3415106314,0.785088,-0.206073,-0.393111,0.432017,0.369887,-3.029799,0.004725
481,3415139648,0.768043,-0.216975,-0.395755,0.454327,0.860735,-3.326340,0.779248
482,3415172982,0.742899,-0.238344,-0.405812,0.476039,1.684406,-2.495978,0.097828
483,3415206316,0.706721,-0.273218,-0.425707,0.494646,1.860013,-2.738961,0.701254
484,3415239650,0.662615,-0.308308,-0.450162,0.513075,1.912919,-2.077041,1.082695
485,3415272984,0.616925,-0.332334,-0.472447,0.534561,1.567823,-1.551128,1.267146
486,3415306318,0.575414,-0.338937,-0.487673,0.562316,1.790990,-0.882241,0.624104
487,3415339652,0.537473,-0.332970,-0.497885,0.593605,1.195636,-0.961171,0.481067
488,3415372986,0.503712,-0.314686,-0.502090,0.628615,0.964832,-0.789893,0.756142
489,3415406320,0.472268,-0.292437,-0.502750,0.662337,1.173329,-0.139314,0.668978
490,3415439654,0.441985,-0.272253,-0.502925,0.691085,1.423468,0.074720,-0.034695
491,3415472988,0.413773,-0.255557,-0.503634,0.714030,1.551258,0.828080,0.513056
492,3415506322,0.389001,-0.242603,-0.502322,0.733143,1.677260,1.671201,1.016113
493,3415539656,0.367315,-0.233965,-0.498148,0.749796,1.049936,1.822652,0.278600
494,3415572990,0.347021,-0.232729,-0.494751,0.761997,0.474043,1.786437,-0.756562
495,3415606324,0.327730,-0.239388,-0.496040,0.767616,0.384430,1.693736,-1.827268
496,3415639658,0.309276,-0.249535,-0.503405,0.767247,0.033310,1.721255,-2.475247
497,3415672992,0.293162,-0.259121,-0.516119,0.761930,-0.537470,2.162223,-2.485316
498,3415706326,0.280310,-0.263572,-0.529701,0.755894,-0.464556,3.330206,-1.528546
499,3415739660,0.270352,-0.257973,-0.537695,0.755809,-0.848091,4.605295,-0.580370
500,3415772994,0.259681,-0.242553,-0.541672,0.761793,-0.919303,4.940080,-1.886817
501,3415806328,0.242730,-0.221029,-0.553010,0.765775,-1.046058,3.718825,-2.366932
502,3415839662,0.221133,-0.195923,-0.573008,0.764447,-1.467194,1.539701,-0.531836
503,3415872996,0.200413,-0.172203,-0.597654,0.756964,-1.249956,-2.062312,1.322913
504,3415906330,0.185237,-0.154408,-0.614978,0.750767,-0.667537,-4.186603,4.089725
505,3415939664,0.177612,-0.147945,-0.614191,0.754546,-0.491479,-4.329077,3.942258
506,3415972998,0.174801,-0.156313,-0.608777,0.757895,-0.864799,-3.504218,2.104162
507,3416006332,0.174340,-0.177157,-0.607474,0.754454,-1.442862,-1.674581,1.500072
508,3416039666,0.177823,-0.202138,-0.602071,0.751687,-1.740311,0.292231,1.463244
509,3416073000,0.184958,-0.224233,-0.589977,0.753287,-1.397871,1.432292,-1.048158
510,3416106334,0.191759,-0.242005,-0.583568,0.751075,-0.932645,1.967299,-2.221045
511,3416139668,0.197575,-0.250348,-0.582045,0.748009,-1.178854,3.178499,-1.471666
512,3416173002,0.201500,-0.245778,-0.581435,0.748952,-0.953734,4.224101,-1.725423
513,3416206336,0.201019,-0.229989,-0.582309,0.753403,-0.414499,4.548794,-0.387021
514,3416239670,0.196810,-0.206745,-0.583561,0.760251,-0.314970,2.431687,-0.669983
515,3416273004,0.189678,-0.186379,-0.592423,0.760476,-0.240833,-0.476861,-0.325397
516,3416306338,0.184938,-0.174374,-0.601460,0.757391,0.408457,-3.179747,1.711270
517,3416339672,0.185337,-0.172285,-0.601947,0.757385,0.211387,-3.947439,2.227138
518,3416373006,0.191003,-0.180811,-0.597638,0.757402,-0.190422,-3.876462,1.356603
519,3416406340,0.200113,-0.197176,-0.593199,0.754450,-0.440423,-2.286586,0.898120
520,3416439674,0.211134,-0.217502,-0.589384,0.748830,-0.808628,-1.168528,0.485644
521,3416473008,0.224037,-0.237075,-0.585065,0.742500,-0.841586,0.408087,-0.728823
522,3416506342,0.239342,-0.251293,-0.579976,0.737020,-0.943235,1.851973,-1.103375
523,3416539676,0.255234,-0.258364,-0.574499,0.733525,-1.187749,3.778945,0.045703
524,3416573010,0.271281,-0.256087,-0.562608,0.737768,-1.098328,4.807431,0.424681
525,3416606344,0.283148,-0.248739,-0.547682,0.746997,-0.658609,5.387563,-0.875850
526,3416639678,0.287504,-0.243375,-0.538553,0.753707,-1.270111,4.659689,-0.246911
527,3416673012,0.292602,-0.236820,-0.525104,0.763262,-1.411743,3.402966,0.288403
528,3416706346,0.304997,-0.227696,-0.503063,0.775927,-1.400360,2.774003,-0.130320
529,3416739680,0.327310,-0.217340,-0.472563,0.788872,-0.949761,2.004784,-0.509120
530,3416773014,0.359180,-0.209104,-0.440314,0.795860,-1.041668,1.355002,-0.551135
531,3416806348,0.398182,-0.207415,-0.416855,0.790358,-1.036121,0.769098,-1.645729
532,3416839682,0.439809,-0.219885,-0.413234,0.766459,-0.871641,0.939552,-1.178823
533,3416873016,0.486583,-0.240499,-0.412640,0.731525,0.813873,1.697641,2.998446
534,3416906350,0.544383,-0.248695,-0.390615,0.699445,1.468608,1.209022,1.704881
535,3416939684,0.606832,-0.246773,-0.358785,0.664932,1.257495,1.059978,0.116646
536,3416973018,0.666389,-0.243174,-0.331066,0.622247,1.591231,0.722188,-0.861596
537,3417006352,0.719139,-0.240604,-0.311027,0.572900,2.047923,-0.333446,-0.701503
538,3417039686,0.766714,-0.230262,-0.292702,0.522932,2.404760,-1.667328,0.158448
539,3417073020,0.808154,-0.208719,-0.275929,0.476645,1.529089,-1.952546,-0.640686
540,3417106354,0.838913,-0.191881,-0.268780,0.432628,1.034592,-2.298211,-1.427509
541,3417139688,0.860103,-0.184023,-0.271476,0.390721,0.501952,-2.707111,0.156244
542,3417173022,0.876309,-0.173067,-0.274480,0.356082,1.169029,-3.070909,1.836004
543,3417206356,0.887428,-0.165761,-0.274744,0.330931,0.628232,-2.898182,1.810316
544,3417239690,0.893920,-0.167608,-0.273684,0.312914,0.300577,-2.116804,1.123285
545,3417273024,0.894615,-0.184879,-0.274004,0.300680,-0.059431,-1.908831,0.297918
546,3417306358,0.887450,-0.223421,-0.279185,0.290817,-0.776406,-1.810043,-0.106009
547,3417339692,0.873923,-0.272692,-0.287221,0.281792,-1.303653,-2.261699,0.358084
548,3417373026,0.858341,-0.315846,-0.294394,0.277179,-1.399089,-2.424685,0.315482
549,3417406360,0.845982,-0.341990,-0.297061,0.281276,-1.148731,-3.118213,1.228517
550,3417439694,0.839626,-0.347881,-0.294626,0.295307,-1.092491,-2.720015,1.096725
551,3417473028,0.834258,-0.346617,-0.290556,0.315359,-0.845573,-1.793616,0.308556
552,3417506362,0.820995,-0.358298,-0.289349,0.337448,-0.570949,-1.584166,0.346905
553,3417539696,0.798364,-0.385025,-0.291720,0.359547,-0.467369,-1.953902,1.445312
554,3417573030,0.770139,-0.415552,-0.295490,0.383265,-0.261855,-1.690825,1.738532
555,3417606364,0.740650,-0.442386,-0.297410,0.409004,-0.898348,-1.021089,1.554763
556,3417639698,0.711858,-0.465648,-0.295726,0.434719,-1.112051,-0.010621,1.610044
557,3417673032,0.689112,-0.481850,-0.287714,0.458443,-0.214044,0.133536,1.289642
558,3417706366,0.677248,-0.487788,-0.272548,0.478664,0.510736,0.598533,0.185656
559,3417739700,0.673439,-0.487861,-0.254449,0.493691,1.180288,0.962330,-1.242558
560,3417773034,0.670362,-0.490128,-0.242011,0.501821,1.185963,0.952903,-3.304382
561,3417806368,0.662358,-0.500632,-0.242116,0.502030,1.402025,1.044894,-4.112399
562,3417839702,0.652212,-0.513833,-0.252527,0.496819,2.749399,1.292802,-2.655479
563,3417873036,0.648462,-0.516709,-0.263538,0.493011,4.302763,2.282524,0.065503
564,3417906370,0.655029,-0.501092,-0.268331,0.497842,4.736746,1.955190,-0.237399
565,3417939704,0.655800,-0.483489,-0.276439,0.509658,5.166941,1.099739,-2.078876
566,3417973038,0.632909,-0.487843,-0.305278,0.517923,4.448720,0.910139,-1.085856
567,3418006372,0.600279,-0.496443,-0.346130,0.522884,2.649625,0.272761,0.338271
568,3418039706,0.568662,-0.499032,-0.384881,0.528641,-1.615039,-0.161788,0.774712
569,3418073040,0.544179,-0.497928,-0.411454,0.535393,-5.339830,-1.860394,2.020609
570,3418106374,0.529996,-0.495948,-0.422117,0.543103,-6.034773,-2.771731,4.292579
571,3418139708,0.527058,-0.493617,-0.416238,0.552541,-5.333813,-2.347701,2.927798
572,3418173042,0.526937,-0.499035,-0.403709,0.557068,-4.191298,-1.624297,0.975911
573,3418206376,0.525791,-0.511899,-0.389940,0.556286,-2.371279,-0.043564,1.572392
574,3418239710,0.529879,-0.521587,-0.371587,0.555970,-0.655610,0.787343,0.216074
575,3418273044,0.536360,-0.528297,-0.353769,0.555041,1.288397,1.208660,-0.810897
576,3418306378,0.542429,-0.532763,-0.340758,0.553012,2.454364,2.141504,-0.818841
577,3418339712,0.547928,-0.533340,-0.330409,0.553315,3.651035,2.613999,-0.512336
578,3418373046,0.550608,-0.531477,-0.324685,0.555830,4.415956,2.425537,-1.969774
579,3418406380,0.545737,-0.531904,-0.329362,0.557471,3.855344,1.961843,-2.227015
580,3418439714,0.538056,-0.530140,-0.341475,0.559326,2.420719,1.207402,-2.049675
581,3418473048,0.530253,-0.526212,-0.358564,0.559794,0.123261,0.088217,-1.569491
582,3418506382,0.523851,-0.522444,-0.377599,0.556826,-2.588949,-1.418981,-0.339895
583,3418539716,0.522619,-0.518053,-0.390626,0.553088,-3.754180,-2.616694,1.710704
584,3418573050,0.527890,-0.513642,-0.392090,0.551156,-3.111357,-2.376363,2.992771
585,3418606384,0.534166,-0.515050,-0.386026,0.548067,-2.402971,-1.302929,2.911675
586,3418639718,0.536158,-0.525303,-0.377446,0.542337,-1.715900,-0.613580,1.550352
587,3418673052,0.536503,-0.538480,-0.366991,0.536214,-0.795573,0.300161,1.529413
588,3418706386,0.543392,-0.543489,-0.351030,0.534908,0.298074,1.156666,0.940512
589,3418739720,0.556283,-0.539195,-0.331649,0.538359,1.029836,1.938646,0.217661
590,3418773054,0.572044,-0.528017,-0.310828,0.545301,1.726963,2.561581,0.292944
591,3418806388,0.587481,-0.513692,-0.291104,0.553397,2.035328,2.398751,-0.543503
592,3418839722,0.603354,-0.497068,-0.272356,0.560993,2.454367,2.797257,-0.348867
593,3418873056,0.625993,-0.473332,-0.249679,0.567234,1.320150,2.709674,-0.961510
594,3418906390,0.656334,-0.443057,-0.222596,0.568667,1.160259,2.119748,-2.247367
595,3418939724,0.690145,-0.410635,-0.197907,0.562063,1.310144,0.880666,-2.949043
596,3418973058,0.723022,-0.380369,-0.183749,0.546624,1.003804,0.156137,-2.631561
597,3419006392,0.752963,-0.354899,-0.182939,0.523097,-0.072339,-0.054601,-2.554115
598,3419039726,0.778743,-0.334459,-0.194119,0.493983,-0.681739,-0.515833,-2.851840
599,3419073060,0.800271,-0.318504,-0.214447,0.460585,0.670698,-1.035110,0.053121
600,3419106394,0.820675,-0.296296,-0.237409,0.427015,0.364810,-1.764361,-0.505457
601,3419139728,0.838889,-0.268710,-0.258005,0.396860,0.510781,-2.262344,2.239685
602,3419173062,0.855454,-0.234456,-0.272587,0.372731,-0.514689,-2.381148,2.489904
603,3419206396,0.865766,-0.208697,-0.285443,0.354148,-0.616115,-1.482442,1.275828
604,3419239730,0.869870,-0.198173,-0.295105,0.342010,-0.400977,-2.392464,2.913116
605,3419273064,0.869803,-0.199446,-0.301504,0.335802,-0.636063,-2.413517,2.247258
606,3419306398,0.867924,-0.206817,-0.303953,0.333994,-0.889600,-2.118686,1.309753
607,3419339732,0.865009,-0.216762,-0.303521,0.335638,-0.866790,-1.916750,0.782806
608,3419373066,0.862131,-0.225174,-0.300332,0.340339,-0.702956,-1.677113,1.197315
609,3419406400,0.859920,-0.228895,-0.294343,0.348583,-0.777804,-0.997601,0.821028
610,3419439734,0.854899,-0.237836,-0.289437,0.358905,-0.729394,-0.377866,0.392756
611,3419473068,0.844850,-0.257019,-0.287810,0.370593,-0.625669,-0.555236,0.473342
612,3419506402,0.830756,-0.280825,-0.288433,0.384437,-0.306493,-0.858990,0.643126
613,3419539736,0.814823,-0.303189,-0.289179,0.400649,-0.003838,-1.049849,0.473867
614,3419573070,0.802687,-0.311474,-0.285116,0.421177,0.444775,-2.069323,1.251809
615,3419606404,0.797603,-0.298042,-0.274451,0.446857,0.294306,-1.316589,0.315246
616,3419639738,0.795037,-0.277205,-0.261289,0.472022,-0.499731,-0.284346,-0.941748
617,3419673072,0.787227,-0.268656,-0.254758,0.493152,-0.098087,-0.359095,-0.521422
618,3419706406,0.773319,-0.273768,-0.256972,0.510879,1.089911,-0.849298,0.325346
619,3419739740,0.757127,-0.278678,-0.260915,0.530117,1.937534,-1.429156,0.695718
620,3419773074,0.737798,-0.280774,-0.265932,0.553266,2.087986,-1.768169,0.641040
621,3419806408,0.719023,-0.270579,-0.264591,0.582914,3.609949,-3.085798,1.882164
622,3419839742,0.701609,-0.243954,-0.252830,0.619928,2.304779,-1.713387,0.490438
623,3419873076,0.677451,-0.227067,-0.243555,0.655885,1.773867,-0.844614,-0.584923
624,3419906410,0.645549,-0.225069,-0.243605,0.687947,2.246159,-0.281811,-0.587020
625,3419939744,0.610863,-0.229390,-0.249993,0.715356,1.847539,0.310260,-0.356057
626,3419973078,0.576869,-0.235452,-0.258751,0.738130,1.170062,1.182101,-0.294347
627,3420006412,0.543580,-0.245112,-0.271553,0.755449,0.089927,0.884443,0.009153
628,3420039746,0.517295,-0.250929,-0.275914,0.770270,0.185656,0.454338,1.970555
629,3420073080,0.500481,-0.248884,-0.267165,0.784985,-0.470682,0.413893,0.389580
630,3420106414,0.487625,-0.248683,-0.259981,0.795482,-0.769697,0.855922,-0.431898
631,3420139748,0.476519,-0.250738,-0.257981,0.802190,-0.690585,2.659256,-0.292804
632,3420173082,0.467324,-0.250863,-0.256703,0.807950,-0.491300,3.175770,-1.173076
633,3420206416,0.457249,-0.250748,-0.260407,0.812552,-0.510234,2.970234,-1.973519
634,3420239750,0.446331,-0.249723,-0.267790,0.816529,0.504995,3.679065,-1.225807
635,3420273084,0.435022,-0.242532,-0.273915,0.822744,1.206943,1.747882,-1.655895
636,3420306418,0.420475,-0.231100,-0.284294,0.830045,0.935909,0.392615,-1.097993
637,3420339752,0.400683,-0.219334,-0.301925,0.836774,1.055582,-0.178563,-0.481487
638,3420373086,0.377239,-0.208262,-0.324762,0.841933,0.795207,-0.654898,-0.121943
639,3420406420,0.354320,-0.198795,-0.345387,0.845961,0.397169,-0.662926,1.397930
640,3420439754,0.336648,-0.190965,-0.356395,0.850404,-0.207947,-0.512054,2.239814
641,3420473088,0.324944,-0.187832,-0.357786,0.855058,-1.046025,-0.778132,1.481125
642,3420506422,0.316775,-0.192893,-0.359688,0.856198,-1.404628,-0.776370,0.811954
643,3420539756,0.310626,-0.202928,-0.364391,0.854140,-1.395865,-0.179063,0.366504
644,3420573090,0.306354,-0.213607,-0.369208,0.851004,-1.236167,0.593888,0.239228
645,3420606424,0.303893,-0.220911,-0.372214,0.848710,-1.065542,1.224308,-0.534580
646,3420639758,0.302177,-0.224616,-0.375436,0.846929,-0.940385,1.904910,-1.163815
647,3420673092,0.300453,-0.225094,-0.379347,0.845672,-0.943990,2.831273,-0.850701
648,3420706426,0.298129,-0.222789,-0.381464,0.846152,-1.536370,3.512041,-0.498245
649,3420739760,0.293817,-0.218328,-0.380319,0.849333,-0.472936,2.990983,-0.896152
650,3420773094,0.285278,-0.211790,-0.383210,0.852593,-0.063170,1.524732,-1.522898
651,3420806428,0.273965,-0.205461,-0.394265,0.852812,-0.799122,0.020148,-0.586127
652,3420839762,0.264142,-0.201352,-0.410422,0.849261,-0.719172,-1.444187,0.539871
653,3420873096,0.258685,-0.200056,-0.426170,0.843471,-0.243525,-1.915240,1.632048
654,3420906430,0.260051,-0.200411,-0.433492,0.839225,-0.071649,-2.126467,2.884764
655,3420939764,0.267483,-0.200528,-0.428175,0.839590,-0.343677,-1.637414,2.517668
656,3420973098,0.275489,-0.203266,-0.420482,0.840231,-0.389785,-1.247350,0.952951
657,3421006432,0.282140,-0.208884,-0.416163,0.838795,-0.621169,-0.428859,0.746638
658,3421039766,0.289935,-0.213342,-0.409871,0.838112,-0.840396,0.551109,0.007666
659,3421073100,0.298704,-0.215772,-0.403434,0.837534,-1.405309,1.382732,-0.940349
660,3421106434,0.307063,-0.217447,-0.399772,0.835832,-1.566963,2.305551,-0.779678
661,3421139768,0.314570,-0.216647,-0.395346,0.835353,-1.731736,3.178756,-0.425837
662,3421173102,0.319887,-0.214607,-0.389289,0.836704,-2.247291,4.124609,-0.575351
663,3421206436,0.322061,-0.214849,-0.383919,0.838288,-2.257226,4.069276,-0.913022
664,3421239770,0.321793,-0.218276,-0.381037,0.838820,-2.379396,4.043747,-0.722768
665,3421273104,0.322035,-0.224221,-0.379203,0.837990,-2.328049,3.072230,-1.046129
666,3421306438,0.325688,-0.232240,-0.378016,0.834925,-2.207978,2.854748,-0.676235
667,3421339772,0.336274,-0.240924,-0.375557,0.829359,-1.595051,2.254386,-0.815288
668,3421373106,0.356187,-0.248825,-0.372762,0.819920,-0.835632,1.910307,-1.137872
669,3421406440,0.385348,-0.256040,-0.372967,0.804270,-0.133535,1.642788,-1.350790
670,3421439774,0.422176,-0.263059,-0.377948,0.780850,0.511255,1.076170,-1.923010
671,3421473108,0.463471,-0.271452,-0.389856,0.748014,1.391182,1.280082,-1.451825
672,3421506442,0.509066,-0.277232,-0.401820,0.708899,1.792792,0.429998,-0.285956
673,3421539776,0.561333,-0.268688,-0.403576,0.670702,2.103319,-0.272378,1.449759
674,3421573110,0.619657,-0.236792,-0.389492,0.638948,2.382652,-0.748017,1.781706
675,3421606444,0.675345,-0.188618,-0.370620,0.609079,1.362928,-1.003348,-0.956458
676,3421639778,0.718504,-0.148403,-0.367108,0.571808,1.922858,-0.928749,-0.443353
677,3421673112,0.750254,-0.115705,-0.375758,0.531546,2.577579,-1.891684,0.196203
678,3421706446,0.773714,-0.076358,-0.385998,0.496533,1.386121,-2.538218,1.162759
679,3421739780,0.789476,-0.036523,-0.398813,0.465130,1.556669,-2.857229,3.150030
680,3421773114,0.798220,-0.003485,-0.410503,0.440822,0.825306,-3.122575,2.432385
681,3421806448,0.802862,0.012391,-0.422301,0.420623,0.546544,-2.804333,1.596709
682,3421839782,0.804866,0.007000,-0.433345,0.405410,1.302799,-3.208549,2.102082
683,3421873116,0.805620,-0.005853,-0.437593,0.399322,0.870258,-4.319618,1.930656
684,3421906450,0.805328,-0.019203,-0.435590,0.401676,0.315082,-3.483249,0.875894
685,3421939784,0.803212,-0.036325,-0.431336,0.409249,-0.030214,-2.862606,0.485043
686,3421973118,0.798280,-0.057617,-0.426370,0.421474,0.064662,-2.833691,0.888378
687,3422006452,0.789846,-0.081989,-0.421346,0.438055,0.265902,-2.624257,0.882705
688,3422039786,0.777407,-0.109558,-0.416402,0.458529,0.702187,-2.407510,1.930112
689,3422073120,0.762754,-0.133140,-0.406551,0.484975,0.919265,-1.886309,2.337349
690,3422106454,0.747665,-0.148732,-0.389595,0.516812,0.650922,-0.883613,1.080575
691,3422139788,0.730568,-0.163873,-0.370720,0.549533,0.849634,-0.264960,0.602779
692,3422173122,0.709345,-0.183858,-0.356021,0.579895,0.894333,0.219791,0.101944
693,3422206456,0.682976,-0.209929,-0.349736,0.605939,0.256419,0.569354,-0.455527
694,3422239790,0.651254,-0.241626,-0.353369,0.626593,-0.179636,0.759061,-0.567953
695,3422273124,0.618526,-0.272934,-0.360664,0.642540,-0.709145,0.519431,-0.051422
696,3422306458,0.591564,-0.294643,-0.362259,0.657275,-0.749065,0.906413,0.110384
697,3422339792,0.573804,-0.304453,-0.354611,0.672542,-0.639378,1.126550,-0.516652
698,3422373126,0.563442,-0.306905,-0.342890,0.686129,-0.526211,1.189273,-1.460364
699,3422406460,0.556900,-0.307136,-0.334011,0.695680,-0.215379,1.363087,-1.946316
700,3422439794,0.552010,-0.308214,-0.329925,0.701029,0.430850,2.127638,-1.221699
701,3422473128,0.549176,-0.308214,-0.327970,0.704166,1.174792,2.431385,-1.118718
702,3422506462,0.547734,-0.305101,-0.327141,0.707024,1.919509,2.242453,-1.850047
703,3422539796,0.545846,-0.299830,-0.329692,0.709550,1.757976,1.903293,-1.494954
704,3422573130,0.541504,-0.293531,-0.339896,0.710695,1.432453,1.790491,-1.109103
705,3422606464,0.532748,-0.286442,-0.359066,0.710779,1.164389,1.375669,-0.441439
706,3422639798,0.520369,-0.275854,-0.383129,0.711574,0.513871,0.856189,-0.048229
707,3422673132,0.503443,-0.265285,-0.412025,0.711623,-0.235367,-0.395453,-1.126206
708,3422706466,0.481153,-0.260788,-0.449947,0.705715,0.381654,-0.776625,-0.493268
709,3422739800,0.460893,-0.256390,-0.482196,0.699523,-0.863923,-1.612764,2.386945
710,3422773134,0.450152,-0.250507,-0.496935,0.698333,-2.731776,-2.902426,2.984219
711,3422806468,0.447894,-0.250110,-0.496774,0.700040,-2.158807,-2.905833,2.092518
712,3422839802,0.449315,-0.261604,-0.490832,0.699119,-1.658023,-2.336953,2.371127
713,3422873136,0.451433,-0.282909,-0.482218,0.695442,-1.303281,-1.442568,1.848601
714,3422906470,0.453293,-0.308979,-0.470978,0.690826,-0.693021,-0.514584,1.111856
715,3422939804,0.454442,-0.334537,-0.458356,0.686645,-0.119880,0.557361,0.346043
716,3422973138,0.455238,-0.354886,-0.444984,0.684695,0.078634,1.431872,-0.183975
717,3423006472,0.457151,-0.366222,-0.430331,0.686814,0.384363,2.430741,-0.281027
718,3423039806,0.460413,-0.367408,-0.415581,0.693057,0.698518,2.929733,-1.127879
719,3423073140,0.461432,-0.362875,-0.406680,0.700013,1.023306,3.172166,-1.494972
720,3423106474,0.458243,-0.356237,-0.407731,0.704889,1.491120,2.191882,-2.575506
721,3423139808,0.452234,-0.347801,-0.416882,0.707624,1.300883,1.727666,-1.707299
722,3423173142,0.447211,-0.337290,-0.429499,0.708359,-0.325274,0.890068,-0.998352
723,3423206476,0.445141,-0.328990,-0.442294,0.705688,-1.430335,-0.069518,-0.380414
724,3423239810,0.447563,-0.326823,-0.451759,0.699136,-1.518469,-0.330911,1.008108
725,3423273144,0.456109,-0.331385,-0.455392,0.689036,-2.360412,-0.117668,1.967312
726,3423306478,0.469163,-0.342292,-0.452500,0.676734,-2.446766,0.551259,2.026276
727,3423339812,0.484749,-0.358171,-0.443868,0.663112,-2.032369,1.458889,1.926842
728,3423373146,0.504394,-0.373178,-0.427831,0.650607,-1.670052,1.927398,1.436190
729,3423406480,0.529271,-0.382196,-0.404282,0.640592,-0.972118,2.194081,0.605700
730,3423439814,0.557836,-0.384791,-0.377171,0.631269,-0.303165,2.337296,0.061391
731,3423473148,0.587020,-0.383396,-0.351066,0.620622,0.398472,2.372756,0.025005
732,3423506482,0.616234,-0.378358,-0.326860,0.608496,1.151528,2.092987,-0.209351
733,3423539816,0.647926,-0.365487,-0.301852,0.596239,1.866882,1.393983,-0.102748
734,3423573150,0.681462,-0.344575,-0.277468,0.583004,1.869096,0.641611,-0.958772
735,3423606484,0.715072,-0.318390,-0.257382,0.566620,1.674496,-0.264987,-1.849689
736,3423639818,0.746101,-0.291430,-0.245637,0.545957,1.077850,-0.785238,-2.852585
737,3423673152,0.774352,-0.265388,-0.242805,0.520575,0.881928,-1.076708,-2.288100
738,3423706486,0.800636,-0.238297,-0.246566,0.491330,0.996497,-1.509519,-2.058757
739,3423739820,0.822455,-0.216166,-0.258764,0.458132,1.777214,-1.651027,0.265973
740,3423773154,0.841937,-0.197891,-0.268432,0.424181,1.125169,-2.189276,3.475991
741,3423806488,0.857249,-0.186976,-0.276192,0.392284,-0.423668,-1.229572,-0.577891
742,3423839822,0.862800,-0.200635,-0.289022,0.363032,1.069220,-2.592209,1.064022
743,3423873156,0.861996,-0.222797,-0.300503,0.342092,0.267123,-4.092518,2.345429
744,3423906490,0.859270,-0.238468,-0.308144,0.331419,-0.828694,-3.999266,0.767758
745,3423939824,0.854406,-0.247926,-0.314830,0.330769,-1.234510,-3.510217,0.265997
746,3423973158,0.846638,-0.253827,-0.321364,0.339860,-1.189412,-3.185174,0.546625
747,3424006492,0.835856,-0.257215,-0.327192,0.357960,-0.975353,-2.780746,0.867876
748,3424039826,0.821558,-0.260469,-0.332449,0.382987,-0.584424,-2.384597,1.152901
749,3424073160,0.804171,-0.263007,-0.336743,0.413212,-0.208549,-2.045761,1.040417
750,3424106494,0.783769,-0.263771,-0.340920,0.447111,0.266803,-1.559225,0.740084
751,3424139828,0.762007,-0.260783,-0.343607,0.482986,0.083590,-0.631914,0.872100
752,3424173162,0.740513,-0.255870,-0.343559,0.517825,-0.580755,0.017050,0.256416
753,3424206496,0.718743,-0.256066,-0.343559,0.547548,-0.730142,0.072971,-0.120223
754,3424239830,0.696959,-0.263729,-0.345057,0.570645,-0.189191,0.078951,0.144401
755,3424273164,0.676324,-0.276200,-0.345856,0.588801,0.838634,-0.104580,0.985219
756,3424306498,0.657730,-0.289746,-0.344634,0.603879,0.752552,0.063646,0.618030
757,3424339832,0.639086,-0.307233,-0.344500,0.615223,0.775568,0.273268,-0.081801
758,3424373166,0.616639,-0.331710,-0.349786,0.622397,1.516217,0.411881,-0.138206
759,3424406500,0.588723,-0.361428,-0.362125,0.625815,1.946447,0.605614,-0.603469
760,3424439834,0.555527,-0.392607,-0.380954,0.626201,1.971241,0.875312,-0.991979
761,3424473168,0.519047,-0.421422,-0.404409,0.624060,1.943558,1.051436,-1.086231
762,3424506502,0.483816,-0.443035,-0.429105,0.620898,1.885491,1.445868,-0.715739
763,3424539836,0.455166,-0.453023,-0.450470,0.620221,1.457998,1.903668,-0.540407
764,3424573170,0.436233,-0.450505,-0.465268,0.624720,0.471841,2.071308,-0.481830
765,3424606504,0.422706,-0.439285,-0.477230,0.632932,0.654783,2.241743,-1.002274
766,3424639838,0.403792,-0.427310,-0.498997,0.636682,0.471276,2.720149,-1.386967
767,3424673172,0.379379,-0.413448,-0.529348,0.636339,0.460874,2.664431,-0.548997
768,3424706506,0.355655,-0.393990,-0.559946,0.636197,-0.740446,1.972098,0.192555
769,3424739840,0.337051,-0.370296,-0.585310,0.637725,-0.948593,0.853807,-0.094838
770,3424773174,0.320893,-0.349423,-0.609576,0.635101,-1.194683,-0.597943,0.579682
771,3424806508,0.308611,-0.333965,-0.628628,0.630918,-2.256462,-2.255018,1.736766
772,3424839842,0.301056,-0.325455,-0.638031,0.629575,-2.106773,-3.100195,2.226067
773,3424873176,0.296407,-0.324847,-0.638609,0.631506,-1.670859,-3.081182,2.395567
774,3424906510,0.292314,-0.332115,-0.634269,0.634002,-1.350330,-2.542835,1.946733
775,3424939844,0.287699,-0.345596,-0.626796,0.636336,-1.110670,-1.916133,1.587870
776,3424973178,0.282739,-0.362594,-0.616706,0.638953,-0.946270,-1.294730,1.041481
777,3425006512,0.278584,-0.379979,-0.603666,0.643116,-0.809737,-0.601439,0.564344
778,3425039846,0.276226,-0.395175,-0.588099,0.649368,-0.394118,0.282240,-0.055595
779,3425073180,0.275578,-0.406721,-0.572419,0.656487,-0.198016,1.317041,-0.259157
780,3425106514,0.277984,-0.411796,-0.556923,0.665575,-0.118150,2.064348,-0.702196
781,3425139848,0.280668,-0.411396,-0.545916,0.673764,-0.052224,2.712758,-1.293456
782,3425173182,0.281978,-0.406783,-0.541713,0.679387,0.177134,3.058488,-1.694037
783,3425206516,0.283062,-0.397903,-0.543028,0.683135,0.549437,3.230284,-1.879097
784,3425239850,0.284494,-0.385190,-0.548582,0.685386,0.242871,3.131221,-1.556553
785,3425273184,0.287375,-0.369836,-0.557142,0.685736,-0.457265,2.349066,-1.828583
786,3425306518,0.292051,-0.355320,-0.569559,0.681220,-1.009998,1.700491,-1.613571
787,3425339852,0.301159,-0.343027,-0.582783,0.672312,-1.311096,1.232093,-1.325418
788,3425373186,0.318630,-0.331621,-0.590940,0.662795,-1.750399,0.887297,0.128327
789,3425406520,0.350524,-0.314935,-0.583538,0.661389,-1.562125,0.728688,1.570621
790,3425439854,0.399552,-0.284722,-0.552454,0.673862,-0.766450,0.488154,1.902983
791,3425473188,0.460210,-0.235250,-0.497845,0.696433,0.156066,0.283327,0.961735
792,3425506522,0.520795,-0.171392,-0.433985,0.714883,0.026728,0.156273,-0.245982
793,3425539856,0.572231,-0.107995,-0.380113,0.718614,-1.293656,0.287111,-1.510497
794,3425573190,0.610023,-0.068535,-0.358648,0.703243,-2.506216,0.379137,-1.705409
795,3425606524,0.637796,-0.060934,-0.372491,0.671385,-0.969229,0.733522,-0.740986
796,3425639858,0.660793,-0.069606,-0.398473,0.632243,1.493874,0.123310,0.677632
797,3425673192,0.684220,-0.061551,-0.407937,0.601369,2.972791,-1.260772,3.224172
798,3425706526,0.706998,-0.032929,-0.398609,0.583253,2.262368,-0.621839,2.866585
799,3425739860,0.725662,-0.012837,-0.389041,0.567364,2.314888,-0.345090,2.753734
800,3425773194,0.742180,-0.007012,-0.379595,0.552296,0.781581,-1.010968,1.812783
801,3425806528,0.756892,-0.015774,-0.373528,0.536048,0.026248,-0.891682,0.133150
802,3425839862,0.770187,-0.034065,-0.369830,0.518538,0.696681,-1.168730,0.005539
803,3425873196,0.782321,-0.054708,-0.364816,0.501890,1.022743,-1.110389,0.175166
804,3425906530,0.792881,-0.077005,-0.359344,0.486092,0.571341,-0.712831,-0.118560
805,3425939864,0.800833,-0.103831,-0.355685,0.470508,0.099181,-0.613014,-0.841277
806,3425973198,0.805310,-0.134972,-0.355521,0.454826,0.251123,-0.894481,-0.333212
807,3426006532,0.806833,-0.165267,-0.357094,0.440676,0.081265,-1.114012,-0.246731
808,3426039866,0.806842,-0.189020,-0.358374,0.429941,0.033716,-1.112849,0.084643
809,3426073200,0.806088,-0.204659,-0.359012,0.423617,-0.003177,-1.038143,0.172056
810,3426106534,0.804663,-0.213247,-0.359386,0.421769,0.240708,-1.139417,0.280352
811,3426139868,0.802909,-0.215414,-0.359122,0.424227,0.168242,-1.264469,0.270210
812,3426173202,0.801299,-0.211181,-0.357629,0.430613,0.035893,-1.273445,0.488806
813,3426206536,0.799555,-0.202253,-0.355005,0.440205,-0.051454,-1.312905,0.487534
814,3426239870,0.796413,-0.192387,-0.352725,0.451999,-0.038026,-1.131366,-0.004936
815,3426273204,0.790965,-0.184638,-0.352155,0.465053,0.110415,-1.181482,-0.231013
816,3426306538,0.783240,-0.179172,-0.353267,0.479207,0.451274,-1.441574,0.358763
817,3426339872,0.773870,-0.173188,-0.353929,0.495852,0.377946,-1.244472,0.165492
818,3426373206,0.762332,-0.169419,-0.355162,0.513819,0.450709,-1.358116,0.303998
819,3426406540,0.748512,-0.168554,-0.357622,0.532381,0.345661,-1.309562,0.398355
820,3426439874,0.731401,-0.173506,-0.364122,0.549879,0.425825,-1.402236,0.310462
821,3426473208,0.710501,-0.183100,-0.374359,0.567028,0.740278,-1.443127,0.176257
822,3426506542,0.685843,-0.194311,-0.386070,0.585505,1.200146,-1.373072,0.346180
823,3426539876,0.657942,-0.204291,-0.397983,0.605798,1.704458,-1.136291,0.554512
824,3426573210,0.628122,-0.210597,-0.408703,0.627756,2.007163,-0.959766,0.753380
825,3426606544,0.597315,-0.212566,-0.417050,0.651233,1.977789,-0.318446,0.681772
826,3426639878,0.565322,-0.211813,-0.423586,0.675370,1.784662,0.221670,0.394103
827,3426673212,0.531546,-0.210691,-0.430343,0.698482,1.603535,0.752970,0.368674
828,3426706546,0.495477,-0.210867,-0.439538,0.718921,1.260346,0.987587,0.005218
829,3426739880,0.456572,-0.213523,-0.452444,0.735696,0.503649,1.007520,-0.135306
830,3426773214,0.416790,-0.217597,-0.467893,0.748343,0.205298,0.802586,-0.192576
831,3426806548,0.380349,-0.218824,-0.480959,0.759035,-0.458721,0.176356,-0.288453
832,3426839882,0.350069,-0.214609,-0.487886,0.770302,-0.393234,0.176500,-0.594881
833,3426873216,0.327520,-0.204471,-0.488740,0.782342,-0.503190,0.354901,-0.341814
834,3426906550,0.311302,-0.191091,-0.484635,0.794801,-0.873836,0.719132,-0.344030
835,3426939884,0.297155,-0.180926,-0.484305,0.802756,-0.826519,0.806918,-0.879438
836,3426973218,0.281902,-0.177535,-0.495592,0.802126,-0.564534,1.416314,-0.909711
837,3427006552,0.264808,-0.180604,-0.518421,0.792781,-0.439401,2.486519,0.223646
838,3427039886,0.248347,-0.183341,-0.539337,0.783473,-0.345395,3.196671,1.364347
839,3427073220,0.234276,-0.177114,-0.544543,0.785635,0.250562,3.333673,0.713387
840,3427106554,0.218674,-0.162021,-0.542226,0.794937,0.056805,3.243657,-0.340133
841,3427139888,0.195844,-0.142313,-0.546618,0.801626,-0.289595,2.711620,-1.449777
842,3427173222,0.166501,-0.119393,-0.559425,0.803163,-1.238326,2.321536,-0.064867
843,3427206556,0.136292,-0.094410,-0.571992,0.803331,-1.853637,-0.022321,0.221448
844,3427239890,0.109611,-0.072371,-0.583176,0.801659,-1.630880,-2.249868,0.262270
845,3427273224,0.090024,-0.060328,-0.594817,0.796525,-1.353501,-4.316256,1.769171
846,3427306558,0.080402,-0.061451,-0.603677,0.790783,-0.938910,-4.995257,2.127788
847,3427339892,0.080254,-0.075234,-0.606757,0.787241,-0.988858,-3.862324,2.128839
848,3427373226,0.087845,-0.097665,-0.602351,0.787351,-1.456048,-1.862841,1.993717
849,3427406560,0.098956,-0.124658,-0.594623,0.788096,-1.291767,-0.162275,0.298802
850,3427439894,0.108023,-0.151549,-0.593444,0.783066,-0.557659,0.988309,-1.031249
851,3427473228,0.115022,-0.169878,-0.594358,0.777595,-0.128237,1.812617,-1.322847
852,3427506562,0.123038,-0.174779,-0.590936,0.777890,-0.090069,2.363356,-2.438579
853,3427539896,0.130057,-0.169060,-0.591630,0.777484,0.113323,3.608489,-3.105328
854,3427573230,0.133547,-0.156116,-0.594765,0.777207,-0.597459,5.521239,0.267300
855,3427606564,0.132029,-0.137466,-0.589427,0.785016,-1.084397,4.460712,-0.054146
856,3427639898,0.122562,-0.120485,-0.592515,0.787015,-0.942415,1.529922,-0.361044
857,3427673232,0.108868,-0.109841,-0.610140,0.777056,-0.071424,-2.423591,0.116954
858,3427706566,0.098074,-0.107487,-0.628912,0.763742,0.871838,-4.132338,2.612143
859,3427739900,0.095271,-0.114146,-0.634654,0.758362,0.617906,-4.593902,2.412878
860,3427773234,0.099521,-0.131312,-0.634945,0.754786,-0.136907,-3.446213,1.741242
861,3427806568,0.108279,-0.156036,-0.632891,0.750588,-0.221288,-1.818001,1.257321
862,3427839902,0.120265,-0.181313,-0.626010,0.748851,-0.092174,-0.168342,-0.151736
863,3427873236,0.132663,-0.202105,-0.619812,0.746586,-1.113142,0.421358,-0.519855
864,3427906570,0.144875,-0.214753,-0.612755,0.746611,-0.282508,1.847770,-1.101130
865,3427939904,0.153802,-0.218565,-0.610799,0.745320,-0.136455,2.036448,-1.258834
866,3427973238,0.160637,-0.214132,-0.610827,0.745143,-0.516614,2.853443,-0.658748
867,3428006572,0.166633,-0.203231,-0.606774,0.750173,-0.476066,3.580723,-0.587717
868,3428039906,0.170301,-0.188083,-0.598364,0.759991,-1.561632,3.937119,-0.084351
869,3428073240,0.169275,-0.173633,-0.590605,0.769667,-2.729693,3.439449,-0.718754
870,3428106574,0.163559,-0.165477,-0.588075,0.774621,-3.167700,2.753525,-0.710853
871,3428139908,0.160423,-0.162774,-0.581637,0.780687,-3.624018,2.611277,0.997043
872,3428173242,0.166392,-0.164208,-0.562152,0.793309,-4.162540,1.501109,-0.123475
873,3428206576,0.181955,-0.172077,-0.538321,0.804672,-3.940705,1.944731,0.346173
874,3428239910,0.210025,-0.183588,-0.508324,0.814737,-3.296853,2.470045,1.337616
875,3428273244,0.252109,-0.194636,-0.470436,0.822953,-2.151351,1.356799,-0.078540
876,3428306578,0.304121,-0.203964,-0.432299,0.824033,-1.188298,1.764870,0.123743
877,3428339912,0.364546,-0.209954,-0.396023,0.816208,-0.156263,2.022096,0.166860
878,3428373246,0.431975,-0.210846,-0.361130,0.799081,1.309630,2.099023,-0.029389
879,3428406580,0.504674,-0.202962,-0.325198,0.773538,2.825389,1.576234,-0.591013
880,3428439914,0.578721,-0.182940,-0.286659,0.741246,4.012448,0.839901,-0.539438
881,3428473248,0.648080,-0.152578,-0.250541,0.702812,3.321659,-0.535891,-1.477127
882,3428506582,0.706949,-0.124386,-0.228043,0.657839,2.849064,-0.664866,-0.404469
883,3428539916,0.754012,-0.106499,-0.219302,0.609946,3.343057,-1.138516,0.423648
884,3428573250,0.789210,-0.105551,-0.225033,0.561579,2.893557,-1.777212,-1.332955
885,3428606584,0.813781,-0.124107,-0.243167,0.513061,3.187109,-2.464819,-1.289339
886,3428639918,0.833392,-0.138257,-0.256245,0.469771,2.783725,-4.353659,1.050054
887,3428673252,0.850588,-0.135128,-0.260138,0.436547,1.688216,-4.166622,0.807387
888,3428706586,0.862433,-0.133838,-0.263967,0.410636,0.616959,-3.209786,0.345740
889,3428739920,0.866462,-0.148817,-0.272198,0.391163,0.575354,-3.446349,1.034457
890,3428773254,0.863573,-0.173539,-0.282733,0.379725,0.067806,-3.571655,0.841914
891,3428806588,0.855167,-0.200194,-0.294491,0.376685,-0.887552,-3.156588,0.221199
892,3428839922,0.840388,-0.231635,-0.309602,0.379794,-1.294143,-2.793217,0.125748
893,3428873256,0.819341,-0.265409,-0.327245,0.388784,-0.970429,-3.084300,1.062071
894,3428906590,0.795198,-0.291141,-0.344534,0.405213,-0.846939,-2.450452,0.905996
895,3428939924,0.767060,-0.313701,-0.361744,0.427030,-0.913111,-1.522101,1.258305
896,3428973258,0.735765,-0.336772,-0.378396,0.449504,-1.087030,-0.902981,1.129484
897,3429006592,0.702875,-0.361462,-0.392893,0.470054,-1.047703,-0.902376,0.993855
898,3429039926,0.671878,-0.384704,-0.402710,0.488274,-1.298825,-0.774909,1.274326
899,3429073260,0.647137,-0.401720,-0.404899,0.505862,-1.565862,-0.550921,1.291634
900,3429106594,0.628446,-0.412816,-0.400523,0.523664,-0.853858,-0.335903,0.544791
901,3429139928,0.612225,-0.422925,-0.395050,0.538751,0.197314,-0.170353,0.193168
902,3429173262,0.595895,-0.433419,-0.391910,0.550878,1.535281,0.260000,-0.044171
903,3429206596,0.577929,-0.445117,-0.393557,0.559452,1.836046,0.687992,-0.718896
904,3429239930,0.561275,-0.453955,-0.398112,0.566044,2.298201,1.231948,-0.598579
905,3429273264,0.550257,-0.453720,-0.401404,0.574660,2.960335,2.232396,0.319281
906,3429306598,0.544357,-0.442638,-0.402618,0.587919,3.087980,2.564087,-0.697580
907,3429339932,0.534572,-0.428977,-0.409118,0.602360,3.225266,3.185164,-0.764039
908,3429373266,0.513788,-0.419435,-0.429227,0.613078,2.727708,2.743126,-1.311701
909,3429406600,0.483488,-0.411550,-0.461230,0.619788,2.164859,2.657071,-0.590509
910,3429439934,0.451570,-0.397953,-0.495282,0.626432,1.022570,1.809923,-0.959836
911,3429473268,0.419818,-0.383723,-0.528816,0.629974,-1.296245,0.755894,-0.050788
912,3429506602,0.392624,-0.372935,-0.556063,0.630526,-3.242510,-1.163073,0.078940
913,3429539936,0.372244,-0.370698,-0.573229,0.628832,-3.738472,-2.583497,1.219462
914,3429573270,0.362023,-0.375954,-0.577355,0.627904,-4.079391,-3.293826,1.578041
915,3429606604,0.360561,-0.388535,-0.571471,0.626467,-3.422212,-2.796734,1.129933
916,3429639938,0.363811,-0.407580,-0.560333,0.622535,-1.873926,-1.486020,1.251619
917,3429673272,0.368004,-0.431486,-0.547359,0.615463,-1.052970,-0.297971,0.873872
918,3429706606,0.373429,-0.454929,-0.532532,0.608279,-0.585429,0.113359,0.000566
919,3429739940,0.380913,-0.473701,-0.518560,0.601342,0.889016,0.830076,-1.008315
920,3429773274,0.387470,-0.488648,-0.511319,0.591309,1.165141,2.402767,-0.227731
921,3429806608,0.400280,-0.491680,-0.501791,0.588419,1.584938,3.830325,1.338709
922,3429839942,0.417092,-0.482389,-0.488965,0.595191,2.349576,3.957409,-0.103905
923,3429873276,0.427322,-0.470472,-0.482104,0.603019,1.307547,3.252622,-1.418148
924,3429906610,0.433206,-0.457910,-0.481737,0.608756,0.701591,3.032827,-1.387216
925,3429939944,0.442611,-0.442936,-0.481671,0.613107,0.063663,2.586944,-1.576811
926,3429973278,0.459816,-0.426857,-0.477907,0.614794,0.289413,1.764562,-2.588019
927,3430006612,0.480249,-0.415301,-0.476927,0.607808,1.184526,1.325965,-3.222533
928,3430039946,0.499168,-0.412152,-0.486804,0.586505,0.994029,1.026157,-2.595459
929,3430073280,0.525071,-0.408016,-0.496927,0.557576,-0.072439,1.276575,1.240362
930,3430106614,0.565956,-0.391319,-0.494391,0.531173,0.083877,0.193813,0.587141
931,3430139948,0.616257,-0.362200,-0.480659,0.507946,0.276634,-0.854591,-0.520734
932,3430173282,0.666724,-0.326509,-0.465923,0.481446,1.016342,-1.233336,-1.861757
933,3430206616,0.710461,-0.296312,-0.454192,0.448507,0.856346,-1.638261,2.342003
934,3430239950,0.745457,-0.272927,-0.445593,0.413829,-1.457379,-2.080201,3.853914
935,3430273284,0.769042,-0.263567,-0.439381,0.382173,0.086698,-3.699953,3.837341
936,3430306618,0.784558,-0.265702,-0.432662,0.355920,0.245716,-4.211944,2.894908
937,3430339952,0.795011,-0.271406,-0.423677,0.338819,-0.612377,-3.850852,1.591045
938,3430373286,0.800899,-0.278609,-0.414318,0.330579,-0.754043,-3.515878,0.443398
939,3430406620,0.802838,-0.286272,-0.406171,0.329436,-0.894442,-3.023565,0.151813
940,3430439954,0.801435,-0.292710,-0.400210,0.334452,-0.953760,-2.214648,-0.343135
941,3430473288,0.796307,-0.297888,-0.396795,0.345999,-0.647550,-2.309921,0.786235
942,3430506622,0.785806,-0.305585,-0.397254,0.362380,-1.224028,-1.302299,-0.838579
943,3430539956,0.765976,-0.323710,-0.406111,0.378907,-0.378029,-2.344223,0.000222
944,3430573290,0.740113,-0.344318,-0.420632,0.395917,-0.177498,-1.967003,0.051032
945,3430606624,0.708876,-0.364633,-0.439931,0.413524,0.844410,-2.309714,-0.189603
946,3430639958,0.671423,-0.384952,-0.463694,0.431271,1.368039,-1.828684,0.799928
947,3430673292,0.630823,-0.400988,-0.487872,0.450839,1.059173,-1.085721,1.425777
948,3430706626,0.591545,-0.408446,-0.508827,0.473650,1.133616,-0.739721,1.704953
949,3430739960,0.554811,-0.409118,-0.525524,0.498634,1.049348,-0.126249,1.331281
950,3430773294,0.521856,-0.405918,-0.537107,0.523848,0.166897,0.083109,1.081920
951,3430806628,0.490862,-0.404421,-0.545120,0.546211,0.249222,-0.113021,0.368525
952,3430839962,0.459741,-0.406721,-0.551896,0.564474,0.093987,-0.169996,0.247211
953,3430873296,0.431130,-0.409093,-0.555543,0.581503,-0.214363,-0.060192,0.341929
954,3430906630,0.408120,-0.408184,-0.554110,0.599825,0.401891,0.313895,-0.354633
955,3430939964,0.388468,-0.405973,-0.551445,0.616596,1.551375,1.316443,-0.415586
956,3430973298,0.370665,-0.403055,-0.548955,0.631511,1.388615,2.905545,0.884630
957,3431006632,0.354856,-0.397515,-0.544717,0.647570,1.128541,3.653731,-0.409032
958,3431039966,0.336459,-0.391714,-0.543440,0.661840,1.058996,3.649306,-1.792189
959,3431073300,0.315736,-0.384322,-0.548626,0.672027,1.036409,3.556475,-2.524643
960,3431106634,0.294596,-0.372822,-0.559985,0.678703,1.094443,3.840497,-2.641295
961,3431139968,0.274325,-0.355638,-0.576295,0.682755,0.913543,3.736966,-2.474759
962,3431173302,0.251301,-0.335379,-0.602092,0.679601,1.019791,3.682529,-2.544298
963,3431206636,0.223481,-0.312315,-0.639420,0.666079,-0.390715,1.882163,-0.605871
964,3431239970,0.198451,-0.283800,-0.671447,0.655162,-1.990083,-1.194899,1.205379
965,3431273304,0.176669,-0.259771,-0.693495,0.648364,-2.084691,-3.530085,2.136458
966,3431306638,0.160797,-0.247143,-0.701904,0.648382,-2.231114,-5.080728,3.413004
967,3431339972,0.152132,-0.249294,-0.697940,0.653905,-1.951354,-4.504765,2.895578
968,3431373306,0.147768,-0.266021,-0.689442,0.657321,-1.713397,-2.856969,1.462333
969,3431406640,0.146823,-0.291332,-0.677654,0.659059,-1.503769,-0.953936,1.021909
970,3431439974,0.149882,-0.317016,-0.659558,0.664848,-0.770507,0.480176,-0.002363
971,3431473308,0.153622,-0.339107,-0.643292,0.669019,-0.103877,1.287177,-1.338814
972,3431506642,0.155691,-0.355099,-0.634898,0.668261,0.218860,2.700675,-0.858322
973,3431539976,0.155559,-0.362522,-0.632672,0.666416,0.064072,3.831473,-0.261099
974,3431573310,0.153945,-0.359092,-0.631696,0.669565,0.196885,4.149138,-0.537226
975,3431606644,0.148084,-0.344604,-0.635495,0.674885,0.202050,4.228675,-1.249531
976,3431639978,0.135832,-0.321382,-0.647861,0.677158,0.586965,3.103971,-2.170182
977,3431673312,0.117203,-0.295121,-0.670888,0.670134,-0.847769,0.509490,-0.890463
978,3431706646,0.097846,-0.271902,-0.697658,0.655570,-0.430231,-2.880674,0.206264
979,3431739980,0.083281,-0.259132,-0.717254,0.641456,-0.346295,-5.019712,2.371733
980,3431773314,0.079243,-0.258641,-0.719528,0.639616,-1.101455,-5.815868,2.824157
981,3431806648,0.083547,-0.268987,-0.708870,0.646663,-0.989565,-3.488600,2.053247
982,3431839982,0.089700,-0.286919,-0.695784,0.652318,-1.349164,-1.819027,0.485724
983,3431873316,0.094457,-0.307747,-0.686480,0.652012,-1.839963,-0.497201,-0.044656
984,3431906650,0.103870,-0.323959,-0.673374,0.656378,-2.006753,1.132159,0.154143
985,3431939984,0.121688,-0.332323,-0.650997,0.671536,-1.862144,2.888325,-0.537165
986,3431973318,0.139082,-0.335601,-0.630800,0.685655,-2.016644,3.590705,-0.911844
987,3432006652,0.153422,-0.335502,-0.615661,0.696323,-2.279230,3.951936,-0.778283
988,3432039986,0.167896,-0.332362,-0.601452,0.706828,-2.110629,3.857358,-1.075816
989,3432073320,0.185931,-0.326434,-0.584810,0.718938,-1.965504,3.893827,-0.357966
990,3432106654,0.210689,-0.317199,-0.561479,0.734670,-2.015295,4.131627,1.011118
991,3432139988,0.246586,-0.304239,-0.524741,0.755834,-1.456163,3.593839,0.971320
992,3432173322,0.295171,-0.287077,-0.469594,0.780991,0.402264,3.113526,-0.057257
993,3432206656,0.352177,-0.260224,-0.400539,0.804877,1.965600,2.247523,-1.336210
994,3432239990,0.411033,-0.225383,-0.339446,0.815496,1.070486,0.279975,-3.661545
995,3432273324,0.463501,-0.199410,-0.316278,0.803352,-0.716248,-0.174285,-3.030986
996,3432306658,0.510792,-0.184522,-0.323200,0.774977,-0.404598,0.120216,-1.740383
997,3432339992,0.555543,-0.173612,-0.342140,0.737682,1.073181,0.291042,-0.287909
998,3432373326,0.600515,-0.155154,-0.353724,0.700137,3.198656,-0.570699,2.749619
999,3432406660,0.643742,-0.123142,-0.352782,0.667819,1.801705,-1.802733,0.161080
1000,3432439994,0.678803,-0.095985,-0.357857,0.634000,0.132893,-1.956923,-1.928419
1001,3432473328,0.706336,-0.079664,-0.371774,0.597102,1.975335,-2.717014,1.616001
1002,3432506662,0.727331,-0.065399,-0.384318,0.564815,2.285883,-2.660230,0.582505
1003,3432539996,0.742283,-0.053041,-0.390657,0.541842,1.904772,-3.545994,2.548777
1004,3432573330,0.751986,-0.042959,-0.389785,0.529853,0.857444,-3.515868,2.736028
1005,3432606664,0.757039,-0.046336,-0.390196,0.522012,0.207566,-2.637396,1.279923
1006,3432639998,0.758319,-0.061068,-0.391432,0.517695,0.356809,-2.254635,1.584033
1007,3432673332,0.756362,-0.082771,-0.392432,0.516784,-0.019803,-1.470442,1.164642
1008,3432706666,0.751607,-0.108324,-0.392533,0.518916,-0.539643,-1.026752,0.499893
1009,3432740000,0.743460,-0.138543,-0.393744,0.522535,-0.795881,-1.381357,0.174636
1010,3432773334,0.732624,-0.171150,-0.394869,0.527306,-0.946984,-1.657917,0.327643
1011,3432806668,0.720590,-0.202455,-0.393455,0.533816,-1.737353,-1.006378,0.742078
1012,3432840002,0.706514,-0.238980,-0.391690,0.538803,-1.473994,-0.869651,1.497105
1013,3432873336,0.689909,-0.277744,-0.389132,0.543565,-0.677139,-0.335672,2.205688
1014,3432906670,0.672417,-0.313517,-0.382840,0.550455,-1.008479,0.785992,2.088831
1015,3432940004,0.654301,-0.348537,-0.373946,0.557297,-1.197554,1.285191,1.253412
1016,3432973338,0.637469,-0.381649,-0.362686,0.562530,-0.863778,1.290469,0.586452
1017,3433006672,0.624699,-0.409445,-0.348353,0.566357,-0.372367,1.307636,-0.164509
1018,3433040006,0.616679,-0.430745,-0.332449,0.568900,0.072769,1.266988,-0.994329
1019,3433073340,0.610629,-0.448161,-0.318879,0.569740,0.576550,1.779340,-1.407969
1020,3433106674,0.603529,-0.464687,-0.311278,0.568269,0.759727,2.140990,-2.199982
1021,3433140008,0.593531,-0.481157,-0.311108,0.565177,2.364064,3.102257,-1.136943
1022,3433173342,0.584822,-0.491304,-0.314645,0.563565,2.884574,3.524632,-1.421371
1023,3433206676,0.579139,-0.492754,-0.319932,0.565190,2.726702,3.502616,-0.887780
1024,3433240010,0.582775,-0.478218,-0.321078,0.573231,2.640933,2.399151,-1.624678
1025,3433273344,0.584546,-0.461105,-0.327051,0.582004,1.749195,1.659505,-2.141213
1026,3433306678,0.577796,-0.453209,-0.343741,0.585320,1.103935,0.957744,-1.432038
1027,3433340012,0.560625,-0.460597,-0.372685,0.578498,0.159903,-0.598090,-0.982037
1028,3433373346,0.537841,-0.478383,-0.406438,0.562751,-2.226309,-1.958638,0.177702
1029,3433406680,0.517897,-0.496201,-0.433817,0.545321,-4.077062,-3.899839,0.810942
1030,3433440014,0.500677,-0.511726,-0.453274,0.531043,-5.406808,-4.064069,1.018558
1031,3433473348,0.484193,-0.529166,-0.465880,0.518170,-4.412181,-3.176824,1.999753
1032,3433506682,0.475182,-0.544141,-0.465946,0.510891,-2.546263,-1.548873,4.208463
1033,3433540016,0.479976,-0.550214,-0.451044,0.513274,-1.548944,-0.939003,1.370350
1034,3433573350,0.484484,-0.557969,-0.434627,0.514829,-0.615027,-0.617071,-1.303856
1035,3433606684,0.484052,-0.569819,-0.424205,0.510935,0.611612,0.468772,-0.154685
1036,3433640018,0.484436,-0.579175,-0.415620,0.507092,2.187087,2.195117,0.886038
1037,3433673352,0.485881,-0.583222,-0.406976,0.508081,2.487877,2.831897,0.386112
1038,3433706686,0.486356,-0.581648,-0.401135,0.514041,2.624667,2.376191,-1.067559
1039,3433740020,0.485539,-0.573923,-0.401591,0.523061,1.864724,2.038259,-1.241328
1040,3433773354,0.486090,-0.558850,-0.410639,0.531772,1.318283,2.012447,-0.853314
1041,3433806688,0.490447,-0.536489,-0.426039,0.538642,0.740940,1.596162,-0.688382
1042,3433840022,0.500483,-0.508053,-0.442351,0.543809,-0.179632,1.419001,-0.645323
1043,3433873356,0.517824,-0.476643,-0.454254,0.546193,0.089835,1.365275,-0.287857
1044,3433906690,0.541466,-0.445294,-0.461809,0.543383,0.247837,1.091757,-0.166498
1045,3433940024,0.570600,-0.411701,-0.466782,0.535758,0.110416,0.112485,-0.808617
1046,3433973358,0.605205,-0.370833,-0.467489,0.526941,0.092326,-0.540648,-0.875583
1047,3434006692,0.642661,-0.320484,-0.464310,0.518359,0.679435,-1.104291,-0.451912
1048,3434040026,0.676224,-0.265630,-0.461329,0.509256,-0.155901,-1.301144,-1.870390
1049,3434073360,0.699817,-0.219374,-0.465066,0.495830,-0.915727,-1.638128,-2.059611
1050,3434106694,0.718222,-0.172684,-0.471681,0.481517,1.223490,-2.794713,-0.484730
1051,3434140028,0.731036,-0.125612,-0.477627,0.470835,0.179345,-2.563397,2.710862
1052,3434173362,0.734671,-0.083178,-0.480967,0.471184,-0.729598,-4.088012,4.902993
1053,3434206696,0.729479,-0.064532,-0.485677,0.477302,1.668577,-3.928717,4.127871
1054,3434240030,0.722080,-0.057244,-0.481347,0.493591,0.168507,-3.487256,3.172877
1055,3434273364,0.713248,-0.055333,-0.470355,0.516707,-0.148780,-2.689609,0.874004
1056,3434306698,0.703095,-0.059774,-0.457654,0.540963,0.258736,-2.220817,0.362839
1057,3434340032,0.692251,-0.065280,-0.441589,0.567036,0.208353,-1.839776,0.636342
1058,3434373366,0.678915,-0.076104,-0.427356,0.592160,0.770036,-1.401936,0.944038
1059,3434406700,0.661472,-0.094550,-0.417123,0.616057,1.185995,-0.978655,1.728642
1060,3434440034,0.639492,-0.117231,-0.409447,0.640051,1.298466,-0.640551,1.672880
1061,3434473368,0.613333,-0.141838,-0.404145,0.663608,1.084804,-0.251356,1.113887
1062,3434506702,0.584509,-0.164616,-0.401445,0.685636,1.307648,-0.273241,0.483591
1063,3434540036,0.553491,-0.182263,-0.401959,0.706301,1.695679,-0.295659,-0.668087
1064,3434573370,0.519214,-0.192732,-0.405125,0.727426,2.192868,-0.161616,-0.622491
1065,3434606704,0.480567,-0.194235,-0.410645,0.750136,2.225714,0.202652,-0.917969
1066,3434640038,0.438995,-0.188922,-0.418281,0.772422,2.051510,0.331998,-0.625851
1067,3434673372,0.397187,-0.178951,-0.425472,0.793220,1.451982,1.415426,0.681295
1068,3434706706,0.357663,-0.169241,-0.431695,0.810604,1.047654,1.667824,0.542313
1069,3434740040,0.319605,-0.161880,-0.436627,0.825232,0.860470,2.425857,-0.075476
1070,3434773374,0.284654,-0.158447,-0.442419,0.835546,-0.015770,2.470234,-0.584398
1071,3434806708,0.254167,-0.158323,-0.451154,0.840712,-0.564601,2.571976,-1.068097
1072,3434840042,0.228428,-0.159324,-0.463648,0.841113,-0.997824,2.198481,-1.394617
1073,3434873376,0.206281,-0.159597,-0.479490,0.837896,-1.627662,1.804149,-1.572518
1074,3434906710,0.186808,-0.158956,-0.498754,0.831315,-2.022636,1.512417,-1.769709
1075,3434940044,0.169813,-0.155731,-0.521041,0.821847,-1.889714,1.990276,-1.631166
1076,3434973378,0.154712,-0.146234,-0.542897,0.812371,-1.551202,2.550856,-1.596554
1077,3435006712,0.141388,-0.124351,-0.561353,0.805874,-1.800870,1.751775,-1.323663
1078,3435040046,0.130942,-0.087500,-0.568023,0.807806,-3.193399,0.131316,0.923027
1079,3435073380,0.123075,-0.045633,-0.563863,0.815372,-2.507535,-1.039461,-0.197950
1080,3435106714,0.118553,-0.011724,-0.559521,0.820212,-0.795747,-1.241721,1.388823
1081,3435140048,0.118766,0.008352,-0.554345,0.823730,0.132732,-2.017781,2.850051
1082,3435173382,0.124270,0.010695,-0.546683,0.828000,0.738311,-2.685194,2.438090
1083,3435206716,0.132926,-0.004867,-0.544534,0.828126,1.076311,-2.372391,1.508911
1084,3435240050,0.141787,-0.034093,-0.551660,0.821224,0.843617,-1.594094,1.165001
1085,3435273384,0.148269,-0.072720,-0.565550,0.808013,0.483099,-0.525157,1.418335
1086,3435306718,0.152480,-0.114457,-0.576302,0.794688,-0.122200,-0.092754,0.831232
1087,3435340052,0.156911,-0.154849,-0.581650,0.782999,-0.620775,0.541797,-0.645094
1088,3435373386,0.161822,-0.191270,-0.585957,0.770642,-0.684051,1.351446,-1.589350
1089,3435406720,0.167490,-0.220751,-0.591610,0.757111,-1.092446,2.388042,-1.422143
1090,3435440054,0.174064,-0.241180,-0.594257,0.747259,-1.713446,3.681567,-0.348853
1091,3435473388,0.177048,-0.251956,-0.594513,0.742786,-1.207160,4.848983,-1.261445
1092,3435506722,0.169502,-0.256371,-0.604075,0.735282,-0.754483,4.634546,-1.556106
1093,3435540056,0.152323,-0.253843,-0.622643,0.724349,-0.680902,3.629072,-1.143800
1094,3435573390,0.130491,-0.244189,-0.646387,0.711008,-0.881504,2.011499,-0.311855
1095,3435606724,0.110174,-0.230171,-0.669603,0.697509,-1.275414,-1.090523,-0.029922
1096,3435640058,0.095504,-0.221525,-0.690401,0.682024,-0.987961,-4.006049,1.230775
1097,3435673392,0.090842,-0.227314,-0.700500,0.670358,-0.585526,-5.550059,3.651692
1098,3435706726,0.095875,-0.251135,-0.697452,0.664306,0.083925,-4.950978,2.978703
1099,3435740060,0.107540,-0.286265,-0.684240,0.662048,-0.240800,-3.219209,2.129483
1100,3435773394,0.122441,-0.323418,-0.665102,0.661855,-0.478454,-1.184082,0.532151
1101,3435806728,0.135455,-0.358513,-0.648885,0.657323,-1.100040,-0.511358,-1.247684
1102,3435840062,0.144634,-0.390255,-0.639437,0.646456,-0.964407,0.913882,-1.188282
1103,3435873396,0.156779,-0.413982,-0.630339,0.637743,-1.298513,2.525303,-0.319671
1104,3435906730,0.175355,-0.427339,-0.616725,0.637406,-1.556364,4.074820,-0.354791
1105,3435940064,0.196120,-0.430480,-0.599846,0.645300,-1.737127,4.988441,-0.592757
1106,3435973398,0.213932,-0.425320,-0.582598,0.658726,-1.362417,5.044570,-1.682273
1107,3436006732,0.226937,-0.415670,-0.570203,0.671261,-1.524629,4.627244,-2.400312
1108,3436040066,0.245272,-0.400850,-0.551391,0.689299,-1.913759,4.111679,-1.429104
1109,3436073400,0.266382,-0.387151,-0.532049,0.704331,-1.208507,3.278850,-1.526532
1110,3436106734,0.288647,-0.378456,-0.522350,0.707536,-0.974578,2.893268,-0.843759
1111,3436140068,0.318306,-0.371164,-0.515744,0.703514,-0.286806,2.355323,-0.838517
1112,3436173402,0.355335,-0.364389,-0.510619,0.692985,0.321860,2.621145,0.283463
1113,3436206736,0.399458,-0.356363,-0.503493,0.678187,0.901049,1.692637,0.058916
1114,3436240070,0.449435,-0.345409,-0.495921,0.657850,1.763662,0.929806,-0.018234
1115,3436273404,0.504992,-0.327349,-0.485935,0.633797,2.452951,0.227129,0.874923
1116,3436306738,0.564742,-0.297399,-0.470075,0.609634,2.073156,-1.290989,0.620570
1117,3436340072,0.623240,-0.255922,-0.451451,0.585039,3.331075,-2.144154,2.015764
1118,3436373406,0.676759,-0.203276,-0.429157,0.562587,2.490876,-3.156072,1.784771
1119,3436406740,0.718771,-0.153157,-0.410706,0.539663,0.600009,-3.296878,-0.708540
1120,3436440074,0.745427,-0.130473,-0.411096,0.508251,0.017921,-3.489325,-1.251449
1121,3436473408,0.761396,-0.128011,-0.423860,0.473534,0.527554,-4.060759,-0.061234
1122,3436506742,0.770360,-0.128288,-0.435197,0.447990,0.359645,-4.988135,1.838504
1123,3436540076,0.772714,-0.126541,-0.442808,0.436835,0.383962,-4.082963,1.570084
1124,3436573410,0.769769,-0.126677,-0.445152,0.439605,-0.275420,-4.225450,2.569079
1125,3436606744,0.762488,-0.127685,-0.442868,0.454071,-0.356285,-3.667334,1.262514
1126,3436640078,0.751855,-0.130820,-0.437625,0.475487,-0.761431,-2.895808,0.266362
1127,3436673412,0.738161,-0.139706,-0.432462,0.498578,-0.320899,-2.713580,-0.375707
1128,3436706746,0.722025,-0.152729,-0.428067,0.521648,0.277416,-2.688203,0.395536
1129,3436740080,0.705210,-0.165561,-0.421553,0.545496,0.387309,-2.022599,1.307222
1130,3436773414,0.686978,-0.179674,-0.413884,0.569633,0.763546,-1.060622,1.363383
1131,3436806748,0.665394,-0.199039,-0.408247,0.592430,1.264809,-0.229867,2.539503
1132,3436840082,0.642026,-0.220421,-0.402118,0.614428,0.403716,0.827308,2.431562
1133,3436873416,0.617876,-0.244134,-0.395452,0.634231,-0.411853,1.186242,1.139684
1134,3436906750,0.595724,-0.268515,-0.386949,0.650605,-1.197816,0.970559,1.117343
1135,3436940084,0.579329,-0.289024,-0.374136,0.663980,-1.476854,0.901018,0.074400
1136,3436973418,0.568011,-0.306463,-0.359928,0.673720,-0.991114,1.017472,-0.831336
1137,3437006752,0.559181,-0.323668,-0.349517,0.678526,-0.242237,1.264436,-1.738017
1138,3437040086,0.550566,-0.342422,-0.346119,0.678108,0.777407,1.818512,-1.868690
1139,3437073420,0.541709,-0.361211,-0.349114,0.673944,1.376732,2.384135,-1.878462
1140,3437106754,0.531880,-0.378598,-0.357063,0.668040,2.067066,2.837793,-1.971756
1141,3437140088,0.522039,-0.391775,-0.367199,0.662689,2.698818,3.546938,-0.910688
1142,3437173422,0.515900,-0.394857,-0.374283,0.661703,2.559611,3.189545,-1.210486
1143,3437206756,0.510192,-0.391356,-0.382626,0.663435,2.295029,2.732113,-1.617121
1144,3437240090,0.502633,-0.384905,-0.396295,0.664953,1.945201,2.454136,-1.327632
1145,3437273424,0.492267,-0.378275,-0.416446,0.664197,1.746255,1.737152,-1.042816
1146,3437306758,0.479595,-0.371734,-0.442366,0.660393,0.354533,1.033141,-0.073268
1147,3437340092,0.469620,-0.363050,-0.466222,0.655966,-1.129189,-0.398629,1.006994
1148,3437373426,0.463594,-0.354815,-0.483843,0.651987,-2.099149,-1.945743,1.533071
1149,3437406760,0.461776,-0.349982,-0.493219,0.648856,-3.486374,-3.614673,2.700670
1150,3437440094,0.465772,-0.349238,-0.489989,0.648849,-3.507067,-4.211435,2.775395
1151,3437473428,0.472387,-0.355889,-0.479083,0.648596,-2.407824,-3.290968,2.134421
1152,3437506762,0.478705,-0.372185,-0.466998,0.643612,-1.812445,-2.176915,1.622672
1153,3437540096,0.483507,-0.395566,-0.453694,0.635542,-1.713214,-0.801886,1.868176
1154,3437573430,0.488921,-0.419682,-0.435687,0.628493,-0.454377,-0.474323,-0.185740
1155,3437606764,0.493468,-0.443943,-0.420044,0.618846,0.424587,-0.122575,-1.430808
1156,3437640098,0.497923,-0.465386,-0.410626,0.605705,0.972119,1.201386,-1.056265
1157,3437673432,0.503032,-0.479845,-0.404992,0.593880,2.375773,2.662096,0.097204
1158,3437706766,0.510861,-0.482741,-0.398142,0.589466,3.171693,3.507831,0.501307
1159,3437740100,0.517464,-0.477119,-0.392198,0.592261,3.018490,3.424005,-0.657169
1160,3437773434,0.519538,-0.468084,-0.391008,0.598410,2.718452,3.196677,-0.463934
1161,3437806768,0.521302,-0.454906,-0.391111,0.606910,1.838712,2.840799,-0.374745
1162,3437840102,0.529305,-0.436695,-0.386614,0.616172,0.036497,2.057161,-0.849632
1163,3437873436,0.545531,-0.416992,-0.375548,0.622480,-0.062983,1.184692,-0.375834
1164,3437906770,0.569098,-0.398198,-0.361128,0.622219,0.138853,0.136585,-0.579830
1165,3437940104,0.599515,-0.379253,-0.345031,0.614579,-0.378259,0.113835,-0.307620
1166,3437973438,0.633381,-0.362935,-0.331049,0.597928,-0.714602,-0.113079,-0.956900
1167,3438006772,0.668104,-0.349918,-0.321299,0.572682,0.094657,-0.577944,-0.380181
1168,3438040106,0.708464,-0.327510,-0.308696,0.543624,0.629808,-1.711920,-0.251629
1169,3438073440,0.755581,-0.279897,-0.289018,0.516940,0.676765,-2.432302,-0.793298
1170,3438106774,0.797370,-0.224257,-0.274043,0.488686,-0.716076,-1.528872,-2.508183
1171,3438140108,0.826387,-0.186799,-0.274828,0.454603,-1.810018,-0.732866,-3.540090
1172,3438173442,0.845177,-0.168682,-0.289373,0.416521,-1.109964,-1.406875,-0.626277
1173,3438206776,0.859629,-0.149381,-0.305124,0.381610,-0.376108,-2.397847,2.100417
1174,3438240110,0.868824,-0.135747,-0.320692,0.351963,-0.303425,-1.564658,1.973939
1175,3438273444,0.870874,-0.140664,-0.333802,0.332223,0.872023,-2.686293,3.990211
1176,3438306778,0.866371,-0.162179,-0.344080,0.323593,0.655707,-3.280948,2.851835
1177,3438340112,0.856643,-0.193041,-0.352519,0.323470,-0.126474,-2.848012,0.851632
1178,3438373446,0.844436,-0.224445,-0.358353,0.328844,-0.899431,-2.481293,0.200946
1179,3438406780,0.832385,-0.249602,-0.360714,0.338710,-0.828192,-2.299026,0.100698
1180,3438440114,0.821582,-0.266724,-0.359450,0.353074,-0.506701,-2.188341,0.104725
1181,3438473448,0.812589,-0.274949,-0.355042,0.371553,-0.019862,-2.247424,0.840813
1182,3438506782,0.803424,-0.278871,-0.349168,0.393480,0.207469,-1.635307,0.947752
1183,3438540116,0.790702,-0.284730,-0.344705,0.418212,0.535721,-1.090253,1.015602
1184,3438573450,0.771830,-0.295831,-0.343840,0.445578,0.618264,-0.599468,1.071289
1185,3438606784,0.746780,-0.309281,-0.346693,0.475891,0.687653,-0.171907,1.130101
1186,3438640118,0.717396,-0.319749,-0.352228,0.508962,0.874295,-0.068296,0.526914
1187,3438673452,0.684229,-0.326147,-0.361125,0.543185,0.913677,0.384888,0.472988
1188,3438706786,0.649842,-0.324657,-0.369630,0.579379,0.450119,0.769515,0.273181
1189,3438740120,0.614912,-0.318559,-0.379030,0.613794,-0.138720,0.789692,-0.513386
1190,3438773454,0.579787,-0.313844,-0.392184,0.641517,-0.503210,0.728204,-0.444928
1191,3438806788,0.547947,-0.309343,-0.405166,0.663253,-0.612889,0.277928,-0.229053
1192,3438840122,0.520120,-0.306485,-0.416905,0.679512,-0.820264,-0.209357,-0.304306
1193,3438873456,0.495722,-0.308827,-0.429207,0.688963,-0.632172,-0.242320,0.422664
1194,3438906790,0.476944,-0.314038,-0.437111,0.694869,-0.140200,0.075116,0.628728
1195,3438940124,0.462641,-0.323189,-0.441687,0.697444,0.326331,0.378230,-0.368426
1196,3438973458,0.448132,-0.340465,-0.452039,0.692044,0.408491,1.278973,-1.361269
1197,3439006792,0.431576,-0.364362,-0.469478,0.678658,0.851062,2.829808,-0.276460
1198,3439040126,0.419320,-0.384160,-0.481688,0.666762,0.316353,3.903421,1.245214
1199,3439073460,0.416154,-0.390518,-0.479105,0.666914,1.069450,4.434676,0.292849
1200,3439106794,0.412544,-0.388959,-0.474725,0.673171,1.514332,4.064717,-1.626287
1201,3439140128,0.402098,-0.384469,-0.480846,0.677711,1.346795,3.641627,-1.674905
1202,3439173462,0.386526,-0.377080,-0.496816,0.679401,-0.044757,2.495325,-1.339801
1203,3439206796,0.371127,-0.367755,-0.516776,0.678209,-1.392919,0.498342,-0.857981
1204,3439240130,0.357047,-0.362576,-0.538797,0.671385,-2.401352,-1.878356,0.327662
1205,3439273464,0.350511,-0.361170,-0.552320,0.664563,-1.950793,-2.444216,3.025424
1206,3439306798,0.354103,-0.362791,-0.548853,0.664648,-1.742242,-2.498385,2.484965
1207,3439340132,0.361202,-0.373307,-0.537499,0.664284,-1.634371,-2.012503,1.147460
1208,3439373466,0.365317,-0.394874,-0.527767,0.657330,-1.045451,-1.261329,0.018278
1209,3439406800,0.364970,-0.422216,-0.521494,0.645429,-0.128123,-0.225411,0.331266
1210,3439440134,0.362423,-0.449349,-0.516316,0.632580,-0.492143,0.590290,-0.449960
1211,3439473468,0.362906,-0.472164,-0.510217,0.620518,-1.572785,1.321643,-0.610165
1212,3439506802,0.370990,-0.484415,-0.499952,0.614622,0.345137,1.603733,-1.365788
1213,3439540136,0.379775,-0.487550,-0.494578,0.611115,1.200885,2.251776,-1.040426
1214,3439573470,0.386361,-0.481151,-0.495198,0.611557,1.615255,2.198322,-0.698443
1215,3439606804,0.387552,-0.467464,-0.503142,0.614925,2.271262,1.806957,-0.836743
1216,3439640138,0.382841,-0.449917,-0.518306,0.618361,1.715394,1.584863,-0.740450
1217,3439673472,0.374845,-0.432492,-0.537941,0.618923,0.662183,0.404973,-1.524156
1218,3439706806,0.365920,-0.421460,-0.558895,0.613281,-0.092377,-0.879957,-0.312190
1219,3439740140,0.359878,-0.417140,-0.574296,0.605533,-0.919159,-2.063330,1.899832
1220,3439773474,0.358278,-0.417590,-0.580706,0.600033,-2.039572,-3.498028,2.124056
1221,3439806808,0.356534,-0.423214,-0.582023,0.595840,-2.307729,-4.040016,1.304202
1222,3439840142,0.350274,-0.435087,-0.583414,0.589609,-2.257836,-3.479983,1.706257
1223,3439873476,0.346031,-0.446459,-0.579026,0.587937,-2.179350,-2.007085,2.825241
1224,3439906810,0.348073,-0.453598,-0.565472,0.594423,-1.555314,-0.829020,0.972131
1225,3439940144,0.350738,-0.460465,-0.550763,0.601347,-0.413632,0.054206,-0.662644
1226,3439973478,0.350075,-0.468462,-0.542465,0.603097,0.508462,1.140756,-0.615994
1227,3440006812,0.348202,-0.474823,-0.537956,0.603246,0.585616,3.025340,0.928482
1228,3440040146,0.352461,-0.473385,-0.527047,0.611476,0.732494,3.758275,0.874549
1229,3440073480,0.362229,-0.464128,-0.510165,0.626986,0.638909,3.917078,-0.384224
1230,3440106814,0.372711,-0.451060,-0.494393,0.642814,0.296848,3.346829,-1.808407
1231,3440140148,0.384791,-0.434694,-0.482399,0.655951,-0.493714,2.970683,-2.541341
1232,3440173482,0.402677,-0.412868,-0.472187,0.666659,-0.409963,2.557050,-3.207705
1233,3440206816,0.427387,-0.386826,-0.465777,0.671388,-1.096929,2.411870,-3.058039
1234,3440240150,0.461326,-0.356078,-0.461300,0.669024,-1.032883,2.086961,-2.967258
1235,3440273484,0.501737,-0.321551,-0.457413,0.660032,0.257544,2.909186,0.330245
1236,3440306818,0.548888,-0.277582,-0.445448,0.650577,0.522812,2.022174,1.805486
1237,3440340152,0.599197,-0.222046,-0.422443,0.642810,0.222419,0.839744,1.164806
1238,3440373486,0.644816,-0.166155,-0.400559,0.629413,0.033641,0.440590,0.014034
1239,3440406820,0.681293,-0.130772,-0.396519,0.601261,-0.671533,0.320822,-0.246367
1240,3440440154,0.709323,-0.120584,-0.409281,0.561082,0.516696,-0.514707,0.955558
1241,3440473488,0.732133,-0.123315,-0.426377,0.516703,1.504994,-1.736335,1.454593
1242,3440506822,0.753711,-0.121441,-0.434778,0.477643,0.633258,-3.276074,2.909739
1243,3440540156,0.774375,-0.105690,-0.432320,0.449751,0.312323,-2.671343,0.901668
1244,3440573490,0.790569,-0.096883,-0.429965,0.425145,0.232232,-2.519598,0.646702
1245,3440606824,0.801272,-0.101234,-0.430410,0.403070,0.385491,-2.169626,1.002891
1246,3440640158,0.805838,-0.118093,-0.434034,0.385094,1.100582,-2.523544,1.025751
1247,3440673492,0.805941,-0.137354,-0.437516,0.374401,0.731781,-2.972315,0.772273
1248,3440706826,0.803054,-0.153404,-0.439994,0.371457,0.174699,-2.831443,0.072710
1249,3440740160,0.797112,-0.167665,-0.443145,0.374337,-0.031363,-2.880768,-0.317780
1250,3440773494,0.787330,-0.183334,-0.448100,0.381720,0.088299,-2.939709,-0.226275
1251,3440806828,0.774432,-0.199154,-0.453112,0.394064,0.300924,-3.025922,0.567299
1252,3440840162,0.759139,-0.213506,-0.456701,0.411766,0.598692,-2.593720,0.779413
1253,3440873496,0.739495,-0.232697,-0.461530,0.431269,0.845716,-2.027837,0.726753
1254,3440906830,0.717106,-0.253001,-0.465120,0.453229,1.293661,-2.149225,1.543262
1255,3440940164,0.695222,-0.264380,-0.463351,0.481745,1.470469,-1.166281,1.676254
1256,3440973498,0.673271,-0.268966,-0.456690,0.515560,1.240054,-0.177519,0.574309
1257,3441006832,0.648296,-0.273166,-0.450830,0.549407,1.307585,0.560497,0.570642
1258,3441040166,0.618312,-0.278989,-0.449109,0.581515,1.391568,1.078600,0.726495
1259,3441073500,0.583259,-0.284308,-0.452241,0.611931,1.143692,1.512206,0.109123
1260,3441106834,0.545120,-0.286815,-0.458629,0.640503,0.516771,1.905085,-0.242172
1261,3441140168,0.510265,-0.283489,-0.462355,0.667454,-0.566321,1.469822,-0.493344
1262,3441173502,0.482435,-0.274317,-0.462215,0.691642,-1.326161,0.865995,-1.584716
1263,3441206836,0.460857,-0.264911,-0.463299,0.709077,-1.175244,0.807658,-2.007355
1264,3441240170,0.445383,-0.257506,-0.467616,0.718794,-0.743026,0.214528,-0.988903
1265,3441273504,0.435318,-0.250486,-0.470430,0.725572,-0.264222,0.278545,1.408377
1266,3441306838,0.428015,-0.244512,-0.466995,0.734123,-0.106084,0.216459,1.466483
1267,3441340172,0.417405,-0.247180,-0.466719,0.739494,0.028153,-0.259015,0.497242
1268,3441373506,0.401511,-0.259719,-0.473717,0.739548,0.586036,-0.448841,0.757330
1269,3441406840,0.384111,-0.273705,-0.480338,0.739475,1.000700,-0.211733,0.652889
1270,3441440174,0.367828,-0.284222,-0.482701,0.742242,0.866192,0.458696,0.272008
1271,3441473508,0.353227,-0.290927,-0.482057,0.747139,0.385361,0.988131,-0.260198
1272,3441506842,0.340147,-0.293922,-0.481570,0.752332,0.231084,1.449855,-1.011567
1273,3441540176,0.328288,-0.292051,-0.482627,0.757633,0.508900,2.060015,-0.839274
1274,3441573510,0.318219,-0.282786,-0.480190,0.766936,0.351398,3.200536,-0.099144
1275,3441606844,0.307800,-0.268691,-0.476255,0.778620,0.284673,2.648595,-1.627304
1276,3441640178,0.292843,-0.254301,-0.479438,0.787221,0.537249,2.549373,-1.285608
1277,3441673512,0.274817,-0.238757,-0.489299,0.792503,0.030350,1.887107,-0.912134
1278,3441706846,0.256849,-0.222231,-0.501773,0.795531,-0.466106,0.506483,-0.779469
1279,3441740180,0.241662,-0.207747,-0.516718,0.794636,-1.276368,-1.511063,-0.105306
1280,3441773514,0.231973,-0.199320,-0.531462,0.789944,-1.218969,-3.088777,0.594959
1281,3441806848,0.227702,-0.199434,-0.543636,0.782842,-1.302487,-2.924881,2.701303
1282,3441840182,0.228926,-0.206470,-0.545584,0.779297,-1.494764,-3.101380,3.167829
1283,3441873516,0.232122,-0.219993,-0.543414,0.776162,-1.343531,-2.177735,1.657340
1284,3441906850,0.234767,-0.238115,-0.543239,0.770118,-1.423938,-0.766889,1.231080
1285,3441940184,0.239916,-0.254352,-0.536644,0.767960,-1.491258,0.649326,0.877050
1286,3441973518,0.246897,-0.266857,-0.525558,0.769170,-0.700939,1.236064,-0.748621
1287,3442006852,0.254204,-0.275603,-0.517375,0.769253,-0.518663,1.593105,-1.529809
1288,3442040186,0.260955,-0.281413,-0.514921,0.766531,-0.625453,2.467316,-1.521066
1289,3442073520,0.266380,-0.285811,-0.517398,0.761352,-0.448062,3.138499,-1.313421
1290,3442106854,0.271191,-0.288379,-0.520303,0.756690,-0.315524,3.459241,-1.102500
1291,3442140188,0.276533,-0.288781,-0.520979,0.754135,-0.447710,2.810951,-1.260839
1292,3442173522,0.282235,-0.288796,-0.523107,0.750535,-0.562621,2.504834,-1.678208
1293,3442206856,0.289379,-0.289746,-0.528240,0.743823,-0.708460,2.087317,-1.419847
1294,3442240190,0.303357,-0.290427,-0.532486,0.734908,-1.130286,0.630105,-1.198220
1295,3442273524,0.326221,-0.295117,-0.539217,0.718147,-0.879784,0.550787,-2.245996
1296,3442306858,0.355834,-0.306814,-0.551189,0.689523,-0.775390,0.907049,-1.267232
1297,3442340192,0.392373,-0.319068,-0.561731,0.654753,-0.931302,1.019692,0.453147
1298,3442373526,0.436112,-0.323745,-0.564009,0.622007,-0.726070,0.753146,1.589358
1299,3442406860,0.482883,-0.318420,-0.559245,0.593870,-0.660195,0.320971,2.261810
1300,3442440194,0.527192,-0.308298,-0.552928,0.566830,-0.438582,0.696311,1.724524
1301,3442473528,0.565178,-0.299670,-0.547246,0.539720,0.344227,0.403547,1.740833
1302,3442506862,0.599967,-0.289983,-0.540858,0.513250,1.397392,0.046564,1.635776
1303,3442540196,0.633442,-0.279348,-0.533785,0.485585,1.484941,-0.444966,0.625300
1304,3442573530,0.665345,-0.269467,-0.525630,0.456530,1.777562,-0.763067,0.060932
1305,3442606864,0.693300,-0.264110,-0.518767,0.424812,1.623210,-1.311025,0.334487
1306,3442640198,0.720656,-0.254364,-0.508139,0.397182,1.666416,-2.018856,1.854435
1307,3442673532,0.745173,-0.243766,-0.495653,0.373668,2.231282,-1.772201,0.952802
1308,3442706866,0.764666,-0.239864,-0.483409,0.352237,2.054976,-1.750632,-0.272914
1309,3442740200,0.779886,-0.238283,-0.471600,0.335554,1.818221,-2.665608,0.110858
1310,3442773534,0.792601,-0.232371,-0.459707,0.326283,1.198180,-2.760418,-0.556143
1311,3442806868,0.799984,-0.232300,-0.449610,0.322362,0.464911,-2.527968,-0.256389
1312,3442840202,0.799473,-0.244638,-0.444391,0.321739,0.166070,-3.455336,0.953934
1313,3442873536,0.790715,-0.266981,-0.445000,0.324760,0.523407,-4.060946,1.009796
1314,3442906870,0.774237,-0.294177,-0.450103,0.333809,0.753190,-3.927655,0.962260
1315,3442940204,0.751462,-0.320283,-0.457301,0.351573,0.380442,-3.439513,1.731627
1316,3442973538,0.724256,-0.340391,-0.464616,0.379110,0.280655,-2.796638,1.795767
1317,3443006872,0.694532,-0.352910,-0.470367,0.414533,-0.222614,-1.859256,1.453209
1318,3443040206,0.663839,-0.359230,-0.473603,0.453844,-0.927853,-0.861660,0.652272
1319,3443073540,0.630363,-0.366754,-0.476124,0.491368,-1.388150,-0.278792,0.162042
1320,3443106874,0.596965,-0.375706,-0.477133,0.524238,-1.803669,-0.167535,0.605622
1321,3443140208,0.567723,-0.383889,-0.473596,0.553200,-1.473780,0.066472,0.664563
1322,3443173542,0.543136,-0.392252,-0.466377,0.577614,-1.338784,0.408990,0.280505
1323,3443206876,0.522626,-0.401638,-0.458903,0.595786,-0.811734,0.999421,0.080171
1324,3443240210,0.506137,-0.411806,-0.452441,0.607899,-0.404834,1.736316,0.359302
1325,3443273544,0.493673,-0.421614,-0.446075,0.616076,0.106897,2.354321,-0.409563
1326,3443306878,0.483834,-0.431790,-0.441544,0.620084,0.260283,2.501572,-1.366562
1327,3443340212,0.477946,-0.439004,-0.437340,0.622560,1.116828,3.165059,-0.316540
1328,3443373546,0.477074,-0.437872,-0.429828,0.629222,1.827491,3.274222,-0.813240
1329,3443406880,0.475196,-0.431907,-0.425068,0.637939,2.458341,2.826698,-1.808207
1330,3443440214,0.466648,-0.424941,-0.430542,0.645215,2.650220,2.899180,-1.429234
1331,3443473548,0.453459,-0.414188,-0.443967,0.652473,2.804950,2.616104,-1.565977
1332,3443506882,0.433892,-0.402132,-0.466797,0.657368,2.184070,1.833925,-1.981938
1333,3443540216,0.407050,-0.394119,-0.499911,0.655037,-0.571597,-0.088174,-0.244355
1334,3443573550,0.382591,-0.388583,-0.529720,0.649636,-2.136254,-2.700265,0.663461
1335,3443606884,0.365854,-0.386972,-0.544968,0.647624,-2.659649,-3.861570,3.196154
1336,3443640218,0.357965,-0.391361,-0.544788,0.649544,-3.630296,-4.197572,2.975585
1337,3443673552,0.356674,-0.403041,-0.534562,0.651605,-3.052800,-2.656740,2.690556
1338,3443706886,0.356061,-0.422007,-0.523376,0.649008,-1.768041,-1.432302,-0.270080
1339,3443740220,0.349845,-0.449009,-0.522835,0.634545,-1.672890,-0.530369,-1.613445
1340,3443773554,0.342452,-0.475581,-0.527501,0.615058,-0.246011,1.611913,-0.332067
1341,3443806888,0.346720,-0.487496,-0.522870,0.607243,1.131724,4.435783,2.723135
1342,3443840222,0.365355,-0.478371,-0.502653,0.620501,2.838552,4.937761,-0.269460
1343,3443873556,0.373235,-0.463254,-0.491369,0.636122,2.746999,3.966925,-2.475820
1344,3443906890,0.366342,-0.444521,-0.497414,0.648674,2.867136,2.371144,-2.657700
1345,3443940224,0.353787,-0.418232,-0.517615,0.657263,-1.506806,0.691190,-1.285542
1346,3443973558,0.341154,-0.393766,-0.542591,0.658909,-2.990393,-1.904448,-1.761587
1347,3444006892,0.333581,-0.381833,-0.559365,0.655776,-3.187495,-1.972071,3.732890
1348,3444040226,0.341607,-0.381639,-0.554807,0.655630,-4.482436,-2.314055,3.022312
1349,3444073560,0.358337,-0.396470,-0.538535,0.651452,-3.443716,-0.916196,0.416207
1350,3444106894,0.370162,-0.428915,-0.527928,0.632699,-2.440343,0.381534,-2.022249
1351,3444140228,0.373573,-0.473805,-0.526651,0.598828,-1.135902,2.667723,-1.264205
1352,3444173562,0.383714,-0.510246,-0.516142,0.570975,1.630158,5.446652,2.355237
1353,3444206896,0.408191,-0.524692,-0.489416,0.564406,3.137094,6.082298,0.695034
1354,3444240230,0.428752,-0.529322,-0.465022,0.565463,3.675917,5.289043,-1.440829
1355,3444273564,0.442436,-0.530197,-0.448580,0.567381,3.792085,3.889465,-1.131137
1356,3444306898,0.457125,-0.528133,-0.436525,0.567065,2.372717,1.667025,-2.528343
1357,3444340232,0.474230,-0.527109,-0.427284,0.560976,1.544052,0.628563,-1.643937
1358,3444373566,0.497619,-0.527328,-0.415917,0.548924,0.894744,-0.274842,-2.454176
1359,3444406900,0.525207,-0.531756,-0.403079,0.528134,1.055069,-0.873920,-0.818574
1360,3444440234,0.566455,-0.527998,-0.381945,0.504449,1.284553,-1.674211,-0.015495
1361,3444473568,0.616187,-0.516100,-0.357459,0.475586,0.646106,-2.033176,-1.161239
1362,3444506902,0.671724,-0.492167,-0.331954,0.443136,0.559052,-2.826240,-0.553528
1363,3444540236,0.736459,-0.442105,-0.303014,0.412744,1.975230,-3.610566,0.892968
1364,3444573570,0.805744,-0.354998,-0.272359,0.388044,1.534608,-5.156826,-1.972482
1365,3444606904,0.857810,-0.257748,-0.252108,0.366298,0.036174,-2.694354,-1.017342
1366,3444640238,0.879231,-0.201803,-0.253104,0.349529,-1.113703,-1.560969,1.633070
1367,3444673572,0.884368,-0.180852,-0.268815,0.336048,-0.816268,-3.440774,3.387974
1368,3444706906,0.881305,-0.183601,-0.289427,0.325312,-0.600035,-2.918139,2.337438
1369,3444740240,0.872089,-0.206349,-0.310898,0.316586,-1.053337,-2.729343,1.400449
1370,3444773574,0.860060,-0.236557,-0.329807,0.309142,-2.135832,-2.054045,0.956929
1371,3444806908,0.847338,-0.265554,-0.344986,0.304118,-2.873664,-1.643368,0.527562
1372,3444840242,0.833282,-0.292396,-0.358083,0.303193,-2.472410,-1.638155,0.885148
1373,3444873576,0.817677,-0.316434,-0.369680,0.307594,-2.121834,-1.110597,1.706982
1374,3444906910,0.802252,-0.334273,-0.376892,0.320326,-1.638576,-0.559334,2.467748
1375,3444940244,0.788916,-0.346729,-0.380718,0.335332,-0.693706,-1.026798,1.844664
1376,3444973578,0.773854,-0.358858,-0.383058,0.354460,-0.981197,-0.455646,1.380555
1377,3445006912,0.754833,-0.380639,-0.386096,0.369153,-1.756887,0.366862,0.499887
1378,3445040246,0.731329,-0.412854,-0.388885,0.378790,-1.638331,-0.106225,0.134929
1379,3445073580,0.705862,-0.449658,-0.389610,0.384414,-1.686037,-0.125272,0.681272
1380,3445106914,0.684602,-0.481689,-0.385337,0.388349,-1.285843,-0.091511,0.911484
1381,3445140248,0.667739,-0.508892,-0.377524,0.390682,-0.187602,-0.015710,0.130346
1382,3445173582,0.649624,-0.537583,-0.370619,0.389407,0.626709,0.578589,0.803621
1383,3445206916,0.632395,-0.562293,-0.364137,0.388986,1.736445,1.039108,0.645817
1384,3445240250,0.617224,-0.579240,-0.359178,0.393079,2.647202,0.601799,-0.461618
1385,3445273584,0.602550,-0.588612,-0.359954,0.401131,3.595643,1.669107,0.701338
1386,3445306918,0.597279,-0.581125,-0.362564,0.417256,4.414770,0.669198,-0.570531
1387,3445340252,0.591413,-0.565769,-0.371829,0.438046,4.925443,0.373207,-1.347196
1388,3445373586,0.575654,-0.551432,-0.393480,0.457955,4.467545,0.260053,-1.922860
1389,3445406920,0.553335,-0.534730,-0.424134,0.477491,2.952642,-0.218137,-2.221573
1390,3445440254,0.527380,-0.516224,-0.458161,0.495455,-1.002971,0.183749,-0.509707
1391,3445473588,0.505386,-0.497624,-0.484834,0.511757,-2.858502,-1.448105,-0.299895
1392,3445506922,0.491696,-0.483287,-0.495570,0.528283,-4.477946,-1.988363,1.536120
1393,3445540256,0.488789,-0.476009,-0.488537,0.543909,-4.798568,-1.657904,0.908205
1394,3445573590,0.485548,-0.485319,-0.476511,0.549227,-3.545886,-0.980269,0.530510
1395,3445606924,0.479998,-0.506866,-0.463566,0.545710,-1.744991,0.054515,0.753263
1396,3445640258,0.476519,-0.529581,-0.448564,0.539692,-0.365781,0.758788,0.400431
1397,3445673592,0.476442,-0.546498,-0.434100,0.534700,1.385966,1.966501,0.565825
1398,3445706926,0.479625,-0.553789,-0.421708,0.534270,2.483938,2.854196,0.780814
1399,3445740260,0.483917,-0.551051,-0.412536,0.540356,3.288955,2.731217,-0.140699
1400,3445773594,0.482182,-0.544469,-0.412660,0.548424,2.985839,2.279534,-1.588484
1401,3445806928,0.475894,-0.534334,-0.421647,0.556983,2.512365,2.062595,-1.851316
1402,3445840262,0.467899,-0.521048,-0.436778,0.564631,1.330335,1.845197,-1.833477
1403,3445873596,0.463021,-0.505319,-0.451944,0.570977,-1.176441,1.734852,-0.784515
1404,3445906930,0.468626,-0.486219,-0.456299,0.579461,-2.387405,0.831467,-0.248380
1405,3445940264,0.476139,-0.475801,-0.455461,0.582635,-3.387576,-0.240685,0.501143
1406,3445973598,0.483988,-0.477784,-0.450726,0.578212,-4.234266,-0.844427,1.023475
1407,3446006932,0.493013,-0.489836,-0.442750,0.566546,-3.769647,-1.298937,0.820071
1408,3446040266,0.500140,-0.510660,-0.433250,0.548986,-2.313510,-1.561749,0.443351
1409,3446073600,0.500964,-0.540100,-0.425427,0.525682,-1.942206,-0.954743,-0.005449
1410,3446106934,0.496466,-0.573425,-0.417062,0.500768,-0.148655,-0.477058,0.285497
1411,3446140268,0.490705,-0.604177,-0.407449,0.477669,0.610030,0.278125,0.905419
1412,3446173602,0.498254,-0.618092,-0.392011,0.464796,1.277021,1.326292,1.249026
1413,3446206936,0.510148,-0.620360,-0.377634,0.460759,3.464553,0.783053,0.165600
1414,3446240270,0.514524,-0.620133,-0.373716,0.459392,3.052387,1.408494,0.294561
1415,3446273604,0.518211,-0.614030,-0.374186,0.463048,2.405193,1.545379,-0.169907
1416,3446306938,0.523617,-0.603391,-0.375198,0.470079,1.640978,1.634305,-0.449409
1417,3446340272,0.534751,-0.588729,-0.372806,0.477974,0.396249,2.352141,0.560515
1418,3446373606,0.563412,-0.562189,-0.354689,0.490623,1.245799,1.944561,1.980467
1419,3446406940,0.606342,-0.525538,-0.320027,0.503732,0.649148,1.163391,-0.600518
1420,3446440274,0.648380,-0.493838,-0.281611,0.506386,-0.100459,1.101465,-1.125920
1421,3446473608,0.688915,-0.468439,-0.244768,0.496038,0.408020,0.383893,-0.939492
1422,3446506942,0.730026,-0.444447,-0.211351,0.474197,0.855035,-0.454936,-0.567250
1423,3446540276,0.774115,-0.412779,-0.179639,0.445077,1.193055,-1.173734,-0.028550
1424,3446573610,0.816871,-0.374301,-0.153904,0.411022,0.493693,-1.825556,-0.989395
1425,3446606944,0.852534,-0.337793,-0.136952,0.374607,-1.002251,-0.845225,-1.353060
1426,3446640278,0.876143,-0.316588,-0.130923,0.339129,-1.663448,-0.145408,-1.491774
1427,3446673612,0.888693,-0.313842,-0.133781,0.306323,-0.380081,-1.918482,0.704263
1428,3446706946,0.898514,-0.309219,-0.138508,0.279063,0.117132,-2.827955,0.515724
1429,3446740280,0.907181,-0.300587,-0.140195,0.258879,-0.455706,-1.426592,1.876380
1430,3446773614,0.914524,-0.290086,-0.138292,0.245715,-1.408622,-1.531426,0.449886
1431,3446806948,0.917252,-0.289807,-0.137215,0.236299,-1.249230,-1.575410,1.013876
1432,3446840282,0.916638,-0.296627,-0.137533,0.229946,-1.366198,-1.760636,-0.018957
1433,3446873616,0.912248,-0.310345,-0.140085,0.227752,-1.228046,-1.959481,0.118529
1434,3446906950,0.905294,-0.326582,-0.144195,0.230214,-1.237772,-2.103304,0.231686
1435,3446940284,0.897886,-0.339016,-0.148921,0.238108,-0.915765,-2.328091,0.615605
1436,3446973618,0.890907,-0.345375,-0.153803,0.251694,-0.705283,-2.107570,0.569303
1437,3447006952,0.884525,-0.344669,-0.158705,0.271356,-0.294343,-2.013336,0.584289
1438,3447040286,0.875942,-0.342463,-0.165825,0.296564,-0.032316,-1.955178,0.047927
1439,3447073620,0.863093,-0.342097,-0.177311,0.326505,0.103425,-2.014116,-0.089935
1440,3447106954,0.843607,-0.347271,-0.195324,0.359975,0.285645,-2.471641,-0.207643
1441,3447140288,0.819606,-0.351905,-0.218221,0.395971,1.235803,-3.166379,0.274426
1442,3447173622,0.796735,-0.343081,-0.239717,0.435946,1.198483,-2.532271,-0.512853
1443,3447206956,0.772385,-0.327531,-0.258975,0.478624,1.365619,-1.531914,0.760542
1444,3447240290,0.746249,-0.307935,-0.273388,0.523021,2.108656,-0.926446,1.441007
1445,3447273624,0.714960,-0.293387,-0.287240,0.565909,1.873930,-0.259228,0.251914
1446,3447306958,0.673161,-0.294831,-0.308912,0.603743,1.940078,0.171167,0.897859
1447,3447340292,0.626737,-0.300780,-0.332941,0.637093,1.873652,0.451866,0.643629
1448,3447373626,0.578501,-0.307024,-0.357644,0.665708,1.816854,0.645734,0.143050
1449,3447406960,0.530393,-0.312884,-0.383100,0.688495,1.255823,0.700290,-0.006994
1450,3447440294,0.483065,-0.319581,-0.411140,0.703906,1.173885,1.094513,-0.047742
1451,3447473628,0.438884,-0.324813,-0.438683,0.713750,1.369898,1.828064,0.719557
1452,3447506962,0.401511,-0.324757,-0.459730,0.722478,1.014323,2.273469,0.443189
1453,3447540296,0.369432,-0.322026,-0.476686,0.729791,0.533059,2.452427,-0.375354
1454,3447573630,0.340069,-0.319525,-0.494501,0.733301,0.113952,2.681197,-0.833664
1455,3447606964,0.315997,-0.314362,-0.509507,0.736023,-0.319748,3.105825,-0.378420
1456,3447640298,0.299117,-0.303306,-0.518157,0.741654,-0.378008,3.272869,-1.280311
1457,3447673632,0.288161,-0.286957,-0.523481,0.748726,-0.852369,3.223045,-1.196566
1458,3447706966,0.280698,-0.266045,-0.527976,0.756091,-1.207356,2.851938,-1.314621
1459,3447740300,0.271186,-0.243765,-0.538390,0.759721,-0.961859,2.376704,-1.322495
1460,3447773634,0.256938,-0.220945,-0.558603,0.757056,-0.484210,1.410409,-0.344178
1461,3447806968,0.241383,-0.195487,-0.582975,0.750775,-0.414645,-0.474872,0.005460
1462,3447840302,0.226684,-0.171288,-0.607051,0.742137,-1.110012,-2.704580,1.149025
1463,3447873636,0.217110,-0.153035,-0.622720,0.735981,-0.605269,-3.981211,1.651833
1464,3447906970,0.211348,-0.146400,-0.629779,0.732994,-0.250518,-4.038497,3.197098
