sep=,
DeviceTag:,2C_Leg
FirmwareVersion:,2.2.1
AppVersion:,2023.6.0
SyncStatus:,Synced
OutputRate:,30Hz
FilterProfile:,General
Measurement Mode:,Sensor fusion Mode - Complete(Quaternion)
StartTime: ,2026-05-01_14:42:37_253 AEST
© Movella Technologies B. V. 2005-2026

PacketCounter,SampleTimeFine,Quat_W,Quat_X,Quat_Y,Quat_Z,FreeAcc_X,FreeAcc_Y,FreeAcc_Z
1,2379647094,-0.570825,0.671934,-0.342889,0.324180,0.513700,0.466401,0.460115
2,2379680428,-0.572079,0.669940,-0.342322,0.326684,0.343661,0.139946,0.778257
3,2379713762,-0.573548,0.667487,-0.341928,0.329530,-0.082957,-0.311786,0.743134
4,2379747096,-0.575555,0.665308,-0.340787,0.331615,-0.305132,-0.305454,0.311860
5,2379780430,-0.578054,0.664110,-0.338002,0.332518,-0.232794,-0.396128,0.238029
6,2379813764,-0.580381,0.662606,-0.335625,0.333870,-0.179459,-0.591118,-0.033033
7,2379847098,-0.581597,0.660162,-0.335725,0.336485,-0.439931,-0.793617,-0.412825
8,2379880432,-0.581591,0.657123,-0.337986,0.340160,-0.268859,-0.858696,-0.450015
9,2379913766,-0.580050,0.653793,-0.342182,0.344979,-0.167211,-1.042415,-0.239614
10,2379947100,-0.577668,0.650906,-0.346692,0.349897,-0.074799,-0.494715,-0.064185
11,2379980434,-0.576090,0.648320,-0.349662,0.354315,0.510003,-0.137994,0.063895
12,2380013768,-0.574450,0.644915,-0.352303,0.360522,1.113807,-0.118995,0.304929
13,2380047102,-0.572122,0.641180,-0.355219,0.367950,0.980315,0.293495,0.348817
14,2380080436,-0.569590,0.638098,-0.357786,0.374687,0.388045,0.383749,0.108921
15,2380113770,-0.568786,0.634405,-0.358946,0.381015,0.131971,0.916619,-0.021461
16,2380147104,-0.570213,0.629474,-0.359523,0.386477,-0.207124,1.270935,-0.003963
17,2380180438,-0.572141,0.627070,-0.359533,0.387524,-0.301468,1.369291,-0.307711
18,2380213772,-0.573762,0.626486,-0.359658,0.385953,-0.145936,0.539824,-0.485319
19,2380247106,-0.576766,0.624590,-0.359769,0.384443,0.149230,0.517350,0.045561
20,2380280440,-0.581698,0.622060,-0.358896,0.381920,0.537105,-1.700848,-0.593975
21,2380313774,-0.583452,0.623174,-0.358363,0.377910,0.704674,-0.830683,0.439849
22,2380347108,-0.587622,0.622379,-0.356403,0.374598,0.628704,-0.396585,0.291771
23,2380380442,-0.585576,0.624431,-0.358615,0.372269,0.570348,-1.394908,0.169788
24,2380413776,-0.582124,0.627202,-0.361150,0.370570,0.122401,-1.009825,0.313550
25,2380447110,-0.578695,0.629538,-0.363685,0.369498,0.758058,-0.113686,0.305349
26,2380480444,-0.574662,0.631142,-0.367670,0.369113,0.468161,0.117534,-0.212219
27,2380513778,-0.571224,0.631317,-0.372592,0.369215,0.397856,0.284071,-0.093367
28,2380547112,-0.568358,0.631096,-0.377940,0.368579,-0.057764,-0.436899,0.118587
29,2380580446,-0.563670,0.630547,-0.385314,0.369082,0.165143,-1.190039,0.528698
30,2380613780,-0.556937,0.629766,-0.394393,0.371041,-0.092515,-1.038427,0.191703
31,2380647114,-0.550032,0.628969,-0.403746,0.372631,-0.150388,-0.827241,-0.024348
32,2380680448,-0.542636,0.627797,-0.414180,0.373997,-0.203689,-0.925688,0.285731
33,2380713782,-0.533849,0.625778,-0.426371,0.376320,-0.287959,-0.669223,-0.224374
34,2380747116,-0.523681,0.623673,-0.440054,0.378345,-0.397338,0.147868,0.003049
35,2380780450,-0.517609,0.620241,-0.450952,0.379508,-0.449367,0.091564,0.714395
36,2380813784,-0.513416,0.614233,-0.461338,0.382480,1.216002,-0.114152,0.531709
37,2380847118,-0.508610,0.607254,-0.472586,0.386295,0.595516,0.089571,-0.137804
38,2380880452,-0.502447,0.597613,-0.485742,0.393017,-0.042432,0.084013,0.144048
39,2380913786,-0.496048,0.588620,-0.498084,0.399220,-0.570866,1.730030,0.195989
40,2380947120,-0.491959,0.582695,-0.506597,0.402248,-1.035078,1.575152,0.382585
41,2380980454,-0.489912,0.579785,-0.511465,0.402791,-0.800864,1.095179,0.020467
42,2381013788,-0.489726,0.580199,-0.513095,0.400341,0.105138,-0.121163,0.112694
43,2381047122,-0.487402,0.579359,-0.516795,0.399633,0.109908,-1.024256,-0.232212
44,2381080456,-0.483589,0.577453,-0.522052,0.400191,0.047842,0.400873,0.156617
45,2381113790,-0.481356,0.575822,-0.525924,0.400165,-0.293801,1.077077,0.427815
46,2381147124,-0.479632,0.574361,-0.529138,0.400097,-0.036386,0.843435,0.272997
47,2381180458,-0.478581,0.574659,-0.530966,0.398503,-0.159300,0.633481,-0.121171
48,2381213792,-0.478230,0.576315,-0.531419,0.395921,0.015127,0.650381,-0.013664
49,2381247126,-0.477826,0.579251,-0.530814,0.392923,0.041636,0.366563,0.082211
50,2381280460,-0.478107,0.583566,-0.528613,0.389147,-0.027003,0.241001,0.234842
51,2381313794,-0.478432,0.588472,-0.525823,0.385116,0.198319,0.531291,0.149246
52,2381347128,-0.478559,0.593912,-0.522812,0.380682,0.271476,0.722715,0.224518
53,2381380462,-0.479354,0.600260,-0.518370,0.375768,0.252226,0.646593,0.290548
54,2381413796,-0.480869,0.608108,-0.511894,0.370048,0.010728,0.819005,0.175277
55,2381447130,-0.483103,0.617985,-0.502963,0.362955,-0.264681,1.046168,0.197682
56,2381480464,-0.486271,0.629553,-0.491471,0.354487,-0.447317,1.086287,0.145163
57,2381513798,-0.490688,0.642787,-0.477257,0.343916,-0.622610,0.988315,0.142946
58,2381547132,-0.495439,0.656766,-0.461298,0.332272,-0.604946,0.254580,0.100518
59,2381580466,-0.499805,0.669999,-0.445266,0.320993,-0.710550,-0.117281,-0.015117
60,2381613800,-0.503097,0.681390,-0.431074,0.311091,-0.410533,-0.518263,-0.104684
61,2381647134,-0.504623,0.691692,-0.418629,0.302769,-0.486119,0.068354,-0.011790
62,2381680468,-0.507275,0.700887,-0.405619,0.294796,-0.674602,0.341283,0.262583
63,2381713802,-0.510926,0.708758,-0.392977,0.286684,-0.292642,-0.129651,0.378559
64,2381747136,-0.514643,0.715237,-0.381391,0.279502,0.580859,0.014443,0.100739
65,2381780470,-0.519492,0.719997,-0.370095,0.273430,0.147411,-0.176248,0.266558
66,2381813804,-0.526032,0.724507,-0.357575,0.265560,0.921777,-0.545540,0.228082
67,2381847138,-0.532315,0.727594,-0.346045,0.259812,0.341216,-0.567396,-0.038126
68,2381880472,-0.536444,0.728538,-0.338637,0.258432,-0.295872,-0.585071,0.053815
69,2381913806,-0.540303,0.729037,-0.332459,0.257003,0.044569,-0.935446,0.053735
70,2381947140,-0.542155,0.729128,-0.328896,0.257429,0.209500,-1.084128,-0.019291
71,2381980474,-0.541336,0.729051,-0.328365,0.260035,-0.066946,-0.598379,-0.050948
72,2382013808,-0.540312,0.728783,-0.328452,0.262791,0.167565,-0.291958,0.111554
73,2382047142,-0.539660,0.728155,-0.328853,0.265359,0.311056,-0.160442,0.005767
74,2382080476,-0.538637,0.726914,-0.330343,0.268965,0.273195,-0.064796,0.087949
75,2382113810,-0.537651,0.725657,-0.331688,0.272650,0.344919,-0.040923,0.181080
76,2382147144,-0.536360,0.724087,-0.333569,0.277036,0.072178,0.128042,0.235756
77,2382180478,-0.534828,0.722474,-0.335837,0.281435,-0.048784,-0.055516,0.292139
78,2382213812,-0.534425,0.720836,-0.336940,0.285057,0.242150,0.039444,0.201803
79,2382247146,-0.534143,0.719952,-0.337240,0.287457,-0.009603,0.158282,0.055113
80,2382280480,-0.533537,0.718820,-0.338064,0.290432,-0.064585,0.085760,0.271095
81,2382313814,-0.533202,0.717780,-0.338711,0.292855,-0.112909,-0.048244,0.183046
82,2382347148,-0.533114,0.716796,-0.339186,0.294867,0.011511,-0.188168,0.237940
83,2382380482,-0.533059,0.715848,-0.339657,0.296725,0.119574,-0.164411,0.142360
84,2382413816,-0.532770,0.715169,-0.340165,0.298293,-0.053290,-0.111911,0.129361
85,2382447150,-0.532400,0.714724,-0.340556,0.299572,-0.130690,0.033618,0.138008
86,2382480484,-0.532178,0.714955,-0.340230,0.299786,-0.155540,0.112489,0.007862
87,2382513818,-0.531804,0.715756,-0.339384,0.299498,0.009144,0.125073,0.055925
88,2382547152,-0.530723,0.717153,-0.338631,0.298924,-0.128442,0.057982,0.066277
89,2382580486,-0.529286,0.718901,-0.337893,0.298106,-0.052410,0.193827,0.256513
90,2382613820,-0.528793,0.720722,-0.336148,0.296553,0.294861,0.487098,0.264279
91,2382647154,-0.529061,0.722112,-0.333959,0.295164,0.484307,0.352185,0.233473
92,2382680488,-0.529768,0.722579,-0.332124,0.294822,0.448280,0.207741,0.330295
93,2382713822,-0.530993,0.722715,-0.330153,0.294499,0.102510,0.179877,0.266361
94,2382747156,-0.532383,0.723023,-0.327834,0.293826,-0.013510,-0.024366,0.070552
95,2382780490,-0.533979,0.723302,-0.325255,0.293106,0.023816,-0.256922,-0.052478
96,2382813824,-0.535783,0.723356,-0.322867,0.292322,0.110305,-0.485094,0.084200
97,2382847158,-0.537354,0.723144,-0.321382,0.291599,-0.056483,-0.801127,0.104306
98,2382880492,-0.538073,0.722070,-0.321854,0.292411,-0.147262,-0.723140,-0.064670
99,2382913826,-0.537861,0.720361,-0.324092,0.294535,-0.087793,-0.669575,0.106046
100,2382947160,-0.537707,0.718293,-0.326921,0.296733,-0.019679,-0.635736,0.147050
101,2382980494,-0.537576,0.715557,-0.330511,0.299591,0.104957,-0.518893,0.104580
102,2383013828,-0.537128,0.712199,-0.335062,0.303317,0.088932,-0.279152,0.232968
103,2383047162,-0.536890,0.708236,-0.340101,0.307383,0.058973,-0.101436,0.125466
104,2383080496,-0.537342,0.703669,-0.345076,0.311509,0.108227,-0.045021,0.192373
105,2383113830,-0.537967,0.698592,-0.350308,0.315987,0.095015,-0.116432,0.169312
106,2383147164,-0.538348,0.693586,-0.355736,0.320270,-0.105600,-0.198720,0.158119
107,2383180498,-0.539086,0.688453,-0.361034,0.324155,-0.123793,-0.240771,0.010028
108,2383213832,-0.539761,0.682911,-0.366692,0.328374,0.078768,-0.166977,0.211905
109,2383247166,-0.539766,0.677433,-0.372952,0.332634,0.055825,-0.259952,0.081184
110,2383280500,-0.539156,0.672053,-0.379698,0.336877,0.093352,-0.081765,0.135915
111,2383313834,-0.538800,0.666114,-0.386436,0.341549,0.253299,0.303999,0.280920
112,2383347168,-0.539585,0.659767,-0.392359,0.345849,0.402996,0.558662,0.444294
113,2383380502,-0.541459,0.654114,-0.397181,0.348147,0.196106,0.379905,0.515146
114,2383413836,-0.543676,0.647771,-0.402356,0.350600,0.503068,-0.355129,0.203027
115,2383447170,-0.543655,0.640344,-0.409891,0.355514,0.567768,-0.825002,-0.179372
116,2383480504,-0.542136,0.632991,-0.418343,0.361113,0.217370,-0.443021,-0.345523
117,2383513838,-0.540422,0.626706,-0.426104,0.365542,-0.161551,-0.081804,-0.187312
118,2383547172,-0.538193,0.620729,-0.433440,0.370373,0.017869,-0.345269,-0.187861
119,2383580506,-0.532972,0.614650,-0.442726,0.377015,-0.102935,-0.036470,0.030201
120,2383613840,-0.526733,0.609923,-0.452102,0.382299,-0.852785,1.125835,0.320012
121,2383647174,-0.523240,0.606688,-0.458522,0.384587,-0.541439,0.938915,0.237526
122,2383680508,-0.521042,0.602782,-0.463561,0.387662,0.402704,0.498501,0.241448
123,2383713842,-0.519145,0.599216,-0.468046,0.390339,0.266485,0.183612,0.132344
124,2383747176,-0.518079,0.595455,-0.472353,0.392316,-0.280117,0.243304,0.275319
125,2383780510,-0.517776,0.591202,-0.476245,0.394436,-0.200370,-0.034706,0.096592
126,2383813844,-0.516547,0.586786,-0.480748,0.397172,-0.183557,-0.112765,-0.049929
127,2383847178,-0.515217,0.583151,-0.484742,0.399391,-0.239996,-0.076568,0.084619
128,2383880512,-0.514181,0.580499,-0.487721,0.400959,-0.058797,-0.174329,0.145987
129,2383913846,-0.512605,0.578224,-0.491001,0.402260,-0.084706,-0.406232,-0.106272
130,2383947180,-0.509900,0.575757,-0.495176,0.404114,0.078214,-0.416325,0.130437
131,2383980514,-0.507180,0.573579,-0.498855,0.406105,0.084227,0.279958,0.174380
132,2384013848,-0.505855,0.572643,-0.500877,0.406590,0.198235,0.959078,0.186604
133,2384047182,-0.504950,0.572536,-0.502236,0.406188,0.166558,0.602628,0.098855
134,2384080516,-0.504695,0.573472,-0.502481,0.404881,0.243594,0.476574,0.297527
135,2384113850,-0.504661,0.575047,-0.502136,0.403112,0.023335,0.284937,-0.041121
136,2384147184,-0.504196,0.577347,-0.501750,0.400882,0.070116,0.532193,0.112755
137,2384180518,-0.504242,0.580735,-0.500187,0.397872,0.324540,0.180528,0.379779
138,2384213852,-0.504361,0.584525,-0.498179,0.394678,0.310250,0.296723,0.150985
139,2384247186,-0.504105,0.588342,-0.496455,0.391493,-0.007278,0.380621,0.068324
140,2384280520,-0.503828,0.592650,-0.494235,0.388146,-0.042206,0.237572,0.169870
141,2384313854,-0.503436,0.597838,-0.491327,0.384371,-0.267191,0.188321,-0.023570
142,2384347188,-0.502411,0.604209,-0.487987,0.379980,-0.571359,0.241797,-0.078156
143,2384380522,-0.501055,0.611488,-0.484121,0.375039,-0.514031,0.288678,0.017885
144,2384413856,-0.499930,0.619123,-0.479416,0.370024,0.091749,0.451435,0.312977
145,2384447190,-0.500088,0.626798,-0.473194,0.364864,0.492174,0.738414,0.371766
146,2384480524,-0.500570,0.634027,-0.466662,0.360094,0.148706,0.611914,0.289370
147,2384513858,-0.501244,0.640901,-0.460047,0.355470,-0.376920,0.562168,0.114888
148,2384547192,-0.502435,0.647720,-0.452854,0.350634,-0.485403,0.275115,0.043597
149,2384580526,-0.503886,0.654764,-0.444917,0.345591,-0.362086,-0.014241,0.106276
150,2384613860,-0.505413,0.661962,-0.436440,0.340420,-0.304688,0.091085,0.118813
151,2384647194,-0.507490,0.668924,-0.427530,0.334985,-0.212553,-0.020151,0.178252
152,2384680528,-0.509852,0.675067,-0.418750,0.330130,-0.091217,-0.182812,0.079259
153,2384713862,-0.512536,0.680426,-0.410129,0.325766,0.017920,-0.299547,0.198936
154,2384747196,-0.515227,0.684887,-0.402087,0.322177,0.097436,-0.265185,0.165282
155,2384780530,-0.517871,0.688363,-0.394952,0.319344,0.098342,-0.203675,0.147510
156,2384813864,-0.520608,0.690620,-0.389053,0.317255,0.132335,-0.202018,0.082720
157,2384847198,-0.523195,0.691837,-0.384438,0.315971,0.280811,-0.201536,0.218852
158,2384880532,-0.525708,0.692692,-0.380329,0.314899,0.456642,-0.319659,0.130946
159,2384913866,-0.527848,0.693506,-0.376564,0.314049,0.365791,-0.422041,0.021993
160,2384947200,-0.529401,0.694384,-0.373494,0.313161,0.061555,-0.600102,-0.004868
161,2384980534,-0.530009,0.694307,-0.372482,0.313507,-0.125470,-0.657779,0.042991
162,2385013868,-0.529715,0.693246,-0.373498,0.315141,0.049674,-0.710901,0.059634
163,2385047202,-0.528588,0.691811,-0.375639,0.317630,0.194224,-0.533225,0.121533
164,2385080536,-0.527591,0.690097,-0.377775,0.320472,0.023407,0.132563,0.145929
165,2385113870,-0.527281,0.688700,-0.379204,0.322293,-0.032144,0.254072,0.284993
166,2385147204,-0.526669,0.686587,-0.381390,0.325209,0.122757,0.073913,0.290567
167,2385180538,-0.525338,0.683991,-0.384445,0.329211,0.081301,-0.008333,0.117075
168,2385213872,-0.524606,0.682224,-0.386295,0.331869,-0.044496,0.129865,0.142201
169,2385247206,-0.524221,0.680979,-0.387285,0.333872,-0.230098,0.008496,0.131534
170,2385280540,-0.523518,0.679870,-0.388304,0.336047,-0.297652,-0.052773,0.076785
171,2385313874,-0.522933,0.679314,-0.388836,0.337464,-0.186753,0.103851,-0.026694
172,2385347208,-0.522323,0.679571,-0.388627,0.338132,-0.002905,0.256388,0.052214
173,2385380542,-0.521559,0.680682,-0.387691,0.338151,-0.150837,0.320813,0.073073
174,2385413876,-0.521239,0.682951,-0.385286,0.336815,-0.159623,0.315521,0.051893
175,2385447210,-0.521361,0.686502,-0.381193,0.334052,-0.015919,0.024586,0.194337
176,2385480544,-0.521800,0.690275,-0.376343,0.331080,0.079673,0.003278,0.261912
177,2385513878,-0.522660,0.693865,-0.371344,0.327845,0.230806,0.063441,0.257420
178,2385547212,-0.523717,0.697088,-0.366738,0.324490,0.245312,-0.009788,0.260025
179,2385580546,-0.524703,0.699707,-0.362818,0.321654,0.119183,-0.141394,0.172862
180,2385613880,-0.526063,0.701533,-0.359219,0.319489,0.051757,0.019246,0.055161
181,2385647214,-0.527632,0.703164,-0.355674,0.317273,-0.004977,-0.233821,0.147813
182,2385680548,-0.528924,0.705146,-0.352155,0.314638,-0.085523,-0.403877,0.088161
183,2385713882,-0.530257,0.707105,-0.348617,0.311926,-0.110395,-0.221864,0.022911
184,2385747216,-0.531545,0.708804,-0.345401,0.309444,0.098059,-0.286879,0.068642
185,2385780550,-0.532181,0.710079,-0.343471,0.307572,0.191281,-0.301748,0.093044
186,2385813884,-0.532605,0.710487,-0.342808,0.306636,0.262255,-0.249802,0.156999
187,2385847218,-0.533180,0.710059,-0.342975,0.306439,0.326364,-0.211956,0.218709
188,2385880552,-0.533641,0.708853,-0.344183,0.307074,0.155609,-0.367610,0.236098
189,2385913886,-0.533697,0.706873,-0.346662,0.308748,0.089082,-0.434747,0.159859
190,2385947220,-0.533780,0.704292,-0.349927,0.310812,0.064231,-0.300101,0.130080
191,2385980554,-0.534263,0.700885,-0.353845,0.313238,0.184137,-0.259600,0.241014
192,2386013888,-0.534773,0.696580,-0.358632,0.316512,0.294090,-0.283888,0.187416
193,2386047222,-0.534738,0.691825,-0.364409,0.320376,0.104650,-0.261995,0.162791
194,2386080556,-0.534587,0.686773,-0.370759,0.324190,-0.068023,-0.160006,0.017282
195,2386113890,-0.534539,0.680636,-0.378006,0.328812,-0.008898,-0.115111,0.097124
196,2386147224,-0.534373,0.673531,-0.386106,0.334253,0.210382,-0.174201,0.274785
197,2386180558,-0.533843,0.666533,-0.394350,0.339464,0.121438,-0.343994,0.205365
198,2386213892,-0.533243,0.659287,-0.402696,0.344718,-0.000990,-0.219395,0.148362
199,2386247226,-0.532599,0.651281,-0.411354,0.350658,0.082091,0.020785,0.075191
200,2386280560,-0.531370,0.642810,-0.420437,0.357317,-0.008052,0.126233,0.006912
201,2386313894,-0.529353,0.634721,-0.429608,0.363804,-0.021317,0.257196,0.142568
202,2386347228,-0.527736,0.628094,-0.437255,0.368514,0.028231,0.360783,0.182892
203,2386380562,-0.526926,0.622890,-0.442996,0.371635,0.041628,0.231520,0.067087
204,2386413896,-0.525723,0.618229,-0.448409,0.374620,0.169277,0.125365,0.007262
205,2386447230,-0.523223,0.614201,-0.454488,0.377408,0.122718,0.448586,0.069921
206,2386480564,-0.521576,0.611310,-0.459348,0.378496,0.028900,0.416027,0.205435
207,2386513898,-0.521448,0.608638,-0.462518,0.379119,0.415763,0.106674,0.200810
208,2386547232,-0.521052,0.606362,-0.465590,0.379550,0.110621,-0.262121,-0.026933
209,2386580566,-0.519374,0.603649,-0.469944,0.380804,-0.327390,0.025336,-0.005575
210,2386613900,-0.518139,0.601692,-0.473445,0.381250,-0.347223,-0.067046,0.039181
211,2386647234,-0.516885,0.599919,-0.476732,0.381649,-0.272637,-0.231284,0.098167
212,2386680568,-0.514978,0.598449,-0.480335,0.382016,-0.259640,-0.250822,0.065436
213,2386713902,-0.513634,0.597864,-0.482868,0.381548,-0.190969,-0.307747,0.122540
214,2386747236,-0.513309,0.597736,-0.484511,0.380101,-0.062750,-0.522942,0.159370
215,2386780570,-0.511647,0.595886,-0.488179,0.380553,-0.004549,-0.392391,0.073897
216,2386813904,-0.508912,0.592744,-0.493109,0.382764,0.489374,0.080369,0.259218
217,2386847238,-0.506207,0.588981,-0.498224,0.385527,0.362156,0.381490,0.287237
218,2386880572,-0.503829,0.585407,-0.503011,0.387862,0.027420,0.777929,0.316298
219,2386913906,-0.502704,0.582592,-0.506372,0.389185,-0.288354,0.271957,0.152245
220,2386947240,-0.501617,0.580446,-0.509238,0.390053,-0.321209,-0.148093,-0.176224
221,2386980574,-0.499862,0.578557,-0.512402,0.390968,-0.149271,-0.479420,-0.046771
222,2387013908,-0.496889,0.576377,-0.516573,0.392485,0.024331,-0.060816,0.015134
223,2387047242,-0.494264,0.574584,-0.520261,0.393557,0.201618,0.463564,0.318757
224,2387080576,-0.491940,0.573282,-0.523250,0.394403,0.284283,0.489711,0.112702
225,2387113910,-0.489867,0.573081,-0.525502,0.394282,0.069962,0.899061,0.088255
226,2387147244,-0.488814,0.574525,-0.526013,0.392803,0.205356,0.789836,0.178096
227,2387180578,-0.488189,0.577407,-0.525218,0.390411,0.370379,0.472191,0.206527
228,2387213912,-0.487887,0.581278,-0.523416,0.387453,0.426224,0.522360,0.253688
229,2387247246,-0.488038,0.585997,-0.520591,0.383944,0.233039,0.481495,0.216948
230,2387280580,-0.488322,0.591606,-0.516906,0.379939,0.070944,0.642782,0.085435
231,2387313914,-0.488851,0.598324,-0.512178,0.375111,-0.011614,0.966908,0.216219
232,2387347248,-0.489756,0.605880,-0.506387,0.369626,0.079804,1.207343,0.232016
233,2387380582,-0.491239,0.614126,-0.499322,0.363611,-0.040698,0.932266,0.227044
234,2387413916,-0.493123,0.623219,-0.490864,0.357047,-0.319988,0.634839,0.077554
235,2387447250,-0.495107,0.632987,-0.481354,0.349996,-0.718943,0.433281,0.096801
236,2387480584,-0.497437,0.643081,-0.470813,0.342549,-0.771522,0.284792,0.039592
237,2387513918,-0.500152,0.653104,-0.459494,0.334919,-0.536366,0.128795,0.205812
238,2387547252,-0.503415,0.662048,-0.448123,0.327801,-0.154065,-0.076943,0.224397
239,2387580586,-0.506306,0.669096,-0.438218,0.322384,-0.168715,-0.225092,0.159668
240,2387613920,-0.508412,0.674648,-0.429977,0.318574,-0.550381,-0.392970,0.079729
241,2387647254,-0.510376,0.679349,-0.422222,0.315804,-0.677182,-0.292534,-0.046056
242,2387680588,-0.512939,0.684040,-0.413506,0.313044,-0.500267,-0.100249,0.035548
243,2387713922,-0.516523,0.689199,-0.403236,0.309211,-0.391688,-0.238542,0.121863
244,2387747256,-0.520240,0.694246,-0.392822,0.305065,-0.244468,-0.375482,0.121738
245,2387780590,-0.523874,0.698563,-0.383019,0.301437,0.271416,-0.357329,0.101548
246,2387813924,-0.527088,0.701727,-0.374873,0.298714,0.570399,-0.323287,0.052405
247,2387847258,-0.528996,0.703257,-0.369773,0.298097,0.596000,-0.425373,0.230846
248,2387880592,-0.530232,0.703673,-0.366497,0.298966,0.509975,-0.378902,0.196087
249,2387913926,-0.531843,0.703970,-0.363298,0.299307,0.278822,-0.542424,-0.033566
250,2387947260,-0.532773,0.703626,-0.361592,0.300527,0.154575,-0.643070,-0.004014
251,2387980594,-0.532823,0.702837,-0.361291,0.302641,0.121504,-0.703189,0.280720
252,2388013928,-0.533112,0.701981,-0.360886,0.304594,0.042813,-0.465932,0.089930
253,2388047262,-0.534178,0.700939,-0.360040,0.306125,0.016136,-0.234002,0.178064
254,2388080596,-0.535535,0.699544,-0.359560,0.307503,0.144147,-0.446739,0.209663
255,2388113930,-0.535449,0.697598,-0.361191,0.310152,0.171344,-0.604567,0.019315
256,2388147264,-0.534686,0.695035,-0.364214,0.313667,-0.341555,-0.505954,-0.039613
257,2388180598,-0.534387,0.691964,-0.367128,0.317547,-0.246143,0.045385,0.094753
258,2388213932,-0.535337,0.689694,-0.368381,0.319428,0.051337,0.037050,0.193787
259,2388247266,-0.536991,0.687231,-0.369131,0.321088,0.576206,-0.011159,0.170155
260,2388280600,-0.537271,0.683953,-0.371847,0.324470,0.498749,-0.143576,0.238164
261,2388313934,-0.535812,0.680481,-0.376306,0.329009,0.113238,-0.135157,0.132692
262,2388347268,-0.534481,0.678019,-0.379752,0.332280,-0.315890,0.390265,0.034227
263,2388380602,-0.533301,0.677396,-0.381465,0.333483,-0.283187,0.328353,0.049995
264,2388413936,-0.531321,0.678271,-0.382288,0.333924,-0.096469,0.757952,0.007066
265,2388447270,-0.529698,0.680787,-0.381238,0.332578,0.174898,1.017683,0.217133
266,2388480604,-0.530035,0.684562,-0.377333,0.328725,0.778281,0.792865,0.330183
267,2388513938,-0.530959,0.688101,-0.372754,0.325047,0.730537,0.329153,0.343948
268,2388547272,-0.531605,0.690820,-0.368830,0.322692,0.239346,0.080114,0.186632
269,2388580606,-0.532846,0.693170,-0.364897,0.320066,-0.229644,0.071769,0.252911
270,2388613940,-0.534186,0.695649,-0.360808,0.317076,-0.196127,-0.553957,-0.021644
271,2388647274,-0.534078,0.698473,-0.357534,0.314749,-0.513328,-0.540896,-0.141612
272,2388680608,-0.533840,0.702118,-0.353671,0.311389,-0.695517,-0.526160,-0.028918
273,2388713942,-0.533662,0.705948,-0.349540,0.307678,-0.357783,-0.216603,0.116663
274,2388747276,-0.533346,0.709916,-0.345412,0.303734,-0.023067,-0.228665,0.136329
275,2388780610,-0.533136,0.713798,-0.341148,0.299797,0.152555,0.062791,0.187376
276,2388813944,-0.533229,0.716984,-0.337196,0.296482,0.165181,0.252570,0.190955
277,2388847278,-0.534049,0.719016,-0.333771,0.293948,0.245008,0.255073,0.280235
278,2388880612,-0.535419,0.719795,-0.331203,0.292453,0.349886,-0.017664,0.341257
279,2388913946,-0.536450,0.719529,-0.330040,0.292532,0.161118,-0.198458,0.230702
280,2388947280,-0.537874,0.718661,-0.329459,0.292706,-0.137568,-0.360140,0.059958
281,2388980614,-0.539826,0.716607,-0.329714,0.293859,0.093455,-0.439910,0.076905
282,2389013948,-0.541349,0.713721,-0.331382,0.296195,0.220291,-0.544245,0.230820
283,2389047282,-0.542515,0.710268,-0.334338,0.299026,0.104403,-0.561206,0.089117
284,2389080616,-0.543701,0.705695,-0.338653,0.302819,0.072370,-0.478137,0.040331
285,2389113950,-0.544251,0.700179,-0.344623,0.307858,0.119818,-0.541032,0.106448
286,2389147284,-0.544095,0.694210,-0.351719,0.313573,0.098042,-0.406941,0.232639
287,2389180618,-0.544312,0.688159,-0.358432,0.318888,0.234216,-0.175289,0.150355
288,2389213952,-0.544582,0.681995,-0.365068,0.324098,0.295445,-0.268228,0.187054
289,2389247286,-0.543781,0.675190,-0.373149,0.330428,0.132220,-0.111873,0.253714
290,2389280620,-0.543078,0.667951,-0.381580,0.336610,0.015412,0.177283,0.206859
291,2389313954,-0.542935,0.660288,-0.389809,0.342480,0.157235,-0.104485,-0.012707
292,2389347288,-0.542041,0.651767,-0.398984,0.349578,0.238287,-0.245675,0.014750
293,2389380622,-0.540092,0.642806,-0.409093,0.357414,-0.002248,-0.287314,0.012442
294,2389413956,-0.537790,0.634472,-0.418994,0.364244,-0.270706,-0.620700,0.064582
295,2389447290,-0.534904,0.625469,-0.428616,0.372768,0.395259,-0.844544,0.011878
296,2389480624,-0.531834,0.617021,-0.436830,0.381601,0.354961,0.070169,0.080784
297,2389513958,-0.530959,0.612080,-0.441768,0.385076,-0.499541,0.482803,0.305872
298,2389547292,-0.531365,0.608311,-0.445964,0.385652,-0.279942,0.162959,0.312915
299,2389580626,-0.529677,0.602336,-0.452716,0.389466,0.547780,-0.143524,0.031984
300,2389613960,-0.526072,0.596117,-0.460857,0.394344,0.599465,-0.037905,0.203189
301,2389647294,-0.523917,0.591420,-0.467297,0.396698,0.269325,0.185627,0.266260
302,2389680628,-0.521767,0.587079,-0.473586,0.398516,-0.096011,0.056908,-0.006168
303,2389713962,-0.517167,0.581959,-0.481688,0.402293,-0.478302,-0.079520,-0.217427
304,2389747296,-0.513104,0.577964,-0.488785,0.404688,-0.552086,0.301320,-0.009885
305,2389780630,-0.510860,0.575612,-0.493516,0.405138,-0.166367,0.153126,0.045459
306,2389813964,-0.508372,0.573800,-0.497994,0.405358,0.042618,0.053480,0.028674
307,2389847298,-0.505707,0.571590,-0.502832,0.405842,0.300795,0.192318,0.199600
308,2389880632,-0.503330,0.568736,-0.507806,0.406612,0.291113,0.167515,0.367196
309,2389913966,-0.501217,0.565416,-0.512850,0.407520,0.028512,0.033458,0.098516
310,2389947300,-0.498830,0.562169,-0.517982,0.408449,-0.269105,0.055412,-0.019625
311,2389980634,-0.496722,0.559699,-0.522334,0.408868,-0.326475,0.017592,0.154325
312,2390013968,-0.494993,0.557928,-0.525772,0.408978,-0.166963,-0.220717,0.015105
313,2390047302,-0.492704,0.556293,-0.529459,0.409215,-0.097848,0.112586,0.070844
314,2390080636,-0.490739,0.554839,-0.532907,0.409073,-0.075239,0.241402,0.228543
315,2390113970,-0.488765,0.553299,-0.536338,0.409039,0.094042,0.016697,0.099973
316,2390147304,-0.486001,0.551120,-0.540597,0.409666,0.216326,0.367164,0.045174
317,2390180638,-0.483494,0.549649,-0.544429,0.409533,0.141377,0.603240,0.091376
318,2390213972,-0.481147,0.549952,-0.546884,0.408619,0.228593,0.597485,0.143831
319,2390247306,-0.479404,0.552102,-0.547663,0.406722,0.325293,0.827325,0.222647
320,2390280640,-0.478712,0.555500,-0.547122,0.403626,0.328731,0.837490,0.219149
321,2390313974,-0.478073,0.559631,-0.546106,0.400037,0.271469,0.544969,0.289836
322,2390347308,-0.477923,0.564915,-0.543782,0.395935,0.186478,0.461666,0.256435
323,2390380642,-0.478278,0.571476,-0.540019,0.391213,-0.026325,0.786535,0.273303
324,2390413976,-0.479028,0.578686,-0.535260,0.386204,-0.146829,0.938297,0.166906
325,2390447310,-0.480285,0.586273,-0.529655,0.380891,-0.270647,0.700519,0.241211
326,2390480644,-0.481414,0.594115,-0.523479,0.375819,-0.381280,0.353755,0.209067
327,2390513978,-0.483208,0.602013,-0.516284,0.370868,0.007130,0.383324,0.332886
328,2390547312,-0.485486,0.609115,-0.508798,0.366617,0.188265,0.384806,0.334344
329,2390580646,-0.487823,0.615747,-0.501227,0.362847,-0.066380,0.670637,0.215522
330,2390613980,-0.490817,0.623102,-0.492240,0.358532,-0.581427,0.879956,0.096287
331,2390647314,-0.494685,0.632053,-0.480813,0.353010,-1.103248,1.239631,-0.129951
332,2390680648,-0.501062,0.644351,-0.464317,0.343743,-1.465667,1.204328,-0.031892
333,2390713982,-0.509732,0.659739,-0.442883,0.329808,-1.108223,-0.704434,-0.313788
334,2390747316,-0.515279,0.673546,-0.423957,0.317940,-0.314871,-1.223335,-0.092732
335,2390780650,-0.517875,0.683804,-0.409794,0.310304,0.013248,-0.578535,0.088146
336,2390813984,-0.520296,0.691549,-0.397689,0.304790,0.146960,0.056388,0.327793
337,2390847318,-0.524117,0.698329,-0.385201,0.298764,-0.005217,0.086846,0.371476
338,2390880652,-0.528415,0.703659,-0.373542,0.293444,0.319708,-0.287930,0.240670
339,2390913986,-0.532439,0.707176,-0.363818,0.289911,0.588601,-0.349580,0.102635
340,2390947320,-0.535554,0.708692,-0.357306,0.288571,0.216849,-0.614307,0.116118
341,2390980654,-0.537569,0.708641,-0.353970,0.289059,0.605116,-0.515890,-0.067630
342,2391013988,-0.538595,0.707702,-0.352365,0.291400,0.383410,-0.198408,-0.009155
343,2391047322,-0.539777,0.707275,-0.350309,0.292727,0.247378,-0.543036,0.265781
344,2391080656,-0.541402,0.706277,-0.348655,0.294105,0.315193,-0.358606,0.024110
345,2391113990,-0.542366,0.704256,-0.348894,0.296879,0.434398,-0.420022,0.155912
346,2391147324,-0.542377,0.701325,-0.351177,0.301077,0.303401,-0.764260,0.080112
347,2391180658,-0.542026,0.697902,-0.354451,0.305787,0.035936,-0.371091,0.049844
348,2391213992,-0.541627,0.694639,-0.357687,0.310127,-0.064767,-0.355573,0.251584
349,2391247326,-0.541445,0.692283,-0.359605,0.313477,-0.169004,-0.308044,0.241262
350,2391280660,-0.541810,0.691336,-0.359445,0.315117,-0.375852,-0.141719,-0.007896
351,2391313994,-0.542750,0.691424,-0.358156,0.314772,-0.268153,-0.173265,0.059989
352,2391347328,-0.543305,0.690636,-0.358433,0.315230,0.084509,-0.225802,0.087483
353,2391380662,-0.543605,0.688770,-0.359979,0.317027,0.497782,-0.492018,0.229819
354,2391413996,-0.544025,0.685513,-0.362344,0.320652,0.393884,-0.261014,0.177293
355,2391447330,-0.544460,0.681752,-0.365443,0.324393,-0.162645,-0.412317,0.104990
356,2391480664,-0.543903,0.678413,-0.369470,0.327748,-0.414031,-0.412087,0.105860
357,2391513998,-0.542162,0.676604,-0.373229,0.330106,-0.513018,-0.174477,-0.019425
358,2391547332,-0.539607,0.676520,-0.376027,0.331286,-0.286389,-0.027820,-0.022941
359,2391580666,-0.536477,0.678276,-0.377549,0.331047,-0.191301,0.473244,-0.070031
360,2391614000,-0.534250,0.682007,-0.376412,0.328268,-0.090155,0.718243,0.161972
361,2391647334,-0.532944,0.686493,-0.373464,0.324383,0.314285,0.527587,0.349826
362,2391680668,-0.532623,0.691166,-0.369038,0.320024,0.424330,0.284996,0.356219
363,2391714002,-0.533204,0.694996,-0.364274,0.316196,0.505511,0.394626,0.273973
364,2391747336,-0.534364,0.697987,-0.359564,0.313027,-0.006246,0.339848,0.020074
365,2391780670,-0.535367,0.701140,-0.354570,0.309947,-0.198602,0.210042,0.203255
366,2391814004,-0.536516,0.705603,-0.348184,0.305032,-0.503971,-0.051520,0.011829
367,2391847338,-0.537296,0.710181,-0.341880,0.300126,-0.520558,-0.076768,-0.006552
368,2391880672,-0.537390,0.714482,-0.336278,0.296049,-0.138408,-0.309898,-0.018342
369,2391914006,-0.537536,0.719082,-0.330424,0.291202,-0.057774,-0.164304,0.032454
370,2391947340,-0.538096,0.723219,-0.324665,0.286360,0.216241,-0.242676,0.257474
371,2391980674,-0.539045,0.725680,-0.320542,0.282972,0.593919,-0.355057,0.337301
372,2392014008,-0.539902,0.725767,-0.319437,0.282366,0.898367,-0.486462,0.339257
373,2392047342,-0.540735,0.723756,-0.320862,0.284310,0.686479,-0.772441,0.320305
374,2392080676,-0.542067,0.720365,-0.323654,0.287207,0.271716,-0.773608,0.204320
375,2392114010,-0.543549,0.715675,-0.328012,0.291159,0.059864,-0.711319,0.067020
376,2392147344,-0.544613,0.709903,-0.334049,0.296393,0.129897,-0.714740,0.086452
377,2392180678,-0.544707,0.703570,-0.341719,0.302512,0.033315,-0.539391,0.104147
378,2392214012,-0.543994,0.697069,-0.350438,0.308805,-0.143498,-0.489465,0.156883
379,2392247346,-0.543125,0.689801,-0.359810,0.315798,0.044401,-0.176790,-0.003001
380,2392280680,-0.541863,0.682267,-0.369309,0.323278,0.077952,0.007667,0.199659
381,2392314014,-0.540953,0.675051,-0.378158,0.329659,-0.088368,0.164494,0.153114
382,2392347348,-0.540442,0.666789,-0.387441,0.336461,0.220437,0.106489,0.118764
383,2392380682,-0.539067,0.657281,-0.397964,0.344987,0.505630,0.032101,0.114455
384,2392414016,-0.537084,0.648307,-0.408382,0.352797,0.059002,0.089634,0.079797
385,2392447350,-0.535441,0.640322,-0.417841,0.358749,-0.321501,-0.062631,0.200424
386,2392480684,-0.533328,0.632537,-0.427064,0.364796,-0.048390,-0.130576,0.165718
387,2392514018,-0.531009,0.625733,-0.435128,0.370342,0.311204,0.038989,0.019450
388,2392547352,-0.529145,0.620879,-0.441442,0.373693,0.283066,0.169370,0.183903
389,2392580686,-0.527646,0.616119,-0.447267,0.376750,0.313807,0.184430,0.193742
390,2392614020,-0.524859,0.611024,-0.453630,0.381305,0.035959,0.405929,-0.123452
391,2392647354,-0.522953,0.608010,-0.458047,0.383456,-0.133657,0.316821,0.041316
392,2392680688,-0.522707,0.605248,-0.461880,0.383562,-0.683865,-0.430524,0.056657
393,2392714022,-0.520639,0.598971,-0.469234,0.387285,-0.144301,-0.389488,0.107654
394,2392747356,-0.517204,0.590970,-0.478280,0.393071,0.546949,-0.478641,0.271949
395,2392780690,-0.513510,0.584037,-0.486849,0.397730,0.285864,-0.126681,0.156933
396,2392814024,-0.509052,0.578174,-0.495195,0.401701,-0.076633,0.242565,0.196696
397,2392847358,-0.504508,0.573000,-0.502880,0.405285,0.204975,0.037927,0.319006
398,2392880692,-0.499420,0.567844,-0.510911,0.408785,0.173632,0.148899,0.047081
399,2392914026,-0.494628,0.562983,-0.518417,0.411873,0.048994,0.294477,-0.023065
400,2392947360,-0.490416,0.558798,-0.524983,0.414284,-0.437284,0.462993,-0.082368
401,2392980694,-0.487266,0.555887,-0.530182,0.415296,-0.655174,0.253715,-0.066228
402,2393014028,-0.483978,0.553518,-0.534879,0.416280,-0.284930,-0.193309,0.036820
403,2393047362,-0.480518,0.551351,-0.539523,0.417171,-0.026246,0.274329,0.088310
404,2393080696,-0.478207,0.550360,-0.542552,0.417206,0.026777,0.449386,0.235359
405,2393114030,-0.476707,0.550597,-0.544229,0.416425,-0.232859,0.505234,0.081310
406,2393147364,-0.475394,0.551335,-0.545671,0.415061,-0.129405,0.303701,0.104451
407,2393180698,-0.474247,0.552313,-0.546743,0.413659,0.257718,-0.016941,0.148505
408,2393214032,-0.472992,0.553784,-0.547537,0.412076,0.294326,0.352040,0.072624
409,2393247366,-0.472738,0.556395,-0.547001,0.409555,0.286443,0.556795,0.323174
410,2393280700,-0.472876,0.559616,-0.545754,0.406661,0.307779,0.311613,0.296924
411,2393314034,-0.472820,0.562732,-0.544643,0.403906,0.119104,0.215110,0.097101
412,2393347368,-0.472757,0.566038,-0.543350,0.401093,0.068745,0.335596,0.135283
413,2393380702,-0.473015,0.570337,-0.541202,0.397587,-0.134518,0.352916,0.138504
414,2393414036,-0.473580,0.575265,-0.538293,0.393743,-0.042145,0.555122,0.249836
415,2393447370,-0.474690,0.580490,-0.534721,0.389584,-0.053381,0.456047,0.211458
416,2393480704,-0.475754,0.585599,-0.531021,0.385681,0.005186,0.320060,0.146926
417,2393514038,-0.476969,0.591084,-0.526698,0.381721,0.124001,0.360302,0.158123
418,2393547372,-0.478010,0.597013,-0.521935,0.377713,-0.047194,0.426020,0.137931
419,2393580706,-0.479078,0.603908,-0.516202,0.373251,-0.119465,0.724249,0.244541
420,2393614040,-0.481104,0.611382,-0.509049,0.368269,0.116442,0.954753,0.342194
421,2393647374,-0.483018,0.618944,-0.501552,0.363386,-0.000357,0.750198,0.156125
422,2393680708,-0.484827,0.627440,-0.493035,0.358022,-0.382027,0.478824,-0.026749
423,2393714042,-0.486509,0.636945,-0.483316,0.352160,-0.544110,0.487133,0.070701
424,2393747376,-0.488468,0.646739,-0.472640,0.346034,-0.400448,0.501061,0.151758
425,2393780710,-0.490962,0.656298,-0.461261,0.339808,-0.280920,0.394568,0.194171
426,2393814044,-0.494249,0.665121,-0.449478,0.333621,-0.243850,0.093325,0.123286
427,2393847378,-0.498450,0.673211,-0.437195,0.327410,-0.326213,0.177944,0.249722
428,2393880712,-0.503973,0.680597,-0.424080,0.320870,-0.542327,0.050406,0.071520
429,2393914046,-0.510239,0.687745,-0.410241,0.313636,-0.661357,-0.388053,-0.007182
430,2393947380,-0.516830,0.694878,-0.395541,0.305908,-0.512208,-0.818103,0.028134
431,2393980714,-0.523184,0.701092,-0.381325,0.298900,-0.370291,-0.973428,-0.116451
432,2394014048,-0.528799,0.706032,-0.368964,0.292845,-0.251795,-1.102349,0.038147
433,2394047382,-0.533530,0.709018,-0.359632,0.288627,0.357403,-1.212063,0.206300
434,2394080716,-0.536258,0.711347,-0.353075,0.285922,0.742798,-0.678286,0.015816
435,2394114050,-0.537416,0.712675,-0.348756,0.285744,0.361292,-0.435899,0.018817
436,2394147384,-0.538247,0.713480,-0.345687,0.285898,0.358419,-0.419813,0.056921
437,2394180718,-0.538826,0.713512,-0.344209,0.286513,0.211682,-0.304460,0.196951
438,2394214052,-0.539885,0.712523,-0.343347,0.288009,0.699020,-0.362885,0.232364
439,2394247386,-0.541664,0.710731,-0.342583,0.290000,0.517281,-0.302077,0.223637
440,2394280720,-0.544477,0.707825,-0.342022,0.292493,0.416145,-0.389622,0.226457
441,2394314054,-0.547253,0.703524,-0.343271,0.296202,0.286644,-0.395583,0.221191
442,2394347388,-0.549477,0.698634,-0.345667,0.300836,0.089764,-0.399952,0.133945
443,2394380722,-0.551850,0.693938,-0.347760,0.304920,0.106134,-0.350648,0.029696
444,2394414056,-0.554250,0.688668,-0.350412,0.309444,0.213852,-0.513742,0.269882
445,2394447390,-0.556637,0.682543,-0.354146,0.314441,0.539777,-0.776813,0.341485
446,2394480724,-0.557887,0.674625,-0.360725,0.321749,0.608621,-0.714797,0.005511
447,2394514058,-0.556816,0.666695,-0.369827,0.329701,-0.342360,0.163745,0.058015
448,2394547392,-0.555453,0.661775,-0.376240,0.334620,-1.015311,0.737783,0.121709
449,2394580726,-0.555725,0.660250,-0.377889,0.335324,-1.027356,0.731016,-0.085031
450,2394614060,-0.554876,0.660861,-0.378379,0.334972,-0.810614,0.237560,-0.276607
451,2394647394,-0.549162,0.663427,-0.381667,0.335585,-0.500593,0.261325,-0.239246
452,2394680728,-0.541050,0.668848,-0.384677,0.334563,-0.443418,0.392380,-0.060865
453,2394714062,-0.535286,0.676812,-0.382957,0.329756,-0.413535,0.816746,0.141868
454,2394747396,-0.533283,0.685464,-0.376605,0.322364,0.172156,0.566581,0.244356
455,2394780730,-0.532489,0.693238,-0.369664,0.315002,0.784062,0.361469,0.569326
456,2394814064,-0.531320,0.698794,-0.364720,0.310431,0.912043,0.190810,0.361942
457,2394847398,-0.529592,0.702616,-0.361399,0.308635,0.336553,0.330458,0.262497
458,2394880732,-0.529122,0.705969,-0.357222,0.306647,0.007938,0.465147,0.155641
459,2394914066,-0.529769,0.709252,-0.352166,0.303787,-0.094894,0.237707,0.144386
460,2394947400,-0.530040,0.712892,-0.347097,0.300611,-0.198723,-0.286666,0.119335
461,2394980734,-0.529926,0.717229,-0.341551,0.296826,-0.205754,-0.190100,0.069593
462,2395014068,-0.530236,0.721813,-0.335178,0.292393,-0.163630,0.017902,0.058159
463,2395047402,-0.530889,0.725935,-0.328876,0.288126,-0.040711,-0.001337,0.190368
464,2395080736,-0.531734,0.728878,-0.323870,0.284791,0.161541,-0.128287,0.228583
465,2395114070,-0.532708,0.730400,-0.320663,0.282691,0.352345,-0.438130,0.274923
466,2395147404,-0.533914,0.730255,-0.319301,0.282335,0.598015,-0.752016,0.210038
467,2395180738,-0.534885,0.728023,-0.320745,0.284614,0.377181,-0.838027,0.180660
468,2395214072,-0.535628,0.724483,-0.324186,0.288329,0.221494,-0.820635,0.143162
469,2395247406,-0.536451,0.720574,-0.328246,0.291977,0.131268,-0.797403,0.042522
470,2395280740,-0.537185,0.716184,-0.332908,0.296117,0.156772,-0.543778,0.108468
471,2395314074,-0.537583,0.711290,-0.338587,0.300718,0.162236,-0.504860,0.233407
472,2395347408,-0.537462,0.705358,-0.345996,0.306421,0.129817,-0.465973,0.182230
473,2395380742,-0.537293,0.698047,-0.354710,0.313418,0.264256,-0.202290,0.159197
474,2395414076,-0.537173,0.690002,-0.363949,0.320758,0.185429,-0.247051,0.276831
475,2395447410,-0.536251,0.681477,-0.374181,0.328654,-0.094542,-0.522292,0.098191
476,2395480744,-0.534834,0.672770,-0.384707,0.336654,-0.280697,-0.381114,-0.078150
477,2395514078,-0.533637,0.663950,-0.394653,0.344460,-0.145408,-0.091472,0.027945
478,2395547412,-0.532513,0.655569,-0.403776,0.351605,0.055863,0.229512,0.081986
479,2395580746,-0.531432,0.648761,-0.411707,0.356634,0.001552,0.326277,0.203945
480,2395614080,-0.530186,0.642451,-0.419351,0.360979,0.121363,0.292079,0.286605
481,2395647414,-0.528799,0.635917,-0.426715,0.365920,0.573154,0.280532,0.104345
482,2395680748,-0.527731,0.629644,-0.433255,0.370595,0.583699,0.060863,0.206112
483,2395714082,-0.527044,0.623996,-0.438964,0.374386,0.409234,-0.184673,0.220980
484,2395747416,-0.525673,0.618269,-0.445261,0.378360,-0.045684,-0.319490,0.054885
485,2395780750,-0.523267,0.612254,-0.452252,0.383153,-0.490541,0.233846,0.069044
486,2395814084,-0.521244,0.606526,-0.458678,0.387360,-0.453295,0.619417,0.102907
487,2395847418,-0.520315,0.601363,-0.464021,0.390284,-0.129380,0.009351,-0.087815
488,2395880752,-0.518980,0.596134,-0.469998,0.392922,0.046561,-0.805207,0.160222
489,2395914086,-0.516877,0.590543,-0.476935,0.395767,0.070947,-0.789541,0.211077
490,2395947420,-0.514568,0.584623,-0.484160,0.398781,-0.214971,-0.696633,0.010737
491,2395980754,-0.511589,0.578725,-0.491810,0.401845,-0.237962,-0.308641,-0.000049
492,2396014088,-0.507459,0.572138,-0.500305,0.406004,-0.496796,-0.093750,-0.229711
493,2396047422,-0.502231,0.565342,-0.509623,0.410412,-0.218453,0.700817,0.072879
494,2396080756,-0.498023,0.559996,-0.517300,0.413255,0.092782,0.768650,0.139843
495,2396114090,-0.494977,0.555665,-0.523271,0.415239,0.448425,0.655436,0.389102
496,2396147424,-0.492485,0.552039,-0.528143,0.416867,0.331408,0.534365,0.296654
497,2396180758,-0.490845,0.548935,-0.532097,0.417871,0.042520,0.440563,0.180650
498,2396214092,-0.489508,0.546127,-0.535535,0.418726,-0.155162,0.198039,-0.058607
499,2396247426,-0.488406,0.544638,-0.538029,0.418755,-0.244760,0.114234,-0.086506
500,2396280760,-0.487423,0.544242,-0.539855,0.418065,-0.328292,-0.257927,-0.066711
501,2396314094,-0.485718,0.544396,-0.541803,0.417328,-0.020088,-0.311957,-0.058605
502,2396347428,-0.482884,0.544737,-0.544378,0.416821,0.060418,-0.633086,-0.006035
503,2396380762,-0.478836,0.544883,-0.547646,0.417019,0.293504,-0.029231,0.197523
504,2396414096,-0.475617,0.545864,-0.549753,0.416647,0.587816,1.056438,0.397540
505,2396447430,-0.473527,0.548090,-0.550482,0.415140,0.488423,1.169393,0.450724
506,2396480764,-0.472132,0.550933,-0.550416,0.413047,0.380252,0.837354,0.338719
507,2396514098,-0.471503,0.554448,-0.549478,0.410302,0.253718,0.519482,0.213809
508,2396547432,-0.471212,0.558820,-0.547877,0.406833,0.045283,0.688596,0.231687
509,2396580766,-0.471718,0.564138,-0.545159,0.402535,-0.093866,0.854855,0.229352
510,2396614100,-0.472899,0.570255,-0.541293,0.397717,-0.119457,0.677300,0.156481
511,2396647434,-0.474703,0.577242,-0.536228,0.392314,-0.168157,0.659116,0.149210
512,2396680768,-0.476993,0.584815,-0.530098,0.386611,-0.266852,0.663342,0.213639
513,2396714102,-0.479670,0.592933,-0.522880,0.380718,-0.502824,0.796091,0.087062
514,2396747436,-0.483662,0.602252,-0.513641,0.373549,-0.645255,0.794977,0.098695
515,2396780770,-0.488504,0.612289,-0.502775,0.365629,-0.646292,0.544484,0.115439
516,2396814104,-0.493102,0.622307,-0.491453,0.357855,-0.541013,-0.250486,0.005962
517,2396847438,-0.496805,0.632251,-0.480018,0.350754,-0.428069,-0.293446,-0.067838
518,2396880772,-0.500568,0.642073,-0.467972,0.343770,-0.441563,0.184472,0.084420
519,2396914106,-0.504371,0.651171,-0.456052,0.337053,-0.270303,0.042084,0.137877
520,2396947440,-0.507824,0.659197,-0.444858,0.331177,-0.001082,-0.186154,0.106614
521,2396980774,-0.511071,0.666490,-0.434145,0.325756,-0.099473,-0.049689,0.156478
522,2397014108,-0.513828,0.672418,-0.424772,0.321566,0.024786,-0.198209,0.088098
523,2397047442,-0.515952,0.677426,-0.416810,0.318056,0.030687,-0.296983,0.074801
524,2397080776,-0.517295,0.681674,-0.410041,0.315586,0.022765,-0.504930,0.103040
525,2397114110,-0.518078,0.685619,-0.403831,0.313758,-0.031700,-0.158856,0.105085
526,2397147444,-0.519320,0.689649,-0.397135,0.311410,0.080884,-0.014768,0.121371
527,2397180778,-0.521411,0.693769,-0.389637,0.308220,0.328206,-0.086475,0.306340
528,2397214112,-0.524459,0.697262,-0.381954,0.304765,0.252726,-0.193556,0.352618
529,2397247446,-0.528027,0.699664,-0.375271,0.301381,0.621385,-0.315575,0.267687
530,2397280780,-0.531373,0.700508,-0.370613,0.299298,0.629377,-0.169959,0.106293
531,2397314114,-0.535025,0.699479,-0.367336,0.299239,0.464366,-0.384698,0.171952
532,2397347448,-0.539151,0.698340,-0.363753,0.298870,0.379178,-0.501556,0.068842
533,2397380782,-0.542721,0.696453,-0.361298,0.299787,0.055018,-0.509412,-0.034784
534,2397414116,-0.546134,0.694274,-0.359507,0.300795,0.109817,-0.511335,0.006929
535,2397447450,-0.548994,0.692059,-0.358649,0.301715,0.044400,-0.508975,-0.048042
536,2397480784,-0.550914,0.689578,-0.359040,0.303427,0.101391,-0.453524,0.129402
537,2397514118,-0.551740,0.687361,-0.360285,0.305474,0.157591,-0.326966,0.109640
538,2397547452,-0.552154,0.685744,-0.361515,0.306904,0.197176,-0.147308,0.250251
539,2397580786,-0.551216,0.684437,-0.363670,0.308955,-0.047870,-0.214126,0.056797
540,2397614120,-0.548962,0.684055,-0.366132,0.310897,-0.331470,-0.106596,0.051446
541,2397647454,-0.547533,0.684713,-0.367224,0.310683,-0.215724,-0.171664,0.001816
542,2397680788,-0.546811,0.684537,-0.368749,0.310536,0.248139,-0.301104,0.150710
543,2397714122,-0.545478,0.683234,-0.371748,0.312171,0.487974,-0.361414,0.179685
544,2397747456,-0.544820,0.681443,-0.374556,0.313873,0.148684,-0.061400,0.263606
545,2397780790,-0.545619,0.678587,-0.377060,0.315670,0.140915,0.033371,0.224007
546,2397814124,-0.546465,0.674907,-0.380209,0.318309,0.213608,0.032231,0.246143
547,2397847458,-0.546848,0.670947,-0.383735,0.321773,0.256287,-0.064539,0.092465
548,2397880792,-0.547273,0.667425,-0.386759,0.324739,-0.148357,-0.013157,0.035714
549,2397914126,-0.547055,0.664470,-0.389852,0.327457,-0.513567,0.218498,0.052294
550,2397947460,-0.546357,0.662264,-0.392719,0.329656,-0.396720,0.397722,0.110939
551,2397980794,-0.545758,0.661650,-0.394053,0.330290,-0.217693,0.394277,0.057358
552,2398014128,-0.544716,0.662013,-0.394811,0.330378,-0.148178,0.260545,0.035231
553,2398047462,-0.543370,0.663311,-0.394995,0.329770,-0.199474,0.325292,0.081831
554,2398080796,-0.542484,0.665194,-0.394231,0.328348,0.022064,0.244646,0.158673
555,2398114130,-0.541896,0.667564,-0.392712,0.326321,0.067924,0.096165,0.105682
556,2398147464,-0.541436,0.669698,-0.391121,0.324620,-0.169265,0.207175,0.069631
557,2398180798,-0.541997,0.672406,-0.387918,0.321918,-0.148010,0.275623,0.213375
558,2398214132,-0.542899,0.675721,-0.383534,0.318695,-0.316875,0.010506,0.036695
559,2398247466,-0.543350,0.679861,-0.378784,0.314778,-0.537875,-0.068279,-0.059049
560,2398280800,-0.543540,0.684795,-0.373453,0.310089,-0.465531,-0.098596,0.057919
561,2398314134,-0.543589,0.690620,-0.366941,0.304812,-0.232444,-0.099733,0.063322
562,2398347468,-0.543592,0.697341,-0.359199,0.298666,-0.219454,0.126187,0.119581
563,2398380802,-0.544026,0.704396,-0.350469,0.291608,-0.068568,0.249081,0.169918
564,2398414136,-0.544747,0.710956,-0.341815,0.284529,0.306748,0.207015,0.191427
565,2398447470,-0.545236,0.716099,-0.334681,0.279125,0.623349,0.200636,0.242261
566,2398480804,-0.545770,0.719057,-0.329825,0.276243,0.460900,0.084272,0.352579
567,2398514138,-0.546756,0.719912,-0.327074,0.275335,0.291985,-0.046914,0.201645
568,2398547472,-0.548140,0.719302,-0.325730,0.275768,0.150539,-0.326270,0.170946
569,2398580806,-0.549155,0.718074,-0.325491,0.277229,0.075116,-0.585640,0.165497
570,2398614140,-0.549662,0.716738,-0.326151,0.278901,0.043511,-0.552275,0.087060
571,2398647474,-0.549956,0.715128,-0.327533,0.280829,0.304722,-0.646546,0.232045
572,2398680808,-0.549805,0.712624,-0.330345,0.284175,0.288071,-0.587558,0.199961
573,2398714142,-0.549188,0.709203,-0.334622,0.288883,0.140051,-0.397006,0.173417
574,2398747476,-0.548899,0.705372,-0.339208,0.293428,0.083351,-0.363156,0.127192
575,2398780810,-0.547949,0.701490,-0.344691,0.298084,0.038452,-0.515767,0.158084
576,2398814144,-0.545915,0.697025,-0.351909,0.303801,0.027768,-0.509911,0.065225
577,2398847478,-0.543383,0.692084,-0.360113,0.309959,0.061307,-0.478547,0.137980
578,2398880812,-0.540765,0.686575,-0.368688,0.316637,0.156567,-0.459078,0.140912
579,2398914146,-0.538375,0.680995,-0.377023,0.322881,-0.072519,-0.532165,0.018124
580,2398947480,-0.535667,0.675493,-0.385743,0.328595,-0.164568,-0.570840,0.013246
581,2398980814,-0.532356,0.669298,-0.395385,0.335127,-0.185399,-0.340199,0.016685
582,2399014148,-0.529321,0.662781,-0.404509,0.341928,0.045992,0.043866,0.067097
583,2399047482,-0.527145,0.657360,-0.411793,0.347021,-0.061901,0.303796,0.225106
584,2399080816,-0.525187,0.652333,-0.418633,0.351267,-0.170032,0.385669,0.202036
585,2399114150,-0.522856,0.646994,-0.425912,0.355840,0.095696,0.454709,0.137859
586,2399147484,-0.520555,0.642026,-0.432693,0.360005,0.293338,0.461007,0.175317
587,2399180818,-0.519114,0.637873,-0.437889,0.363171,0.496086,0.529296,0.229568
588,2399214152,-0.518671,0.634513,-0.441627,0.365157,0.550668,0.250837,0.370588
589,2399247486,-0.518262,0.631195,-0.445384,0.366924,0.452267,0.111337,0.259039
590,2399280820,-0.517784,0.627994,-0.449314,0.368296,0.316883,-0.306808,0.117629
591,2399314154,-0.516696,0.623592,-0.454561,0.370856,0.070289,-0.444902,0.196840
592,2399347488,-0.515434,0.618552,-0.460257,0.374014,0.123085,-0.301779,0.129695
593,2399380822,-0.514548,0.614240,-0.465265,0.376138,0.059195,-0.428011,0.050389
594,2399414156,-0.513406,0.609422,-0.470956,0.378445,-0.111015,-0.383762,0.047644
595,2399447490,-0.510995,0.603247,-0.478437,0.382200,-0.060737,-0.428997,-0.006750
596,2399480824,-0.507646,0.596532,-0.486955,0.386420,-0.133861,0.488515,0.073463
597,2399514158,-0.504999,0.591498,-0.493860,0.388857,0.029190,0.415682,0.177296
598,2399547492,-0.502511,0.587648,-0.499583,0.390603,-0.061317,0.185291,0.039678
599,2399580826,-0.500193,0.584913,-0.504388,0.391507,-0.193349,0.241015,0.015245
600,2399614160,-0.498130,0.583049,-0.508396,0.391735,-0.089203,0.191710,0.064045
601,2399647494,-0.496791,0.582522,-0.511138,0.390648,0.350513,-0.170608,0.115671
602,2399680828,-0.494395,0.581738,-0.514530,0.390403,-0.040633,-0.242647,-0.022783
603,2399714162,-0.492102,0.581459,-0.517485,0.389810,-0.172805,0.399492,0.155605
604,2399747496,-0.491116,0.581644,-0.519300,0.388362,-0.076774,0.063990,0.175695
605,2399780830,-0.489659,0.581097,-0.521826,0.387633,-0.107801,-0.122994,0.117316
606,2399814164,-0.488494,0.580500,-0.524136,0.386880,-0.062159,0.086667,0.183144
607,2399847498,-0.487774,0.580197,-0.525887,0.385866,-0.067456,-0.107959,0.032749
608,2399880832,-0.486062,0.579659,-0.528417,0.385380,-0.218989,-0.055882,-0.035085
609,2399914166,-0.484235,0.579483,-0.530729,0.384766,-0.265218,0.409569,0.055569
610,2399947500,-0.483211,0.580311,-0.531794,0.383332,-0.045251,0.570912,0.172378
611,2399980834,-0.482256,0.581623,-0.532384,0.381724,0.147075,0.396105,0.135571
612,2400014168,-0.481633,0.583522,-0.532187,0.379883,0.261914,0.762454,0.290473
613,2400047502,-0.481759,0.586088,-0.531000,0.377425,0.240454,0.976829,0.272277
614,2400080836,-0.482186,0.589186,-0.529223,0.374541,0.140757,0.699025,0.207435
615,2400114170,-0.482614,0.592854,-0.526764,0.371659,0.224086,0.446585,0.210531
616,2400147504,-0.483350,0.597236,-0.523571,0.368180,0.117611,0.472976,0.179860
617,2400180838,-0.483921,0.601531,-0.520466,0.364826,0.062969,0.355550,0.209106
618,2400214172,-0.484351,0.605877,-0.517233,0.361649,0.036637,0.147017,0.125916
619,2400247506,-0.485009,0.610941,-0.513243,0.357912,-0.168922,0.441271,0.115556
620,2400280840,-0.486081,0.616707,-0.508512,0.353291,-0.342893,0.661869,0.148473
621,2400314174,-0.487291,0.622567,-0.503167,0.348973,0.039202,0.654842,0.170618
622,2400347508,-0.489421,0.629261,-0.496193,0.343935,0.017767,0.594900,0.256763
623,2400380842,-0.492248,0.636471,-0.487882,0.338481,-0.260149,0.675897,0.140095
624,2400414176,-0.495302,0.643940,-0.478822,0.332790,-0.437638,0.601175,0.024677
625,2400447510,-0.498236,0.651601,-0.469295,0.327018,-0.408790,0.315010,0.063721
626,2400480844,-0.501109,0.659510,-0.459197,0.321053,-0.324005,0.137146,0.064127
627,2400514178,-0.503825,0.667522,-0.448724,0.314997,-0.464939,-0.054359,0.004128
628,2400547512,-0.506076,0.675416,-0.438260,0.309242,-0.463350,-0.246069,0.061404
629,2400580846,-0.508275,0.682980,-0.427694,0.303767,-0.241435,-0.223945,0.108150
630,2400614180,-0.510477,0.690009,-0.417231,0.298699,-0.238374,-0.369721,0.085869
631,2400647514,-0.512635,0.696540,-0.406980,0.293950,-0.321907,-0.338922,0.072948
632,2400680848,-0.514694,0.702306,-0.397308,0.289835,-0.245464,-0.472938,0.077503
633,2400714182,-0.516718,0.707211,-0.388346,0.286433,-0.114615,-0.430985,0.130636
634,2400747516,-0.518663,0.711049,-0.380400,0.284071,-0.260430,-0.512805,0.175553
635,2400780850,-0.520539,0.714090,-0.373397,0.282297,0.074614,-0.324991,0.191345
636,2400814184,-0.522816,0.716473,-0.366657,0.280880,0.122175,-0.244813,0.105447
637,2400847518,-0.525525,0.718544,-0.359719,0.279503,0.302884,-0.207414,0.206242
638,2400880852,-0.527950,0.720310,-0.353216,0.278681,0.020839,-0.438291,0.178290
639,2400914186,-0.529985,0.722356,-0.346924,0.277422,-0.127466,-0.291240,-0.028119
640,2400947520,-0.532147,0.724692,-0.340380,0.275289,-0.002143,-0.290876,0.043162
641,2400980854,-0.533912,0.726841,-0.334582,0.273307,0.573801,-0.283131,0.094507
642,2401014188,-0.534735,0.728053,-0.330967,0.272873,0.652482,-0.319565,0.030871
643,2401047522,-0.534822,0.727970,-0.329863,0.274259,0.476960,-0.304597,0.180807
644,2401080856,-0.534550,0.726894,-0.330583,0.276764,0.344847,-0.211548,0.241475
645,2401114190,-0.534557,0.725332,-0.331654,0.279552,0.297280,-0.212948,0.267610
646,2401147524,-0.534918,0.723209,-0.333034,0.282706,0.316958,-0.145132,0.050808
647,2401180858,-0.535013,0.720653,-0.335324,0.286321,0.015939,-0.392011,0.139957
648,2401214192,-0.535078,0.717730,-0.338254,0.290070,-0.132169,-0.423076,0.164604
649,2401247526,-0.534972,0.714591,-0.341553,0.294122,-0.106127,-0.153594,0.156250
650,2401280860,-0.534973,0.711730,-0.344389,0.297727,-0.068849,-0.161796,0.128084
651,2401314194,-0.535029,0.709363,-0.346736,0.300537,-0.058860,-0.097963,0.168189
652,2401347528,-0.534452,0.706840,-0.349688,0.304070,0.039800,0.014558,0.169304
653,2401380862,-0.533796,0.704665,-0.352442,0.307074,0.058101,0.211559,0.141807
654,2401414196,-0.533345,0.703014,-0.354555,0.309204,0.148010,0.319934,0.208924
655,2401447530,-0.533173,0.701205,-0.356331,0.311557,0.199702,0.287277,0.143270
656,2401480864,-0.533122,0.700036,-0.357356,0.313096,0.248451,0.113879,0.106130
657,2401514198,-0.532566,0.699752,-0.357935,0.314016,0.027508,0.223849,0.023685
658,2401547532,-0.531752,0.700163,-0.357886,0.314532,-0.118836,0.315687,0.099480
659,2401580866,-0.531510,0.701366,-0.356491,0.313844,0.097803,0.231993,0.159732
660,2401614200,-0.531419,0.703152,-0.354334,0.312441,0.126669,0.129490,0.185921
661,2401647534,-0.531488,0.705098,-0.351729,0.310879,0.067453,0.048807,0.215204
662,2401680868,-0.532494,0.706829,-0.348404,0.308965,0.223072,0.051243,0.183226
663,2401714202,-0.533697,0.708364,-0.345362,0.306783,-0.068264,-0.358798,0.068874
664,2401747536,-0.534528,0.709680,-0.343128,0.304794,-0.067810,-0.515830,0.036780
665,2401780870,-0.534269,0.711410,-0.341443,0.303102,-0.049957,-0.738490,0.043666
666,2401814204,-0.533972,0.713447,-0.339447,0.301075,-0.346679,-0.372162,-0.078040
667,2401847538,-0.534199,0.715595,-0.336993,0.298317,-0.173780,-0.135342,-0.018719
668,2401880872,-0.534177,0.717886,-0.334942,0.295146,0.094092,-0.098667,0.243525
669,2401914206,-0.533720,0.719939,-0.333559,0.292524,0.348772,-0.205094,0.317005
670,2401947540,-0.533846,0.720881,-0.332628,0.291032,0.546214,-0.012744,0.217261
671,2401980874,-0.534939,0.720262,-0.332515,0.290685,0.607685,-0.126558,0.242859
672,2402014208,-0.535835,0.718138,-0.334426,0.292096,0.338125,-0.492819,0.360716
673,2402047542,-0.536269,0.715049,-0.338031,0.294716,-0.103632,-0.664512,0.108060
674,2402080876,-0.536989,0.710985,-0.342521,0.298034,-0.149903,-0.553880,-0.063668
675,2402114210,-0.537748,0.705876,-0.348002,0.302429,0.049251,-0.467928,0.040041
676,2402147544,-0.537737,0.700554,-0.354601,0.307121,-0.115385,-0.396470,0.199627
677,2402180878,-0.537856,0.694734,-0.361867,0.311624,-0.047613,-0.069943,0.177463
678,2402214212,-0.537675,0.687771,-0.370435,0.317263,0.249312,-0.330612,0.079564
679,2402247546,-0.536145,0.680223,-0.380502,0.324137,0.157969,-0.679899,0.193691
680,2402280880,-0.534799,0.672661,-0.390445,0.330259,-0.090043,-0.312976,0.202905
681,2402314214,-0.534169,0.665342,-0.399623,0.335092,-0.163125,-0.368845,0.123756
682,2402347548,-0.533118,0.657112,-0.409543,0.340978,0.188714,-0.340558,0.165913
683,2402380882,-0.530914,0.647893,-0.420495,0.348642,0.365092,-0.274136,0.122100
684,2402414216,-0.527520,0.637919,-0.432462,0.357436,0.219021,0.156650,0.171374
685,2402447550,-0.524210,0.628234,-0.443774,0.365504,-0.142239,0.838607,0.164168
686,2402480884,-0.521724,0.619374,-0.453766,0.371857,-0.209585,1.092395,0.256881
687,2402514218,-0.519837,0.611313,-0.462378,0.377192,-0.063430,0.543726,0.113144
688,2402547552,-0.517785,0.604000,-0.470350,0.381910,-0.045883,0.114796,0.009193
689,2402580886,-0.515979,0.597905,-0.477273,0.385341,0.125574,-0.163913,0.007853
690,2402614220,-0.513716,0.592196,-0.484042,0.388723,-0.169129,0.023502,-0.118568
691,2402647554,-0.510825,0.586843,-0.490969,0.391948,-0.188674,0.270781,0.123316
692,2402680888,-0.508252,0.581704,-0.497332,0.394922,-0.011060,0.221833,0.058122
693,2402714222,-0.505410,0.576683,-0.503657,0.397906,-0.023704,0.193819,0.092683
694,2402747556,-0.503182,0.572240,-0.509226,0.400050,-0.035950,-0.302358,0.206432
695,2402780890,-0.501196,0.567624,-0.514524,0.402333,-0.092046,0.018646,0.074447
696,2402814224,-0.498999,0.563212,-0.519614,0.404717,-0.286547,0.100434,-0.046505
697,2402847558,-0.496674,0.559574,-0.524301,0.406574,-0.461568,0.118494,0.056801
698,2402880892,-0.494398,0.556484,-0.528708,0.407880,-0.385644,-0.140003,-0.109251
699,2402914226,-0.491127,0.553161,-0.533823,0.409685,-0.223949,-0.146499,0.004739
700,2402947560,-0.487717,0.550002,-0.538705,0.411617,-0.006022,0.173514,0.193540
701,2402980894,-0.484908,0.547926,-0.542538,0.412670,0.228480,0.706478,0.193264
702,2403014228,-0.482840,0.547149,-0.545212,0.412600,0.555082,0.501309,0.240520
703,2403047562,-0.481149,0.547627,-0.546832,0.411797,0.736789,0.421862,0.288097
704,2403080896,-0.480241,0.549060,-0.547403,0.410187,0.739073,0.609213,0.334958
705,2403114230,-0.479510,0.551146,-0.547661,0.407893,0.436654,0.403301,0.220687
706,2403147564,-0.478531,0.553919,-0.547670,0.405267,0.154869,0.320193,0.121972
707,2403180898,-0.478285,0.557804,-0.546493,0.401802,0.095970,0.308498,0.149190
708,2403214232,-0.478028,0.562491,-0.544623,0.398096,0.202885,0.182399,0.206599
709,2403247566,-0.478091,0.568390,-0.541720,0.393578,0.119788,0.542263,0.181656
710,2403280900,-0.478642,0.575050,-0.537791,0.388588,0.119556,0.717368,0.240035
711,2403314234,-0.479651,0.582532,-0.532766,0.383083,0.195970,0.738490,0.216978
712,2403347568,-0.481265,0.590915,-0.526425,0.376937,-0.023048,0.666511,0.210202
713,2403380902,-0.483288,0.599994,-0.518828,0.370485,-0.172187,0.760246,0.217094
714,2403414236,-0.485696,0.609662,-0.510096,0.363615,-0.422296,0.989510,0.085916
715,2403447570,-0.488661,0.619803,-0.500115,0.356288,-0.579255,0.928785,0.136811
716,2403480904,-0.491922,0.630330,-0.488923,0.348787,-0.655121,0.814878,0.119558
717,2403514238,-0.496399,0.641775,-0.475353,0.340227,-0.744644,0.823292,0.014820
718,2403547572,-0.501534,0.654165,-0.459704,0.330462,-0.942547,0.666723,0.053868
719,2403580906,-0.507111,0.666781,-0.442788,0.319660,-1.013632,0.309980,0.081549
720,2403614240,-0.511931,0.678245,-0.426659,0.309636,-0.517802,-0.661097,0.034216
721,2403647574,-0.515458,0.687829,-0.412508,0.301718,-0.104965,-0.411687,0.035776
722,2403680908,-0.519358,0.695534,-0.399385,0.294945,-0.105908,0.153859,0.203121
723,2403714242,-0.523337,0.701137,-0.388001,0.289797,-0.125431,-0.180357,0.296277
724,2403747576,-0.526652,0.705273,-0.378186,0.286713,-0.237645,-0.625700,0.139955
725,2403780910,-0.530560,0.709278,-0.367442,0.283582,-0.388957,-0.421140,-0.150167
726,2403814244,-0.535159,0.713155,-0.356146,0.279601,-0.381696,-0.508469,0.026497
727,2403847578,-0.539237,0.715839,-0.346690,0.276779,0.000454,-0.669272,0.251018
728,2403880912,-0.542377,0.717364,-0.339428,0.275693,0.401385,-0.570406,0.144690
729,2403914246,-0.544276,0.718181,-0.334309,0.276078,0.264462,-0.642240,0.132021
730,2403947580,-0.545506,0.718130,-0.330987,0.277779,0.083375,-0.528739,0.046040
731,2403980914,-0.546665,0.717448,-0.328775,0.279884,0.274090,-0.256924,0.236294
732,2404014248,-0.547772,0.716158,-0.327575,0.282416,0.437377,-0.242932,0.353989
733,2404047582,-0.548697,0.714395,-0.327206,0.285498,0.339004,-0.284828,0.278340
734,2404080916,-0.550087,0.712130,-0.326939,0.288770,0.325385,-0.219888,0.205214
735,2404114250,-0.551829,0.708983,-0.327183,0.292884,0.494022,-0.127922,0.261914
736,2404147584,-0.553695,0.705168,-0.328071,0.297543,0.154263,-0.132733,0.571229
737,2404180918,-0.556135,0.700699,-0.329270,0.302188,-0.061393,-0.428443,0.171361
738,2404214252,-0.558813,0.695873,-0.330586,0.306925,0.052179,-0.242991,0.225952
739,2404247586,-0.561417,0.691556,-0.331257,0.311179,0.057661,-0.389356,0.305616
740,2404280920,-0.563737,0.688114,-0.331186,0.314669,-0.233608,-0.326500,0.215355
741,2404314254,-0.565876,0.684798,-0.331194,0.318038,-0.205356,-0.279266,0.140140
742,2404347588,-0.567441,0.681324,-0.332201,0.321640,-0.109692,-0.471980,0.077590
743,2404380922,-0.568416,0.677896,-0.333875,0.325407,-0.024822,-0.588180,-0.042850
744,2404414256,-0.568591,0.674332,-0.336216,0.330062,0.019328,-0.496185,-0.205277
745,2404447590,-0.567877,0.671188,-0.339092,0.334725,-0.156307,-0.199413,-0.326389
746,2404480924,-0.566341,0.669352,-0.341859,0.338171,-0.535945,-0.008798,-0.314093
747,2404514258,-0.563742,0.668396,-0.345041,0.341159,-0.500902,0.134325,-0.293095
748,2404547592,-0.560590,0.668591,-0.347797,0.343168,-0.218835,0.311883,-0.181155
749,2404580926,-0.558104,0.670025,-0.348814,0.343390,0.195664,0.438134,0.136745
750,2404614260,-0.556698,0.672056,-0.348090,0.342437,0.638155,0.467241,0.428255
751,2404647594,-0.556455,0.673731,-0.346301,0.341354,0.762308,0.467565,0.491887
752,2404680928,-0.556941,0.674417,-0.344490,0.341038,0.675634,-0.012528,0.442495
753,2404714262,-0.558415,0.673888,-0.342723,0.341454,0.414720,-0.161269,0.433224
754,2404747596,-0.561412,0.672842,-0.340042,0.341282,0.122593,-0.092531,0.040016
755,2404780930,-0.564574,0.671813,-0.337484,0.340631,-0.147883,-0.180153,-0.047446
756,2404814264,-0.567236,0.670500,-0.335875,0.340387,-0.419048,-0.639667,0.174621
757,2404847598,-0.568948,0.670354,-0.334370,0.339296,-0.263342,-0.276015,0.248072
758,2404880932,-0.571451,0.671098,-0.331590,0.336336,0.029290,0.001727,0.063042
759,2404914266,-0.574918,0.671554,-0.327961,0.333059,0.626359,-0.238544,-0.028141
760,2404947600,-0.577127,0.672589,-0.324845,0.330192,0.572073,-0.884112,-0.235533
761,2404980934,-0.577585,0.672692,-0.324567,0.329452,0.497029,-0.347980,0.397217
762,2405014268,-0.578760,0.670481,-0.326330,0.330156,0.431382,-0.246818,-0.069914
763,2405047602,-0.580312,0.666328,-0.329665,0.332517,0.553723,-0.618466,0.114151
764,2405080936,-0.580291,0.660819,-0.335583,0.337589,0.067027,-0.713583,-0.030457
765,2405114270,-0.579676,0.654869,-0.342545,0.343202,-0.717789,0.491072,-0.238065
766,2405147604,-0.581414,0.650633,-0.346331,0.344515,-0.657880,0.081038,-0.236922
767,2405180938,-0.584950,0.646952,-0.348489,0.343285,0.688530,-0.837021,0.303899
768,2405214272,-0.585691,0.641357,-0.354989,0.345850,0.866022,-2.021291,0.155818
769,2405247606,-0.584104,0.634039,-0.365985,0.350534,0.088726,-1.256095,-0.190269
770,2405280940,-0.582654,0.625218,-0.378603,0.355356,0.202444,-0.787573,0.078423
771,2405314274,-0.578961,0.615107,-0.393072,0.363240,1.006891,-1.102969,0.677177
772,2405347608,-0.573528,0.605870,-0.406454,0.372537,1.281752,-0.677775,0.487772
773,2405380942,-0.566611,0.598241,-0.419081,0.381357,-0.118423,1.518037,0.607635
774,2405414276,-0.560054,0.594956,-0.430878,0.383033,-1.947477,1.859592,0.045483
775,2405447610,-0.554767,0.591661,-0.442008,0.383145,-0.257582,1.201510,-0.602495
776,2405480944,-0.548208,0.590477,-0.451619,0.383207,1.170640,0.164134,0.022892
777,2405514278,-0.541881,0.592238,-0.458612,0.381178,1.047423,0.153072,0.236764
778,2405547612,-0.537040,0.596112,-0.463051,0.376595,0.520528,0.967647,0.309905
779,2405580946,-0.532905,0.599269,-0.467434,0.372016,0.444009,1.460088,0.426484
780,2405614280,-0.529237,0.599662,-0.472930,0.369666,-0.181419,0.653840,0.412339
781,2405647614,-0.526493,0.600761,-0.476941,0.366635,0.013091,0.014977,0.180887
782,2405680948,-0.524226,0.603212,-0.479401,0.362628,-0.346006,-0.546580,-0.134917
783,2405714282,-0.521101,0.605515,-0.482741,0.358843,-1.181562,-0.380889,-0.155609
784,2405747616,-0.517609,0.605490,-0.487888,0.356974,-0.737491,-0.882156,0.131660
785,2405780950,-0.513755,0.603469,-0.494564,0.356775,-0.018789,-1.103283,0.061594
786,2405814284,-0.508358,0.599184,-0.503530,0.359179,-0.191144,-0.382521,0.151592
787,2405847618,-0.502958,0.593688,-0.512952,0.362560,-0.434656,0.894362,0.254988
788,2405880952,-0.498587,0.587517,-0.521758,0.366069,-0.529025,0.936886,0.242407
789,2405914286,-0.495341,0.582524,-0.528644,0.368566,-0.250098,0.627975,0.150984
790,2405947620,-0.493034,0.578947,-0.533600,0.370150,-0.158862,0.459116,0.093324
791,2405980954,-0.490972,0.575564,-0.538015,0.371774,-0.112635,0.225067,0.092809
792,2406014288,-0.488763,0.572205,-0.542259,0.373697,-0.312616,0.110354,0.040075
793,2406047622,-0.486950,0.569772,-0.545494,0.375072,-0.321879,0.371601,0.127630
794,2406080956,-0.485411,0.568408,-0.547804,0.375769,-0.294366,0.467772,0.081182
795,2406114290,-0.483926,0.568010,-0.549464,0.375862,-0.102684,0.596261,-0.013011
796,2406147624,-0.483012,0.569040,-0.549829,0.374943,0.190801,0.838791,0.188952
797,2406180958,-0.483281,0.571239,-0.548627,0.373010,0.421649,0.936702,0.340847
798,2406214292,-0.484182,0.573929,-0.546629,0.370638,0.388649,0.510424,0.252899
799,2406247626,-0.485095,0.577220,-0.544172,0.367939,0.223324,0.221388,0.055894
800,2406280960,-0.486122,0.581338,-0.541126,0.364577,0.097484,0.356798,0.093144
801,2406314294,-0.486960,0.586130,-0.537695,0.360843,0.134056,0.527053,0.112823
802,2406347628,-0.487790,0.591858,-0.533625,0.356385,0.247636,0.387371,0.211981
803,2406380962,-0.488524,0.598561,-0.528664,0.351548,0.338467,0.240894,0.104380
804,2406414296,-0.489149,0.606571,-0.522663,0.345876,0.113030,0.450155,0.108511
805,2406447630,-0.490159,0.615451,-0.515492,0.339462,0.032124,0.775301,0.209236
806,2406480964,-0.491450,0.624641,-0.507534,0.332735,-0.134454,0.493336,0.231452
807,2406514298,-0.493486,0.634268,-0.498337,0.325328,-0.147256,0.194233,0.199217
808,2406547632,-0.496000,0.643943,-0.488229,0.317734,-0.337822,0.131423,0.050629
809,2406580966,-0.499046,0.653849,-0.477016,0.309663,-0.409205,0.076053,0.258262
810,2406614300,-0.503278,0.664088,-0.464075,0.300558,-0.494578,0.021750,0.185536
811,2406647634,-0.507891,0.674260,-0.450356,0.290865,-0.496293,-0.293374,0.045029
812,2406680968,-0.512068,0.683997,-0.436694,0.281485,-0.561512,-0.365517,0.022910
813,2406714302,-0.515711,0.693075,-0.423454,0.272722,-0.433403,-0.637819,0.025343
814,2406747636,-0.518337,0.700782,-0.411777,0.265843,-0.279679,-0.556294,0.085443
815,2406780970,-0.520315,0.707147,-0.401708,0.260476,-0.401194,-0.454447,-0.003197
816,2406814304,-0.522019,0.712872,-0.392062,0.256123,-0.389823,-0.340541,0.077928
817,2406847638,-0.523597,0.718547,-0.382088,0.252085,-0.735654,-0.672771,0.044025
818,2406880972,-0.524364,0.724186,-0.372668,0.248432,-0.910745,-0.816984,-0.163540
819,2406914306,-0.524619,0.729668,-0.363558,0.245329,-0.514065,-0.617256,0.032485
820,2406947640,-0.524705,0.734535,-0.354904,0.243287,0.045160,-0.150113,0.215593
821,2406980974,-0.525060,0.737768,-0.347804,0.242992,0.174406,0.372765,0.439480
822,2407014308,-0.526383,0.738409,-0.343162,0.244774,0.238368,0.584084,0.349263
823,2407047642,-0.528441,0.736339,-0.341297,0.249144,0.435684,0.285393,0.223843
824,2407080976,-0.530742,0.732280,-0.341315,0.256094,0.378866,-0.161204,0.142843
825,2407114310,-0.532675,0.726712,-0.343189,0.265274,-0.088545,-0.259502,0.016506
826,2407147644,-0.534826,0.719915,-0.346260,0.275299,-0.474995,-0.130376,0.209311
827,2407180978,-0.538342,0.711961,-0.349233,0.285197,-0.215545,-0.356310,0.177679
828,2407214312,-0.542931,0.702942,-0.351693,0.295655,-0.114490,0.062613,-0.010097
829,2407247646,-0.547008,0.694033,-0.354151,0.306072,-0.383798,0.234508,0.000662
830,2407280980,-0.551020,0.685449,-0.356162,0.315731,-0.352608,0.615367,0.323626
831,2407314314,-0.555672,0.677493,-0.356814,0.323912,0.041889,0.320209,0.337481
832,2407347648,-0.559766,0.670350,-0.356928,0.331508,0.532359,0.320624,0.201946
833,2407380982,-0.562971,0.664412,-0.356835,0.338069,0.278560,0.011078,0.213179
834,2407414316,-0.565056,0.659666,-0.357297,0.343357,-0.124856,-0.212492,0.443039
835,2407447650,-0.567650,0.655813,-0.357414,0.346325,-0.196957,-0.130369,0.226061
836,2407480984,-0.569523,0.653699,-0.357350,0.347310,0.227274,-0.635463,0.476829
837,2407514318,-0.570189,0.652236,-0.357489,0.348821,0.725279,-1.166442,0.044856
838,2407547652,-0.569491,0.650738,-0.358568,0.351641,0.587846,-0.772944,0.133164
839,2407580986,-0.568584,0.649365,-0.359653,0.354526,0.786372,-0.332206,0.393781
840,2407614320,-0.568189,0.647942,-0.360014,0.357386,1.322654,-0.182414,0.426874
841,2407647654,-0.566648,0.646426,-0.360887,0.361670,1.348446,-0.161397,0.549746
842,2407680988,-0.565413,0.645189,-0.360735,0.365939,0.989628,0.207562,0.499180
843,2407714322,-0.566370,0.644034,-0.358530,0.368651,0.485998,0.765585,0.077543
844,2407747656,-0.566643,0.643628,-0.357708,0.369737,-0.528080,0.246502,-0.755663
845,2407780990,-0.563366,0.643820,-0.360508,0.371686,-0.833234,-0.732637,-0.500969
846,2407814324,-0.559757,0.644391,-0.362924,0.373792,-0.222847,-0.852659,-0.698345
847,2407847658,-0.557265,0.646545,-0.362960,0.373759,-0.235859,-0.234614,-0.175784
848,2407880992,-0.556896,0.648655,-0.360707,0.372835,0.083990,0.373399,0.164535
849,2407914326,-0.562318,0.648925,-0.354552,0.370122,0.828607,0.831259,0.381903
850,2407947660,-0.569013,0.650078,-0.346598,0.365369,1.315031,-0.115630,0.295196
851,2407980994,-0.572622,0.652137,-0.340390,0.361880,0.745787,-0.770942,-0.071079
852,2408014328,-0.572709,0.653732,-0.337733,0.361354,-0.319968,0.257307,-0.216858
853,2408047662,-0.572583,0.656065,-0.335468,0.359431,-0.106535,-0.150913,-0.158784
854,2408080996,-0.572880,0.659762,-0.332442,0.354974,0.524372,0.204809,-0.075261
855,2408114330,-0.573861,0.661663,-0.330904,0.351270,0.442521,1.391556,-0.131676
856,2408147664,-0.577403,0.661690,-0.329537,0.346669,0.207107,1.444114,-0.312130
857,2408180998,-0.587059,0.659419,-0.324431,0.339523,0.455893,0.865297,0.407104
858,2408214332,-0.590835,0.660139,-0.322680,0.333181,0.541259,-4.222382,-0.148903
859,2408247666,-0.588216,0.660553,-0.327009,0.332775,-0.476520,-0.754770,0.294574
860,2408281000,-0.588195,0.662133,-0.326937,0.329729,-0.043160,-1.262132,0.359078
861,2408314334,-0.587871,0.665535,-0.326136,0.324205,0.890511,-1.864263,0.408247
862,2408347668,-0.586423,0.666167,-0.330002,0.321606,0.085473,-0.498273,0.213719
863,2408381002,-0.583292,0.664518,-0.339094,0.321252,0.181916,-0.669355,0.616740
864,2408414336,-0.579592,0.661446,-0.350711,0.321818,0.412109,0.179582,1.012602
865,2408447670,-0.577058,0.658005,-0.361475,0.321514,0.642822,0.363549,0.371490
866,2408481004,-0.575387,0.654970,-0.370658,0.320247,0.286549,0.008817,0.041282
867,2408514338,-0.573128,0.651883,-0.380343,0.319239,-0.159891,-0.728054,0.011428
868,2408547672,-0.569185,0.647724,-0.392345,0.320234,-0.325072,-0.099320,-0.060797
869,2408581006,-0.565080,0.643506,-0.404740,0.320582,-0.379502,0.663649,0.265594
870,2408614340,-0.560987,0.639410,-0.416262,0.321210,0.196279,0.012548,0.086473
871,2408647674,-0.556578,0.634605,-0.427703,0.323373,-0.098379,0.206517,0.155042
872,2408681008,-0.553072,0.629120,-0.438507,0.325626,-0.470731,0.279808,0.085575
873,2408714342,-0.549969,0.622364,-0.449437,0.328945,-0.270331,0.000591,-0.064526
874,2408747676,-0.547372,0.614437,-0.460145,0.333345,-0.388784,0.230393,0.164943
875,2408781010,-0.545094,0.606034,-0.470423,0.338081,-0.692993,0.607867,0.023888
876,2408814344,-0.543545,0.598026,-0.479609,0.341907,-0.446131,0.320945,-0.009158
877,2408847678,-0.541977,0.589888,-0.488515,0.345902,-0.459837,0.316788,0.137012
878,2408881012,-0.540045,0.581919,-0.497181,0.350049,-0.473006,0.270039,-0.029883
879,2408914346,-0.537698,0.574165,-0.505713,0.354220,-0.353945,0.192544,0.059760
880,2408947680,-0.534920,0.566704,-0.514122,0.358312,-0.225399,0.326173,0.193592
881,2408981014,-0.531954,0.559413,-0.522129,0.362582,-0.285048,0.559276,0.142105
882,2409014348,-0.528907,0.552946,-0.529431,0.366352,-0.316608,0.247214,0.131068
883,2409047682,-0.525074,0.546695,-0.536727,0.370604,-0.778683,-0.512739,0.224346
884,2409081016,-0.520258,0.541325,-0.543840,0.374885,-0.668258,-0.612449,-0.111188
885,2409114350,-0.514485,0.536808,-0.551024,0.378837,-0.851022,0.029092,0.000455
886,2409147684,-0.509195,0.533145,-0.557510,0.381656,-0.471457,0.185862,-0.027825
887,2409181018,-0.503708,0.529280,-0.564210,0.384460,0.106620,0.194618,0.144386
888,2409214352,-0.498681,0.525227,-0.570169,0.387767,0.462627,0.477796,0.409695
889,2409247686,-0.495667,0.521436,-0.574188,0.390804,0.669994,0.907206,0.376537
890,2409281020,-0.493555,0.518099,-0.577220,0.393440,0.529472,0.873073,0.246213
891,2409314354,-0.492517,0.515656,-0.579068,0.395230,0.462948,0.572850,0.179361
892,2409347688,-0.492196,0.514501,-0.579706,0.396201,0.390435,0.590258,0.131953
893,2409381022,-0.492774,0.514851,-0.579109,0.395900,-0.149168,0.810664,0.106871
894,2409414356,-0.494137,0.517191,-0.577229,0.393891,-0.259729,0.059030,-0.005663
895,2409447690,-0.495097,0.520882,-0.574816,0.391342,-0.124462,-0.240322,0.048552
896,2409481024,-0.496211,0.525272,-0.571873,0.388365,-0.130358,0.278618,0.104910
897,2409514358,-0.497621,0.529736,-0.568746,0.385076,-0.142022,-0.027968,0.124176
898,2409547692,-0.498003,0.534746,-0.566164,0.381446,-0.140760,-0.448230,-0.049543
899,2409581026,-0.498278,0.540650,-0.563203,0.377122,-0.146619,0.086949,0.045103
900,2409614360,-0.498593,0.547331,-0.559791,0.372116,-0.015087,0.222979,0.085687
901,2409647694,-0.498332,0.555093,-0.556136,0.366405,0.260674,0.230348,0.092837
902,2409681028,-0.498032,0.563923,-0.551587,0.360150,0.144173,0.405115,0.183933
903,2409714362,-0.498119,0.573684,-0.545923,0.353176,-0.052677,0.700766,0.210748
904,2409747696,-0.498953,0.584189,-0.538825,0.345600,0.021364,0.832009,0.188665
905,2409781030,-0.501270,0.595498,-0.529608,0.337087,0.048598,0.694292,0.298767
906,2409814364,-0.503624,0.607251,-0.519588,0.328086,-0.202888,0.523712,0.109427
907,2409847698,-0.505878,0.619425,-0.508835,0.318572,-0.586865,0.494942,0.156971
908,2409881032,-0.507621,0.632439,-0.497117,0.308574,-0.986141,0.114367,-0.034199
909,2409914366,-0.508448,0.646469,-0.484521,0.297991,-1.108274,0.278948,0.009397
910,2409947700,-0.511003,0.661172,-0.469016,0.285927,-0.324630,0.206180,0.051930
911,2409981034,-0.514190,0.675560,-0.451967,0.273779,-0.092428,-0.205501,0.159915
912,2410014368,-0.516366,0.688459,-0.436113,0.263054,0.057684,-0.552976,0.308574
913,2410047702,-0.517153,0.699807,-0.422091,0.254290,-0.039265,-0.121062,-0.032860
914,2410081036,-0.519596,0.709822,-0.407409,0.245342,-0.028772,0.282245,0.333405
915,2410114370,-0.522529,0.718006,-0.393643,0.237651,0.144199,-0.538185,0.398497
916,2410147704,-0.524897,0.724063,-0.382383,0.232383,-0.005575,-1.003106,0.017792
917,2410181038,-0.526292,0.728439,-0.373910,0.229318,0.001909,-0.565694,-0.102513
918,2410214372,-0.526790,0.731348,-0.367797,0.228798,0.090946,-0.355314,0.091660
919,2410247706,-0.527750,0.733225,-0.362303,0.229344,-0.109739,-0.288758,0.368364
920,2410281040,-0.529018,0.734567,-0.357161,0.230193,0.060768,-0.242363,0.014268
921,2410314374,-0.528566,0.735251,-0.354090,0.233765,-0.112840,-0.296811,-0.015308
922,2410347708,-0.526667,0.735459,-0.352725,0.239392,-0.315378,-0.182133,0.165434
923,2410381042,-0.524571,0.734990,-0.352265,0.246022,-0.244730,-0.019033,0.171650
924,2410414376,-0.522933,0.733059,-0.353092,0.253956,-0.382278,-0.037351,0.184581
925,2410447710,-0.523015,0.728603,-0.355511,0.263071,-0.611923,-0.265809,0.283284
926,2410481044,-0.524128,0.722001,-0.359347,0.273636,-0.009505,-0.159910,0.278970
927,2410514378,-0.525638,0.714105,-0.363507,0.285699,-0.004595,0.192807,0.021118
928,2410547712,-0.528086,0.706183,-0.366409,0.296946,0.139551,0.357465,0.249597
929,2410581046,-0.530618,0.698404,-0.369006,0.307430,0.198832,0.202464,0.423165
930,2410614380,-0.532782,0.690522,-0.372022,0.317686,0.282827,0.252405,0.193821
931,2410647714,-0.534846,0.683129,-0.374678,0.326946,0.147047,0.475314,0.184663
932,2410681048,-0.537628,0.677012,-0.375642,0.333926,0.283664,0.272300,0.695942
933,2410714382,-0.540726,0.672319,-0.374946,0.339146,0.126484,-0.163941,0.507561
934,2410747716,-0.543103,0.669373,-0.373199,0.343080,-0.217004,-0.311192,0.107090
935,2410781050,-0.545379,0.667645,-0.370418,0.345839,-0.094099,-0.097618,-0.140948
936,2410814384,-0.547450,0.666884,-0.367110,0.347558,0.234263,-0.027684,0.104397
937,2410847718,-0.549153,0.667472,-0.362917,0.348145,0.618717,-0.045813,0.011318
938,2410881052,-0.550823,0.669072,-0.357702,0.347833,0.555143,0.144418,0.096866
939,2410914386,-0.552385,0.670619,-0.352587,0.347598,0.329861,0.192532,-0.004877
940,2410947720,-0.553436,0.671843,-0.348399,0.347788,0.165885,0.172626,0.068783
941,2410981054,-0.554879,0.673425,-0.343531,0.347270,0.056695,0.059244,0.081829
942,2411014388,-0.557882,0.675245,-0.336632,0.345678,-0.053424,-0.182999,0.047748
943,2411047722,-0.561619,0.677125,-0.328577,0.343693,0.155532,-0.265109,0.202605
944,2411081056,-0.564853,0.679517,-0.320654,0.341145,-0.092769,-0.009554,0.113390
945,2411114390,-0.568272,0.681563,-0.313096,0.338394,-0.062015,-0.026246,0.396194
946,2411147724,-0.572986,0.682774,-0.305040,0.335350,0.125397,-0.047286,0.348660
947,2411181058,-0.580383,0.681550,-0.296685,0.332602,0.522127,1.029953,0.295172
948,2411214392,-0.588570,0.679027,-0.289130,0.330019,0.093358,-0.635197,-0.441917
949,2411247726,-0.591414,0.679956,-0.284285,0.327222,-0.220495,-1.202525,-0.190247
950,2411281060,-0.592927,0.681113,-0.280758,0.325114,-0.620700,-0.468598,-0.188234
951,2411314394,-0.594683,0.682683,-0.276634,0.322137,-0.346791,-0.198399,0.005189
952,2411347728,-0.596880,0.684164,-0.272472,0.318459,0.603043,-0.863999,0.274855
953,2411381062,-0.598747,0.683853,-0.270679,0.317147,0.927880,-0.969666,0.316842
954,2411414396,-0.600602,0.681142,-0.271598,0.318684,0.720397,-0.691577,0.185298
955,2411447730,-0.603206,0.676594,-0.273753,0.321597,0.533706,-0.655531,0.207767
956,2411481064,-0.606316,0.670824,-0.276595,0.325382,0.154799,-0.803854,0.044743
957,2411514398,-0.608949,0.664953,-0.280496,0.329153,-0.234891,-0.689564,-0.252859
958,2411547732,-0.610120,0.659851,-0.285620,0.332826,0.043275,-0.924065,0.009685
959,2411581066,-0.609850,0.654785,-0.292330,0.337467,0.335335,-0.674082,0.152236
960,2411614400,-0.608608,0.649639,-0.300259,0.342653,0.248766,-0.306859,-0.125218
961,2411647734,-0.606438,0.644739,-0.309225,0.347743,0.072034,-0.207924,-0.159681
962,2411681068,-0.603740,0.640700,-0.318850,0.351195,-0.085578,-0.125718,-0.358371
963,2411714402,-0.600840,0.636659,-0.328913,0.354223,-0.122488,-0.073752,-0.280479
964,2411747736,-0.598385,0.631408,-0.339451,0.357818,-0.009418,0.094202,0.005014
965,2411781070,-0.595536,0.625885,-0.350170,0.361922,0.407743,0.016056,0.430163
966,2411814404,-0.592416,0.620033,-0.360745,0.366696,0.746388,0.274199,0.592087
967,2411847738,-0.588578,0.614749,-0.371150,0.371362,0.666795,0.064453,0.280892
968,2411881072,-0.584252,0.609677,-0.381641,0.375892,0.550208,-0.003785,0.206132
969,2411914406,-0.580405,0.604695,-0.391349,0.379897,0.396754,0.112929,-0.091165
970,2411947740,-0.576725,0.600181,-0.400320,0.383298,0.421892,0.062492,-0.166117
971,2411981074,-0.572644,0.596697,-0.408203,0.386528,0.745540,-0.452838,-0.101606
972,2412014408,-0.567462,0.593013,-0.415936,0.391563,0.915879,-0.227631,0.118562
973,2412047742,-0.562046,0.589916,-0.423801,0.395598,0.237838,0.203776,0.576566
974,2412081076,-0.556089,0.586609,-0.433299,0.398634,-0.158924,1.010731,1.477028
975,2412114410,-0.552323,0.584175,-0.441813,0.398099,-0.463543,1.055789,0.558997
976,2412147744,-0.548115,0.580955,-0.451264,0.398025,0.128962,-0.135361,-0.100610
977,2412181078,-0.542750,0.576953,-0.461177,0.399832,0.383310,0.024602,-0.127646
978,2412214412,-0.537618,0.575153,-0.470030,0.399049,-0.140157,-0.322788,0.042115
979,2412247746,-0.532412,0.573630,-0.479215,0.397292,-0.361313,-0.454082,-0.057962
980,2412281080,-0.524773,0.571001,-0.490706,0.397215,-0.641482,-0.213953,-0.022182
981,2412314414,-0.516757,0.567512,-0.502319,0.398207,-0.530280,-0.433492,0.027968
982,2412347748,-0.509758,0.564455,-0.512473,0.398634,-0.437568,-0.395602,-0.018767
983,2412381082,-0.502155,0.560705,-0.523269,0.399552,-0.567473,-0.066132,0.055603
984,2412414416,-0.493615,0.554302,-0.535763,0.402558,-0.456005,0.339208,0.252049
985,2412447750,-0.485935,0.546728,-0.547823,0.406014,-0.170418,1.001021,0.245258
986,2412481084,-0.480150,0.539877,-0.557770,0.408515,0.011499,0.761803,0.330413
987,2412514418,-0.476191,0.534533,-0.565029,0.410196,0.025090,0.928768,0.226728
988,2412547752,-0.473864,0.530774,-0.570078,0.410786,-0.356466,0.951897,0.091467
989,2412581086,-0.472350,0.527843,-0.574028,0.410806,-0.395627,0.484915,-0.031011
990,2412614420,-0.470625,0.525539,-0.577573,0.410769,-0.161407,-0.086409,-0.026013
991,2412647754,-0.468998,0.524535,-0.580333,0.410024,0.120258,0.054057,0.140975
992,2412681088,-0.467753,0.524889,-0.582010,0.408614,0.177773,0.429025,0.234198
993,2412714422,-0.467625,0.526516,-0.582179,0.406420,0.268475,0.418733,0.247193
994,2412747756,-0.467930,0.528951,-0.581471,0.403913,0.329372,0.252745,0.169092
995,2412781090,-0.467830,0.532275,-0.580603,0.400899,0.185939,0.201795,0.082489
996,2412814424,-0.467865,0.536642,-0.578989,0.397355,0.191342,0.204505,0.110435
997,2412847758,-0.468090,0.542023,-0.576660,0.393152,0.160413,0.310385,0.192984
998,2412881092,-0.468797,0.548350,-0.573350,0.388347,0.102856,0.052863,0.233399
999,2412914426,-0.469699,0.555455,-0.569177,0.383266,0.195559,0.110282,0.058500
1000,2412947760,-0.470760,0.563394,-0.564402,0.377392,-0.101874,0.391928,0.083899
1001,2412981094,-0.471654,0.571554,-0.559353,0.371477,-0.152582,0.700979,0.226749
1002,2413014428,-0.473341,0.580379,-0.553006,0.365095,-0.196690,0.603558,0.118805
1003,2413047762,-0.474550,0.589900,-0.546196,0.358458,-0.676463,0.015354,-0.016925
1004,2413081096,-0.474671,0.600196,-0.539106,0.351880,-0.671535,0.005852,-0.052667
1005,2413114430,-0.474905,0.611722,-0.530559,0.344630,-0.528575,0.474866,0.023565
1006,2413147764,-0.476550,0.624304,-0.519546,0.336479,-0.417471,0.935285,0.260657
1007,2413181098,-0.479891,0.637469,-0.506088,0.327437,-0.406018,0.778399,0.254972
1008,2413214432,-0.484171,0.650697,-0.491027,0.317908,-0.500818,0.676915,0.244312
1009,2413247766,-0.488635,0.663341,-0.475402,0.308558,-0.530916,0.487988,0.106987
1010,2413281100,-0.492598,0.675783,-0.459287,0.299536,-0.843667,0.261834,-0.004902
1011,2413314434,-0.496141,0.688884,-0.441593,0.290311,-1.330248,0.110960,-0.041230
1012,2413347768,-0.499366,0.703131,-0.421565,0.280223,-1.654997,-0.283026,-0.064717
1013,2413381102,-0.502107,0.718025,-0.399672,0.269431,-0.744079,-0.820881,0.000004
1014,2413414436,-0.504009,0.731938,-0.378105,0.259382,-0.155512,-0.163455,0.185759
1015,2413447770,-0.506739,0.743090,-0.358080,0.250624,0.332234,0.473535,0.438782
1016,2413481104,-0.510056,0.749618,-0.342763,0.245829,0.098789,0.806652,0.492464
1017,2413514438,-0.514358,0.751300,-0.333024,0.245113,0.160294,0.699760,0.588265
1018,2413547772,-0.519416,0.749538,-0.327086,0.247823,0.906589,0.257335,0.364376
1019,2413581106,-0.524749,0.745974,-0.322439,0.253368,0.746251,0.274496,0.059380
1020,2413614440,-0.531718,0.741119,-0.317131,0.259706,0.103739,0.398313,0.150941
1021,2413647774,-0.540837,0.734999,-0.310942,0.265686,-0.140634,0.073049,0.217105
1022,2413681108,-0.550292,0.727346,-0.306174,0.272775,0.039302,-0.381325,0.451692
1023,2413714442,-0.558997,0.718850,-0.303985,0.279951,-0.103617,-0.970890,0.290174
1024,2413747776,-0.566045,0.710463,-0.303933,0.287163,0.191078,-0.922772,0.277913
1025,2413781110,-0.572371,0.702284,-0.304604,0.293950,0.117885,-0.753976,0.174133
1026,2413814444,-0.579133,0.695077,-0.303494,0.298944,0.364129,-0.988191,-0.087561
1027,2413847778,-0.585177,0.689151,-0.300928,0.303453,0.779818,-1.228935,0.227393
1028,2413881112,-0.590147,0.683634,-0.298481,0.308679,0.101848,-1.132871,0.105999
1029,2413914446,-0.592051,0.679287,-0.299011,0.314069,-0.087521,-1.540478,0.253092
1030,2413947780,-0.592986,0.675256,-0.300193,0.319816,0.131348,-1.378998,0.166475
1031,2413981114,-0.591784,0.672543,-0.302353,0.325672,0.031228,-0.955394,-0.106456
1032,2414014448,-0.588410,0.671018,-0.305686,0.331762,0.098970,-0.625185,-0.196643
1033,2414047782,-0.584397,0.670145,-0.309314,0.337212,-0.113826,-0.475787,-0.417470
1034,2414081116,-0.580195,0.669616,-0.313480,0.341645,-0.167935,-0.027253,-0.359138
1035,2414114450,-0.575445,0.669016,-0.318704,0.345991,0.072600,0.469452,-0.189842
1036,2414147784,-0.571300,0.668883,-0.323045,0.349077,0.210464,0.822041,-0.255503
1037,2414181118,-0.568628,0.669638,-0.325429,0.349779,0.253709,0.634662,0.248591
1038,2414214452,-0.566930,0.670157,-0.327134,0.349951,0.387718,0.441220,0.265359
1039,2414247786,-0.565064,0.670482,-0.328922,0.350670,0.321098,0.612275,0.057234
1040,2414281120,-0.564140,0.670949,-0.329501,0.350720,0.320241,0.444198,0.188520
1041,2414314454,-0.564333,0.672019,-0.328406,0.349385,0.355890,0.330085,0.145833
1042,2414347788,-0.564807,0.674079,-0.326093,0.346808,0.334087,-0.009717,0.082728
1043,2414381122,-0.564775,0.676609,-0.323768,0.344102,0.305376,-0.216285,0.132274
1044,2414414456,-0.564795,0.678620,-0.321767,0.341980,0.479711,-0.154764,0.217557
1045,2414447790,-0.565533,0.680237,-0.319489,0.339675,0.404012,-0.452308,0.269664
1046,2414481124,-0.567062,0.681586,-0.316966,0.336772,0.436186,-0.336713,0.131612
1047,2414514458,-0.568144,0.681585,-0.316467,0.335416,0.362527,-0.260627,0.101829
1048,2414547792,-0.568745,0.680462,-0.318042,0.335189,0.105417,-0.033109,0.089225
1049,2414581126,-0.570602,0.677910,-0.320204,0.335147,0.000404,-0.312475,0.071229
1050,2414614460,-0.571748,0.674719,-0.324147,0.335840,0.260045,-0.931748,0.041171
1051,2414647794,-0.570359,0.670844,-0.331188,0.339080,0.071152,-0.738742,-0.064245
1052,2414681128,-0.568058,0.667740,-0.338526,0.341812,-0.212049,-0.342689,-0.219509
1053,2414714462,-0.565906,0.665288,-0.345854,0.342825,0.019222,-0.511268,-0.011806
1054,2414747796,-0.562819,0.661856,-0.355101,0.345089,0.485520,-0.791406,0.132819
1055,2414781130,-0.558907,0.656810,-0.366007,0.349664,0.543568,-0.473448,0.018476
1056,2414814464,-0.556491,0.651014,-0.376110,0.353613,0.591210,-0.115611,0.016310
1057,2414847798,-0.553603,0.644032,-0.387697,0.358384,0.201229,-1.085355,0.609914
1058,2414881132,-0.546650,0.635771,-0.403221,0.366583,-0.198927,-1.211492,0.388279
1059,2414914466,-0.538484,0.628274,-0.418304,0.374608,-0.294415,-0.054727,0.116957
1060,2414947800,-0.532826,0.622852,-0.429687,0.378845,-0.029557,0.633099,-0.378545
1061,2414981134,-0.529097,0.617313,-0.439264,0.382139,0.980011,0.899462,-0.195480
1062,2415014468,-0.524440,0.611428,-0.449704,0.385859,1.223696,0.640910,0.751575
1063,2415047802,-0.516407,0.604552,-0.463731,0.390891,0.435575,0.287846,1.822746
1064,2415081136,-0.509666,0.597977,-0.476685,0.394256,0.011424,0.496474,0.417966
1065,2415114470,-0.504337,0.591610,-0.487413,0.397582,-0.198194,0.427235,-0.636290
1066,2415147804,-0.498675,0.586930,-0.496777,0.400064,-0.704891,0.410256,-0.157522
1067,2415181138,-0.494814,0.585247,-0.503859,0.398464,-1.190412,0.677595,0.027324
1068,2415214472,-0.491460,0.583752,-0.510176,0.396765,-0.773422,0.252736,-0.072235
1069,2415247806,-0.486901,0.580977,-0.517459,0.397028,-0.422388,-0.190316,0.152990
1070,2415281140,-0.482644,0.577228,-0.525014,0.397773,-0.291080,-0.214152,0.024800
1071,2415314474,-0.479851,0.572673,-0.531843,0.398666,-0.406142,0.094940,0.211964
1072,2415347808,-0.477226,0.567390,-0.538584,0.400315,-0.296573,-0.151767,0.104576
1073,2415381142,-0.474311,0.561792,-0.545458,0.402364,-0.248436,-0.071325,0.066686
1074,2415414476,-0.470762,0.556208,-0.552481,0.404699,-0.486729,0.146777,-0.119418
1075,2415447810,-0.466226,0.551723,-0.559242,0.406798,-0.610701,-0.162840,-0.172417
1076,2415481144,-0.460875,0.549089,-0.565445,0.407884,-0.245229,0.354849,0.046858
1077,2415514478,-0.457418,0.547704,-0.569970,0.407339,0.348797,0.482074,0.359264
1078,2415547812,-0.454433,0.544754,-0.574651,0.408058,0.620628,0.529102,0.403223
1079,2415581146,-0.451335,0.540455,-0.579944,0.409722,0.489431,0.680165,0.319717
1080,2415614480,-0.449415,0.536776,-0.584124,0.410729,0.150876,0.226962,0.251871
1081,2415647814,-0.447930,0.534183,-0.587350,0.411131,-0.027670,0.556548,0.027458
1082,2415681148,-0.447441,0.533413,-0.588945,0.410380,-0.208401,0.418190,0.005368
1083,2415714482,-0.447064,0.534092,-0.589678,0.408852,-0.070445,0.137014,0.081641
1084,2415747816,-0.446484,0.535415,-0.590266,0.406904,0.112521,0.444975,0.105185
1085,2415781150,-0.446893,0.537654,-0.589651,0.404387,0.276922,0.283679,0.201262
1086,2415814484,-0.447892,0.541670,-0.587479,0.401070,0.252089,0.098726,0.158378
1087,2415847818,-0.449683,0.547108,-0.584004,0.396736,0.254156,0.593214,0.144495
1088,2415881152,-0.451812,0.552647,-0.580184,0.392219,0.325239,0.601323,0.174047
1089,2415914486,-0.453644,0.558543,-0.576228,0.387555,0.346524,0.347503,0.144684
1090,2415947820,-0.455742,0.565577,-0.571395,0.382011,0.235016,0.513833,0.279644
1091,2415981154,-0.458338,0.573376,-0.565514,0.375982,0.130651,0.514549,0.153069
1092,2416014488,-0.461004,0.581701,-0.559018,0.369593,-0.113180,0.281900,0.116477
1093,2416047822,-0.463963,0.590782,-0.551359,0.362932,-0.119524,0.323062,0.241506
1094,2416081156,-0.468095,0.600744,-0.541869,0.355491,-0.436297,0.261874,0.012251
1095,2416114490,-0.472648,0.611034,-0.531449,0.347570,-0.572503,0.246570,0.151871
1096,2416147824,-0.478362,0.622038,-0.519138,0.338727,-0.703075,0.074574,0.057340
1097,2416181158,-0.485244,0.634490,-0.504276,0.328128,-1.039941,-0.315936,-0.009597
1098,2416214492,-0.491780,0.647206,-0.488562,0.317153,-0.879212,-0.424044,0.026063
1099,2416247826,-0.496608,0.658614,-0.474214,0.307782,-0.515069,-0.432855,0.090877
1100,2416281160,-0.500368,0.668464,-0.461058,0.300357,-0.280329,-0.464649,0.006115
1101,2416314494,-0.502775,0.676983,-0.449453,0.294796,-0.741279,-0.054389,0.088030
1102,2416347828,-0.504270,0.684465,-0.439278,0.290270,-1.062742,-0.279811,0.066861
1103,2416381162,-0.505136,0.691016,-0.430094,0.286975,-0.612081,-0.656116,-0.039574
1104,2416414496,-0.505768,0.697412,-0.420711,0.284287,-0.424573,-0.272844,0.108800
1105,2416447830,-0.506359,0.703476,-0.411026,0.282457,-0.552768,0.003596,0.147385
1106,2416481164,-0.507891,0.709072,-0.400723,0.280511,-0.363297,0.349294,0.052710
1107,2416514498,-0.510202,0.713909,-0.390418,0.278575,-0.184063,0.018324,0.247437
1108,2416547832,-0.512299,0.717205,-0.381597,0.278482,0.151917,0.004500,0.169740
1109,2416581166,-0.513755,0.718474,-0.375473,0.280844,0.374975,0.732569,0.359976
1110,2416614500,-0.516292,0.717911,-0.370793,0.283832,0.723271,1.150635,0.236293
1111,2416647834,-0.518428,0.715180,-0.369024,0.289089,0.819525,0.658866,0.241860
1112,2416681168,-0.520233,0.710759,-0.369369,0.296223,0.749458,0.204557,0.414172
1113,2416714502,-0.522860,0.705427,-0.370213,0.303207,0.494094,-0.248163,0.317261
1114,2416747836,-0.525908,0.698166,-0.372714,0.311563,0.409558,-0.468205,0.009261
1115,2416781170,-0.529065,0.689545,-0.376437,0.320804,0.526045,-0.262895,0.265403
1116,2416814504,-0.532048,0.680829,-0.380360,0.329734,0.451039,-0.630003,0.407425
1117,2416847838,-0.535021,0.672717,-0.383258,0.338112,0.162106,-0.945825,0.088606
1118,2416881172,-0.536759,0.665005,-0.386306,0.347028,-0.324770,-0.469383,0.182135
1119,2416914506,-0.539096,0.658725,-0.388068,0.353357,-0.456492,-0.236283,0.122620
1120,2416947840,-0.541592,0.653549,-0.389053,0.358038,-0.250283,-0.246308,0.045382
1121,2416981174,-0.543124,0.649709,-0.389775,0.361899,-0.031254,-0.341341,0.189825
1122,2417014508,-0.544169,0.646854,-0.390085,0.365098,0.182227,-0.471285,0.149816
1123,2417047842,-0.544508,0.644827,-0.390635,0.367580,0.530763,-0.337566,0.033478
1124,2417081176,-0.544423,0.643769,-0.390902,0.369273,0.508510,-0.260047,0.161752
1125,2417114510,-0.543716,0.642671,-0.391492,0.371596,0.278121,-0.078143,-0.098800
1126,2417147844,-0.542867,0.641866,-0.392069,0.373615,-0.035653,0.321637,-0.201167
1127,2417181178,-0.542250,0.641873,-0.391962,0.374608,0.117537,0.575117,-0.095683
1128,2417214512,-0.541783,0.643092,-0.390716,0.374496,0.396968,0.646259,-0.082782
1129,2417247846,-0.541311,0.645473,-0.388389,0.373501,0.347839,0.355633,0.192724
1130,2417281180,-0.541401,0.648453,-0.384955,0.371759,0.149582,0.165030,0.251279
1131,2417314514,-0.542029,0.651493,-0.381090,0.369504,-0.008064,-0.101456,0.074169
1132,2417347848,-0.542951,0.654235,-0.377112,0.367382,-0.093948,-0.260023,-0.020320
1133,2417381182,-0.544775,0.657113,-0.372239,0.364503,-0.238526,-0.472120,-0.283520
1134,2417414516,-0.545816,0.660402,-0.368005,0.361287,-0.423945,-0.824445,0.096075
1135,2417447850,-0.545340,0.664023,-0.365153,0.358250,-0.623168,-0.658422,0.071424
1136,2417481184,-0.544313,0.667863,-0.362726,0.355126,-0.407221,-0.112086,-0.152567
1137,2417514518,-0.543600,0.672087,-0.359603,0.351405,0.009047,0.087083,0.129214
1138,2417547852,-0.543419,0.676267,-0.355854,0.347460,0.363290,0.199884,0.432046
1139,2417581186,-0.543691,0.680433,-0.351873,0.342926,0.463891,0.372094,0.285283
1140,2417614520,-0.543856,0.683475,-0.349437,0.339084,0.517035,0.077332,0.318015
1141,2417647854,-0.544306,0.683506,-0.349525,0.338208,0.622466,-0.297436,0.287425
1142,2417681188,-0.545580,0.681317,-0.351077,0.338964,0.578601,-0.449220,0.162535
1143,2417714522,-0.547359,0.677910,-0.353599,0.340305,0.344725,-0.704177,0.181832
1144,2417747856,-0.548343,0.673508,-0.358072,0.342772,0.032084,-0.800570,0.059752
1145,2417781190,-0.547810,0.668719,-0.364754,0.345943,-0.275060,-1.201350,-0.022871
1146,2417814524,-0.546430,0.663455,-0.372584,0.349893,0.049154,-1.000272,-0.072676
1147,2417847858,-0.544681,0.658166,-0.380779,0.353764,0.286186,-0.943867,-0.016389
1148,2417881192,-0.542077,0.652488,-0.389841,0.358382,0.494151,-0.709147,0.220430
1149,2417914526,-0.538935,0.645612,-0.400017,0.364312,0.510145,-0.367698,0.073901
1150,2417947860,-0.535773,0.638230,-0.410805,0.369934,0.270627,0.060492,-0.069697
1151,2417981194,-0.532773,0.629956,-0.422102,0.375685,0.146460,0.009049,0.114606
1152,2418014528,-0.529893,0.621143,-0.433294,0.381645,0.400233,0.245295,0.593485
1153,2418047862,-0.527231,0.613891,-0.443300,0.385556,0.486028,-0.094559,0.462346
1154,2418081196,-0.523604,0.606847,-0.453576,0.389674,0.898831,-0.124119,0.321020
1155,2418114530,-0.519467,0.599816,-0.463425,0.394479,1.108593,0.246503,-0.085258
1156,2418147864,-0.514743,0.593381,-0.472961,0.399059,0.840962,0.152321,0.120145
1157,2418181198,-0.508927,0.587541,-0.482943,0.403182,0.372369,0.435480,0.824100
1158,2418214532,-0.503483,0.583485,-0.492585,0.404242,-0.240366,1.375001,0.321718
1159,2418247866,-0.498910,0.580911,-0.501274,0.402936,-0.324554,0.621718,0.011827
1160,2418281200,-0.495209,0.578532,-0.508408,0.401984,0.387089,-0.204515,-0.117702
1161,2418314534,-0.491179,0.576819,-0.514999,0.401000,0.099777,-0.604544,-0.159964
1162,2418347868,-0.487180,0.574857,-0.521640,0.400111,-0.755895,-0.198722,-0.006823
1163,2418381202,-0.481904,0.571302,-0.530048,0.400541,-1.158251,0.962437,-0.032253
1164,2418414536,-0.477964,0.567718,-0.537792,0.400036,-1.142131,1.078570,0.006919
1165,2418447870,-0.475609,0.565261,-0.543561,0.398520,-0.743023,0.196590,0.255117
1166,2418481204,-0.474170,0.563191,-0.548283,0.396695,-0.608899,-0.358972,-0.156767
1167,2418514538,-0.472162,0.560105,-0.553803,0.395790,-0.440167,0.100148,-0.069669
1168,2418547872,-0.469949,0.556134,-0.559574,0.395907,-0.149204,0.076365,0.207265
1169,2418581206,-0.468641,0.552549,-0.564052,0.396121,-0.141357,0.031598,0.233497
1170,2418614540,-0.466354,0.548982,-0.568784,0.397013,-0.186780,-0.164960,0.102438
1171,2418647874,-0.463627,0.545087,-0.573906,0.398201,-0.184182,0.039822,0.141840
1172,2418681208,-0.460543,0.541018,-0.579057,0.399868,0.039269,0.267892,0.308161
1173,2418714542,-0.458314,0.537960,-0.582836,0.401062,0.152838,0.549393,0.245187
1174,2418747876,-0.456948,0.535913,-0.585428,0.401586,0.134828,0.633773,0.081016
1175,2418781210,-0.455929,0.534570,-0.587378,0.401687,-0.029388,0.458560,0.118218
1176,2418814544,-0.455441,0.534104,-0.588544,0.401153,-0.140057,0.399244,0.117624
1177,2418847878,-0.455457,0.534506,-0.588917,0.400050,-0.033923,0.300536,0.074745
1178,2418881212,-0.456022,0.535718,-0.588504,0.398392,0.069711,0.087496,0.145308
1179,2418914546,-0.456782,0.537492,-0.587643,0.396396,-0.025744,0.200105,0.074049
1180,2418947880,-0.457697,0.539866,-0.586302,0.394094,0.220137,0.324861,0.128641
1181,2418981214,-0.458802,0.543099,-0.584307,0.391321,0.143839,0.141025,0.108461
1182,2419014548,-0.459992,0.547087,-0.581757,0.388155,0.249408,0.320727,0.226764
1183,2419047882,-0.461573,0.551750,-0.578512,0.384510,0.391020,0.256104,0.152989
1184,2419081216,-0.463021,0.557115,-0.574763,0.380635,0.376875,0.079840,0.222202
1185,2419114550,-0.464738,0.563380,-0.570024,0.376425,0.286988,0.302197,0.131512
1186,2419147884,-0.467077,0.570505,-0.564255,0.371458,0.080750,0.408002,0.189105
1187,2419181218,-0.469587,0.578143,-0.557737,0.366293,-0.041425,0.200187,0.139408
1188,2419214552,-0.472214,0.586685,-0.550282,0.360564,-0.221493,0.347017,0.042328
1189,2419247886,-0.474695,0.595977,-0.542211,0.354238,-0.549470,0.632219,0.073076
1190,2419281220,-0.477394,0.605960,-0.533125,0.347401,-0.504913,0.704436,0.086709
1191,2419314554,-0.480215,0.616788,-0.522880,0.339948,-0.650219,0.469621,0.113132
1192,2419347888,-0.483153,0.628581,-0.511282,0.331726,-0.789487,0.393885,0.107883
1193,2419381222,-0.486266,0.640819,-0.498455,0.323173,-0.681899,0.367368,0.015648
1194,2419414556,-0.490038,0.653041,-0.484291,0.314427,-0.518269,0.472237,0.176014
1195,2419447890,-0.494426,0.664992,-0.469020,0.305533,-0.467022,0.402765,0.271400
1196,2419481224,-0.499379,0.676405,-0.452921,0.296585,-0.323095,-0.102647,0.133294
1197,2419514558,-0.503251,0.686440,-0.438093,0.289163,-0.609577,-0.420973,-0.047928
1198,2419547892,-0.506303,0.695291,-0.424381,0.283074,-0.569565,-0.314649,0.046053
1199,2419581226,-0.508440,0.703337,-0.411569,0.278243,-0.698495,-0.612324,0.005871
1200,2419614560,-0.509706,0.710862,-0.399517,0.274340,-0.811240,-0.561531,-0.059241
1201,2419647894,-0.511182,0.718128,-0.387103,0.270442,-0.016406,-0.457799,0.195958
1202,2419681228,-0.512215,0.724639,-0.375303,0.267738,0.366923,-0.424435,0.072070
1203,2419714562,-0.512149,0.729946,-0.365443,0.267088,-0.226535,0.086664,0.296813
1204,2419747896,-0.512742,0.733149,-0.357396,0.268064,-0.466192,0.937583,0.300663
1205,2419781230,-0.514712,0.733648,-0.351532,0.270665,0.458855,0.680622,0.504532
1206,2419814564,-0.517806,0.731879,-0.347445,0.274796,0.855776,0.141485,0.333514
1207,2419847898,-0.520874,0.728304,-0.345342,0.281078,0.725260,-0.254434,0.250748
1208,2419881232,-0.524160,0.723284,-0.344767,0.288539,0.248725,-0.327937,0.531861
1209,2419914566,-0.528224,0.716707,-0.345614,0.296419,-0.089638,-0.607544,0.556350
1210,2419947900,-0.532733,0.708742,-0.347504,0.305162,0.151810,-0.934766,0.127727
1211,2419981234,-0.536319,0.699813,-0.350761,0.315583,0.282910,-0.653580,0.286489
1212,2420014568,-0.539103,0.692132,-0.353299,0.324811,0.194912,-0.542795,0.171678
1213,2420047902,-0.541605,0.685868,-0.354600,0.332431,-0.177007,-0.496334,0.205913
1214,2420081236,-0.544378,0.680895,-0.354345,0.338344,-0.097164,-0.223539,0.303332
1215,2420114570,-0.547047,0.675720,-0.354522,0.344176,-0.120044,-0.187822,0.194335
1216,2420147904,-0.549026,0.669800,-0.355949,0.351057,0.279169,0.030831,0.117187
1217,2420181238,-0.550749,0.664827,-0.356802,0.356896,0.707064,0.112860,0.315968
1218,2420214572,-0.552332,0.661012,-0.356735,0.361572,0.707484,0.134112,0.251051
1219,2420247906,-0.553236,0.657491,-0.356838,0.366475,0.580085,0.087067,0.029093
1220,2420281240,-0.553693,0.654262,-0.357018,0.371355,0.328989,0.402071,-0.475875
1221,2420314574,-0.554050,0.652529,-0.356555,0.374306,-0.206938,0.100054,-0.501096
1222,2420347908,-0.554217,0.651625,-0.355639,0.376499,-0.330873,0.065625,-0.437063
1223,2420381242,-0.554502,0.651126,-0.354299,0.378202,-0.079519,0.244279,-0.373240
1224,2420414576,-0.554244,0.651564,-0.352887,0.379145,0.060519,0.161507,-0.174756
1225,2420447910,-0.554567,0.652643,-0.350697,0.378849,0.046009,0.274124,0.214843
1226,2420481244,-0.555482,0.654678,-0.347373,0.377054,0.028465,0.240097,0.208091
1227,2420514578,-0.556957,0.657382,-0.343076,0.374096,-0.057059,0.206268,0.188869
1228,2420547912,-0.558653,0.660093,-0.338444,0.370999,-0.133390,0.396274,0.035191
1229,2420581246,-0.560620,0.662971,-0.333403,0.367450,0.143680,0.107049,0.177023
1230,2420614580,-0.562761,0.666441,-0.327525,0.363161,0.543583,-0.028852,0.494383
1231,2420647914,-0.565953,0.669804,-0.320280,0.358444,0.299750,-0.016055,0.451362
1232,2420681248,-0.569284,0.672740,-0.313085,0.354000,0.304269,-0.026337,0.259704
1233,2420714582,-0.572322,0.674721,-0.307105,0.350554,0.367320,-0.138353,0.246530
1234,2420747916,-0.576585,0.675428,-0.300940,0.347541,0.605678,-0.492353,0.272763
1235,2420781250,-0.581357,0.675201,-0.295364,0.344804,0.500930,-0.653967,0.067190
1236,2420814584,-0.585161,0.673375,-0.292594,0.344301,0.283048,-0.810246,-0.023912
1237,2420847918,-0.587671,0.670575,-0.292548,0.345527,0.175106,-0.833747,-0.016349
1238,2420881252,-0.589549,0.666895,-0.294498,0.347786,-0.126748,-0.934353,-0.139748
1239,2420914586,-0.590409,0.662897,-0.298415,0.350622,-0.171125,-1.023003,-0.164064
1240,2420947920,-0.589900,0.658991,-0.303828,0.354174,0.048044,-1.227635,0.021814
1241,2420981254,-0.587788,0.655275,-0.310866,0.358446,-0.107430,-0.918471,-0.184107
1242,2421014588,-0.584900,0.651862,-0.318650,0.362535,-0.195758,-0.580272,-0.144184
1243,2421047922,-0.583031,0.648045,-0.325772,0.366042,0.183110,-0.333847,-0.048678
1244,2421081256,-0.581177,0.643409,-0.333632,0.370067,0.322065,-0.560853,0.083513
1245,2421114590,-0.578159,0.638213,-0.343022,0.375173,0.187173,-0.364378,0.022616
1246,2421147924,-0.574948,0.633259,-0.352342,0.379834,0.178994,0.025773,-0.106716
1247,2421181258,-0.572440,0.628362,-0.361121,0.383493,0.179629,0.140349,-0.332087
1248,2421214592,-0.569096,0.623324,-0.371172,0.387078,0.282603,-0.330290,0.030014
1249,2421247926,-0.564526,0.618253,-0.382307,0.391046,0.414154,-0.075554,-0.041591
1250,2421281260,-0.559005,0.614246,-0.393698,0.393979,0.224677,0.075707,-0.279003
1251,2421314594,-0.550980,0.611279,-0.407104,0.396267,-0.374165,-1.469767,0.832352
1252,2421347928,-0.540730,0.608061,-0.421536,0.400228,0.098777,-1.723004,0.784765
1253,2421381262,-0.531465,0.605207,-0.433788,0.403855,0.235991,-0.307367,-0.109151
1254,2421414596,-0.525013,0.604924,-0.441759,0.404079,0.009492,0.709831,-0.364600
1255,2421447930,-0.523013,0.605300,-0.447127,0.400186,-0.114619,1.343399,0.171988
1256,2421481264,-0.520777,0.603191,-0.454988,0.397417,0.697246,1.425509,1.471890
1257,2421514598,-0.515412,0.600352,-0.466476,0.395386,0.595726,0.022046,0.786639
1258,2421547932,-0.509619,0.595930,-0.478036,0.395777,1.337181,0.160417,0.216715
1259,2421581266,-0.506931,0.594690,-0.484839,0.392809,1.305390,-0.033748,0.424294
1260,2421614600,-0.504634,0.590832,-0.493348,0.390988,0.507070,-0.217322,-0.004540
1261,2421647934,-0.497511,0.583165,-0.507748,0.393186,-0.341889,0.234073,0.054693
1262,2421681268,-0.489880,0.575206,-0.521853,0.396014,-0.931500,0.387869,0.053522
1263,2421714602,-0.485296,0.570071,-0.531519,0.396228,-1.068179,-0.465618,-0.261557
1264,2421747936,-0.479117,0.564679,-0.541950,0.397337,-1.215776,0.494177,-0.236294
1265,2421781270,-0.473336,0.558955,-0.552416,0.397946,-0.601695,0.458509,0.258840
1266,2421814604,-0.468052,0.551394,-0.563126,0.399729,0.122290,0.290858,0.259177
1267,2421847938,-0.463581,0.543517,-0.572946,0.401767,0.440584,0.872548,0.367010
1268,2421881272,-0.460132,0.536095,-0.581158,0.403902,0.039870,0.377979,0.335354
1269,2421914606,-0.456307,0.528783,-0.589201,0.406221,-0.665099,0.206876,-0.178346
1270,2421947940,-0.452081,0.522505,-0.596677,0.408154,-0.599295,0.387200,-0.109601
1271,2421981274,-0.448314,0.517727,-0.602788,0.409417,-0.485927,0.109172,-0.012591
1272,2422014608,-0.444169,0.513531,-0.608709,0.410457,-0.035577,0.449155,0.164436
1273,2422047942,-0.441474,0.510609,-0.613044,0.410558,0.448017,0.936976,0.326498
1274,2422081276,-0.440423,0.508594,-0.615877,0.409948,0.597545,1.024706,0.285653
1275,2422114610,-0.439891,0.507426,-0.617794,0.409080,0.117987,0.469097,0.137826
1276,2422147944,-0.440347,0.508163,-0.618054,0.407279,-0.053809,0.476499,-0.029306
1277,2422181278,-0.441207,0.510237,-0.617501,0.404585,-0.010526,0.509678,0.055112
1278,2422214612,-0.442381,0.513258,-0.616204,0.401447,0.072135,0.161044,0.205826
1279,2422247946,-0.444344,0.517314,-0.613758,0.397804,0.171845,0.104491,0.222729
1280,2422281280,-0.446390,0.521579,-0.611006,0.394163,0.153724,0.177116,0.116364
1281,2422314614,-0.448301,0.525807,-0.608263,0.390604,0.208194,0.204007,0.159449
1282,2422347948,-0.450550,0.530416,-0.605068,0.386727,0.289343,0.418317,0.213332
1283,2422381282,-0.452854,0.535480,-0.601324,0.382877,0.282814,0.311845,0.195347
1284,2422414616,-0.455127,0.541485,-0.596894,0.378647,0.106929,0.338154,0.123544
1285,2422447950,-0.457109,0.548447,-0.592051,0.373811,-0.395499,0.260337,-0.093482
1286,2422481284,-0.458481,0.556493,-0.586966,0.368216,-0.397310,0.308246,0.043583
1287,2422514618,-0.461102,0.565489,-0.580401,0.361585,0.292053,0.783620,0.296922
1288,2422547952,-0.465795,0.574765,-0.572131,0.354045,0.686373,0.682785,0.387228
1289,2422581286,-0.471551,0.583791,-0.562954,0.346283,0.386531,0.262704,0.353782
1290,2422614620,-0.476994,0.592571,-0.553552,0.338996,-0.022892,-0.091791,-0.019451
1291,2422647954,-0.480755,0.601915,-0.544460,0.331871,-1.214491,-0.098082,-0.150058
1292,2422681288,-0.484392,0.611566,-0.534895,0.324407,-0.917752,0.514689,0.124990
1293,2422714622,-0.488187,0.621300,-0.524790,0.316634,-0.680088,0.285873,0.043530
1294,2422747956,-0.491014,0.631479,-0.514454,0.308997,-0.628594,-0.315686,0.028127
1295,2422781290,-0.493142,0.641990,-0.503606,0.301733,-0.865107,-0.016655,0.072330
1296,2422814624,-0.495146,0.652153,-0.492612,0.294725,-0.959672,0.307742,0.080329
1297,2422847958,-0.497171,0.661934,-0.481365,0.288018,-0.673801,0.294579,0.163399
1298,2422881292,-0.499906,0.671932,-0.468756,0.280841,-0.631377,0.093501,0.136768
1299,2422914626,-0.502509,0.681679,-0.455803,0.273942,-0.438401,-0.373475,0.062706
1300,2422947960,-0.504527,0.690752,-0.443291,0.267972,-0.136906,-0.585505,0.056972
1301,2422981294,-0.505776,0.698779,-0.431748,0.263618,-0.090495,-0.478347,0.280559
1302,2423014628,-0.506267,0.705408,-0.421810,0.261095,-0.188408,-0.514891,0.137397
1303,2423047962,-0.506565,0.711044,-0.412754,0.259701,-0.276396,-0.324104,0.112824
1304,2423081296,-0.507021,0.715593,-0.404334,0.259563,-0.279255,-0.204716,0.245974
1305,2423114630,-0.507619,0.719092,-0.396438,0.260900,-0.148430,0.113138,0.300782
1306,2423147964,-0.509011,0.721305,-0.389014,0.263243,0.024585,0.251027,0.270859
1307,2423181298,-0.511454,0.721637,-0.383005,0.266389,-0.174342,0.132772,0.293542
1308,2423214632,-0.514573,0.719586,-0.379223,0.271299,-0.100728,0.142872,0.059139
1309,2423247966,-0.517675,0.716009,-0.376857,0.278073,0.139647,0.188955,-0.050659
1310,2423281300,-0.520654,0.711838,-0.374984,0.285647,0.003592,0.021679,0.005414
1311,2423314634,-0.523113,0.707037,-0.374158,0.294039,0.158227,-0.003844,0.088170
1312,2423347968,-0.525267,0.701580,-0.374267,0.302996,0.026325,0.217226,0.226879
1313,2423381302,-0.529010,0.695738,-0.373563,0.310725,0.259904,0.208319,0.191640
1314,2423414636,-0.533933,0.689403,-0.371832,0.318406,0.750174,0.176171,0.353955
1315,2423447970,-0.539175,0.682856,-0.369873,0.325874,0.665263,0.129075,0.695642
1316,2423481304,-0.544695,0.676879,-0.367452,0.331848,0.291114,0.073804,0.592633
1317,2423514638,-0.550164,0.671411,-0.364850,0.336768,0.322102,-0.092035,0.306338
1318,2423547972,-0.554404,0.666550,-0.362657,0.341802,0.226160,-0.250052,0.094087
1319,2423581306,-0.557898,0.663522,-0.359699,0.345119,-0.155638,-0.355879,-0.003459
1320,2423614640,-0.560394,0.662238,-0.355962,0.347409,0.115529,-0.753561,0.216805
1321,2423647974,-0.561641,0.662298,-0.351893,0.349420,0.224020,-0.575510,0.024312
1322,2423681308,-0.561922,0.663428,-0.348118,0.350602,-0.040961,-0.349518,-0.142169
1323,2423714642,-0.561606,0.664707,-0.345174,0.351595,-0.038331,-0.188747,-0.213732
1324,2423747976,-0.560828,0.666259,-0.342758,0.352264,0.149430,-0.056518,-0.295623
1325,2423781310,-0.560126,0.668256,-0.340256,0.352024,0.128031,0.022967,-0.243232
1326,2423814644,-0.559815,0.670793,-0.337128,0.350700,-0.047650,-0.148991,-0.011456
1327,2423847978,-0.559879,0.673689,-0.333139,0.348853,0.052405,-0.310557,0.063892
1328,2423881312,-0.559982,0.676487,-0.329166,0.347041,0.285508,-0.250584,0.082998
1329,2423914646,-0.559795,0.678989,-0.325722,0.345703,0.182828,-0.151581,0.030465
1330,2423947980,-0.560241,0.681132,-0.322287,0.343980,-0.465249,0.202303,0.016571
1331,2423981314,-0.563281,0.683031,-0.316615,0.340500,0.094246,0.208897,0.317218
1332,2424014648,-0.566983,0.684629,-0.310445,0.336807,0.571477,0.404325,0.359240
1333,2424047982,-0.570144,0.685647,-0.304968,0.334394,0.607798,0.093618,0.811112
1334,2424081316,-0.575212,0.686662,-0.296756,0.331007,1.061546,0.516026,0.571817
1335,2424114650,-0.582002,0.687552,-0.286959,0.325887,0.480997,0.386486,-0.025861
1336,2424147984,-0.588216,0.687105,-0.279284,0.322320,0.356484,-0.346929,0.123156
1337,2424181318,-0.593418,0.685424,-0.274090,0.320821,0.350248,-1.042233,0.109128
1338,2424214652,-0.595914,0.683811,-0.272575,0.320926,-0.376845,-1.050063,-0.196787
1339,2424247986,-0.597380,0.681332,-0.273882,0.322358,-0.289692,-1.006158,-0.394819
1340,2424281320,-0.598252,0.677764,-0.277577,0.325091,0.117010,-1.067122,0.015913
1341,2424314654,-0.598517,0.673501,-0.283287,0.328518,0.191001,-1.158699,-0.049733
1342,2424347988,-0.597028,0.669156,-0.291380,0.332997,0.093715,-0.726310,-0.190233
1343,2424381322,-0.594782,0.664384,-0.300639,0.338300,0.222943,-0.270532,-0.087528
1344,2424414656,-0.593398,0.659198,-0.309232,0.343094,0.356162,0.005046,0.079646
1345,2424447990,-0.592102,0.653583,-0.317825,0.348187,0.618461,-0.685435,0.651958
1346,2424481324,-0.589831,0.647132,-0.327701,0.354871,0.572652,-0.868511,0.368597
1347,2424514658,-0.586208,0.640316,-0.338810,0.362718,0.353147,-0.576196,-0.009466
1348,2424547992,-0.582274,0.633425,-0.349832,0.370607,0.147305,-0.179597,-0.037548
1349,2424581326,-0.579154,0.626517,-0.360149,0.377295,-0.074415,0.020896,-0.403594
1350,2424614660,-0.574376,0.620552,-0.372226,0.382697,-0.462243,-0.531163,-0.297972
1351,2424647994,-0.566547,0.614913,-0.387145,0.388623,-0.287210,-0.629931,-0.039588
1352,2424681328,-0.557083,0.609907,-0.402678,0.394366,-0.106983,-0.230127,-0.398207
1353,2424714662,-0.545997,0.606994,-0.417882,0.398525,-0.002561,0.087366,-0.038702
1354,2424747996,-0.536426,0.605692,-0.431057,0.399471,-0.295873,0.183043,0.415739
1355,2424781330,-0.528951,0.604234,-0.442701,0.398912,0.326360,-0.149140,0.433281
1356,2424814664,-0.520841,0.601498,-0.454196,0.400790,1.564710,0.853257,0.430508
1357,2424847998,-0.514096,0.600059,-0.464013,0.400410,1.249330,0.612771,0.579853
1358,2424881332,-0.509700,0.597168,-0.473121,0.399692,1.439701,0.920859,1.131122
1359,2424914666,-0.505956,0.592276,-0.482996,0.399918,0.955863,0.590369,0.839574
1360,2424948000,-0.498568,0.585532,-0.496774,0.402244,-0.659842,-0.980389,-0.106283
1361,2424981334,-0.491336,0.579551,-0.509195,0.404267,-0.974188,-0.305589,-0.739563
1362,2425014668,-0.484791,0.575808,-0.519714,0.404130,-1.369865,0.143886,-0.336173
1363,2425048002,-0.478286,0.572997,-0.529679,0.402938,-0.653857,1.008506,0.178052
1364,2425081336,-0.473183,0.569893,-0.538446,0.401743,0.353045,0.581425,0.424865
1365,2425114670,-0.468738,0.565127,-0.547175,0.401892,0.678303,0.095969,0.589973
1366,2425148004,-0.464401,0.558802,-0.556293,0.403251,0.196598,-0.068883,0.190268
1367,2425181338,-0.459860,0.551560,-0.565653,0.405400,-0.545130,-0.021414,-0.006408
1368,2425214672,-0.455223,0.544393,-0.574654,0.407656,-0.721221,0.684993,0.021687
1369,2425248006,-0.451790,0.538761,-0.581864,0.408727,-0.506157,0.512641,0.045647
1370,2425281340,-0.448601,0.534163,-0.588031,0.409449,-0.125018,-0.093540,0.040654
1371,2425314674,-0.445233,0.529535,-0.594086,0.410394,-0.048003,0.105280,0.176562
1372,2425348008,-0.442281,0.524557,-0.599891,0.411533,-0.063975,0.562146,0.293581
1373,2425381342,-0.440133,0.519790,-0.604752,0.412768,0.056920,0.460768,0.195512
1374,2425414676,-0.439175,0.516034,-0.608189,0.413453,0.039337,0.519369,0.139280
1375,2425448010,-0.439371,0.513468,-0.610333,0.413279,-0.235497,0.423628,0.088074
1376,2425481344,-0.439564,0.511687,-0.611965,0.412869,-0.152780,0.229645,0.038279
1377,2425514678,-0.439995,0.511310,-0.612729,0.411742,-0.346182,0.269142,-0.019686
1378,2425548012,-0.440855,0.512553,-0.612472,0.409654,-0.320606,0.400445,0.115572
1379,2425581346,-0.442049,0.515062,-0.611370,0.406857,-0.149263,0.110478,0.127576
1380,2425614680,-0.443665,0.518466,-0.609561,0.403474,-0.086605,0.095711,0.107884
1381,2425648014,-0.445587,0.522285,-0.607282,0.399850,0.020816,0.035577,0.150141
1382,2425681348,-0.447880,0.526415,-0.604586,0.395939,0.168757,0.014039,0.126034
1383,2425714682,-0.450267,0.530637,-0.601643,0.392061,0.211347,-0.019534,0.057162