sep=,
DeviceTag:,23_Right
FirmwareVersion:,2.2.1
AppVersion:,2023.6.0
SyncStatus:,Synced
OutputRate:,30Hz
FilterProfile:,General
Measurement Mode:,Sensor fusion Mode - Complete(Quaternion)
StartTime: ,2026-05-27_15:27:05_938 AEST
© Movella Technologies B. V. 2005-2026

PacketCounter,SampleTimeFine,Quat_W,Quat_X,Quat_Y,Quat_Z,FreeAcc_X,FreeAcc_Y,FreeAcc_Z
1,199364119,0.507585,-0.547878,0.031060,0.664270,-0.039554,-0.724976,1.164190
2,199397453,0.498654,-0.539281,0.062697,0.675738,-0.313976,-0.702453,1.333776
3,199430787,0.488616,-0.523319,0.088730,0.692496,-0.483398,-0.877425,1.567161
4,199464121,0.478256,-0.501316,0.111960,0.712356,-0.321188,-0.852000,1.664524
5,199497455,0.468821,-0.473408,0.134325,0.733540,-0.158529,-0.989687,2.692921
6,199530789,0.459996,-0.438241,0.157039,0.756121,-1.058684,-1.307551,3.059177
7,199564123,0.450868,-0.398707,0.182860,0.777397,0.074318,-1.063143,3.279862
8,199597457,0.441491,-0.354922,0.210201,0.796846,0.409058,-0.861359,1.786870
9,199630791,0.430230,-0.316397,0.241275,0.810317,0.609229,0.345554,1.284383
10,199664125,0.421884,-0.276619,0.269422,0.820329,1.466045,0.169133,0.013132
11,199697459,0.418299,-0.235880,0.291582,0.827284,0.943193,-0.135945,-2.594310
12,199730793,0.417902,-0.203356,0.308030,0.830153,0.334309,0.117085,-3.818856
13,199764127,0.418438,-0.186328,0.319641,0.829490,0.851241,2.243821,-3.976701
14,199797461,0.417295,-0.184390,0.327506,0.827428,1.365926,3.587179,-4.445032
15,199830795,0.411290,-0.184882,0.332160,0.828469,2.638220,5.863341,-3.281795
16,199864129,0.402148,-0.176993,0.331561,0.834895,1.073847,4.885499,-4.242685
17,199897463,0.385968,-0.174086,0.333909,0.842175,1.373979,4.580791,-3.710890
18,199930797,0.367115,-0.171750,0.333049,0.851375,0.745945,3.633889,-4.164975
19,199964131,0.345047,-0.175156,0.329655,0.861175,0.325500,2.628492,-3.261356
20,199997465,0.322222,-0.181470,0.323647,0.870934,0.053820,2.085649,-1.847571
21,200030799,0.298749,-0.190834,0.317904,0.879375,-0.361245,0.539217,-0.031772
22,200064133,0.277124,-0.199470,0.312848,0.886326,-0.774158,-0.593461,2.472418
23,200097467,0.261605,-0.197224,0.307113,0.893521,-1.538771,-1.755073,4.143540
24,200130801,0.253455,-0.181621,0.303331,0.900443,-2.153280,-3.155150,4.700000
25,200164135,0.249010,-0.159141,0.304800,0.905427,-2.324659,-3.002560,4.680189
26,200197469,0.247543,-0.134681,0.312438,0.907193,-2.408484,-2.960496,3.675025
27,200230803,0.249850,-0.112288,0.324805,0.905263,-1.794735,-2.628815,2.398965
28,200264137,0.260515,-0.086426,0.336900,0.900663,-1.333818,-2.351163,1.645071
29,200297471,0.276726,-0.062940,0.345924,0.894333,-0.375162,-2.075311,0.720562
30,200330805,0.294671,-0.047312,0.351555,0.887340,0.442771,-1.552541,0.064291
31,200364139,0.315257,-0.035224,0.351876,0.880674,0.998502,0.343986,0.301401
32,200397473,0.334805,-0.024905,0.348250,0.875237,0.760848,1.206356,-0.846665
33,200430807,0.345780,-0.019065,0.346519,0.871797,0.792509,2.944453,-1.301377
34,200464141,0.348883,-0.011046,0.345584,0.871070,3.104978,3.810164,-1.151720
35,200497475,0.351866,0.005525,0.341277,0.871620,1.284646,1.909162,-3.515635
36,200530809,0.350143,0.021929,0.337462,0.873539,-0.071391,1.443021,-4.479122
37,200564143,0.347852,0.032585,0.333379,0.875687,-0.276435,1.121896,-4.811287
38,200597477,0.350427,0.038457,0.325026,0.877561,-0.724891,-0.365692,-5.393086
39,200630811,0.357430,0.036557,0.310661,0.880017,-0.162850,0.038247,-3.937152
40,200664145,0.366895,0.021891,0.288909,0.884010,-0.882733,-3.082759,-4.696373
41,200697479,0.373390,-0.014966,0.263032,0.889496,-1.255833,-2.982044,-6.073342
42,200730813,0.380629,-0.055044,0.229044,0.894239,-0.069084,1.671079,-2.673365
43,200764147,0.391621,-0.078313,0.185113,0.897923,-0.325159,3.425663,-0.187885
44,200797481,0.398263,-0.094416,0.143246,0.901102,-1.402015,4.276849,0.496856
45,200830815,0.397463,-0.114340,0.115418,0.903139,-1.231690,4.647157,3.883838
46,200864149,0.395677,-0.124714,0.095802,0.904843,-2.314324,2.820933,4.646932
47,200897483,0.390600,-0.144020,0.086378,0.905130,-3.108931,1.981867,3.138825
48,200930817,0.383233,-0.180483,0.089641,0.901419,-2.423385,2.038240,3.204527
49,200964151,0.376741,-0.219769,0.098620,0.894469,-2.052935,2.289699,2.378783
50,200997485,0.370935,-0.257076,0.112161,0.885309,-1.825621,2.248078,1.777385
51,201030819,0.368746,-0.284477,0.126133,0.875912,-1.156811,1.921814,2.383126
52,201064153,0.376522,-0.296342,0.135924,0.867162,-2.417402,1.009528,1.670431
53,201097487,0.392769,-0.304840,0.147165,0.855091,-2.816808,0.792668,1.362183
54,201130821,0.417949,-0.313526,0.163136,0.836922,-3.054081,-0.201641,1.827500
55,201164155,0.451916,-0.319419,0.182339,0.812729,-2.459814,0.547375,1.642493
56,201197489,0.492738,-0.319560,0.204028,0.783259,-1.568362,1.259473,1.348437
57,201230823,0.539233,-0.310720,0.226221,0.749358,-0.269944,1.912985,1.165271
58,201264157,0.593018,-0.287770,0.243922,0.711374,0.925195,1.562096,-0.160619
59,201297491,0.648132,-0.259239,0.259201,0.667509,2.720704,1.627922,0.576831
60,201330825,0.698653,-0.231387,0.273540,0.619317,3.917975,0.798366,0.322747
61,201364159,0.741989,-0.204223,0.285818,0.571039,4.169398,-1.078508,-0.428624
62,201397493,0.781097,-0.175752,0.288077,0.525397,3.555317,-1.658712,-0.626254
63,201430827,0.816372,-0.151229,0.280881,0.481461,1.903823,-1.633083,-1.672038
64,201464161,0.847143,-0.134623,0.269093,0.438003,0.482204,-2.145255,-3.756738
65,201497495,0.873681,-0.128537,0.254960,0.393940,-0.550788,-2.211444,-4.725167
66,201530829,0.900316,-0.134717,0.222985,0.348701,-0.609891,-1.800498,-2.708515
67,201564163,0.923077,-0.159894,0.174875,0.303007,0.719738,-2.314961,-0.502706
68,201597497,0.935979,-0.202529,0.134444,0.254720,2.062560,-1.490431,-1.925272
69,201630831,0.941214,-0.246754,0.094766,0.210431,4.463897,-1.473502,1.897703
70,201664165,0.941491,-0.282098,0.060454,0.174337,4.237687,-1.884953,3.587809
71,201697499,0.939231,-0.306195,0.043140,0.149204,1.619458,-2.650545,3.225184
72,201730833,0.936913,-0.320214,0.036409,0.135515,-0.388417,-3.456458,2.522414
73,201764167,0.935040,-0.327243,0.032274,0.132677,-0.971296,-3.754233,3.091090
74,201797501,0.933443,-0.329304,0.030768,0.139027,-1.296343,-2.767862,2.869375
75,201830835,0.931802,-0.327974,0.038470,0.150765,-0.821078,-2.511932,2.576270
76,201864169,0.930093,-0.322637,0.054967,0.166865,-0.557656,-3.323134,2.789207
77,201897503,0.926595,-0.315994,0.076380,0.189123,0.088037,-4.235655,1.458340
78,201930837,0.918492,-0.313540,0.096189,0.221009,1.684246,-4.928452,-0.495439
79,201964171,0.903750,-0.317682,0.107639,0.266008,2.728834,-4.654905,-0.345342
80,201997505,0.882880,-0.323930,0.105272,0.323331,3.101904,-3.818045,0.092065
81,202030839,0.856467,-0.328262,0.095385,0.386836,2.626132,-1.866476,0.665708
82,202064173,0.824959,-0.330992,0.090164,0.449211,1.764716,-0.885639,1.518394
83,202097507,0.790268,-0.332297,0.093980,0.506216,0.937474,-0.970483,2.491383
84,202130841,0.755066,-0.330085,0.102452,0.557186,0.113154,-0.171644,3.853017
85,202164175,0.719033,-0.323021,0.114116,0.604698,-0.585379,0.380304,4.375449
86,202197509,0.682111,-0.310838,0.127761,0.649472,-0.797633,0.472635,4.247908
87,202230843,0.645379,-0.291661,0.141858,0.691613,0.259431,0.944751,4.695227
88,202264177,0.608996,-0.266568,0.158862,0.729973,0.558346,1.315248,4.009974
89,202297511,0.571566,-0.237960,0.180214,0.764358,1.476314,1.920149,3.872507
90,202330845,0.533749,-0.201386,0.202557,0.795964,1.935429,2.684931,2.576461
91,202364179,0.495134,-0.160374,0.225187,0.823678,1.692572,3.717175,1.240870
92,202397513,0.456180,-0.117700,0.245999,0.847091,0.863765,4.178068,-0.084740
93,202430847,0.419015,-0.075319,0.264118,0.865464,0.334658,4.198331,-1.686996
94,202464181,0.385375,-0.034179,0.279776,0.878678,-0.404687,2.477720,-2.892403
95,202497515,0.354957,0.001744,0.291582,0.888265,-1.102477,0.473341,-3.203035
96,202530849,0.331789,0.033914,0.296663,0.894869,-1.165115,0.540235,-3.314509
97,202564183,0.317181,0.064972,0.294287,0.899223,-1.172072,0.292984,-3.930313
98,202597517,0.308278,0.087161,0.287960,0.902485,-0.977145,0.823059,-4.346274
99,202630851,0.305779,0.103908,0.276990,0.904993,0.001413,2.255130,-4.783848
100,202664185,0.305421,0.112140,0.264797,0.907776,-1.968583,1.625558,-4.995274
101,202697519,0.299834,0.104447,0.260340,0.911837,-1.235567,4.145747,-3.982461
102,202730853,0.292307,0.095000,0.259970,0.915412,-1.253322,4.262353,-3.781839
103,202764187,0.281080,0.082550,0.261560,0.919673,-1.118974,2.605324,-3.613878
104,202797521,0.265395,0.065845,0.261558,0.925662,-0.803604,3.164615,-2.480319
105,202830855,0.249789,0.053430,0.255982,0.932339,-1.630200,2.387239,-1.975789
106,202864189,0.232268,0.040518,0.246874,0.939944,-2.533720,1.138476,-0.913337
107,202897523,0.214281,0.028071,0.238038,0.946925,-1.259378,1.178557,0.092752
108,202930857,0.202780,0.022252,0.229120,0.951799,-1.719963,-0.930040,1.246907
109,202964191,0.197971,0.018003,0.220354,0.954966,-1.166100,-1.882859,3.541832
110,202997525,0.200805,0.017865,0.212094,0.956246,-1.436160,-2.910590,4.841769
111,203030859,0.209358,0.017859,0.207200,0.955485,-1.452127,-3.305145,5.866389
112,203064193,0.223182,0.020279,0.209018,0.951905,-1.375277,-3.336231,6.159140
113,203097527,0.239368,0.025064,0.218054,0.945812,-0.989042,-1.202560,6.784365
114,203130861,0.256848,0.031283,0.231642,0.937777,0.691732,-0.545605,5.264256
115,203164195,0.274438,0.037979,0.247554,0.928435,1.263018,-0.667330,3.013928
116,203197529,0.289584,0.040988,0.265776,0.918617,1.988312,-0.434636,0.926777
117,203230863,0.303317,0.048041,0.282147,0.908909,2.357728,0.350568,-0.314917
118,203264197,0.315695,0.058924,0.296013,0.899596,1.637136,-0.084647,-1.485531
119,203297531,0.324150,0.067633,0.308762,0.891657,1.507370,-0.451958,-2.279218
120,203330865,0.330966,0.077822,0.319116,0.884648,1.883068,0.980990,-3.107556
121,203364199,0.337131,0.088106,0.325350,0.879068,1.188545,0.696954,-3.996012
122,203397533,0.340195,0.090021,0.327912,0.876738,1.215457,0.049087,-4.777378
123,203430867,0.338235,0.080159,0.326247,0.879072,1.679182,0.569329,-5.697675
124,203464201,0.335229,0.068602,0.318331,0.884089,1.331706,1.246860,-4.716693
125,203497535,0.332146,0.058238,0.304603,0.890807,0.749633,1.215222,-3.878521
126,203530869,0.326935,0.044807,0.286477,0.899483,0.543116,1.678549,-3.020651
127,203564203,0.320405,0.030032,0.265510,0.908832,0.362480,2.038270,-1.842406
128,203597537,0.311804,0.013131,0.244042,0.918195,-0.243556,2.977573,0.074296
129,203630871,0.301636,-0.003408,0.225068,0.926489,-0.134122,2.995458,1.709816
130,203664205,0.293679,-0.002548,0.206475,0.933352,0.293484,3.816675,3.766681
131,203697539,0.288382,0.020854,0.190349,0.938190,-2.129393,0.408702,4.411880
132,203730873,0.279736,0.031645,0.185836,0.941405,-2.990352,-1.119288,5.900460
133,203764207,0.271476,0.027928,0.190528,0.943002,-2.260952,-1.387011,5.451840
134,203797541,0.265593,0.021165,0.200591,0.942766,-2.137863,-2.332564,4.492382
135,203830875,0.262005,0.018139,0.214977,0.940660,-1.472222,-1.429404,3.593036
136,203864209,0.262488,0.025639,0.231468,0.936428,-1.090768,-1.491505,2.382068
137,203897543,0.266936,0.038337,0.248655,0.930311,-0.625006,-1.367328,1.072199
138,203930877,0.276434,0.053317,0.264318,0.922448,-0.777136,-1.300802,0.544923
139,203964211,0.288985,0.064307,0.277394,0.914023,-0.599978,-0.820459,-0.442153
140,203997545,0.305004,0.072298,0.286841,0.905263,-0.457091,0.030738,-1.134524
141,204030879,0.325343,0.080618,0.293009,0.895450,-1.847500,0.460549,-1.636008
142,204064213,0.346948,0.081267,0.299628,0.885030,-1.662952,2.172046,-2.579797
143,204097547,0.366348,0.071570,0.300687,0.877660,1.274783,2.334255,-5.103384
144,204130881,0.385562,0.055578,0.302966,0.869768,-1.003585,3.480049,-4.117802
145,204164215,0.401529,0.037688,0.306771,0.862136,0.171196,4.871714,-3.588187
146,204197549,0.418604,0.022855,0.307854,0.854112,0.136857,4.199038,-3.493710
147,204230883,0.439008,0.009707,0.306112,0.844692,-0.374225,4.052077,-3.287869
148,204264217,0.464647,-0.002552,0.302585,0.832209,-0.224208,3.927650,-2.261389
149,204297551,0.496219,-0.016412,0.299946,0.814593,-1.021891,3.333979,-1.718544
150,204330885,0.531390,-0.038378,0.302728,0.790278,-0.158423,3.144214,-1.156338
151,204364219,0.572509,-0.063553,0.308904,0.756839,0.705709,3.239115,-1.042904
152,204397553,0.615616,-0.092231,0.320034,0.714227,1.812346,3.412494,-0.223975
153,204430887,0.658728,-0.120186,0.333440,0.663689,4.392006,2.340864,1.435214
154,204464221,0.705126,-0.132899,0.337129,0.609517,5.174518,0.896840,2.303701
155,204497555,0.748519,-0.140515,0.338089,0.552904,4.286391,-0.958414,2.559455
156,204530889,0.784230,-0.150273,0.341094,0.496073,3.782332,-2.781799,2.863499
157,204564223,0.815594,-0.156354,0.338206,0.442730,2.119048,-3.764173,2.623377
158,204597557,0.841784,-0.160341,0.331997,0.394335,0.532795,-3.983791,2.191874
159,204630891,0.863892,-0.163599,0.321452,0.351606,-0.778104,-4.032403,1.846961
160,204664225,0.883083,-0.168394,0.304363,0.314967,-1.772185,-3.619896,1.195250
161,204697559,0.901462,-0.181099,0.273161,0.282815,-1.000968,-2.962111,1.649962
162,204730893,0.916788,-0.201570,0.230004,0.256904,-2.571366,-4.476161,3.673100
163,204764227,0.926158,-0.226698,0.198388,0.226968,-1.492900,-1.368726,-3.264224
164,204797561,0.929531,-0.248097,0.188861,0.196934,1.847690,-0.867255,-2.077540
165,204830895,0.931563,-0.262648,0.180747,0.174844,0.287215,-1.865111,1.023803
166,204864229,0.935003,-0.271120,0.164292,0.159071,-0.017530,-1.573969,2.151549
167,204897563,0.936844,-0.277515,0.152672,0.148432,0.655326,-0.480088,1.687994
168,204930897,0.935635,-0.283675,0.155479,0.141332,0.359613,-0.742578,1.390582
169,204964231,0.933049,-0.289667,0.163256,0.137452,-0.249486,-1.431053,1.250585
170,204997565,0.930949,-0.294810,0.165828,0.137674,-0.529787,-1.295302,0.960732
171,205030899,0.929127,-0.299222,0.165115,0.141272,-0.726047,-1.259846,0.688184
172,205064233,0.927076,-0.302995,0.164291,0.147528,-0.926327,-1.557701,0.742137
173,205097567,0.924280,-0.306090,0.165992,0.156507,-0.990161,-1.848483,1.053828
174,205130901,0.920289,-0.308276,0.171508,0.169268,-1.060567,-2.438143,1.551913
175,205164235,0.915215,-0.309009,0.178142,0.187597,-0.715446,-2.874695,3.025563
176,205197569,0.908482,-0.307440,0.187412,0.212252,-0.346765,-2.980403,3.083190
177,205230903,0.899297,-0.302556,0.200859,0.243748,0.054053,-2.936586,2.711455
178,205264237,0.887215,-0.293506,0.216395,0.282681,0.211622,-2.595865,2.570410
179,205297571,0.871929,-0.280687,0.230988,0.328073,0.118852,-2.044336,2.089304
180,205330905,0.853221,-0.266334,0.243754,0.376427,0.349112,-1.388232,1.471539
181,205364239,0.829887,-0.253075,0.259419,0.424235,0.382466,-1.412630,0.821482
182,205397573,0.802734,-0.241091,0.275013,0.471056,0.846817,-1.771200,1.667069
183,205430907,0.774104,-0.227766,0.284527,0.517650,1.125584,-1.330940,1.685316
184,205464241,0.742840,-0.214118,0.291440,0.563416,1.780913,-1.158971,1.284280
185,205497575,0.708166,-0.199682,0.297268,0.608517,2.613193,-0.850874,1.552844
186,205530909,0.671013,-0.182258,0.299703,0.653248,2.667299,-0.417131,1.720803
187,205564243,0.631818,-0.162421,0.300385,0.695864,2.432063,0.283622,1.451271
188,205597577,0.591809,-0.140865,0.301271,0.734293,2.408829,0.365192,0.572723
189,205630911,0.553231,-0.118050,0.301530,0.767536,2.010678,1.165797,0.188483
190,205664245,0.517660,-0.094753,0.301001,0.795286,1.788133,1.786429,0.203579
191,205697579,0.485709,-0.072734,0.300834,0.817513,1.306649,1.602483,-0.671580
192,205730913,0.457554,-0.053053,0.300813,0.835089,0.568318,1.092547,-1.502043
193,205764247,0.434130,-0.036363,0.299267,0.848929,-0.045678,0.569434,-2.351464
194,205797581,0.416918,-0.023123,0.294623,0.859578,0.162728,0.715660,-2.169028
195,205830915,0.407222,-0.012417,0.285070,0.867631,-0.181939,0.850982,-2.141328
196,205864249,0.403776,-0.008194,0.272269,0.873384,-0.384181,1.497698,-2.799996
197,205897583,0.403724,-0.009797,0.261174,0.876773,-0.894367,3.382528,-2.659430
198,205930917,0.402256,-0.020450,0.257113,0.878463,-1.239036,6.161094,-1.929845
199,205964251,0.392184,-0.033826,0.248482,0.885063,1.526003,7.244746,-2.058670
200,205997585,0.379650,-0.039358,0.246068,0.890955,-0.559752,6.412550,-2.036096
201,206030919,0.355279,-0.047222,0.252254,0.898859,-0.281010,5.493779,-1.649239
202,206064253,0.325471,-0.052364,0.260371,0.907505,-0.445969,5.008000,-1.011535
203,206097587,0.294981,-0.050417,0.266150,0.916319,-1.972971,3.398900,-0.666451
204,206130921,0.261405,-0.049982,0.271394,0.924958,-1.878233,1.202794,-0.371999
205,206164255,0.225975,-0.053169,0.276686,0.932516,-1.898436,0.815439,0.452763
206,206197589,0.193389,-0.054475,0.280921,0.938482,-2.061272,-0.865940,1.007591
207,206230923,0.163734,-0.059530,0.286262,0.942196,-1.441971,-2.468560,1.627913
208,206264257,0.139706,-0.060715,0.290785,0.944602,-0.897389,-3.242240,2.425616
209,206297591,0.124636,-0.049441,0.294347,0.946263,-0.909625,-4.444295,2.694975
210,206330925,0.120152,-0.029724,0.299162,0.946158,-1.509639,-5.446111,3.384372
211,206364259,0.126039,-0.013605,0.303611,0.944342,-0.858019,-5.669918,2.732834
212,206397593,0.142539,-0.001375,0.306435,0.941175,-0.693257,-4.328431,1.383433
213,206430927,0.168707,0.009784,0.306005,0.936929,-0.780841,-3.969528,-0.179509
214,206464261,0.199507,0.014589,0.302247,0.932021,-0.730778,-2.721312,-0.803708
215,206497595,0.233853,0.014760,0.295266,0.926254,-1.013869,-0.542965,-1.810289
216,206530929,0.269185,0.013171,0.285779,0.919635,-1.231933,1.413082,-1.965174
217,206564263,0.302097,0.008568,0.275030,0.912718,-0.936048,2.699493,-2.428716
218,206597597,0.330976,0.001425,0.264053,0.905959,0.032722,3.660905,-2.908751
219,206630931,0.351688,-0.006960,0.250600,0.901942,2.159043,4.767965,-3.078501
220,206664265,0.366215,-0.013361,0.236348,0.899933,0.543057,4.525541,-3.555436
221,206697599,0.367871,-0.027729,0.225951,0.901599,1.263163,4.459463,-2.825497
222,206730933,0.361050,-0.042372,0.214419,0.906589,-0.255240,4.697117,-2.230949
223,206764267,0.346497,-0.063186,0.204590,0.913303,-0.741118,4.074352,-2.501578
224,206797601,0.328014,-0.095486,0.200410,0.918236,-0.494507,4.517330,-1.000104
225,206830935,0.315404,-0.122940,0.198106,0.919887,-1.565473,3.165932,0.693213
226,206864269,0.309867,-0.145702,0.198260,0.918411,-2.639024,2.335190,1.540614
227,206897603,0.312165,-0.167749,0.202543,0.912920,-2.789505,1.508794,2.686715
228,206930937,0.324725,-0.185126,0.209276,0.903614,-3.104023,1.325578,2.756386
229,206964271,0.346631,-0.197523,0.218602,0.890549,-2.962992,0.615605,2.821854
230,206997605,0.375890,-0.209012,0.230154,0.872973,-2.001705,0.644500,2.618083
231,207030939,0.410855,-0.219091,0.243943,0.850718,-0.761749,0.829015,2.203168
232,207064273,0.451939,-0.220648,0.256732,0.825340,1.394077,0.639614,2.354946
233,207097607,0.499647,-0.208946,0.264028,0.798133,2.133822,0.357301,1.183530
234,207130941,0.545361,-0.196948,0.271656,0.768133,2.170155,0.157409,0.146610
235,207164275,0.585945,-0.187803,0.280377,0.736763,3.247845,-0.403534,0.315096
236,207197609,0.626261,-0.172658,0.282433,0.705869,3.419282,-0.467240,-0.348245
237,207230943,0.664977,-0.157471,0.282950,0.673038,2.394793,-0.339041,-1.202228
238,207264277,0.699611,-0.147343,0.287745,0.637236,2.481419,-1.195916,-1.085901
239,207297611,0.731773,-0.138749,0.291821,0.600109,2.690272,-1.462121,-0.892112
240,207330945,0.761640,-0.130356,0.292726,0.563254,2.378374,-1.294777,-0.742118
241,207364279,0.786269,-0.126772,0.297537,0.526511,1.622814,-1.558164,-0.899130
242,207397613,0.807542,-0.125481,0.302618,0.490494,1.760579,-2.552884,-0.069146
243,207430947,0.828266,-0.123551,0.301356,0.455991,0.676853,-2.065418,-0.030673
244,207464281,0.846174,-0.124826,0.299694,0.422640,-0.062683,-1.635002,-0.292560
245,207497615,0.861299,-0.129815,0.298480,0.390198,-0.650401,-1.729257,-0.655427
246,207530949,0.876609,-0.136345,0.290977,0.358233,-1.864284,-1.217560,-1.702354
247,207564283,0.892376,-0.147170,0.275904,0.325446,-2.261080,-1.052645,-2.854238
248,207597617,0.909909,-0.167375,0.242121,0.292336,-1.475938,-0.428039,0.860964
249,207630951,0.922369,-0.201489,0.203343,0.259465,-1.589954,-1.741604,0.764113
250,207664285,0.930953,-0.235671,0.162055,0.227059,1.462448,0.729631,-2.304690
251,207697619,0.932009,-0.266797,0.143758,0.198857,2.242789,-1.309751,3.020910
252,207730953,0.932830,-0.286602,0.126436,0.178139,0.829739,-2.443560,5.184224
253,207764287,0.933637,-0.297349,0.113093,0.164763,0.359614,-1.418343,4.227787
254,207797621,0.933102,-0.302605,0.114393,0.157155,-0.124979,-1.768368,3.298219
255,207830955,0.931795,-0.304422,0.121367,0.156165,-1.182457,-2.015225,2.097688
256,207864289,0.930350,-0.304758,0.124647,0.161455,-1.422681,-1.653691,1.422431
257,207897623,0.928833,-0.304294,0.125348,0.170278,-1.273262,-1.696400,0.988466
258,207930957,0.926948,-0.302939,0.126770,0.181541,-0.911505,-1.936753,0.836847
259,207964291,0.923911,-0.300663,0.132917,0.195846,-0.554711,-2.517170,1.252281
260,207997625,0.919447,-0.297006,0.142678,0.214662,-0.376524,-3.168456,1.320007
261,208030959,0.913149,-0.292539,0.151170,0.240332,-0.084752,-3.542980,0.951851
262,208064293,0.904600,-0.287969,0.154946,0.273489,0.453036,-3.674265,0.511832
263,208097627,0.892715,-0.284404,0.154209,0.313731,0.759417,-3.030365,0.762918
264,208130961,0.876995,-0.281329,0.152519,0.358475,0.608788,-2.138248,1.134543
265,208164295,0.857621,-0.278088,0.154213,0.404233,0.215170,-1.967587,1.871621
266,208197629,0.835275,-0.272577,0.159765,0.450028,0.014516,-1.941941,3.063712
267,208230963,0.810156,-0.263105,0.168577,0.496023,-0.022434,-2.239321,3.445820
268,208264297,0.782286,-0.248382,0.178207,0.542779,0.967593,-1.966535,4.029477
269,208297631,0.751092,-0.228769,0.188502,0.589937,2.137619,-1.264318,3.587089
270,208330965,0.716036,-0.205320,0.197881,0.637190,2.908092,-0.718084,2.921793
271,208364299,0.678315,-0.177949,0.203551,0.683244,3.206885,0.520156,2.024031
272,208397633,0.638760,-0.147832,0.207501,0.726022,2.781671,1.383106,1.013440
273,208430967,0.598884,-0.116668,0.211877,0.763458,2.033383,1.603855,0.152779
274,208464301,0.561351,-0.085187,0.216617,0.794190,0.876503,1.363859,-0.683294
275,208497635,0.528701,-0.054827,0.221282,0.817640,0.336075,1.013997,-1.149005
276,208530969,0.503136,-0.025496,0.224289,0.834225,-0.006342,0.410348,-1.609322
277,208564303,0.485930,-0.002162,0.226913,0.844044,-0.821382,-0.812363,-3.054601
278,208597637,0.478527,0.017794,0.228255,0.847719,-0.703229,0.626171,-2.436542
279,208630971,0.478885,0.040217,0.225050,0.847606,-0.617655,2.224749,-2.183915
280,208664305,0.480120,0.044136,0.220309,0.847958,0.738828,3.772543,-2.926161
281,208697639,0.482025,0.032870,0.212168,0.849464,0.814018,4.166012,-4.409660
282,208730973,0.477497,0.020521,0.206512,0.853792,3.859550,6.917083,-2.656117
283,208764307,0.464828,0.017637,0.200687,0.862196,2.407395,7.230278,-1.898665
284,208797641,0.440223,0.016475,0.200762,0.875020,1.696205,6.260190,-1.987282
285,208830975,0.408135,0.019778,0.204671,0.889481,0.378914,5.406759,-1.201259
286,208864309,0.370543,0.023154,0.210934,0.904268,-1.348924,4.312447,-0.227246
287,208897643,0.330433,0.025557,0.218097,0.917947,-2.167585,3.426002,0.137231
288,208930977,0.291273,0.028880,0.227014,0.928883,-2.957771,1.040255,0.487230
289,208964311,0.253315,0.033327,0.236997,0.937329,-2.827293,-0.872959,2.148931
290,208997645,0.220556,0.041099,0.245998,0.942965,-3.307308,-2.589372,2.952495
291,209030979,0.195145,0.049621,0.255136,0.945724,-2.701695,-4.024712,3.703246
292,209064313,0.178868,0.060079,0.264994,0.945625,-1.589986,-4.908434,3.593835
293,209097647,0.171280,0.072824,0.276113,0.942949,-1.051055,-4.470691,2.949103
294,209130981,0.171216,0.088242,0.286067,0.938667,-0.490942,-3.676479,1.979459
295,209164315,0.177832,0.102332,0.294282,0.933453,-0.187513,-4.371907,0.687470
296,209197649,0.190081,0.107997,0.300105,0.928534,0.548418,-3.107619,-0.135003
297,209230983,0.211463,0.114821,0.300375,0.922988,-0.023472,-2.619916,-1.270470
298,209264317,0.237679,0.115044,0.295940,0.918001,-1.127590,-2.607970,-2.942437
299,209297651,0.265072,0.108198,0.286881,0.914200,-0.397731,0.347512,-3.072247
300,209330985,0.295350,0.101746,0.274743,0.909376,-2.839099,0.963990,-3.309741
301,209364319,0.318075,0.081852,0.259648,0.908154,-0.302261,4.026454,-6.157141
302,209397653,0.337216,0.071871,0.238448,0.907907,0.344029,6.662586,-4.402771
303,209430987,0.352046,0.073314,0.217450,0.907434,-2.252775,4.488066,-4.371838
304,209464321,0.358045,0.061903,0.203077,0.909266,-0.922000,4.631126,-3.985601
305,209497655,0.361901,0.047234,0.188853,0.911682,-0.828966,4.382417,-4.311897
306,209530989,0.362915,0.021845,0.175886,0.914829,-0.632627,4.061554,-3.487602
307,209564323,0.359970,-0.016252,0.164130,0.918287,0.355161,4.052917,-1.832114
308,209597657,0.359219,-0.056110,0.149959,0.919434,0.792426,5.135526,0.102955
309,209630991,0.363628,-0.091392,0.135616,0.917095,-0.754486,3.620347,2.043733
310,209664325,0.372240,-0.128447,0.125991,0.910548,-0.662749,2.937380,3.644852
311,209697659,0.388048,-0.161209,0.120594,0.899400,-0.683084,1.476401,4.756121
312,209730993,0.409765,-0.187459,0.118421,0.884851,-1.421931,1.177152,4.734937
313,209764327,0.435826,-0.211511,0.121651,0.866344,-0.780074,-0.431997,4.622849
314,209797661,0.467976,-0.227918,0.125515,0.844589,-0.027258,-0.900959,4.431931
315,209830995,0.504375,-0.235716,0.130067,0.820463,0.431315,-0.451266,3.303967
316,209864329,0.541202,-0.240118,0.139431,0.793748,0.912057,-0.604661,2.393187
317,209897663,0.578091,-0.240599,0.152457,0.764665,1.094484,-1.077357,1.343363
318,209930997,0.616802,-0.234579,0.164942,0.733045,1.240682,-1.095917,0.800460
319,209964331,0.657023,-0.223220,0.175650,0.698335,0.982573,-1.195186,-0.264823
320,209997665,0.696857,-0.211119,0.186950,0.659471,1.308890,-1.237869,-0.579795
321,210030999,0.735199,-0.197457,0.196152,0.618102,1.690221,-1.402349,-0.193392
322,210064333,0.769742,-0.183341,0.202609,0.576945,2.057427,-1.559206,0.241156
323,210097667,0.798992,-0.169806,0.207499,0.538289,1.808840,-1.818321,-0.244210
324,210131001,0.823556,-0.157614,0.211502,0.502208,0.878876,-1.855257,-1.245192
325,210164335,0.843988,-0.150190,0.215434,0.467705,0.242224,-1.582039,-1.548465
326,210197669,0.860845,-0.148880,0.219282,0.434428,0.392729,-1.721783,-1.472172
327,210231003,0.874905,-0.152471,0.221546,0.402794,-0.230580,-1.710101,-2.339897
328,210264337,0.887340,-0.160527,0.219435,0.372477,-0.600407,-1.447204,-2.644460
329,210297671,0.899092,-0.173453,0.209879,0.342827,-0.672525,-1.126206,-2.099195
330,210331005,0.909730,-0.191955,0.193586,0.313210,-0.454090,-1.297422,-2.931104
331,210364339,0.918730,-0.214258,0.168884,0.285552,0.399299,0.227927,0.189553
332,210397673,0.925449,-0.242780,0.127465,0.261509,-1.177772,-3.150439,3.979316
333,210431007,0.928562,-0.275847,0.082645,0.234272,-0.375632,0.469217,1.118091
334,210464341,0.927988,-0.304878,0.055746,0.206914,2.163541,1.274493,1.114332
335,210497675,0.926403,-0.326265,0.046840,0.182120,1.045649,-1.242100,3.570223
336,210531009,0.925825,-0.337881,0.038963,0.164918,0.349145,-1.943828,3.898562
337,210564343,0.925161,-0.343872,0.036944,0.156513,0.224040,-1.789937,3.351445
338,210597677,0.924133,-0.346458,0.041477,0.155745,-0.132372,-2.002445,2.213108
339,210631011,0.922771,-0.347097,0.044895,0.161350,-0.413305,-1.995874,1.333695
340,210664345,0.921354,-0.346199,0.044847,0.171096,-0.385456,-1.426054,0.850836
341,210697679,0.919609,-0.344518,0.047750,0.182701,-0.119350,-1.568514,0.781336
342,210731013,0.917055,-0.342759,0.055851,0.196062,-0.102406,-1.916190,0.894171
343,210764347,0.913306,-0.341158,0.068162,0.211822,-0.252689,-2.181799,1.032151
344,210797681,0.908135,-0.338953,0.084425,0.230885,-0.088439,-2.503713,1.239891
345,210831015,0.901568,-0.334967,0.102053,0.254146,-0.168365,-2.735282,1.590043
346,210864349,0.893304,-0.329353,0.118423,0.282034,-0.172461,-2.798079,2.068681
347,210897683,0.882622,-0.322154,0.134879,0.314700,-0.295542,-2.465102,2.012371
348,210931017,0.868957,-0.313244,0.151165,0.352098,-0.242844,-2.527941,2.422135
349,210964351,0.852799,-0.301285,0.163992,0.393827,-0.088814,-2.126118,1.997559
350,210997685,0.833395,-0.287730,0.175910,0.437896,-0.005570,-2.061668,1.811861
351,211031019,0.810594,-0.272837,0.187317,0.483159,0.512772,-1.722373,2.088217
352,211064353,0.784153,-0.256382,0.199599,0.528739,0.767354,-2.011372,1.953181
353,211097687,0.754996,-0.236591,0.209372,0.574632,1.426755,-1.545811,1.647820
354,211131021,0.723151,-0.214105,0.217201,0.619732,1.638118,-1.213838,1.502966
355,211164355,0.689401,-0.190094,0.223432,0.662345,1.774995,-0.506420,1.424363
356,211197689,0.654643,-0.165494,0.229850,0.700896,1.625749,-0.038768,1.055780
357,211231023,0.620342,-0.139456,0.236402,0.734762,1.298326,0.129136,1.022975
358,211264357,0.588722,-0.112368,0.242550,0.762878,0.779723,0.399136,0.929520
359,211297691,0.561481,-0.085919,0.249135,0.784424,0.415209,0.479473,0.047294
360,211331025,0.540328,-0.062109,0.255979,0.799184,0.448734,0.049248,-1.470556
361,211364359,0.526637,-0.041376,0.259552,0.808460,0.379396,0.949074,-1.795637
362,211397693,0.521026,-0.024591,0.257218,0.813510,0.212202,1.866289,-2.879748
363,211431027,0.520122,-0.014368,0.252096,0.815933,0.680102,4.711378,-2.567157
364,211464361,0.518491,-0.015891,0.247483,0.818352,1.885945,6.494261,-2.781239
365,211497695,0.510705,-0.021315,0.240932,0.825052,2.119091,6.111968,-3.054558
366,211531029,0.494157,-0.023659,0.240607,0.835099,2.484882,6.041172,-2.221538
367,211564363,0.472159,-0.018146,0.242164,0.847423,0.901193,5.700809,-2.369865
368,211597697,0.444793,-0.013159,0.248015,0.860527,0.011493,5.369369,-2.245716
369,211631031,0.412595,-0.012465,0.257668,0.873642,-0.442692,4.138649,-1.726750
370,211664365,0.376641,-0.012235,0.266999,0.886981,-0.870266,2.553888,-0.607565
371,211697699,0.336770,-0.012766,0.275489,0.900312,-0.683701,0.502523,0.964212
372,211731033,0.297329,-0.011187,0.280219,0.912677,-1.210402,-0.726829,1.928647
373,211764367,0.262414,-0.004885,0.280883,0.923175,-2.053963,-1.550855,2.399574
374,211797701,0.233311,0.006331,0.280593,0.931035,-2.325860,-1.981192,2.418585
375,211831035,0.211370,0.021057,0.282115,0.935587,-2.795831,-2.760340,2.419899
376,211864369,0.195942,0.034410,0.286549,0.937201,-2.384214,-3.092646,1.993451
377,211897703,0.186613,0.046033,0.293383,0.936491,-1.323356,-3.891484,1.591548
378,211931037,0.184360,0.057718,0.300756,0.933948,-0.619397,-3.848324,0.884957
379,211964371,0.189669,0.068700,0.305651,0.930546,-0.012020,-4.090890,0.353765
380,211997705,0.201990,0.080960,0.304380,0.927378,0.397059,-4.239592,0.330731
381,212031039,0.225830,0.094779,0.294930,0.923616,-0.055425,-4.656524,-0.666333
382,212064373,0.257312,0.099487,0.279809,0.919583,-1.683409,-5.112497,-1.734494
383,212097707,0.295262,0.094324,0.259723,0.914603,-1.796097,-2.654630,-2.566037
384,212131041,0.339118,0.087223,0.233761,0.907072,-2.392989,1.586740,-2.679891
385,212164375,0.380668,0.075763,0.208215,0.897792,-2.474110,4.338996,-2.873166
386,212197709,0.414729,0.062705,0.189477,0.887806,-0.901758,5.599561,-2.259150
387,212231043,0.440482,0.054403,0.178025,0.878268,0.051652,6.539303,-1.355193
388,212264377,0.454690,0.046396,0.172535,0.872564,1.157478,5.992361,-2.118702
389,212297711,0.456416,0.040324,0.168448,0.872764,1.141253,5.101967,-1.419917
390,212331045,0.452574,0.039214,0.166229,0.875237,-0.204725,3.786814,-1.708126
391,212364379,0.443940,0.028516,0.168039,0.879716,-0.358689,4.436094,-2.084729
392,212397713,0.431011,0.010427,0.172301,0.885701,-0.216862,4.179946,-2.222947
393,212431047,0.414945,-0.010475,0.176818,0.892456,0.081827,4.591001,-1.060857
394,212464381,0.399338,-0.028844,0.179728,0.898570,-1.068338,3.964015,-0.954518
395,212497715,0.386365,-0.047353,0.183302,0.902725,-1.667599,2.327633,0.002307
396,212531049,0.379585,-0.067678,0.185942,0.903766,-1.573998,2.041834,0.503570
397,212564383,0.382584,-0.086898,0.186535,0.900731,-1.942802,0.386321,1.093595
398,212597717,0.397620,-0.105603,0.184912,0.892517,-1.820777,-0.625732,1.592746
399,212631051,0.424472,-0.123347,0.180932,0.878582,-1.583141,-0.933299,1.912530
400,212664385,0.460105,-0.137420,0.173671,0.859820,-0.877335,-0.521565,2.741348
401,212697719,0.500897,-0.149156,0.165693,0.836321,-0.000366,0.270051,2.343283
402,212731053,0.542244,-0.160588,0.161206,0.808844,1.257110,0.536900,1.663972
403,212764387,0.580942,-0.174860,0.163005,0.778070,2.146712,0.223937,1.599984
404,212797721,0.619068,-0.183950,0.164549,0.745569,2.722889,-0.183437,1.575589
405,212831055,0.657023,-0.188647,0.166113,0.710754,2.272241,-0.342486,0.761836
406,212864389,0.693464,-0.193502,0.171055,0.672635,2.285813,-1.260637,0.769028
407,212897723,0.727616,-0.196837,0.175619,0.633262,2.269394,-1.801541,0.690322
408,212931057,0.758363,-0.199460,0.180686,0.593705,1.641157,-1.866673,0.918362
409,212964391,0.784201,-0.203641,0.191655,0.553949,1.014843,-2.203277,0.598025
410,212997725,0.807286,-0.204271,0.202216,0.515465,0.633209,-2.600309,0.685529
411,213031059,0.829147,-0.200429,0.209208,0.478130,-0.398022,-1.759254,0.277350
412,213064393,0.848782,-0.195327,0.217068,0.440829,-0.546451,-1.562671,0.281721
413,213097727,0.867459,-0.187869,0.223364,0.402940,-0.888943,-1.182315,-0.139175
414,213131061,0.885678,-0.179028,0.226713,0.363535,-1.578085,-0.293360,-1.190546
415,213164395,0.903353,-0.171373,0.226417,0.321485,-1.180105,0.079796,-2.643568
416,213197729,0.921285,-0.171207,0.214965,0.275216,-1.002162,0.781365,-1.408816
417,213231063,0.934795,-0.187367,0.197523,0.228184,-0.980310,-0.282353,-1.196033
418,213264397,0.941457,-0.217660,0.186711,0.177355,0.781042,-1.442636,-3.013467
419,213297731,0.945170,-0.247620,0.168420,0.130405,2.973714,-2.335701,0.672852
420,213331065,0.945291,-0.273938,0.149225,0.095644,2.918797,-2.477657,2.735335
421,213364399,0.942642,-0.293505,0.140789,0.074107,1.354014,-3.325766,4.444767
422,213397733,0.939954,-0.304240,0.140581,0.064761,0.938908,-3.163599,4.062652
423,213431067,0.938429,-0.306916,0.145550,0.063254,0.286878,-2.727813,2.703055
424,213464401,0.938241,-0.304830,0.149833,0.066065,-0.655267,-2.118903,1.526037
425,213497735,0.938306,-0.301785,0.153202,0.071201,-1.063240,-1.519116,1.034185
426,213531069,0.937305,-0.299435,0.160194,0.078543,-1.296344,-1.835456,1.142427
427,213564403,0.934887,-0.297679,0.171390,0.089617,-1.425434,-2.344708,1.708339
428,213597737,0.930760,-0.296153,0.186201,0.106498,-1.564627,-2.961548,1.772082
429,213631071,0.925094,-0.295160,0.199738,0.131226,-1.529964,-3.817980,1.699147
430,213664405,0.918002,-0.294933,0.207565,0.165036,-0.941640,-3.621844,1.089701
431,213697739,0.908530,-0.295947,0.210697,0.206466,-0.396507,-3.471766,0.154039
432,213731073,0.896301,-0.298539,0.207479,0.253975,0.092572,-2.611627,0.633014
433,213764407,0.881941,-0.300709,0.199180,0.303503,0.353097,-2.329595,0.625196
434,213797741,0.865178,-0.301455,0.191178,0.352243,0.644250,-1.997482,0.698407
435,213831075,0.845704,-0.300265,0.187973,0.399155,0.324841,-2.041201,1.568182
436,213864409,0.823162,-0.297417,0.188050,0.445665,0.596741,-2.596896,3.081107
437,213897743,0.796395,-0.292338,0.191117,0.493761,0.578244,-2.341324,3.518621
438,213931077,0.764428,-0.283897,0.198211,0.543872,1.120658,-2.583186,4.874557
439,213964411,0.729252,-0.266764,0.203266,0.596443,1.499079,-1.683097,5.141219
440,213997745,0.691682,-0.239725,0.205946,0.649405,1.869586,-0.799767,4.165606
441,214031079,0.652956,-0.205359,0.208954,0.698460,2.361445,0.504955,3.498769
442,214064413,0.614233,-0.167358,0.215116,0.740585,2.332310,1.322594,1.879921
443,214097747,0.576814,-0.128788,0.224477,0.774817,2.606160,1.750532,0.820354
444,214131081,0.545501,-0.086095,0.231057,0.801037,1.201730,2.377729,-0.870223
445,214164415,0.523710,-0.042708,0.237031,0.817161,-1.343267,0.037235,-3.826663
446,214197749,0.515975,0.001424,0.237993,0.822897,-1.268289,0.131279,-4.642781
447,214231083,0.520153,0.041505,0.232330,0.820837,-1.683911,2.769287,-4.093159
448,214264417,0.528609,0.038407,0.233514,0.815231,0.906660,4.933263,-5.401294
449,214297751,0.538832,0.016162,0.227431,0.810991,5.013391,7.433162,-4.614460
450,214331085,0.539239,-0.002597,0.222559,0.812228,4.381341,8.240546,-4.335643
451,214364419,0.518871,-0.024770,0.229655,0.823074,4.991210,7.482324,-3.525570
452,214397753,0.486057,-0.035943,0.236276,0.840632,2.664814,5.187315,-3.835773
453,214431087,0.442327,-0.044110,0.242521,0.862332,1.311382,5.431450,-2.270055
454,214464421,0.392139,-0.050385,0.245682,0.885077,-0.379886,4.559056,-0.872192
455,214497755,0.338187,-0.054080,0.245044,0.907023,-1.385973,3.205780,0.372818
456,214531089,0.285267,-0.051669,0.241742,0.926038,-2.752852,1.429024,1.703610
457,214564423,0.235647,-0.046280,0.238946,0.940886,-3.803897,-0.740073,2.370774
458,214597757,0.192782,-0.033476,0.237505,0.951493,-4.784890,-2.370424,2.825809
459,214631091,0.159651,-0.010362,0.239497,0.957642,-4.741178,-3.440702,2.888049
460,214664425,0.140130,0.021567,0.247478,0.958481,-4.612431,-4.548805,3.082660
461,214697759,0.132221,0.047235,0.260793,0.955147,-4.011337,-5.123465,3.701298
462,214731093,0.133166,0.058918,0.274258,0.950584,-2.212212,-4.584708,2.922852
463,214764427,0.142169,0.060548,0.285177,0.945954,-1.220960,-3.511363,1.537466
464,214797761,0.158601,0.059384,0.293733,0.940783,-0.916808,-2.692239,0.262939
465,214831095,0.179740,0.057956,0.298767,0.935471,-0.384280,-2.005627,-0.372427
466,214864429,0.206615,0.060739,0.299233,0.929577,-0.441536,-1.105862,-1.017159
467,214897763,0.238560,0.066448,0.294994,0.922868,-0.815515,-1.324164,-1.890637
468,214931097,0.272340,0.068284,0.287978,0.915570,-1.122766,-0.418190,-2.600211
469,214964431,0.309943,0.069665,0.275727,0.907243,-1.009479,0.432408,-2.962604
470,214997765,0.349447,0.072415,0.257886,0.897870,-2.444022,3.747171,-2.009259
471,215031099,0.380646,0.048810,0.240188,0.891666,-2.289871,3.178413,-5.690372
472,215064433,0.399314,0.011437,0.221736,0.889541,3.487487,7.858671,-5.377964
473,215097767,0.416043,0.005191,0.201071,0.886839,0.671373,5.979994,-4.049977
474,215131101,0.421645,-0.007561,0.185790,0.887510,-0.364397,5.523825,-3.566790
475,215164435,0.417812,-0.033073,0.179049,0.890120,0.551796,5.009857,-3.295014
476,215197769,0.411332,-0.063750,0.176995,0.891879,1.045596,5.214901,-1.723179
477,215231103,0.406029,-0.094309,0.175962,0.891805,-0.861409,4.493467,-0.440789
478,215264437,0.401426,-0.136876,0.181812,0.887186,-0.386263,3.173171,0.745957
479,215297771,0.407210,-0.172381,0.187898,0.877036,-0.068365,2.788692,2.488661
480,215331105,0.426096,-0.195756,0.192028,0.862137,-2.430920,0.800301,2.337599
481,215364439,0.453662,-0.225385,0.200807,0.838511,-1.993999,1.162415,2.229314
482,215397773,0.492211,-0.251392,0.210120,0.806481,-1.099626,1.428896,2.943365
483,215431107,0.540771,-0.269007,0.218737,0.766412,-0.763472,0.997802,2.815711
484,215464441,0.589258,-0.291095,0.236789,0.715543,1.908346,0.485809,3.414082
485,215497775,0.636957,-0.301080,0.253925,0.662715,4.315208,-1.205960,4.437213
486,215531109,0.685033,-0.292242,0.259599,0.614789,3.174702,-2.329806,2.511522
487,215564443,0.727950,-0.280027,0.263027,0.567912,3.321935,-2.869856,2.229418
488,215597777,0.766829,-0.262557,0.261187,0.524263,2.630420,-3.791400,1.483251
489,215631111,0.801240,-0.241743,0.254717,0.484485,1.194805,-3.323193,0.335652
490,215664445,0.830451,-0.222186,0.248796,0.446225,0.505743,-3.033240,-0.165202
491,215697779,0.856031,-0.204114,0.243200,0.407963,0.035243,-2.117475,-1.114252
492,215731113,0.878524,-0.189155,0.238547,0.368162,-0.002599,-1.531251,-1.429363
493,215764447,0.899141,-0.177784,0.231221,0.326357,-0.201120,-1.365683,-2.122679
494,215797781,0.916913,-0.172217,0.221069,0.284206,-0.994273,-1.442748,-3.559969
495,215831115,0.932411,-0.175381,0.202608,0.242556,-1.139693,-0.794983,-3.907392
496,215864449,0.944167,-0.197728,0.166206,0.204600,-1.124577,-3.695767,3.466101
497,215897783,0.950061,-0.233651,0.119618,0.168864,0.006710,-3.072592,0.112350
498,215931117,0.949438,-0.266910,0.083180,0.142969,2.594002,-0.684000,0.194632
499,215964451,0.946051,-0.291129,0.068766,0.124640,1.759455,-2.532666,3.131050
500,215997785,0.944367,-0.303025,0.060514,0.112770,0.100502,-2.492685,3.334790
501,216031119,0.943613,-0.307939,0.059981,0.105842,-0.150176,-1.772678,2.372604
502,216064453,0.942487,-0.310525,0.070470,0.101784,-0.487571,-1.779275,1.502025
503,216097787,0.940647,-0.313336,0.081575,0.101890,-0.896370,-1.373277,1.225414
504,216131121,0.938573,-0.316686,0.086960,0.106122,-1.158843,-1.204523,0.791113
505,216164455,0.936355,-0.320325,0.088122,0.113570,-1.102254,-1.120142,0.916203
506,216197789,0.933636,-0.324199,0.089916,0.123156,-1.061207,-1.466451,0.617164
507,216231123,0.929917,-0.328689,0.093663,0.135935,-0.919812,-2.157475,0.843005
508,216264457,0.924927,-0.332940,0.100027,0.153909,-0.725903,-2.768453,0.864312
509,216297791,0.918009,-0.337498,0.108941,0.177537,-0.397669,-3.443699,0.688018
510,216331125,0.908915,-0.342583,0.117509,0.206722,-0.032317,-3.417058,0.938767
511,216364459,0.897896,-0.345838,0.123141,0.242995,0.123323,-3.363188,1.551106
512,216397793,0.884689,-0.345972,0.128329,0.284945,-0.001908,-3.193565,1.961658
513,216431127,0.867895,-0.345098,0.137047,0.330024,-0.120156,-2.829045,2.431179
514,216464461,0.846791,-0.344479,0.149175,0.376907,0.120898,-2.779102,2.060965
515,216497795,0.822230,-0.342510,0.158674,0.426006,0.517131,-3.029391,1.704897
516,216531129,0.794993,-0.337450,0.161468,0.477572,0.630303,-3.520361,1.578006
517,216564463,0.763478,-0.331376,0.161635,0.530281,0.816829,-3.166564,2.389073
518,216597797,0.727989,-0.323160,0.162929,0.582311,1.856520,-2.344770,3.380348
519,216631131,0.690573,-0.309342,0.167417,0.631997,2.084165,-1.749357,4.728329
520,216664465,0.653425,-0.285820,0.170867,0.679838,2.420874,0.110949,5.461877
521,216697799,0.616784,-0.252951,0.174410,0.724712,2.156456,1.653216,4.536081
522,216731133,0.581273,-0.215332,0.180800,0.763608,1.872248,3.046620,3.301651
523,216764467,0.549345,-0.176470,0.189796,0.794411,0.479588,3.357932,0.424279
524,216797801,0.523175,-0.139022,0.200631,0.816542,0.331490,2.840258,-1.888124
525,216831135,0.504990,-0.102197,0.209644,0.831037,0.233740,2.795172,-2.715215
526,216864469,0.497162,-0.063703,0.212194,0.838915,-0.259748,3.379453,-3.817943
527,216897803,0.495092,-0.031858,0.214297,0.841415,-1.645580,4.829152,-4.829070
528,216931137,0.489576,-0.024188,0.223288,0.842559,1.129202,5.944667,-3.605191
529,216964471,0.483012,-0.026018,0.229474,0.844628,0.334241,5.159877,-4.452483
530,216997805,0.467591,-0.036024,0.239266,0.850204,1.577676,4.715673,-5.407348
531,217031139,0.441330,-0.051756,0.252598,0.859521,1.541710,3.776691,-4.708029
532,217064473,0.407737,-0.068938,0.261401,0.872181,1.068275,3.258415,-3.649076
533,217097807,0.370837,-0.081336,0.261307,0.887478,0.852203,3.686495,-2.051849
534,217131141,0.336337,-0.079567,0.253361,0.903542,-0.488565,3.358527,-0.412226
535,217164475,0.305575,-0.063303,0.242615,0.918579,-1.825077,3.220550,1.290998
536,217197809,0.278315,-0.037525,0.235508,0.930431,-3.161283,1.696819,1.703140
537,217231143,0.254869,-0.010758,0.236193,0.937641,-3.548349,-0.625713,2.805335
538,217264477,0.239582,0.017436,0.242998,0.939830,-3.576493,-2.449166,2.566905
539,217297811,0.230100,0.038032,0.255007,0.938409,-3.445282,-4.462867,2.268792
540,217331145,0.226513,0.045548,0.269661,0.934843,-2.498456,-4.611347,2.182434
541,217364479,0.230912,0.050441,0.282628,0.929672,-1.337982,-5.423821,2.189695
542,217397813,0.242126,0.056328,0.289669,0.924298,-0.452802,-4.546445,2.324326
543,217431147,0.260175,0.065118,0.288455,0.919182,-0.158764,-3.596728,2.478308
544,217464481,0.285828,0.070215,0.281702,0.913263,-0.955623,-5.155888,0.391188
545,217497815,0.316054,0.063906,0.272941,0.906400,-0.738818,-3.710876,-1.587548
546,217531149,0.351304,0.051202,0.260875,0.897742,-0.648855,-1.839317,-2.578074
547,217564483,0.389812,0.031434,0.244692,0.887253,-0.923434,-0.227297,-4.038579
548,217597817,0.426696,0.005518,0.227941,0.875200,0.727343,4.500804,-4.222087
549,217631151,0.457777,-0.013362,0.209951,0.863837,3.913136,7.346967,-3.428979
550,217664485,0.473707,-0.018117,0.190932,0.859564,3.325062,7.189341,-1.656661
551,217697819,0.473754,-0.020553,0.183878,0.861020,1.986237,5.460712,-1.323538
552,217731153,0.460134,-0.025778,0.186029,0.867778,1.677482,2.947087,-0.385827
553,217764487,0.441994,-0.027568,0.186456,0.877011,1.062532,3.757438,0.304633
554,217797821,0.420657,-0.028131,0.185590,0.887607,-0.965013,3.769757,0.080564
555,217831155,0.396312,-0.032903,0.187977,0.898082,-1.575468,4.107696,0.555669
556,217864489,0.373941,-0.040284,0.195588,0.905717,-3.416177,3.009928,0.844183
557,217897823,0.353488,-0.053848,0.208729,0.910281,-2.787212,2.417446,2.129098
558,217931157,0.340407,-0.063390,0.221497,0.911634,-2.902934,2.208561,2.199551
559,217964491,0.336635,-0.066630,0.234444,0.909563,-3.189049,1.263302,2.636690
560,217997825,0.341952,-0.065068,0.246954,0.904368,-2.726405,1.085906,2.532268
561,218031159,0.355691,-0.060175,0.258248,0.896216,-2.659864,0.354485,1.280034
562,218064493,0.377478,-0.057996,0.270213,0.883835,-1.736289,-0.397078,0.635375
563,218097827,0.408862,-0.058848,0.281841,0.866007,-0.742597,0.123808,-0.989662
564,218131161,0.449107,-0.061283,0.291872,0.842253,-0.171304,-0.587206,-2.123003
565,218164495,0.498125,-0.065192,0.298438,0.811535,1.047992,-0.112808,-2.396832
566,218197829,0.553461,-0.071491,0.300903,0.773344,1.640496,-0.081599,-2.957064
567,218231163,0.609781,-0.081509,0.301160,0.728601,5.128085,-0.396736,-1.580557
568,218264497,0.664552,-0.087913,0.294854,0.680981,5.244149,-1.290584,-0.843683
569,218297831,0.712359,-0.090954,0.283039,0.635762,3.749573,-2.002738,-0.734686
570,218331165,0.752965,-0.093057,0.268428,0.593602,3.425698,-2.435525,-0.317729
571,218364499,0.789443,-0.093755,0.249831,0.552817,2.651818,-2.637084,0.087098
572,218397833,0.820966,-0.095587,0.229674,0.513965,1.279730,-2.623423,-0.528078
573,218431167,0.846194,-0.100872,0.213720,0.477637,0.540034,-2.539693,-0.410070
574,218464501,0.866177,-0.109621,0.204307,0.442734,-0.421824,-1.802207,-0.206144
575,218497835,0.882143,-0.123329,0.202977,0.406752,-0.406063,-1.249097,0.241677
576,218531169,0.895045,-0.140355,0.207144,0.369215,-0.364369,-1.132628,0.149922
577,218564503,0.904188,-0.159245,0.215951,0.332389,-1.104967,-1.479786,0.019519
578,218597837,0.911566,-0.178571,0.219956,0.298015,-1.978033,-1.965240,-1.023274
579,218631171,0.918389,-0.201022,0.206872,0.270902,-2.055773,-0.946140,0.802714
580,218664505,0.924438,-0.230387,0.169938,0.251971,-1.491489,-1.066302,2.112676
581,218697839,0.928465,-0.262380,0.124207,0.231763,-0.026658,-0.976744,0.434122
582,218731173,0.929764,-0.288749,0.082160,0.213178,1.052402,0.963802,0.523412
583,218764507,0.928816,-0.310463,0.054189,0.194959,-0.155682,-0.213966,3.575884
584,218797841,0.927509,-0.326127,0.033807,0.179606,-0.182704,-1.394272,3.985714
585,218831175,0.926136,-0.336845,0.024054,0.168110,-0.154378,-1.292227,3.111656
586,218864509,0.924905,-0.343406,0.024489,0.161417,-0.539109,-2.276126,2.869473
587,218897843,0.923825,-0.346257,0.023976,0.161591,-0.985607,-2.514250,1.581109
588,218931177,0.922618,-0.347368,0.021177,0.166420,-1.131665,-1.903551,1.304854
589,218964511,0.921193,-0.347628,0.022378,0.173465,-1.094175,-1.680628,0.731643
590,218997845,0.919321,-0.347391,0.028059,0.182795,-1.093038,-2.241318,0.421670
591,219031179,0.916902,-0.346047,0.033945,0.196015,-1.048360,-2.801133,1.004149
592,219064513,0.913554,-0.343645,0.040728,0.213776,-0.647564,-2.329147,1.150956
593,219097847,0.908867,-0.340005,0.053852,0.235566,-0.714493,-2.687309,1.454219
594,219131181,0.902406,-0.336049,0.071938,0.259986,-0.357247,-2.456671,1.193017
595,219164515,0.893527,-0.332456,0.090741,0.287890,0.017530,-3.917050,1.660928
596,219197849,0.882770,-0.326012,0.100274,0.323128,0.031650,-3.357417,2.153469
597,219231183,0.869572,-0.317954,0.107398,0.362282,-0.947418,-2.459896,2.561511
598,219264517,0.852608,-0.310648,0.120465,0.402589,-0.390812,-3.389967,2.050673
599,219297851,0.832850,-0.299772,0.132207,0.446152,0.686977,-3.518063,2.620082
600,219331185,0.809954,-0.284050,0.140600,0.493512,1.555780,-3.305192,2.382215
601,219364519,0.782805,-0.266171,0.147969,0.542685,2.328987,-2.796212,1.799121
602,219397853,0.750866,-0.248181,0.155269,0.592056,3.592865,-2.155248,1.415371
603,219431187,0.714548,-0.230050,0.160255,0.640975,4.059433,-1.165289,1.389055
604,219464521,0.676159,-0.210422,0.161832,0.687295,3.656108,0.263179,1.194823
605,219497855,0.638361,-0.187586,0.159910,0.729225,3.744475,1.052505,1.644497
606,219531189,0.605854,-0.152205,0.149122,0.766531,3.571826,2.528835,1.774714
607,219564523,0.579548,-0.104440,0.135642,0.796775,1.301242,3.033244,0.606386
608,219597857,0.555765,-0.061162,0.132003,0.818531,0.180890,2.832039,-0.266108
609,219631191,0.536116,-0.026503,0.136568,0.832622,-0.721795,1.988448,-1.904569
610,219664525,0.522187,0.000235,0.142451,0.840869,-1.306359,0.908719,-2.898885
611,219697859,0.515413,0.020956,0.143335,0.844629,-1.494645,1.198332,-3.427332
612,219731193,0.515808,0.035910,0.137909,0.844787,-1.420605,1.696976,-4.030737
613,219764527,0.520161,0.041637,0.131997,0.842798,-1.802199,3.559786,-4.728099
614,219797861,0.522322,0.034366,0.133699,0.841520,0.011187,5.569707,-2.690031
615,219831195,0.520780,0.023345,0.136408,0.842418,1.213403,6.097194,-1.829165
616,219864529,0.511795,0.012355,0.136970,0.848048,2.393403,6.108957,-2.386680
617,219897863,0.495346,0.007349,0.138742,0.857532,2.109194,6.208233,-1.268261
618,219931197,0.473542,0.007537,0.145234,0.868700,1.588053,5.094460,-1.023502
619,219964531,0.446792,0.001398,0.157871,0.880616,1.518745,4.402596,-1.262504
620,219997865,0.414956,-0.007520,0.174111,0.893014,1.134639,3.375168,-1.153699
621,220031199,0.379654,-0.016949,0.190741,0.905111,0.443714,1.237527,-0.461176
622,220064533,0.344034,-0.022579,0.202668,0.916564,-0.803126,-0.169683,0.069188
623,220097867,0.310733,-0.025078,0.210221,0.926637,-2.354187,-1.885072,0.902019
624,220131201,0.280917,-0.028820,0.214360,0.935060,-3.118713,-2.789855,1.982285
625,220164535,0.256436,-0.031510,0.214984,0.941840,-3.807823,-3.772279,2.786992
626,220197869,0.237837,-0.031483,0.213252,0.947100,-3.768190,-3.805303,3.294524
627,220231203,0.226560,-0.027300,0.211189,0.950451,-3.626816,-4.127259,3.421935
628,220264537,0.223510,-0.018706,0.210217,0.951596,-2.949622,-4.080886,3.091409
629,220297871,0.228853,-0.007311,0.211548,0.950186,-2.627624,-3.924519,2.510752
630,220331205,0.241147,0.002081,0.215838,0.946198,-1.554406,-2.523355,2.108668
631,220364539,0.258479,0.011039,0.223101,0.939854,-0.408217,-2.388636,1.167223
632,220397873,0.279183,0.020856,0.232111,0.931546,0.618413,-2.547424,1.498620
633,220431207,0.308731,0.036659,0.237076,0.920418,0.789202,-3.265953,0.959133
634,220464541,0.345685,0.042886,0.238555,0.906525,-0.907538,-1.130990,-0.425126
635,220497875,0.382405,0.031098,0.240365,0.891659,-0.495481,-0.229339,-1.965294
636,220531209,0.414792,0.006216,0.241575,0.877259,-0.542705,1.210810,-3.918669
637,220564543,0.442205,-0.018527,0.239737,0.864101,1.258827,3.585985,-3.090232
638,220597877,0.464429,-0.034707,0.233286,0.853646,0.511659,4.490703,-2.849120
639,220631211,0.475898,-0.053192,0.229385,0.847412,2.665491,5.249259,-2.368134
640,220664545,0.475734,-0.070991,0.226252,0.847042,3.775158,5.059808,-2.479475
641,220697879,0.469147,-0.079521,0.226783,0.849812,2.374309,2.947684,-0.652171
642,220731213,0.457280,-0.085334,0.228420,0.855261,2.123474,2.544767,0.191147
643,220764547,0.442198,-0.087053,0.230072,0.862544,1.055741,2.117285,0.904426
644,220797881,0.424239,-0.087493,0.234321,0.870341,0.192723,2.204210,1.887948
645,220831215,0.403493,-0.087684,0.241867,0.878087,-0.419206,1.553948,2.761105
646,220864549,0.382578,-0.085787,0.252009,0.884759,-1.368310,0.921743,3.352988
647,220897883,0.361744,-0.081432,0.264143,0.890377,-1.723357,-0.471956,4.317347
648,220931217,0.341948,-0.075946,0.278950,0.894161,-2.610426,-1.780292,4.720336
649,220964551,0.322115,-0.074585,0.298918,0.895187,-3.165291,-2.774039,4.417226
650,220997885,0.302924,-0.078416,0.323164,0.893132,-2.311813,-2.566241,3.408734
651,221031219,0.292313,-0.072167,0.345811,0.888703,-1.370894,-2.159094,1.817122
652,221064553,0.290186,-0.054264,0.365276,0.882867,-0.940151,-3.018119,0.589266
653,221097887,0.299365,-0.026958,0.378089,0.875634,-0.827835,-3.902175,-0.452273
654,221131221,0.318544,0.000350,0.383589,0.866846,-0.847085,-4.255520,-1.272789
655,221164555,0.347513,0.023642,0.380315,0.856779,-1.430070,-4.314160,-2.059171
656,221197889,0.382938,0.036598,0.369638,0.845825,-2.239879,-2.528813,-3.200984
657,221231223,0.419462,0.032276,0.356345,0.834303,-1.156372,-0.841422,-4.149749
658,221264557,0.459007,0.022554,0.335885,0.822203,-0.933608,1.827970,-4.854836
659,221297891,0.495187,0.008724,0.311962,0.810818,0.401014,4.974344,-5.358917
660,221331225,0.524427,-0.006008,0.290183,0.800479,2.323122,6.076106,-5.088849
661,221364559,0.546246,-0.015023,0.274091,0.791389,1.992983,5.912536,-4.596385
662,221397893,0.558355,-0.025659,0.266257,0.785316,2.093206,5.033846,-3.796916
663,221431227,0.566553,-0.037208,0.260427,0.780925,1.737362,4.394074,-4.071323
664,221464561,0.572358,-0.055958,0.257397,0.776566,1.381851,4.487113,-4.007248
665,221497895,0.576011,-0.085418,0.258944,0.770646,1.095017,4.371429,-3.384502
666,221531229,0.582348,-0.119828,0.260897,0.760577,1.532602,4.633672,-2.411472
667,221564563,0.589006,-0.167966,0.272776,0.741947,-1.169625,5.419933,-2.252854
668,221597897,0.586469,-0.247117,0.315930,0.703710,2.046253,4.332089,-0.366492
669,221631231,0.590272,-0.314934,0.365880,0.646962,5.797255,2.972947,2.887386
670,221664565,0.606072,-0.358999,0.409652,0.579668,3.706253,1.287804,5.183724
671,221697899,0.635229,-0.381030,0.435524,0.511518,2.024082,-1.121600,6.598471
672,221731233,0.668366,-0.392150,0.447696,0.446213,1.014747,-2.433118,5.597718
673,221764567,0.701538,-0.395215,0.448622,0.387840,1.020543,-3.283396,7.184555
674,221797901,0.733690,-0.389333,0.440765,0.340408,0.768137,-4.028314,5.147376
675,221831235,0.756048,-0.380078,0.441061,0.299049,0.685442,-4.921889,4.621139
676,221864569,0.771537,-0.366824,0.447761,0.264033,0.299358,-5.554508,3.261478
677,221897903,0.786045,-0.349294,0.451602,0.237097,-0.716667,-5.217556,0.118673
678,221931237,0.798759,-0.331701,0.453635,0.214955,-1.347796,-4.336234,-1.433817
679,221964571,0.809981,-0.316556,0.453356,0.195510,-1.396242,-3.768573,-2.068312
680,221997905,0.822659,-0.303624,0.445867,0.179663,-1.636300,-3.246546,-1.788198
681,222031239,0.840218,-0.292748,0.424584,0.167608,-1.822111,-2.819141,-2.454915
682,222064573,0.867410,-0.289565,0.372000,0.159379,-1.936593,-1.969607,1.446503
683,222097907,0.906648,-0.291639,0.254048,0.168606,-2.803073,-4.436291,-1.734916
684,222131241,0.923269,-0.304102,0.168716,0.163289,0.229143,2.594314,-5.005037
685,222164575,0.924294,-0.320511,0.139802,0.153102,-0.028125,-1.220899,-0.329212
686,222197909,0.923507,-0.333097,0.119780,0.147873,0.055516,-1.222124,1.447395
687,222231243,0.923239,-0.341064,0.101269,0.145194,-0.184221,0.301445,1.595870
688,222264577,0.922256,-0.347322,0.091662,0.142976,-0.223773,0.049981,2.457047
689,222297911,0.920281,-0.353356,0.090420,0.141705,-0.508731,0.379364,2.169764
690,222331245,0.917251,-0.360099,0.093218,0.142554,-0.561315,-0.240160,1.584432
691,222364579,0.914194,-0.366068,0.092877,0.147143,-0.539555,-0.590716,1.176785
692,222397913,0.911863,-0.370126,0.087215,0.154724,-0.675954,-0.634002,1.275326
693,222431247,0.910151,-0.372253,0.079964,0.163377,-0.674909,-0.491166,0.937194
694,222464581,0.908512,-0.373271,0.075717,0.171972,-0.769058,-0.832069,0.969933
695,222497915,0.906999,-0.373034,0.073548,0.181168,-0.819037,-1.116389,0.901248
696,222531249,0.905268,-0.371892,0.072774,0.192154,-0.841819,-1.367120,0.768505
697,222564583,0.903054,-0.370054,0.072697,0.205674,-0.717056,-1.558989,0.597007
698,222597917,0.900115,-0.367703,0.072308,0.222243,-0.633002,-1.628464,0.537067
699,222631251,0.896209,-0.364910,0.071203,0.242102,-0.387060,-1.677135,0.285279
700,222664585,0.891060,-0.361979,0.069335,0.264969,-0.259895,-1.854078,-0.004493
701,222697919,0.884593,-0.359085,0.066051,0.290213,-0.026346,-1.978105,-0.021749
702,222731253,0.876418,-0.356871,0.063390,0.317095,0.398607,-1.983613,-0.130517
703,222764587,0.866035,-0.355568,0.063324,0.345800,0.729976,-2.429285,0.313182
704,222797921,0.853385,-0.354664,0.064415,0.376604,1.009766,-2.767781,0.884203
705,222831255,0.838163,-0.354121,0.064817,0.409770,1.045302,-2.843403,0.610436
706,222864589,0.819512,-0.353819,0.065335,0.446067,0.812383,-2.739687,0.455511
707,222897923,0.797679,-0.350723,0.064816,0.486346,0.655597,-3.410251,1.597947
708,222931257,0.773411,-0.339752,0.059353,0.531896,0.088591,-3.462523,3.390181
709,222964591,0.747017,-0.319383,0.053684,0.580612,0.114211,-3.351159,4.495436
710,222997925,0.718400,-0.294462,0.055688,0.627794,0.935335,-2.753701,5.022651
711,223031259,0.688614,-0.266580,0.067531,0.670983,1.884391,-1.720459,5.208843
712,223064593,0.657815,-0.234154,0.085297,0.710781,3.252294,-0.536649,5.260611
713,223097927,0.625323,-0.197145,0.105090,0.747725,3.667611,1.044190,4.371405
714,223131261,0.591366,-0.157062,0.125389,0.780979,3.619572,2.657064,3.585212
715,223164595,0.558108,-0.114525,0.145142,0.808929,3.414604,4.172108,1.607542
716,223197929,0.526310,-0.073911,0.166374,0.830594,2.790086,4.890668,-0.223396
717,223231263,0.497652,-0.036304,0.186886,0.846245,1.538533,4.907216,-2.320359
718,223264597,0.473693,-0.002405,0.203907,0.856775,0.339290,3.851775,-4.079106
719,223297931,0.454062,0.026041,0.216894,0.863793,-0.853147,3.167581,-4.928113
720,223331265,0.438251,0.048016,0.225941,0.868685,-1.483645,2.242633,-4.999760
721,223364599,0.428574,0.066386,0.229154,0.871458,-2.003447,1.481065,-4.997110
722,223397933,0.424102,0.078676,0.227952,0.872936,-2.695812,0.813835,-4.766313
723,223431267,0.422529,0.082105,0.224999,0.874149,-2.659808,0.943151,-4.750053
724,223464601,0.420670,0.076135,0.222747,0.876160,-1.631531,1.901897,-3.586178
725,223497935,0.420244,0.073106,0.218497,0.877691,-1.684865,2.902150,-2.197704
726,223531269,0.416526,0.069005,0.216167,0.880369,-0.187065,3.686765,-1.527384
727,223564603,0.408564,0.061732,0.214599,0.885011,0.808483,3.050770,-1.198416
728,223597937,0.395323,0.051290,0.216206,0.891278,0.603169,3.115919,0.257507
729,223631271,0.378020,0.043728,0.218649,0.898562,1.068127,2.771248,0.417777
730,223664605,0.356663,0.038739,0.221689,0.906740,1.036979,1.722901,0.887395
731,223697939,0.332926,0.036877,0.223771,0.915292,0.761912,0.732778,1.053854
732,223731273,0.307096,0.034811,0.224758,0.924119,0.611230,-0.202587,0.686930
733,223764607,0.280959,0.034257,0.223635,0.932689,0.388027,-0.820622,0.461205
734,223797941,0.255038,0.035721,0.219940,0.940924,-0.193813,-1.562768,0.854185
735,223831275,0.231288,0.039864,0.214877,0.948039,-0.862703,-2.460314,1.295192
736,223864609,0.211408,0.046232,0.209465,0.953586,-1.451938,-2.654755,2.001411
737,223897943,0.197631,0.054968,0.205278,0.956982,-1.738676,-3.616463,2.117353
738,223931277,0.189942,0.060145,0.204072,0.958484,-1.785605,-4.238549,2.016618
739,223964611,0.188737,0.062186,0.204473,0.958506,-1.349184,-3.825427,1.310948
740,223997945,0.194596,0.064454,0.203085,0.957479,-0.825951,-3.591291,1.881149
741,224031279,0.207995,0.068601,0.198524,0.955329,-0.171801,-3.596947,1.341219
742,224064613,0.227069,0.072116,0.190192,0.952417,0.257468,-2.713032,0.410038
743,224097947,0.249681,0.074269,0.178036,0.948936,0.426468,-1.769281,0.669069
744,224131281,0.275410,0.075493,0.163463,0.944332,0.018149,-1.900547,-0.059761
745,224164615,0.304211,0.076634,0.147218,0.938052,-0.397767,-1.413599,-1.023463
746,224197949,0.336305,0.078025,0.128265,0.929726,-1.171328,0.222962,-1.433686
747,224231283,0.368865,0.074789,0.110046,0.919928,-1.741356,2.438246,-1.348478
748,224264617,0.399216,0.065403,0.095182,0.909572,-0.142725,4.070706,-2.304942
749,224297951,0.422106,0.052679,0.080953,0.901405,1.480608,5.744614,-3.049109
750,224331285,0.433016,0.041955,0.075285,0.897275,0.830362,4.577447,-1.170102
751,224364619,0.432710,0.032997,0.074489,0.897862,2.033658,3.563785,-1.607934
752,224397953,0.425598,0.027637,0.072084,0.901631,1.522787,2.487187,-1.578173
753,224431287,0.414666,0.023027,0.068583,0.907111,0.905091,2.165364,-1.061156
754,224464621,0.401166,0.016453,0.066700,0.913443,0.307281,2.216274,-0.279410
755,224497955,0.386422,0.006501,0.068532,0.919767,-0.242588,1.926076,0.071994
756,224531289,0.370529,-0.010284,0.075225,0.925730,0.217888,1.887623,0.531262
757,224564623,0.353886,-0.026967,0.082227,0.931294,-0.068486,1.950097,0.979527
758,224597957,0.337611,-0.039248,0.088099,0.936349,-0.091044,0.881972,1.226470
759,224631291,0.323883,-0.041838,0.090629,0.940834,0.260050,0.269834,2.204751
760,224664625,0.312775,-0.029296,0.087096,0.945389,-1.099643,-1.359250,2.574630
761,224697959,0.302314,-0.020321,0.083236,0.949367,-1.842269,-3.215151,3.973786
762,224731293,0.294975,-0.013690,0.079769,0.952088,-2.200052,-3.447918,4.604218
763,224764627,0.293551,-0.002594,0.078988,0.952688,-2.666257,-4.286438,4.810103
764,224797961,0.299052,0.010141,0.082958,0.950587,-2.555723,-4.245725,4.363159
765,224831295,0.311107,0.021239,0.091095,0.945778,-1.908685,-4.122760,3.093245
766,224864629,0.328810,0.031843,0.101278,0.938427,-1.003747,-3.137232,1.571810
767,224897963,0.350453,0.044613,0.109831,0.929065,0.230843,-1.565572,1.076201
768,224931297,0.374595,0.057977,0.115910,0.918104,0.653795,-1.147337,-0.270382
769,224964631,0.398283,0.066959,0.120799,0.906822,0.834811,-1.300464,-1.392962
770,224997965,0.422830,0.075284,0.120615,0.895004,1.335594,-0.776461,-1.420313
771,225031299,0.448725,0.082300,0.113230,0.882658,1.124819,-0.883804,-2.207738
772,225064633,0.475953,0.082150,0.101274,0.869768,0.663051,-0.184266,-2.947667
773,225097967,0.502389,0.076164,0.086352,0.856960,0.562910,1.408099,-3.559510
774,225131301,0.526152,0.066173,0.069903,0.844945,0.334166,2.160131,-3.665139
775,225164635,0.545593,0.053378,0.053286,0.834669,-0.050083,2.346382,-3.495109
776,225197969,0.558875,0.028380,0.041266,0.827758,-0.203221,3.217381,-3.481898
777,225231303,0.564606,-0.012421,0.029952,0.824743,3.667225,5.193907,-3.828878
778,225264637,0.570692,-0.026371,0.014371,0.820635,1.632422,4.697259,-0.824270
779,225297971,0.571538,-0.035620,0.006409,0.819797,-0.331453,3.599427,0.501571
780,225331305,0.568558,-0.052234,0.007834,0.820966,0.774539,3.443678,0.819287
781,225364639,0.564662,-0.069966,0.012891,0.822270,0.390414,3.611022,0.608944
782,225397973,0.559208,-0.091452,0.023423,0.823654,0.083648,3.331614,0.755517
783,225431307,0.553354,-0.115945,0.037150,0.824020,0.581897,2.936537,1.038097
784,225464641,0.550480,-0.138206,0.050009,0.821829,-0.453433,2.734671,0.789502
785,225497975,0.550522,-0.165128,0.066882,0.815609,-1.012358,1.907602,0.520581
786,225531309,0.557059,-0.191295,0.082800,0.803908,-0.645005,0.560320,0.960175
787,225564643,0.573721,-0.206089,0.089522,0.787648,-0.048420,0.344544,1.967549
788,225597977,0.599199,-0.205639,0.085577,0.769014,-0.170356,-0.073216,2.262180
789,225631311,0.626757,-0.208694,0.085384,0.745899,-1.351036,-0.339182,1.451639
790,225664645,0.656426,-0.220380,0.095238,0.715192,0.854461,-1.245107,2.654348
791,225697979,0.689659,-0.228730,0.109172,0.678356,0.781115,-0.883649,1.749483
792,225731313,0.720671,-0.243027,0.139475,0.634153,1.082890,-1.038397,0.615025
793,225764647,0.747153,-0.259007,0.180712,0.584853,1.635715,-2.220639,0.348888
794,225797981,0.772972,-0.265172,0.212798,0.535675,2.076673,-3.135562,0.216717
795,225831315,0.801132,-0.259603,0.225850,0.489713,0.935293,-2.360815,-1.084332
796,225864649,0.827010,-0.253938,0.232921,0.444241,1.300707,-2.197034,-0.314675
797,225897983,0.851611,-0.246803,0.230302,0.401048,1.691510,-3.316982,0.234076
798,225931317,0.873482,-0.238738,0.217726,0.364226,0.390135,-2.300317,-1.217807
799,225964651,0.887653,-0.239476,0.213240,0.330582,-0.415459,-1.762877,-2.423763
800,225997985,0.895361,-0.249766,0.215795,0.299016,0.038312,-2.584495,-1.676825
801,226031319,0.902906,-0.261802,0.205979,0.271709,1.312042,-3.195037,-1.049884
802,226064653,0.910865,-0.275793,0.174271,0.252836,-0.326257,-2.930053,2.165559
803,226097987,0.913097,-0.299086,0.135315,0.241917,-0.515954,-3.517859,2.526800
804,226131321,0.914951,-0.316361,0.084776,0.235852,1.631275,-3.150356,0.131407
805,226164655,0.914820,-0.324676,0.038505,0.237151,0.433075,-1.573662,-0.462212
806,226197989,0.911595,-0.333952,0.018179,0.239107,-0.066758,0.423401,2.190640
807,226231323,0.909960,-0.341318,0.017699,0.234934,-0.497153,-0.030105,2.730921
808,226264657,0.910152,-0.344839,0.022347,0.228567,-0.601715,0.471933,1.768866
809,226297991,0.910334,-0.347732,0.031933,0.222234,-0.689131,0.047795,0.904197
810,226331325,0.909661,-0.350852,0.039776,0.218792,-0.883151,-0.006624,0.753439
811,226364659,0.908229,-0.354232,0.042326,0.218815,-0.883822,0.023493,0.291524
812,226397993,0.906145,-0.358243,0.040759,0.221209,-0.973319,-0.244453,0.299721
813,226431327,0.903665,-0.362567,0.036239,0.225066,-1.082677,-0.515428,0.355897
814,226464661,0.901056,-0.366675,0.030740,0.229642,-1.267765,-0.717333,0.700153
815,226497995,0.898434,-0.370172,0.027342,0.234679,-1.385554,-0.990655,0.761779
816,226531329,0.895632,-0.373097,0.027346,0.240679,-1.157965,-1.471327,0.441303
817,226564663,0.892410,-0.375203,0.030116,0.248905,-1.194849,-2.034369,0.600503
818,226597997,0.888801,-0.375245,0.032320,0.261175,-1.126531,-2.288138,0.894025
819,226631331,0.884581,-0.373176,0.035484,0.277541,-1.330172,-2.051862,0.821706
820,226664665,0.878830,-0.372273,0.042369,0.295479,-1.061166,-2.275147,0.533464
821,226697999,0.870838,-0.373101,0.049050,0.316326,-0.448047,-3.161655,0.448136
822,226731333,0.860414,-0.373323,0.050824,0.343172,0.224201,-3.962676,0.609982
823,226764667,0.847691,-0.370789,0.046254,0.376601,0.891267,-3.971260,0.790775
824,226798001,0.831870,-0.368350,0.042179,0.412994,1.236172,-3.474191,1.109137
825,226831335,0.812984,-0.366608,0.043029,0.450374,1.091856,-3.420829,1.110300
826,226864669,0.790525,-0.364681,0.046808,0.489816,1.894193,-3.915495,2.002319
827,226898003,0.764737,-0.358882,0.046640,0.533140,2.163338,-3.253556,1.870521
828,226931337,0.734708,-0.350440,0.045912,0.579068,2.192477,-2.412877,1.769324
829,226964671,0.701663,-0.337907,0.044576,0.625726,2.565685,-1.930480,2.494831
830,226998005,0.667442,-0.320326,0.042660,0.670914,2.269291,-1.160559,2.552428
831,227031339,0.633200,-0.298740,0.042175,0.712787,2.783587,-0.482829,2.300290
832,227064673,0.600401,-0.273644,0.043009,0.750213,2.681766,0.974998,1.915157
833,227098007,0.569110,-0.248101,0.046549,0.782576,3.036170,2.000592,1.621469
834,227131341,0.539451,-0.223087,0.051184,0.810332,2.423335,2.802534,0.871832
835,227164675,0.513401,-0.199634,0.054524,0.832841,2.280457,3.123911,0.302735
836,227198009,0.492070,-0.172931,0.050643,0.851722,0.626188,2.603869,-1.186725
837,227231343,0.476104,-0.148250,0.042563,0.865776,0.232885,1.678445,-2.009759
838,227264677,0.466481,-0.121926,0.028666,0.875637,-0.844756,1.916435,-2.032735
839,227298011,0.464364,-0.094410,0.012553,0.880527,-1.957582,1.425218,-2.314226
840,227331345,0.468865,-0.071649,-0.003096,0.880372,-1.590349,2.449552,-1.400182
841,227364679,0.477263,-0.054507,-0.016543,0.876931,-1.782514,3.375743,-0.936469
842,227398013,0.485465,-0.048735,-0.023300,0.872604,-2.039201,4.310031,-1.706393
843,227431347,0.488668,-0.051855,-0.017462,0.870771,-1.053654,5.146688,-0.787965
844,227464681,0.484838,-0.051315,-0.001122,0.873115,-0.509318,4.518543,-0.270630
845,227498015,0.472225,-0.050559,0.017031,0.879880,0.126027,4.699071,-0.588541
846,227531349,0.451783,-0.045924,0.031642,0.890401,-1.190068,4.202884,-1.568111
847,227564683,0.427064,-0.045104,0.049070,0.901779,-1.097530,3.413360,-1.555264
848,227598017,0.400373,-0.046678,0.065722,0.912817,-0.570254,3.124010,-0.653221
849,227631351,0.373093,-0.048310,0.080780,0.923025,-1.368595,2.358172,-0.337624
850,227664685,0.345480,-0.054011,0.096003,0.931956,-0.931929,0.651056,-0.096966
851,227698019,0.318606,-0.054016,0.106482,0.940355,-0.749791,0.099472,0.196581
852,227731353,0.295138,-0.047985,0.112030,0.947667,-1.621828,-1.838755,0.827916
853,227764687,0.274375,-0.041711,0.111827,0.954204,-1.235992,-2.189040,0.908568
854,227798021,0.257497,-0.029009,0.105379,0.960095,-1.166011,-3.252699,1.393513
855,227831355,0.246185,-0.011129,0.095571,0.964452,-1.793187,-4.405340,1.821853
856,227864689,0.241933,0.005210,0.085768,0.966498,-1.519818,-4.706056,2.009754
857,227898023,0.246158,0.020435,0.077050,0.965963,-1.385396,-5.203687,1.642748
858,227931357,0.258543,0.032693,0.070261,0.962903,-1.020743,-4.911375,0.901061
859,227964691,0.275029,0.042101,0.064232,0.958380,0.205885,-3.912048,0.508335
860,227998025,0.297409,0.058379,0.053123,0.951499,0.626830,-4.448372,0.598701
861,228031359,0.328818,0.075189,0.038808,0.940612,-0.437334,-3.432360,0.126675
862,228064693,0.366498,0.083194,0.024853,0.926376,-0.610543,-1.346543,-0.492748
863,228098027,0.406902,0.079854,0.013123,0.909898,-1.496248,0.055975,-1.069114
864,228131361,0.447374,0.069836,0.003822,0.891626,-1.105722,2.554644,-1.520468
865,228164695,0.484057,0.049136,-0.000126,0.873674,-0.662515,4.272504,-2.116786
866,228198029,0.513846,0.014133,0.006450,0.857760,1.790819,5.024243,-3.218687
867,228231363,0.535867,-0.016723,0.014339,0.844034,3.898593,4.913494,-1.559762
868,228264697,0.545514,-0.026818,0.014265,0.837570,2.543390,2.846889,-0.409198
869,228298031,0.544963,-0.029565,0.010076,0.837897,3.310895,2.444057,-0.699368
870,228331365,0.539393,-0.023508,0.000423,0.841745,1.553314,1.447876,-0.104856
871,228364699,0.530168,-0.023688,-0.005135,0.847565,1.386225,1.237660,1.103854
872,228398033,0.517349,-0.029937,-0.005156,0.855254,1.283620,1.385336,1.637117
873,228431367,0.499444,-0.035737,-0.002360,0.865624,1.038599,1.562707,1.953373
874,228464701,0.475461,-0.040089,-0.000978,0.878841,1.035814,1.136335,3.248784
875,228498035,0.447977,-0.038485,-0.008137,0.893197,1.000072,0.348699,2.877196
876,228531369,0.420182,-0.030458,-0.020027,0.906725,-0.231512,-0.158234,1.408598
877,228564703,0.395008,-0.013436,-0.028218,0.918164,-1.261774,-1.195453,3.320436
878,228598037,0.374915,0.009488,-0.031114,0.926506,-1.897601,-2.234680,3.385915
879,228631371,0.360385,0.028245,-0.026329,0.932021,-1.993122,-2.239628,3.439515
880,228664705,0.352248,0.044450,-0.015716,0.934736,-1.718578,-2.173566,2.222142
881,228698039,0.349545,0.055756,-0.000906,0.935276,-1.010248,-1.524571,0.610793
882,228731373,0.350460,0.068995,0.013367,0.933955,-0.051144,-1.545350,-1.208578
883,228764707,0.355581,0.089763,0.022708,0.930065,-0.671454,-2.769063,-1.581491
884,228798041,0.364401,0.108984,0.028106,0.924433,-0.785936,-3.132169,-1.531971
885,228831375,0.377138,0.122788,0.030910,0.917479,-0.428030,-2.947113,-1.627630
886,228864709,0.395087,0.132226,0.029739,0.908609,-0.749178,-2.549381,-1.852900
887,228898043,0.418030,0.137703,0.025116,0.897602,-1.918875,-1.393217,-1.710085
888,228931377,0.444199,0.133771,0.022137,0.885627,-1.504450,1.045285,-0.990590
889,228964711,0.473774,0.115731,0.017714,0.872848,-1.623068,3.192594,-2.742545
890,228998045,0.498657,0.078688,0.013563,0.863132,0.762468,4.813094,-4.416014
891,229031379,0.517468,0.052628,0.011125,0.854029,2.108082,5.552461,-3.619705
892,229064713,0.527380,0.032280,0.011355,0.848959,2.082086,5.693949,-2.282249
893,229098047,0.527839,0.011580,0.014645,0.849158,3.130071,5.646146,-1.626863
894,229131381,0.522077,-0.004132,0.019033,0.852695,1.933047,4.633713,-0.176821
895,229164715,0.512737,-0.019825,0.026839,0.857916,1.058784,3.059900,1.727348
896,229198049,0.505493,-0.036380,0.035652,0.861345,0.255432,1.622039,2.288258
897,229231383,0.502975,-0.055287,0.046403,0.861301,-0.760517,0.479900,2.428569
898,229264717,0.505445,-0.074368,0.059522,0.857604,-0.456649,-0.019594,2.843219
899,229298051,0.513480,-0.088334,0.073271,0.850411,-0.951922,-0.003311,2.552846
900,229331385,0.526995,-0.099168,0.088827,0.839395,-1.343375,-0.219972,2.049399
901,229364719,0.547187,-0.107120,0.104599,0.823531,-1.428300,-0.478091,1.609987
902,229398053,0.573147,-0.114418,0.120254,0.802485,-1.143782,-0.125241,1.014879
903,229431387,0.604208,-0.119268,0.135272,0.776171,-0.487452,0.128916,0.740846
904,229464721,0.639328,-0.120624,0.149196,0.744636,-0.155119,-0.175820,0.528582
905,229498055,0.675876,-0.120114,0.161708,0.708976,1.011528,-0.235015,0.860448
906,229531389,0.712218,-0.115383,0.170451,0.671127,1.403383,-1.019520,0.850417
907,229564723,0.747261,-0.106419,0.174713,0.632284,1.273222,-1.870297,0.650111
908,229598057,0.780065,-0.095436,0.175795,0.592890,2.219544,-1.416227,1.418069
909,229631391,0.809145,-0.082187,0.176852,0.554334,2.067581,-1.750944,0.203504
910,229664725,0.834153,-0.067090,0.178766,0.517458,1.660113,-1.921851,-0.435800
911,229698059,0.856257,-0.053226,0.180654,0.481026,0.676274,-1.487649,-1.609974
912,229731393,0.875644,-0.045275,0.184241,0.444167,0.523339,-1.344339,-2.438161
913,229764727,0.892470,-0.044107,0.189302,0.407123,0.704025,-1.273070,-2.859621
914,229798061,0.906608,-0.049296,0.195395,0.370790,0.606388,-1.387983,-2.654608
915,229831395,0.917540,-0.061238,0.201855,0.337132,0.453525,-1.421493,-2.537913
916,229864729,0.924606,-0.079116,0.209319,0.308322,1.207547,-1.630422,-0.634939
917,229898063,0.929227,-0.099913,0.214654,0.283743,1.169921,-1.553357,0.513156
918,229931397,0.933674,-0.119444,0.212231,0.262633,0.807060,-1.578613,0.281213
919,229964731,0.939208,-0.140207,0.197076,0.243770,0.967713,0.218992,2.750090
920,229998065,0.941229,-0.168360,0.183992,0.227863,-1.108777,-2.038649,2.528309
921,230031399,0.943223,-0.197432,0.166477,0.208970,0.326901,-1.519214,-1.471657
922,230064733,0.943844,-0.221489,0.152321,0.192177,0.807603,0.191323,-0.760454
923,230098067,0.942244,-0.242635,0.147985,0.177304,-0.292661,-1.104726,1.145894
924,230131401,0.939968,-0.259827,0.148354,0.164236,-0.402422,-1.309050,2.244699
925,230164735,0.937008,-0.272906,0.154979,0.153470,-0.436818,-1.593330,2.865032
926,230198069,0.933736,-0.281490,0.166016,0.146186,-0.974851,-2.292707,2.666411
927,230231403,0.931088,-0.286194,0.174372,0.144202,-1.488570,-1.722098,2.179940
928,230264737,0.928611,-0.289167,0.180333,0.146891,-1.612551,-1.172465,1.969119
929,230298071,0.926065,-0.290850,0.185625,0.152922,-1.814839,-0.522578,1.345709
930,230331405,0.923428,-0.291375,0.190711,0.161374,-1.880336,-0.480901,1.072383
931,230364739,0.921172,-0.290397,0.193350,0.172507,-1.565981,-0.697933,1.471143
932,230398073,0.919110,-0.287598,0.194382,0.186471,-1.351480,-0.727969,1.464674
933,230431407,0.916846,-0.283318,0.194755,0.203046,-1.161156,-1.014846,1.233807
934,230464741,0.914042,-0.277966,0.195449,0.221572,-0.872047,-1.235998,0.903004
935,230498075,0.910611,-0.271851,0.195672,0.242135,-0.484807,-1.506443,0.693950
936,230531409,0.906319,-0.265286,0.194975,0.265000,-0.112543,-1.689038,0.254250
937,230564743,0.900638,-0.259156,0.194423,0.289691,0.336507,-1.915354,0.134443
938,230598077,0.893549,-0.253524,0.193491,0.316052,0.764882,-2.065396,0.265216
939,230631411,0.884666,-0.248934,0.192586,0.344008,1.230379,-2.112855,0.239530
940,230664745,0.873493,-0.245817,0.192477,0.373590,1.713992,-2.116701,-0.130469
941,230698079,0.860008,-0.243812,0.191520,0.405332,2.022036,-2.037265,-0.356730
942,230731413,0.844332,-0.243127,0.188367,0.438796,2.169459,-1.745755,-0.624421
943,230764747,0.826136,-0.244484,0.183518,0.473371,2.291412,-1.564343,-0.772880
944,230798081,0.804976,-0.248624,0.177719,0.508575,2.296835,-1.423813,-0.498276
945,230831415,0.781132,-0.254466,0.169937,0.544273,2.481981,-1.441921,-0.160452
946,230864749,0.754347,-0.261038,0.160658,0.580552,2.086018,-1.084058,0.136013
947,230898083,0.724576,-0.267773,0.151568,0.616723,1.889436,-0.985466,1.388906
948,230931417,0.692952,-0.270676,0.140058,0.653428,1.652051,-0.733842,1.786782
949,230964751,0.659828,-0.269106,0.128373,0.689755,1.377000,-0.055698,2.465545
950,230998085,0.625660,-0.262454,0.118877,0.724961,1.456979,0.295719,2.503974
951,231031419,0.591109,-0.251625,0.112430,0.758068,1.010034,0.736662,1.982068
952,231064753,0.556364,-0.238447,0.110204,0.788346,0.744584,0.917660,1.367035
953,231098087,0.522520,-0.223182,0.111351,0.815350,0.195661,0.743100,1.147997
954,231131421,0.492091,-0.204122,0.113328,0.838672,0.021384,0.655857,0.953703
955,231164755,0.466527,-0.181376,0.114898,0.858071,-0.562501,0.391526,0.990923
956,231198089,0.445258,-0.160378,0.116931,0.873146,-0.080612,0.625413,1.149739
957,231231423,0.428320,-0.141523,0.117692,0.884700,-0.136637,0.342801,0.294115
958,231264757,0.416964,-0.124475,0.115660,0.892918,-0.158300,0.474586,-0.725734
959,231298091,0.413271,-0.104663,0.106959,0.898245,-0.659306,-0.199564,-1.895842
960,231331425,0.417478,-0.084230,0.089155,0.900389,-0.838547,0.963978,-2.390290
961,231364759,0.428544,-0.066153,0.063278,0.898890,-1.311447,1.888607,-2.749704
962,231398093,0.443795,-0.055998,0.032978,0.893787,-0.944821,2.035304,-2.849372
963,231431427,0.463217,-0.038298,-0.003432,0.885428,-1.992912,5.064487,0.231577
964,231464761,0.479515,-0.017660,-0.030091,0.876858,-1.040454,5.675442,1.152112
965,231498095,0.488210,-0.009503,-0.031395,0.872128,-0.842724,4.243996,0.269776
966,231531429,0.485171,-0.019089,-0.012773,0.874136,0.965662,3.829223,-0.402089
967,231564763,0.470890,-0.030779,0.011774,0.881594,0.576795,3.681200,0.238912
968,231598097,0.450924,-0.042241,0.035058,0.890891,-0.805601,3.637897,-0.357591
969,231631431,0.428443,-0.058207,0.059153,0.899768,-1.284394,4.255794,-0.937962
970,231664765,0.405448,-0.065321,0.083424,0.907974,-2.033199,4.228346,-0.326273
971,231698099,0.381665,-0.081189,0.115954,0.913415,-2.004179,2.384554,-0.771791
972,231731433,0.356200,-0.102851,0.148181,0.916852,-0.673298,0.674867,0.590505
973,231764767,0.334522,-0.103451,0.166169,0.921853,-1.224204,-0.759405,0.208495
974,231798101,0.317550,-0.096576,0.178029,0.926376,-1.937922,-2.994041,0.202910
975,231831435,0.306390,-0.090085,0.185726,0.929273,-1.182533,-4.064419,0.887509
976,231864769,0.302262,-0.081108,0.188227,0.930947,-1.045548,-5.281506,0.775768
977,231898103,0.303920,-0.074890,0.188049,0.930964,-0.642578,-4.966734,1.103056
978,231931437,0.312937,-0.065601,0.184161,0.929454,0.031248,-4.924813,0.748650
979,231964771,0.327793,-0.054579,0.176592,0.926510,-0.295159,-4.376515,0.499303
980,231998105,0.345186,-0.047929,0.166897,0.922348,0.419790,-3.634843,0.917061
981,232031439,0.366165,-0.041277,0.152006,0.917140,1.059051,-3.476132,-0.096095
982,232064773,0.392458,-0.031425,0.131250,0.909832,-0.360224,-3.169041,-0.947807
983,232098107,0.422881,-0.024671,0.107235,0.899498,-0.762200,-1.056792,-0.781913
984,232131441,0.454867,-0.023631,0.081842,0.886494,-0.360360,1.404634,0.003484
985,232164775,0.485341,-0.029630,0.059800,0.871793,-0.214389,2.453195,-0.027751
986,232198109,0.511021,-0.044894,0.046582,0.857149,0.008849,3.589329,-0.727554
987,232231443,0.529981,-0.061252,0.041429,0.844798,1.425506,3.765265,-0.370087
988,232264777,0.543021,-0.066030,0.038447,0.836255,1.460887,4.294489,0.716492
989,232298111,0.549591,-0.062662,0.039043,0.832184,1.076558,3.280522,0.449700
990,232331445,0.548193,-0.058803,0.041692,0.833259,1.267994,3.008807,-0.910527
991,232364779,0.540941,-0.055895,0.045623,0.837979,1.231573,3.109549,-0.022133
992,232398113,0.531480,-0.053778,0.052393,0.843756,-0.393199,2.467932,0.104794
993,232431447,0.518643,-0.059461,0.065425,0.850426,0.240990,3.519410,0.284103
994,232464781,0.502701,-0.065624,0.081473,0.858126,0.052368,3.636735,-0.012512
995,232498115,0.484677,-0.069607,0.098076,0.866404,0.327681,1.619651,0.760478
996,232531449,0.467290,-0.068066,0.110277,0.874574,-1.054308,1.839344,1.586039
997,232564783,0.451566,-0.065133,0.121820,0.881497,-1.372552,1.684931,1.233990
998,232598117,0.440791,-0.059445,0.134053,0.885568,-2.451646,0.979911,1.006114
999,232631451,0.435977,-0.053974,0.146114,0.886393,-2.455284,0.571576,0.889477
1000,232664785,0.437372,-0.049995,0.156682,0.884132,-2.591011,1.014219,-0.006730
1001,232698119,0.444927,-0.050335,0.168321,0.878184,-2.172844,0.703107,-0.349770
1002,232731453,0.460520,-0.050494,0.178475,0.868073,-0.927940,0.954658,-0.604990
1003,232764787,0.483455,-0.052842,0.188005,0.853326,-0.374192,0.786080,-1.762021
1004,232798121,0.513744,-0.057567,0.196992,0.833054,0.127003,0.358602,-2.278371
1005,232831455,0.551692,-0.065263,0.204284,0.806025,0.574632,-0.372490,-2.220564
1006,232864789,0.594121,-0.079724,0.208940,0.772684,1.187425,0.243728,-2.370737
1007,232898123,0.636875,-0.102485,0.214867,0.733316,1.572750,0.251244,-2.530345
1008,232931457,0.679010,-0.127417,0.220742,0.688488,3.431139,-0.116854,-0.372410
1009,232964791,0.722351,-0.141998,0.216139,0.641375,3.747269,-0.555651,0.584926
1010,232998125,0.762678,-0.150276,0.206923,0.594100,2.621309,-0.380194,0.818784
1011,233031459,0.797412,-0.158826,0.203517,0.545455,2.939472,-0.902894,1.676356
1012,233064793,0.828850,-0.163085,0.201931,0.495648,2.714591,-1.103376,1.534801
1013,233098127,0.855709,-0.164617,0.205965,0.445280,2.770879,-1.620996,1.240868
1014,233131461,0.877042,-0.164990,0.218211,0.394959,2.035659,-2.371311,1.161706
1015,233164795,0.894024,-0.163825,0.232112,0.346466,1.461010,-3.221233,0.825355
1016,233198129,0.907686,-0.160828,0.242392,0.302522,0.124444,-3.435243,0.391559
1017,233231463,0.918661,-0.159248,0.246817,0.264227,-0.707015,-3.028295,0.332646
1018,233264797,0.927167,-0.160931,0.245032,0.233355,-1.373008,-2.028470,-0.289034
1019,233298131,0.933914,-0.166788,0.237282,0.209085,-1.376517,-1.383630,-1.497298
1020,233331465,0.940258,-0.179735,0.220691,0.186917,-0.240155,-0.229463,-1.013225
1021,233364799,0.944766,-0.202612,0.196609,0.166564,-1.812436,0.504814,-1.707866
1022,233398133,0.941962,-0.241383,0.188883,0.137106,-0.234000,-2.022716,-2.302222
1023,233431467,0.940952,-0.276733,0.163610,0.106264,1.821455,0.509071,0.074130
1024,233464801,0.937188,-0.306927,0.147651,0.075536,1.343930,-2.047562,2.965286
1025,233498135,0.933345,-0.327608,0.138199,0.049729,0.717268,-1.857594,4.729792
1026,233531469,0.929926,-0.339540,0.137791,0.031567,-0.105535,-2.265186,4.314122
1027,233564803,0.927095,-0.345429,0.143675,0.023748,-1.430581,-1.879832,2.380383
1028,233598137,0.924905,-0.349786,0.146856,0.025805,-2.427719,-1.308837,0.822535
1029,233631471,0.923245,-0.355199,0.142179,0.035640,-2.849144,-1.021710,0.745348
1030,233664805,0.921989,-0.361112,0.130756,0.049693,-3.173744,-0.661301,1.095241
1031,233698139,0.920685,-0.365806,0.120092,0.064312,-3.117964,-0.755763,0.961596
1032,233731473,0.919238,-0.368125,0.114715,0.079743,-2.806041,-1.658503,1.216890
1033,233764807,0.918014,-0.367343,0.111795,0.099212,-2.265527,-2.543040,1.517094
1034,233798141,0.916763,-0.363554,0.108717,0.124848,-1.537498,-2.809054,1.455685
1035,233831475,0.914413,-0.357964,0.106062,0.156502,-0.778419,-2.776305,1.025148
1036,233864809,0.910034,-0.351397,0.104690,0.193469,-0.060952,-2.891768,0.899014
1037,233898143,0.903389,-0.343982,0.103571,0.234244,0.648570,-3.008843,0.981849
1038,233931477,0.894224,-0.335925,0.101813,0.277822,1.332338,-2.500897,0.638985
1039,233964811,0.881987,-0.327780,0.101556,0.323076,1.664406,-2.090302,0.613955
1040,233998145,0.866723,-0.319955,0.103066,0.368550,2.006366,-2.093874,0.789405
1041,234031479,0.849034,-0.311809,0.104305,0.413604,2.229595,-1.684453,0.605862
1042,234064813,0.828908,-0.303971,0.106247,0.457447,2.131795,-1.128296,0.598398
1043,234098147,0.806281,-0.296998,0.109364,0.499775,2.207852,-0.781665,0.681300
1044,234131481,0.781331,-0.290640,0.113618,0.540532,2.161408,-0.527686,1.040401
1045,234164815,0.754506,-0.283446,0.117943,0.580087,2.017299,-0.222106,1.315548
1046,234198149,0.725845,-0.274543,0.122286,0.618752,1.356177,-0.057314,1.341475
1047,234231483,0.696257,-0.263709,0.126630,0.655501,1.065808,0.026078,1.807054
1048,234264817,0.666728,-0.250866,0.132180,0.689275,0.578792,-0.270524,1.694254
1049,234298151,0.636911,-0.235882,0.137891,0.720918,0.766484,-0.757999,2.239924
1050,234331485,0.607540,-0.215927,0.140300,0.751411,0.982246,-0.428257,2.461968
1051,234364819,0.578991,-0.192316,0.141416,0.779627,1.024669,0.622425,3.034118
1052,234398153,0.551512,-0.164784,0.143430,0.805072,1.516256,1.948153,3.564507
1053,234431487,0.524683,-0.133326,0.149544,0.827406,1.274193,2.782316,2.925312
1054,234464821,0.498591,-0.099521,0.160089,0.846113,0.793572,2.986842,1.991941
1055,234498155,0.476824,-0.062759,0.171076,0.859922,-0.279852,1.698731,-0.284489
1056,234531489,0.460696,-0.028179,0.180996,0.868469,-1.244111,0.305734,-1.746186
1057,234564823,0.450882,0.000473,0.187417,0.872704,-1.133822,-0.721910,-2.091491
1058,234598157,0.451568,0.026732,0.186326,0.872173,-1.612788,-1.367506,-3.114805
1059,234631491,0.458945,0.047383,0.181785,0.868395,-1.499713,1.417854,-2.352637
1060,234664825,0.471905,0.066941,0.177412,0.861035,-0.116997,4.127332,-1.355771
1061,234698159,0.485327,0.077843,0.167311,0.854656,2.866528,4.641311,-3.215489
1062,234731493,0.492762,0.073000,0.165945,0.851089,1.277504,5.578755,-3.236520
1063,234764827,0.486849,0.061849,0.176057,0.853340,3.981630,5.581640,-3.467588
1064,234798161,0.470935,0.060339,0.185378,0.860376,2.309911,4.298466,-3.861172
1065,234831495,0.445146,0.059862,0.193478,0.872273,1.666415,3.134552,-3.600084
1066,234864829,0.413360,0.064772,0.196084,0.886861,0.014770,2.761952,-2.725368
1067,234898163,0.377928,0.079293,0.193174,0.901997,-1.206867,3.232831,-0.919829
1068,234931497,0.342417,0.099655,0.188831,0.914984,-2.879060,2.342366,0.780758
1069,234964831,0.307055,0.113520,0.189462,0.925725,-3.664954,0.609346,1.913547
1070,234998165,0.273065,0.118340,0.195289,0.934519,-2.818085,-0.451618,2.697143
1071,235031499,0.243834,0.122676,0.202405,0.940511,-2.354791,-1.295162,2.630836
1072,235064833,0.220765,0.131215,0.209981,0.943390,-2.105314,-1.861204,2.532941
1073,235098167,0.204611,0.142666,0.218266,0.943490,-1.541705,-2.890505,2.419724
1074,235131501,0.194672,0.154178,0.226360,0.941873,-0.833778,-3.579859,2.180732
1075,235164835,0.190775,0.165122,0.233011,0.939190,-0.035746,-3.771088,1.670295
1076,235198169,0.192780,0.174548,0.237598,0.935921,0.616704,-4.080024,1.128282
1077,235231503,0.202075,0.185155,0.237817,0.931858,0.937373,-3.830505,0.962998
1078,235264837,0.220048,0.197569,0.232498,0.926565,0.480657,-4.457816,1.103180
1079,235298171,0.245836,0.205482,0.223305,0.920603,-0.269022,-3.651806,0.547501
1080,235331505,0.276006,0.206440,0.211380,0.914634,-0.402610,-2.589843,-0.292934
1081,235364839,0.309342,0.203374,0.196924,0.907854,-0.628113,-0.811875,-0.854217
1082,235398173,0.344735,0.201864,0.182020,0.898504,-1.950480,0.648540,-1.025129
1083,235431507,0.379089,0.201963,0.171922,0.886554,-1.236832,4.466377,-1.355748
1084,235464841,0.407419,0.195703,0.165673,0.876524,0.211888,5.080929,-2.590928
1085,235498175,0.428343,0.189963,0.159967,0.868838,0.200261,4.902048,-1.727113
1086,235531509,0.439527,0.184917,0.159216,0.864468,0.791214,4.165266,-2.294642
1087,235564843,0.440308,0.179464,0.162942,0.864525,1.116099,3.140393,-2.503067
1088,235598177,0.434015,0.181532,0.163625,0.867143,0.970033,2.429321,-1.969268
1089,235631511,0.423491,0.188749,0.159606,0.871543,0.157781,2.324963,-1.383794
1090,235664845,0.409840,0.195892,0.154650,0.877367,-0.369501,2.444825,-0.685591
1091,235698179,0.393963,0.201078,0.151456,0.883999,-0.829264,2.697789,-0.009132
1092,235731513,0.377584,0.203179,0.152152,0.890522,-1.474175,3.239950,-0.343987
1093,235764847,0.361498,0.199828,0.158520,0.896823,-1.937173,3.312061,-1.048935
1094,235798181,0.345685,0.190187,0.169184,0.903184,-1.675584,2.805984,-1.515717
1095,235831515,0.331623,0.176085,0.180420,0.909121,-1.621839,2.546033,-2.191165
1096,235864849,0.321855,0.157888,0.191288,0.913741,-1.242211,2.093135,-2.299635
1097,235898183,0.321495,0.141186,0.199665,0.914808,-1.046829,1.254459,-1.072370
1098,235931517,0.332794,0.125270,0.205046,0.911890,-1.835783,0.678821,-1.118983
1099,235964851,0.354697,0.102051,0.210307,0.905306,-1.394012,-0.009649,0.118670
1100,235998185,0.389247,0.078210,0.211616,0.893097,-0.546705,0.174946,0.618955
1101,236031519,0.434550,0.044782,0.211937,0.874228,-1.682620,-0.453312,-0.159863
1102,236064853,0.485916,0.002195,0.215460,0.847048,0.473896,1.268488,0.613915
1103,236098187,0.542528,-0.036116,0.219963,0.809943,2.211631,2.440826,1.538857
1104,236131521,0.595625,-0.074170,0.230478,0.765926,2.692677,2.031241,2.057295
1105,236164855,0.642139,-0.108922,0.246486,0.717684,5.710467,1.320761,2.926616
1106,236198189,0.684861,-0.128716,0.257306,0.669496,5.874588,-1.411234,2.662340
1107,236231523,0.724140,-0.138700,0.264626,0.621602,3.916295,-2.272347,1.629930
1108,236264857,0.759130,-0.145323,0.269107,0.574644,2.958308,-3.413580,0.139381
1109,236298191,0.790758,-0.151052,0.268812,0.528826,2.208121,-4.050903,-0.821978
1110,236331525,0.816542,-0.161405,0.269530,0.484350,1.128086,-3.871513,-1.323236
1111,236364859,0.835016,-0.177565,0.274641,0.442519,0.509345,-4.235300,-1.265950
1112,236398193,0.850810,-0.193019,0.274344,0.404516,-0.162653,-4.169178,-0.923391
1113,236431527,0.865763,-0.207419,0.266240,0.369568,-0.587000,-2.894057,-0.516702
1114,236464861,0.878280,-0.222688,0.255672,0.337192,-0.465442,-2.171250,0.206873
1115,236498195,0.888864,-0.236788,0.244468,0.306789,-0.321379,-1.565231,0.822672
1116,236531529,0.896758,-0.249852,0.237615,0.277434,-0.505855,-1.624205,1.699000
1117,236564863,0.902998,-0.261793,0.231491,0.250006,-0.567903,-1.187094,2.133208
1118,236598197,0.905528,-0.274214,0.232827,0.225055,-0.317477,-0.857024,1.841130
1119,236631531,0.905652,-0.285242,0.238160,0.204313,-0.322956,-1.241426,2.455690
1120,236664865,0.906047,-0.294101,0.237669,0.190076,-0.289382,-0.492522,1.639301
1121,236698199,0.906464,-0.302355,0.233375,0.180202,-0.633134,-0.054763,0.834233
1122,236731533,0.908760,-0.315393,0.211257,0.173453,-0.604916,-0.190438,2.377656
1123,236764867,0.909637,-0.333763,0.177809,0.171987,-2.803560,1.393099,2.986083
1124,236798201,0.905263,-0.358173,0.162560,0.160676,1.463695,2.183251,-4.151591
1125,236831535,0.900944,-0.376075,0.157915,0.148198,1.373140,-1.076950,0.753087
1126,236864869,0.899188,-0.387039,0.144175,0.144598,0.302752,-0.395680,1.462724
1127,236898203,0.898619,-0.392150,0.131750,0.146208,-0.001703,-0.169164,2.780652
1128,236931537,0.898054,-0.393948,0.128540,0.147695,-0.054026,-0.041794,2.125664
1129,236964871,0.896718,-0.395234,0.133703,0.147795,-0.720955,-0.863841,0.563911
1130,236998205,0.895074,-0.397385,0.136855,0.149100,-1.170098,-1.243344,-0.160893
1131,237031539,0.893310,-0.400083,0.135399,0.153721,-1.329078,-1.509205,0.104507
1132,237064873,0.891588,-0.402153,0.130613,0.162223,-1.430426,-1.545739,0.843303
1133,237098207,0.889277,-0.403519,0.127244,0.173781,-1.439195,-1.627963,0.984662
1134,237131541,0.885717,-0.404457,0.127535,0.188911,-1.366981,-1.929654,1.026855
1135,237164875,0.880745,-0.405072,0.130355,0.207955,-1.239854,-2.176611,1.130213
1136,237198209,0.874512,-0.404529,0.134368,0.231436,-1.056834,-2.296206,1.465385
1137,237231543,0.866160,-0.402456,0.141911,0.260175,-0.669882,-2.301802,2.629622
1138,237264877,0.854618,-0.397307,0.157283,0.295077,-0.375100,-2.768535,3.632674
1139,237298211,0.838989,-0.388786,0.177498,0.336852,0.384867,-3.492315,4.121225
1140,237331545,0.818135,-0.376661,0.199663,0.385939,1.584419,-2.833001,4.616345
1141,237364879,0.788974,-0.361081,0.228937,0.441317,2.666464,-2.312155,5.126938
1142,237398213,0.750922,-0.339405,0.259283,0.503712,3.352728,-1.768771,5.377076
1143,237431547,0.703641,-0.311479,0.286203,0.570956,3.609977,-0.376079,3.511710
1144,237464881,0.643531,-0.284171,0.315122,0.637059,3.378731,0.958726,1.234092
1145,237498215,0.573346,-0.256622,0.339809,0.699987,2.774738,2.267014,-0.482087
1146,237531549,0.495826,-0.230569,0.360248,0.755809,1.849609,2.650405,-1.856493
1147,237564883,0.416837,-0.204236,0.373405,0.803204,0.913358,3.097777,-2.359172
1148,237598217,0.341755,-0.177372,0.379972,0.841069,0.176042,2.204761,-3.251994
1149,237631551,0.274964,-0.150463,0.380968,0.869857,-0.420307,2.365109,-3.680136
1150,237664885,0.218661,-0.123915,0.380164,0.890135,-1.350721,0.331711,-3.361405
1151,237698219,0.169332,-0.103805,0.378012,0.904262,-1.224837,0.548944,-3.323438
1152,237731553,0.127684,-0.088046,0.375899,0.913607,-0.644686,0.488126,-2.096035
1153,237764887,0.092751,-0.075312,0.373980,0.919727,-1.085950,-0.690404,-2.263398
1154,237798221,0.061879,-0.071205,0.372506,0.923240,-0.381039,-0.505462,-1.547124
1155,237831555,0.039486,-0.064332,0.369004,0.926375,0.343786,-0.010835,-2.015813
1156,237864889,0.023275,-0.053471,0.364622,0.929345,0.562507,0.594149,-1.771090
1157,237898223,0.006950,-0.045262,0.360194,0.931770,-0.114033,-1.252483,-1.476675
1158,237931557,-0.011980,-0.053555,0.355617,0.933036,-0.485731,-4.176723,-1.205355
1159,237964891,-0.021779,-0.065815,0.350222,0.934115,0.134595,-4.024706,0.436632
1160,237998225,-0.007703,-0.058734,0.341656,0.937974,0.215108,-4.069400,1.099195
1161,238031559,0.028745,-0.035008,0.324619,0.944777,0.471466,-4.867287,0.620867
1162,238064893,0.078828,-0.003974,0.295863,0.951981,0.583180,-2.855591,-0.221659
1163,238098227,0.134850,0.028354,0.256112,0.956792,0.348970,-4.024930,-1.287212
1164,238131561,0.190052,0.051277,0.207572,0.958226,-2.364432,-0.564732,-1.214793
1165,238164895,0.241996,0.064578,0.157119,0.955308,-1.797270,4.023769,-1.204072
1166,238198229,0.292703,0.077184,0.107744,0.946991,-2.517494,4.015366,-0.362035
1167,238231563,0.335144,0.083281,0.065927,0.936178,-1.630969,6.502998,-0.195499
1168,238264897,0.366914,0.083436,0.036104,0.925819,-1.025216,4.421366,1.145106
1169,238298231,0.392042,0.085344,0.012099,0.915918,0.240123,4.130955,1.754307
1170,238331565,0.412441,0.092533,-0.009904,0.906236,0.152278,4.650000,1.417660
1171,238364899,0.424839,0.096602,-0.023897,0.899800,-0.417974,4.161160,1.358332
1172,238398233,0.428218,0.101022,-0.024822,0.897686,-0.139342,5.162014,2.683501
1173,238431567,0.423079,0.105489,-0.014155,0.899838,0.053817,4.327257,1.733195
1174,238464901,0.412180,0.106891,0.002049,0.904826,-0.229656,3.017240,0.223282
1175,238498235,0.395577,0.110302,0.015387,0.911673,-0.680607,2.841064,0.699677
1176,238531569,0.377888,0.115201,0.029736,0.918193,-0.984143,2.673115,0.631997
1177,238564903,0.359124,0.118725,0.045733,0.924594,-1.643393,1.675026,0.257140
1178,238598237,0.339248,0.118929,0.063273,0.931018,-0.883226,1.027689,0.090148
1179,238631571,0.320898,0.123319,0.078728,0.935762,-0.746804,0.229961,0.181480
1180,238664905,0.305557,0.129242,0.092216,0.938861,-0.938029,-1.025352,0.315022
1181,238698239,0.294001,0.134773,0.103555,0.940589,-0.551425,-1.684112,0.232897
1182,238731573,0.287559,0.142745,0.111937,0.940445,-0.733881,-2.559510,0.240588
1183,238764907,0.286591,0.150653,0.118752,0.938669,-0.848048,-3.546746,-0.025914
1184,238798241,0.290676,0.156340,0.125507,0.935599,-1.017978,-4.096081,-0.175948
1185,238831575,0.301025,0.162854,0.130043,0.930582,-0.363292,-3.926194,-0.165968
1186,238864909,0.319168,0.170716,0.129850,0.923124,-0.745934,-3.866667,-0.457321
1187,238898243,0.343841,0.175314,0.125032,0.914023,-0.801630,-3.352063,-0.384530
1188,238931577,0.373677,0.172733,0.115926,0.903948,-0.420320,-2.468930,-0.857334
1189,238964911,0.406991,0.164884,0.101497,0.892694,-0.355095,-1.427842,-0.891382
1190,238998245,0.441676,0.153018,0.083120,0.880132,0.001919,-0.310279,-0.772585
1191,239031579,0.475968,0.139134,0.064080,0.866038,-0.931213,0.886548,-0.867478
1192,239064913,0.506838,0.127077,0.048206,0.851279,1.954304,3.538915,0.043729
1193,239098247,0.534577,0.121139,0.034092,0.835717,0.922203,3.679097,0.217448
1194,239131581,0.552884,0.108563,0.026678,0.825745,3.130930,3.731106,-0.158753
1195,239164915,0.563383,0.095788,0.025195,0.820257,2.923997,3.286864,0.144404
1196,239198249,0.566011,0.086936,0.026731,0.819385,2.419668,3.063456,0.158780
1197,239231583,0.562095,0.079191,0.032841,0.822637,1.686898,3.125803,0.051810
1198,239264917,0.553129,0.069555,0.044030,0.829038,1.747690,2.837032,-0.328251
1199,239298251,0.540747,0.063473,0.055672,0.836957,1.063562,3.196955,-0.476143
1200,239331585,0.526017,0.056841,0.069528,0.845738,0.432557,2.185217,-0.566966
1201,239364919,0.512231,0.052484,0.081720,0.853358,0.123186,1.473037,-0.040602
1202,239398253,0.501280,0.051010,0.091192,0.858972,-1.044415,1.060002,0.450734
1203,239431587,0.493621,0.046705,0.101380,0.862503,-1.143363,-0.368974,1.142453
1204,239464921,0.492991,0.047898,0.107697,0.862032,-1.682907,-1.404472,1.554757
1205,239498255,0.501311,0.055749,0.110782,0.856352,-2.324875,-2.431324,1.625281
1206,239531589,0.516597,0.062390,0.115077,0.846182,-2.183350,-2.830336,2.185063
1207,239564923,0.536240,0.065652,0.121112,0.832767,-1.353689,-3.175907,2.528526
1208,239598257,0.558567,0.068053,0.126342,0.816971,-0.671370,-3.644817,2.037424
1209,239631591,0.581438,0.069921,0.129561,0.800180,0.489703,-2.830883,2.171193
1210,239664925,0.603202,0.071018,0.131663,0.783455,0.024778,-2.658656,0.930581
1211,239698259,0.623444,0.068024,0.134241,0.767269,-0.710026,-2.031411,-0.703586
1212,239731593,0.643444,0.067992,0.132741,0.750845,0.037375,-0.277050,-0.698337
1213,239764927,0.664525,0.069241,0.126043,0.733320,0.290762,1.398513,-0.971582
1214,239798261,0.684371,0.062839,0.117465,0.716884,1.084839,1.849673,-2.486670
1215,239831595,0.703702,0.053360,0.110642,0.699819,0.683327,3.318217,-1.736986
1216,239864929,0.720544,0.043527,0.105935,0.683910,1.978302,3.755617,-1.583926
1217,239898263,0.735068,0.033364,0.105058,0.668997,1.856744,3.379341,-1.598110
1218,239931597,0.747886,0.022645,0.107931,0.654627,1.972936,2.820446,-1.470714
1219,239964931,0.760374,0.011366,0.112724,0.639553,1.665802,2.741863,-1.833456
1220,239998265,0.773371,-0.002313,0.120486,0.622421,1.668750,2.051896,-1.601088
1221,240031599,0.788513,-0.017585,0.129722,0.600952,2.449166,1.692596,-0.981696
1222,240064933,0.806346,-0.028541,0.137830,0.574480,3.757227,0.379943,-0.638309
1223,240098267,0.825505,-0.034764,0.145304,0.544291,2.331703,-0.291381,-0.591518
1224,240131601,0.843317,-0.045359,0.157243,0.511924,2.519195,-0.716187,-0.006382
1225,240164935,0.859918,-0.060278,0.171092,0.477145,1.046678,-0.885205,-0.464729
1226,240198269,0.875983,-0.078055,0.183193,0.439357,0.383612,-0.898894,0.064142
1227,240231603,0.891815,-0.097578,0.189955,0.398866,-0.664020,-0.646877,-0.203869
1228,240264937,0.905985,-0.121260,0.194893,0.355718,-1.131284,-0.620699,0.936695
1229,240298271,0.919067,-0.145290,0.193345,0.311218,-0.654084,-0.710378,1.538007
1230,240331605,0.931519,-0.165426,0.182763,0.267462,-0.998121,-1.210046,1.483680
1231,240364939,0.942713,-0.187284,0.161237,0.224170,-0.267735,0.424019,3.435523
1232,240398273,0.946946,-0.220561,0.147186,0.181697,-1.771028,-1.487430,2.690623
1233,240431607,0.947683,-0.254235,0.133153,0.139874,-0.573486,-2.218347,-0.744452
1234,240464941,0.946885,-0.281282,0.115506,0.104786,0.768768,-1.525613,-0.126418
1235,240498275,0.945049,-0.304247,0.090357,0.078646,-0.304004,-2.817490,0.367624
1236,240531609,0.941424,-0.325174,0.066859,0.059539,-0.104151,-2.803486,1.753131
1237,240564943,0.937324,-0.341089,0.055740,0.044808,-0.504426,-2.479477,2.325971
1238,240598277,0.934414,-0.350557,0.053253,0.034312,-1.434619,-2.685740,2.829056
1239,240631611,0.932827,-0.354855,0.055635,0.029142,-1.727642,-2.172201,1.696374
1240,240664945,0.932184,-0.355869,0.059685,0.029315,-1.835108,-1.768581,1.214276
1241,240698279,0.932338,-0.354628,0.062483,0.033355,-1.881021,-1.238249,1.828711
1242,240731613,0.932774,-0.352120,0.066340,0.039707,-1.714996,-1.033602,1.169679
1243,240764947,0.933226,-0.348834,0.071453,0.048277,-1.472839,-1.183833,0.953257
1244,240798281,0.933861,-0.344431,0.075632,0.059858,-1.180217,-1.342013,1.075075
1245,240831615,0.934653,-0.338321,0.079670,0.075157,-0.948156,-1.516137,1.221783
1246,240864949,0.935180,-0.330654,0.084921,0.094486,-0.552402,-1.707202,1.454115
1247,240898283,0.935032,-0.321233,0.092201,0.118555,-0.162561,-2.355424,1.465292
1248,240931617,0.933751,-0.310150,0.100202,0.148016,0.195187,-2.651808,0.983520
1249,240964951,0.930691,-0.298292,0.107927,0.182265,0.530511,-2.776357,0.972401
1250,240998285,0.925032,-0.286729,0.116168,0.220542,0.930136,-2.753256,0.726595
1251,241031619,0.915972,-0.276209,0.126211,0.262309,1.259627,-2.717351,0.590608
1252,241064953,0.903752,-0.265986,0.136078,0.306592,1.518591,-2.635821,0.669867
1253,241098287,0.888340,-0.256246,0.144632,0.352569,1.504172,-2.179426,0.605783
1254,241131621,0.868618,-0.249080,0.153278,0.399999,1.733063,-1.972255,0.514082
1255,241164955,0.843967,-0.244695,0.162716,0.448775,1.926963,-2.146360,0.005174
1256,241198289,0.815802,-0.240399,0.165268,0.499394,2.305903,-2.070413,0.253140
1257,241231623,0.783755,-0.237276,0.161365,0.550838,2.385361,-1.544239,-0.240353
1258,241264957,0.746769,-0.236745,0.154607,0.602011,2.490635,-1.198680,-0.209809
1259,241298291,0.706889,-0.235467,0.144558,0.651152,1.874685,-0.498786,0.399280
1260,241331625,0.666507,-0.230723,0.132242,0.696477,1.064427,-0.399274,1.555110
1261,241364959,0.627414,-0.219882,0.118763,0.737517,0.539299,0.067762,2.851238
1262,241398293,0.590653,-0.201341,0.106449,0.774139,0.403701,0.996176,3.606131
1263,241431627,0.557063,-0.176656,0.099231,0.805394,-0.152009,1.707766,3.577158
1264,241464961,0.527547,-0.148164,0.097924,0.830773,-0.361202,2.014584,2.862509
1265,241498295,0.503917,-0.117273,0.100521,0.849849,-0.916226,2.225171,1.551560
1266,241531629,0.487197,-0.087260,0.105467,0.862516,-1.468413,1.910339,-0.145493
1267,241564963,0.477027,-0.061456,0.110933,0.869710,-1.251814,1.652375,-1.420713
1268,241598297,0.473908,-0.038305,0.113313,0.872432,-1.323376,1.673976,-1.938190
1269,241631631,0.477424,-0.019153,0.111970,0.871318,-1.286268,1.649907,-2.154889
1270,241664965,0.484950,-0.008362,0.109021,0.867698,-0.970868,1.942839,-2.690878
1271,241698299,0.494037,-0.006829,0.105778,0.862974,-0.252452,2.255528,-3.043572
1272,241731633,0.503442,-0.008232,0.100855,0.858102,0.448356,3.345337,-2.170322
1273,241764967,0.510882,-0.008536,0.096579,0.854185,0.493416,3.467341,-1.647382
1274,241798301,0.513226,-0.012372,0.095781,0.852821,1.341348,4.067592,-2.191138
1275,241831635,0.505329,-0.021033,0.097744,0.857134,2.899627,4.354266,-2.960648
1276,241864969,0.487360,-0.038580,0.108475,0.865597,2.337570,3.734328,-1.713340
1277,241898303,0.461756,-0.051337,0.119019,0.877504,2.354225,3.287022,-0.510078
1278,241931637,0.432341,-0.054032,0.125192,0.891359,0.710861,2.423500,0.501023
1279,241964971,0.401446,-0.049031,0.128508,0.905514,-0.357015,1.915534,0.840109
1280,241998305,0.370560,-0.041630,0.132643,0.918363,-1.657457,0.470779,1.294187
1281,242031639,0.340400,-0.037820,0.139397,0.929138,-1.651294,-0.210967,1.478269
1282,242064973,0.311919,-0.035506,0.146873,0.938033,-1.345090,-0.742271,1.342001
1283,242098307,0.284647,-0.033378,0.153399,0.945708,-0.846245,-1.236375,1.206376
1284,242131641,0.259673,-0.027603,0.157545,0.952376,-0.872981,-0.987085,1.057605
1285,242164975,0.237272,-0.019720,0.160741,0.957866,-1.229554,-1.721360,0.831280
1286,242198309,0.217280,-0.013448,0.164146,0.962131,-1.189167,-1.921610,0.788570
1287,242231643,0.201132,-0.006974,0.167186,0.965183,-0.780310,-1.619130,0.627365
1288,242264977,0.189224,-0.000946,0.169636,0.967186,-0.659454,-2.193409,0.396595
1289,242298311,0.180805,0.005240,0.171583,0.968439,0.394894,-1.757966,0.491329
1290,242331645,0.179283,0.017837,0.173731,0.968189,-0.451909,-2.635659,1.234218
1291,242364979,0.182373,0.031616,0.177374,0.966598,-0.627035,-3.158611,1.375121
1292,242398313,0.188707,0.042584,0.182021,0.964094,-0.260777,-3.223194,0.859227
1293,242431647,0.198859,0.054669,0.185280,0.960817,0.133885,-2.574637,0.977220
1294,242464981,0.214194,0.068889,0.184579,0.956733,0.198405,-2.635101,0.270615
1295,242498315,0.234148,0.078072,0.179420,0.952323,-0.170784,-1.960352,-0.151607
1296,242531649,0.258316,0.084915,0.168893,0.947402,-0.409779,-0.222001,-0.365394
1297,242564983,0.285139,0.086758,0.155629,0.941796,-1.518744,-0.119223,-1.354409
1298,242598317,0.310879,0.078583,0.145512,0.935969,-1.360833,3.272529,-0.644677
1299,242631651,0.333790,0.066705,0.139862,0.929842,-2.436477,4.388299,-1.157347
1300,242664985,0.347884,0.046866,0.133678,0.926792,-0.016709,5.926505,-2.088178
1301,242698319,0.354941,0.039421,0.132028,0.924697,-0.458067,4.087958,-2.556034
1302,242731653,0.354292,0.030206,0.135897,0.924732,0.071981,3.375782,-2.571805
1303,242764987,0.348509,0.026110,0.136871,0.926908,0.217915,2.317040,-2.533890
1304,242798321,0.340721,0.024747,0.132913,0.930410,-0.862901,2.186062,-2.215339
1305,242831655,0.331602,0.018657,0.128499,0.934458,-1.595903,1.581248,-1.757335
1306,242864989,0.321519,0.006588,0.126204,0.938449,-1.387033,1.980114,-1.507694
1307,242898323,0.312919,-0.007629,0.124673,0.941548,-0.747939,1.221955,-0.432051
1308,242931657,0.307116,-0.021658,0.121579,0.943643,-1.184425,0.764342,-0.002574
1309,242964991,0.304214,-0.036705,0.118282,0.944536,-0.754621,-0.264221,0.836237
1310,242998325,0.305797,-0.047370,0.112687,0.944234,-1.188867,-0.980461,1.684406
1311,243031659,0.311623,-0.056299,0.106281,0.942581,-1.372267,-2.255165,2.324598
1312,243064993,0.323438,-0.066288,0.100473,0.938579,-1.253066,-2.499566,3.000635
1313,243098327,0.340528,-0.072740,0.093612,0.932748,-0.617528,-2.746967,3.685740
1314,243131661,0.361234,-0.076986,0.088161,0.925118,-0.235244,-2.838276,3.956936
1315,243164995,0.383646,-0.077788,0.085215,0.916261,0.492247,-2.553761,3.959919
1316,243198329,0.406041,-0.078031,0.087015,0.906368,1.084661,-2.206429,3.534511
1317,243231663,0.426521,-0.077207,0.092917,0.896391,1.841256,-2.404031,2.855734
1318,243264997,0.445829,-0.069903,0.098807,0.886916,1.651489,-2.572484,2.524104
1319,243298331,0.465220,-0.060181,0.102929,0.877147,1.234855,-2.676015,1.343371
1320,243331665,0.486295,-0.049407,0.103819,0.866216,0.508609,-2.230634,0.312215
1321,243364999,0.510392,-0.038230,0.100480,0.853215,-0.231464,-1.218526,-1.176643
1322,243398333,0.536155,-0.035124,0.097458,0.837758,-0.652784,0.644186,-1.740786
1323,243431667,0.561357,-0.040430,0.096130,0.820996,-0.758747,1.878791,-2.165759
1324,243465001,0.583351,-0.055917,0.095773,0.804634,1.942675,3.404248,-3.260508
1325,243498335,0.599309,-0.070197,0.087982,0.792586,2.297964,4.411536,-2.518681
1326,243531669,0.606242,-0.084499,0.081421,0.786596,1.559707,4.729833,-2.503663
1327,243565003,0.603188,-0.101324,0.081891,0.786908,1.658579,4.631510,-3.085551
1328,243598337,0.593019,-0.117900,0.085195,0.791961,2.465576,4.571982,-2.668321
1329,243631671,0.580884,-0.126368,0.084193,0.799718,0.676664,4.244699,-2.144876
1330,243665005,0.567456,-0.137216,0.083060,0.807650,-0.028810,4.072111,-1.431993
1331,243698339,0.554835,-0.153317,0.083260,0.813482,-0.662418,3.986143,-0.592758
1332,243731673,0.544918,-0.172628,0.084816,0.816151,-0.476710,3.044910,0.462102
1333,243765007,0.540456,-0.192490,0.086335,0.814514,-1.356214,2.052516,1.453927
1334,243798341,0.542123,-0.216694,0.091603,0.806714,-1.369765,1.834122,1.797441
1335,243831675,0.549729,-0.243037,0.099702,0.792983,-0.121790,0.533717,2.294249
1336,243865009,0.563555,-0.262790,0.103041,0.776377,-0.000440,-0.336479,2.476961
1337,243898343,0.582569,-0.276851,0.101156,0.757474,-0.237303,-1.021590,2.047296
1338,243931677,0.605369,-0.285692,0.093913,0.736968,-0.097454,-1.118400,2.042085
1339,243965011,0.631843,-0.289831,0.083197,0.714061,-0.113036,-1.414422,2.018435
1340,243998345,0.661027,-0.293283,0.074578,0.686657,-0.019111,-1.402711,1.639633
1341,244031679,0.690671,-0.296985,0.071806,0.655477,0.946616,-1.925643,1.723489
1342,244065013,0.720523,-0.295694,0.069626,0.623374,1.179380,-2.469175,1.456610
1343,244098347,0.750383,-0.287883,0.065592,0.591421,0.612759,-2.371357,1.192798
1344,244131681,0.779844,-0.277017,0.062933,0.557832,0.969110,-2.204475,2.165187
1345,244165015,0.808252,-0.261861,0.063553,0.523594,1.122059,-1.444008,2.651399
1346,244198349,0.834061,-0.244219,0.074135,0.489118,0.603439,-1.117343,2.141609
1347,244231683,0.857652,-0.222646,0.088711,0.454999,0.052650,-1.038049,0.713005
1348,244265017,0.879632,-0.198761,0.103730,0.419540,-0.575908,-0.431203,-0.452508
1349,244298351,0.899688,-0.175665,0.117514,0.382003,-1.085378,-0.534707,-1.343762
1350,244331685,0.917425,-0.155636,0.128819,0.342851,-1.798944,-0.363431,-2.735745
1351,244365019,0.932445,-0.141858,0.137666,0.302494,-2.670872,-1.045413,-3.660007
1352,244398353,0.945260,-0.140822,0.133768,0.262282,-2.556768,-0.024271,-0.750456
1353,244431687,0.953703,-0.159113,0.125402,0.222353,-2.082957,-2.848390,0.680381
1354,244465021,0.959108,-0.181097,0.117486,0.183152,0.674082,-3.053606,-2.284645
1355,244498355,0.960966,-0.198731,0.112832,0.156047,2.082137,-5.689178,-0.039050
1356,244531689,0.962188,-0.210193,0.096816,0.143778,1.627177,-4.397476,3.502426
1357,244565023,0.962957,-0.214464,0.085245,0.139585,2.073066,-0.540085,2.920547
1358,244598357,0.962667,-0.213273,0.093965,0.137801,1.875586,-0.063054,1.634897
1359,244631691,0.962034,-0.208603,0.109859,0.137617,0.925942,-0.029900,0.222762
1360,244665025,0.961290,-0.204784,0.120962,0.139235,0.089523,-0.046048,-1.351454
1361,244698359,0.960352,-0.205386,0.124305,0.141850,-0.577315,-0.085274,-2.108524
1362,244731693,0.959119,-0.211634,0.120902,0.143933,-0.603382,-0.000334,-1.608383
1363,244765027,0.957377,-0.222394,0.115483,0.143761,-0.273679,-0.024197,-0.796430
1364,244798361,0.954749,-0.235954,0.113175,0.141436,0.328160,-0.611927,0.009126
1365,244831695,0.951464,-0.249104,0.115816,0.138861,0.343443,-1.309402,0.745875
1366,244865029,0.948042,-0.260365,0.120059,0.138005,-0.305448,-1.770535,0.901303
1367,244898363,0.944600,-0.270172,0.122630,0.140471,-0.470883,-1.975378,1.430903
1368,244931697,0.941094,-0.277483,0.125581,0.146995,-1.004974,-1.909954,1.964980
1369,244965031,0.937134,-0.282716,0.129507,0.158466,-1.490335,-2.240445,2.138332
1370,244998365,0.932721,-0.286051,0.132333,0.175290,-1.486840,-2.366184,2.308622
1371,245031699,0.927901,-0.286460,0.134364,0.197279,-1.243976,-2.217654,2.511338
1372,245065033,0.922109,-0.283765,0.136681,0.224816,-0.976491,-2.233505,2.510240
1373,245098367,0.914926,-0.278012,0.139026,0.257535,-0.479524,-2.343626,2.392654
1374,245131701,0.906154,-0.269014,0.141594,0.294108,-0.309720,-1.839609,1.906212
1375,245165035,0.895110,-0.258041,0.145664,0.333177,0.096940,-1.936925,1.588712
1376,245198369,0.881709,-0.245555,0.150183,0.373858,0.464866,-1.891034,1.441682
1377,245231703,0.865925,-0.231632,0.153301,0.415994,0.795541,-1.598756,1.280389
1378,245265037,0.847027,-0.217393,0.157080,0.458958,1.381771,-1.589472,1.326148
1379,245298371,0.824851,-0.202397,0.161240,0.502683,1.813072,-1.362409,1.147897
1380,245331705,0.799817,-0.185977,0.164168,0.546614,2.152848,-0.972737,1.058110
1381,245365039,0.772074,-0.168284,0.165788,0.590024,2.056729,-0.465852,0.330875
1382,245398373,0.741888,-0.150561,0.166524,0.631851,1.841241,-0.154647,-0.055049
1383,245431707,0.710264,-0.133072,0.165724,0.671107,1.750374,0.292221,-0.452374
1384,245465041,0.678245,-0.115741,0.163533,0.707020,1.476586,0.388471,-0.745806
1385,245498375,0.646978,-0.099119,0.160259,0.738880,0.981635,0.835363,-0.685359
1386,245531709,0.617045,-0.085063,0.158128,0.766190,1.400576,1.295377,-0.021664
1387,245565043,0.588895,-0.072133,0.156621,0.789621,1.611686,1.472094,0.096706
1388,245598377,0.561156,-0.061783,0.156980,0.810355,1.317284,1.047770,-0.425937
1389,245631711,0.533344,-0.054402,0.157007,0.829437,1.496751,0.704344,-0.808702
1390,245665045,0.508228,-0.045818,0.152515,0.846390,0.610164,0.340038,-1.384898
1391,245698379,0.486650,-0.037607,0.144044,0.860838,0.157732,-0.237195,-1.738198
1392,245731713,0.470584,-0.029584,0.131479,0.872021,-0.648830,-0.036972,-2.343092
1393,245765047,0.460910,-0.021324,0.117351,0.879413,-1.331545,1.028233,-1.848374
1394,245798381,0.456354,-0.014545,0.106778,0.883267,-1.061239,3.171052,-0.724186
1395,245831715,0.454145,-0.013762,0.098724,0.885352,-0.593336,3.945791,-1.007723
1396,245865049,0.451420,-0.015823,0.092358,0.887396,-0.456682,4.691131,-0.396873
1397,245898383,0.445791,-0.019738,0.090387,0.890361,-0.109000,4.872210,0.476899
1398,245931717,0.436957,-0.024984,0.093974,0.894229,-0.600263,4.184092,0.026322
1399,245965051,0.423301,-0.031810,0.101468,0.899745,-0.172112,4.161097,0.357093
1400,245998385,0.406180,-0.035522,0.107701,0.906746,-0.266630,3.196876,0.736014
1401,246031719,0.386940,-0.038891,0.113363,0.914301,-0.899895,2.367651,0.836486
1402,246065053,0.364904,-0.041969,0.120657,0.922257,-0.799881,1.976629,1.367859
1403,246098387,0.341204,-0.042137,0.128718,0.930198,-0.946263,1.022331,1.773836
1404,246131721,0.316862,-0.040986,0.137127,0.937629,-1.037699,0.448796,2.068304
1405,246165055,0.293434,-0.037629,0.145063,0.944177,-0.847565,-0.637064,1.944366
1406,246198389,0.272341,-0.029882,0.152101,0.949650,-1.123630,-1.584437,1.812913
1407,246231723,0.254662,-0.018280,0.158975,0.953715,-1.312491,-1.848458,1.732677
1408,246265057,0.241309,-0.005574,0.166679,0.956028,-1.212628,-2.441227,1.396262
1409,246298391,0.233321,0.008305,0.174777,0.956545,-1.275918,-2.764708,0.728872
1410,246331725,0.230925,0.020813,0.183318,0.955336,-1.288741,-2.956306,-0.150558
1411,246365059,0.232978,0.030978,0.191523,0.952949,-0.756259,-2.484444,-0.579477
1412,246398393,0.239205,0.038949,0.197732,0.949841,-0.183822,-2.454847,-0.615588
1413,246431727,0.249262,0.045746,0.200311,0.946405,0.067994,-2.475628,-0.829090
1414,246465061,0.263770,0.055574,0.197831,0.942461,0.398057,-2.791035,-1.211444
1415,246498395,0.284116,0.067519,0.188439,0.937679,-0.689452,-2.522489,-0.528500
1416,246531729,0.309481,0.075183,0.171281,0.932343,-0.865307,-2.013693,-0.876101
1417,246565063,0.339823,0.073397,0.149285,0.925678,-0.955070,0.015431,-1.062843
1418,246598397,0.372836,0.068288,0.125073,0.916907,-1.246837,1.267666,-1.618474
1419,246631731,0.402539,0.057145,0.104322,0.907659,-1.673946,3.362624,-1.651694
1420,246665065,0.427332,0.048453,0.089740,0.898342,0.048655,4.266798,-1.308113
1421,246698399,0.446402,0.043084,0.080822,0.890151,0.330048,4.415733,-0.903675
1422,246731733,0.456712,0.033190,0.081275,0.885290,0.415798,4.310120,-0.802373
1423,246765067,0.458853,0.020677,0.084349,0.884276,2.403052,2.857113,-1.308511
1424,246798401,0.454110,0.016520,0.078653,0.887332,2.721258,2.790613,-1.227524
1425,246831735,0.447041,0.016275,0.074562,0.891270,-0.759044,2.762771,0.904364
1426,246865069,0.437533,0.006902,0.079151,0.895703,-0.140708,2.521557,0.795984
1427,246898403,0.426999,-0.004585,0.089156,0.899852,-0.466332,1.985452,1.016206
1428,246931737,0.415377,-0.016942,0.102993,0.903659,-0.238291,1.368164,1.447396
1429,246965071,0.404635,-0.025133,0.117045,0.906626,-0.514471,-0.115570,1.796133
1430,246998405,0.396682,-0.028733,0.128990,0.908412,-1.034526,-0.747315,2.239141
1431,247031739,0.392123,-0.030069,0.140237,0.908681,-1.488044,-1.810778,2.695677
1432,247065073,0.391691,-0.028811,0.150811,0.907213,-1.342689,-2.238144,3.151738
1433,247098407,0.395668,-0.023896,0.160688,0.903929,-1.396946,-2.579422,2.920398
1434,247131741,0.403080,-0.016647,0.170965,0.898917,-1.107553,-2.541440,2.394869
1435,247165075,0.413275,-0.006743,0.182109,0.892203,-0.816046,-2.514591,1.903697
1436,247198409,0.426082,0.004639,0.193356,0.883786,-0.699517,-2.604743,0.717393
1437,247231743,0.440330,0.014642,0.204623,0.874103,-0.124634,-2.004180,0.055586
1438,247265077,0.455413,0.023039,0.215143,0.863605,0.527377,-1.594455,-0.419842
1439,247298411,0.470831,0.029411,0.223847,0.852865,0.518791,-2.290715,-1.331655
1440,247331745,0.487620,0.036591,0.227441,0.842134,0.775607,-2.266599,-1.853284
1441,247365079,0.507964,0.048279,0.220130,0.831395,-0.134767,-1.780269,-1.547465
1442,247398413,0.530800,0.050480,0.205785,0.820602,-1.036776,-2.230801,-1.953585
1443,247431747,0.555204,0.038128,0.188871,0.809107,-0.155520,-1.165513,-3.303949
1444,247465081,0.579690,0.017950,0.168125,0.797122,0.299397,-0.465147,-4.066373
1445,247498415,0.603218,-0.003352,0.140869,0.785051,2.561155,2.181854,-2.795870
1446,247531749,0.623336,-0.018078,0.107996,0.774270,2.159163,3.840381,-1.649950
1447,247565083,0.635384,-0.034705,0.083345,0.766922,3.022363,4.486045,-0.771301
1448,247598417,0.639321,-0.047975,0.065627,0.764652,3.993274,4.402192,-0.726538
1449,247631751,0.634872,-0.057908,0.054698,0.768521,1.974449,3.383811,0.176076
1450,247665085,0.627736,-0.071387,0.054317,0.773262,-0.287178,3.308050,0.882738
1451,247698419,0.618626,-0.093936,0.059872,0.777770,-0.962564,2.596951,-0.042558
1452,247731753,0.608675,-0.118448,0.064446,0.781897,-0.816045,2.729252,-0.305167
1453,247765087,0.600284,-0.141568,0.067666,0.784265,0.475939,2.312016,0.486014
1454,247798421,0.600647,-0.157245,0.067944,0.780969,-1.223756,2.186030,1.614501
1455,247831755,0.607892,-0.169782,0.070492,0.772466,-2.875967,2.255654,3.084200
1456,247865089,0.618597,-0.185167,0.080761,0.759316,-2.396113,1.995775,4.303183
1457,247898423,0.634434,-0.196188,0.095745,0.741532,-1.360548,0.979997,5.267112
1458,247931757,0.655378,-0.195811,0.111120,0.720987,-1.587026,0.503688,5.081980
1459,247965091,0.678704,-0.187013,0.129109,0.698391,-1.246376,0.148210,3.930776
1460,247998425,0.703140,-0.174466,0.150407,0.672730,-1.128833,0.187669,2.402686
1461,248031759,0.728386,-0.160469,0.173700,0.643089,-0.463487,0.149097,1.239083
1462,248065093,0.753816,-0.147497,0.198604,0.608765,-0.561837,0.117157,-0.681680
1463,248098427,0.778250,-0.137226,0.225093,0.569966,-0.052494,-0.414148,-2.344922
1464,248131761,0.804924,-0.123441,0.243266,0.526985,0.449865,-1.254545,-1.860487
1465,248165095,0.835071,-0.105599,0.246470,0.480407,0.495165,-1.139580,-1.658353
1466,248198429,0.862332,-0.092407,0.248588,0.431370,-0.160998,-1.383559,-2.775017
1467,248231763,0.886659,-0.083138,0.253268,0.377905,-1.276378,-0.877695,-3.574354
1468,248265097,0.912487,-0.076569,0.243622,0.319665,-0.429988,-0.012742,2.301788
1469,248298431,0.940295,-0.090445,0.198658,0.261213,-0.480915,1.351409,-0.307204
1470,248331765,0.956322,-0.125156,0.171976,0.200602,4.089824,-2.840703,0.058636
1471,248365099,0.965963,-0.152645,0.145583,0.149839,5.382316,-3.997568,0.814956
1472,248398433,0.971896,-0.168909,0.116497,0.115539,3.149380,-4.996797,-0.747307
1473,248431767,0.975848,-0.177344,0.085163,0.095125,1.225733,-3.930225,-0.147741
1474,248465101,0.977889,-0.182500,0.058117,0.084151,1.009968,-2.784887,-0.693109
1475,248498435,0.978116,-0.188026,0.042750,0.078355,0.782046,-2.789804,-0.463211
1476,248531769,0.977093,-0.194818,0.038210,0.076854,0.427202,-2.304986,-0.440690
1477,248565103,0.975170,-0.202905,0.043069,0.077777,-0.467962,-1.967119,-0.422269
1478,248598437,0.972782,-0.212161,0.048931,0.079507,-1.033709,-2.217370,-0.095372
1479,248631771,0.970009,-0.222755,0.052243,0.082253,-0.856096,-2.291221,-0.114160
1480,248665105,0.966575,-0.234490,0.055326,0.087859,-0.579729,-2.561968,0.228571
1481,248698439,0.962726,-0.245331,0.055985,0.099343,-0.557395,-3.415596,0.986527
1482,248731773,0.958564,-0.253723,0.051236,0.119110,-0.002738,-4.151184,1.332955
1483,248765107,0.953024,-0.260596,0.044634,0.147902,0.727546,-3.705059,1.477912
1484,248798441,0.945612,-0.265420,0.036267,0.184625,0.943021,-4.301892,1.907007
1485,248831775,0.936566,-0.265537,0.021960,0.227782,1.423721,-3.792473,1.906454
1486,248865109,0.924837,-0.262344,0.008649,0.275336,1.328921,-2.321308,2.046891
1487,248898443,0.909788,-0.259640,0.004939,0.323852,1.407623,-1.979106,1.726367
1488,248931777,0.891184,-0.258152,0.007738,0.372989,1.571468,-1.829610,2.234916
1489,248965111,0.868919,-0.256810,0.013301,0.422947,1.661674,-1.061485,2.300299
1490,248998445,0.842723,-0.253960,0.019236,0.474324,2.036206,-0.924483,2.782022
1491,249031779,0.813550,-0.247183,0.023330,0.525857,1.342870,0.748989,3.187314
1492,249065113,0.782292,-0.237480,0.031067,0.575057,1.196587,1.538350,2.311713
1493,249098447,0.750419,-0.225980,0.042341,0.619713,0.365827,1.832597,1.769217
1494,249131781,0.717814,-0.214034,0.053534,0.660378,0.043963,1.744685,1.241664
1495,249165115,0.684639,-0.201831,0.062598,0.697601,0.558809,1.455506,0.415661
1496,249198449,0.651931,-0.186718,0.068626,0.731741,0.838062,1.603122,0.740170
1497,249231783,0.619597,-0.170889,0.074918,0.762441,0.467067,1.391421,0.528249
1498,249265117,0.587086,-0.158159,0.083864,0.789503,0.864508,1.137456,0.269660
1499,249298451,0.554640,-0.147340,0.093713,0.813582,0.895790,1.224727,0.095082
1500,249331785,0.522955,-0.135980,0.102324,0.835218,0.788154,1.314025,-0.138283
1501,249365119,0.493518,-0.121892,0.108147,0.854353,0.282070,1.394599,-0.401094
1502,249398453,0.467358,-0.105377,0.111531,0.870669,-0.006446,1.615963,-0.939095
1503,249431787,0.445165,-0.087002,0.113229,0.884008,-0.485636,1.659366,-1.291986
1504,249465121,0.426904,-0.069946,0.114578,0.894295,-1.041575,1.319841,-1.523347
