sep=,
DeviceTag:,D_leg_new
FirmwareVersion:,2.2.1
AppVersion:,2023.6.0
SyncStatus:,Un-synced
OutputRate:,30Hz
FilterProfile:,General
Measurement Mode:,Sensor fusion Mode - Complete(Quaternion)
StartTime: ,2026-09-07_15:00:21_359 AEST
© Movella Technologies B. V. 2005-2026

PacketCounter,SampleTimeFine,Quat_W,Quat_X,Quat_Y,Quat_Z,FreeAcc_X,FreeAcc_Y,FreeAcc_Z
1,309926614,0.157567,-0.754834,-0.153991,-0.617807,-0.213006,-0.163191,0.249372
2,309943281,0.157154,-0.756369,-0.155027,-0.615772,-0.280736,-0.194686,0.204750
3,309976615,0.156934,-0.758912,-0.157757,-0.611995,-0.128281,-0.013124,0.042753
4,310009949,0.156754,-0.760417,-0.159298,-0.609770,0.001876,-0.103974,0.128961
5,310043283,0.155052,-0.761657,-0.159889,-0.608501,0.248382,-0.321822,0.115786
6,310076617,0.152316,-0.762660,-0.159436,-0.608055,0.280718,-0.374235,0.174116
7,310109951,0.147121,-0.763650,-0.156843,-0.608765,0.540555,-0.013319,0.345994
8,310143285,0.141881,-0.764061,-0.153524,-0.610337,-0.217436,0.475372,0.248518
9,310176619,0.138382,-0.764951,-0.150480,-0.610783,-0.851445,0.412051,0.026950
10,310209953,0.135776,-0.766386,-0.148195,-0.610127,-0.858746,0.402729,0.034772
11,310243287,0.134633,-0.767417,-0.147172,-0.609333,-0.541360,0.327790,0.291037
12,310276621,0.133447,-0.767901,-0.146690,-0.609100,-0.219075,0.421926,0.227149
13,310309955,0.131841,-0.768323,-0.145655,-0.609165,-0.174659,0.187306,0.197563
14,310343289,0.128913,-0.769201,-0.143627,-0.609165,-0.056798,-0.254305,0.178646
15,310376623,0.127209,-0.769485,-0.142550,-0.609418,-0.008229,-0.209461,0.135301
16,310409957,0.125873,-0.769693,-0.141593,-0.609655,-0.211395,-0.451718,0.029574
17,310443291,0.124828,-0.770415,-0.140275,-0.609263,-0.224161,-0.813231,0.116778
18,310476625,0.123125,-0.771194,-0.138056,-0.609132,0.431085,-0.761959,0.420654
19,310509959,0.121898,-0.771223,-0.136527,-0.609685,0.907813,-0.089062,0.050447
20,310543293,0.122905,-0.771326,-0.136588,-0.609339,0.556224,-0.382038,0.160651
21,310576627,0.123813,-0.771786,-0.136327,-0.608631,0.302390,-0.500427,0.165060
22,310609961,0.126319,-0.771785,-0.137503,-0.607852,0.152236,-0.528553,0.350917
23,310643295,0.129758,-0.770916,-0.139645,-0.607742,-0.141148,0.036627,0.192901
24,310676629,0.133436,-0.769862,-0.141157,-0.607933,-0.130473,-0.225947,0.085282
25,310709963,0.135718,-0.769872,-0.141494,-0.607336,-0.031999,-0.533647,0.221396
26,310743297,0.140082,-0.769463,-0.143268,-0.606448,-0.036741,-0.634324,0.385830
27,310776631,0.144430,-0.768479,-0.145090,-0.606241,-0.028484,0.091044,-0.059682
28,310809965,0.149484,-0.767829,-0.146848,-0.605416,-0.131777,0.207318,-0.064055
29,310843299,0.154813,-0.767461,-0.148347,-0.604177,-0.156669,-0.008229,0.282376
30,310876633,0.158566,-0.766905,-0.148477,-0.603878,0.226817,-0.158659,0.335488
31,310909967,0.162223,-0.766156,-0.147922,-0.603994,0.269831,0.115058,0.130301
32,310943301,0.166500,-0.765197,-0.147848,-0.604064,0.364992,-0.181902,0.334975
33,310976635,0.170157,-0.763644,-0.147169,-0.605173,0.342692,-0.178625,0.222025
34,311009969,0.173098,-0.762043,-0.145528,-0.606753,0.314984,0.040538,0.220414
35,311043303,0.175094,-0.760645,-0.142652,-0.608614,0.256338,0.074469,0.214786
36,311076637,0.175307,-0.758909,-0.138139,-0.611754,0.280166,-0.113979,0.348743
37,311109971,0.175212,-0.756388,-0.133603,-0.615897,0.306804,0.111370,0.215767
38,311143305,0.176105,-0.753663,-0.129568,-0.619831,0.179687,0.220355,0.266191
39,311176639,0.176573,-0.750734,-0.125046,-0.624167,0.224551,0.144071,0.177794
40,311209973,0.177079,-0.747181,-0.120896,-0.629084,0.353470,0.225290,0.139935
41,311243307,0.178060,-0.742778,-0.117269,-0.634684,0.642436,0.057969,0.420866
42,311276641,0.177919,-0.737393,-0.113189,-0.641704,0.937881,-0.217411,0.357675
43,311309975,0.178755,-0.729974,-0.110555,-0.650355,1.113778,-0.378766,0.467633
44,311343309,0.178529,-0.722189,-0.106746,-0.659679,0.359366,-0.135785,0.411674
45,311376643,0.175626,-0.715279,-0.098807,-0.669155,0.069710,-0.569364,-0.064467
46,311409977,0.169635,-0.710172,-0.087868,-0.677613,0.016487,-0.660708,-0.017016
47,311443311,0.160960,-0.706247,-0.075603,-0.685268,-0.203646,-0.404429,0.276202
48,311476645,0.151110,-0.702192,-0.063311,-0.692881,-0.417000,-0.126332,0.259208
49,311509979,0.140725,-0.697563,-0.051707,-0.700663,-0.326458,-0.142415,0.455141
50,311543313,0.130340,-0.693154,-0.041801,-0.707673,-0.787843,0.018730,0.426947
51,311576647,0.120159,-0.688971,-0.033090,-0.713993,-0.952969,0.009166,0.146500
52,311609981,0.109628,-0.685228,-0.023945,-0.719633,-1.138766,-0.084645,-0.095790
53,311643315,0.099000,-0.682218,-0.013501,-0.724290,-1.274651,0.279390,-0.198759
54,311676649,0.088263,-0.679728,-0.002187,-0.728131,-1.238968,0.590968,-0.147794
55,311709983,0.078062,-0.677966,0.008127,-0.730892,-1.223369,0.609424,0.114181
56,311743317,0.068120,-0.677196,0.017947,-0.732423,-1.305189,0.602240,0.042238
57,311776651,0.058682,-0.676959,0.027865,-0.733148,-1.149838,0.438389,-0.076324
58,311809985,0.049348,-0.677488,0.037942,-0.732895,-1.018079,0.865050,-0.057889
59,311843319,0.040489,-0.678099,0.048660,-0.732240,-0.635267,0.688562,0.153722
60,311876653,0.032167,-0.678453,0.059260,-0.731543,-0.709825,0.608728,0.072267
61,311909987,0.024384,-0.678748,0.068655,-0.730748,-0.673077,1.012725,-0.032791
62,311943321,0.018998,-0.678948,0.074785,-0.730120,-0.719737,1.457566,-0.124436
63,311976655,0.016959,-0.679501,0.077427,-0.729380,-0.683225,1.620031,0.179499
64,312009989,0.018544,-0.680528,0.077243,-0.728403,-0.724290,1.198294,0.177501
65,312043323,0.022334,-0.681775,0.075153,-0.727349,-0.454271,0.771064,0.171371
66,312076657,0.027153,-0.683020,0.071038,-0.726430,-0.056979,0.517390,0.130937
67,312109991,0.033389,-0.684188,0.064625,-0.725669,-0.188234,0.827336,0.011699
68,312143325,0.041421,-0.684779,0.056575,-0.725370,0.035029,1.722802,0.307934
69,312176659,0.051262,-0.684466,0.047395,-0.725694,0.164476,1.440283,0.421402
70,312209993,0.063527,-0.683817,0.036328,-0.725974,-0.311231,1.168625,0.566492
71,312243327,0.076915,-0.683303,0.024594,-0.725656,-0.589452,0.770966,0.804243
72,312276661,0.090791,-0.682816,0.012961,-0.724811,-1.264034,1.316787,0.517170
73,312309995,0.104204,-0.681796,0.002200,-0.724079,-0.855756,1.234166,-0.164848
74,312343329,0.114869,-0.680578,-0.006422,-0.723587,-0.861633,0.409994,-0.398665
75,312376663,0.128964,-0.679062,-0.017607,-0.722449,-1.065286,0.957470,0.313652
76,312409997,0.146854,-0.676708,-0.032586,-0.720721,-0.954746,0.869437,-0.171423
77,312443331,0.166492,-0.674571,-0.052149,-0.717297,-0.916596,-1.103670,-0.796402
78,312476665,0.183413,-0.674690,-0.072550,-0.711259,-1.215821,-1.761781,-0.894201
79,312509999,0.199733,-0.672979,-0.093817,-0.705977,-1.031739,-2.360031,0.320659
80,312543333,0.212177,-0.670205,-0.113252,-0.702126,0.242087,-1.903993,0.318771
81,312576667,0.222740,-0.670827,-0.129650,-0.695392,0.239937,-0.854879,-0.203870
82,312610001,0.234030,-0.670970,-0.145384,-0.688399,1.266803,-0.907720,-0.185530
83,312643335,0.243816,-0.671288,-0.160077,-0.681397,1.104994,-0.309726,0.526736
84,312676669,0.256837,-0.668709,-0.176794,-0.674986,0.631347,1.202213,0.145636
85,312710003,0.268590,-0.666374,-0.193471,-0.668113,1.574574,-0.333662,0.082805
86,312743337,0.278607,-0.664805,-0.209406,-0.660728,0.961080,0.419515,0.721087
87,312776671,0.287389,-0.661317,-0.221081,-0.656651,1.701229,0.806596,0.519457
88,312810005,0.292114,-0.660011,-0.228883,-0.653198,1.425215,-0.345590,0.748213
89,312843339,0.292270,-0.660859,-0.234028,-0.650441,0.314534,-0.977808,0.216328
90,312876673,0.288059,-0.663164,-0.235011,-0.649619,-0.274613,0.247944,-0.190508
91,312910007,0.284405,-0.665886,-0.234871,-0.648495,-0.755160,-0.006719,-0.261144
92,312943341,0.281784,-0.669473,-0.236147,-0.645476,-0.884070,-0.737228,0.579744
93,312976675,0.277391,-0.674389,-0.237459,-0.641769,-1.271438,0.050132,0.417050
94,313010009,0.273944,-0.679943,-0.240060,-0.636399,-0.237113,0.007947,0.022090
95,313043343,0.272258,-0.684915,-0.244091,-0.630228,0.260677,0.219182,-0.221754
96,313076677,0.270550,-0.689391,-0.247000,-0.624926,0.304639,-1.018471,0.089140
97,313110011,0.265535,-0.695177,-0.246698,-0.620773,0.754645,-1.023989,0.196134
98,313143345,0.259007,-0.701495,-0.244287,-0.617368,0.944276,0.191371,-0.083989
99,313176679,0.251371,-0.707777,-0.240041,-0.615016,1.149283,0.295551,0.362741
100,313210013,0.242111,-0.713659,-0.235283,-0.613771,0.911518,-0.212363,0.396457
101,313243347,0.233732,-0.718937,-0.231486,-0.612302,0.547886,-0.031347,0.005872
102,313276681,0.226328,-0.723998,-0.227777,-0.610508,0.540878,0.002216,0.036583
103,313310015,0.218380,-0.729973,-0.223693,-0.607792,0.295880,0.199860,-0.136489
104,313343349,0.210478,-0.737432,-0.220332,-0.602783,0.171676,-0.500682,-0.165217
105,313376683,0.205276,-0.743667,-0.218647,-0.597507,-0.472097,-0.800859,0.660255
106,313410017,0.202337,-0.747325,-0.217515,-0.594351,-0.042281,-0.290479,0.485892
107,313443351,0.200593,-0.749760,-0.217173,-0.591996,0.452825,-0.349150,0.357352
108,313476685,0.199642,-0.751221,-0.217852,-0.590213,0.112298,0.042345,0.363711
109,313510019,0.197795,-0.752831,-0.218022,-0.588719,-0.096093,-0.079932,0.095576
110,313543353,0.196666,-0.754591,-0.218215,-0.586769,-0.001644,-0.387800,0.198896
111,313576687,0.195901,-0.755864,-0.218097,-0.585429,0.305532,-0.619918,0.291172
112,313610021,0.194076,-0.757109,-0.216895,-0.584874,0.319801,-0.731001,0.238131
113,313643355,0.192611,-0.758689,-0.215164,-0.583950,-0.100710,-0.521056,0.084823
114,313676689,0.190516,-0.760591,-0.212479,-0.583145,-0.092973,-0.510224,0.240807
115,313710023,0.188284,-0.762186,-0.209665,-0.582805,-0.072764,-0.258326,0.134968
116,313743357,0.186548,-0.763695,-0.206895,-0.582379,0.002351,-0.299044,0.258995
117,313776691,0.184291,-0.765030,-0.203909,-0.582398,0.230426,-0.455681,0.190782
118,313810025,0.183779,-0.765924,-0.201895,-0.582086,-0.147594,-0.282448,0.310703
119,313843359,0.182405,-0.766715,-0.199271,-0.582381,-0.010911,-0.378305,0.265598
120,313876693,0.181035,-0.767061,-0.196630,-0.583250,0.055914,-0.268148,0.230497
121,313910027,0.180392,-0.767288,-0.194420,-0.583892,-0.153660,-0.227270,0.100875
122,313943361,0.180589,-0.767448,-0.193473,-0.583935,-0.197581,-0.237348,0.180496
123,313976695,0.182849,-0.766994,-0.194602,-0.583453,-0.069252,-0.156118,0.248092
124,314010029,0.186586,-0.765949,-0.196385,-0.583044,0.188187,-0.223118,0.187744
125,314043363,0.189057,-0.765297,-0.197036,-0.582885,0.455610,-0.523146,0.119287
126,314076697,0.190428,-0.764905,-0.196486,-0.583139,0.850293,-0.588005,0.359512
127,314110031,0.191310,-0.764872,-0.194133,-0.583682,0.653368,-0.663770,0.184395
128,314143365,0.189889,-0.765693,-0.189071,-0.584730,0.693884,-0.853703,0.032767
129,314176699,0.188192,-0.766798,-0.182927,-0.585783,0.703392,-0.841827,0.233295
130,314210033,0.187315,-0.767777,-0.176645,-0.586710,0.668982,-0.841428,0.080605
131,314243367,0.187115,-0.768041,-0.170201,-0.588331,0.792240,-0.710307,0.112968
132,314276701,0.186784,-0.767691,-0.163486,-0.590791,0.595058,-0.305119,0.341430
133,314310035,0.188883,-0.765956,-0.158543,-0.593716,0.286826,0.025193,0.345700
134,314343369,0.191828,-0.763041,-0.154177,-0.597663,-0.009293,0.109710,0.207185
135,314376703,0.193308,-0.759885,-0.148753,-0.602561,0.052768,0.100714,0.161270
136,314410037,0.194255,-0.756470,-0.142979,-0.607927,0.094491,0.003047,0.052231
137,314443371,0.196070,-0.752479,-0.137474,-0.613542,0.223874,-0.220222,0.423227
138,314476705,0.196485,-0.748177,-0.130581,-0.620140,0.553795,-0.654476,0.320661
139,314510039,0.194864,-0.743053,-0.121893,-0.628524,1.044906,-0.936158,0.217513
140,314543373,0.191955,-0.734990,-0.111957,-0.640632,1.451497,-0.999887,0.090926
141,314576707,0.187075,-0.727317,-0.100696,-0.652589,0.235750,-0.733687,0.367472
142,314610041,0.179245,-0.719521,-0.086153,-0.665387,-0.437699,-0.227421,0.417017
143,314643375,0.167871,-0.715221,-0.069277,-0.674892,-0.863938,-0.183580,0.045394
144,314676709,0.156989,-0.713048,-0.053361,-0.681226,-1.062294,-0.179334,-0.210008
145,314710043,0.148117,-0.711524,-0.040279,-0.685691,-1.330891,-0.179624,0.251008
146,314743377,0.138384,-0.710489,-0.028053,-0.689397,-1.364753,-0.169748,0.402787
147,314776711,0.127652,-0.709844,-0.016559,-0.692497,-1.422422,-0.115635,-0.168675
148,314810045,0.117068,-0.709670,-0.006636,-0.694709,-1.271610,0.175522,-0.020134
149,314843379,0.107142,-0.709888,0.000922,-0.696117,-1.091958,0.575098,0.121312
150,314876713,0.098425,-0.709917,0.006596,-0.697343,-0.563408,1.189532,0.037522
151,314910047,0.091384,-0.709677,0.010369,-0.698498,-0.226700,1.465177,0.256784
152,314943381,0.086771,-0.708406,0.013132,-0.700329,0.584288,1.957805,0.580388
153,314976715,0.082903,-0.704816,0.015547,-0.704358,2.777244,1.293803,1.216176
154,315010049,0.085361,-0.699754,0.013829,-0.709131,2.590770,1.393513,0.846113
155,315043383,0.088795,-0.691520,0.009668,-0.716814,0.131637,0.833693,1.062700
156,315076717,0.093580,-0.681618,0.003044,-0.725694,-0.458538,0.777902,0.668887
157,315110051,0.104212,-0.672403,-0.007408,-0.732776,-1.349472,1.459740,0.210225
158,315143385,0.115935,-0.664172,-0.019703,-0.738273,-1.732881,0.337869,-0.179255
159,315176719,0.127289,-0.657975,-0.033667,-0.741440,-2.210058,-0.764935,-0.966321
160,315210053,0.136365,-0.653146,-0.048325,-0.743283,-2.611266,-1.166459,-0.770383
161,315243387,0.140638,-0.649644,-0.060975,-0.744624,-2.092977,-1.374886,-0.938719
162,315276721,0.141541,-0.647612,-0.070719,-0.745362,-1.290221,-0.817118,-0.991012
163,315310055,0.140491,-0.647304,-0.077769,-0.745126,-0.598602,-0.082372,-0.799302
164,315343389,0.141291,-0.649457,-0.086265,-0.742160,-0.632219,0.131607,-0.400999
165,315376723,0.144186,-0.653237,-0.095876,-0.737089,0.451374,-0.079510,0.051883
166,315410057,0.149862,-0.657866,-0.109332,-0.729932,1.020555,0.858088,0.402388
167,315443391,0.155478,-0.661214,-0.124675,-0.723242,0.398314,1.155532,0.483088
168,315476725,0.155540,-0.656127,-0.136003,-0.725816,2.236312,0.127252,1.850033
169,315510059,0.170861,-0.653490,-0.153938,-0.721153,-2.673850,2.713423,-0.134691
170,315543393,0.179152,-0.651833,-0.159575,-0.719413,1.339851,-0.405318,0.152370
171,315576727,0.183605,-0.656568,-0.165849,-0.712533,-0.285577,-1.746542,0.205912
172,315610061,0.190130,-0.665077,-0.180511,-0.699242,-2.084015,-2.622725,-0.667454
173,315643395,0.189455,-0.670961,-0.186520,-0.692191,0.456685,1.226570,0.068324
174,315676729,0.191351,-0.677742,-0.189227,-0.684284,1.192868,0.169437,0.404835
175,315710063,0.194760,-0.687036,-0.191301,-0.673391,-0.113535,-0.897503,0.176801
176,315743397,0.188784,-0.696261,-0.186037,-0.667062,1.251032,-0.567812,-0.001114
177,315776731,0.174348,-0.704018,-0.173875,-0.666130,2.798977,-1.743377,0.816893
178,315810065,0.157004,-0.708891,-0.158799,-0.669034,2.145143,-0.662739,0.784764
179,315843399,0.141630,-0.712231,-0.143343,-0.672400,1.134713,-0.653059,0.508062
180,315876733,0.135565,-0.715130,-0.135760,-0.672147,-1.666541,0.382623,-0.163683
181,315910067,0.134601,-0.717726,-0.132015,-0.670317,-1.713464,-0.395721,0.029121
182,315943401,0.132714,-0.720075,-0.127210,-0.669101,-0.884372,-0.406800,0.179101
183,315976735,0.129374,-0.721746,-0.122097,-0.668908,-0.266513,-0.767377,0.421846
184,316010069,0.124096,-0.722731,-0.115434,-0.670027,0.118913,-1.112309,0.276934
185,316043403,0.118672,-0.723343,-0.106686,-0.671797,0.265285,-0.879389,0.088124
186,316076737,0.114428,-0.724558,-0.097200,-0.672663,0.191350,-0.615038,0.267938
187,316110071,0.110703,-0.726351,-0.088024,-0.672616,0.051427,0.210467,0.104089
188,316143405,0.108315,-0.728654,-0.080205,-0.671490,0.301621,-0.085627,0.319549
189,316176739,0.108345,-0.729465,-0.075592,-0.671139,0.501591,0.148091,0.291234
190,316210073,0.111224,-0.728496,-0.073105,-0.671997,0.658090,0.297427,0.034301
191,316243407,0.117090,-0.726640,-0.073195,-0.672999,0.375969,0.577890,0.146193
192,316276741,0.125680,-0.725162,-0.077055,-0.672612,0.356620,0.190629,0.067965
193,316310075,0.134380,-0.723976,-0.081877,-0.671638,0.360318,-0.082444,0.191960
194,316343409,0.142687,-0.722697,-0.086247,-0.670755,0.808227,0.147617,0.206108
195,316376743,0.150865,-0.719702,-0.090528,-0.671621,0.627259,0.207776,0.258795
196,316410077,0.159354,-0.716999,-0.095391,-0.671877,-0.167866,-0.092586,0.067229
197,316443411,0.165878,-0.715565,-0.098219,-0.671420,-0.278726,-0.220598,0.108112
198,316476745,0.169777,-0.714686,-0.098789,-0.671298,-0.187612,-0.067059,0.163700
199,316510079,0.172807,-0.713550,-0.099024,-0.671698,0.368875,0.282345,0.310434
200,316543413,0.177083,-0.711176,-0.100095,-0.672943,-0.142209,0.516471,0.347271
201,316576747,0.183707,-0.708893,-0.102658,-0.673190,-1.328577,0.458971,0.376946
202,316610081,0.190657,-0.710613,-0.105954,-0.668920,-3.608247,-0.000765,-0.160032
203,316643415,0.196879,-0.714749,-0.107753,-0.662392,-3.035078,-0.587134,-0.300447
204,316676749,0.204853,-0.719193,-0.110436,-0.654676,-0.516318,-0.300863,0.070070
205,316710083,0.208870,-0.723797,-0.111975,-0.648039,1.867637,0.137940,0.588723
206,316743417,0.210541,-0.726884,-0.113867,-0.643698,2.874782,0.510494,0.074518
207,316776751,0.211053,-0.731218,-0.115408,-0.638325,3.529047,0.557641,0.672852
208,316810085,0.215243,-0.731027,-0.117607,-0.636741,1.641116,0.413730,1.142187
209,316843419,0.218556,-0.728213,-0.118275,-0.638710,1.346333,0.367251,1.016130
210,316876753,0.216787,-0.723560,-0.114840,-0.645195,1.747654,-0.625369,-0.026519
211,316910087,0.217310,-0.717051,-0.114216,-0.652357,1.023656,-0.081705,-0.567142
212,316943421,0.220480,-0.709302,-0.115449,-0.659508,0.798930,-0.166148,0.115338
213,316976755,0.224738,-0.698837,-0.119147,-0.668523,0.943177,-0.352771,0.269579
214,317010089,0.226881,-0.689705,-0.122105,-0.676700,-0.466002,-0.566437,0.121138
215,317043423,0.224180,-0.682761,-0.119744,-0.685013,-0.188628,-0.849529,0.131221
216,317076757,0.217133,-0.677003,-0.113813,-0.693951,0.171102,-0.837499,0.296142
217,317110091,0.209292,-0.672129,-0.107157,-0.702109,-0.628079,-0.685645,0.072594
218,317143425,0.200488,-0.668517,-0.098962,-0.709293,-0.750731,-0.335012,-0.066414
219,317176759,0.190833,-0.666156,-0.089284,-0.715435,-0.616820,-0.336962,-0.046596
220,317210093,0.179692,-0.665010,-0.077943,-0.720693,-0.715172,-0.659457,-0.226628
221,317243427,0.167592,-0.664637,-0.064750,-0.725244,-0.870123,-0.484843,-0.185530
222,317276761,0.154605,-0.665014,-0.050431,-0.728911,-0.947848,-0.455489,-0.021560
223,317310095,0.140670,-0.665838,-0.035074,-0.731875,-0.863051,-0.583646,0.124237
224,317343429,0.126111,-0.667175,-0.020100,-0.733873,-0.637710,-0.558727,0.084562
225,317376763,0.112126,-0.669242,-0.006672,-0.734506,-0.745640,-0.022139,0.084251
226,317410097,0.098426,-0.671223,0.005158,-0.734674,-0.786326,-0.008937,0.202604
227,317443431,0.083522,-0.672544,0.017455,-0.735122,-0.624639,0.314420,0.268215
228,317476765,0.068526,-0.673392,0.029945,-0.735494,-0.402413,0.631009,0.386835
229,317510099,0.055502,-0.674029,0.040776,-0.735488,-0.361072,0.934018,0.189045
230,317543433,0.045332,-0.674635,0.049233,-0.735112,-0.414455,1.181084,0.180504
231,317576767,0.038361,-0.675271,0.055147,-0.734505,-0.260176,1.283607,0.204225
232,317610101,0.034866,-0.675823,0.058375,-0.733921,-0.185244,1.355273,0.174986
233,317643435,0.034302,-0.676144,0.058769,-0.733620,-0.244994,0.869286,0.266496
234,317676769,0.035556,-0.676408,0.057554,-0.733414,-0.253204,0.924727,0.370349
235,317710103,0.038507,-0.676267,0.054554,-0.733625,-0.236707,1.018800,0.309243
236,317743437,0.043823,-0.675705,0.049199,-0.734223,-0.203612,1.242548,0.144001
237,317776771,0.051565,-0.674588,0.041644,-0.735213,-0.551163,1.160709,0.123905
238,317810105,0.062232,-0.671595,0.031512,-0.737628,-0.942188,1.642805,0.112467
239,317843439,0.074114,-0.669472,0.020931,-0.738835,-1.183819,1.498795,0.227200
240,317876773,0.087942,-0.667501,0.008970,-0.739343,-1.551164,1.403161,-0.083246
241,317910107,0.106407,-0.666296,-0.006397,-0.738029,-1.260062,0.843636,-0.009329
242,317943441,0.127301,-0.666418,-0.023975,-0.734239,-1.608694,0.828147,0.043626
243,317976775,0.147566,-0.666281,-0.039963,-0.729861,-1.493278,1.631517,0.455246
244,318010109,0.169289,-0.664696,-0.054366,-0.725649,-0.027636,0.111870,0.399962
245,318043443,0.191346,-0.663574,-0.070832,-0.719750,0.224348,-1.482640,0.155268
246,318076777,0.211055,-0.663931,-0.089659,-0.711767,0.321392,-2.714833,0.311242
247,318110111,0.229241,-0.662822,-0.110838,-0.704153,0.003851,-2.337942,-0.294313
248,318143445,0.245771,-0.661355,-0.130209,-0.696601,0.167193,-2.117908,-0.586825
249,318176779,0.257320,-0.661857,-0.143745,-0.689253,0.201623,-2.113020,-0.383942
250,318210113,0.261700,-0.665316,-0.150482,-0.682806,0.047641,-1.249708,-0.514746
251,318243447,0.262936,-0.669774,-0.154951,-0.676948,-0.228448,-0.232215,-0.391972
252,318276781,0.266357,-0.672381,-0.161819,-0.671396,-0.039345,0.834455,0.032537
253,318310115,0.273004,-0.669939,-0.172470,-0.668510,1.059384,0.959909,1.323514
254,318343449,0.284687,-0.659363,-0.188853,-0.669723,4.520490,1.968256,1.599210
255,318376783,0.303967,-0.652278,-0.214388,-0.660437,0.407917,1.202862,0.922434
256,318410117,0.315104,-0.652517,-0.228475,-0.650178,0.987530,-2.130559,0.233210
257,318443451,0.316287,-0.657482,-0.233927,-0.642619,0.695415,-2.998927,-0.723253
258,318476785,0.305754,-0.664383,-0.228351,-0.642624,-0.180942,-1.466704,-0.032726
259,318510119,0.289268,-0.673101,-0.215603,-0.645582,-0.962086,0.650359,0.218252
260,318543453,0.271634,-0.683016,-0.200586,-0.647665,-0.056877,0.182824,0.201120
261,318576787,0.256151,-0.691629,-0.189139,-0.648278,0.547330,0.760537,0.377618
262,318610121,0.246994,-0.698303,-0.184566,-0.645991,0.331503,1.661503,0.090359
263,318643455,0.243243,-0.703657,-0.184758,-0.641534,0.380075,0.006398,0.016263
264,318676789,0.238634,-0.707799,-0.183927,-0.638941,0.740292,-0.710487,0.285992
265,318710123,0.233210,-0.711772,-0.182575,-0.636915,0.553220,-0.418039,0.153820
266,318743457,0.226189,-0.716219,-0.179173,-0.635426,0.839642,-0.160973,0.278227
267,318776791,0.216776,-0.720268,-0.173966,-0.635578,0.497355,-0.437543,0.328906
268,318810125,0.206778,-0.724330,-0.169286,-0.635557,0.093035,-0.130742,-0.026180
269,318843459,0.200626,-0.727562,-0.168000,-0.634177,-0.237343,0.203429,-0.174142
270,318876793,0.198006,-0.730995,-0.169978,-0.630515,-0.063202,-0.248362,0.163009
271,318910127,0.195479,-0.733916,-0.170341,-0.627806,0.018506,-0.266292,0.202225
272,318943461,0.189183,-0.737397,-0.167146,-0.626513,0.137886,-0.234931,0.285646
273,318976795,0.182472,-0.740538,-0.164114,-0.625600,-0.281955,-0.158962,0.406382
274,319010129,0.176423,-0.742745,-0.161743,-0.625336,-0.429933,0.371246,0.118010
275,319043463,0.171462,-0.744592,-0.160499,-0.624840,-0.008228,-0.006816,0.348049
276,319076797,0.168155,-0.745328,-0.161454,-0.624616,0.045705,0.278039,0.250062
277,319110131,0.166678,-0.745509,-0.163323,-0.624309,0.137604,-0.162638,0.063165
278,319143465,0.164029,-0.746503,-0.163786,-0.623701,-0.062695,-0.678233,0.345656
279,319176799,0.159959,-0.747409,-0.162825,-0.623925,-0.130666,-0.241027,0.046846
280,319210133,0.156626,-0.748923,-0.161936,-0.623187,-0.137749,-0.835124,0.187821
281,319243467,0.152444,-0.751129,-0.159884,-0.622097,0.228534,-0.416561,0.284945
282,319276801,0.149116,-0.753151,-0.157773,-0.620997,0.415472,-0.723264,0.102884
283,319310135,0.146449,-0.754365,-0.156000,-0.620606,0.196120,-0.513508,0.371552
284,319343469,0.144106,-0.755253,-0.154864,-0.620359,0.166265,0.022981,0.046041
285,319376803,0.142982,-0.756991,-0.154943,-0.618477,0.366223,-0.037615,-0.139988
286,319410137,0.143404,-0.760279,-0.156492,-0.613941,0.155882,-0.174831,0.155735
287,319443471,0.145589,-0.761960,-0.159458,-0.610569,-0.207439,-0.262417,0.481701
288,319476805,0.145892,-0.762567,-0.160798,-0.609387,0.442005,-0.526518,0.184379
289,319510139,0.144720,-0.763469,-0.160374,-0.608649,0.463452,-0.786403,0.102154
290,319543473,0.142883,-0.764820,-0.158128,-0.607973,0.467232,-1.005274,0.213534
291,319576807,0.141362,-0.766255,-0.154776,-0.607385,0.446964,-0.972067,0.184438
292,319610141,0.140069,-0.767532,-0.150172,-0.607227,0.380167,-0.618957,0.070955
293,319643475,0.138312,-0.769078,-0.145272,-0.606866,0.250455,-0.431944,0.346031
294,319676809,0.138576,-0.770205,-0.142322,-0.606075,-0.148591,-0.094937,0.345985
295,319710143,0.140471,-0.770490,-0.141060,-0.605572,-0.400406,-0.016537,0.101774
296,319743477,0.142066,-0.770338,-0.139590,-0.605734,-0.135914,-0.251577,0.132457
297,319776811,0.143446,-0.770505,-0.137451,-0.605684,-0.145895,-0.612200,0.121263
298,319810145,0.144759,-0.770971,-0.133822,-0.605592,0.026820,-0.875342,0.133696
299,319843479,0.144557,-0.771552,-0.128144,-0.606128,0.378850,-1.153926,0.194414
300,319876813,0.143285,-0.772123,-0.120677,-0.607234,0.412643,-0.922148,0.266641
301,319910147,0.141768,-0.772348,-0.112113,-0.608944,0.315130,-0.697678,0.278366
302,319943481,0.140559,-0.771193,-0.103147,-0.612263,0.147618,-0.542393,0.436220
303,319976815,0.138902,-0.767935,-0.093665,-0.618232,0.386518,0.241203,0.371160
304,320010149,0.135744,-0.765308,-0.083319,-0.623647,1.156639,-0.174480,0.125900
305,320043483,0.131038,-0.762561,-0.072020,-0.629400,1.152126,-0.128576,0.263474
306,320076817,0.126071,-0.758127,-0.061044,-0.636887,1.523779,0.333735,0.319371
307,320110151,0.122684,-0.751014,-0.052610,-0.646653,2.121028,0.213906,0.207762
308,320143485,0.121625,-0.742172,-0.047816,-0.657346,1.247249,0.195286,0.180688
309,320176819,0.121787,-0.734193,-0.044833,-0.666424,0.625934,0.557215,0.206498
310,320210153,0.122714,-0.724658,-0.042565,-0.676758,-0.288430,0.695812,0.396159
311,320243487,0.123350,-0.716527,-0.040369,-0.685381,-1.229400,0.496126,0.967473
312,320276821,0.121570,-0.709553,-0.036346,-0.693134,-1.197258,-0.121416,0.640058
313,320310155,0.118428,-0.702963,-0.031869,-0.700573,-0.727701,-0.003116,0.333927
314,320343489,0.115480,-0.697814,-0.029183,-0.706307,-0.880331,-0.279783,0.085629
315,320376823,0.112427,-0.693473,-0.027292,-0.711135,-0.805595,-0.013860,0.174784
316,320410157,0.108707,-0.689350,-0.025830,-0.715761,-1.084104,0.276839,0.100806
317,320443491,0.106361,-0.685068,-0.026383,-0.720191,-1.314727,0.559499,-0.373064
318,320476825,0.105074,-0.681386,-0.028642,-0.723777,-1.351035,0.799200,-0.424101
319,320510159,0.106034,-0.678714,-0.033242,-0.725948,-1.455733,0.825315,-0.362700
320,320543493,0.110088,-0.677282,-0.040527,-0.726312,-1.427962,0.765129,-0.339108
321,320576827,0.116237,-0.676514,-0.049507,-0.725512,-1.287219,1.043095,-0.461273
322,320610161,0.124133,-0.675919,-0.060165,-0.723952,-1.416207,1.252908,-0.265381
323,320643495,0.133120,-0.675315,-0.071501,-0.721885,-1.570094,1.552063,0.061041
324,320676829,0.145012,-0.672997,-0.083184,-0.720506,-0.962365,2.918218,0.265976
325,320710163,0.160199,-0.670758,-0.096063,-0.717770,-0.674271,2.576081,0.620906
326,320743497,0.178474,-0.668993,-0.109433,-0.713177,-1.055343,2.361314,0.939974
327,320776831,0.201490,-0.667482,-0.122939,-0.706227,-0.809099,1.058737,-0.007901
328,320810165,0.222185,-0.666778,-0.133121,-0.698800,-0.113725,-2.156542,-0.275918
329,320843499,0.231996,-0.669046,-0.137547,-0.692559,0.425178,-3.540638,0.343941
330,320876833,0.235585,-0.669777,-0.139502,-0.690246,1.297267,-3.487991,-0.100681
331,320910167,0.246200,-0.666927,-0.148491,-0.687420,0.559144,-1.523147,-0.398659
332,320943501,0.258364,-0.664865,-0.159116,-0.682559,0.572520,0.536443,-0.223041
333,320976835,0.269834,-0.663341,-0.170103,-0.676930,0.637869,1.124860,-0.303945
334,321010169,0.277384,-0.660700,-0.183256,-0.673018,1.542217,-0.674485,0.014520
335,321043503,0.284951,-0.657720,-0.201506,-0.667537,0.600869,-0.119824,0.606886
336,321076837,0.294674,-0.652774,-0.220920,-0.662005,1.435501,-1.109950,0.630567
337,321110171,0.295240,-0.652125,-0.229206,-0.659570,0.814119,1.340064,1.036928
338,321143505,0.292180,-0.653221,-0.228978,-0.659927,0.834422,1.068237,0.224690
339,321176839,0.287053,-0.656896,-0.226835,-0.659270,1.189411,0.193691,-0.128766
340,321210173,0.281148,-0.661471,-0.226928,-0.657204,0.292360,-0.557635,0.194910
341,321243507,0.273349,-0.665207,-0.226982,-0.656705,-0.426167,0.480846,0.032363
342,321276841,0.268503,-0.668550,-0.229846,-0.654310,-0.488332,-0.244481,0.129400
343,321310175,0.263443,-0.673895,-0.232196,-0.650039,-0.704985,-0.822775,0.075508
344,321343509,0.255964,-0.680449,-0.231021,-0.646608,-1.009729,-0.188782,0.317290
345,321376843,0.246591,-0.688057,-0.228024,-0.643256,-1.561726,0.252599,0.111874
346,321410177,0.236766,-0.696998,-0.223993,-0.638722,-1.182922,-0.413261,-0.174479
347,321443511,0.225790,-0.706257,-0.218332,-0.634471,0.094246,0.176144,0.180070
348,321476845,0.215801,-0.714812,-0.214400,-0.629690,0.847009,0.105894,-0.005018
349,321510179,0.208339,-0.721337,-0.213596,-0.625018,0.717220,-0.090394,0.028683
350,321543513,0.202860,-0.726478,-0.214579,-0.620512,0.594602,-1.059286,0.305791
351,321576847,0.198096,-0.731210,-0.215435,-0.616182,-0.268593,-1.339848,0.061346
352,321610181,0.192865,-0.736794,-0.214872,-0.611368,-0.037387,-1.196045,0.007699
353,321643515,0.186713,-0.742806,-0.212763,-0.606723,0.989408,-0.222287,0.364188
354,321676849,0.180178,-0.745745,-0.209648,-0.606177,2.481803,0.329612,0.709171
355,321710183,0.178685,-0.745606,-0.210966,-0.606333,1.079060,-0.088689,0.621171
356,321743517,0.179105,-0.746312,-0.214231,-0.604192,0.111749,-0.310428,-0.314796
357,321776851,0.180466,-0.748043,-0.216892,-0.600687,0.032249,-0.561886,-0.136606
358,321810185,0.177931,-0.751833,-0.215999,-0.597022,0.195233,-0.401523,0.019053
359,321843519,0.173554,-0.755239,-0.212898,-0.595122,0.205515,-0.815824,0.651774
360,321876853,0.168961,-0.757306,-0.209412,-0.595054,0.108086,-0.332135,0.396413
361,321910187,0.165319,-0.759100,-0.207003,-0.594635,-0.145382,-0.066184,0.055429
362,321943521,0.164246,-0.760379,-0.206735,-0.593389,-0.528646,0.391934,0.158363
363,321976855,0.162643,-0.761313,-0.205919,-0.592916,-0.201973,0.008563,0.123798
364,322010189,0.160659,-0.762307,-0.204670,-0.592613,0.222976,-0.654826,0.392669
365,322043523,0.160444,-0.762940,-0.204667,-0.591857,-0.123566,-0.815641,0.278802
366,322076857,0.161242,-0.762965,-0.204622,-0.591624,-0.312554,-0.263482,0.333809
367,322110191,0.161313,-0.762747,-0.203665,-0.592214,0.014698,-0.109117,0.140533
368,322143525,0.160560,-0.762769,-0.202652,-0.592738,0.128932,-0.190534,0.068507
369,322176859,0.160495,-0.762742,-0.202010,-0.593009,-0.074114,-0.102671,0.102981
370,322210193,0.159454,-0.762965,-0.200516,-0.593510,0.009605,-0.446628,0.062901
371,322243527,0.158077,-0.763423,-0.198405,-0.594000,0.485945,-0.463158,0.368817
372,322276861,0.157330,-0.763673,-0.196016,-0.594670,0.490016,-0.509453,0.133046
373,322310195,0.156901,-0.764038,-0.193340,-0.595189,0.195616,-0.383833,0.157643
374,322343529,0.155892,-0.764524,-0.190304,-0.595809,0.117652,-0.333783,0.172233
375,322376863,0.154492,-0.765085,-0.187076,-0.596475,0.220249,-0.309085,0.165380
376,322410197,0.154270,-0.765696,-0.184126,-0.596666,0.232501,-0.334091,0.100631
377,322443531,0.154318,-0.766397,-0.181270,-0.596628,0.171579,-0.516468,0.273397
378,322476865,0.154867,-0.766712,-0.178800,-0.596827,0.112360,-0.441399,0.088975
379,322510199,0.154823,-0.766916,-0.176451,-0.597275,0.297309,-0.453498,0.103886
380,322543533,0.154820,-0.767227,-0.174299,-0.597508,0.205402,-0.239721,0.350355
381,322576867,0.156246,-0.767374,-0.171892,-0.597646,-0.011984,0.080565,0.104408
382,322610201,0.155531,-0.768391,-0.167418,-0.597796,0.140184,-0.410922,-0.056321
383,322643535,0.154803,-0.769688,-0.162610,-0.597643,0.125232,-0.406136,0.416196
384,322676869,0.153706,-0.771059,-0.156275,-0.597850,0.148674,-1.121258,0.224327
385,322710203,0.151368,-0.772460,-0.147963,-0.598752,0.267220,-1.403401,0.205077
386,322743537,0.149442,-0.773432,-0.138894,-0.600151,0.482562,-1.049543,0.200143
387,322776871,0.148216,-0.773786,-0.129794,-0.602033,0.420991,-0.454019,0.202529
388,322810205,0.147834,-0.773922,-0.121214,-0.603739,0.472068,0.132269,0.145011
389,322843539,0.146865,-0.774195,-0.112483,-0.605313,0.469367,0.149919,0.214223
390,322876873,0.146268,-0.773747,-0.103984,-0.607545,0.424217,-0.233839,0.183169
391,322910207,0.145475,-0.772611,-0.095121,-0.610627,0.652626,-0.492810,0.283729
392,322943541,0.143834,-0.770418,-0.085521,-0.615189,0.995082,-0.389291,0.290985
393,322976875,0.141395,-0.767181,-0.075655,-0.621063,1.022461,-0.153463,0.206800
394,323010209,0.138799,-0.763005,-0.065840,-0.627874,0.981665,0.029699,0.200521
395,323043543,0.135734,-0.757408,-0.055723,-0.636245,0.947724,-0.035977,0.285675
396,323076877,0.133508,-0.749179,-0.046823,-0.647084,1.106889,0.334794,0.419607
397,323110211,0.134528,-0.737126,-0.041350,-0.660940,0.610277,0.591319,0.215575
398,323143545,0.134980,-0.727574,-0.036344,-0.671638,-0.604443,0.371339,0.690192
399,323176879,0.132795,-0.719632,-0.030656,-0.680851,-0.852960,0.001713,0.389873
400,323210213,0.129486,-0.712246,-0.025151,-0.689426,-0.800484,0.122894,0.483138
401,323243547,0.127065,-0.705398,-0.021674,-0.696994,-1.218352,0.250321,0.134572
402,323276881,0.125287,-0.700212,-0.020082,-0.702571,-1.653319,0.050544,0.014786
403,323310215,0.122443,-0.696498,-0.019238,-0.706775,-1.887065,0.062821,-0.034106
404,323343549,0.118693,-0.693918,-0.019326,-0.709943,-1.746235,0.066728,-0.153952
405,323376883,0.114886,-0.692328,-0.020540,-0.712084,-1.530007,0.373000,-0.387193
406,323410217,0.112771,-0.691918,-0.024493,-0.712695,-1.344450,0.500014,-0.253322
407,323443551,0.113050,-0.692516,-0.031081,-0.711814,-1.289824,1.174768,-0.153792
408,323476885,0.114886,-0.693294,-0.038855,-0.710379,-0.991183,1.729180,0.220740
409,323510219,0.119143,-0.693330,-0.047284,-0.709130,-0.307223,2.099299,0.124048
410,323543553,0.128175,-0.690510,-0.058086,-0.709505,-0.001883,2.218302,0.316585
411,323576887,0.142053,-0.686859,-0.071172,-0.709213,-0.937638,3.675241,0.702800
412,323610221,0.159272,-0.682183,-0.084621,-0.708591,-0.152740,2.806396,1.011633
413,323643555,0.179905,-0.676976,-0.099771,-0.706673,-0.564188,1.504594,0.545521
414,323676889,0.204718,-0.673407,-0.115525,-0.700907,-1.557908,0.836542,0.094332
415,323710223,0.227724,-0.670777,-0.127893,-0.694152,-0.448681,-1.675688,-0.913212
416,323743557,0.236562,-0.672797,-0.131602,-0.688525,1.106727,-5.380198,-0.930960
417,323776891,0.231854,-0.679237,-0.130002,-0.684093,-0.832651,-3.604381,0.059562
418,323810225,0.238476,-0.679567,-0.134393,-0.680632,-0.604133,0.286705,-0.634892
419,323843559,0.249508,-0.676100,-0.141704,-0.678644,0.385624,1.527762,0.417982
420,323876893,0.256734,-0.671787,-0.151860,-0.678035,2.221342,-0.004917,0.878300
421,323910227,0.264254,-0.668865,-0.170402,-0.673614,0.730894,-1.669956,0.606905
422,323943561,0.272579,-0.667750,-0.188702,-0.666487,-0.577378,1.916500,0.960945
423,323976895,0.277542,-0.666976,-0.201717,-0.661383,0.512932,0.793259,-0.405799
424,324010229,0.279775,-0.669285,-0.210022,-0.655499,0.620221,-0.934350,-0.224309
425,324043563,0.277595,-0.671990,-0.214194,-0.652300,0.838612,-0.275509,0.400409
426,324076897,0.272931,-0.675616,-0.216524,-0.649748,0.826075,-0.353113,0.463807
427,324110231,0.267113,-0.679718,-0.217323,-0.647617,-0.356523,1.154358,0.057656
428,324143565,0.264405,-0.683398,-0.220264,-0.643852,0.410979,0.647114,-0.103403
429,324176899,0.264138,-0.686944,-0.227019,-0.637813,0.288180,-0.562177,0.263993
430,324210233,0.260648,-0.690829,-0.232392,-0.633100,-0.000056,-0.708527,0.379103
431,324243567,0.256096,-0.694094,-0.235436,-0.630256,-0.646600,-0.126554,-0.063123
432,324276901,0.251429,-0.698821,-0.237446,-0.626145,-0.527720,-1.185951,-0.143970
433,324310235,0.242910,-0.705782,-0.236566,-0.622019,-0.760865,-0.382284,-0.133646
434,324343569,0.234770,-0.713903,-0.234816,-0.616516,-0.136925,0.149692,-0.241180
435,324376903,0.225669,-0.723853,-0.233010,-0.608951,0.271379,-0.004951,-0.153594
436,324410237,0.215408,-0.734246,-0.230115,-0.601277,-0.130211,-0.207528,-0.183808
437,324443571,0.205230,-0.742289,-0.223992,-0.597260,0.864513,-0.835340,0.978798
438,324476905,0.193241,-0.745254,-0.215684,-0.600616,3.427639,0.171522,1.276246
439,324510239,0.186086,-0.746100,-0.213172,-0.602717,1.651581,-0.025899,0.258521
440,324543573,0.184593,-0.747325,-0.214900,-0.601044,-0.299753,-0.922768,0.091210
441,324576907,0.182836,-0.747845,-0.215177,-0.600834,-0.673704,-0.755294,-0.032093
442,324610241,0.180878,-0.748024,-0.214252,-0.601535,-0.135827,-0.211282,0.289182
443,324643575,0.177859,-0.748803,-0.212581,-0.602059,0.398560,-0.615438,0.377827
444,324676909,0.174725,-0.749401,-0.211378,-0.602655,0.438596,-0.497078,0.070348
445,324710243,0.172864,-0.749708,-0.210497,-0.603118,0.137670,-0.431498,0.198958
446,324743577,0.170617,-0.749780,-0.208402,-0.604394,0.211298,-0.628801,0.228797
447,324776911,0.171240,-0.748364,-0.207840,-0.606165,0.029681,-0.848062,0.394430
448,324810245,0.173503,-0.746211,-0.208608,-0.607910,0.095475,-0.587701,0.473310
449,324843579,0.176319,-0.743053,-0.210269,-0.610389,0.354980,-0.206466,0.434400
450,324876913,0.179644,-0.738950,-0.211886,-0.613833,0.351580,-0.379677,0.195836
451,324910247,0.182036,-0.734113,-0.212074,-0.618845,-0.173856,0.396130,-0.355986
452,324943581,0.182070,-0.732029,-0.210778,-0.621740,-0.165439,-0.385521,0.067666
453,324976915,0.182745,-0.730226,-0.209770,-0.624000,-0.376153,0.682670,0.197313
454,325010249,0.185552,-0.728328,-0.210793,-0.625044,0.071676,-0.060927,0.289332
455,325043583,0.189637,-0.725724,-0.214325,-0.625646,-0.101782,-0.057413,0.251824
456,325076917,0.194117,-0.722605,-0.218000,-0.626610,0.007742,-0.598208,0.160593
457,325110251,0.198091,-0.720066,-0.220238,-0.627507,-0.149979,-0.940819,0.089189
458,325143585,0.199899,-0.718871,-0.219899,-0.628421,-0.072746,-1.002574,0.146489
459,325176919,0.199247,-0.718571,-0.216515,-0.630144,0.007309,-0.371103,0.132580
460,325210253,0.197401,-0.718841,-0.211138,-0.632238,0.390205,-0.252389,0.179669
461,325243587,0.195899,-0.719164,-0.206032,-0.634021,0.514686,-0.321464,0.105030
462,325276921,0.195388,-0.719428,-0.201841,-0.635226,0.301965,-0.124215,0.091888
463,325310255,0.196656,-0.719706,-0.198767,-0.635490,0.004591,0.150297,0.056338
464,325343589,0.199580,-0.720471,-0.196846,-0.634307,-0.261850,-0.366132,0.021623
465,325376923,0.202541,-0.721714,-0.195146,-0.632478,-0.252770,0.075111,-0.007666
466,325410257,0.205969,-0.723359,-0.194291,-0.629749,0.302219,-0.645758,0.166362
467,325443591,0.207397,-0.726368,-0.191661,-0.626615,0.266343,-0.458969,0.054622
468,325476925,0.206450,-0.730189,-0.186587,-0.624014,0.285004,-0.584561,0.051776
469,325510259,0.205347,-0.733763,-0.181351,-0.621724,0.127180,-0.154737,0.184814
470,325543593,0.204768,-0.737365,-0.177304,-0.618814,0.438531,-0.452949,0.009993
471,325576927,0.203469,-0.741586,-0.172707,-0.615490,0.807538,-0.590934,0.175637
472,325610261,0.203455,-0.744756,-0.168483,-0.612831,0.517283,-0.320017,0.539643
473,325643595,0.205441,-0.745686,-0.164568,-0.612101,0.451800,0.081127,0.523984
474,325676929,0.207049,-0.745032,-0.159084,-0.613803,0.747364,-0.122637,0.321441
475,325710263,0.206422,-0.744132,-0.151793,-0.616944,0.767848,-0.078564,0.258480
476,325743597,0.204806,-0.742740,-0.143366,-0.621163,0.715890,0.062337,0.230680
477,325776931,0.201760,-0.740452,-0.133011,-0.627165,1.196628,-0.167917,0.254841
478,325810265,0.196847,-0.737216,-0.121589,-0.634810,1.381060,-0.184968,0.198138
479,325843599,0.191799,-0.732864,-0.110218,-0.643413,1.345121,-0.010482,0.374621
480,325876933,0.186184,-0.726611,-0.098716,-0.653935,1.335200,-0.418228,0.355549
481,325910267,0.181448,-0.715875,-0.089554,-0.668270,0.684466,-0.420206,-0.145985
482,325943601,0.176806,-0.709079,-0.081657,-0.677704,-1.210770,-0.482997,0.860573
483,325976935,0.168726,-0.704950,-0.071173,-0.685213,-1.126360,-0.427438,1.105608
484,326010269,0.157793,-0.700983,-0.057893,-0.693092,-1.002820,0.079765,0.490717
485,326043603,0.146449,-0.697776,-0.044570,-0.699771,-0.987534,0.180870,-0.218756
486,326076937,0.136300,-0.695764,-0.033272,-0.704437,-1.189578,0.229308,-0.256027
487,326110271,0.125833,-0.694255,-0.023193,-0.708267,-1.128062,-0.206400,-0.332006
488,326143605,0.113968,-0.692564,-0.014011,-0.712162,-0.986018,0.022882,-0.361470
489,326176939,0.104495,-0.691550,-0.008104,-0.714688,-1.343209,0.964413,-0.117689
490,326210273,0.099517,-0.690634,-0.006579,-0.716298,-1.318331,1.002129,-0.156868
491,326243607,0.097298,-0.690689,-0.008212,-0.716533,-1.427050,1.048562,-0.139942
492,326276941,0.097701,-0.691781,-0.012288,-0.715365,-1.273948,1.033094,-0.122117
493,326310275,0.099496,-0.693318,-0.016906,-0.713533,-0.838372,0.888052,-0.012837
494,326343609,0.102742,-0.694922,-0.022013,-0.711370,-0.590477,0.941630,0.170028
495,326376943,0.107139,-0.696146,-0.027913,-0.709315,-0.409482,1.458698,0.394725
496,326410277,0.112595,-0.696287,-0.034906,-0.708021,-0.169957,1.531383,0.315881
497,326443611,0.120793,-0.694308,-0.044613,-0.708068,0.101563,1.197215,0.483172
498,326476945,0.133867,-0.686951,-0.057548,-0.711949,0.342256,1.553397,0.764192
499,326510279,0.149418,-0.677171,-0.070942,-0.716997,-0.544494,2.068492,0.360192
500,326543613,0.163793,-0.668787,-0.082345,-0.720500,-0.397486,2.294474,0.991809
501,326576947,0.182953,-0.660470,-0.096559,-0.721796,-1.139473,2.516240,1.382042
502,326610281,0.207104,-0.654053,-0.113547,-0.718633,-1.934124,0.396092,0.112486
503,326643615,0.229121,-0.650508,-0.125261,-0.713203,-2.390789,1.123281,-0.262320
504,326676949,0.247084,-0.649199,-0.132672,-0.707031,-0.032898,-2.365121,-1.032315
505,326710283,0.257107,-0.651601,-0.137804,-0.700234,0.227189,-4.121120,-1.005090
506,326743617,0.257769,-0.657124,-0.139654,-0.694439,-0.098700,-3.553549,-0.909960
507,326776951,0.270701,-0.648895,-0.146122,-0.695923,0.160997,-2.403162,0.882894
508,326810285,0.281454,-0.644038,-0.152863,-0.694721,-2.232892,0.816370,-2.108586
509,326843619,0.285039,-0.651107,-0.154820,-0.686183,-0.102606,0.526941,-0.567292
510,326876953,0.288952,-0.658929,-0.168293,-0.673797,1.181894,-2.555018,-0.032998
511,326910287,0.291641,-0.667407,-0.187428,-0.659082,1.078387,-1.976914,1.649719
512,326943621,0.286715,-0.671777,-0.198171,-0.653639,2.497801,0.781352,1.040671
513,326976955,0.278611,-0.672647,-0.197973,-0.656303,1.915695,4.291912,0.809243
514,327010289,0.275018,-0.676081,-0.197066,-0.654560,1.345992,2.326304,0.026675
515,327043623,0.268718,-0.682968,-0.199043,-0.649409,0.891309,-0.741059,0.461475
516,327076957,0.265395,-0.685880,-0.206026,-0.645516,0.261341,-0.355737,0.234898
517,327110291,0.263371,-0.687182,-0.213048,-0.642675,-0.338619,0.854049,0.223976
518,327143625,0.261922,-0.689679,-0.219788,-0.638309,0.531605,-0.505884,-0.046376
519,327176959,0.256120,-0.694464,-0.223180,-0.634285,0.035807,-1.393516,0.355322
520,327210293,0.242665,-0.699874,-0.219078,-0.635059,-0.778294,1.482977,-0.031371
521,327243627,0.232788,-0.706374,-0.217581,-0.632068,-0.428555,0.259199,-0.480357
522,327276961,0.226364,-0.713686,-0.219731,-0.625409,0.037801,-1.185936,0.227019
523,327310295,0.220773,-0.719036,-0.223359,-0.619970,0.204971,-0.324325,-0.046752
524,327343629,0.215008,-0.723389,-0.223807,-0.616763,1.795771,-0.867245,0.473729
525,327376963,0.206460,-0.726023,-0.219562,-0.618113,1.616514,-1.151455,0.766721
526,327410297,0.198291,-0.727008,-0.214250,-0.621485,0.751500,-0.944445,0.459383
527,327443631,0.190630,-0.728059,-0.208706,-0.624530,0.066086,-0.757313,0.110595
528,327476965,0.184898,-0.728690,-0.204253,-0.626985,-0.143770,-0.400576,-0.026175
529,327510299,0.181137,-0.728879,-0.202054,-0.628574,0.048720,-0.084340,0.285272
530,327543633,0.177859,-0.729258,-0.201237,-0.629332,0.230339,-0.450427,0.185433
531,327576967,0.174649,-0.730188,-0.200275,-0.629460,0.017947,-0.558463,0.057811
532,327610301,0.172636,-0.731196,-0.199587,-0.629063,-0.239419,-0.220726,0.081083
533,327643635,0.171770,-0.732186,-0.200637,-0.627813,-0.348054,0.192734,0.168601
534,327676969,0.171857,-0.733328,-0.203175,-0.625637,-0.086157,-0.126037,0.090051
535,327710303,0.172874,-0.734648,-0.206382,-0.622752,-0.048890,-0.335887,0.043376
536,327743637,0.173630,-0.735433,-0.207914,-0.621102,0.177662,-0.528026,0.302400
537,327776971,0.172965,-0.736185,-0.208259,-0.620281,-0.034322,-0.108697,0.274143
538,327810305,0.174002,-0.736442,-0.210858,-0.618807,-0.074110,0.145922,0.131269
539,327843639,0.176384,-0.736322,-0.215288,-0.616746,0.109746,0.441242,0.203938
540,327876973,0.178565,-0.735656,-0.219014,-0.615601,-0.033499,0.870681,0.016914
541,327910307,0.180289,-0.735422,-0.221754,-0.614396,-0.293524,0.097634,0.281980
542,327943641,0.180329,-0.735911,-0.223571,-0.613138,-0.544868,-0.401069,0.184638
543,327976975,0.179744,-0.736482,-0.225096,-0.612065,-0.684587,-0.462347,0.241603
544,328010309,0.179417,-0.737223,-0.226795,-0.610640,-0.451610,-0.218656,0.042566
545,328043643,0.180449,-0.738154,-0.229637,-0.608145,-0.165400,-0.064019,0.128745
546,328076977,0.181310,-0.739841,-0.232617,-0.604696,0.602752,0.036373,0.195665
547,328110311,0.182486,-0.740209,-0.235020,-0.602960,1.393943,-0.284487,0.972121
548,328143645,0.182673,-0.739092,-0.236190,-0.603816,0.834989,0.155336,0.299328
549,328176979,0.184412,-0.738147,-0.238229,-0.603643,0.103064,-0.238259,0.075138
550,328210313,0.188081,-0.736456,-0.241052,-0.603455,-0.568599,-0.329807,-0.232804
551,328243647,0.189606,-0.736380,-0.242383,-0.602537,-0.499031,-0.761001,-0.121328
552,328276981,0.190725,-0.736744,-0.243135,-0.601435,-0.196278,-1.012792,0.082810
553,328310315,0.188839,-0.737553,-0.241743,-0.601599,0.259783,-0.363294,0.288820
554,328343649,0.188107,-0.738002,-0.240314,-0.601850,0.208620,-0.411400,0.541830
555,328376983,0.188079,-0.737580,-0.239508,-0.602697,0.227837,0.053318,-0.158994
556,328410317,0.189666,-0.736788,-0.240026,-0.602963,0.219342,-0.234023,0.504622
557,328443651,0.192097,-0.735428,-0.240927,-0.603494,-0.052450,-0.304496,0.055158
558,328476985,0.193591,-0.734348,-0.240646,-0.604443,0.069306,-0.029751,0.173119
559,328510319,0.194217,-0.733513,-0.239646,-0.605652,0.207373,-0.268932,0.043840
560,328543653,0.194659,-0.732957,-0.238603,-0.606595,0.384742,-0.640196,0.154251
561,328576987,0.195301,-0.732222,-0.237398,-0.607748,0.359264,-0.734641,0.500030
562,328610321,0.197310,-0.730068,-0.236545,-0.610019,0.269777,0.090212,0.284836
563,328643655,0.200974,-0.727143,-0.236576,-0.612299,0.213660,0.041211,0.019222
564,328676989,0.204552,-0.725179,-0.236592,-0.613436,0.110512,-0.549677,-0.019679
565,328710323,0.206762,-0.723893,-0.235553,-0.614613,0.368078,-1.020159,0.186623
566,328743657,0.207459,-0.721993,-0.232435,-0.617792,-0.085620,-0.158144,0.289035
567,328776991,0.207846,-0.720747,-0.228005,-0.620761,-0.039515,-0.569157,0.120256
568,328810325,0.208152,-0.720215,-0.223396,-0.622948,-0.289928,-0.640313,0.007804
569,328843659,0.208824,-0.719486,-0.218989,-0.625127,-0.312298,0.126152,0.244135
570,328876993,0.211139,-0.718746,-0.215618,-0.626371,0.338947,-0.490018,0.193300
571,328910327,0.212600,-0.717969,-0.211325,-0.628228,0.415741,-0.489893,0.076571
572,328943661,0.213387,-0.717043,-0.206158,-0.630730,0.306609,-0.075145,0.226882
573,328976995,0.214986,-0.716150,-0.201239,-0.632788,0.166584,-0.041974,0.140175
574,329010329,0.217032,-0.716079,-0.196674,-0.633604,-0.050832,-0.377306,0.009625
575,329043663,0.218359,-0.716101,-0.191287,-0.634771,0.186588,-0.170647,0.146437
576,329076997,0.219735,-0.716216,-0.185680,-0.635831,0.316651,-0.239808,0.096331
577,329110331,0.220248,-0.716861,-0.179060,-0.636824,0.204809,-0.462662,0.160920
578,329143665,0.218631,-0.718067,-0.170176,-0.638458,0.317918,-0.510923,0.031731
579,329176999,0.214679,-0.719822,-0.159173,-0.640656,0.724032,-0.333315,0.043312
580,329210333,0.208791,-0.722191,-0.146866,-0.642871,1.103303,-0.038542,0.253931
581,329243667,0.202170,-0.724404,-0.134334,-0.645235,1.015267,0.287815,0.225932
582,329277001,0.195412,-0.726925,-0.122554,-0.646824,1.009385,0.343347,0.270949
583,329310335,0.188864,-0.728348,-0.110710,-0.649299,1.482406,-0.368641,0.328672
584,329343669,0.181925,-0.728049,-0.099089,-0.653481,1.378440,-0.809397,0.361792
585,329377003,0.173737,-0.726332,-0.087948,-0.659188,0.475336,-0.702353,0.425941
586,329410337,0.164951,-0.722625,-0.077046,-0.666840,-0.104608,-0.633737,0.436517
587,329443671,0.155568,-0.718460,-0.066285,-0.674705,-0.593504,0.333810,0.916612
588,329477005,0.145778,-0.714031,-0.054786,-0.682579,-0.431124,1.077028,0.483332
589,329510339,0.137270,-0.710503,-0.044781,-0.688726,-0.266446,0.626477,-0.243098
590,329543673,0.129223,-0.707931,-0.037079,-0.693374,-0.648136,0.682129,0.019060
591,329577007,0.122834,-0.704312,-0.032510,-0.698432,-0.781263,0.973256,0.231712
592,329610341,0.118414,-0.700055,-0.030963,-0.703526,-0.992135,1.029833,0.167093
593,329643675,0.116631,-0.695922,-0.032511,-0.707841,-1.133618,1.059637,-0.022604
594,329677009,0.117785,-0.692460,-0.037253,-0.710806,-1.322654,0.417913,-0.095044
595,329710343,0.119873,-0.690553,-0.043494,-0.711957,-1.363086,-0.804280,-0.015713
596,329743677,0.119397,-0.689821,-0.047671,-0.712478,-1.044926,-0.801731,0.336248
597,329777011,0.115636,-0.688821,-0.048721,-0.713994,-0.698996,0.246709,0.218539
598,329810345,0.110821,-0.686054,-0.046617,-0.717553,-0.021489,1.785171,0.068142
599,329843679,0.109247,-0.682903,-0.045166,-0.720886,-0.062412,2.356514,-0.120918
600,329877013,0.111941,-0.679837,-0.046141,-0.723304,-0.234555,2.345045,0.324082
601,329910347,0.118678,-0.676223,-0.050139,-0.725349,-0.390212,2.180645,0.621932
602,329943681,0.132326,-0.672811,-0.058408,-0.725542,-1.224917,2.991609,0.311647
603,329977015,0.153839,-0.669150,-0.072843,-0.723376,-1.807985,1.741654,-0.015643
604,330010349,0.178228,-0.665669,-0.089941,-0.719053,-1.693152,-0.338364,0.008264
605,330043683,0.198289,-0.662718,-0.103409,-0.714703,-1.486372,-1.197182,-0.061707
606,330077017,0.213909,-0.660339,-0.113591,-0.710844,-1.200643,-1.303211,-0.390430
607,330110351,0.227387,-0.659017,-0.123216,-0.706270,-0.590758,-1.344411,-0.448878
608,330143685,0.240014,-0.658668,-0.133746,-0.700478,-0.685868,-0.987182,-0.447819
609,330177019,0.253277,-0.658918,-0.145351,-0.693223,-0.720910,-0.479689,0.025368
610,330210353,0.265987,-0.658569,-0.157097,-0.686196,-0.079693,-0.148608,-0.262064
611,330243687,0.277114,-0.658872,-0.170971,-0.678138,0.482368,-1.019782,-0.575355
612,330277021,0.284819,-0.661111,-0.184547,-0.669148,0.229034,-1.053127,0.230117
613,330310355,0.290726,-0.663345,-0.196988,-0.660798,0.809283,-0.933048,0.503562
614,330343689,0.295126,-0.666217,-0.209031,-0.652203,0.623733,-0.372939,0.427961
615,330377023,0.299011,-0.670329,-0.220399,-0.642403,0.743145,0.311812,0.305686
616,330410357,0.300310,-0.675116,-0.229231,-0.633634,1.509421,-0.167650,0.277994
617,330443691,0.296581,-0.682617,-0.233659,-0.625687,0.823871,0.369786,0.457008
618,330477025,0.291378,-0.690121,-0.235938,-0.619009,1.363232,0.760158,0.481675
619,330510359,0.285292,-0.697152,-0.237189,-0.613461,1.361064,0.907676,0.461467
620,330543693,0.278857,-0.702725,-0.237040,-0.610111,1.107116,1.238708,0.642350
621,330577027,0.271894,-0.706283,-0.236256,-0.609448,1.382766,0.983721,0.513787
622,330610361,0.265142,-0.709042,-0.236605,-0.609083,0.845911,0.314212,0.269023
623,330643695,0.261338,-0.711755,-0.239277,-0.606515,-0.007809,-0.166545,0.003484
624,330677029,0.257732,-0.714982,-0.241276,-0.603462,-0.045533,-0.529072,0.024977
625,330710363,0.252457,-0.718214,-0.241530,-0.601749,-0.201739,-0.206559,0.166417
626,330743697,0.246087,-0.721484,-0.239681,-0.601216,-0.297587,-0.516567,0.051755
627,330777031,0.237383,-0.725121,-0.236010,-0.601792,0.050444,-0.606865,0.016078
628,330810365,0.230819,-0.728054,-0.234101,-0.601549,0.220563,0.086336,0.151005
629,330843699,0.225850,-0.731048,-0.232838,-0.600294,0.600679,-0.149568,0.156818
630,330877033,0.220352,-0.734054,-0.231737,-0.599093,0.501999,-0.065451,0.185575
631,330910367,0.218510,-0.736286,-0.233242,-0.596439,0.393725,-0.548607,0.215487
632,330943701,0.216960,-0.738691,-0.235267,-0.593227,0.067909,-0.475322,0.211330
633,330977035,0.215804,-0.740686,-0.237065,-0.590440,-0.220883,-0.226604,0.047823
634,331010369,0.214387,-0.742288,-0.238452,-0.588382,-0.022055,-0.372788,0.068735
635,331043703,0.209750,-0.744182,-0.237750,-0.587944,0.234703,-0.605178,0.228972
636,331077037,0.205246,-0.745935,-0.236102,-0.587977,0.076080,-0.147871,0.265005
637,331110371,0.202571,-0.748101,-0.233970,-0.587004,-0.274958,-0.047429,0.190549
638,331143705,0.198308,-0.750157,-0.231602,-0.586775,-0.088447,-0.295490,0.205310
639,331177039,0.195868,-0.751049,-0.231619,-0.586447,-0.311783,-0.157677,0.201854
640,331210373,0.194217,-0.751276,-0.231967,-0.586567,-0.163883,-0.471953,0.116535
641,331243707,0.192389,-0.751566,-0.231911,-0.586820,-0.291353,-0.075704,0.338855
642,331277041,0.191906,-0.751735,-0.232591,-0.586493,-0.264978,-0.059376,0.075959
643,331310375,0.189942,-0.751796,-0.232335,-0.587155,0.189834,-0.394464,0.325875
644,331343709,0.186801,-0.751892,-0.230753,-0.588661,0.141650,-0.230141,0.227406
645,331377043,0.184529,-0.752080,-0.228737,-0.589924,0.099455,-0.522884,0.141837
646,331410377,0.181165,-0.752440,-0.225759,-0.591651,0.139236,-0.155344,0.255581
647,331443711,0.179686,-0.752445,-0.224047,-0.592746,0.109276,-0.007430,-0.029961
648,331477045,0.178151,-0.752553,-0.223110,-0.593426,0.418870,-0.228926,0.288148
649,331510379,0.177522,-0.752260,-0.222310,-0.594285,0.701373,-0.144647,0.109416
650,331543713,0.176761,-0.752654,-0.220626,-0.594641,0.480519,-0.360932,0.238860
651,331577047,0.175041,-0.753693,-0.217817,-0.594869,0.168424,-0.556527,0.199013
652,331610381,0.172961,-0.754609,-0.214099,-0.595666,0.142513,-0.416644,0.234855
653,331643715,0.171014,-0.755498,-0.210137,-0.596511,-0.000926,-0.269155,0.077641
654,331677049,0.169664,-0.756337,-0.206695,-0.597036,-0.178508,-0.100447,0.195930
655,331710383,0.169627,-0.757013,-0.204458,-0.596960,-0.203508,-0.035049,0.043684
656,331743717,0.169959,-0.757549,-0.202895,-0.596719,0.139878,-0.421690,0.222540
657,331777051,0.170300,-0.758061,-0.201434,-0.596466,0.162183,-0.168290,0.134934
658,331810385,0.172541,-0.758477,-0.201076,-0.595413,0.037767,0.070394,0.204906
659,331843719,0.175410,-0.758611,-0.201498,-0.594261,0.143460,-0.294785,0.222531
660,331877053,0.178591,-0.758357,-0.202102,-0.593431,-0.071950,-0.003263,0.166392
661,331910387,0.181225,-0.758235,-0.201915,-0.592851,-0.215129,-0.031188,0.165584
662,331943721,0.184031,-0.758015,-0.201852,-0.592290,-0.249680,-0.141370,0.227121
663,331977055,0.187192,-0.757412,-0.202352,-0.591900,-0.409683,-0.345369,0.172287
664,332010389,0.189300,-0.756728,-0.202084,-0.592196,-0.395944,-0.267100,0.287116
665,332043723,0.190149,-0.755951,-0.200007,-0.593619,-0.003459,-0.214079,0.257418
666,332077057,0.190177,-0.755211,-0.197105,-0.595520,0.088549,0.055813,0.184009
667,332110391,0.191310,-0.754290,-0.195495,-0.596854,-0.054053,-0.003126,0.126695
668,332143725,0.193512,-0.753034,-0.195397,-0.597762,0.021164,0.089396,0.218389
669,332177059,0.196437,-0.751300,-0.195706,-0.598887,0.317937,-0.069528,0.050344
670,332210393,0.199112,-0.749979,-0.195639,-0.599680,0.273151,-0.365269,0.176775
671,332243727,0.200630,-0.749242,-0.194615,-0.600429,0.350538,-0.390110,0.233966
672,332277061,0.202734,-0.748291,-0.193317,-0.601326,0.308690,-0.285768,0.255734
673,332310395,0.204483,-0.747265,-0.191368,-0.602633,0.189311,-0.018997,0.051894
674,332343729,0.206306,-0.746195,-0.189336,-0.603977,0.251934,-0.114079,0.156667
675,332377063,0.208594,-0.745247,-0.187707,-0.604869,0.148612,0.099756,0.250989
676,332410397,0.212149,-0.743790,-0.187164,-0.605595,0.380714,-0.015253,0.094045
677,332443731,0.216533,-0.741922,-0.187340,-0.606279,0.426136,-0.165002,0.182561
678,332477065,0.220085,-0.739998,-0.186277,-0.607678,0.571052,0.075035,0.369629
679,332510399,0.224190,-0.737582,-0.185040,-0.609489,0.621176,0.010687,0.188994
680,332543733,0.228832,-0.735281,-0.183749,-0.610933,-0.121412,0.084892,0.160708
681,332577067,0.231855,-0.733062,-0.181030,-0.613268,-0.053260,0.001440,0.095454
682,332610401,0.233809,-0.730601,-0.177912,-0.616367,0.139068,-0.068245,0.271671
683,332643735,0.237174,-0.727871,-0.175878,-0.618890,0.094251,0.051522,0.259416
684,332677069,0.240131,-0.725575,-0.172651,-0.621350,0.087109,-0.140750,0.017610
685,332710403,0.240972,-0.723894,-0.167152,-0.624481,0.280303,-0.258400,0.314654
686,332743737,0.240613,-0.722283,-0.160900,-0.628116,0.288182,-0.396656,0.131367
687,332777071,0.238430,-0.721209,-0.152743,-0.632206,0.371124,-0.609119,0.123255
688,332810405,0.233201,-0.720798,-0.141997,-0.637111,0.601685,-0.457986,0.242228
689,332843739,0.227036,-0.719945,-0.130586,-0.642718,0.886384,-0.266344,0.425381
690,332877073,0.221319,-0.718137,-0.119623,-0.648840,0.745195,-0.149900,0.115855
691,332910407,0.215026,-0.715091,-0.107798,-0.656349,0.507053,0.167837,0.324654
692,332943741,0.208362,-0.710875,-0.096107,-0.664839,0.132256,0.661179,0.451401
693,332977075,0.202392,-0.706537,-0.086009,-0.672645,-0.405466,0.267376,0.092772
694,333010409,0.196458,-0.703575,-0.076977,-0.678577,-0.899840,-0.059680,0.384641
695,333043743,0.190319,-0.701330,-0.068310,-0.683560,-0.859401,0.442532,0.128904
696,333077077,0.186410,-0.699616,-0.062455,-0.686945,-0.906223,0.245487,-0.100794
697,333110411,0.182823,-0.698685,-0.057891,-0.689253,-1.229125,-0.089087,0.011930
698,333143745,0.177321,-0.698503,-0.051720,-0.691362,-1.322226,-0.225200,-0.001213
699,333177079,0.169903,-0.699226,-0.043773,-0.693041,-1.078104,0.046957,0.029206
700,333210413,0.163011,-0.700483,-0.036266,-0.693860,-0.789651,0.526596,-0.300833
701,333243747,0.158791,-0.701797,-0.031494,-0.693743,-0.568088,0.577911,-0.194345
702,333277081,0.156556,-0.703263,-0.029408,-0.692859,-0.497620,0.589684,0.026298
703,333310415,0.156105,-0.704712,-0.029722,-0.691473,-0.443056,0.622727,0.301039
704,333343749,0.157700,-0.706141,-0.031695,-0.689563,-0.272570,0.430965,0.607242
705,333377083,0.160274,-0.707449,-0.034129,-0.687509,-0.326803,0.244839,0.326557
706,333410417,0.162552,-0.708379,-0.036676,-0.685884,-0.168329,0.378691,0.174656
707,333443751,0.165348,-0.706513,-0.040595,-0.686919,0.272145,0.698969,0.235701
708,333477085,0.169543,-0.703018,-0.047394,-0.689044,-0.663734,0.945282,0.100372
709,333510419,0.175715,-0.700998,-0.056415,-0.688875,-1.258638,0.728949,-0.219908
710,333543753,0.184615,-0.698499,-0.068272,-0.688013,-0.920021,1.120769,0.316288
711,333577087,0.198066,-0.694821,-0.083984,-0.686255,-1.046223,1.137711,0.331120
712,333610421,0.214203,-0.689960,-0.100291,-0.684120,-0.634328,1.809112,0.451579
713,333643755,0.232495,-0.685297,-0.117935,-0.680008,-0.755484,1.012234,0.414551
714,333677089,0.249966,-0.681241,-0.134213,-0.674848,-0.588562,0.803710,0.497996
715,333710423,0.267309,-0.675169,-0.150191,-0.670926,0.553997,-0.070001,0.360251
716,333743757,0.282323,-0.667897,-0.166464,-0.668209,1.245701,-2.138476,-0.709484
717,333777091,0.292155,-0.661940,-0.180965,-0.666137,1.941795,-2.897145,0.102402
718,333810425,0.301344,-0.658143,-0.194974,-0.661839,-1.672843,-0.982383,-0.027296
719,333843759,0.309523,-0.655128,-0.208376,-0.656953,0.276204,0.457980,0.443377
720,333877093,0.312390,-0.652704,-0.217638,-0.655003,1.887533,-0.367811,-0.073257
721,333910427,0.311411,-0.654493,-0.223189,-0.651808,0.637211,0.242490,0.452760
722,333943761,0.306535,-0.657057,-0.224070,-0.651237,0.121313,1.267292,0.377316
723,333977095,0.304050,-0.659118,-0.226909,-0.649334,0.644375,0.109396,0.034382
724,334010429,0.302622,-0.661198,-0.231695,-0.646189,0.020709,-0.241284,0.032733
725,334043763,0.301572,-0.662108,-0.237734,-0.643549,-0.123044,1.422614,-0.076195
726,334077097,0.303783,-0.662613,-0.246086,-0.638833,0.825814,-0.271696,-0.015056
727,334110431,0.301823,-0.665778,-0.250614,-0.634697,0.564997,-0.924440,0.333949
728,334143765,0.295851,-0.670481,-0.251755,-0.632102,0.188431,-0.445295,0.122370
729,334177099,0.290378,-0.675008,-0.251656,-0.629857,-0.068898,-0.242654,0.003853
730,334210433,0.283793,-0.680840,-0.250976,-0.626846,-0.246044,-0.488191,0.160869
731,334243767,0.277005,-0.687139,-0.250540,-0.623172,-0.374910,-1.033486,0.079384
732,334277101,0.268557,-0.694503,-0.248603,-0.619471,-0.970436,-0.303538,0.108882
733,334310435,0.258137,-0.703111,-0.244736,-0.615719,-0.668769,0.005342,-0.024714
734,334343769,0.246316,-0.713104,-0.240792,-0.610603,-0.207380,0.153990,-0.131774
735,334377103,0.234630,-0.723173,-0.237271,-0.604712,0.006631,0.230270,-0.181589
736,334410437,0.223741,-0.731313,-0.232832,-0.600763,0.763086,-0.002148,0.848845
737,334443771,0.215290,-0.733706,-0.228804,-0.602478,2.608058,0.761455,1.048462
738,334477105,0.209785,-0.734884,-0.228308,-0.603172,1.400232,0.102877,0.013124
739,334510439,0.206621,-0.737162,-0.229600,-0.600990,-0.193115,-0.777503,0.107812
740,334543773,0.202256,-0.739436,-0.228593,-0.600064,-0.624108,-0.517117,0.191297
741,334577107,0.197413,-0.740711,-0.226521,-0.600890,-0.248648,-0.386026,0.110881
742,334610441,0.192230,-0.741746,-0.225070,-0.601838,0.300060,-0.255366,0.361571
743,334643775,0.188402,-0.742798,-0.224626,-0.601917,0.411573,-0.353648,0.100626
744,334677109,0.186126,-0.743983,-0.224309,-0.601279,0.196199,-0.027638,0.076947
745,334710443,0.183064,-0.745108,-0.222914,-0.601345,0.210569,-0.075236,0.219711
746,334743777,0.180768,-0.746147,-0.222465,-0.600918,0.226726,-0.461795,0.124340
747,334777111,0.179857,-0.746840,-0.223155,-0.600073,0.010909,-0.517423,0.205032
748,334810445,0.179958,-0.747239,-0.223816,-0.599300,-0.186111,-0.074660,0.075563
749,334843779,0.180011,-0.748034,-0.224746,-0.597943,-0.168127,-0.268937,0.207380
750,334877113,0.179829,-0.748552,-0.225913,-0.596909,0.150233,-0.292319,0.360327
751,334910447,0.179368,-0.748752,-0.226539,-0.596559,0.311957,-0.181469,0.155724
752,334943781,0.178865,-0.749072,-0.226695,-0.596249,0.297627,-0.192691,0.300223
753,334977115,0.178211,-0.749535,-0.226334,-0.596000,0.213458,-0.183939,0.252505
754,335010449,0.177614,-0.749865,-0.225588,-0.596047,0.100841,-0.230035,0.179290
755,335043783,0.176889,-0.749991,-0.224525,-0.596504,-0.006950,-0.149430,0.134774
756,335077117,0.176100,-0.750292,-0.223284,-0.596824,-0.265093,-0.122972,0.181388
757,335110451,0.174599,-0.751094,-0.221383,-0.596965,-0.443669,-0.523021,0.114431
758,335143785,0.172110,-0.752061,-0.218543,-0.597517,-0.387741,-0.404989,0.245110
759,335177119,0.169712,-0.752966,-0.215358,-0.598219,-0.270969,-0.064467,0.090235
760,335210453,0.167206,-0.754188,-0.212238,-0.598500,-0.109276,-0.139371,0.227122
761,335243787,0.166832,-0.755023,-0.210958,-0.598005,0.184504,-0.032374,0.166093
762,335277121,0.167539,-0.755383,-0.210416,-0.597544,0.626174,-0.276635,0.266345
763,335310455,0.168114,-0.755721,-0.209117,-0.597410,0.820460,-0.498827,0.195257
764,335343789,0.168310,-0.756158,-0.206862,-0.597587,0.922131,-0.362953,0.495712
765,335377123,0.168110,-0.756265,-0.203501,-0.598661,0.339111,-0.140492,0.151092
766,335410457,0.166865,-0.757127,-0.198882,-0.599472,-0.990721,-0.359114,0.101067
767,335443791,0.166549,-0.757679,-0.194896,-0.600170,-0.884275,-0.323023,0.029542
768,335477125,0.167942,-0.757676,-0.192720,-0.600488,-0.592541,-0.010206,-0.008389
769,335510459,0.170502,-0.757519,-0.192181,-0.600138,-0.226718,-0.008385,0.223311
770,335543793,0.175266,-0.756932,-0.193824,-0.598977,0.266809,-0.490905,0.246921
771,335577127,0.180607,-0.755817,-0.196273,-0.598000,0.437728,-0.604394,0.235104
772,335610461,0.187764,-0.754175,-0.199479,-0.596807,0.511697,-0.407016,0.092933
773,335643795,0.194091,-0.752792,-0.201418,-0.595876,0.367988,-0.688375,0.118083
774,335677129,0.200296,-0.751720,-0.202248,-0.594895,-0.020580,-0.445261,0.143037
775,335710463,0.204962,-0.750922,-0.202223,-0.594322,-0.023356,-0.381994,0.255681
776,335743797,0.210184,-0.748935,-0.202233,-0.595002,0.082600,-0.183685,0.293247
777,335777131,0.214313,-0.746367,-0.201104,-0.597134,0.081309,-0.104673,0.075398
778,335810465,0.218233,-0.743674,-0.199578,-0.599581,0.444930,-0.094428,0.241151
779,335843799,0.222833,-0.741108,-0.198025,-0.601578,0.368214,0.066721,0.253463
780,335877133,0.226440,-0.738725,-0.195181,-0.604086,0.410138,-0.048464,0.195521
781,335910467,0.228050,-0.736575,-0.190178,-0.607690,0.578112,-0.246019,0.205935
782,335943801,0.228059,-0.734677,-0.183363,-0.612063,0.598177,-0.268478,0.154838
783,335977135,0.227209,-0.732897,-0.175140,-0.616902,0.836024,-0.410175,0.146821
784,336010469,0.224581,-0.731710,-0.164840,-0.622091,0.828064,-0.243358,0.211851
785,336043803,0.220241,-0.730527,-0.152270,-0.628207,0.905772,-0.078362,0.321881
786,336077137,0.213880,-0.729055,-0.137621,-0.635453,0.968837,-0.136029,0.247426
787,336110471,0.205460,-0.726866,-0.122082,-0.643858,0.955679,-0.085778,0.352488
788,336143805,0.197467,-0.723734,-0.108591,-0.652249,0.860176,-0.421725,0.405103
789,336177139,0.191162,-0.717597,-0.097962,-0.662511,0.811956,-0.125559,0.583588
790,336210473,0.183900,-0.711074,-0.087259,-0.673012,-0.483424,-0.006800,0.681092
791,336243807,0.173293,-0.705877,-0.073120,-0.682910,-0.537608,0.028514,0.254938
792,336277141,0.161641,-0.701721,-0.058461,-0.691409,-0.510997,-0.056609,-0.046745
793,336310475,0.150078,-0.698434,-0.044343,-0.698359,-0.861049,-0.305506,-0.197025
794,336343809,0.139188,-0.695540,-0.031599,-0.704172,-0.775280,0.101423,0.003053
795,336377143,0.128616,-0.693439,-0.020800,-0.708642,-1.058842,0.067643,-0.042290
796,336410477,0.117501,-0.691801,-0.010350,-0.712392,-1.183997,0.447290,0.033577
797,336443811,0.106718,-0.690209,-0.001099,-0.715700,-1.239567,0.964621,0.219543
798,336477145,0.098061,-0.688850,0.005254,-0.718225,-1.352364,1.642121,0.248723
799,336510479,0.092548,-0.687455,0.007611,-0.720269,-1.109319,2.266765,0.344139
800,336543813,0.091073,-0.686515,0.005677,-0.721371,-0.894533,1.762179,0.006990
801,336577147,0.092582,-0.686441,0.002064,-0.721268,-0.728290,1.356262,-0.307797
802,336610481,0.096589,-0.686852,-0.001858,-0.720352,-0.667837,0.415890,-0.516633
803,336643815,0.102434,-0.688081,-0.005126,-0.718353,-0.939749,0.146644,-0.090807
804,336677149,0.107638,-0.690032,-0.007111,-0.715699,-1.013170,-0.656817,0.228409
805,336710483,0.109694,-0.692330,-0.006971,-0.713164,-0.895598,-0.899177,-0.251007
806,336743817,0.110513,-0.694563,-0.007007,-0.710863,-0.613361,0.265055,-0.156096
807,336777151,0.113523,-0.696422,-0.010466,-0.708523,-0.410460,1.166836,0.141913
808,336810485,0.119352,-0.698119,-0.017448,-0.705752,-0.431288,1.248847,0.205047
809,336843819,0.127635,-0.699352,-0.026642,-0.702788,-0.124090,1.468364,0.617159
810,336877153,0.140548,-0.699503,-0.039846,-0.699542,0.053400,1.549773,0.343662
811,336910487,0.158400,-0.698394,-0.058271,-0.695532,-0.128996,0.897101,0.110195
812,336943821,0.178695,-0.696029,-0.079950,-0.690814,-0.494908,0.249602,0.675508
813,336977155,0.198224,-0.692037,-0.100520,-0.686799,-0.474976,0.292851,0.305671
814,337010489,0.217147,-0.687929,-0.118431,-0.682334,-0.478099,-0.169734,0.084923
815,337043823,0.234147,-0.684642,-0.132706,-0.677373,-0.241622,-0.501708,0.282935
816,337077157,0.249106,-0.682212,-0.144789,-0.671993,0.002718,-0.686382,0.108802
817,337110491,0.262983,-0.679633,-0.156993,-0.666556,0.356616,-0.769919,-0.087074
818,337143825,0.274699,-0.677117,-0.170089,-0.661156,0.242584,-1.097203,-0.049614
819,337177159,0.283637,-0.674975,-0.183061,-0.656089,-0.012062,-0.485752,-0.047999
820,337210493,0.292510,-0.671750,-0.197290,-0.651361,0.786265,-0.510946,-0.134587
821,337243827,0.298701,-0.668621,-0.210511,-0.647622,0.857050,-0.896888,0.011651
822,337277161,0.302925,-0.665894,-0.221130,-0.644925,0.949839,-0.724608,0.796329
823,337310495,0.301454,-0.665104,-0.225534,-0.644904,1.233195,0.364202,0.634500
824,337343829,0.299371,-0.665073,-0.227918,-0.645067,1.411361,0.984094,0.155856
825,337377163,0.299227,-0.664845,-0.230817,-0.644338,1.081310,0.656804,0.021559
826,337410497,0.298820,-0.663052,-0.231312,-0.646195,1.772846,0.473390,0.491015
827,337443831,0.297021,-0.663222,-0.232007,-0.646601,-0.062576,-0.382754,0.110222
828,337477165,0.293938,-0.665332,-0.233803,-0.645194,-0.944174,-0.138582,-0.189655
829,337510499,0.290870,-0.667397,-0.235589,-0.643801,-1.208866,0.599159,0.129526
830,337543833,0.286845,-0.670790,-0.236949,-0.641577,-0.839065,-0.246690,0.244902
831,337577167,0.281639,-0.675284,-0.238943,-0.638422,-0.932008,-0.406177,0.027132
832,337610501,0.276749,-0.679597,-0.241026,-0.635192,-0.770306,0.355343,-0.133992
833,337643835,0.273294,-0.684488,-0.242760,-0.630761,-0.414763,-0.378481,-0.312610
834,337677169,0.269076,-0.691520,-0.244079,-0.624363,-0.539969,-1.541940,0.035169
835,337710503,0.262423,-0.699476,-0.243302,-0.618608,0.357449,-0.871511,0.325583
836,337743837,0.255134,-0.706743,-0.241547,-0.614069,0.930309,0.643414,0.129018
837,337777171,0.250401,-0.711224,-0.240556,-0.611226,1.183240,0.610858,0.699772
838,337810505,0.245998,-0.712061,-0.240689,-0.611987,2.585515,0.836085,0.700115
839,337843839,0.242359,-0.713389,-0.241780,-0.611462,0.897374,-0.370515,0.231793
840,337877173,0.239091,-0.715259,-0.242499,-0.610278,-0.336863,-0.768392,-0.288382
841,337910507,0.235031,-0.717777,-0.241656,-0.609231,-0.311336,-0.885911,-0.033510
842,337943841,0.229292,-0.721083,-0.239791,-0.608251,-0.200515,-0.443487,0.088706
843,337977175,0.223914,-0.724331,-0.237747,-0.607196,-0.007782,-0.253712,-0.076271
844,338010509,0.217298,-0.727698,-0.233699,-0.607146,0.530388,-0.232198,0.324941
845,338043843,0.209364,-0.731816,-0.229739,-0.606495,0.333825,0.041960,0.253431
846,338077177,0.203809,-0.736193,-0.228690,-0.603478,-0.079636,0.739915,0.068827
847,338110511,0.199819,-0.740542,-0.227975,-0.599751,-0.067286,-0.022581,0.297853
848,338143845,0.195859,-0.743840,-0.226608,-0.597490,-0.483417,0.035800,0.252198
849,338177179,0.191775,-0.746411,-0.224357,-0.596457,-0.435210,-0.327812,0.400910
850,338210513,0.186977,-0.748304,-0.221913,-0.596522,-0.319341,-0.476286,0.320535
851,338243847,0.183839,-0.748955,-0.220392,-0.597244,-0.292370,-0.398621,0.132486
852,338277181,0.180901,-0.749435,-0.218751,-0.598142,-0.079163,-0.416397,0.383361
853,338310515,0.178123,-0.749670,-0.216615,-0.599457,0.230166,-0.415018,0.293641
854,338343849,0.174418,-0.749946,-0.213547,-0.601299,0.182847,-0.278562,0.256836
855,338377183,0.171324,-0.750199,-0.211027,-0.602762,-0.170541,0.018261,0.052430
856,338410517,0.169843,-0.750179,-0.209810,-0.603630,-0.301119,-0.080741,0.192667
857,338443851,0.168878,-0.749905,-0.209521,-0.604341,-0.076414,-0.120894,0.051272
858,338477185,0.169035,-0.749438,-0.210194,-0.604643,0.183534,-0.124245,0.131809
859,338510519,0.169700,-0.749215,-0.210802,-0.604520,0.427753,-0.379082,0.237902
860,338543853,0.169866,-0.749143,-0.210481,-0.604675,0.655855,-0.474903,0.259982
861,338577187,0.169425,-0.749404,-0.208789,-0.605062,0.582922,-0.498831,0.280556
862,338610521,0.169332,-0.750205,-0.206696,-0.604814,0.175052,-0.215564,-0.030329
863,338643855,0.170270,-0.751101,-0.205568,-0.603823,-0.000721,-0.185020,0.237624
864,338677189,0.172476,-0.751489,-0.205481,-0.602742,-0.009249,-0.086633,0.098821
865,338710523,0.175219,-0.751682,-0.205709,-0.601632,-0.169191,-0.219577,0.215360
866,338743857,0.177544,-0.751816,-0.205640,-0.600805,-0.042625,-0.281185,0.126863
867,338777191,0.180305,-0.751920,-0.206087,-0.599699,-0.005353,-0.452170,0.304413
868,338810525,0.183412,-0.751628,-0.206372,-0.599025,-0.212202,-0.225770,0.199357
869,338843859,0.185852,-0.751142,-0.205708,-0.599110,-0.159018,-0.116062,0.250655
870,338877193,0.188258,-0.750238,-0.205423,-0.599589,-0.142894,-0.005408,0.255561
871,338910527,0.192910,-0.748419,-0.207057,-0.599822,-0.251981,-0.132970,0.168852
872,338943861,0.197219,-0.746563,-0.208370,-0.600279,-0.215511,-0.322284,0.056231
873,338977195,0.200726,-0.745209,-0.208515,-0.600747,0.127957,-0.702392,0.096251
874,339010529,0.203064,-0.744423,-0.206461,-0.601645,0.531993,-0.753019,0.210603
875,339043863,0.203290,-0.744511,-0.201528,-0.603131,0.720994,-0.539484,0.096777
876,339077197,0.202592,-0.745243,-0.195130,-0.604564,0.661395,-0.444016,0.171604
877,339110531,0.201598,-0.746148,-0.187968,-0.606048,0.504120,-0.181047,0.176701
878,339143865,0.201002,-0.746916,-0.180550,-0.607553,0.621115,-0.144208,0.110180
879,339177199,0.200173,-0.748023,-0.172695,-0.608747,0.652575,-0.101786,0.269120
880,339210533,0.199157,-0.748807,-0.164410,-0.610409,0.545932,0.059768,0.257915
881,339243867,0.197649,-0.748692,-0.155456,-0.613378,0.580859,0.005755,0.316578
882,339277201,0.194352,-0.747680,-0.145355,-0.618124,0.673744,0.108034,0.409094
883,339310535,0.190999,-0.744948,-0.135484,-0.624676,0.892210,0.446470,0.373497
884,339343869,0.189046,-0.740700,-0.126818,-0.632097,1.012756,0.464341,0.216968
885,339377203,0.187442,-0.735340,-0.118834,-0.640330,1.194030,0.065450,0.262728
886,339410537,0.186045,-0.729066,-0.112020,-0.649080,0.875573,-0.428937,0.283623
887,339443871,0.186997,-0.720970,-0.107919,-0.658477,0.229118,-0.485332,0.206169
888,339477205,0.189659,-0.713720,-0.104757,-0.666081,-1.442736,-0.443601,0.347314
889,339510539,0.187421,-0.708679,-0.096878,-0.673250,-1.380661,-0.864223,0.689863
890,339543873,0.179445,-0.704638,-0.084288,-0.681311,-0.983383,-0.285275,0.114643
891,339577207,0.169790,-0.701653,-0.070481,-0.688397,-0.670603,0.158302,-0.155063
892,339610541,0.159434,-0.700326,-0.056844,-0.693467,-0.743364,0.210506,-0.192338
893,339643875,0.151147,-0.699833,-0.045519,-0.696650,-1.072863,0.658953,-0.114229
894,339677209,0.145388,-0.699285,-0.037150,-0.698919,-0.963311,0.751117,0.087926
895,339710543,0.141234,-0.698727,-0.031505,-0.700603,-0.879134,0.590826,0.100029
896,339743877,0.137854,-0.698276,-0.027979,-0.701875,-0.845459,0.494653,0.061333
897,339777211,0.135030,-0.698252,-0.025740,-0.702533,-0.898792,0.420267,-0.016328
898,339810545,0.132569,-0.698905,-0.023927,-0.702416,-0.907536,0.213701,0.019624
899,339843879,0.129692,-0.700028,-0.021574,-0.701911,-0.779358,0.581952,-0.171246
900,339877213,0.128522,-0.701393,-0.020691,-0.700790,-0.592043,0.648116,0.050572
901,339910547,0.128761,-0.702730,-0.021290,-0.699387,-0.315233,0.678895,0.348996
902,339943881,0.130659,-0.703786,-0.023914,-0.697886,-0.113829,0.832276,0.451030
903,339977215,0.134135,-0.704189,-0.028594,-0.696643,0.025442,0.702470,0.286737
904,340010549,0.138731,-0.703770,-0.035282,-0.695860,-0.049066,0.775800,0.217792
905,340043883,0.145038,-0.702537,-0.044246,-0.695307,-0.311150,1.087180,0.391142
906,340077217,0.152917,-0.700105,-0.054784,-0.695322,-0.535181,1.083071,0.298689
907,340110551,0.164434,-0.692032,-0.067269,-0.699666,0.115140,0.784049,0.535826
908,340143885,0.178053,-0.684380,-0.081827,-0.702303,-1.149206,1.091310,0.077465
909,340177219,0.193004,-0.678199,-0.097111,-0.702402,-1.562542,0.995315,0.167454
910,340210553,0.209113,-0.674415,-0.113007,-0.699049,-1.335229,0.165517,0.180256
911,340243887,0.222837,-0.672954,-0.124742,-0.694204,-0.953725,0.323916,0.061333
912,340277221,0.234163,-0.672887,-0.131619,-0.689254,-0.014904,0.498098,0.161291
913,340310555,0.243647,-0.673105,-0.136226,-0.684844,0.684399,-0.462549,-0.089785
914,340343889,0.251389,-0.673727,-0.142618,-0.680117,0.707501,-1.459222,0.113388
915,340377223,0.258210,-0.670741,-0.151487,-0.678594,1.024895,-2.248213,0.530453
916,340410557,0.267127,-0.664294,-0.162869,-0.678848,0.505362,-0.843948,-0.289485
917,340443891,0.278299,-0.660282,-0.177198,-0.674672,-0.845200,0.579118,-0.491169
918,340477225,0.291042,-0.656529,-0.194704,-0.668100,-0.798114,0.045441,-0.654537
919,340510559,0.301192,-0.653794,-0.212572,-0.660798,0.529436,-0.587013,0.623373
920,340543893,0.306789,-0.650650,-0.226668,-0.656628,1.599458,-0.559013,0.918390
921,340577227,0.308571,-0.650973,-0.235011,-0.652527,-0.437862,1.104552,0.405649
922,340610561,0.307945,-0.653070,-0.239564,-0.649063,1.002767,-0.224075,-0.349450
923,340643895,0.306354,-0.657018,-0.243204,-0.644462,0.654798,-0.569376,0.053691
924,340677229,0.303346,-0.659347,-0.245137,-0.642771,0.174746,1.349729,0.501154
925,340710563,0.304412,-0.660253,-0.251761,-0.638764,0.417204,0.487116,0.169878
926,340743897,0.305765,-0.661996,-0.259736,-0.633096,0.098574,0.321407,-0.100158
927,340777231,0.306599,-0.663307,-0.265517,-0.628909,1.129765,-0.291556,0.161325
928,340810565,0.306524,-0.665943,-0.270891,-0.623846,0.384239,-1.001745,0.280957
929,340843899,0.302675,-0.669624,-0.272074,-0.621265,0.180277,-0.339410,-0.020311
930,340877233,0.298108,-0.672917,-0.271130,-0.620328,0.295565,-0.541325,0.129883
931,340910567,0.292959,-0.677159,-0.270198,-0.618569,-0.215803,-0.674180,0.150627
932,340943901,0.286255,-0.682456,-0.267870,-0.616897,-0.564102,-0.637095,0.204095
933,340977235,0.279224,-0.687734,-0.264306,-0.615794,-0.619565,0.673026,-0.061312
934,341010569,0.274124,-0.692809,-0.262921,-0.612983,0.159149,-0.386333,0.248819
935,341043903,0.269094,-0.697531,-0.262484,-0.610036,-0.237470,-0.103471,0.224957
936,341077237,0.264130,-0.702885,-0.261158,-0.606621,0.283823,-0.423106,-0.025919
937,341110571,0.259499,-0.707586,-0.258768,-0.604173,0.426559,-0.356590,0.390161
938,341143905,0.254108,-0.710507,-0.254950,-0.604660,1.246712,0.048236,0.479941
939,341177239,0.247975,-0.712278,-0.250956,-0.606789,1.041253,0.104864,0.342832
940,341210573,0.242144,-0.714011,-0.247136,-0.608672,0.103783,-0.065214,0.221952
941,341243907,0.237511,-0.715646,-0.243714,-0.609957,-0.270670,-0.108841,0.017857
942,341277241,0.233415,-0.717105,-0.241016,-0.610895,-0.239127,-0.141794,0.107893
943,341310575,0.230703,-0.718123,-0.239785,-0.611214,-0.205811,-0.188478,0.266646
944,341343909,0.228531,-0.718792,-0.239270,-0.611444,0.070584,-0.162357,0.224362
945,341377243,0.226890,-0.719257,-0.239437,-0.611444,-0.140510,-0.062387,0.110513
946,341410577,0.225565,-0.719603,-0.239502,-0.611502,-0.164767,-0.226289,0.215092
947,341443911,0.224375,-0.720138,-0.239674,-0.611242,-0.080982,-0.400112,0.062778
948,341477245,0.223206,-0.720802,-0.240108,-0.610717,0.018182,-0.170721,0.104833
949,341510579,0.222776,-0.721587,-0.241150,-0.609535,0.176691,-0.219837,0.162711
950,341543913,0.222686,-0.722427,-0.242484,-0.608042,0.311764,0.057866,0.177701
951,341577247,0.223843,-0.722896,-0.244637,-0.606194,0.129710,0.095488,0.160725
952,341610581,0.225420,-0.723266,-0.247558,-0.603979,0.049612,-0.019186,0.208494
953,341643915,0.225411,-0.724264,-0.249177,-0.602117,0.072120,-0.097827,0.162057
954,341677249,0.223706,-0.726197,-0.249718,-0.600198,-0.049234,0.025963,0.168901
955,341710583,0.223949,-0.726425,-0.251119,-0.599247,-0.567858,-0.114536,0.474510
956,341743917,0.224217,-0.726272,-0.252458,-0.598768,-0.009591,0.181323,-0.139193
957,341777251,0.223479,-0.727775,-0.253352,-0.596838,0.051937,-0.091816,0.055099
958,341810585,0.221114,-0.730200,-0.252486,-0.595122,0.240731,-0.188748,0.242999
959,341843919,0.218053,-0.732666,-0.250655,-0.593993,0.151793,-0.325872,0.272096
960,341877253,0.215027,-0.734684,-0.248406,-0.593549,-0.160758,-0.154745,0.227609
961,341910587,0.212726,-0.735936,-0.246407,-0.593660,-0.204221,-0.296191,0.222056
962,341943921,0.210158,-0.737024,-0.244179,-0.594145,-0.112674,-0.315116,0.166249
963,341977255,0.208116,-0.738127,-0.241864,-0.594442,-0.087205,-0.182949,0.120909
964,342010589,0.205651,-0.739378,-0.238917,-0.594936,-0.050713,-0.249800,0.257049
965,342043923,0.202212,-0.740484,-0.235476,-0.596111,0.011380,-0.024218,0.295145
966,342077257,0.199802,-0.741083,-0.232754,-0.597246,-0.014121,0.037312,0.204309
967,342110591,0.197304,-0.741401,-0.230262,-0.598647,0.034176,0.061474,0.227120
968,342143925,0.195679,-0.741319,-0.229016,-0.599759,-0.020894,0.342760,0.180522
969,342177259,0.196663,-0.740871,-0.230199,-0.599538,-0.318224,0.319182,0.055029
970,342210593,0.197226,-0.740496,-0.231601,-0.599275,-0.150383,-0.082284,0.107940
971,342243927,0.197238,-0.740352,-0.232493,-0.599104,0.252343,-0.346163,0.196764
972,342277261,0.197386,-0.740532,-0.233045,-0.598618,0.270095,-0.392437,0.141130
973,342310595,0.197222,-0.740972,-0.232654,-0.598280,0.377856,-0.251082,0.234202
974,342343929,0.196761,-0.741469,-0.231890,-0.598113,0.364849,-0.121571,0.243224
975,342377263,0.196833,-0.741732,-0.231402,-0.597951,0.074438,0.026570,0.185266
976,342410597,0.197545,-0.741877,-0.231451,-0.597517,-0.056019,-0.083029,0.104727
977,342443931,0.198955,-0.741735,-0.232333,-0.596884,-0.070318,-0.146942,0.173833
978,342477265,0.200659,-0.741534,-0.233469,-0.596119,-0.058976,-0.088376,0.065666
979,342510599,0.202677,-0.741450,-0.234626,-0.595085,0.109507,-0.409975,0.190874
980,342543933,0.203576,-0.741688,-0.234736,-0.594439,0.100044,-0.275191,0.277745
981,342577267,0.204817,-0.741617,-0.234419,-0.594226,-0.018462,-0.082830,0.250089
982,342610601,0.205885,-0.741321,-0.234115,-0.594347,-0.155387,-0.038489,0.224951
983,342643935,0.206483,-0.740827,-0.233999,-0.594801,-0.346808,-0.057698,0.144319
984,342677269,0.207740,-0.740152,-0.234103,-0.595162,-0.388233,-0.323469,0.120069
985,342710603,0.208214,-0.739995,-0.233245,-0.595529,-0.135010,-0.385425,0.072524
986,342743937,0.208225,-0.740211,-0.231847,-0.595802,0.183282,-0.561712,0.192432
987,342777271,0.207965,-0.740597,-0.229489,-0.596326,0.368193,-0.604756,0.182316
988,342810605,0.206649,-0.741516,-0.225108,-0.597310,0.493310,-0.494283,0.238062
989,342843939,0.204587,-0.742550,-0.219576,-0.598793,0.499256,-0.007721,0.223084
990,342877273,0.203818,-0.743216,-0.215177,-0.599824,0.258369,0.146324,0.189044
991,342910607,0.203318,-0.743838,-0.211119,-0.600665,0.052006,0.081565,0.233993
992,342943941,0.202665,-0.744354,-0.206978,-0.601687,0.135366,0.002625,0.095067
993,342977275,0.202595,-0.744685,-0.203240,-0.602574,0.170210,-0.165257,0.241610
994,343010609,0.202833,-0.744778,-0.199664,-0.603574,0.233644,-0.085328,0.122728
995,343043943,0.203844,-0.744504,-0.196923,-0.604471,0.368832,-0.043851,0.225415
996,343077277,0.204803,-0.744018,-0.194127,-0.605648,0.420496,-0.092446,0.327915
997,343110611,0.206018,-0.742963,-0.191103,-0.607491,0.542403,-0.022259,0.167061
998,343143945,0.207440,-0.741600,-0.187780,-0.609704,0.373984,-0.010878,0.184983
999,343177279,0.208887,-0.740038,-0.184189,-0.612199,0.208971,0.091086,0.333809
1000,343210613,0.209753,-0.738109,-0.180493,-0.615324,0.114068,0.129813,0.229307
1001,343243947,0.210910,-0.735174,-0.176905,-0.619470,0.141336,0.218239,0.219102
1002,343277281,0.212534,-0.731419,-0.173879,-0.624199,0.066210,0.347849,0.300527
1003,343310615,0.214687,-0.727924,-0.171759,-0.628122,-0.087510,0.407246,0.216669
1004,343343949,0.218147,-0.724743,-0.171077,-0.630788,-0.125490,0.020638,0.062661
1005,343377283,0.222661,-0.721059,-0.171110,-0.633419,-0.219484,-0.199538,0.141004
1006,343410617,0.226491,-0.716990,-0.170676,-0.636788,0.083232,-0.492938,0.144682
1007,343443951,0.227851,-0.713595,-0.168204,-0.640762,0.431497,-1.179020,0.081918
1008,343477285,0.225875,-0.710896,-0.162105,-0.646012,0.306034,-1.087488,0.192350
1009,343510619,0.221808,-0.708399,-0.152649,-0.652436,0.237933,-0.478750,0.196583
1010,343543953,0.215875,-0.706340,-0.140837,-0.659280,0.168952,-0.247590,0.042260
1011,343577287,0.208819,-0.704953,-0.128348,-0.665556,0.163025,-0.235827,0.042395
1012,343610621,0.201410,-0.703885,-0.115908,-0.671229,-0.057428,-0.134208,0.171545
1013,343643955,0.194520,-0.702932,-0.104360,-0.676136,-0.187502,0.226813,0.431015
1014,343677289,0.188846,-0.701854,-0.094359,-0.680321,-0.183769,0.431053,0.265652
1015,343710623,0.184039,-0.701046,-0.085607,-0.683621,-0.378298,0.169852,0.119591
1016,343743957,0.178214,-0.700663,-0.076535,-0.686627,-0.478346,-0.019614,0.121118
1017,343777291,0.171625,-0.700507,-0.066912,-0.689464,-0.487560,0.009968,0.138490
1018,343810625,0.164741,-0.700525,-0.057366,-0.691980,-0.453528,0.140241,0.053039
1019,343843959,0.158242,-0.700855,-0.048682,-0.693826,-0.659830,0.271799,0.046732
1020,343877293,0.151725,-0.701443,-0.040374,-0.695220,-0.746855,0.278678,0.094774
1021,343910627,0.144973,-0.702400,-0.032050,-0.696126,-0.659294,0.453620,0.244830
1022,343943961,0.138663,-0.703213,-0.024828,-0.696886,0.013658,0.072499,0.235412
1023,343977295,0.132906,-0.704369,-0.019094,-0.697021,-0.035424,0.501579,0.090337
1024,344010629,0.128057,-0.704228,-0.014807,-0.698175,-0.273841,0.818039,0.345953
1025,344043963,0.123659,-0.702145,-0.011685,-0.701118,-0.119637,0.677394,0.428449
1026,344077297,0.121215,-0.700485,-0.010411,-0.703222,-0.375193,0.788550,0.241865
1027,344110631,0.122217,-0.699176,-0.012161,-0.704323,-0.519116,0.933384,0.086256
1028,344143965,0.125535,-0.697892,-0.015762,-0.704941,-0.730074,0.710536,0.011839
1029,344177299,0.128871,-0.696923,-0.018861,-0.705222,-0.995734,0.563209,0.038003
1030,344210633,0.132301,-0.696399,-0.021336,-0.705034,-0.943998,0.423884,0.120315
1031,344243967,0.137159,-0.696490,-0.024900,-0.703898,-0.821558,0.349176,0.074884
1032,344277301,0.142802,-0.696943,-0.029832,-0.702133,-0.707797,0.091920,-0.047465
1033,344310635,0.148072,-0.697729,-0.035387,-0.700000,-0.560355,-0.104246,0.066909
1034,344343969,0.152924,-0.698080,-0.041378,-0.698275,-0.494003,0.304403,0.300427
1035,344377303,0.158699,-0.697194,-0.048708,-0.697399,-0.431745,0.738874,0.305496
1036,344410637,0.166417,-0.696536,-0.057670,-0.695572,-0.344832,0.444260,0.068832
1037,344443971,0.176162,-0.696020,-0.068430,-0.692707,-0.257939,0.100523,0.175454
1038,344477305,0.186370,-0.695809,-0.080068,-0.688991,-0.271510,0.012218,0.217304
1039,344510639,0.196785,-0.694132,-0.092201,-0.686263,0.008545,0.100545,0.224936
1040,344543973,0.208260,-0.691387,-0.105726,-0.683693,-0.076680,0.098819,0.053841
1041,344577307,0.219965,-0.689056,-0.119868,-0.680038,0.055334,0.050673,0.052755
1042,344610641,0.231770,-0.686727,-0.134382,-0.675746,-0.005105,0.021754,0.194816
1043,344643975,0.242548,-0.684230,-0.148459,-0.671537,0.035847,-0.039952,0.442110
1044,344677309,0.253639,-0.679126,-0.162276,-0.669420,0.199578,0.296380,0.181447
1045,344710643,0.264919,-0.673187,-0.175924,-0.667601,0.766537,0.017651,0.556513
1046,344743977,0.273968,-0.666472,-0.188105,-0.667364,0.403857,-0.775948,-0.245291
1047,344777311,0.276556,-0.664630,-0.195329,-0.666058,0.763064,-0.829624,0.140646
1048,344810645,0.278512,-0.662050,-0.201458,-0.665986,1.432063,0.032316,0.071858
1049,344843979,0.282222,-0.658399,-0.208708,-0.665812,0.589475,0.469867,0.300274
1050,344877313,0.285642,-0.656077,-0.216333,-0.664210,-0.118116,0.117737,0.038314
1051,344910647,0.286481,-0.655448,-0.221723,-0.662690,-0.226098,-0.013718,0.226417
1052,344943981,0.285646,-0.655275,-0.224902,-0.662149,-0.109841,0.139716,-0.122976
1053,344977315,0.285248,-0.655703,-0.228849,-0.660544,-0.001152,-0.204583,-0.014347
1054,345010649,0.284597,-0.656374,-0.232952,-0.658721,-0.188750,0.081807,0.246966
1055,345043983,0.282540,-0.657565,-0.235593,-0.657478,0.407384,-0.103893,0.239560
1056,345077317,0.280496,-0.660226,-0.238041,-0.654800,-0.159576,-0.201086,0.044838
1057,345110651,0.277753,-0.664348,-0.239851,-0.651130,-0.670254,-0.384097,0.007156
1058,345143985,0.274534,-0.669052,-0.241221,-0.647160,-0.656377,-0.659019,0.100388
1059,345177319,0.269643,-0.674685,-0.240717,-0.643546,-0.516266,-0.257294,0.094225
1060,345210653,0.263680,-0.681230,-0.238692,-0.639866,-0.176093,-0.286987,0.175380
1061,345243987,0.257097,-0.688287,-0.236117,-0.635935,-0.336979,0.138744,0.178769
1062,345277321,0.250297,-0.694994,-0.233223,-0.632412,0.335097,0.289057,0.136811
1063,345310655,0.244782,-0.700461,-0.231483,-0.629170,0.360860,0.238498,0.255999
1064,345343989,0.240531,-0.704866,-0.231087,-0.626028,0.358262,-0.201990,0.257514
1065,345377323,0.236581,-0.708481,-0.231405,-0.623329,0.218016,0.217661,0.100802
1066,345410657,0.232724,-0.712515,-0.231763,-0.620041,0.337435,-0.063492,0.192870
1067,345443991,0.228629,-0.716498,-0.231807,-0.616950,0.304848,-0.359659,0.278763
1068,345477325,0.223857,-0.719590,-0.230976,-0.615412,0.845506,0.202760,0.284512
1069,345510659,0.218259,-0.722287,-0.229354,-0.614870,1.162091,0.303885,0.343766
1070,345543993,0.212991,-0.724848,-0.228323,-0.614086,0.222083,-0.135198,0.150159
1071,345577327,0.208391,-0.727680,-0.227849,-0.612488,-0.158410,-0.021272,0.028974
1072,345610661,0.203526,-0.731409,-0.227244,-0.609902,-0.094906,0.286781,-0.108171
1073,345643995,0.198816,-0.735401,-0.226511,-0.606921,0.045654,-0.583061,0.354708
1074,345677329,0.195006,-0.737918,-0.226285,-0.605184,0.149832,-0.381282,0.320447
1075,345710663,0.191380,-0.740715,-0.225979,-0.603036,0.330548,-0.369354,0.126863
1076,345743997,0.189640,-0.742971,-0.226457,-0.600625,0.096040,-0.507815,0.373776
1077,345777331,0.187560,-0.744367,-0.226255,-0.599625,-0.017711,-0.265424,0.264135
1078,345810665,0.185803,-0.745442,-0.225794,-0.599010,-0.167121,-0.248836,0.164459
1079,345843999,0.184076,-0.746384,-0.225160,-0.598609,-0.236144,-0.243161,0.256025
1080,345877333,0.182644,-0.746852,-0.224841,-0.598584,-0.232761,-0.124525,0.188113
1081,345910667,0.181729,-0.747017,-0.225115,-0.598553,-0.194440,-0.085241,0.227639
1082,345944001,0.181375,-0.746853,-0.225909,-0.598566,-0.034900,-0.104574,0.224030
1083,345977335,0.181553,-0.746259,-0.227227,-0.598754,0.111410,-0.143406,0.184416
1084,346010669,0.181642,-0.745753,-0.228804,-0.598757,-0.008912,-0.049835,0.226390
1085,346044003,0.182660,-0.745390,-0.230920,-0.598086,-0.115356,-0.143504,0.177437
1086,346077337,0.183594,-0.745070,-0.232546,-0.597569,-0.005418,-0.335311,0.133668
1087,346110671,0.183814,-0.744887,-0.233215,-0.597469,0.047275,-0.225223,0.173137
1088,346144005,0.183605,-0.744724,-0.233363,-0.597679,0.155809,-0.175596,0.239223
1089,346177339,0.183261,-0.744596,-0.233265,-0.597982,0.184115,-0.160284,0.170804
1090,346210673,0.182932,-0.744599,-0.232909,-0.598218,0.050174,-0.121839,0.178407
1091,346244007,0.182163,-0.744611,-0.232196,-0.598714,0.105182,-0.172016,0.181023
1092,346277341,0.181287,-0.744552,-0.231086,-0.599483,0.173969,-0.084575,0.287413
1093,346310675,0.180402,-0.744721,-0.229605,-0.600109,0.016725,-0.177990,0.118931
1094,346344009,0.178937,-0.745133,-0.227563,-0.600813,-0.061600,-0.203684,0.229589
1095,346377343,0.177580,-0.745503,-0.225474,-0.601543,-0.107059,-0.007265,0.190734
1096,346410677,0.176434,-0.745880,-0.223404,-0.602185,-0.081394,-0.156153,0.058327
1097,346444011,0.174953,-0.746342,-0.221078,-0.602903,0.026634,-0.209985,0.274323
1098,346477345,0.173471,-0.746754,-0.218678,-0.603696,0.050008,-0.055849,0.157850
1099,346510679,0.172357,-0.746785,-0.216472,-0.604771,-0.083028,-0.190368,0.421965
1100,346544013,0.173647,-0.744463,-0.215631,-0.607559,-0.373600,-0.014484,0.274590
1101,346577347,0.174596,-0.742997,-0.215066,-0.609279,0.092193,-0.066691,-0.040187
1102,346610681,0.175805,-0.742019,-0.215355,-0.610021,-0.538179,0.026579,0.328032
1103,346644015,0.177567,-0.740227,-0.216071,-0.611432,-0.120551,-0.199475,0.177012
1104,346677349,0.179011,-0.737959,-0.216316,-0.613663,0.385236,-0.292692,0.300931
1105,346710683,0.179512,-0.736325,-0.215613,-0.615723,0.299165,-0.063383,0.067805
1106,346744017,0.181225,-0.734535,-0.215623,-0.617354,0.062643,0.022105,0.238410
1107,346777351,0.182542,-0.732810,-0.215288,-0.619130,0.083117,-0.065946,0.010625
1108,346810685,0.183900,-0.731118,-0.214550,-0.620981,0.161759,-0.375730,0.247980
1109,346844019,0.184973,-0.729756,-0.213236,-0.622715,0.220601,-0.172392,-0.070012
1110,346877353,0.186410,-0.729172,-0.212104,-0.623357,-0.023686,-0.472102,0.222812
1111,346910687,0.187335,-0.728435,-0.210215,-0.624580,0.131966,0.212782,0.145482
1112,346944021,0.189465,-0.727352,-0.209618,-0.625399,0.185109,-0.298475,0.301688
1113,346977355,0.192192,-0.725348,-0.209922,-0.626792,0.108347,0.321920,0.185908
1114,347010689,0.195814,-0.723002,-0.210949,-0.628035,0.063537,-0.228026,0.228733
1115,347044023,0.198779,-0.720879,-0.211284,-0.629430,-0.036368,-0.068226,0.128855
1116,347077357,0.202013,-0.718834,-0.211511,-0.630662,-0.220802,-0.180925,0.173013
1117,347110691,0.204584,-0.717020,-0.211058,-0.632048,-0.037732,-0.370206,0.219535
1118,347144025,0.206946,-0.715228,-0.210312,-0.633557,-0.300952,-0.381965,0.174322
1119,347177359,0.208903,-0.713577,-0.208894,-0.635243,-0.184766,-0.300911,0.018012
1120,347210693,0.210681,-0.712382,-0.207041,-0.636602,0.066741,-0.449755,0.179903
1121,347244027,0.212173,-0.711792,-0.204539,-0.637574,0.255391,-0.421446,0.126786
1122,347277361,0.212316,-0.711734,-0.200093,-0.639001,0.315757,-0.048126,0.117896
1123,347310695,0.211923,-0.711624,-0.194780,-0.640893,0.423986,-0.009225,0.217654
1124,347344029,0.212197,-0.711193,-0.190173,-0.642661,0.308141,0.025220,0.182323
1125,347377363,0.212832,-0.710288,-0.185850,-0.644714,0.402678,-0.086504,0.214705
1126,347410697,0.213387,-0.709656,-0.181374,-0.646499,0.298426,-0.196748,0.133330
1127,347444031,0.213183,-0.709080,-0.175638,-0.648778,0.411867,-0.064289,0.150774
1128,347477365,0.212778,-0.708326,-0.169807,-0.651282,0.146020,0.075460,0.220350
1129,347510699,0.212452,-0.707150,-0.163999,-0.654148,0.022650,0.262176,0.167087
1130,347544033,0.212986,-0.705757,-0.159452,-0.656598,0.245957,0.171196,0.091123
1131,347577367,0.213744,-0.703659,-0.155427,-0.659563,0.141033,-0.029095,0.219615
1132,347610701,0.216061,-0.702385,-0.153181,-0.660690,-0.538303,-0.395990,0.041851
1133,347644035,0.217771,-0.702210,-0.149886,-0.661071,-0.223596,-0.296204,0.095697
1134,347677369,0.216801,-0.702156,-0.144169,-0.662716,0.175699,-0.048109,0.148689
1135,347710703,0.215142,-0.701966,-0.138113,-0.664745,0.638075,-0.010290,0.331328
1136,347744037,0.212088,-0.700262,-0.130114,-0.669123,0.892939,0.395881,0.416998
1137,347777371,0.209675,-0.699480,-0.123644,-0.671922,-0.057203,-0.101789,0.026736
1138,347810705,0.207748,-0.700418,-0.118089,-0.672542,-0.091224,-0.649088,0.027025
1139,347844039,0.204266,-0.701738,-0.111398,-0.673374,-0.011615,-0.542195,0.443675
1140,347877373,0.198877,-0.702879,-0.103556,-0.675047,-0.431624,-0.135200,0.314331
1141,347910707,0.191255,-0.703758,-0.093339,-0.677817,-0.369619,0.007825,0.237335
1142,347944041,0.181739,-0.704425,-0.080878,-0.681335,-0.474113,0.085925,0.060265
1143,347977375,0.171129,-0.705117,-0.067290,-0.684836,-0.484756,0.051792,-0.012706
1144,348010709,0.160941,-0.706150,-0.054949,-0.687339,-0.388238,0.007469,0.281967
1145,348044043,0.151114,-0.706971,-0.045200,-0.689432,-0.256104,0.053473,0.272931
1146,348077377,0.142631,-0.707119,-0.038653,-0.691482,-0.415742,0.328740,0.203422
1147,348110711,0.136098,-0.706608,-0.034605,-0.693533,-0.512245,0.859296,0.262936
1148,348144045,0.131234,-0.705742,-0.031817,-0.695483,-0.608761,1.076837,0.107907
1149,348177379,0.127298,-0.704856,-0.029507,-0.697213,-0.544276,0.939415,0.105492
1150,348210713,0.124938,-0.704515,-0.028259,-0.698035,-0.575910,0.976736,0.256219
1151,348244047,0.124811,-0.704453,-0.028344,-0.698117,-0.610610,0.437735,0.094170
1152,348277381,0.125665,-0.704705,-0.028513,-0.697703,-0.517707,0.323391,0.200483
1153,348310715,0.127372,-0.704947,-0.028860,-0.697134,-0.325729,0.430324,0.248400
1154,348344049,0.129054,-0.705000,-0.029334,-0.696751,-0.252532,0.379102,-0.181437
1155,348377383,0.130555,-0.705193,-0.030668,-0.696219,-0.279314,0.429355,0.124261
1156,348410717,0.133154,-0.705052,-0.033905,-0.695719,-0.232469,0.714344,0.240121
1157,348444051,0.138201,-0.703810,-0.039989,-0.695669,-0.298069,0.746665,0.093381
1158,348477385,0.145359,-0.701531,-0.048099,-0.695999,-0.467678,0.877116,0.024028
1159,348510719,0.154849,-0.699562,-0.058259,-0.695157,-0.560853,0.376637,0.193919
1160,348544053,0.164903,-0.697876,-0.069135,-0.693541,-0.410572,-0.016631,0.020331
1161,348577387,0.175202,-0.695301,-0.080284,-0.692400,-0.300670,0.173362,0.208328
1162,348610721,0.186080,-0.692191,-0.091882,-0.691235,-0.524495,0.532094,0.320670
1163,348644055,0.197776,-0.687997,-0.104193,-0.690429,-0.149094,0.558598,0.265272
1164,348677389,0.211476,-0.683846,-0.119179,-0.688064,-0.359386,0.207778,0.325632
1165,348710723,0.224680,-0.678963,-0.134354,-0.685915,0.300121,0.148405,0.488532
1166,348744057,0.238629,-0.672674,-0.149204,-0.684329,-0.167502,0.683224,0.010546
1167,348777391,0.252619,-0.667634,-0.163537,-0.680960,-0.057959,0.225549,0.226077
1168,348810725,0.265491,-0.662273,-0.177744,-0.677731,0.432677,-0.607557,0.676262
1169,348844059,0.275563,-0.657443,-0.192030,-0.674507,0.641642,-1.334887,0.200897
1170,348877393,0.283356,-0.653484,-0.204259,-0.671527,0.237007,-0.748683,-0.207795
1171,348910727,0.288638,-0.651356,-0.214179,-0.668247,-0.130703,-0.818218,-0.061693
1172,348944061,0.290823,-0.650302,-0.221268,-0.666013,0.027463,-0.393103,0.112422
1173,348977395,0.291754,-0.650359,-0.226997,-0.663617,0.154628,-0.334222,-0.189528
1174,349010729,0.291408,-0.651344,-0.230962,-0.661432,0.417092,-0.117741,0.011116
1175,349044063,0.291226,-0.652470,-0.235148,-0.658922,0.429597,0.179358,0.279263
1176,349077397,0.290958,-0.653681,-0.239353,-0.656321,0.288667,0.035297,0.305555
1177,349110731,0.290082,-0.655107,-0.242627,-0.654081,0.043749,0.477100,-0.017152
1178,349144065,0.289673,-0.656730,-0.246141,-0.651316,0.516191,0.149267,0.023450
1179,349177399,0.289210,-0.658854,-0.249793,-0.647978,0.501523,0.014785,0.350104
1180,349210733,0.287659,-0.660838,-0.252492,-0.645598,0.310168,-0.008944,0.163100
1181,349244067,0.285371,-0.663094,-0.254469,-0.643521,0.238130,-0.200865,0.088699
1182,349277401,0.282001,-0.665690,-0.254952,-0.642133,0.164795,0.210686,0.061619
1183,349310735,0.278025,-0.668278,-0.254367,-0.641410,0.360690,-0.279533,0.159663
1184,349344069,0.274495,-0.671715,-0.254577,-0.639254,-0.229364,-0.370389,0.089933
1185,349377403,0.269770,-0.676115,-0.253364,-0.637104,-0.165592,-0.194654,0.002456
1186,349410737,0.263987,-0.681181,-0.250892,-0.635106,0.044934,-0.272156,0.235445
1187,349444071,0.257071,-0.687240,-0.247865,-0.632600,-0.180206,-0.419499,0.154053
1188,349477405,0.249052,-0.693954,-0.243971,-0.629986,-0.626185,-0.055571,0.066116
1189,349510739,0.240231,-0.701243,-0.238926,-0.627268,-0.267365,0.335719,-0.005736
1190,349544073,0.231272,-0.709020,-0.234338,-0.623613,0.047514,0.119723,0.274690
1191,349577407,0.222556,-0.716557,-0.230900,-0.619438,-0.180670,0.141008,0.052840
1192,349610741,0.215950,-0.723777,-0.228631,-0.614202,-0.283147,-0.072181,-0.100103
1193,349644075,0.208664,-0.731814,-0.225257,-0.608416,-0.258154,-0.682047,0.103064
1194,349677409,0.199844,-0.739130,-0.220035,-0.604431,-0.202912,-0.797817,0.485764
1195,349710743,0.192230,-0.744120,-0.214896,-0.602624,0.425339,-0.074134,0.429116
1196,349744077,0.185194,-0.746662,-0.209683,-0.603519,1.609364,0.680149,0.675067
1197,349777411,0.178795,-0.747920,-0.206027,-0.605147,0.916809,0.617776,0.248096
1198,349810745,0.175718,-0.749575,-0.205496,-0.604182,-0.344161,0.211410,-0.059261
1199,349844079,0.173302,-0.751150,-0.205329,-0.602979,-0.503154,-0.267932,0.222123
1200,349877413,0.170162,-0.752176,-0.204556,-0.602857,-0.084601,-0.611722,0.116473
1201,349910747,0.167587,-0.753112,-0.204048,-0.602582,0.224779,-0.746679,0.238355
1202,349944081,0.164369,-0.754177,-0.202611,-0.602620,0.304453,-0.401698,0.252049
1203,349977415,0.161412,-0.755320,-0.200761,-0.602607,0.010315,-0.024860,0.189286
1204,350010749,0.159481,-0.756342,-0.199906,-0.602123,-0.223112,0.320154,0.048814
1205,350044083,0.157480,-0.757030,-0.199488,-0.601924,-0.083792,-0.185148,0.374380
1206,350077417,0.155880,-0.757427,-0.199039,-0.601990,-0.009170,-0.320143,0.146706
1207,350110751,0.154943,-0.757921,-0.198535,-0.601778,-0.153343,-0.277473,0.207162
1208,350144085,0.152875,-0.758443,-0.197010,-0.602149,-0.064850,-0.181253,0.289422
1209,350177419,0.151030,-0.758972,-0.195595,-0.602409,-0.139061,0.015738,0.070127
1210,350210753,0.149225,-0.759572,-0.194458,-0.602471,-0.144625,-0.139724,0.257363
1211,350244087,0.148268,-0.759748,-0.193850,-0.602681,0.029382,-0.052069,0.183478
1212,350277421,0.147738,-0.759797,-0.193622,-0.602822,-0.137542,-0.050314,0.181661
1213,350310755,0.147511,-0.759744,-0.193811,-0.602884,-0.172165,-0.053832,0.189990
1214,350344089,0.146834,-0.759760,-0.193889,-0.603004,-0.159361,-0.209835,0.158435
1215,350377423,0.145609,-0.759950,-0.193115,-0.603310,-0.001538,-0.203153,0.164746
1216,350410757,0.144094,-0.760396,-0.191617,-0.603590,0.213985,-0.313541,0.205148
1217,350444091,0.142107,-0.760997,-0.189591,-0.603943,0.184384,-0.167653,0.226490
1218,350477425,0.140859,-0.761538,-0.187836,-0.604102,0.070957,-0.060559,0.190108
1219,350510759,0.139546,-0.761932,-0.186212,-0.604413,0.023058,0.055748,0.176284
1220,350544093,0.138506,-0.762110,-0.184878,-0.604836,0.023239,-0.056130,0.174114
1221,350577427,0.137998,-0.762328,-0.183889,-0.604980,-0.039069,-0.057994,0.144142
1222,350610761,0.137441,-0.762658,-0.182984,-0.604966,-0.132586,-0.295722,0.181671
1223,350644095,0.137123,-0.762920,-0.182204,-0.604942,0.040669,-0.061919,0.130731
1224,350677429,0.137178,-0.762985,-0.181627,-0.605022,0.272238,-0.063566,0.286317
1225,350710763,0.137074,-0.763001,-0.181219,-0.605148,0.081548,-0.042594,0.172624
1226,350744097,0.138068,-0.763054,-0.181452,-0.604785,-0.159387,-0.062246,0.138700
1227,350777431,0.139645,-0.762910,-0.182148,-0.604394,-0.187480,-0.031423,0.095222
1228,350810765,0.141896,-0.762611,-0.183556,-0.603822,-0.015131,-0.159390,0.215017
1229,350844099,0.144600,-0.762253,-0.185132,-0.603150,0.023750,-0.283353,0.196722
1230,350877433,0.146679,-0.762062,-0.185950,-0.602638,-0.005134,-0.237587,0.175314
1231,350910767,0.149363,-0.761767,-0.187207,-0.601962,0.003765,-0.172974,0.128592
1232,350944101,0.152199,-0.761368,-0.188412,-0.601380,0.028161,-0.238999,0.289799
1233,350977435,0.154245,-0.761032,-0.188644,-0.601211,-0.002255,-0.229933,0.165351
1234,351010769,0.156497,-0.760790,-0.188917,-0.600851,-0.121571,-0.252509,0.145498
1235,351044103,0.158626,-0.760446,-0.188879,-0.600739,0.081445,-0.264358,0.256949
1236,351077437,0.160162,-0.760048,-0.188069,-0.601089,0.262647,-0.285773,0.148816
1237,351110771,0.161659,-0.759840,-0.186788,-0.601351,0.239912,-0.354595,0.157448
1238,351144105,0.163590,-0.759707,-0.185527,-0.601387,0.194371,-0.275438,0.168242
1239,351177439,0.165833,-0.759628,-0.183961,-0.601354,0.029594,-0.294995,0.211455
1240,351210773,0.167405,-0.759653,-0.181749,-0.601559,-0.024634,-0.256428,0.109856
1241,351244107,0.168628,-0.759620,-0.179008,-0.602081,0.054458,-0.189900,0.184524
1242,351277441,0.169742,-0.759540,-0.175797,-0.602814,0.098236,-0.169780,0.113187
1243,351310775,0.170612,-0.759561,-0.172266,-0.603561,0.113448,-0.321702,0.226044
1244,351344109,0.170885,-0.759531,-0.168184,-0.604672,0.380823,-0.195020,0.171196
1245,351377443,0.170668,-0.759446,-0.163378,-0.606156,0.052223,-0.176041,0.146221
1246,351410777,0.170038,-0.759261,-0.157975,-0.607994,0.270211,-0.184604,0.195547
1247,351444111,0.170018,-0.758778,-0.152958,-0.609883,0.353556,0.060075,0.185932
1248,351477445,0.170662,-0.758079,-0.148324,-0.611713,0.195047,0.097870,0.123118
1249,351510779,0.170950,-0.757539,-0.143070,-0.613551,0.141291,-0.029485,0.206002
1250,351544113,0.170487,-0.757072,-0.137201,-0.615594,0.123596,0.001153,0.221547
1251,351577447,0.170253,-0.756010,-0.131666,-0.618167,0.179619,0.157464,0.211837
1252,351610781,0.170453,-0.754719,-0.126516,-0.620758,0.096575,0.028341,0.158398
1253,351644115,0.170955,-0.753118,-0.121575,-0.623546,0.030079,0.087944,0.249748
1254,351677449,0.171816,-0.751239,-0.116939,-0.626456,-0.041494,-0.151127,0.203283
1255,351710783,0.172135,-0.749678,-0.111765,-0.629177,-0.219734,-0.277455,0.123355
1256,351744117,0.171090,-0.748218,-0.105459,-0.632281,-0.190742,-0.169626,0.246922
1257,351777451,0.169490,-0.746687,-0.098629,-0.635616,-0.168135,-0.076191,0.139829
1258,351810785,0.168227,-0.745126,-0.091916,-0.638782,-0.260227,-0.104054,-0.004510
1259,351844119,0.167055,-0.743906,-0.085214,-0.641435,-0.336471,-0.219078,0.162012
1260,351877453,0.165117,-0.742830,-0.077911,-0.644107,-0.198233,-0.110411,0.243477
1261,351910787,0.163040,-0.739273,-0.070533,-0.649554,0.112124,0.332139,0.446748
1262,351944121,0.161243,-0.731723,-0.063804,-0.659177,0.392519,1.038977,0.288307
1263,351977455,0.161053,-0.726689,-0.059052,-0.665207,-0.394759,0.609918,0.517076
1264,352010789,0.161380,-0.723505,-0.054687,-0.668962,-0.878816,-0.156662,0.349485
1265,352044123,0.160600,-0.721246,-0.049561,-0.671981,-0.960933,0.042729,-0.122413
1266,352077457,0.159673,-0.719442,-0.044955,-0.674455,-0.671629,0.437169,0.006130
1267,352110791,0.159196,-0.717335,-0.042261,-0.676981,-0.965788,0.453691,-0.028193
1268,352144125,0.159014,-0.715337,-0.041203,-0.679200,-0.972844,0.230077,-0.023110
1269,352177459,0.159302,-0.714080,-0.041493,-0.680437,-0.834047,-0.276012,0.002170
1270,352210793,0.159663,-0.714193,-0.042771,-0.680155,-0.974422,-0.888380,-0.164129
1271,352244127,0.158394,-0.714997,-0.042017,-0.679653,-0.866036,0.364508,0.259789
1272,352277461,0.156279,-0.715047,-0.039042,-0.680268,0.157655,1.611678,0.533122
1273,352310795,0.157415,-0.714068,-0.038378,-0.681071,0.447574,1.454299,0.472913
1274,352344129,0.162614,-0.712355,-0.041911,-0.681435,0.417489,1.046369,0.425462
1275,352377463,0.170814,-0.709462,-0.049635,-0.681928,0.155383,1.031492,0.403308
1276,352410797,0.182995,-0.705451,-0.062090,-0.681909,-0.110181,0.743531,0.379903
1277,352444131,0.198822,-0.700069,-0.079153,-0.681257,-0.701612,0.784357,0.220073
1278,352477465,0.214647,-0.695275,-0.096822,-0.679079,-1.204471,0.020834,-0.243815
1279,352510799,0.228476,-0.692196,-0.112607,-0.675268,-1.066242,-1.117424,0.055924
1280,352544133,0.237277,-0.689521,-0.121495,-0.673426,-0.173210,-0.079970,0.518520
1281,352577467,0.242960,-0.687678,-0.126209,-0.672417,0.026921,0.267224,0.272615
1282,352610801,0.247778,-0.686307,-0.130603,-0.671218,0.227365,-0.050592,0.269006
1283,352644135,0.252702,-0.683945,-0.136500,-0.670620,0.272253,0.166655,0.132898
1284,352677469,0.259091,-0.680605,-0.144798,-0.669840,0.384568,0.403189,0.234900
1285,352710803,0.268731,-0.675622,-0.156759,-0.668392,0.201155,0.764842,0.219252
1286,352744137,0.281562,-0.669307,-0.172243,-0.665648,-0.054915,0.505585,0.220039
1287,352777471,0.294311,-0.662895,-0.188155,-0.662232,-0.010098,-0.543559,-0.099190
1288,352810805,0.304824,-0.657595,-0.201571,-0.658805,-0.192999,-0.435033,-0.124559
1289,352844139,0.312372,-0.653665,-0.211710,-0.655995,0.074098,-0.679097,-0.171145
1290,352877473,0.316630,-0.651439,-0.219486,-0.653607,0.627110,-1.062126,0.071087
1291,352910807,0.318614,-0.650563,-0.225387,-0.651504,0.143102,-0.247865,0.091865
1292,352944141,0.318507,-0.651215,-0.230144,-0.649238,0.425263,-0.033115,-0.124520
1293,352977475,0.317387,-0.652787,-0.233571,-0.646979,0.475563,0.221776,0.152274
1294,353010809,0.315248,-0.655789,-0.235657,-0.644227,0.457124,0.214670,0.308825
1295,353044143,0.311548,-0.659289,-0.235806,-0.642398,0.712889,0.344959,0.174580
1296,353077477,0.308100,-0.662352,-0.235960,-0.640852,0.393473,0.044136,0.084023
1297,353110811,0.303473,-0.666481,-0.235777,-0.638842,0.313975,0.105581,0.217814
1298,353144145,0.299010,-0.669893,-0.234980,-0.637671,0.283730,-0.010489,0.212673
1299,353177479,0.294662,-0.673754,-0.234329,-0.635864,0.222367,-0.144463,0.066691
1300,353210813,0.289418,-0.678382,-0.232475,-0.634030,-0.115439,0.014903,0.140987
1301,353244147,0.283335,-0.684036,-0.230061,-0.631579,-0.266745,-0.083117,0.186955
1302,353277481,0.277497,-0.689248,-0.227194,-0.629539,-0.517027,-0.381991,0.232035
1303,353310815,0.271222,-0.694817,-0.223859,-0.627342,-0.526166,-0.311967,-0.032288
1304,353344149,0.263951,-0.701422,-0.219898,-0.624488,-0.271100,-0.105457,-0.067776
1305,353377483,0.256108,-0.708894,-0.215712,-0.620765,-0.397229,-0.092373,0.038590
1306,353410817,0.247021,-0.717229,-0.210878,-0.616520,-0.161342,0.108969,0.126890
1307,353444151,0.238335,-0.725276,-0.205912,-0.612188,-0.149500,0.090044,0.260632
1308,353477485,0.229233,-0.732091,-0.199804,-0.609571,0.129727,-0.008428,0.426209
1309,353510819,0.219758,-0.736985,-0.193035,-0.609344,0.634116,0.249385,0.573107
1310,353544153,0.212270,-0.739977,-0.187441,-0.610119,0.973848,0.241590,0.322761
1311,353577487,0.205501,-0.742683,-0.182915,-0.610522,0.324663,-0.105232,0.088687
1312,353610821,0.199773,-0.745700,-0.179535,-0.609749,-0.342311,-0.199622,0.182376
1313,353644155,0.195521,-0.748067,-0.176758,-0.609038,-0.168954,-0.233276,0.136578
1314,353677489,0.191499,-0.749938,-0.174135,-0.608771,0.194815,-0.435384,0.123989
1315,353710823,0.188027,-0.751709,-0.171900,-0.608303,0.170970,-0.285484,0.093887
1316,353744157,0.185871,-0.753641,-0.170411,-0.606993,0.097340,-0.115349,0.240228
1317,353777491,0.184242,-0.755590,-0.169819,-0.605230,0.188900,-0.413854,0.230214
1318,353810825,0.183428,-0.756876,-0.169432,-0.603978,-0.215957,-0.138780,0.381458
1319,353844159,0.182194,-0.757924,-0.168107,-0.603408,-0.541970,0.080516,0.057927
1320,353877493,0.180012,-0.759140,-0.166444,-0.602994,-0.400650,-0.128138,0.357408
1321,353910827,0.178602,-0.759470,-0.165588,-0.603234,-0.235901,-0.014314,0.343274
1322,353944161,0.176713,-0.759360,-0.164138,-0.604323,0.019079,-0.163603,0.195072
1323,353977495,0.174301,-0.759483,-0.162054,-0.605431,-0.085322,-0.092394,0.285680
1324,354010829,0.171733,-0.759701,-0.160053,-0.606423,-0.137473,-0.016895,0.122902
1325,354044163,0.169142,-0.759868,-0.158204,-0.607427,-0.125731,-0.124463,0.132476
1326,354077497,0.166798,-0.759971,-0.156186,-0.608467,-0.220228,-0.114823,0.182459
1327,354110831,0.165763,-0.759813,-0.155039,-0.609240,-0.016087,-0.117374,0.066982
1328,354144165,0.166357,-0.759315,-0.155444,-0.609596,0.353758,-0.273869,0.190657
1329,354177499,0.167935,-0.758801,-0.156419,-0.609554,0.160901,-0.234043,0.082809
1330,354210833,0.169797,-0.758809,-0.157053,-0.608864,0.069237,-0.416234,0.070632
1331,354244167,0.170551,-0.759002,-0.156629,-0.608522,0.190525,-0.399106,0.249903
1332,354277501,0.171880,-0.758938,-0.155850,-0.608428,0.240576,-0.181224,0.188808
1333,354310835,0.172691,-0.759245,-0.154954,-0.608044,-0.125736,-0.013227,0.061527
1334,354344169,0.172540,-0.759185,-0.152676,-0.608738,0.148132,-0.029693,0.540221
1335,354377503,0.169259,-0.758489,-0.148146,-0.611638,0.422021,-0.271890,0.088830
1336,354410837,0.168600,-0.757437,-0.145406,-0.613779,-0.239028,-0.219300,0.253849
1337,354444171,0.168998,-0.756451,-0.142840,-0.615484,-0.278057,-0.422829,0.232615
1338,354477505,0.171506,-0.754688,-0.142775,-0.616969,-0.373190,0.216906,-0.108728
1339,354510839,0.176892,-0.752439,-0.145608,-0.617532,-0.657356,0.429043,0.189479
1340,354544173,0.180608,-0.750753,-0.147065,-0.618164,-0.488822,0.291276,0.208243
1341,354577507,0.181954,-0.749999,-0.147231,-0.618645,0.025040,0.042906,0.078227
1342,354610841,0.184830,-0.749306,-0.148873,-0.618238,0.123058,0.024632,0.213167
1343,354644175,0.188436,-0.748372,-0.150469,-0.617894,0.220895,-0.198909,0.217486
1344,354677509,0.190494,-0.747845,-0.150311,-0.617940,0.467660,-0.154250,0.095175
1345,354710843,0.191269,-0.747919,-0.148506,-0.618047,0.466247,-0.188375,0.242441
1346,354744177,0.191159,-0.748335,-0.145688,-0.618248,0.194281,-0.093840,0.228926
1347,354777511,0.190955,-0.748682,-0.142649,-0.618601,0.058302,0.022442,0.157216
1348,354810845,0.191108,-0.748874,-0.140019,-0.618922,0.068506,0.253433,0.150806
1349,354844179,0.192364,-0.748698,-0.138705,-0.619041,0.070134,0.295876,0.133599
1350,354877513,0.194505,-0.748251,-0.138351,-0.618992,-0.037326,0.042435,0.256821
1351,354910847,0.196332,-0.747532,-0.137435,-0.619487,0.116077,-0.182606,0.249059
1352,354944181,0.196967,-0.747033,-0.135131,-0.620394,0.205273,-0.188927,0.140658
1353,354977515,0.196725,-0.747172,-0.131710,-0.621039,-0.043378,-0.246292,0.106764
1354,355010849,0.195501,-0.747781,-0.126953,-0.621683,-0.048255,-0.195514,0.242895
1355,355044183,0.192500,-0.748315,-0.120421,-0.623275,0.238128,-0.330212,0.176817
1356,355077517,0.188417,-0.748997,-0.113005,-0.625089,0.176646,-0.171636,0.218440
1357,355110851,0.184818,-0.749840,-0.105680,-0.626432,0.042220,-0.185962,0.014282
1358,355144185,0.181633,-0.750591,-0.098206,-0.627680,-0.040146,-0.077490,0.223363
1359,355177519,0.177750,-0.751078,-0.090269,-0.629398,0.023717,-0.118422,0.321754
1360,355210853,0.173261,-0.751173,-0.081978,-0.631667,-0.011233,-0.080813,0.204670
1361,355244187,0.169136,-0.751239,-0.073951,-0.633694,-0.155210,-0.041559,0.253439
1362,355277521,0.164807,-0.751337,-0.065740,-0.635621,-0.143727,-0.157934,0.097851
1363,355310855,0.159996,-0.751098,-0.057123,-0.637960,-0.021052,-0.125247,0.277477
1364,355344189,0.154825,-0.750123,-0.048207,-0.641112,0.194332,-0.002791,0.560370
1365,355377523,0.149754,-0.747435,-0.039304,-0.646044,0.351932,0.254917,0.349617
1366,355410857,0.145440,-0.742732,-0.031485,-0.652847,0.720428,0.337676,0.184209
1367,355444191,0.142187,-0.736899,-0.025153,-0.660404,0.333979,0.417416,0.280226
1368,355477525,0.139421,-0.729301,-0.020041,-0.669540,0.151065,0.734620,0.130733
1369,355510859,0.139086,-0.723228,-0.018335,-0.676214,-0.827764,0.514041,0.406713
1370,355544193,0.140754,-0.719525,-0.018945,-0.679791,-1.301007,-0.057819,0.397385
1371,355577527,0.140863,-0.717006,-0.018435,-0.682439,-1.128415,-0.024318,0.017159
1372,355610861,0.140019,-0.715456,-0.017203,-0.684270,-0.906475,0.218523,0.072654
1373,355644195,0.139539,-0.714463,-0.016411,-0.685424,-0.865717,0.323614,0.211118
1374,355677529,0.138760,-0.713761,-0.015428,-0.686336,-0.798895,0.068121,-0.116760
1375,355710863,0.137736,-0.713547,-0.014446,-0.686786,-0.682832,0.145078,-0.211402
1376,355744197,0.137959,-0.713518,-0.015336,-0.686752,-0.539566,0.328901,-0.085897
1377,355777531,0.139365,-0.713662,-0.018368,-0.686244,-0.576751,0.396299,0.222479
1378,355810865,0.141133,-0.713678,-0.022672,-0.685737,-0.403059,0.570756,0.193965
1379,355844199,0.144313,-0.713250,-0.028766,-0.685291,-0.320460,0.412559,0.166615
1380,355877533,0.148444,-0.711811,-0.035489,-0.685590,-0.331680,0.535968,0.269461
1381,355910867,0.154563,-0.709533,-0.043264,-0.686152,-0.157994,0.336319,0.175661
1382,355944201,0.162512,-0.707093,-0.052294,-0.686206,-0.536041,0.655149,0.192523
1383,355977535,0.171671,-0.704508,-0.062048,-0.685821,-0.216638,0.968572,0.409492
1384,356010869,0.183327,-0.701080,-0.073949,-0.685137,-0.438603,1.167098,-0.044618
1385,356044203,0.196644,-0.697803,-0.087719,-0.683162,-0.516966,0.806133,0.289475
1386,356077537,0.211270,-0.693695,-0.102933,-0.680853,-0.553788,0.687799,0.429329
1387,356110871,0.227162,-0.689111,-0.119644,-0.677652,-0.375380,0.305306,0.180571
1388,356144205,0.243474,-0.684534,-0.137579,-0.673208,-0.260536,-0.209884,0.217667
1389,356177539,0.258320,-0.679955,-0.155306,-0.668443,-0.042940,-0.175631,0.344629
1390,356210873,0.271491,-0.674541,-0.171502,-0.664739,0.013114,-0.394800,0.024259
1391,356244207,0.282068,-0.670100,-0.185837,-0.660962,0.247420,-0.445596,0.285646
1392,356277541,0.290491,-0.666173,-0.198554,-0.657578,0.455848,-0.273563,0.188202
1393,356310875,0.297014,-0.662756,-0.209655,-0.654664,0.588610,-0.399984,-0.054276
1394,356344209,0.302228,-0.659595,-0.219948,-0.652088,0.392743,-0.446185,0.204451
1395,356377543,0.304785,-0.658192,-0.229033,-0.649182,0.182116,-0.226680,0.095067
1396,356410877,0.305712,-0.657654,-0.236194,-0.646721,0.299916,0.083724,-0.038867
1397,356444211,0.305582,-0.658379,-0.241631,-0.644030,0.403089,0.158890,-0.179557
1398,356477545,0.303943,-0.660730,-0.245176,-0.641051,1.077886,-0.129411,0.265789
1399,356510879,0.300625,-0.663169,-0.247165,-0.639331,0.949999,0.049799,0.330755
1400,356544213,0.298096,-0.664297,-0.248678,-0.638758,0.905057,0.073467,-0.013392
1401,356577547,0.294799,-0.666242,-0.249773,-0.637833,0.851658,0.131258,0.237434
1402,356610881,0.291015,-0.667759,-0.250049,-0.637876,0.632788,0.427669,0.184883
1403,356644215,0.287665,-0.669157,-0.250250,-0.637853,0.527961,-0.073427,0.118843
1404,356677549,0.284101,-0.670555,-0.250257,-0.637979,0.312367,-0.366423,0.244402
1405,356710883,0.280343,-0.672485,-0.250160,-0.637647,-0.161147,-0.433300,-0.043818
1406,356744217,0.276126,-0.675052,-0.249443,-0.637057,-0.329071,-0.424264,-0.016752
1407,356777551,0.270770,-0.678445,-0.247719,-0.636422,-0.424602,-0.680693,0.151981
1408,356810885,0.263774,-0.682662,-0.243950,-0.636308,-0.402153,-0.411875,0.323633
1409,356844219,0.256331,-0.687593,-0.239466,-0.635743,-0.549995,-0.203965,-0.098466
1410,356877553,0.249441,-0.692092,-0.235330,-0.635146,-0.180303,0.217664,0.169850
1411,356910887,0.243349,-0.695831,-0.231894,-0.634688,-0.379470,0.068205,0.271756
1412,356944221,0.236992,-0.700177,-0.228785,-0.633442,-0.323827,-0.164096,0.255113
1413,356977555,0.230508,-0.705201,-0.225607,-0.631397,-0.328905,-0.237030,-0.036273
1414,357010889,0.225366,-0.709529,-0.222699,-0.629435,-0.318438,0.018667,0.189938
1415,357044223,0.220075,-0.713864,-0.219676,-0.627464,-0.351324,0.038855,0.237819
1416,357077557,0.215337,-0.717718,-0.217272,-0.625546,-0.519142,-0.219869,0.112364
1417,357110891,0.210587,-0.722294,-0.215194,-0.622607,-0.634885,-0.107982,0.030168
1418,357144225,0.206157,-0.727144,-0.213389,-0.619055,-0.435599,0.089124,0.135593
1419,357177559,0.202509,-0.731606,-0.212258,-0.615380,-0.272190,0.126469,0.232058
1420,357210893,0.199749,-0.735703,-0.211947,-0.611492,-0.416481,-0.485958,0.190236
1421,357244227,0.196750,-0.740224,-0.211774,-0.607053,-0.488639,-0.356163,-0.059244
1422,357277561,0.193976,-0.744909,-0.211098,-0.602432,-0.366900,-0.224361,0.067124
1423,357310895,0.190456,-0.749642,-0.209607,-0.598191,0.041386,-0.232995,0.127693
1424,357344229,0.186450,-0.753595,-0.207645,-0.595161,0.610197,-0.147166,0.376643
1425,357377563,0.183212,-0.755078,-0.206219,-0.594783,1.942629,0.433872,0.820548
1426,357410897,0.181724,-0.754595,-0.206477,-0.595763,1.536940,0.402672,0.240080
1427,357444231,0.182640,-0.754794,-0.208449,-0.594542,0.031479,-0.404180,0.046594
1428,357477565,0.183359,-0.755204,-0.209639,-0.593381,-0.588701,-0.473686,0.128804
1429,357510899,0.182806,-0.755114,-0.209184,-0.593826,-0.236625,-0.472620,0.140961
1430,357544233,0.181053,-0.755094,-0.208051,-0.594787,0.152709,-0.238396,0.172061
1431,357577567,0.179996,-0.755427,-0.207507,-0.594874,-0.072554,-0.271390,0.207252
1432,357610901,0.179543,-0.755698,-0.207062,-0.594822,0.172284,-0.008267,0.158438
1433,357644235,0.179309,-0.755757,-0.206510,-0.595010,0.254224,-0.098728,0.208727
1434,357677569,0.179100,-0.756010,-0.205429,-0.595126,0.043089,-0.375500,0.259847
1435,357710903,0.177667,-0.756788,-0.202926,-0.595425,0.125833,-0.550107,0.241014
1436,357744237,0.175980,-0.757695,-0.199828,-0.595820,0.102330,-0.380609,0.132543
1437,357777571,0.174618,-0.758523,-0.196451,-0.596290,-0.034964,-0.137131,0.157518
1438,357810905,0.173093,-0.759390,-0.192820,-0.596816,-0.219287,-0.171200,0.218313
1439,357844239,0.172134,-0.760034,-0.189622,-0.597298,-0.212012,0.046815,0.245602
1440,357877573,0.171278,-0.760343,-0.186616,-0.598098,-0.233023,0.105742,0.270712
1441,357910907,0.169607,-0.760460,-0.182947,-0.599556,-0.006778,-0.173376,0.263277
1442,357944241,0.167433,-0.760504,-0.179087,-0.601274,0.010125,-0.163421,0.159355
1443,357977575,0.166419,-0.760411,-0.175969,-0.602593,-0.024973,-0.179418,0.187376
1444,358010909,0.166759,-0.760116,-0.174035,-0.603432,-0.187786,0.155331,0.056231
1445,358044243,0.168780,-0.759445,-0.173750,-0.603797,-0.181055,0.050206,0.134468
1446,358077577,0.171030,-0.758577,-0.174238,-0.604114,-0.023234,-0.061083,0.184160
1447,358110911,0.173656,-0.757517,-0.174732,-0.604553,0.017421,-0.130773,0.216549
1448,358144245,0.175745,-0.756522,-0.174595,-0.605234,0.052040,-0.149267,0.170447
1449,358177579,0.177221,-0.755810,-0.173919,-0.605888,0.161401,-0.218783,0.102230
1450,358210913,0.178672,-0.755248,-0.172496,-0.606568,0.273569,-0.331240,0.189368
1451,358244247,0.179747,-0.754977,-0.170242,-0.607225,0.255391,-0.296930,0.157459
1452,358277581,0.180779,-0.754778,-0.168031,-0.607781,0.103975,-0.127893,0.245133
1453,358310915,0.182770,-0.754113,-0.166683,-0.608382,0.076318,0.065341,0.210534
1454,358344249,0.185431,-0.752827,-0.166250,-0.609287,-0.016773,0.223379,0.246406
1455,358377583,0.189488,-0.750615,-0.167161,-0.610518,-0.085084,0.267645,0.235661
1456,358410917,0.193974,-0.748026,-0.168831,-0.611825,-0.036799,0.139058,0.228163
1457,358444251,0.199321,-0.744751,-0.171363,-0.613397,0.091042,0.147717,0.147864
1458,358477585,0.204168,-0.741549,-0.173171,-0.615171,0.014075,-0.139404,0.213448
1459,358510919,0.206865,-0.738866,-0.172880,-0.617576,0.214525,-0.261826,0.185082
1460,358544253,0.208978,-0.736170,-0.171929,-0.620343,0.244683,-0.062891,0.180033
1461,358577587,0.212169,-0.732848,-0.171231,-0.623379,0.296167,0.041518,0.284979
1462,358610921,0.214632,-0.729386,-0.170022,-0.626917,0.218900,0.147490,0.176298
1463,358644255,0.217099,-0.725727,-0.168798,-0.630634,0.252921,0.072816,0.115861
1464,358677589,0.219278,-0.722401,-0.167156,-0.634125,0.134595,0.021897,0.242633
1465,358710923,0.220979,-0.719554,-0.165128,-0.637296,0.210699,0.009412,0.119400
1466,358744257,0.222974,-0.716563,-0.163412,-0.640406,0.180953,-0.084606,0.192887
1467,358777591,0.224364,-0.713429,-0.161086,-0.643999,0.147463,0.158023,0.190152
1468,358810925,0.225897,-0.709782,-0.158690,-0.648074,0.355053,0.314538,0.198853
