sep=,
DeviceTag:,D_Leg
FirmwareVersion:,2.2.1
AppVersion:,2023.6.0
SyncStatus:,Synced
OutputRate:,30Hz
FilterProfile:,General
Measurement Mode:,Sensor fusion Mode - Complete(Quaternion)
StartTime: ,2026-09-07_16:53:55_973 AEST
© Movella Technologies B. V. 2005-2026

PacketCounter,SampleTimeFine,Quat_W,Quat_X,Quat_Y,Quat_Z,FreeAcc_X,FreeAcc_Y,FreeAcc_Z
1,2633557350,-0.150364,0.831828,0.003828,0.534266,-0.121755,0.096908,0.094670
2,2633590684,-0.151507,0.832499,0.004549,0.532890,-0.161230,0.198570,0.172041
3,2633624018,-0.153483,0.833041,0.006327,0.531457,-0.011331,0.199278,0.168510
4,2633657352,-0.154940,0.833561,0.007574,0.530201,0.123869,-0.102146,0.216586
5,2633690686,-0.155918,0.833856,0.008171,0.529441,0.426947,-0.065094,0.243250
6,2633724020,-0.156720,0.833755,0.008714,0.529356,0.541308,0.068267,0.271273
7,2633757354,-0.156948,0.833478,0.009101,0.529717,0.451385,-0.034039,0.293036
8,2633790688,-0.156691,0.833137,0.009238,0.530328,-0.108151,-0.202333,-0.026734
9,2633824022,-0.156393,0.832840,0.009170,0.530882,-0.306827,-0.032041,0.072562
10,2633857356,-0.156606,0.832693,0.009413,0.531045,-0.169783,0.008210,0.106880
11,2633890690,-0.157385,0.832636,0.010084,0.530892,0.173244,-0.115302,0.160722
12,2633924024,-0.158060,0.832570,0.010823,0.530780,0.394078,-0.189737,0.156199
13,2633957358,-0.158680,0.832398,0.011636,0.530849,0.333817,-0.064534,0.137794
14,2633990692,-0.159107,0.832161,0.012251,0.531079,0.242819,0.075519,0.141360
15,2634024026,-0.159101,0.831942,0.012722,0.531413,-0.068928,0.039577,0.047549
16,2634057360,-0.159110,0.831821,0.013261,0.531586,-0.236208,0.085402,-0.014469
17,2634090694,-0.159171,0.832051,0.013776,0.531195,-0.383574,0.250302,-0.010581
18,2634124028,-0.159356,0.832556,0.014469,0.530328,-0.110523,0.193254,0.038021
19,2634157362,-0.159478,0.833174,0.015296,0.529296,0.086614,-0.148213,0.105836
20,2634190696,-0.159696,0.833688,0.016163,0.528396,0.312374,-0.020356,0.153022
21,2634224030,-0.159362,0.834048,0.016482,0.527918,0.242244,-0.087236,0.232071
22,2634257364,-0.158432,0.834125,0.016081,0.528089,0.145975,-0.343108,0.189053
23,2634290698,-0.157084,0.833907,0.015317,0.528859,0.006697,-0.251980,0.228370
24,2634324032,-0.155579,0.833342,0.014440,0.530217,-0.173090,-0.159405,0.089504
25,2634357366,-0.153669,0.832805,0.013052,0.531652,-0.444633,-0.406318,0.046725
26,2634390700,-0.151516,0.832506,0.011170,0.532778,-0.685811,-0.213821,0.030244
27,2634424034,-0.150066,0.832246,0.009780,0.533623,-0.590127,0.062426,-0.024713
28,2634457368,-0.149167,0.832227,0.008874,0.533920,-0.482924,0.055298,0.026221
29,2634490702,-0.148779,0.832404,0.008466,0.533759,-0.292960,0.048462,0.047478
30,2634524036,-0.148554,0.832786,0.008182,0.533230,-0.094216,0.154759,0.039697
31,2634557370,-0.148358,0.833308,0.008016,0.532470,-0.020315,0.178746,0.073069
32,2634590704,-0.148457,0.833926,0.008436,0.531468,0.122798,0.260902,0.101303
33,2634624038,-0.149048,0.834642,0.009715,0.530156,0.179436,0.118095,0.138816
34,2634657372,-0.149861,0.835144,0.011501,0.529098,0.371090,-0.128863,0.223749
35,2634690706,-0.150522,0.835449,0.013340,0.528387,0.424705,-0.329455,0.289118
36,2634724040,-0.150812,0.835377,0.014902,0.528375,0.488862,-0.361717,0.248384
37,2634757374,-0.150899,0.834952,0.016215,0.528984,0.378412,-0.299017,0.245775
38,2634790708,-0.150923,0.834265,0.017356,0.530024,0.020546,-0.308968,0.125170
39,2634824042,-0.150576,0.833542,0.017815,0.531242,-0.260848,-0.226329,0.005848
40,2634857376,-0.150112,0.832848,0.017827,0.532460,-0.415243,-0.225041,-0.044909
41,2634890710,-0.149677,0.832473,0.017443,0.533182,-0.520569,-0.226810,0.028892
42,2634924044,-0.149533,0.832357,0.016908,0.533420,-0.543463,-0.168025,0.037147
43,2634957378,-0.149662,0.832347,0.016363,0.533417,-0.329415,-0.193799,0.070244
44,2634990712,-0.149824,0.832427,0.015549,0.533271,-0.151176,-0.233223,0.099133
45,2635024046,-0.149993,0.832508,0.014558,0.533125,-0.119756,-0.161556,0.115494
46,2635057380,-0.150027,0.832522,0.013399,0.533124,-0.160369,-0.093733,0.072828
47,2635090714,-0.150126,0.832521,0.012273,0.533125,-0.263966,0.024833,0.114625
48,2635124048,-0.150131,0.832483,0.011051,0.533209,-0.299296,0.012451,0.094534
49,2635157382,-0.149933,0.832477,0.009567,0.533303,-0.308056,-0.148795,0.014756
50,2635190716,-0.149614,0.832551,0.007938,0.533303,-0.329093,-0.055177,0.089890
51,2635224050,-0.149371,0.832630,0.006299,0.533271,-0.288443,0.110829,0.089949
52,2635257384,-0.149235,0.832712,0.004774,0.533196,-0.132244,-0.043068,0.073971
53,2635290718,-0.149065,0.832834,0.003383,0.533063,-0.081265,-0.075014,0.122461
54,2635324052,-0.148803,0.832955,0.002200,0.532955,0.053898,0.040058,0.093493
55,2635357386,-0.148591,0.833106,0.001253,0.532780,0.114608,0.239434,0.103811
56,2635390720,-0.148414,0.833334,0.000658,0.532474,0.158423,0.250806,0.126680
57,2635424054,-0.148631,0.833583,0.000647,0.532024,0.160732,0.158222,0.122311
58,2635457388,-0.148810,0.833916,0.000871,0.531451,0.222871,-0.073993,0.102011
59,2635490722,-0.148911,0.834249,0.001123,0.530900,0.118544,-0.139016,0.132105
60,2635524056,-0.148831,0.834437,0.001187,0.530626,0.152695,-0.129372,0.148997
61,2635557390,-0.148838,0.834412,0.001230,0.530664,0.102474,-0.160797,0.140701
62,2635590724,-0.149284,0.834311,0.001790,0.530695,-0.273444,-0.158239,0.152242
63,2635624058,-0.150479,0.834187,0.003126,0.530546,-0.485890,0.010382,0.176945
64,2635657392,-0.152513,0.833729,0.005274,0.530670,-0.351268,0.041582,0.102999
65,2635690726,-0.155365,0.832892,0.008080,0.531120,-0.052458,0.086212,0.161180
66,2635724060,-0.158266,0.832144,0.010987,0.531384,0.152382,-0.355362,0.272079
67,2635757394,-0.160487,0.831204,0.012969,0.532144,0.077520,-0.575662,0.176481
68,2635790728,-0.161500,0.829870,0.013464,0.533904,0.176327,-0.559204,0.110537
69,2635824062,-0.160775,0.828684,0.011593,0.536004,0.018590,-0.592694,0.121902
70,2635857396,-0.158357,0.827478,0.007034,0.538660,-0.221913,-0.338372,0.004355
71,2635890730,-0.154828,0.826154,0.000978,0.541755,-0.306032,-0.107180,0.082538
72,2635924064,-0.151257,0.824642,-0.004994,0.545036,-0.419710,0.034505,0.024440
73,2635957398,-0.147997,0.823258,-0.010644,0.547935,-0.417507,0.019212,-0.054185
74,2635990732,-0.144588,0.822136,-0.016629,0.550374,-0.169892,0.082763,0.002360
75,2636024066,-0.140791,0.820931,-0.023135,0.552916,-0.030463,0.042887,0.036393
76,2636057400,-0.136532,0.819569,-0.030075,0.555665,0.184186,-0.034918,0.103634
77,2636090734,-0.132258,0.818287,-0.037123,0.558155,0.214879,-0.024968,0.091764
78,2636124068,-0.127669,0.817047,-0.044362,0.560506,0.141812,0.101583,0.151643
79,2636157402,-0.122759,0.815702,-0.051769,0.562923,0.171732,-0.102399,0.088580
80,2636190736,-0.117624,0.814432,-0.059572,0.565083,0.014721,-0.317655,-0.033277
81,2636224070,-0.112395,0.813207,-0.067594,0.567005,-0.131055,0.081815,0.203501
82,2636257404,-0.107409,0.811897,-0.075046,0.568908,-0.155122,-0.261284,-0.008153
83,2636290738,-0.102844,0.810823,-0.082217,0.570291,-0.288299,-0.046579,-0.016931
84,2636324072,-0.099052,0.809965,-0.088900,0.571178,-0.286711,0.148676,0.125004
85,2636357406,-0.096082,0.809041,-0.094896,0.572029,-0.075322,-0.113109,0.138843
86,2636390740,-0.093231,0.808042,-0.100974,0.572872,0.041840,-0.695599,0.120234
87,2636424074,-0.089093,0.806989,-0.108766,0.573587,0.003268,-0.529237,0.110132
88,2636457408,-0.084942,0.805435,-0.117127,0.574754,0.062286,0.100430,0.215605
89,2636490742,-0.081332,0.804094,-0.124785,0.575541,0.190857,-0.230283,-0.082680
90,2636524076,-0.078060,0.802882,-0.131931,0.576093,0.136111,0.093538,0.085962
91,2636557410,-0.075601,0.801932,-0.137690,0.576396,0.118570,0.252217,0.059348
92,2636590744,-0.074505,0.801462,-0.141986,0.576150,0.005563,0.608184,-0.113657
93,2636624078,-0.074327,0.802062,-0.145103,0.574560,0.139628,0.525471,0.012112
94,2636657412,-0.075484,0.803562,-0.145570,0.572190,0.497519,0.182909,0.314353
95,2636690746,-0.078103,0.805634,-0.143339,0.569482,0.785168,0.062968,0.115708
96,2636724080,-0.082018,0.808316,-0.139326,0.566117,0.722839,0.452087,0.312508
97,2636757414,-0.086916,0.811270,-0.133831,0.562475,0.716947,0.562239,0.277060
98,2636790748,-0.092796,0.814442,-0.126166,0.558710,0.562778,0.634634,0.139612
99,2636824082,-0.100258,0.817876,-0.116009,0.554591,0.307974,0.800350,0.237914
100,2636857416,-0.108572,0.821307,-0.104090,0.550303,0.251370,0.902295,0.118564
101,2636890750,-0.118245,0.824548,-0.090209,0.545896,0.048037,1.012670,0.117372
102,2636924084,-0.130601,0.827440,-0.072816,0.541281,-0.687407,0.880399,0.271371
103,2636957418,-0.144764,0.829882,-0.052764,0.536243,-1.198523,-0.068745,-0.127325
104,2636990752,-0.157448,0.832036,-0.034523,0.530788,-0.876029,-0.326281,-0.095517
105,2637024086,-0.166721,0.833651,-0.020840,0.526115,-0.077853,-0.398565,0.173733
106,2637057420,-0.172813,0.834592,-0.011307,0.522939,-0.048745,-0.893879,0.159429
107,2637090754,-0.176113,0.835205,-0.004854,0.520956,-0.488973,-0.434481,0.112193
108,2637124088,-0.178409,0.835521,0.000559,0.519688,-0.484830,0.209741,0.109862
109,2637157422,-0.180764,0.835698,0.005882,0.518557,-0.328954,0.200532,0.055138
110,2637190756,-0.182396,0.836040,0.010569,0.517358,-0.352083,-0.304289,-0.009987
111,2637224090,-0.183441,0.836605,0.014646,0.515974,-0.403862,0.166398,0.029101
112,2637257424,-0.184789,0.837058,0.019139,0.514608,0.008436,0.309044,0.064207
113,2637290758,-0.185757,0.837693,0.023559,0.513042,0.107811,-0.070532,0.073482
114,2637324092,-0.186809,0.838345,0.028220,0.511357,0.007130,-0.040946,0.085113
115,2637357426,-0.187913,0.838864,0.033117,0.509804,0.007798,0.019440,0.026477
116,2637390760,-0.189096,0.839401,0.038108,0.508132,0.006664,0.034609,0.096735
117,2637424094,-0.190356,0.840089,0.043082,0.506123,-0.077230,-0.167113,0.126065
118,2637457428,-0.191810,0.840649,0.048271,0.504173,0.035036,-0.115542,0.192726
119,2637490762,-0.193335,0.840999,0.053309,0.502496,0.076893,-0.520612,0.226370
120,2637524096,-0.194245,0.841090,0.057237,0.501560,0.045590,-0.691183,0.162348
121,2637557430,-0.193829,0.840900,0.059164,0.501816,-0.035483,-0.887297,0.140053
122,2637590764,-0.192088,0.840619,0.058857,0.502991,-0.237944,-0.538976,0.186806
123,2637624098,-0.189555,0.840202,0.056879,0.504871,-0.347788,-0.460165,0.145782
124,2637657432,-0.186287,0.839878,0.053709,0.506970,-0.508936,-0.299998,0.096645
125,2637690766,-0.182508,0.839837,0.049699,0.508818,-0.637059,0.115126,0.085559
126,2637724100,-0.179415,0.839755,0.046144,0.510386,-0.393754,0.289894,0.033290
127,2637757434,-0.176846,0.839878,0.043530,0.511309,-0.044654,0.132433,-0.045945
128,2637790768,-0.174883,0.840278,0.042032,0.511453,0.010841,0.215244,0.091449
129,2637824102,-0.173545,0.840617,0.041616,0.511386,0.219867,0.272743,0.150301
130,2637857436,-0.172645,0.840886,0.042092,0.511209,0.423642,-0.043583,0.165318
131,2637890770,-0.171831,0.841070,0.042967,0.511107,0.397792,-0.145669,0.124009
132,2637924104,-0.171122,0.841178,0.043929,0.511086,0.104242,-0.229392,0.220746
133,2637957438,-0.170238,0.841093,0.044544,0.511468,0.080261,-0.424643,0.230750
134,2637990772,-0.169503,0.840917,0.045021,0.511959,-0.001288,-0.289468,0.048831
135,2638024106,-0.168972,0.840744,0.045400,0.512385,-0.044962,-0.133719,0.126847
136,2638057440,-0.168644,0.840445,0.046063,0.512924,0.025975,-0.210603,0.079377
137,2638090774,-0.168638,0.840289,0.046960,0.513101,-0.081486,-0.106695,0.058965
138,2638124108,-0.168819,0.840174,0.047854,0.513146,-0.138167,-0.085124,0.059521
139,2638157442,-0.169346,0.840022,0.049118,0.513103,-0.052885,-0.166401,0.104427
140,2638190776,-0.170052,0.839929,0.050604,0.512876,-0.045847,-0.312514,0.160404
141,2638224110,-0.170850,0.839779,0.051670,0.512751,-0.119959,-0.398908,0.096101
142,2638257444,-0.171156,0.839439,0.051638,0.513208,-0.110160,-0.541302,0.178489
143,2638290778,-0.171069,0.838944,0.050793,0.514130,-0.095867,-0.366465,0.153773
144,2638324112,-0.170560,0.838417,0.049158,0.515317,-0.209661,-0.065028,0.129491
145,2638357446,-0.169567,0.837896,0.046881,0.516703,-0.218261,-0.051969,0.087599
146,2638390780,-0.168348,0.837392,0.044427,0.518133,-0.191287,-0.028397,0.042974
147,2638424114,-0.167289,0.836937,0.042299,0.519388,-0.290708,0.243960,0.043552
148,2638457448,-0.166472,0.836391,0.040531,0.520669,-0.228633,0.150345,0.056961
149,2638490782,-0.165807,0.835954,0.039192,0.521685,-0.022668,-0.127851,0.070065
150,2638524116,-0.165001,0.835458,0.037963,0.522824,0.188297,-0.223959,0.095625
151,2638557450,-0.163747,0.835021,0.036523,0.524018,0.258330,-0.079301,0.134526
152,2638590784,-0.161047,0.834807,0.034225,0.525349,0.201521,-0.406454,0.074761
153,2638624118,-0.158220,0.834839,0.031602,0.526320,-0.234778,0.316449,0.169651
154,2638657452,-0.157185,0.834595,0.029959,0.527113,-0.186555,0.562966,0.039439
155,2638690786,-0.155256,0.834761,0.028294,0.527513,0.054114,0.098234,0.017609
156,2638724120,-0.153977,0.835022,0.027673,0.527509,0.201642,-0.306939,0.153299
157,2638757454,-0.150392,0.835439,0.024971,0.528018,0.745255,-0.778668,0.004634
158,2638790788,-0.145179,0.835940,0.020199,0.528887,0.528986,-0.457025,0.249495
159,2638824122,-0.140328,0.835783,0.015728,0.530593,0.262208,-0.331471,0.256601
160,2638857456,-0.131388,0.835514,0.007689,0.533476,0.051062,-1.065576,0.165369
161,2638890790,-0.121630,0.834966,-0.000822,0.536693,-0.252323,-0.523459,0.118639
162,2638924124,-0.115146,0.834119,-0.005924,0.539402,-0.461304,0.569182,0.294721
163,2638957458,-0.111013,0.832897,-0.010217,0.542085,-0.501222,0.758422,0.065530
164,2638990792,-0.107035,0.831449,-0.015094,0.544986,-0.365584,0.925995,0.097976
165,2639024126,-0.105291,0.829829,-0.017547,0.547715,-0.290752,0.567660,0.063373
166,2639057460,-0.105147,0.828848,-0.018223,0.549204,-0.800706,0.359342,0.123652
167,2639090794,-0.104674,0.827977,-0.019254,0.550570,-0.985522,0.202198,-0.085509
168,2639124128,-0.102264,0.826968,-0.021707,0.552446,-0.636600,-0.033917,-0.105841
169,2639157462,-0.099006,0.826452,-0.025209,0.553662,-0.603021,0.164460,-0.239144
170,2639190796,-0.094800,0.826307,-0.029613,0.554395,-0.451748,0.875737,0.304860
171,2639224130,-0.090761,0.825320,-0.033414,0.556322,0.018898,0.687398,0.459716
172,2639257464,-0.088357,0.823146,-0.034957,0.559825,0.370913,0.451082,0.413756
173,2639290798,-0.088144,0.820113,-0.033742,0.564366,0.333620,-0.013889,0.513100
174,2639324132,-0.086422,0.816387,-0.032848,0.570059,0.132541,-0.990271,0.689821
175,2639357466,-0.080875,0.811594,-0.035930,0.577482,0.220507,-1.199950,0.577552
176,2639390800,-0.071382,0.805649,-0.041979,0.586577,0.086186,-1.765391,0.656445
177,2639424134,-0.058057,0.799098,-0.052099,0.596120,-0.272673,-1.937185,0.287277
178,2639457468,-0.041918,0.791453,-0.066351,0.606172,-0.316045,-0.990201,-0.001133
179,2639490802,-0.026191,0.783609,-0.081881,0.615279,-0.415011,0.371882,0.298186
180,2639524136,-0.016069,0.775020,-0.093649,0.624754,-0.113294,0.571327,0.125611
181,2639557470,-0.007656,0.767778,-0.107397,0.631605,0.273533,1.144905,-0.855054
182,2639590804,0.002125,0.763918,-0.124265,0.633233,-0.600251,0.927299,-0.233355
183,2639624138,0.013240,0.761822,-0.141641,0.631974,-0.779470,0.537072,-0.062750
184,2639657472,0.022649,0.760518,-0.155719,0.629963,-0.511619,0.148654,-0.589514
185,2639690806,0.027296,0.760193,-0.161565,0.628697,0.736934,0.087681,-0.187971
186,2639724140,0.022244,0.762921,-0.156369,0.626903,1.715831,1.743100,-0.512044
187,2639757474,0.016143,0.770443,-0.147758,0.619940,-0.530599,1.120087,-0.186520
188,2639790808,0.012079,0.774488,-0.145940,0.615407,-0.149686,-0.421147,-0.001246
189,2639824142,0.004723,0.776704,-0.140827,0.613903,0.861347,-0.640483,0.746782
190,2639857476,-0.002190,0.779007,-0.135955,0.612095,0.464303,-1.968248,-0.630393
191,2639890810,-0.005783,0.783077,-0.135128,0.607042,-0.023919,-0.973327,-0.008778
192,2639924144,-0.008583,0.786837,-0.133242,0.602547,-0.271329,-0.585230,0.177234
193,2639957478,-0.011642,0.789848,-0.129937,0.599268,0.332543,0.020164,-0.023819
194,2639990812,-0.014721,0.793187,-0.126710,0.595469,0.162087,0.104596,0.358381
195,2640024146,-0.018206,0.796279,-0.125223,0.591548,0.336389,0.217983,0.944978
196,2640057480,-0.023357,0.798608,-0.124550,0.588361,0.457804,-0.321635,0.756558
197,2640090814,-0.027005,0.799817,-0.125482,0.586361,0.721367,-1.203039,0.276860
198,2640124148,-0.028539,0.800269,-0.126849,0.585377,0.329458,-0.805776,0.313766
199,2640157482,-0.029933,0.800142,-0.127462,0.585347,0.113000,-0.562973,0.384746
200,2640190816,-0.031709,0.799025,-0.128896,0.586465,0.100674,-0.568192,0.372930
201,2640224150,-0.031201,0.796549,-0.134987,0.588486,-0.546096,-0.602346,-0.005935
202,2640257484,-0.028637,0.793249,-0.144514,0.590807,-1.080685,-0.726468,-0.291070
203,2640290818,-0.023596,0.790004,-0.156349,0.592363,-1.112208,-0.628993,-0.186433
204,2640324152,-0.017849,0.787151,-0.168793,0.592946,-0.865013,1.028167,-0.127617
205,2640357486,-0.014721,0.784820,-0.179981,0.592831,-0.611279,1.037428,-0.159558
206,2640390820,-0.012653,0.782871,-0.190841,0.592059,-0.364215,0.514035,-0.145526
207,2640424154,-0.011327,0.781931,-0.200537,0.590120,-0.234333,0.606219,0.053540
208,2640457488,-0.011905,0.782034,-0.207989,0.587387,0.162188,0.754685,-0.000611
209,2640490822,-0.014175,0.782836,-0.213105,0.584427,0.308304,0.578404,0.186177
210,2640524156,-0.017053,0.783851,-0.217447,0.581382,0.500278,0.263542,0.183893
211,2640557490,-0.019455,0.784766,-0.222166,0.578280,0.349281,-0.122541,0.077785
212,2640590824,-0.020421,0.784911,-0.227804,0.575851,0.187860,-0.053718,0.290277
213,2640624158,-0.020932,0.784346,-0.233897,0.574158,0.402153,0.180992,0.305327
214,2640657492,-0.021344,0.783553,-0.239817,0.572781,0.417438,0.257159,0.306458
215,2640690826,-0.021900,0.782851,-0.244620,0.571689,0.369009,0.579587,0.222605
216,2640724160,-0.023481,0.782637,-0.247206,0.570806,0.475056,0.706342,0.151823
217,2640757494,-0.025475,0.783333,-0.247566,0.569609,0.462910,0.393488,0.197362
218,2640790828,-0.027580,0.784389,-0.245600,0.568908,0.198634,-0.175762,0.096386
219,2640824162,-0.029698,0.786264,-0.243320,0.567190,0.173894,0.139998,-0.125339
220,2640857496,-0.032012,0.788599,-0.240803,0.564891,0.129586,0.694185,0.327655
221,2640890830,-0.034921,0.790634,-0.237507,0.563268,-0.083772,0.373919,-0.080657
222,2640924164,-0.038511,0.793566,-0.233817,0.560448,-0.170831,0.752144,-0.295796
223,2640957498,-0.043965,0.797829,-0.227712,0.556493,-0.648469,1.970625,0.267539
224,2640990832,-0.053950,0.803030,-0.215989,0.552796,-1.298298,1.599336,0.191574
225,2641024166,-0.064631,0.807937,-0.203832,0.549103,-0.602398,-0.826998,-0.315669
226,2641057500,-0.072435,0.812644,-0.194090,0.544696,0.245952,-1.182575,0.241268
227,2641090834,-0.078193,0.816401,-0.184956,0.541450,0.900445,-0.873248,0.476711
228,2641124168,-0.082754,0.819268,-0.175800,0.539488,0.688111,0.124762,0.434120
229,2641157502,-0.085563,0.821970,-0.167075,0.537710,0.550362,0.359608,0.333440
230,2641190836,-0.089173,0.824861,-0.156627,0.535838,0.070469,0.873260,0.234780
231,2641224170,-0.093784,0.827221,-0.144094,0.534929,-0.101878,0.879806,0.395645
232,2641257504,-0.098598,0.828934,-0.131571,0.534638,-0.571970,-0.018600,-0.053357
233,2641290838,-0.100888,0.830514,-0.123220,0.533748,-0.502108,-0.217952,-0.372747
234,2641324172,-0.101180,0.831892,-0.118128,0.532697,-0.328868,0.184195,-0.005206
235,2641357506,-0.101057,0.832981,-0.114320,0.531849,-0.049618,0.504470,0.039653
236,2641390840,-0.100740,0.834031,-0.110290,0.531114,0.015423,0.511864,-0.081744
237,2641424174,-0.100349,0.835172,-0.105777,0.530312,-0.039331,0.160320,0.035510
238,2641457508,-0.099540,0.836297,-0.101287,0.529568,0.034178,0.021303,0.108972
239,2641490842,-0.098057,0.837318,-0.097270,0.528984,0.008352,0.010232,0.109379
240,2641524176,-0.096188,0.838007,-0.093283,0.528953,-0.008402,-0.282150,0.136903
241,2641557510,-0.093787,0.838560,-0.089113,0.529227,-0.207082,-0.288971,0.154850
242,2641590844,-0.092090,0.838911,-0.083718,0.529849,-0.517769,0.436189,0.192855
243,2641624178,-0.092680,0.839098,-0.076060,0.530605,-0.821169,0.314226,0.317155
244,2641657512,-0.095036,0.839262,-0.067644,0.531067,-0.229373,-0.865870,-0.112883
245,2641690846,-0.096122,0.840099,-0.060672,0.530392,0.119757,-1.271908,0.085649
246,2641724180,-0.095806,0.840991,-0.056263,0.529520,-0.141113,-0.810423,0.140987
247,2641757514,-0.094397,0.841351,-0.054144,0.529421,-0.091927,-0.462224,0.072939
248,2641790848,-0.091545,0.841476,-0.053549,0.529784,0.053960,-0.435417,0.060559
249,2641824182,-0.088277,0.841626,-0.054107,0.530044,-0.060973,-0.260575,0.165747
250,2641857516,-0.085159,0.841600,-0.055591,0.530442,-0.128411,-0.074263,0.109573
251,2641890850,-0.081384,0.841445,-0.057970,0.531026,-0.195250,-0.032003,0.001120
252,2641924184,-0.078282,0.841571,-0.059847,0.531083,-0.112292,-0.042811,0.050092
253,2641957518,-0.076493,0.842043,-0.060431,0.530530,-0.076558,0.033249,0.106016
254,2641990852,-0.075065,0.842755,-0.060426,0.529603,0.026425,-0.252442,0.106615
255,2642024186,-0.073689,0.843488,-0.060312,0.528642,0.128364,-0.327175,0.175687
256,2642057520,-0.073023,0.844086,-0.059629,0.527856,0.166231,-0.237172,0.113793
257,2642090854,-0.072486,0.844374,-0.058539,0.527591,0.124896,-0.315544,0.178741
258,2642124188,-0.071962,0.844634,-0.057422,0.527370,0.123933,-0.284862,0.172100
259,2642157522,-0.071510,0.844856,-0.056475,0.527178,-0.064961,-0.240198,0.138083
260,2642190856,-0.071273,0.844900,-0.055601,0.527233,-0.160218,-0.236536,0.178497
261,2642224190,-0.070961,0.844700,-0.054850,0.527673,-0.173038,-0.440134,0.268239
262,2642257524,-0.071031,0.844341,-0.054277,0.528298,-0.113911,-0.337174,0.182505
263,2642290858,-0.071181,0.843701,-0.054179,0.529309,0.165716,-0.296277,0.053167
264,2642324192,-0.071020,0.842946,-0.054738,0.530474,0.078602,-0.239082,0.124509
265,2642357526,-0.070272,0.842161,-0.055930,0.531695,0.038334,-0.348388,0.185330
266,2642390860,-0.069528,0.841202,-0.057269,0.533167,-0.057102,-0.207299,0.201995
267,2642424194,-0.069714,0.840047,-0.057882,0.534894,-0.086358,-0.070780,-0.023826
268,2642457528,-0.070307,0.839063,-0.058072,0.536340,0.079426,0.173140,0.041102
269,2642490862,-0.070199,0.838161,-0.058516,0.537713,-0.029569,0.096652,-0.012957
270,2642524196,-0.070054,0.837845,-0.059049,0.538166,-0.332717,0.230691,0.035627
271,2642557530,-0.070661,0.837956,-0.059237,0.537893,-0.457339,0.467441,-0.035747
272,2642590864,-0.071198,0.838210,-0.059272,0.537423,-0.246000,0.204287,-0.006908
273,2642624198,-0.071132,0.838696,-0.059736,0.536621,-0.198146,0.124013,0.071706
274,2642657532,-0.071445,0.839473,-0.060310,0.535300,-0.315905,-0.174203,0.026406
275,2642690866,-0.071494,0.840570,-0.061587,0.533421,-0.295234,0.233754,-0.067346
276,2642724200,-0.071600,0.841853,-0.062607,0.531262,-0.240673,0.255468,0.079566
277,2642757534,-0.072897,0.843233,-0.062689,0.528882,-0.006517,0.041201,0.056597
278,2642790868,-0.074670,0.844815,-0.062324,0.526146,0.160936,-0.098210,0.012160
279,2642824202,-0.075708,0.846217,-0.062308,0.523742,0.060502,-0.223255,0.132558
280,2642857536,-0.076503,0.847065,-0.062371,0.522245,0.157401,-0.379325,0.218573
281,2642890870,-0.076931,0.847490,-0.062885,0.521430,0.240155,-0.333624,0.237279
282,2642924204,-0.076982,0.847467,-0.063826,0.521345,0.146429,-0.448595,0.288855
283,2642957538,-0.076304,0.846898,-0.065306,0.522186,0.069904,-0.433506,0.203082
284,2642990872,-0.075176,0.846018,-0.067554,0.523489,0.005673,-0.307001,0.185036
285,2643024206,-0.074006,0.844939,-0.070283,0.525036,-0.076245,-0.286770,0.157503
286,2643057540,-0.072256,0.843894,-0.073691,0.526492,-0.190490,-0.378303,0.147048
287,2643090874,-0.070714,0.842916,-0.077403,0.527734,-0.280453,-0.244830,0.134752
288,2643124208,-0.069720,0.841683,-0.081228,0.529256,-0.204853,-0.138553,0.135479
289,2643157542,-0.068365,0.840146,-0.085650,0.531176,-0.106571,-0.196369,0.116934
290,2643190876,-0.066752,0.838552,-0.090507,0.533090,-0.142819,-0.270122,0.110906
291,2643224210,-0.065052,0.836832,-0.095550,0.535119,-0.163036,-0.074216,0.117891
292,2643257544,-0.062994,0.834933,-0.100902,0.537345,-0.169829,-0.088240,0.157726
293,2643290878,-0.060746,0.832943,-0.106428,0.539621,-0.339250,-0.253667,0.055291
294,2643324212,-0.058229,0.831033,-0.112128,0.541684,-0.425165,-0.050845,0.036983
295,2643357546,-0.055797,0.829128,-0.117789,0.543656,-0.389982,0.208522,0.058399
296,2643390880,-0.053782,0.827293,-0.123049,0.545485,-0.274539,0.233844,-0.012380
297,2643424214,-0.052371,0.825815,-0.127483,0.546842,-0.251036,0.322930,0.027897
298,2643457548,-0.051830,0.824597,-0.130804,0.547947,-0.152497,0.174213,0.063921
299,2643490882,-0.051807,0.823556,-0.133482,0.548868,-0.033128,-0.074166,0.038566
300,2643524216,-0.051597,0.822711,-0.136305,0.549461,0.186905,-0.189414,0.092380
301,2643557550,-0.051291,0.821941,-0.139216,0.549911,0.397644,-0.211900,0.202349
302,2643590884,-0.051008,0.821095,-0.141788,0.550545,0.606886,-0.192759,0.290105
303,2643624218,-0.051260,0.820258,-0.143359,0.551362,0.614095,-0.114053,0.297172
304,2643657552,-0.052234,0.819504,-0.143763,0.552286,0.253586,-0.179942,0.237980
305,2643690886,-0.053633,0.818710,-0.143503,0.553396,-0.125069,-0.307472,0.080331
306,2643724220,-0.055075,0.817802,-0.143434,0.554613,-0.251422,-0.236031,0.047124
307,2643757554,-0.056299,0.816739,-0.144140,0.555871,-0.424848,-0.104604,0.032689
308,2643790888,-0.057497,0.815577,-0.145640,0.557063,-0.510759,0.027617,-0.021649
309,2643824222,-0.058813,0.814412,-0.147598,0.558113,-0.419316,0.010573,0.053142
310,2643857556,-0.060176,0.813185,-0.149599,0.559224,-0.443743,-0.294191,0.142680
311,2643890890,-0.061480,0.811620,-0.152187,0.560655,-0.441421,-0.484625,0.041735
312,2643924224,-0.062078,0.809816,-0.155897,0.562176,-0.279962,-0.282213,0.009825
313,2643957558,-0.062009,0.807800,-0.160493,0.563788,-0.057437,-0.003076,0.144319
314,2643990892,-0.061653,0.805686,-0.165460,0.565415,0.073246,0.227433,0.036839
315,2644024226,-0.060919,0.803559,-0.170938,0.566890,0.049446,0.019541,-0.089251
316,2644057560,-0.058713,0.801450,-0.178049,0.567919,0.051551,0.323560,-0.057878
317,2644090894,-0.055851,0.799320,-0.185955,0.568675,0.046382,0.431298,-0.053524
318,2644124228,-0.052629,0.797306,-0.194175,0.569061,0.029302,0.340838,0.109862
319,2644157562,-0.048557,0.795252,-0.202804,0.569288,0.076567,0.045005,0.064622
320,2644190896,-0.044665,0.792978,-0.211339,0.569674,0.182421,0.391212,0.286834
321,2644224230,-0.041418,0.790469,-0.218983,0.570518,0.017738,-0.130772,0.043234
322,2644257564,-0.037459,0.788178,-0.227405,0.570667,-0.051976,0.106140,0.061057
323,2644290898,-0.033959,0.785676,-0.235301,0.571135,0.141390,-0.013693,0.205767
324,2644324232,-0.030750,0.783291,-0.242821,0.571445,0.335413,0.035347,0.279771
325,2644357566,-0.028022,0.781243,-0.249410,0.571552,0.049730,0.031581,0.152799
326,2644390900,-0.025976,0.779332,-0.254900,0.571833,0.001249,0.064660,0.172765
327,2644424234,-0.024030,0.777392,-0.259989,0.572269,0.215517,0.138522,0.114027
328,2644457568,-0.022430,0.775809,-0.264581,0.572378,0.167956,0.293813,0.119260
329,2644490902,-0.021509,0.774530,-0.268167,0.572476,0.105317,0.376516,0.056886
330,2644524236,-0.021474,0.773710,-0.270546,0.572467,-0.086629,0.426573,-0.147484
331,2644557570,-0.022356,0.773692,-0.271934,0.571799,-0.021531,0.482087,-0.015408
332,2644590904,-0.024605,0.774635,-0.271462,0.570653,0.426232,0.263810,0.156824
333,2644624238,-0.028503,0.776619,-0.268545,0.569154,0.795312,0.020189,0.273903
334,2644657572,-0.034131,0.779736,-0.262906,0.567211,0.691555,-0.097533,0.255147
335,2644690906,-0.040808,0.783606,-0.255414,0.564855,0.556593,0.100752,0.179935
336,2644724240,-0.048014,0.787852,-0.246846,0.562186,0.611792,0.066110,0.300293
337,2644757574,-0.055202,0.792208,-0.237598,0.559383,0.710490,-0.043897,0.385533
338,2644790908,-0.062289,0.796450,-0.227704,0.556723,0.527516,-0.028143,0.283841
339,2644824242,-0.068781,0.800489,-0.217712,0.554156,0.190697,0.158230,0.065308
340,2644857576,-0.074855,0.804361,-0.207825,0.551552,0.041480,0.635496,0.079756
341,2644890910,-0.081119,0.808027,-0.197309,0.549165,0.023032,0.745683,0.042124
342,2644924244,-0.087657,0.811726,-0.185985,0.546652,-0.105480,0.840873,0.096860
343,2644957578,-0.094830,0.815262,-0.173192,0.544391,-0.151791,0.842970,0.158722
344,2644990912,-0.102393,0.818490,-0.159512,0.542353,-0.116128,0.477954,0.067754
345,2645024246,-0.108750,0.821379,-0.147128,0.540245,-0.138777,0.325685,0.063454
346,2645057580,-0.113471,0.823761,-0.136344,0.538474,-0.032555,0.264530,0.165859
347,2645090914,-0.116949,0.825875,-0.126269,0.536947,-0.119025,0.278812,0.208210
348,2645124248,-0.119995,0.827594,-0.116324,0.535873,-0.432369,0.440872,0.072302
349,2645157582,-0.122425,0.828874,-0.106807,0.535326,-0.609173,0.322972,-0.138788
350,2645190916,-0.124396,0.830204,-0.097580,0.534571,-0.864171,0.240841,-0.100753
351,2645224250,-0.125991,0.831764,-0.088837,0.533296,-0.935300,0.345528,-0.123803
352,2645257584,-0.127373,0.833501,-0.080354,0.531599,-0.633119,0.259530,-0.089294
353,2645290918,-0.128171,0.835435,-0.072378,0.529513,-0.310645,-0.052197,0.029901
354,2645324252,-0.128352,0.837352,-0.065059,0.527387,-0.038831,-0.112263,0.091825
355,2645357586,-0.127770,0.838973,-0.058585,0.525708,0.128191,-0.234826,0.098911
356,2645390920,-0.126203,0.840349,-0.053134,0.524467,0.080957,-0.212133,0.224339
357,2645424254,-0.123795,0.841515,-0.048524,0.523616,-0.131538,-0.441141,0.174565
358,2645457588,-0.120654,0.842375,-0.045177,0.523266,-0.036839,-0.447987,0.090950
359,2645490922,-0.116739,0.842883,-0.042584,0.523554,-0.421296,-0.230809,0.214675
360,2645524256,-0.113241,0.843284,-0.040355,0.523852,-0.546639,-0.776837,0.344219
361,2645557590,-0.109716,0.844001,-0.038935,0.523555,-0.132691,-0.714681,0.157606
362,2645590924,-0.106551,0.844280,-0.037482,0.523865,0.198738,-0.428217,-0.093329
363,2645624258,-0.101719,0.844562,-0.037535,0.524368,-0.046263,-0.166219,0.021409
364,2645657592,-0.097234,0.844605,-0.037817,0.525129,-0.197478,0.094839,0.134520
365,2645690926,-0.092880,0.844306,-0.038048,0.526378,0.001994,-0.163859,-0.038527
366,2645724260,-0.088284,0.843732,-0.038427,0.528060,0.204211,-0.214365,0.115262
367,2645757594,-0.083760,0.842907,-0.039761,0.530012,0.075154,-0.317860,0.135031
368,2645790928,-0.078191,0.841839,-0.043041,0.532299,-0.250738,-0.459104,0.024845
369,2645824262,-0.072596,0.841116,-0.047255,0.533874,-0.283396,-0.182144,0.093752
370,2645857596,-0.067876,0.840714,-0.050752,0.534807,-0.215355,0.155396,0.107378
371,2645890930,-0.064741,0.840356,-0.052350,0.535604,0.072513,0.002698,0.195969
372,2645924264,-0.062145,0.839926,-0.053066,0.536514,0.338210,-0.423954,0.204537
373,2645957598,-0.059730,0.839586,-0.053950,0.537232,0.494629,-0.720747,0.284492
374,2645990932,-0.057915,0.839311,-0.055088,0.537745,0.504993,-0.883034,0.272923
375,2646024266,-0.055968,0.838917,-0.056874,0.538381,0.234683,-0.792111,0.301654
376,2646057600,-0.054531,0.838412,-0.058537,0.539136,0.028277,-0.508709,0.337648
377,2646090934,-0.053887,0.837902,-0.059891,0.539844,-0.173168,-0.306808,0.128963
378,2646124268,-0.054011,0.837496,-0.060995,0.540337,-0.172427,-0.296635,0.096050
379,2646157602,-0.054335,0.837120,-0.062249,0.540745,-0.166044,-0.358132,0.015642
380,2646190936,-0.054422,0.836890,-0.064194,0.540865,-0.305456,-0.258269,0.081432
381,2646224270,-0.054968,0.836880,-0.066251,0.540577,-0.391858,0.085928,0.084445
382,2646257604,-0.055570,0.836790,-0.068270,0.540404,-0.336127,0.063153,0.042477
383,2646290938,-0.055711,0.836620,-0.070454,0.540371,-0.171032,-0.001106,-0.014599
384,2646324272,-0.056113,0.836787,-0.072611,0.539785,-0.353071,-0.065720,0.078199
385,2646357606,-0.057086,0.837210,-0.074645,0.538748,-0.403916,0.168233,0.058072
386,2646390940,-0.058319,0.837530,-0.076298,0.537888,-0.330718,0.153131,0.052931
387,2646424274,-0.059523,0.837781,-0.077838,0.537143,-0.149614,0.124407,0.084262
388,2646457608,-0.061230,0.837977,-0.078983,0.536479,-0.120590,0.007441,0.152929
389,2646490942,-0.063201,0.837958,-0.080037,0.536123,-0.039331,-0.081455,0.137719
390,2646524276,-0.064759,0.837939,-0.081641,0.535725,-0.001928,-0.068053,0.062890
391,2646557610,-0.065322,0.837851,-0.083827,0.535456,-0.063026,-0.124536,0.147957
392,2646590944,-0.066023,0.837761,-0.085962,0.535173,0.064226,0.034979,0.122246
393,2646624278,-0.066434,0.837603,-0.088338,0.534982,0.239995,-0.088550,0.180976
394,2646657612,-0.066860,0.837288,-0.090434,0.535072,0.408520,-0.071236,0.161637
395,2646690946,-0.067132,0.836932,-0.092260,0.535283,0.426773,-0.029502,0.188651
396,2646724280,-0.067178,0.836583,-0.094163,0.535491,0.227368,-0.013212,0.127126
397,2646757614,-0.067075,0.836233,-0.096058,0.535715,0.064454,-0.011916,0.078332
398,2646790948,-0.067386,0.836040,-0.097328,0.535748,0.039827,0.071874,0.079077
399,2646824282,-0.068126,0.835986,-0.097974,0.535620,-0.004884,0.015041,0.091894
400,2646857616,-0.069189,0.836049,-0.098271,0.535332,-0.055026,-0.149360,0.034174
401,2646890950,-0.070180,0.836220,-0.098743,0.534848,-0.072103,-0.115868,0.075649
402,2646924284,-0.071012,0.836292,-0.099510,0.534484,-0.001520,-0.252737,0.096943
403,2646957618,-0.071303,0.836132,-0.100838,0.534446,0.187157,-0.358476,0.133656
404,2646990952,-0.070421,0.835716,-0.103107,0.534781,0.225851,-0.480197,0.215194
405,2647024286,-0.068971,0.835085,-0.106016,0.535387,-0.024964,-0.302480,0.181199
406,2647057620,-0.066828,0.834245,-0.109938,0.536175,-0.390762,0.186041,0.080626
407,2647090954,-0.064687,0.833372,-0.114118,0.536922,-0.525918,0.647385,0.032057
408,2647124288,-0.063383,0.832587,-0.116975,0.537681,-0.484883,0.510987,0.007837
409,2647157622,-0.063030,0.832083,-0.118626,0.538139,-0.364938,0.180382,0.058155
410,2647190956,-0.063205,0.831746,-0.120096,0.538314,-0.152411,0.319800,0.043551
411,2647224290,-0.063409,0.831517,-0.121155,0.538407,-0.076067,0.397155,0.171197
412,2647257624,-0.064486,0.831427,-0.120854,0.538485,0.013045,0.254484,0.061598
413,2647290958,-0.065581,0.831421,-0.120158,0.538517,0.133915,0.068675,0.106990
414,2647324292,-0.065870,0.831335,-0.120232,0.538600,0.278413,0.121443,0.065383
415,2647357626,-0.065910,0.831224,-0.120377,0.538733,0.193318,0.144344,0.128554
416,2647390960,-0.066378,0.831303,-0.119357,0.538782,-0.100823,0.044907,0.246304
417,2647424294,-0.067760,0.831465,-0.116721,0.538936,-0.263505,-0.121242,0.118742
418,2647457628,-0.069806,0.831834,-0.113525,0.538789,-0.181937,0.076880,0.074310
419,2647490962,-0.071842,0.832119,-0.110732,0.538663,-0.226677,0.104460,0.061461
420,2647524296,-0.073757,0.832273,-0.108184,0.538683,-0.267779,-0.079903,0.152030
421,2647557630,-0.075795,0.832180,-0.105340,0.539108,-0.295059,-0.380394,0.147147
422,2647590964,-0.077783,0.831764,-0.102950,0.539928,-0.259472,-0.644917,0.112008
423,2647624298,-0.078665,0.831024,-0.102439,0.541035,-0.419243,-0.480437,0.148915
424,2647657632,-0.078505,0.829840,-0.103542,0.542663,-0.372871,-0.443253,0.100158
425,2647690966,-0.077766,0.828408,-0.105798,0.544519,-0.405719,-0.537297,0.105308
426,2647724300,-0.076657,0.826698,-0.109097,0.546620,-0.205034,-0.513551,0.110928
427,2647757634,-0.074867,0.824714,-0.113478,0.548969,-0.149328,-0.424444,0.167292
428,2647790968,-0.072539,0.822461,-0.118644,0.551562,-0.034085,-0.360166,0.071657
429,2647824302,-0.069800,0.820044,-0.124581,0.554199,0.030831,-0.308485,0.086014
430,2647857636,-0.066560,0.817569,-0.131239,0.556713,0.037380,-0.257518,0.077014
431,2647890970,-0.062915,0.814987,-0.138491,0.559160,-0.009885,-0.241367,0.063103
432,2647924304,-0.059283,0.812582,-0.146107,0.561115,-0.056981,-0.029115,0.078242
433,2647957638,-0.055564,0.810135,-0.154051,0.562906,-0.035392,-0.031883,0.004041
434,2647990972,-0.051472,0.807676,-0.162615,0.564419,0.259799,-0.046794,0.076427
435,2648024306,-0.047781,0.805195,-0.171167,0.565758,0.338982,0.127623,0.186984
436,2648057640,-0.044244,0.802460,-0.179852,0.567235,0.461639,-0.375383,0.050495
437,2648090974,-0.038744,0.799524,-0.190868,0.568183,0.338942,-0.180933,0.172771
438,2648124308,-0.034153,0.796675,-0.200774,0.569064,0.076098,0.395844,0.073570
439,2648157642,-0.031001,0.794372,-0.208385,0.569728,0.066402,0.559177,0.073345
440,2648190976,-0.028990,0.792865,-0.214548,0.569645,-0.087241,0.333095,-0.041027
441,2648224310,-0.027246,0.791760,-0.220168,0.569123,-0.133675,0.127037,0.015800
442,2648257644,-0.026012,0.790818,-0.225266,0.568495,0.131242,0.283888,0.228858
443,2648290978,-0.025732,0.790144,-0.229217,0.567865,0.224442,0.149212,0.092569
444,2648324312,-0.025840,0.789837,-0.232477,0.566962,0.089019,0.190463,0.153028
445,2648357646,-0.026453,0.789580,-0.234793,0.566337,0.213679,0.383453,0.159813
446,2648390980,-0.027492,0.789408,-0.236730,0.565720,0.370970,0.252577,0.086799
447,2648424314,-0.028518,0.789444,-0.238480,0.564884,0.342868,0.419634,0.217392
448,2648457648,-0.030842,0.789662,-0.238294,0.564535,0.393503,0.341333,0.083005
449,2648490982,-0.033940,0.790734,-0.236437,0.563637,0.288960,0.467617,0.125360
450,2648524316,-0.038193,0.792496,-0.232479,0.562535,0.237190,0.539302,0.108179
451,2648557650,-0.043017,0.794847,-0.227046,0.561088,0.306043,0.487966,0.100352
452,2648590984,-0.048586,0.797624,-0.220090,0.559462,0.281102,0.319290,0.165655
453,2648624318,-0.054384,0.800656,-0.212021,0.557711,0.276564,0.274420,0.147725
454,2648657652,-0.060465,0.803819,-0.203031,0.555877,0.280965,0.405284,0.191380
455,2648690986,-0.066641,0.806968,-0.193217,0.554103,0.074410,0.399994,0.155930
456,2648724320,-0.073004,0.810083,-0.182426,0.552411,-0.195083,0.370477,0.143363
457,2648757654,-0.079459,0.813136,-0.170922,0.550712,-0.469959,0.343763,0.043076
458,2648790988,-0.085833,0.816042,-0.159483,0.548886,-0.649279,0.184837,-0.027178
459,2648824322,-0.090681,0.818659,-0.150099,0.546851,-0.421534,-0.092846,0.013675
460,2648857656,-0.094608,0.820939,-0.142041,0.544917,-0.397507,0.143650,0.089818
461,2648890990,-0.098874,0.823148,-0.133601,0.542958,-0.574948,0.408652,0.014600
462,2648924324,-0.103946,0.825710,-0.123946,0.540405,-0.822877,0.421723,-0.091746
463,2648957658,-0.109654,0.828792,-0.113182,0.536909,-0.538923,0.450195,-0.070865
464,2648990992,-0.115899,0.832003,-0.101711,0.532912,-0.004559,0.116148,0.092687
465,2649024326,-0.121585,0.834915,-0.090749,0.529056,0.588900,-0.234848,0.181336
466,2649057660,-0.125775,0.837195,-0.081545,0.525963,0.888212,-0.206335,0.319893
467,2649090994,-0.128196,0.838817,-0.074512,0.523834,0.799837,-0.114434,0.266338
468,2649124328,-0.129008,0.839809,-0.069283,0.522761,0.432228,-0.219731,0.197163
469,2649157662,-0.128506,0.840452,-0.065124,0.522386,0.099996,-0.132670,0.102061
470,2649190996,-0.127386,0.840957,-0.061364,0.522303,-0.122408,-0.024377,0.088632
471,2649224330,-0.126044,0.841399,-0.057800,0.522323,-0.255071,-0.189715,0.033014
472,2649257664,-0.124201,0.841905,-0.054820,0.522270,-0.375786,-0.162133,0.067722
473,2649290998,-0.122280,0.842447,-0.052170,0.522121,-0.380904,-0.123432,-0.003708
474,2649324332,-0.119857,0.843064,-0.050275,0.521873,-0.408441,-0.208415,0.011991
475,2649357666,-0.117285,0.843802,-0.048800,0.521405,-0.364842,-0.009487,0.091727
476,2649391000,-0.114681,0.844605,-0.047433,0.520809,-0.383568,0.328522,0.070539
477,2649424334,-0.111835,0.845242,-0.046240,0.520502,-0.194989,0.063858,0.100940
478,2649457668,-0.108600,0.845788,-0.045369,0.520377,0.070533,-0.197844,0.187010
479,2649491002,-0.105471,0.846082,-0.044533,0.520615,0.184303,-0.219868,0.283401
480,2649524336,-0.101443,0.845997,-0.044709,0.521537,0.169791,-0.378361,0.183180
481,2649557670,-0.096933,0.845653,-0.045318,0.522899,0.218748,-0.229073,0.144812
482,2649591004,-0.092553,0.845087,-0.045625,0.524578,0.208323,-0.304623,0.187714
483,2649624338,-0.087705,0.844449,-0.046551,0.526354,0.112875,-0.405769,0.151928
484,2649657672,-0.082014,0.843743,-0.048255,0.528246,-0.062087,-0.193318,0.248386
485,2649691006,-0.077244,0.842808,-0.049143,0.530372,-0.082077,-0.235438,0.200352
486,2649724340,-0.073078,0.841823,-0.049699,0.532471,-0.019486,-0.370821,-0.014601
487,2649757674,-0.068469,0.840856,-0.051025,0.534482,-0.154007,-0.547824,0.046127
488,2649791008,-0.064018,0.840013,-0.052903,0.536175,-0.255437,-0.302658,0.042583
489,2649824342,-0.061881,0.839519,-0.053573,0.537131,-0.451916,-0.176544,0.094885
490,2649857676,-0.060281,0.839081,-0.054313,0.537924,-0.373616,-0.307679,0.049320
491,2649891010,-0.059712,0.839071,-0.054699,0.537964,-0.342617,-0.288846,0.131955
492,2649924344,-0.060817,0.839294,-0.054382,0.537522,-0.164940,-0.349725,0.143003
493,2649957678,-0.061791,0.839442,-0.054594,0.537159,0.093607,-0.498749,0.281147
494,2649991012,-0.062659,0.839525,-0.055193,0.536867,0.146313,-0.407565,0.229722
495,2650024346,-0.063235,0.839269,-0.056233,0.537092,0.018963,-0.433668,0.261547
496,2650057680,-0.063224,0.838726,-0.058182,0.537734,-0.084017,-0.355931,0.131483
497,2650091014,-0.062791,0.838073,-0.061025,0.538488,-0.290965,-0.206090,-0.021882
498,2650124348,-0.062558,0.837566,-0.064142,0.538940,-0.444080,0.064642,-0.045631
499,2650157682,-0.062925,0.837343,-0.066875,0.538912,-0.422194,0.385225,0.049728
500,2650191016,-0.063678,0.837444,-0.069411,0.538345,-0.392516,0.225262,0.018958
501,2650224350,-0.064553,0.837828,-0.071785,0.537332,-0.227751,-0.021845,0.069406
502,2650257684,-0.066906,0.838428,-0.073116,0.535928,0.043654,-0.143473,0.025171
503,2650291018,-0.068539,0.838925,-0.074771,0.534713,0.495847,-0.171882,0.215723
504,2650324352,-0.069712,0.839168,-0.076615,0.533919,0.765069,-0.153074,0.279306
505,2650357686,-0.070644,0.839040,-0.078467,0.533728,0.831110,-0.150631,0.289124
506,2650391020,-0.070487,0.838612,-0.080839,0.534068,0.699988,-0.174265,0.157373
507,2650424354,-0.070052,0.838248,-0.083141,0.534343,0.290449,0.143911,0.080999
508,2650457688,-0.069848,0.837978,-0.084680,0.534552,-0.039239,0.157195,0.049692
509,2650491022,-0.070151,0.838119,-0.085211,0.534206,-0.208532,0.253193,-0.002117
510,2650524356,-0.070910,0.838506,-0.085222,0.533496,-0.231720,0.118742,0.016233
511,2650557690,-0.071669,0.838932,-0.085291,0.532713,-0.097773,-0.183837,0.052153
512,2650591024,-0.072363,0.839515,-0.085577,0.531654,0.052001,-0.244737,0.098454
513,2650624358,-0.073000,0.840141,-0.085852,0.530534,0.068085,-0.144024,0.192699
514,2650657692,-0.074219,0.840598,-0.085574,0.529685,0.005503,0.020896,0.222034
515,2650691026,-0.075593,0.840812,-0.085271,0.529199,-0.021990,-0.096540,0.126879
516,2650724360,-0.076198,0.840892,-0.085702,0.528915,-0.249799,-0.178924,0.123872
517,2650757694,-0.076885,0.840823,-0.086247,0.528837,-0.310031,-0.044693,0.087703
518,2650791028,-0.077534,0.840708,-0.086859,0.528825,-0.385846,0.158562,0.035253
519,2650824362,-0.078065,0.840637,-0.087696,0.528722,-0.496666,0.210616,0.007116
520,2650857696,-0.078608,0.840624,-0.088579,0.528514,-0.402833,0.289986,0.046140
521,2650891030,-0.079328,0.840750,-0.089029,0.528130,-0.124378,0.251213,0.054338
522,2650924364,-0.080108,0.840960,-0.088961,0.527690,0.101770,0.289147,0.130367
523,2650957698,-0.080641,0.841105,-0.088712,0.527420,0.271978,0.253061,0.082456
524,2650991032,-0.080748,0.841333,-0.088295,0.527109,0.282522,0.286918,0.088579
525,2651024366,-0.080683,0.841648,-0.087424,0.526762,0.181467,0.330329,0.095353
526,2651057700,-0.080749,0.842110,-0.086012,0.526244,0.101620,0.290708,0.038409
527,2651091034,-0.080613,0.842687,-0.084434,0.525597,-0.022601,0.084290,0.040564
528,2651124368,-0.080414,0.843257,-0.082747,0.524982,-0.012447,-0.071955,0.133793
529,2651157702,-0.080306,0.843757,-0.080989,0.524469,0.061077,-0.161140,0.090401
530,2651191036,-0.080304,0.844220,-0.079031,0.524022,-0.079408,-0.162109,0.168378
531,2651224370,-0.080491,0.844627,-0.076899,0.523654,-0.117096,-0.229952,0.172354
532,2651257704,-0.081000,0.844928,-0.074921,0.523378,-0.222062,-0.245891,0.138508
533,2651291038,-0.081665,0.844974,-0.073084,0.523460,-0.378073,-0.394669,0.243335
534,2651324372,-0.082961,0.844783,-0.070906,0.523864,-0.385327,-0.598461,0.254244
535,2651357706,-0.084956,0.844383,-0.068610,0.524493,-0.345716,-0.664719,0.154981
536,2651391040,-0.086499,0.843681,-0.067732,0.525486,-0.363350,-0.501795,0.105636
537,2651424374,-0.087287,0.842655,-0.068576,0.526890,-0.450184,-0.386770,0.107715
538,2651457708,-0.087253,0.841389,-0.070641,0.528643,-0.344606,-0.277719,0.065203
539,2651491042,-0.086556,0.840122,-0.073504,0.530379,-0.302671,-0.304304,0.091345
540,2651524376,-0.085202,0.838651,-0.077346,0.532376,-0.223837,-0.223383,0.125206
541,2651557710,-0.083271,0.836840,-0.082011,0.534828,0.010796,-0.155939,0.100202
542,2651591044,-0.081244,0.834973,-0.086848,0.537288,0.073314,-0.108126,0.098397
543,2651624378,-0.079373,0.833015,-0.091710,0.539794,0.040594,-0.068281,0.115226
544,2651657712,-0.076839,0.830848,-0.097182,0.542536,0.088252,-0.085567,0.054427
545,2651691046,-0.073883,0.828727,-0.103198,0.545074,-0.117668,-0.220123,0.031280
546,2651724380,-0.070713,0.826555,-0.109998,0.547456,-0.185427,-0.152522,-0.033247
547,2651757714,-0.067007,0.824447,-0.117626,0.549511,-0.265247,-0.108960,0.011797
548,2651791048,-0.063535,0.822336,-0.125421,0.551361,-0.292805,-0.136498,0.084439
549,2651824382,-0.060439,0.820306,-0.133490,0.552836,-0.058707,-0.255891,0.049921
550,2651857716,-0.056409,0.818117,-0.143286,0.554053,0.032983,-0.607243,0.015457
551,2651891050,-0.051356,0.815278,-0.154938,0.555590,0.344704,-0.238056,0.206494
552,2651924384,-0.046418,0.812163,-0.166072,0.557367,0.828373,-0.153807,0.408395
553,2651957718,-0.043408,0.809405,-0.174238,0.559126,0.471937,-0.298308,0.307881
554,2651991052,-0.041220,0.807042,-0.180639,0.560674,0.077109,0.069893,0.077147
555,2652024386,-0.040066,0.805110,-0.185712,0.561877,-0.137578,0.168353,-0.110351
556,2652057720,-0.039032,0.803658,-0.190827,0.562314,-0.136635,0.225427,-0.124574
557,2652091054,-0.038976,0.802792,-0.194966,0.562135,0.112149,0.514133,0.173946
558,2652124388,-0.040509,0.802547,-0.196816,0.561732,0.129603,0.344493,0.089411
559,2652157722,-0.042606,0.802590,-0.197540,0.561261,0.365280,0.095159,0.140158
560,2652191056,-0.044411,0.802292,-0.198635,0.561160,0.521215,0.137232,0.236616
561,2652224390,-0.045493,0.801503,-0.200520,0.561531,0.206981,-0.064031,0.126869
562,2652257724,-0.045720,0.800483,-0.203250,0.561985,-0.002405,0.163832,0.045165
563,2652291058,-0.045925,0.799559,-0.205659,0.562407,-0.207247,0.438559,-0.024812
564,2652324392,-0.046453,0.799222,-0.207462,0.562181,-0.228082,0.798026,-0.062589
565,2652357726,-0.047751,0.799779,-0.207752,0.561172,-0.052339,0.710173,-0.107077
566,2652391060,-0.050275,0.801313,-0.205934,0.559431,0.269646,0.566236,0.092488
567,2652424394,-0.053879,0.803439,-0.202004,0.557475,0.684214,0.418632,0.224102
568,2652457728,-0.058007,0.806022,-0.196664,0.555237,0.721784,0.408657,0.200603
569,2652491062,-0.062496,0.808907,-0.190115,0.552831,0.583822,0.484699,0.144707
570,2652524396,-0.067601,0.812113,-0.182116,0.550216,0.372907,0.547539,0.138995
571,2652557730,-0.073141,0.815494,-0.173025,0.547434,0.365842,0.527245,0.124119
572,2652591064,-0.078850,0.818937,-0.163242,0.544498,0.212586,0.450382,0.163458
573,2652624398,-0.084709,0.822254,-0.152792,0.541645,0.069749,0.332023,0.151012
574,2652657732,-0.090670,0.825342,-0.141980,0.538918,-0.140986,0.230511,0.107192
575,2652691066,-0.096161,0.828092,-0.131468,0.536409,-0.178145,0.213843,0.175959
576,2652724400,-0.101348,0.830290,-0.121171,0.534478,0.015397,0.070206,0.228976
577,2652757734,-0.105789,0.831980,-0.111741,0.533042,0.145263,-0.004301,0.104374
578,2652791068,-0.109132,0.833264,-0.103531,0.532019,0.055525,0.100019,0.158863
579,2652824402,-0.111702,0.834196,-0.096003,0.531436,-0.028191,0.024547,0.019475
580,2652857736,-0.112967,0.835125,-0.089772,0.530799,-0.234532,0.011890,-0.030929
581,2652891070,-0.113223,0.836118,-0.084667,0.530019,-0.275786,0.291267,-0.018953
582,2652924404,-0.113103,0.837094,-0.079867,0.529249,-0.177302,0.324617,-0.012968
583,2652957738,-0.112291,0.838325,-0.075531,0.528108,-0.270702,0.052093,0.007313
584,2652991072,-0.110820,0.839706,-0.071787,0.526746,-0.355410,-0.028197,-0.017675
585,2653024406,-0.109473,0.841220,-0.067819,0.525135,-0.247318,0.106000,0.063417
586,2653057740,-0.107751,0.842768,-0.063970,0.523490,-0.149531,-0.010259,0.050928
587,2653091074,-0.105583,0.844334,-0.060644,0.521801,-0.074315,-0.361975,0.082397
588,2653124408,-0.103323,0.845817,-0.057736,0.520180,-0.099795,-0.354901,0.079672
589,2653157742,-0.100929,0.847103,-0.055038,0.518847,-0.054326,-0.313673,0.108451
590,2653191076,-0.098562,0.848263,-0.052500,0.517668,-0.106235,-0.261555,0.165366
591,2653224410,-0.096168,0.849202,-0.050183,0.516809,-0.166720,-0.177061,0.179555
592,2653257744,-0.093213,0.849836,-0.048512,0.516468,-0.077777,-0.257999,0.109509
593,2653291078,-0.089933,0.850288,-0.047145,0.516431,-0.156298,-0.381151,0.291590
594,2653324412,-0.086504,0.850347,-0.046000,0.517023,-0.072043,-0.451876,0.271494
595,2653357746,-0.082699,0.850156,-0.045628,0.517992,-0.083119,-0.318733,0.206419
596,2653391080,-0.078801,0.849676,-0.045821,0.519369,-0.183008,-0.228827,0.235297
597,2653424414,-0.075377,0.848919,-0.045899,0.521105,-0.196973,-0.250573,0.156243
598,2653457748,-0.072104,0.848090,-0.046092,0.522897,-0.241796,-0.377183,0.111398
599,2653491082,-0.068925,0.847430,-0.046750,0.524336,-0.376187,-0.371901,0.089569
600,2653524416,-0.065688,0.846783,-0.047880,0.525693,-0.442017,-0.255236,0.193375
601,2653557750,-0.063241,0.846234,-0.048762,0.526795,-0.232641,-0.131293,0.097589
602,2653591084,-0.061629,0.845910,-0.049104,0.527473,-0.142128,-0.180179,0.121533
603,2653624418,-0.060527,0.845724,-0.048997,0.527909,-0.069677,-0.115433,0.120544
604,2653657752,-0.060050,0.845597,-0.048408,0.528222,0.039578,-0.207910,0.149873
605,2653691086,-0.060092,0.845530,-0.047500,0.528407,0.161937,-0.253336,0.126263
606,2653724420,-0.060470,0.845537,-0.046325,0.528456,0.175698,-0.262384,0.038998
607,2653757754,-0.061036,0.845628,-0.045113,0.528351,0.068973,-0.234866,0.115493
608,2653791088,-0.062112,0.845741,-0.043951,0.528143,-0.011019,-0.188222,0.145479
609,2653824422,-0.063428,0.845835,-0.042802,0.527929,0.030096,-0.211315,0.077127
610,2653857756,-0.064609,0.845943,-0.041990,0.527679,0.089358,-0.259740,0.102788
611,2653891090,-0.065834,0.846078,-0.041517,0.527347,0.088609,-0.279243,0.111579
612,2653924424,-0.066743,0.846189,-0.041736,0.527038,0.053185,-0.309560,0.211461
613,2653957758,-0.067230,0.846163,-0.042615,0.526947,0.001771,-0.290724,0.111402
614,2653991092,-0.067492,0.846030,-0.043940,0.527019,-0.051975,-0.127026,0.120876
615,2654024426,-0.067673,0.845790,-0.045599,0.527240,-0.203994,-0.097648,0.139010
616,2654057760,-0.067589,0.845539,-0.047725,0.527464,-0.345620,-0.089003,0.081125
617,2654091094,-0.067727,0.845329,-0.049789,0.527594,-0.376126,0.054357,0.031929
618,2654124428,-0.068289,0.845169,-0.051443,0.527618,-0.257657,0.056088,0.080338
619,2654157762,-0.069118,0.845169,-0.052849,0.527372,-0.190224,0.008204,0.116410
620,2654191096,-0.070172,0.845202,-0.054146,0.527048,-0.134091,0.020180,0.116366
621,2654224430,-0.071660,0.845193,-0.055016,0.526772,-0.047953,0.115576,0.171384
622,2654257764,-0.072850,0.845110,-0.056108,0.526627,0.012223,-0.113798,0.118066
623,2654291098,-0.073834,0.845028,-0.057195,0.526504,-0.021300,-0.071868,0.122367
624,2654324432,-0.074987,0.844842,-0.058044,0.526546,0.067171,0.083886,0.098086
625,2654357766,-0.075859,0.844643,-0.059046,0.526629,0.023269,0.051108,0.125110
626,2654391100,-0.076562,0.844362,-0.060063,0.526864,0.049421,-0.057492,0.133887
627,2654424434,-0.077318,0.843988,-0.060720,0.527276,0.176093,-0.045878,0.088389
628,2654457768,-0.077940,0.843626,-0.061248,0.527704,0.230545,0.041934,0.088569
629,2654491102,-0.078556,0.843291,-0.061757,0.528088,0.061132,-0.018361,0.119215
630,2654524436,-0.078937,0.843027,-0.062452,0.528372,-0.118221,-0.055832,0.062030
631,2654557770,-0.079522,0.842791,-0.062895,0.528608,-0.086945,-0.011509,0.079170
632,2654591104,-0.080442,0.842533,-0.063036,0.528862,-0.019783,-0.110749,0.109367
633,2654624438,-0.081455,0.842327,-0.063267,0.529007,-0.072180,-0.278546,0.115663
634,2654657772,-0.082377,0.842051,-0.063954,0.529221,-0.132020,-0.346603,0.152554
635,2654691106,-0.083223,0.841566,-0.064965,0.529738,-0.035264,-0.443464,0.148730
636,2654724440,-0.083958,0.840981,-0.066366,0.530376,0.027542,-0.403934,0.159109
637,2654757774,-0.084753,0.840276,-0.068145,0.531141,0.003403,-0.301309,0.141094
638,2654791108,-0.085487,0.839450,-0.070356,0.532041,-0.055493,-0.223142,0.119936
639,2654824442,-0.086317,0.838538,-0.072581,0.533045,-0.070103,-0.213055,0.127909
640,2654857776,-0.087147,0.837595,-0.074785,0.534088,-0.010996,-0.139289,0.149004
641,2654891110,-0.087877,0.836612,-0.077114,0.535176,-0.016331,-0.081525,0.107495
642,2654924444,-0.088326,0.835612,-0.079734,0.536280,-0.045909,-0.161520,0.077658
643,2654957778,-0.088010,0.834600,-0.083067,0.537400,-0.033688,-0.035486,0.035662
644,2654991112,-0.087115,0.833466,-0.087070,0.538670,-0.082526,0.110659,0.046261
645,2655024446,-0.086329,0.832302,-0.091102,0.539929,-0.156037,0.094945,0.068160
646,2655057780,-0.085728,0.831231,-0.094861,0.541026,-0.231907,0.037398,0.106437
647,2655091114,-0.085187,0.830051,-0.098459,0.542278,-0.241500,-0.120821,0.067899
648,2655124448,-0.084456,0.828858,-0.102464,0.543475,-0.260549,-0.170224,0.019972
649,2655157782,-0.083225,0.827627,-0.107363,0.544594,-0.254080,-0.024903,0.036614
650,2655191116,-0.082084,0.826271,-0.112388,0.545810,-0.109803,0.096860,0.166144
651,2655224450,-0.081329,0.824873,-0.116971,0.547074,0.019466,0.020573,0.121466
652,2655257784,-0.080384,0.823255,-0.121685,0.548620,0.142121,-0.316120,0.170274
653,2655291118,-0.078608,0.821402,-0.127257,0.550387,0.221688,-0.336768,0.125640
654,2655324452,-0.076148,0.819175,-0.133782,0.552502,0.161397,-0.218078,0.155772
655,2655357786,-0.073384,0.816755,-0.140585,0.554764,0.210189,0.074093,0.183893
656,2655391120,-0.071148,0.814469,-0.146670,0.556837,0.000348,0.154070,0.135716
657,2655424454,-0.069218,0.812311,-0.152078,0.558779,-0.091007,-0.191853,-0.005360
658,2655457788,-0.066692,0.810250,-0.158179,0.560382,-0.029050,-0.054496,0.074951
659,2655491122,-0.063994,0.808039,-0.164576,0.562045,-0.009694,0.159106,0.036948
660,2655524456,-0.061748,0.805876,-0.170655,0.563586,-0.412816,0.156398,0.076982
661,2655557790,-0.060131,0.803902,-0.175829,0.564988,-0.556947,0.106818,0.007032
662,2655591124,-0.058961,0.802322,-0.180145,0.565997,-0.366586,0.297969,-0.165189
663,2655624458,-0.058082,0.801235,-0.184241,0.566309,0.036050,0.340213,0.031007
664,2655657792,-0.057497,0.800249,-0.188124,0.566486,0.402324,0.144967,0.125846
665,2655691126,-0.057241,0.799504,-0.191390,0.566470,0.492598,0.074295,0.196912
666,2655724460,-0.057521,0.799037,-0.193521,0.566377,0.532281,0.148124,0.250856
667,2655757794,-0.058314,0.798874,-0.194556,0.566171,0.474862,0.406857,0.064193
668,2655791128,-0.059520,0.799348,-0.194782,0.565298,0.448376,0.767761,0.018024
669,2655824462,-0.061669,0.800618,-0.193157,0.563825,0.577250,0.755874,0.153671
670,2655857796,-0.064675,0.802549,-0.189647,0.561933,0.736980,0.447532,0.191875
671,2655891130,-0.068178,0.804987,-0.184825,0.559633,0.630672,0.384573,0.177603
672,2655924464,-0.071919,0.807646,-0.178933,0.557243,0.637914,0.520536,0.205482
673,2655957798,-0.075944,0.810502,-0.172102,0.554708,0.395860,0.552439,0.128249
674,2655991132,-0.080059,0.813459,-0.164560,0.552084,0.112704,0.453500,0.116525
675,2656024466,-0.084378,0.816429,-0.156120,0.549502,-0.055141,0.438515,0.066445
676,2656057800,-0.088745,0.819340,-0.147212,0.546933,-0.213245,0.299405,0.095598
677,2656091134,-0.092581,0.821975,-0.138720,0.544559,-0.139891,0.159979,0.094669
678,2656124468,-0.095671,0.824324,-0.130940,0.542396,-0.152421,0.086501,0.091421
679,2656157802,-0.098163,0.826523,-0.123568,0.540330,-0.198353,0.157184,0.091012
680,2656191136,-0.100403,0.828576,-0.116117,0.538424,-0.230083,0.302681,0.110069
681,2656224470,-0.102635,0.830502,-0.108416,0.536638,-0.193834,0.364202,0.043879
682,2656257804,-0.104645,0.832349,-0.100699,0.534888,-0.222520,0.189861,0.120502
683,2656291138,-0.106548,0.834105,-0.092958,0.533176,-0.167669,0.123361,0.057849
684,2656324472,-0.108088,0.835760,-0.085818,0.531470,-0.152108,0.094067,0.041933
685,2656357806,-0.108519,0.837291,-0.080082,0.529863,-0.076913,0.007096,0.025567
686,2656391140,-0.107861,0.838725,-0.075262,0.528435,0.038592,-0.131973,0.087428
687,2656424474,-0.106261,0.839955,-0.071154,0.527375,0.248455,-0.289931,0.149751
688,2656457808,-0.104202,0.840918,-0.067455,0.526736,0.333617,-0.145497,0.142365
689,2656491142,-0.101772,0.841641,-0.064066,0.526480,0.325273,-0.059502,0.107006
690,2656524476,-0.098832,0.842304,-0.060968,0.526347,0.097596,-0.264379,0.071902
691,2656557810,-0.095635,0.843207,-0.058127,0.525813,-0.273945,-0.324974,-0.011361
692,2656591144,-0.092667,0.844326,-0.055295,0.524853,-0.435981,-0.037436,0.089584
693,2656624478,-0.090203,0.845289,-0.052284,0.524040,-0.243662,-0.304157,0.057155
694,2656657812,-0.087835,0.846408,-0.049674,0.522889,-0.256570,-0.446864,0.000987
695,2656691146,-0.085620,0.847710,-0.047797,0.521319,-0.334690,-0.239188,0.091146
696,2656724480,-0.083109,0.848785,-0.046392,0.520103,-0.288490,-0.162865,0.267133
697,2656757814,-0.080519,0.849419,-0.045384,0.519564,-0.120694,-0.503803,0.319544
698,2656791148,-0.078006,0.849796,-0.044807,0.519381,-0.051503,-0.586648,0.319020
699,2656824482,-0.075133,0.849869,-0.044966,0.519670,-0.032223,-0.470498,0.249559
700,2656857816,-0.071770,0.849519,-0.045873,0.520638,-0.018550,-0.245892,0.146037
701,2656891150,-0.068235,0.848874,-0.047038,0.522060,-0.101436,-0.230269,0.223771
702,2656924484,-0.065157,0.848068,-0.047907,0.523681,-0.195367,-0.198116,0.047669
703,2656957818,-0.062137,0.847548,-0.048911,0.524795,-0.417592,0.026553,0.137575
704,2656991152,-0.060223,0.847352,-0.049386,0.525290,-0.376087,0.310840,-0.023794
705,2657024486,-0.059091,0.847320,-0.048932,0.525513,-0.233985,0.175103,-0.019209
706,2657057820,-0.058488,0.847514,-0.047659,0.525385,-0.061485,-0.098989,0.201919
707,2657091154,-0.058613,0.847782,-0.045680,0.525115,0.112399,-0.433244,0.363931
708,2657124488,-0.058792,0.847998,-0.043923,0.524895,0.182144,-0.543285,0.239826
709,2657157822,-0.059044,0.848132,-0.042602,0.524760,0.174641,-0.412352,0.229408
710,2657191156,-0.059356,0.847922,-0.041623,0.525141,0.190506,-0.339339,0.192990
711,2657224490,-0.059532,0.847596,-0.041089,0.525690,0.054238,-0.268495,0.104803
712,2657257824,-0.059442,0.847406,-0.040920,0.526019,-0.055409,-0.090924,0.092463
713,2657291158,-0.059666,0.847306,-0.040647,0.526177,-0.083302,0.052876,0.048788
714,2657324492,-0.059996,0.847190,-0.040136,0.526365,-0.061902,-0.031141,0.013568
715,2657357826,-0.060150,0.847226,-0.039869,0.526310,-0.081143,-0.048251,0.068419
716,2657391160,-0.060290,0.847360,-0.039981,0.526069,-0.054654,-0.104417,0.082959
717,2657424494,-0.060402,0.847424,-0.040280,0.525931,0.106613,-0.186480,0.093185
718,2657457828,-0.060556,0.847495,-0.040757,0.525763,0.225750,-0.158794,0.093225
719,2657491162,-0.060664,0.847637,-0.041565,0.525458,0.104764,-0.095384,0.189006
720,2657524496,-0.060714,0.847631,-0.042581,0.525380,0.018974,-0.061145,0.120130
721,2657557830,-0.060448,0.847455,-0.043801,0.525594,-0.035644,-0.114643,0.027638
722,2657591164,-0.059923,0.847387,-0.045375,0.525630,-0.286054,-0.149559,0.128685
723,2657624498,-0.059597,0.847395,-0.047164,0.525497,-0.407426,0.008403,0.138584
724,2657657832,-0.059603,0.847344,-0.048905,0.525419,-0.314188,0.102964,0.107506
725,2657691166,-0.059683,0.847182,-0.050542,0.525517,-0.183807,-0.095898,0.120922
726,2657724500,-0.059984,0.847061,-0.051895,0.525545,-0.094307,-0.172443,0.169962
727,2657757834,-0.060584,0.846892,-0.052929,0.525646,0.006290,-0.138587,0.173123
728,2657791168,-0.061127,0.846587,-0.054153,0.525950,0.013211,-0.045321,0.085214
729,2657824502,-0.061143,0.846194,-0.055720,0.526417,-0.082167,0.015490,0.136257
730,2657857836,-0.061542,0.845801,-0.056790,0.526887,-0.067425,0.098636,0.059656
731,2657891170,-0.062104,0.845460,-0.057578,0.527283,-0.036261,0.103439,0.019744
732,2657924504,-0.062476,0.845143,-0.058531,0.527642,-0.096924,-0.078383,0.079805
733,2657957838,-0.062954,0.844915,-0.059683,0.527821,-0.169303,-0.153544,0.070150
734,2657991172,-0.063288,0.844753,-0.061178,0.527870,-0.203645,-0.219375,0.181548
735,2658024506,-0.064105,0.844509,-0.062726,0.527979,-0.076544,-0.345718,0.181071
736,2658057840,-0.064676,0.844121,-0.064625,0.528301,0.015878,-0.398844,0.255127
737,2658091174,-0.065327,0.843603,-0.066797,0.528777,0.091907,-0.404873,0.198988
738,2658124508,-0.065929,0.842925,-0.069059,0.529493,0.081326,-0.381305,0.169016
739,2658157842,-0.066639,0.842252,-0.071424,0.530161,-0.059594,-0.342142,0.121832
740,2658191176,-0.067796,0.841609,-0.073675,0.530728,-0.035789,-0.084271,0.114032
741,2658224510,-0.069474,0.840948,-0.075602,0.531287,0.005952,-0.133961,0.011878
742,2658257844,-0.071213,0.840596,-0.077348,0.531362,-0.011971,-0.148384,-0.019658
743,2658291178,-0.073164,0.840483,-0.078987,0.531034,-0.046024,0.063392,0.013329
744,2658324512,-0.075130,0.840413,-0.080653,0.530620,0.062074,0.153294,0.029767
745,2658357846,-0.076554,0.840360,-0.082593,0.530203,0.192960,-0.053764,0.012836
746,2658391180,-0.077526,0.840267,-0.084643,0.529885,0.294820,-0.021234,0.095411
747,2658424514,-0.078170,0.840078,-0.086864,0.529732,0.186621,0.372191,0.200915
748,2658457848,-0.078442,0.839721,-0.089106,0.529884,0.056531,0.353267,0.145909
749,2658491182,-0.079021,0.839405,-0.090485,0.530065,-0.012260,0.123997,0.143340
750,2658524516,-0.079871,0.839315,-0.091032,0.529987,-0.046173,0.286411,0.112906
751,2658557850,-0.080870,0.839215,-0.091169,0.529970,-0.001767,0.291131,0.070606
752,2658591184,-0.081767,0.839054,-0.091178,0.530085,-0.229671,0.176598,0.144999
753,2658624518,-0.082978,0.838937,-0.090589,0.530183,-0.351394,0.109232,0.095933
754,2658657852,-0.084222,0.838835,-0.089748,0.530292,-0.340267,-0.059747,-0.000623
755,2658691186,-0.084837,0.838731,-0.089917,0.530329,-0.286008,-0.046695,0.020534
756,2658724520,-0.084903,0.838467,-0.090943,0.530561,-0.261258,0.039835,0.080670
757,2658757854,-0.084724,0.838128,-0.092223,0.530904,-0.161987,0.027048,0.106369
758,2658791188,-0.084700,0.837912,-0.093046,0.531106,-0.014522,0.095739,0.146793
759,2658824522,-0.084848,0.837667,-0.093300,0.531424,0.153687,-0.021100,0.122176
760,2658857856,-0.085381,0.837392,-0.092803,0.531859,0.203611,-0.059506,0.160775
761,2658891190,-0.086311,0.836979,-0.091779,0.532537,0.187895,0.053173,0.218544
762,2658924524,-0.087747,0.836521,-0.089873,0.533346,0.054400,-0.188954,0.179313
763,2658957858,-0.089258,0.836080,-0.087740,0.534141,-0.006068,-0.348221,0.091498
764,2658991192,-0.090593,0.835646,-0.086139,0.534856,0.030082,-0.220624,0.118113
765,2659024526,-0.091495,0.834996,-0.085704,0.535786,0.005675,-0.251057,0.085097
766,2659057860,-0.091749,0.834261,-0.086469,0.536764,0.100435,-0.273009,0.112011
767,2659091194,-0.091801,0.833540,-0.087391,0.537726,-0.009056,-0.393090,0.136340
768,2659124528,-0.091984,0.832816,-0.088523,0.538630,-0.020968,-0.349385,0.066855
769,2659157862,-0.091532,0.832020,-0.090798,0.539557,-0.061671,-0.122640,0.009610
770,2659191196,-0.090418,0.831144,-0.094071,0.540533,-0.084667,-0.029668,0.108878
771,2659224530,-0.089058,0.830262,-0.097871,0.541439,-0.090805,-0.032837,0.042001
772,2659257864,-0.087708,0.829373,-0.101813,0.542295,-0.085343,0.093965,0.143284
773,2659291198,-0.086192,0.828357,-0.105901,0.543307,0.026004,-0.013872,0.106787
774,2659324532,-0.084456,0.827240,-0.110296,0.544406,0.007107,-0.091588,0.142256
775,2659357866,-0.082645,0.825909,-0.114938,0.545743,-0.049516,-0.138810,0.118611
776,2659391200,-0.080517,0.824511,-0.119995,0.547085,-0.160933,-0.184012,0.133981
777,2659424534,-0.078314,0.822940,-0.125322,0.548573,-0.254147,-0.197921,0.042807
778,2659457868,-0.076081,0.821285,-0.131026,0.550033,-0.255533,-0.164967,0.042039
779,2659491202,-0.073479,0.819508,-0.137396,0.551482,-0.227458,-0.575404,0.098422
780,2659524536,-0.069263,0.817465,-0.145918,0.552868,-0.081181,-0.732465,-0.105377
781,2659557870,-0.063390,0.815187,-0.156709,0.553982,-0.012269,0.025918,0.166137
782,2659591204,-0.058015,0.812612,-0.166914,0.555371,0.197901,0.185899,0.204467
783,2659624538,-0.053977,0.810476,-0.175095,0.556380,0.066161,0.260052,0.133441
784,2659657872,-0.051315,0.808839,-0.181050,0.557108,-0.086688,0.125911,0.072491
785,2659691206,-0.049287,0.807654,-0.185762,0.557459,0.003101,0.404467,0.022873
786,2659724540,-0.049115,0.806648,-0.188580,0.557984,0.443580,0.592777,0.194468
787,2659757874,-0.049038,0.806031,-0.191291,0.557959,0.185193,0.065164,-0.025949
788,2659791208,-0.049175,0.805769,-0.193715,0.557490,0.131476,0.265467,0.127737
789,2659824542,-0.050269,0.805693,-0.194738,0.557146,0.285713,0.326294,0.194663
790,2659857876,-0.051931,0.805945,-0.194646,0.556660,0.213054,0.287529,0.189965
791,2659891210,-0.053712,0.806279,-0.194188,0.556167,0.069440,0.182438,0.068569
792,2659924544,-0.055296,0.806726,-0.193812,0.555494,0.134815,0.297726,0.047044
793,2659957878,-0.057052,0.807430,-0.192784,0.554651,0.227941,0.401732,0.119474
794,2659991212,-0.059379,0.808416,-0.190557,0.553739,0.386994,0.493656,0.187161
795,2660024546,-0.062342,0.809843,-0.186848,0.552592,0.437143,0.521279,0.140937
796,2660057880,-0.065910,0.811797,-0.181536,0.551079,0.292728,0.446137,0.066523
797,2660091214,-0.069970,0.814213,-0.174811,0.549185,0.395503,0.564864,0.065630
798,2660124548,-0.074635,0.817015,-0.166829,0.546888,0.578584,0.641187,0.185644
799,2660157882,-0.079783,0.819906,-0.157823,0.544503,0.503386,0.414740,0.244369
800,2660191216,-0.084953,0.822690,-0.148316,0.542189,0.135541,0.078598,0.115453
801,2660224550,-0.089669,0.825371,-0.138927,0.539836,-0.154003,0.007501,0.084261
802,2660257884,-0.093492,0.827881,-0.130258,0.537501,-0.188889,0.027139,0.066043
803,2660291218,-0.096747,0.830175,-0.122286,0.535254,-0.177996,0.133396,0.112036
804,2660324552,-0.099493,0.832255,-0.114698,0.533196,-0.191672,0.121323,0.133450
805,2660357886,-0.102000,0.834156,-0.107135,0.531321,-0.249273,0.026910,0.056385
806,2660391220,-0.104230,0.835845,-0.099689,0.529682,-0.296524,-0.018874,0.076691
807,2660424554,-0.105841,0.837369,-0.092852,0.528196,-0.206968,0.045718,0.096752
808,2660457888,-0.107108,0.838536,-0.086739,0.527127,-0.149752,-0.012438,0.105955
809,2660491222,-0.108014,0.839196,-0.081496,0.526729,-0.020946,-0.069342,0.145567
810,2660524556,-0.107981,0.839566,-0.077078,0.526811,0.022834,-0.107272,0.115136
811,2660557890,-0.107516,0.839792,-0.072974,0.527130,0.052264,-0.041226,0.128487
812,2660591224,-0.106278,0.839814,-0.069586,0.527804,0.040858,-0.112631,0.106871
813,2660624558,-0.103880,0.839756,-0.067405,0.528656,-0.009408,-0.180186,0.048813
814,2660657892,-0.100608,0.839733,-0.066071,0.529494,-0.090123,-0.068460,0.000558
815,2660691226,-0.097097,0.839870,-0.065213,0.530038,-0.266624,-0.104478,0.062836
816,2660724560,-0.093559,0.840126,-0.064568,0.530347,-0.312818,-0.015453,0.048148
817,2660757894,-0.090309,0.840438,-0.063542,0.530539,-0.308253,-0.107331,0.054624
818,2660791228,-0.087495,0.840915,-0.062265,0.530407,-0.280433,-0.210855,0.108035
819,2660824562,-0.085480,0.841295,-0.060810,0.530301,-0.230540,-0.241257,0.082519
820,2660857896,-0.083421,0.841664,-0.059790,0.530160,-0.064933,-0.351458,0.016062
821,2660891230,-0.081196,0.842141,-0.059083,0.529827,-0.088582,-0.375053,0.125422
822,2660924564,-0.079660,0.842599,-0.057838,0.529470,-0.085889,-0.188255,0.178511
823,2660957898,-0.078235,0.842873,-0.056438,0.529398,0.040444,-0.124037,0.148413
824,2660991232,-0.076761,0.843068,-0.055036,0.529450,0.052139,-0.289316,0.212193
825,2661024566,-0.075408,0.843076,-0.053731,0.529766,0.079557,-0.401089,0.160293
826,2661057900,-0.073652,0.842923,-0.052938,0.530335,0.096196,-0.415496,0.208562
827,2661091234,-0.071738,0.842587,-0.052673,0.531158,0.026934,-0.327174,0.162316
828,2661124568,-0.069556,0.842031,-0.052859,0.532310,-0.026859,-0.325429,0.178397
829,2661157902,-0.067495,0.841393,-0.053357,0.533533,-0.135348,-0.290039,0.089481
830,2661191236,-0.065349,0.840874,-0.054534,0.534498,-0.309965,-0.137847,0.056113
831,2661224570,-0.063499,0.840434,-0.055746,0.535288,-0.297123,0.055709,0.050117
832,2661257904,-0.062318,0.840189,-0.056453,0.535737,-0.158949,0.133550,0.022246
833,2661291238,-0.061518,0.840127,-0.056700,0.535900,-0.017735,0.050327,0.103019
834,2661324572,-0.060837,0.840124,-0.056814,0.535971,0.120940,-0.083907,0.109865
835,2661357906,-0.060104,0.840165,-0.056976,0.535971,0.145892,-0.176895,0.160501
836,2661391240,-0.059511,0.840236,-0.057151,0.535908,0.215471,-0.174827,0.128462
837,2661424574,-0.058985,0.840356,-0.057335,0.535758,0.153318,-0.143182,0.125763
838,2661457908,-0.058690,0.840532,-0.057263,0.535523,0.026963,-0.208570,0.146648
839,2661491242,-0.058997,0.840914,-0.056555,0.534964,-0.023973,-0.056070,0.072493
840,2661524576,-0.059993,0.841407,-0.055111,0.534227,0.022670,-0.059936,0.086837
841,2661557910,-0.061349,0.841997,-0.053176,0.533339,0.074212,-0.117765,0.137937
842,2661591244,-0.063029,0.842599,-0.050924,0.532413,0.070064,-0.176724,0.154394
843,2661624578,-0.064744,0.843087,-0.048714,0.531640,0.130923,-0.208781,0.128757
844,2661657912,-0.066457,0.843568,-0.046775,0.530840,0.119512,-0.114392,0.129194
845,2661691246,-0.068066,0.843950,-0.045036,0.530179,0.113394,-0.190612,0.099310
846,2661724580,-0.069248,0.844217,-0.043813,0.529702,0.044758,-0.187750,0.133442
847,2661757914,-0.070159,0.844360,-0.043242,0.529401,-0.017739,-0.163872,0.128512
848,2661791248,-0.070771,0.844350,-0.043136,0.529345,-0.064114,-0.187170,0.098738
849,2661824582,-0.071088,0.844348,-0.043353,0.529288,-0.198266,-0.042810,0.093572
850,2661857916,-0.071239,0.844258,-0.043912,0.529365,-0.283288,0.040802,0.070214
851,2661891250,-0.071163,0.844170,-0.044775,0.529444,-0.352326,0.028770,0.044306
852,2661924584,-0.071174,0.844111,-0.045654,0.529460,-0.287147,0.063082,0.027467
853,2661957918,-0.071156,0.844094,-0.046512,0.529415,-0.115870,0.049904,0.097857
854,2661991252,-0.071117,0.844017,-0.047297,0.529473,0.022999,-0.019430,0.132558
855,2662024586,-0.071005,0.843859,-0.047996,0.529678,0.058339,-0.117392,0.151021
856,2662057920,-0.070542,0.843714,-0.048934,0.529884,0.006883,-0.000641,0.146434
857,2662091254,-0.070027,0.843441,-0.049745,0.530311,-0.010923,0.108948,0.092102
858,2662124588,-0.069343,0.843057,-0.050383,0.530951,0.030237,0.024413,0.108113
859,2662157922,-0.068606,0.842743,-0.050951,0.531491,-0.021003,0.009408,0.111887
860,2662191256,-0.067803,0.842383,-0.051607,0.532102,-0.022989,0.042377,0.086717
861,2662224590,-0.066635,0.841903,-0.052374,0.532934,0.047734,-0.059841,0.152366
862,2662257924,-0.065532,0.841414,-0.052948,0.533785,0.032721,-0.141082,0.126074
863,2662291258,-0.064501,0.840940,-0.053461,0.534606,0.019504,-0.134042,0.118349
864,2662324592,-0.063663,0.840424,-0.053840,0.535479,0.026845,-0.063399,0.070765
865,2662357926,-0.062925,0.839988,-0.054125,0.536221,0.018819,-0.095939,0.061331
866,2662391260,-0.062206,0.839679,-0.054445,0.536755,-0.034424,-0.147583,0.098763
867,2662424594,-0.062004,0.839519,-0.054470,0.537027,-0.007869,-0.168863,0.062512
868,2662457928,-0.062009,0.839458,-0.054510,0.537118,0.084712,-0.195611,0.089603
869,2662491262,-0.062177,0.839447,-0.054783,0.537088,0.084843,-0.240972,0.146319
870,2662524596,-0.062692,0.839416,-0.055197,0.537034,0.074980,-0.277467,0.146765
871,2662557930,-0.063097,0.839385,-0.056076,0.536944,0.028435,-0.303516,0.120954
872,2662591264,-0.063293,0.839353,-0.057508,0.536820,-0.072082,-0.238738,0.100457
873,2662624598,-0.063477,0.839203,-0.059397,0.536827,-0.050724,-0.137867,0.095816
874,2662657932,-0.063638,0.838993,-0.061519,0.536897,-0.035000,-0.126246,0.140301
875,2662691266,-0.063551,0.838785,-0.063895,0.536955,0.036932,-0.151774,0.071364
876,2662724600,-0.063288,0.838562,-0.066392,0.537031,0.004723,-0.066995,0.104001
877,2662757934,-0.062977,0.838291,-0.068960,0.537167,-0.027893,0.117967,0.136713
878,2662791268,-0.062702,0.837922,-0.071320,0.537466,-0.116047,0.051893,0.090978
879,2662824602,-0.062444,0.837540,-0.073394,0.537813,-0.232198,-0.061826,0.128099
880,2662857936,-0.062407,0.837138,-0.075199,0.538193,-0.227456,-0.067321,0.062062
881,2662891270,-0.062179,0.836696,-0.077327,0.538605,-0.222831,-0.065129,0.081750
882,2662924604,-0.061723,0.836247,-0.079873,0.538984,-0.190590,-0.091090,0.083671
883,2662957938,-0.061341,0.835890,-0.082576,0.539174,-0.146084,-0.032741,0.026131
884,2662991272,-0.061181,0.835635,-0.085123,0.539191,-0.083152,0.107719,0.072874
885,2663024606,-0.061235,0.835441,-0.087436,0.539116,0.093973,0.109776,0.165423
886,2663057940,-0.061699,0.835233,-0.089440,0.539057,0.175418,-0.099640,0.174208
887,2663091274,-0.062028,0.834853,-0.091403,0.539277,0.349153,-0.318296,0.208697
888,2663124608,-0.062207,0.834345,-0.093209,0.539734,0.248695,-0.416440,0.251926
889,2663157942,-0.062852,0.833772,-0.094389,0.540340,0.074084,-0.374105,0.226190
890,2663191276,-0.063552,0.833127,-0.095822,0.540999,-0.072331,-0.272218,0.082517
891,2663224610,-0.063855,0.832393,-0.097967,0.541709,-0.262442,-0.146777,0.059294
892,2663257944,-0.064934,0.831722,-0.099616,0.542310,-0.379192,-0.044325,0.042307
893,2663291278,-0.066997,0.831317,-0.100310,0.542553,-0.364979,-0.161945,0.164604
894,2663324612,-0.069923,0.830997,-0.100402,0.542657,-0.190113,-0.082184,0.100291
895,2663357946,-0.072942,0.830547,-0.100236,0.542978,-0.176658,-0.102757,0.209636
896,2663391280,-0.076911,0.829942,-0.099223,0.543542,-0.136698,-0.269631,0.276542
897,2663424614,-0.080870,0.829123,-0.098352,0.544375,0.076640,-0.799546,0.096704
898,2663457948,-0.083554,0.828207,-0.099507,0.545153,-0.165307,-0.773708,0.084210
899,2663491282,-0.084789,0.826689,-0.102886,0.546637,-0.222059,-0.232427,0.027737
900,2663524616,-0.085670,0.825065,-0.106876,0.548186,-0.234220,0.097746,0.029267
901,2663557950,-0.086776,0.823696,-0.110819,0.549287,-0.269036,0.203048,0.008034
902,2663591284,-0.087776,0.822329,-0.114857,0.550345,-0.256682,0.290687,0.080847
903,2663624618,-0.088617,0.820611,-0.119165,0.551857,-0.137697,-0.115642,-0.041450
904,2663657952,-0.088141,0.818843,-0.125127,0.553238,-0.173120,-0.370518,-0.039651
905,2663691286,-0.085514,0.816602,-0.133916,0.554903,-0.058801,-0.482000,-0.125614
906,2663724620,-0.080140,0.813734,-0.146155,0.556825,0.364454,0.083882,0.086931
907,2663757954,-0.073071,0.810421,-0.160490,0.558680,0.442840,0.044507,0.200526
908,2663791288,-0.065524,0.807059,-0.174742,0.560205,0.080043,0.058974,0.217154
909,2663824622,-0.059058,0.803842,-0.186899,0.561624,-0.127499,0.373146,0.183140
910,2663857956,-0.054070,0.800777,-0.196661,0.563168,0.192388,0.638250,0.032591
911,2663891290,-0.050380,0.798514,-0.204814,0.563817,0.091838,0.626110,0.052352
912,2663924624,-0.047779,0.796574,-0.211499,0.564320,0.103157,0.338994,0.038685
913,2663957958,-0.045656,0.795069,-0.217182,0.564459,0.266259,0.277763,0.043486
914,2663991292,-0.044217,0.794141,-0.221738,0.564109,0.468791,0.263903,0.188672
915,2664024626,-0.043464,0.793664,-0.225099,0.563507,0.518961,0.259665,0.165836
916,2664057960,-0.043512,0.793399,-0.227345,0.562975,0.407317,0.329544,0.260212
917,2664091294,-0.044103,0.793355,-0.228541,0.562506,0.134551,0.101009,0.095368
918,2664124628,-0.044861,0.793503,-0.229393,0.561890,0.010934,0.119834,0.091576
919,2664157962,-0.045897,0.793685,-0.229684,0.561432,0.129678,0.175824,0.128100
920,2664191296,-0.047549,0.794174,-0.229142,0.560823,0.115341,0.365198,0.122686
921,2664224630,-0.049717,0.794977,-0.227655,0.560103,-0.007847,0.307930,0.059294
922,2664257964,-0.052223,0.796263,-0.225348,0.558980,0.072185,0.348857,0.088833
923,2664291298,-0.055399,0.798003,-0.221694,0.557652,0.332032,0.463904,0.101961
924,2664324632,-0.059343,0.800246,-0.216569,0.556043,0.448836,0.421675,0.108986
925,2664357966,-0.063639,0.802932,-0.210619,0.553978,0.366571,0.398059,0.178340
926,2664391300,-0.068243,0.805761,-0.203661,0.551920,0.385408,0.198589,0.186481
927,2664424634,-0.072992,0.808724,-0.195857,0.549800,0.276621,0.139515,0.195348
928,2664457968,-0.077773,0.811720,-0.187313,0.547703,0.143723,0.354401,0.187656
929,2664491302,-0.082842,0.814716,-0.177962,0.545624,0.115986,0.459468,0.161720
930,2664524636,-0.087974,0.817611,-0.168257,0.543566,0.027911,0.324575,0.147427
931,2664557970,-0.092884,0.820304,-0.158377,0.541657,-0.069856,0.133838,0.139570
932,2664591304,-0.097320,0.822718,-0.148584,0.539989,-0.067939,0.111933,0.184209
933,2664624638,-0.100833,0.824709,-0.139629,0.538696,-0.147926,-0.087289,0.125671
934,2664657972,-0.102550,0.826141,-0.132875,0.537885,-0.270763,-0.180112,0.075445
935,2664691306,-0.102879,0.827105,-0.127749,0.537582,-0.252622,-0.018305,0.130473
936,2664724640,-0.102639,0.827945,-0.123056,0.537430,-0.349818,0.073578,0.049515
937,2664757974,-0.102529,0.828806,-0.118179,0.537219,-0.470488,0.147871,-0.013300
938,2664791308,-0.102791,0.829736,-0.112895,0.536869,-0.404482,0.269051,-0.010795
939,2664824642,-0.103543,0.830871,-0.107143,0.536148,-0.238040,0.375538,-0.039250
940,2664857976,-0.105248,0.832264,-0.100438,0.534952,-0.101186,0.287540,0.108503
941,2664891310,-0.107068,0.833838,-0.093429,0.533407,-0.048258,-0.038075,-0.024191
942,2664924644,-0.108712,0.835565,-0.086737,0.531499,0.103593,0.132995,0.023225
943,2664957978,-0.109984,0.837269,-0.080389,0.529551,0.328035,0.218332,0.100260
944,2664991312,-0.110692,0.838929,-0.074451,0.527641,0.492800,0.115858,0.074707
945,2665024646,-0.110707,0.840616,-0.068930,0.525698,0.432491,0.000009,0.156946
946,2665057980,-0.110173,0.842093,-0.063409,0.524139,0.348128,-0.065496,0.158126
947,2665091314,-0.109671,0.843392,-0.057657,0.522818,0.173286,-0.223507,0.110994
948,2665124648,-0.108409,0.844568,-0.052775,0.521698,-0.056217,-0.271753,0.059932
949,2665157982,-0.106135,0.845622,-0.048983,0.520827,-0.212616,-0.235243,0.088404
950,2665191316,-0.103497,0.846550,-0.045727,0.520146,-0.293163,-0.260645,0.150217
951,2665224650,-0.100993,0.847173,-0.042874,0.519867,-0.358495,-0.523042,0.105908
952,2665257984,-0.098331,0.847679,-0.040691,0.519728,-0.337554,-0.419433,0.121968
953,2665291318,-0.095350,0.847901,-0.039261,0.520031,-0.358211,-0.515449,0.166188
954,2665324652,-0.091681,0.847757,-0.038915,0.520952,-0.354249,-0.494896,0.163191
955,2665357986,-0.087589,0.847414,-0.039533,0.522165,-0.344947,-0.311265,0.081741
956,2665391320,-0.083517,0.846900,-0.040765,0.523570,-0.288089,-0.266754,0.152792
957,2665424654,-0.079686,0.846162,-0.042135,0.525249,-0.111304,-0.295314,0.113240
958,2665457988,-0.076163,0.845528,-0.043503,0.526678,-0.114105,-0.294726,0.090383
959,2665491322,-0.073219,0.845035,-0.044759,0.527782,-0.024053,-0.077491,0.124299
960,2665524656,-0.070670,0.844511,-0.045915,0.528867,0.072245,-0.102479,0.123816
961,2665557990,-0.068239,0.844035,-0.046850,0.529863,0.127145,-0.173255,0.126127
962,2665591324,-0.065788,0.843705,-0.047771,0.530616,0.072668,-0.285430,0.183034
963,2665624658,-0.063592,0.843391,-0.048661,0.531301,-0.014306,-0.172338,0.178206
964,2665657992,-0.061518,0.842879,-0.049599,0.532271,0.016657,-0.178127,0.171048
965,2665691326,-0.059628,0.842285,-0.050605,0.533331,0.013821,-0.233067,0.108415
966,2665724660,-0.058005,0.841866,-0.051559,0.534079,-0.071505,-0.229150,0.092279
967,2665757994,-0.057229,0.841645,-0.051959,0.534472,-0.054446,-0.083683,0.100868
968,2665791328,-0.056984,0.841395,-0.051839,0.534904,0.050617,-0.192799,0.099373
969,2665824662,-0.057120,0.841249,-0.051352,0.535165,0.144254,-0.212971,0.089050
970,2665857996,-0.057916,0.841349,-0.050685,0.534986,0.051353,-0.300753,0.175920
971,2665891330,-0.059171,0.841595,-0.050267,0.534501,-0.044527,-0.223448,0.133473
972,2665924664,-0.060441,0.841763,-0.050048,0.534115,0.036287,-0.184381,0.134614
973,2665957998,-0.061950,0.841948,-0.049654,0.533686,0.092340,-0.260433,0.209635
974,2665991332,-0.063681,0.842134,-0.049282,0.533225,0.103584,-0.248692,0.157808
975,2666024666,-0.065088,0.842270,-0.049539,0.532816,0.037280,-0.204210,0.116718
976,2666058000,-0.066187,0.842273,-0.050392,0.532595,-0.027654,-0.165004,0.099165
977,2666091334,-0.067231,0.842216,-0.051359,0.532463,-0.136214,-0.150201,0.089083
978,2666124668,-0.068549,0.842170,-0.052086,0.532297,-0.134931,0.042788,0.099315
979,2666158002,-0.069772,0.841997,-0.052946,0.532326,-0.060359,0.014848,0.073137
980,2666191336,-0.070742,0.841880,-0.054020,0.532276,-0.089136,-0.026640,0.077206
981,2666224670,-0.071616,0.841861,-0.055071,0.532080,-0.013137,0.147170,0.138593
982,2666258004,-0.072461,0.841699,-0.055882,0.532139,0.104449,0.050759,0.096880
983,2666291338,-0.072966,0.841575,-0.056728,0.532176,0.069949,-0.005346,0.096344
984,2666324672,-0.073389,0.841565,-0.057815,0.532017,-0.082160,0.217460,0.057743
985,2666358006,-0.073611,0.841313,-0.058991,0.532255,-0.103640,0.041564,0.103904
986,2666391340,-0.073612,0.840979,-0.060056,0.532664,-0.069386,-0.252189,0.134639
987,2666424674,-0.073726,0.840750,-0.061290,0.532868,-0.185981,-0.236496,0.080510
988,2666458008,-0.073500,0.840487,-0.063259,0.533086,-0.313192,0.053024,0.072927
989,2666491342,-0.073242,0.840021,-0.065457,0.533589,-0.302733,0.001723,0.091553
990,2666524676,-0.073050,0.839617,-0.067563,0.533988,-0.184083,-0.007570,0.009929
991,2666558010,-0.073258,0.839397,-0.069311,0.534081,-0.184503,0.065533,0.077632
992,2666591344,-0.073821,0.839153,-0.070734,0.534201,-0.064180,0.037040,0.107788
993,2666624678,-0.074290,0.838902,-0.072128,0.534345,-0.002396,-0.148434,0.051985
994,2666658012,-0.075023,0.838884,-0.073420,0.534094,-0.093488,-0.046991,0.077204
995,2666691346,-0.075960,0.838861,-0.074572,0.533839,-0.039082,-0.001468,0.088472
996,2666724680,-0.077056,0.838834,-0.075212,0.533633,0.087315,-0.045043,0.123481
997,2666758014,-0.078293,0.838766,-0.075586,0.533507,0.262187,-0.272757,0.247950
998,2666791348,-0.079396,0.838455,-0.076108,0.533759,0.477625,-0.393084,0.265681
999,2666824682,-0.080176,0.837836,-0.076861,0.534505,0.574763,-0.446385,0.177647
1000,2666858016,-0.080678,0.837264,-0.077948,0.535169,0.133524,-0.318703,0.160450
1001,2666891350,-0.081161,0.836645,-0.079121,0.535891,-0.169015,-0.025041,0.088795
1002,2666924684,-0.082086,0.835894,-0.079926,0.536803,-0.283841,-0.022443,0.081711
1003,2666958018,-0.083175,0.835237,-0.080688,0.537543,-0.297558,-0.159294,0.087389
1004,2666991352,-0.084559,0.834652,-0.081372,0.538131,-0.361512,-0.144513,0.063007
1005,2667024686,-0.085841,0.833923,-0.082374,0.538906,-0.236170,0.065014,0.110559
1006,2667058020,-0.086831,0.832968,-0.083859,0.539995,-0.081915,0.026987,0.127016
1007,2667091354,-0.087567,0.831983,-0.085340,0.541161,-0.116258,-0.171615,0.139099
1008,2667124688,-0.088209,0.830831,-0.086776,0.542596,-0.106891,-0.220691,0.133015
1009,2667158022,-0.087971,0.829400,-0.089020,0.544458,-0.009180,-0.202235,0.128123
1010,2667191356,-0.087071,0.827585,-0.092176,0.546833,-0.057872,-0.184287,0.115691
1011,2667224690,-0.085847,0.825608,-0.095744,0.549396,-0.043048,-0.281948,0.087255
1012,2667258024,-0.084395,0.823540,-0.099716,0.552013,-0.239832,-0.309764,0.098633
1013,2667291358,-0.082313,0.821289,-0.104741,0.554743,-0.290178,-0.201768,-0.093241
1014,2667324692,-0.080027,0.819141,-0.110820,0.557068,-0.405922,-0.138854,-0.055244
1015,2667358026,-0.077797,0.817211,-0.117619,0.558822,-0.533386,0.007156,0.058126
1016,2667391360,-0.075768,0.815437,-0.124319,0.560240,-0.338430,-0.019461,0.092646
1017,2667424694,-0.074664,0.813702,-0.130109,0.561593,-0.122239,-0.264966,0.061426
1018,2667458028,-0.073697,0.811979,-0.136036,0.562810,0.039002,-0.352766,0.103305
1019,2667491362,-0.071582,0.809873,-0.143420,0.564282,0.314347,-0.470362,0.112349
1020,2667524696,-0.068360,0.807340,-0.152471,0.565936,0.301861,-0.218494,0.041435
1021,2667558030,-0.064555,0.804547,-0.162597,0.567540,0.171894,-0.267546,0.111600
1022,2667591364,-0.059950,0.801574,-0.173630,0.568981,0.067066,-0.211751,0.141541
1023,2667624698,-0.055121,0.798654,-0.184671,0.570098,0.042169,-0.250024,0.050147
1024,2667658032,-0.049534,0.795821,-0.196075,0.570764,0.257390,0.189182,0.055098
1025,2667691366,-0.045411,0.793252,-0.206047,0.571169,0.578000,1.115344,0.193264
1026,2667724700,-0.043364,0.791381,-0.212979,0.571382,0.562603,0.578352,0.060071
1027,2667758034,-0.042190,0.790490,-0.218007,0.570807,0.201982,0.372007,0.080580
1028,2667791368,-0.042318,0.789920,-0.221211,0.570353,0.295528,0.366576,0.058318
1029,2667824702,-0.042909,0.789880,-0.223511,0.569467,0.364482,0.520641,0.116965
1030,2667858036,-0.044174,0.790323,-0.224295,0.568446,0.265427,0.469329,0.105010
1031,2667891370,-0.046358,0.791224,-0.223561,0.567307,0.231724,0.413071,0.053625
1032,2667924704,-0.048992,0.792590,-0.221838,0.565854,0.341697,0.641758,0.107642
1033,2667958038,-0.052092,0.794334,-0.219065,0.564209,0.437998,0.620351,0.098282
1034,2667991372,-0.055520,0.796489,-0.215239,0.562313,0.298554,0.472182,0.122545
1035,2668024706,-0.059575,0.799089,-0.209898,0.560225,0.278628,0.480927,0.141705
1036,2668058040,-0.064263,0.802039,-0.202988,0.558033,0.390112,0.446664,0.145489
1037,2668091374,-0.069370,0.805264,-0.194943,0.555640,0.224234,0.483022,0.069456
1038,2668124708,-0.074714,0.808825,-0.185957,0.552849,0.046694,0.559413,0.027347
1039,2668158042,-0.080472,0.812674,-0.175905,0.549677,0.046308,0.681175,0.125395
1040,2668191376,-0.086775,0.816518,-0.164754,0.546467,0.288701,0.506808,0.171561
1041,2668224710,-0.093090,0.820223,-0.153086,0.543264,0.093440,0.271623,0.168489
1042,2668258044,-0.099370,0.823702,-0.141035,0.540141,-0.175201,0.217473,0.099471
1043,2668291378,-0.105098,0.826995,-0.129299,0.536952,-0.269366,0.168558,0.072288
1044,2668324712,-0.110020,0.829928,-0.118709,0.533878,-0.170857,0.121076,0.132898
1045,2668358046,-0.113866,0.832423,-0.109371,0.531174,-0.074931,-0.303852,0.078864
1046,2668391380,-0.116455,0.834692,-0.101533,0.528603,-0.059387,-0.201792,0.102958
1047,2668424714,-0.118652,0.836722,-0.094168,0.526262,-0.134439,0.144806,0.062542
1048,2668458048,-0.120460,0.838571,-0.087205,0.524104,-0.296459,0.281473,0.058768
1049,2668491382,-0.122046,0.840311,-0.080170,0.522069,-0.320253,0.101343,0.105205
1050,2668524716,-0.124025,0.841958,-0.072251,0.520102,-0.149945,-0.174661,0.117557
1051,2668558050,-0.126030,0.843457,-0.064007,0.518269,-0.000437,-0.133551,0.113055
1052,2668591384,-0.127523,0.844721,-0.056697,0.516692,0.126527,-0.062482,0.114226
1053,2668624718,-0.127573,0.845678,-0.051086,0.515700,0.030732,-0.166134,0.105976
1054,2668658052,-0.126239,0.846566,-0.047005,0.514958,-0.082670,-0.179104,0.022525
1055,2668691386,-0.123967,0.847458,-0.044148,0.514295,-0.178522,0.161771,-0.022552
1056,2668724720,-0.120702,0.848363,-0.041958,0.513764,-0.085039,0.178728,0.111416
1057,2668758054,-0.117328,0.849108,-0.039650,0.513497,0.096220,-0.171648,0.130582
1058,2668791388,-0.113928,0.849718,-0.037525,0.513413,0.115548,-0.431194,0.059712
1059,2668824722,-0.109852,0.850312,-0.036400,0.513399,0.080841,-0.356769,0.109712
1060,2668858056,-0.105510,0.850714,-0.035811,0.513685,-0.037275,-0.332437,0.207677
1061,2668891390,-0.101450,0.850864,-0.035204,0.514296,-0.216533,-0.413136,0.236795
1062,2668924724,-0.098064,0.850884,-0.034163,0.514991,-0.360623,-0.314660,0.106811
1063,2668958058,-0.095476,0.850766,-0.032528,0.515777,-0.422397,-0.356886,0.074933
1064,2668991392,-0.092890,0.850500,-0.030909,0.516785,-0.450521,-0.573287,0.075429
1065,2669024726,-0.089817,0.850239,-0.030644,0.517774,-0.529182,-0.480907,0.131228
1066,2669058060,-0.087127,0.849992,-0.031275,0.518600,-0.440966,-0.155523,0.116193
1067,2669091394,-0.085262,0.849640,-0.031296,0.519485,-0.247525,-0.119368,0.089077
1068,2669124728,-0.084053,0.849431,-0.030762,0.520055,-0.204615,-0.201653,0.171684
1069,2669158062,-0.082730,0.849309,-0.031016,0.520452,-0.086079,-0.316549,0.141434
1070,2669191396,-0.081224,0.849143,-0.031983,0.520900,0.110455,-0.224635,0.015132
1071,2669224730,-0.079455,0.848999,-0.033184,0.521334,0.257634,-0.186914,0.153518
1072,2669258064,-0.077741,0.848737,-0.034314,0.521944,0.403515,-0.084106,0.193028
1073,2669291398,-0.076310,0.848413,-0.035124,0.522628,0.434358,-0.135033,0.206510
1074,2669324732,-0.074561,0.848059,-0.036080,0.523389,0.392781,-0.258228,0.218402
1075,2669358066,-0.072408,0.847711,-0.037516,0.524154,0.283287,-0.223665,0.102190
1076,2669391400,-0.070372,0.847364,-0.039003,0.524883,0.174830,-0.152042,0.048303
1077,2669424734,-0.068783,0.847101,-0.040061,0.525439,0.095821,-0.157740,0.160134
1078,2669458068,-0.068131,0.847043,-0.040167,0.525609,0.070837,-0.243433,0.222334
1079,2669491402,-0.068292,0.847149,-0.039476,0.525470,0.132630,-0.192135,0.163559
1080,2669524736,-0.068957,0.847178,-0.038563,0.525403,0.209742,-0.162979,0.207204
1081,2669558070,-0.070053,0.847094,-0.037320,0.525484,0.132527,-0.322630,0.232795
1082,2669591404,-0.071570,0.847127,-0.035749,0.525336,0.029755,-0.289305,0.045431
1083,2669624738,-0.072917,0.847298,-0.034472,0.524960,-0.191492,-0.034771,0.043919
1084,2669658072,-0.074418,0.847358,-0.033566,0.524710,-0.234633,0.042180,0.032248
1085,2669691406,-0.075583,0.847457,-0.033176,0.524409,-0.327764,-0.049972,0.024544
1086,2669724740,-0.076474,0.847748,-0.033231,0.523806,-0.382809,-0.108032,0.014725
1087,2669758074,-0.077415,0.848148,-0.033603,0.522995,-0.281175,-0.005220,0.073531
1088,2669791408,-0.078238,0.848549,-0.034309,0.522176,-0.159573,0.045731,0.058823
1089,2669824742,-0.078965,0.849036,-0.035171,0.521218,-0.142743,0.004420,0.090219
1090,2669858076,-0.079810,0.849536,-0.035895,0.520223,-0.061192,-0.015627,0.114514
1091,2669891410,-0.080500,0.849881,-0.036681,0.519498,0.002627,-0.007757,0.160278
1092,2669924744,-0.080607,0.849960,-0.037800,0.519272,0.075411,-0.091802,0.154943
1093,2669958078,-0.080064,0.849827,-0.039542,0.519444,-0.051174,-0.193995,0.214823
1094,2669991412,-0.079059,0.849465,-0.041911,0.520003,-0.134467,-0.115210,0.131351
1095,2670024746,-0.077848,0.848971,-0.044493,0.520779,-0.123628,0.029816,0.104570
1096,2670058080,-0.076394,0.848431,-0.047121,0.521642,-0.150983,0.029373,0.061357
1097,2670091414,-0.075002,0.848028,-0.049592,0.522270,-0.112784,0.029123,0.035582
1098,2670124748,-0.073983,0.847808,-0.051546,0.522582,0.004624,0.209905,0.071711
1099,2670158082,-0.073356,0.847659,-0.052856,0.522781,0.136493,0.233984,0.084914
1100,2670191416,-0.073018,0.847547,-0.053483,0.522947,0.247617,0.084133,0.149415
1101,2670224750,-0.072896,0.847464,-0.053494,0.523098,0.279705,-0.103469,0.187907
1102,2670258084,-0.072753,0.847295,-0.053169,0.523425,0.303132,-0.186488,0.119243
1103,2670291418,-0.072609,0.847244,-0.052749,0.523569,0.076893,-0.179309,0.091005
1104,2670324752,-0.072606,0.847257,-0.052512,0.523572,-0.095710,-0.100445,0.116409
1105,2670358086,-0.072830,0.847191,-0.052245,0.523675,-0.110072,-0.111292,0.022975
1106,2670391420,-0.073381,0.847230,-0.051766,0.523582,-0.094500,-0.186300,0.104846
1107,2670424754,-0.074234,0.847338,-0.051163,0.523347,-0.134267,-0.201289,0.214534
1108,2670458088,-0.075154,0.847311,-0.050773,0.523297,-0.031280,-0.190180,0.114090
1109,2670491422,-0.075938,0.847181,-0.050778,0.523394,0.039633,-0.200932,0.122919
1110,2670524756,-0.076899,0.846959,-0.050954,0.523596,-0.059170,-0.288692,0.187696
1111,2670558090,-0.077899,0.846683,-0.051164,0.523873,-0.158064,-0.276696,0.116220
1112,2670591424,-0.078774,0.846351,-0.051814,0.524214,-0.194665,-0.236524,0.097463
1113,2670624758,-0.079671,0.845906,-0.052946,0.524684,-0.197820,-0.147361,0.138331
1114,2670658092,-0.080656,0.845375,-0.054350,0.525246,-0.196336,-0.155037,0.130161
1115,2670691426,-0.081741,0.844745,-0.055756,0.525945,-0.107375,-0.257918,0.083113
1116,2670724760,-0.082689,0.844088,-0.057163,0.526699,-0.044361,-0.204582,0.131542
1117,2670758094,-0.083729,0.843410,-0.058701,0.527452,-0.062430,-0.036017,0.135893
1118,2670791428,-0.084628,0.842545,-0.060416,0.528495,0.041467,-0.020967,0.101871
1119,2670824762,-0.085455,0.841689,-0.061974,0.529544,-0.007143,-0.173724,0.079423
1120,2670858096,-0.086404,0.840808,-0.063364,0.530626,-0.050342,-0.175352,0.171042
1121,2670891430,-0.086851,0.839772,-0.065223,0.531966,-0.065749,-0.276626,-0.036614
1122,2670924764,-0.087178,0.838715,-0.067847,0.533251,-0.160316,-0.250527,0.227413
1123,2670958098,-0.086791,0.837302,-0.071365,0.535071,0.149711,-0.383121,0.131449
1124,2670991432,-0.086673,0.835816,-0.074594,0.536971,0.099851,-0.351371,0.181988
1125,2671024766,-0.086515,0.834249,-0.078337,0.538895,-0.083058,-0.501198,0.160713
1126,2671058100,-0.085435,0.832470,-0.083580,0.541027,-0.233229,-0.371132,0.064382
1127,2671091434,-0.083928,0.830458,-0.089807,0.543353,-0.364716,-0.269866,0.025497
1128,2671124768,-0.082512,0.828455,-0.096307,0.545510,-0.284496,-0.183305,0.048955
1129,2671158102,-0.081605,0.826438,-0.102347,0.547602,-0.300215,-0.015945,0.113749
1130,2671191436,-0.081095,0.824412,-0.108135,0.549615,-0.375480,-0.293360,-0.026558
1131,2671224770,-0.080227,0.822564,-0.114793,0.551159,-0.427650,-0.114706,-0.062935
1132,2671258104,-0.078803,0.820697,-0.122667,0.552450,-0.495759,0.007393,-0.106427
1133,2671291438,-0.076991,0.818858,-0.131707,0.553353,-0.324108,0.091252,-0.017009
1134,2671324772,-0.074923,0.816939,-0.141098,0.554158,0.042076,-0.258269,0.047762
1135,2671358106,-0.072068,0.814765,-0.150713,0.555204,0.534963,-0.618999,0.195761
1136,2671391440,-0.068560,0.812263,-0.160942,0.556442,0.677684,-0.160719,0.290770
1137,2671424774,-0.064709,0.809233,-0.172001,0.558007,0.569842,-0.029591,0.196001
1138,2671458108,-0.060582,0.806286,-0.183156,0.559185,0.341686,0.420370,0.118981
1139,2671491442,-0.057939,0.803870,-0.191987,0.559981,-0.000162,0.648002,-0.006280
1140,2671524776,-0.056865,0.802142,-0.197832,0.560534,0.094041,0.949392,-0.004650
1141,2671558110,-0.057424,0.801292,-0.201304,0.560457,0.396458,1.047119,0.021357
1142,2671591444,-0.058616,0.801089,-0.203471,0.559841,0.590141,0.620238,0.087696
1143,2671624778,-0.060313,0.801340,-0.204297,0.559000,0.622589,0.563207,0.187226
1144,2671658112,-0.062544,0.801946,-0.203663,0.558117,0.591031,0.620724,0.174702
1145,2671691446,-0.065062,0.803010,-0.201867,0.556951,0.308081,0.583336,0.064784
1146,2671724780,-0.068019,0.804516,-0.198884,0.555495,0.294708,0.688624,0.060897
1147,2671758114,-0.071507,0.806524,-0.194497,0.553695,0.321485,0.660784,0.159486
1148,2671791448,-0.075778,0.808878,-0.188469,0.551774,0.223749,0.510397,0.152284
1149,2671824782,-0.080211,0.811465,-0.181503,0.549681,0.150496,0.332829,0.105350
1150,2671858116,-0.084632,0.814148,-0.173876,0.547512,0.182268,0.261863,0.181137
1151,2671891450,-0.089222,0.816787,-0.165488,0.545448,0.182593,0.289551,0.181828
1152,2671924784,-0.093756,0.819245,-0.156905,0.543535,0.034883,0.131429,0.168419
1153,2671958118,-0.097711,0.821466,-0.149023,0.541701,-0.196474,0.030057,0.072820
1154,2671991452,-0.100848,0.823442,-0.141823,0.540056,-0.225959,-0.292821,0.097292
1155,2672024786,-0.102821,0.825247,-0.135907,0.538448,-0.002999,-0.153140,0.132189
1156,2672058120,-0.104094,0.826656,-0.131041,0.537247,0.159459,0.243971,0.244083
1157,2672091454,-0.105021,0.827866,-0.126327,0.536331,-0.010062,-0.046744,0.149470
1158,2672124788,-0.105564,0.828951,-0.121665,0.535627,-0.102148,-0.120923,0.113523
1159,2672158122,-0.105824,0.829885,-0.117346,0.535092,-0.037002,0.197011,0.104218
1160,2672191456,-0.106043,0.830822,-0.113021,0.534525,-0.102718,0.173299,0.099154
1161,2672224790,-0.106469,0.831817,-0.108118,0.533908,-0.179138,0.017922,0.146644
1162,2672258124,-0.107140,0.832663,-0.102377,0.533587,0.066261,0.023044,0.296875
1163,2672291458,-0.107831,0.833098,-0.096392,0.533883,0.267462,-0.145408,0.276520
1164,2672324792,-0.108024,0.833125,-0.091375,0.534682,-0.109810,-0.272166,-0.005967
1165,2672358126,-0.107370,0.833063,-0.087897,0.535493,-0.585738,-0.118138,-0.111268
1166,2672391460,-0.106286,0.833061,-0.085017,0.536178,-0.752892,0.097361,-0.074422
1167,2672424794,-0.105792,0.833317,-0.081452,0.536431,-0.666091,0.252389,-0.102876
1168,2672458128,-0.105847,0.834012,-0.077567,0.535915,-0.500789,0.330109,-0.140415
1169,2672491462,-0.106321,0.835113,-0.073455,0.534686,-0.187105,0.301628,-0.047514
1170,2672524796,-0.107068,0.836421,-0.068967,0.533087,0.104838,0.080581,0.046532
1171,2672558130,-0.107915,0.837900,-0.064351,0.531167,0.260715,-0.028478,0.064131
1172,2672591464,-0.108455,0.839373,-0.059850,0.529254,0.336515,-0.145738,0.142151
1173,2672624798,-0.109009,0.840798,-0.055191,0.527382,0.268736,-0.082529,0.176277
1174,2672658132,-0.109409,0.842191,-0.050568,0.525536,0.170970,-0.225624,0.050331
1175,2672691466,-0.109415,0.843658,-0.046222,0.523579,-0.083399,-0.102767,0.148642
1176,2672724800,-0.109441,0.844950,-0.042048,0.521838,-0.181370,-0.114171,0.112008
1177,2672758134,-0.109031,0.846126,-0.038372,0.520300,-0.192273,-0.121608,0.135427
1178,2672791468,-0.108622,0.847229,-0.034881,0.518835,-0.176607,-0.317153,0.158828
1179,2672824802,-0.108065,0.848108,-0.031964,0.517701,-0.121297,-0.353357,0.185847
1180,2672858136,-0.106859,0.848671,-0.030071,0.517143,-0.026906,-0.374363,0.137076
1181,2672891470,-0.104782,0.849003,-0.029361,0.517063,-0.035046,-0.404910,0.114375
1182,2672924804,-0.102236,0.849203,-0.029516,0.517236,-0.048593,-0.341903,0.133813
1183,2672958138,-0.099294,0.849269,-0.030277,0.517657,-0.048026,-0.093071,0.202927
1184,2672991472,-0.096400,0.849209,-0.031102,0.518253,0.067439,-0.036775,0.112164
1185,2673024806,-0.093318,0.849240,-0.032009,0.518710,0.157598,-0.097739,0.082523
1186,2673058140,-0.090338,0.849385,-0.032636,0.518961,0.202448,-0.000113,0.160151
1187,2673091474,-0.088058,0.849448,-0.032325,0.519269,0.408660,-0.075880,0.233111
1188,2673124808,-0.085876,0.849429,-0.031601,0.519710,0.556812,-0.220680,0.318199
1189,2673158142,-0.083501,0.849155,-0.031222,0.520567,0.519289,-0.360968,0.235744
1190,2673191476,-0.080978,0.848632,-0.031128,0.521823,0.179971,-0.441464,0.192897
1191,2673224810,-0.078524,0.847966,-0.031154,0.523276,-0.001135,-0.289363,0.080498
1192,2673258144,-0.076576,0.847347,-0.030980,0.524577,-0.205539,-0.124572,0.014745
1193,2673291478,-0.075170,0.846925,-0.030528,0.525488,-0.390154,0.054069,0.085397
1194,2673324812,-0.075582,0.846825,-0.029048,0.525674,-0.470814,0.032837,0.020090
1195,2673358146,-0.076688,0.847023,-0.026889,0.525310,-0.430257,-0.069788,0.050575
1196,2673391480,-0.078199,0.847399,-0.024422,0.524600,-0.148633,-0.213449,0.122845
1197,2673424814,-0.079977,0.847702,-0.021961,0.523951,0.170578,-0.306078,0.129791
1198,2673458148,-0.081615,0.847983,-0.019801,0.523329,0.288020,-0.334040,0.265802
1199,2673491482,-0.082795,0.848001,-0.018558,0.523160,0.181883,-0.303323,0.197077
1200,2673524816,-0.082997,0.847737,-0.018498,0.523558,0.045467,-0.266621,0.174835
1201,2673558150,-0.083109,0.847252,-0.018530,0.524323,-0.040862,-0.017912,0.086882
1202,2673591484,-0.082978,0.846771,-0.018717,0.525115,-0.161597,0.150874,0.003550
1203,2673624818,-0.082818,0.846469,-0.019064,0.525614,-0.312296,0.118483,0.063199
1204,2673658152,-0.082943,0.846325,-0.019176,0.525821,-0.345015,0.111442,0.020674
1205,2673691486,-0.083185,0.846298,-0.019178,0.525827,-0.266284,0.076708,0.042036
1206,2673724820,-0.083442,0.846400,-0.019429,0.525613,-0.245380,0.048193,0.031227
1207,2673758154,-0.083527,0.846545,-0.019920,0.525347,-0.209403,0.002013,0.125476
1208,2673791488,-0.083308,0.846522,-0.020641,0.525392,-0.103320,-0.119518,0.135549
1209,2673824822,-0.082684,0.846369,-0.021905,0.525685,0.033298,-0.164120,0.136439
1210,2673858156,-0.081862,0.846119,-0.023466,0.526149,0.059739,-0.159883,0.163424
1211,2673891490,-0.080986,0.845727,-0.024947,0.526846,0.116666,-0.067426,0.166306
1212,2673924824,-0.079961,0.845317,-0.026485,0.527584,0.073846,-0.039624,0.124949
1213,2673958158,-0.078740,0.844914,-0.028093,0.528330,0.032482,-0.017896,0.140815
1214,2673991492,-0.077840,0.844405,-0.029169,0.529217,0.093943,-0.028987,0.115006
1215,2674024826,-0.076961,0.843929,-0.030056,0.530056,0.120510,-0.083914,0.085931
1216,2674058160,-0.076078,0.843585,-0.031130,0.530669,-0.073213,-0.020021,0.094521
1217,2674091494,-0.075446,0.843136,-0.031892,0.531427,-0.110975,-0.069988,0.106057
1218,2674124828,-0.074836,0.842557,-0.032307,0.532404,-0.082305,-0.226382,0.189747
1219,2674158162,-0.074508,0.842028,-0.032747,0.533261,-0.210923,-0.182784,0.154170
1220,2674191496,-0.074472,0.841596,-0.033325,0.533912,-0.268222,-0.046748,0.034482
1221,2674224830,-0.074703,0.841197,-0.033773,0.534479,-0.152350,-0.078947,0.032024
1222,2674258164,-0.075403,0.840848,-0.033875,0.534923,0.003670,-0.198982,0.136683
1223,2674291498,-0.076525,0.840557,-0.033956,0.535217,0.113078,-0.263173,0.136806
1224,2674324832,-0.077737,0.840351,-0.034319,0.535342,0.084699,-0.200012,0.127383
1225,2674358166,-0.078485,0.839995,-0.035279,0.535729,0.071785,-0.270560,0.143586
1226,2674391500,-0.078764,0.839492,-0.037010,0.536360,0.093643,-0.339119,0.139121
1227,2674424834,-0.078768,0.839024,-0.039538,0.536911,-0.010539,-0.281722,0.179101
1228,2674458168,-0.078602,0.838390,-0.042488,0.537699,-0.080298,-0.193097,0.079428
1229,2674491502,-0.078057,0.837649,-0.045885,0.538653,-0.094551,-0.112389,0.056108
1230,2674524836,-0.077626,0.836933,-0.049409,0.539517,-0.097628,0.010618,0.045701
1231,2674558170,-0.077506,0.836282,-0.052626,0.540239,-0.038949,0.185552,0.078436
1232,2674591504,-0.077448,0.835625,-0.055720,0.540952,0.055542,0.155755,-0.032986
1233,2674624838,-0.077578,0.835037,-0.058360,0.541563,0.120064,0.187882,0.092505
1234,2674658172,-0.078102,0.834520,-0.060349,0.542067,0.135932,0.069995,0.151234
1235,2674691506,-0.078666,0.834162,-0.062456,0.542297,0.053304,-0.225461,0.007242
1236,2674724840,-0.078460,0.833903,-0.065259,0.542396,-0.104566,-0.013555,0.137457
1237,2674758174,-0.078336,0.833560,-0.067945,0.542611,-0.108757,-0.009557,0.114841
1238,2674791508,-0.078407,0.833225,-0.070442,0.542796,-0.017299,-0.143276,0.075705
1239,2674824842,-0.078327,0.833183,-0.073270,0.542498,-0.237169,-0.162680,0.080686
1240,2674858176,-0.078383,0.833093,-0.076732,0.542150,-0.338217,0.006577,0.034614
1241,2674891510,-0.078504,0.832891,-0.080063,0.541961,-0.171710,-0.038413,0.102319
1242,2674924844,-0.079180,0.832764,-0.082644,0.541670,0.116249,-0.164392,0.160861
1243,2674958178,-0.080251,0.832537,-0.084577,0.541562,0.393635,-0.220541,0.201896
1244,2674991512,-0.080806,0.832045,-0.087054,0.541844,0.440132,-0.293978,0.244862
1245,2675024846,-0.081099,0.831143,-0.089633,0.542763,0.270336,-0.232085,0.167683
1246,2675058180,-0.082087,0.830096,-0.091170,0.543961,-0.062863,-0.093313,0.180779
1247,2675091514,-0.083696,0.829219,-0.091826,0.544940,-0.527253,-0.194477,-0.009466
1248,2675124848,-0.085907,0.828585,-0.092394,0.545465,-0.765516,0.140798,-0.066071
1249,2675158182,-0.087987,0.827906,-0.093726,0.545937,-0.792762,-0.081976,-0.053209
1250,2675191516,-0.089985,0.827377,-0.095817,0.546050,-0.630956,-0.304741,-0.138567
1251,2675224850,-0.092227,0.827153,-0.098167,0.545598,-0.431721,-0.216794,0.132935
1252,2675258184,-0.094382,0.826622,-0.100683,0.545575,0.036252,-0.177352,0.156804
1253,2675291518,-0.096333,0.825872,-0.103334,0.545874,0.416369,-0.278198,0.232905
1254,2675324852,-0.097921,0.824730,-0.106082,0.546791,0.495559,-0.453165,0.336018
1255,2675358186,-0.098836,0.823052,-0.109411,0.548495,0.454101,-0.455230,0.244471
1256,2675391520,-0.098400,0.820956,-0.114163,0.550742,0.217487,-0.361937,0.067308
1257,2675424854,-0.096265,0.818737,-0.121115,0.552934,-0.085232,-0.029263,-0.022034
1258,2675458188,-0.092617,0.816367,-0.130483,0.554926,-0.021311,-0.084511,-0.199961
1259,2675491522,-0.086074,0.813890,-0.143708,0.556350,0.188546,0.174752,-0.052556
1260,2675524856,-0.080038,0.811188,-0.156633,0.557706,0.092539,0.809691,0.257964
1261,2675558190,-0.077445,0.809068,-0.164142,0.558990,-0.185521,0.494954,0.097819
1262,2675591524,-0.076239,0.808014,-0.168687,0.559328,-0.249010,0.611361,-0.094182
1263,2675624858,-0.075487,0.807292,-0.172626,0.559271,0.154741,0.571706,-0.029800
1264,2675658192,-0.075182,0.806908,-0.176009,0.558811,0.330660,0.422480,0.181948
1265,2675691526,-0.075931,0.806568,-0.177834,0.558623,0.507215,0.237266,0.210193
1266,2675724860,-0.077095,0.806627,-0.178728,0.558093,0.312563,0.293832,0.213171
1267,2675758194,-0.078584,0.806816,-0.178749,0.557604,0.183955,0.388637,0.125298
1268,2675791528,-0.080561,0.807062,-0.177826,0.557262,0.224474,0.394295,0.137178
1269,2675824862,-0.083011,0.807552,-0.176148,0.556724,0.222107,0.425215,0.114096
1270,2675858196,-0.085875,0.808318,-0.173536,0.555999,0.029423,0.169016,0.085182
1271,2675891530,-0.088541,0.809165,-0.170812,0.555192,0.080149,0.308563,0.160748
1272,2675924864,-0.091139,0.810008,-0.167681,0.554497,0.279625,0.419370,0.129962
1273,2675958198,-0.093929,0.811097,-0.163776,0.553605,0.216678,0.255530,0.089268
1274,2675991532,-0.096593,0.812386,-0.159493,0.552506,0.244974,0.317643,0.140772
1275,2676024866,-0.099354,0.813842,-0.154645,0.551250,0.445000,0.433152,0.187366
1276,2676058200,-0.102176,0.815489,-0.149142,0.549815,0.344127,0.290796,0.155250
1277,2676091534,-0.104896,0.817252,-0.143227,0.548255,0.239667,0.203304,0.109764
1278,2676124868,-0.107487,0.819082,-0.136900,0.546637,0.281189,0.196226,0.172174
1279,2676158202,-0.109876,0.820983,-0.130474,0.544878,0.188221,0.186810,0.093513
1280,2676191536,-0.111835,0.822967,-0.124182,0.542953,-0.000608,0.123008,0.106769
1281,2676224870,-0.113669,0.824917,-0.117696,0.541055,-0.015367,0.178933,0.097924
1282,2676258204,-0.115548,0.826933,-0.110896,0.539013,-0.061546,0.281751,0.115693
1283,2676291538,-0.117207,0.828845,-0.104001,0.537089,-0.009239,0.180360,0.113101
1284,2676324872,-0.118449,0.830535,-0.097588,0.535406,-0.007789,0.191075,0.214095
1285,2676358206,-0.119478,0.831764,-0.091339,0.534371,-0.042420,0.156551,0.174509
1286,2676391540,-0.120202,0.832605,-0.085187,0.533916,-0.149377,0.117302,0.146621
1287,2676424874,-0.120942,0.833207,-0.078717,0.533802,-0.274599,0.037038,0.117458
1288,2676458208,-0.121771,0.833699,-0.071776,0.533823,-0.342482,-0.010975,0.060843
1289,2676491542,-0.122758,0.834155,-0.064430,0.533823,-0.328730,-0.105894,-0.031578
1290,2676524876,-0.123578,0.834784,-0.057379,0.533454,-0.314163,-0.153270,-0.063611
1291,2676558210,-0.123854,0.835549,-0.051675,0.532776,-0.251442,-0.029989,-0.059933
1292,2676591544,-0.123537,0.836404,-0.047250,0.531917,-0.168733,0.061093,0.017839
1293,2676624878,-0.122609,0.837366,-0.043425,0.530944,0.050014,-0.148710,0.091623
1294,2676658212,-0.121933,0.838375,-0.039111,0.529842,0.019351,-0.119288,0.125369
1295,2676691546,-0.121585,0.839220,-0.034456,0.528906,0.119504,-0.000523,0.135993
1296,2676724880,-0.120340,0.840068,-0.030621,0.528080,0.219601,-0.314682,0.169485
1297,2676758214,-0.118290,0.840828,-0.027588,0.527500,0.193290,-0.456618,0.151935
1298,2676791548,-0.116686,0.841214,-0.024334,0.527401,0.083041,-0.486531,0.199279
1299,2676824882,-0.114605,0.841307,-0.021881,0.527817,0.081890,-0.414413,0.130588
1300,2676858216,-0.112191,0.841238,-0.020347,0.528508,0.030918,-0.369591,0.145250
1301,2676891550,-0.109248,0.840926,-0.019552,0.529649,-0.008045,-0.468924,0.072839
1302,2676924884,-0.106237,0.840701,-0.019355,0.530625,-0.078866,-0.413446,0.065849
1303,2676958218,-0.103438,0.840607,-0.019717,0.531312,-0.147397,-0.315375,0.097807
1304,2676991552,-0.100238,0.840517,-0.020726,0.532030,-0.243390,-0.266365,0.161008
1305,2677024886,-0.097472,0.840352,-0.021894,0.532756,-0.167171,-0.369950,0.120585
1306,2677058220,-0.095568,0.840366,-0.022972,0.533034,-0.198520,-0.165664,0.102013
1307,2677091554,-0.093837,0.840381,-0.024321,0.533258,-0.195195,-0.152377,0.124299
1308,2677124888,-0.092019,0.840342,-0.025710,0.533572,-0.129595,-0.141346,0.047333
1309,2677158222,-0.090319,0.840351,-0.027089,0.533780,-0.132322,-0.108060,0.180178
1310,2677191556,-0.089529,0.840341,-0.028130,0.533874,-0.073646,0.018619,0.085176
1311,2677224890,-0.088435,0.840331,-0.029142,0.534019,-0.037876,0.000605,0.063993
1312,2677258224,-0.087158,0.840394,-0.029864,0.534090,0.001226,-0.035298,0.065598
1313,2677291558,-0.086432,0.840622,-0.029976,0.533842,0.060226,0.104536,0.112608
1314,2677324892,-0.086072,0.840796,-0.029842,0.533633,0.224915,-0.011166,0.115238
1315,2677358226,-0.085490,0.840971,-0.029767,0.533455,0.278252,-0.235609,0.169638
1316,2677391560,-0.085074,0.841202,-0.029561,0.533168,0.209076,-0.243969,0.205970
1317,2677424894,-0.084853,0.841417,-0.029547,0.532865,0.097330,-0.158674,0.156775
1318,2677458228,-0.084410,0.841594,-0.029756,0.532645,0.050799,-0.060287,0.080719
1319,2677491562,-0.084164,0.841872,-0.029825,0.532241,-0.002711,-0.091927,0.037558
1320,2677524896,-0.084004,0.842376,-0.029944,0.531461,-0.137743,-0.036262,0.032272
1321,2677558230,-0.084008,0.842885,-0.030007,0.530650,-0.070659,-0.104118,0.059200
1322,2677591564,-0.084396,0.843343,-0.029690,0.529877,0.114629,-0.084789,0.117930
1323,2677624898,-0.085105,0.843796,-0.029231,0.529067,0.171297,-0.116360,0.212374
1324,2677658232,-0.085607,0.844134,-0.028914,0.528465,0.181920,-0.279609,0.212113
1325,2677691566,-0.086153,0.844334,-0.028353,0.528087,0.186504,-0.292108,0.149724
1326,2677724900,-0.086632,0.844373,-0.027904,0.527969,0.104950,-0.121512,0.170933
1327,2677758234,-0.086793,0.844175,-0.027921,0.528259,-0.023543,-0.242112,0.199812
1328,2677791568,-0.086949,0.843886,-0.028055,0.528688,-0.096448,-0.219939,0.086596
1329,2677824902,-0.086994,0.843556,-0.028446,0.529186,-0.222699,-0.083696,0.087815
1330,2677858236,-0.086942,0.843093,-0.029190,0.529891,-0.242158,0.009076,0.109811
1331,2677891570,-0.086768,0.842538,-0.030081,0.530751,-0.241168,-0.150166,-0.054462
1332,2677924904,-0.086584,0.842233,-0.030977,0.531214,-0.284896,0.111264,0.060076
1333,2677958238,-0.086927,0.842175,-0.031458,0.531223,-0.279143,0.214131,0.134349
1334,2677991572,-0.087266,0.842121,-0.031859,0.531228,-0.293455,-0.075178,0.082165
1335,2678024906,-0.088057,0.842212,-0.032065,0.530941,-0.185017,0.007024,0.020300
1336,2678058240,-0.088824,0.842317,-0.032622,0.530613,-0.129508,0.046781,0.120145
1337,2678091574,-0.088843,0.842173,-0.033911,0.530757,-0.107159,-0.119100,0.167550
1338,2678124908,-0.088352,0.841916,-0.035793,0.531123,-0.105633,-0.175481,0.093632
1339,2678158242,-0.087641,0.841645,-0.037988,0.531517,-0.060867,-0.156105,0.157193
1340,2678191576,-0.086647,0.841277,-0.040596,0.532071,-0.063322,-0.028605,0.113933
1341,2678224910,-0.085599,0.840862,-0.043527,0.532664,-0.024560,-0.023243,0.058301
1342,2678258244,-0.084642,0.840551,-0.046321,0.533072,-0.000473,0.024152,0.128010
1343,2678291578,-0.084099,0.840329,-0.048432,0.533321,0.025883,-0.069438,0.129568
1344,2678324912,-0.084015,0.840197,-0.049969,0.533399,0.122296,0.060127,0.079682
1345,2678358246,-0.083846,0.840023,-0.051515,0.533554,0.152419,-0.047677,0.155276
1346,2678391580,-0.083618,0.839715,-0.052921,0.533936,0.175640,-0.172703,0.129182
1347,2678424914,-0.083397,0.839351,-0.054084,0.534426,0.036148,-0.268511,0.078226
1348,2678458248,-0.083151,0.838946,-0.055366,0.534969,-0.121725,-0.245255,0.061734
1349,2678491582,-0.082944,0.838521,-0.056915,0.535505,-0.262180,-0.116566,0.079716
1350,2678524916,-0.082928,0.838243,-0.058573,0.535763,-0.296346,-0.030646,0.006305
1351,2678558250,-0.083331,0.838325,-0.060259,0.535385,-0.297815,0.099720,-0.000990
1352,2678591584,-0.084569,0.838766,-0.061597,0.534348,-0.188714,0.087803,0.149424
1353,2678624918,-0.086732,0.839169,-0.062180,0.533300,0.003403,-0.218169,0.101549
1354,2678658252,-0.088991,0.839659,-0.062606,0.532104,0.193644,-0.255009,0.171709
1355,2678691586,-0.091076,0.839857,-0.063157,0.531373,0.315722,-0.421913,0.239327
1356,2678724920,-0.092646,0.839693,-0.064046,0.531256,0.265109,-0.506820,0.192730
1357,2678758254,-0.093602,0.839312,-0.065499,0.531512,-0.006605,-0.267168,0.123125
1358,2678791588,-0.094522,0.838866,-0.067085,0.531856,-0.240809,0.113450,0.085862
1359,2678824922,-0.095781,0.838407,-0.068409,0.532185,-0.233078,0.395231,0.008264
1360,2678858256,-0.097530,0.838212,-0.069016,0.532096,-0.155625,0.264774,0.040448
1361,2678891590,-0.099981,0.838137,-0.068783,0.531790,0.053309,0.148333,0.186492
1362,2678924924,-0.102749,0.837890,-0.067779,0.531780,0.257066,-0.107518,0.177167
1363,2678958258,-0.105105,0.837548,-0.066999,0.531958,0.248847,-0.268141,0.167315
1364,2678991592,-0.106476,0.837005,-0.067359,0.532494,0.079203,-0.248788,0.126219
1365,2679024926,-0.107005,0.836153,-0.068587,0.533568,0.024926,-0.145906,0.156299
1366,2679058260,-0.106910,0.835137,-0.070462,0.534933,-0.039905,-0.107975,0.120294
1367,2679091594,-0.106488,0.834045,-0.072761,0.536411,-0.185615,-0.132861,0.066358
1368,2679124928,-0.105529,0.832937,-0.075679,0.537917,-0.165173,-0.096922,0.035220
1369,2679158262,-0.103817,0.831673,-0.079490,0.539653,-0.134175,-0.229085,0.076396
1370,2679191596,-0.101517,0.830339,-0.083874,0.541478,-0.099826,-0.161764,0.052888
1371,2679224930,-0.099009,0.829189,-0.088415,0.542980,-0.146340,0.027246,0.083427
1372,2679258264,-0.096895,0.828048,-0.092719,0.544384,-0.052245,0.228892,0.080821
1373,2679291598,-0.095256,0.826952,-0.096674,0.545649,-0.045289,0.165269,0.142576
1374,2679324932,-0.094134,0.825915,-0.100322,0.546755,0.019666,-0.091929,0.126520
1375,2679358266,-0.093400,0.824872,-0.103794,0.547806,-0.105867,-0.354316,0.117057
1376,2679391600,-0.092440,0.823669,-0.107762,0.549010,-0.215699,-0.436759,0.075072
1377,2679424934,-0.090841,0.822354,-0.113056,0.550183,-0.330580,-0.323860,-0.068871
1378,2679458268,-0.088771,0.821113,-0.119673,0.550974,-0.588284,0.083076,-0.042831
1379,2679491602,-0.086826,0.819813,-0.126599,0.551672,-0.717015,0.124253,0.016970
1380,2679524936,-0.084879,0.818180,-0.133296,0.552821,-0.081945,-0.177728,0.114280
1381,2679558270,-0.082738,0.816408,-0.139791,0.554159,0.577924,-0.273426,0.288246
1382,2679591604,-0.080911,0.814386,-0.145591,0.555908,0.593560,0.014754,0.285774
1383,2679624938,-0.078800,0.812213,-0.151798,0.557727,0.338322,0.038996,0.029385
1384,2679658272,-0.075686,0.810203,-0.159536,0.558922,0.099597,0.366071,0.080134
1385,2679691606,-0.072924,0.808140,-0.166821,0.560147,0.029433,0.061786,0.031816
1386,2679724940,-0.070142,0.806188,-0.174059,0.561112,0.247852,0.054922,0.087656
1387,2679758274,-0.067487,0.804356,-0.181170,0.561816,0.224390,0.331380,0.117796
1388,2679791608,-0.065381,0.802698,-0.187420,0.562385,0.350254,0.404319,0.134557
1389,2679824942,-0.064074,0.801432,-0.192290,0.562696,0.262764,0.307169,0.117434
1390,2679858276,-0.063389,0.800637,-0.195831,0.562685,0.279860,0.316548,0.082446
1391,2679891610,-0.063333,0.800222,-0.198425,0.562372,0.305815,0.438510,0.137190
1392,2679924944,-0.063710,0.800135,-0.200194,0.561826,0.222934,0.281571,0.108524
1393,2679958278,-0.064615,0.800426,-0.200731,0.561117,0.282889,0.265862,0.114732
1394,2679991612,-0.066197,0.801215,-0.199830,0.560128,0.311149,0.385853,0.091670
1395,2680024946,-0.068381,0.802431,-0.197831,0.558832,0.332719,0.411488,0.111366
1396,2680058280,-0.070899,0.804071,-0.194759,0.557237,0.347055,0.281008,0.111246
1397,2680091614,-0.073942,0.806205,-0.190378,0.555269,0.326824,0.408053,0.139589
1398,2680124948,-0.077640,0.808842,-0.184505,0.552908,0.285694,0.458186,0.104209
1399,2680158282,-0.081755,0.811816,-0.177470,0.550252,0.230651,0.426333,0.121665
1400,2680191616,-0.086194,0.814909,-0.169519,0.547503,0.254365,0.429678,0.155489
1401,2680224950,-0.091011,0.818025,-0.160900,0.544670,0.109943,0.454746,0.129500
1402,2680258284,-0.095944,0.821090,-0.151792,0.541818,-0.005832,0.427470,0.133549
1403,2680291618,-0.100963,0.824092,-0.142032,0.538987,-0.028869,0.227424,0.120904
1404,2680324952,-0.105763,0.826953,-0.132232,0.536172,-0.018432,0.215547,0.100849
1405,2680358286,-0.109923,0.829566,-0.123029,0.533481,-0.078767,0.198807,0.048561
1406,2680391620,-0.112676,0.831972,-0.115230,0.530895,-0.063895,-0.077041,0.011672
1407,2680424954,-0.114235,0.834251,-0.108732,0.528352,-0.105229,0.378136,0.120651
1408,2680458288,-0.115455,0.836166,-0.102204,0.526358,0.056033,0.502618,0.158360
1409,2680491622,-0.116395,0.837956,-0.095667,0.524530,-0.013195,0.355246,0.095370
1410,2680524956,-0.116991,0.839532,-0.089255,0.523005,-0.005346,0.399108,0.193849
1411,2680558290,-0.116954,0.840893,-0.083140,0.521834,0.023870,0.185129,0.085587
1412,2680591624,-0.116664,0.842169,-0.076820,0.520808,-0.014807,-0.079457,0.109849
1413,2680624958,-0.116311,0.843429,-0.070163,0.519787,-0.026670,0.013495,0.135178
1414,2680658292,-0.115662,0.844570,-0.063582,0.518925,0.279641,-0.200813,-0.006834
1415,2680691626,-0.113774,0.845672,-0.058793,0.518112,0.396136,-0.045960,0.045484
1416,2680724960,-0.110297,0.846504,-0.056198,0.517792,0.432079,0.113504,0.114110
1417,2680758294,-0.105383,0.847035,-0.054663,0.518111,0.318258,-0.264782,0.117612
1418,2680791628,-0.100685,0.847599,-0.052265,0.518372,0.067808,-0.300355,0.165627
1419,2680824962,-0.096424,0.848093,-0.049279,0.518666,-0.237752,-0.246170,0.137464
1420,2680858296,-0.090919,0.848199,-0.047492,0.519652,-0.407880,-0.543858,0.138044
1421,2680891630,-0.085247,0.848103,-0.046413,0.520867,-0.635809,-0.644267,0.047205
1422,2680924964,-0.080005,0.847989,-0.045393,0.521972,-0.674710,-0.648890,0.039665
1423,2680958298,-0.075398,0.848131,-0.043966,0.522548,-0.929711,-0.232295,0.060705
1424,2680991632,-0.072330,0.848336,-0.042182,0.522796,-0.916462,-0.028922,0.040174
1425,2681024966,-0.070198,0.848562,-0.040363,0.522864,-0.638011,-0.119769,-0.021982
1426,2681058300,-0.069072,0.849103,-0.038465,0.522279,-0.445907,-0.111298,0.059474
1427,2681091634,-0.068826,0.849808,-0.036512,0.521304,-0.200410,-0.275970,0.157301
1428,2681124968,-0.068917,0.850479,-0.034584,0.520328,0.073824,-0.263783,0.168458
1429,2681158302,-0.068895,0.851129,-0.033275,0.519352,0.207814,-0.298045,0.272054
1430,2681191636,-0.067984,0.851319,-0.033030,0.519177,0.300370,-0.461063,0.294870
1431,2681224970,-0.067028,0.851263,-0.032993,0.519395,0.265824,-0.547521,0.253632
1432,2681258304,-0.065603,0.851178,-0.033555,0.519681,0.167019,-0.302593,0.222891
1433,2681291638,-0.064065,0.850951,-0.034852,0.520158,-0.030902,-0.016988,0.204348
1434,2681324972,-0.062389,0.850432,-0.036310,0.521111,0.116934,-0.070523,0.083675
1435,2681358306,-0.060905,0.850041,-0.037603,0.521833,0.121088,-0.166646,0.211484
1436,2681391640,-0.059870,0.849678,-0.038650,0.522465,0.105079,-0.154316,0.183376
1437,2681424974,-0.058732,0.849191,-0.039809,0.523299,0.054408,-0.179051,0.087713
1438,2681458308,-0.057583,0.848787,-0.040901,0.523998,-0.070580,-0.073837,0.106843
1439,2681491642,-0.056663,0.848411,-0.041733,0.524640,-0.181763,0.073301,0.165965
1440,2681524976,-0.056108,0.847995,-0.042094,0.525343,-0.142324,-0.034699,0.130090
1441,2681558310,-0.056033,0.847777,-0.041856,0.525722,-0.011674,-0.044260,-0.020298
1442,2681591644,-0.056189,0.847858,-0.041549,0.525600,-0.082832,0.005988,0.083715
1443,2681624978,-0.057243,0.848100,-0.040707,0.525161,-0.082979,0.094024,0.055655
1444,2681658312,-0.059113,0.848556,-0.038883,0.524355,-0.065473,0.049686,-0.062364
1445,2681691646,-0.061316,0.849275,-0.036727,0.523093,-0.120283,-0.032182,0.061550
1446,2681724980,-0.063987,0.850036,-0.034374,0.521694,-0.087070,-0.104767,0.154987
1447,2681758314,-0.067056,0.850763,-0.031592,0.520297,0.018311,-0.205399,0.113923
1448,2681791648,-0.069720,0.851441,-0.029187,0.518977,0.107358,-0.281644,0.149333
1449,2681824982,-0.072204,0.851898,-0.027519,0.517977,0.109684,-0.307502,0.261084
1450,2681858316,-0.074167,0.852091,-0.026885,0.517416,0.057187,-0.250612,0.163911
1451,2681891650,-0.075277,0.852122,-0.027178,0.517190,-0.065353,-0.198217,0.146543
1452,2681924984,-0.076180,0.852049,-0.027947,0.517136,-0.133269,0.004804,0.132954
1453,2681958318,-0.076773,0.851776,-0.029106,0.517434,-0.061683,0.125920,0.062319
1454,2681991652,-0.076667,0.851475,-0.030595,0.517859,-0.000673,0.025610,0.047000
1455,2682024986,-0.076023,0.851305,-0.032471,0.518119,-0.044986,0.158160,0.011550
1456,2682058320,-0.074883,0.851022,-0.034823,0.518597,-0.146423,0.116011,0.080472
1457,2682091654,-0.073426,0.850593,-0.037247,0.519340,-0.166403,-0.093222,0.172283
1458,2682124988,-0.072272,0.850223,-0.039274,0.519959,-0.195858,-0.103816,0.144300
1459,2682158322,-0.071492,0.849938,-0.040962,0.520402,-0.191856,0.065642,0.068844
1460,2682191656,-0.070976,0.849634,-0.042437,0.520851,-0.087688,0.131551,0.108106
1461,2682224990,-0.070664,0.849310,-0.043590,0.521326,-0.031524,-0.075143,0.127516
1462,2682258324,-0.070564,0.849045,-0.044396,0.521703,0.026241,-0.088714,0.170576
1463,2682291658,-0.070555,0.848735,-0.045049,0.522152,0.128474,0.028460,0.125256
1464,2682324992,-0.070087,0.848204,-0.045966,0.522997,0.215918,0.027180,0.098200
1465,2682358326,-0.069276,0.847651,-0.047157,0.523896,0.137369,-0.120266,0.131467
1466,2682391660,-0.068393,0.847116,-0.048428,0.524760,0.045644,-0.161351,0.142650
1467,2682424994,-0.067700,0.846550,-0.049492,0.525664,0.202795,-0.095447,0.096243
1468,2682458328,-0.066980,0.846118,-0.050551,0.526350,0.214049,-0.043878,0.127615
1469,2682491662,-0.066684,0.845867,-0.051345,0.526713,0.120008,-0.002090,0.068434
