sep=,
DeviceTag:,D_Leg
FirmwareVersion:,2.2.1
AppVersion:,2023.6.0
SyncStatus:,Synced
OutputRate:,30Hz
FilterProfile:,General
Measurement Mode:,Sensor fusion Mode - Complete(Quaternion)
StartTime: ,2026-09-07_16:47:59_633 AEST
© Movella Technologies B. V. 2005-2026

PacketCounter,SampleTimeFine,Quat_W,Quat_X,Quat_Y,Quat_Z,FreeAcc_X,FreeAcc_Y,FreeAcc_Z
1,2277150222,-0.056873,0.753943,0.067119,0.651022,0.381477,0.099191,0.189440
2,2277183556,-0.056455,0.752624,0.067099,0.652585,0.555461,0.112342,0.324720
3,2277216890,-0.055877,0.750519,0.067810,0.654981,0.720930,0.160868,0.330265
4,2277250224,-0.054826,0.747314,0.068605,0.658641,0.868956,0.355318,0.260764
5,2277283558,-0.053989,0.741919,0.070193,0.664616,0.969255,0.402163,0.449336
6,2277316892,-0.053404,0.733944,0.073221,0.673136,0.601779,-0.037200,0.133867
7,2277350226,-0.053383,0.722984,0.078292,0.684335,0.398306,0.002755,0.217613
8,2277383560,-0.049310,0.712806,0.079093,0.695140,-0.317974,0.334756,-0.055160
9,2277416894,-0.038708,0.703176,0.073425,0.706154,0.322304,-0.342461,0.264579
10,2277450228,-0.026742,0.692361,0.064602,0.718155,0.007457,0.655954,-0.039750
11,2277483562,-0.020120,0.680933,0.058209,0.729752,-0.453444,1.291965,-0.149014
12,2277516896,-0.020635,0.668455,0.059296,0.741098,0.114985,2.526741,0.140404
13,2277550230,-0.025578,0.655457,0.066959,0.751823,0.289925,1.674646,-0.299799
14,2277583564,-0.036456,0.639628,0.080554,0.763582,-1.027360,0.014965,-0.810804
15,2277616898,-0.046375,0.624579,0.096085,0.773639,-1.349236,-2.834097,-0.065862
16,2277650232,-0.047904,0.611410,0.100861,0.783396,-0.957344,-2.911507,0.330329
17,2277683566,-0.044793,0.597828,0.097125,0.794457,-0.920606,-0.563857,0.066541
18,2277716900,-0.041611,0.586171,0.094293,0.803604,-1.362188,-0.192608,0.366347
19,2277750234,-0.037154,0.576740,0.089893,0.811116,-0.407479,0.404227,0.719672
20,2277783568,-0.034063,0.566257,0.086825,0.818935,-0.077557,1.582746,-0.301237
21,2277816902,-0.033243,0.555717,0.088319,0.825998,-0.247775,0.366202,-0.004850
22,2277850236,-0.032700,0.547105,0.088855,0.831691,-0.261708,-0.141153,0.482339
23,2277883570,-0.031791,0.538921,0.087015,0.837247,0.511328,0.329913,0.089415
24,2277916904,-0.032055,0.530303,0.086837,0.842740,0.910517,0.226392,-0.204453
25,2277950238,-0.032339,0.522768,0.086622,0.847446,0.793494,-0.069139,-0.104610
26,2277983572,-0.033803,0.514335,0.087237,0.852471,0.161709,0.155116,-0.513824
27,2278016906,-0.035346,0.504659,0.089043,0.857987,0.202082,-0.122228,-0.039070
28,2278050240,-0.036780,0.495916,0.089109,0.863002,0.321982,0.400545,0.167067
29,2278083574,-0.039764,0.487352,0.089921,0.867652,-0.224718,0.721992,-0.029609
30,2278116908,-0.043292,0.479234,0.092957,0.871676,-0.182759,-0.695511,0.470102
31,2278150242,-0.046638,0.471880,0.094968,0.875291,0.051016,-0.193516,0.417523
32,2278183576,-0.048432,0.465577,0.096524,0.878394,-0.256650,-0.737866,0.272688
33,2278216910,-0.047487,0.459980,0.096144,0.881430,-0.190944,-1.671788,0.405557
34,2278250244,-0.043260,0.455202,0.094589,0.884292,0.184286,-0.835995,-0.016361
35,2278283578,-0.036452,0.450454,0.091323,0.887368,-0.137726,-0.157957,0.108879
36,2278316912,-0.029992,0.445296,0.087771,0.890566,-0.516327,1.509969,0.188297
37,2278350246,-0.025578,0.439570,0.086545,0.893663,-0.589599,1.854124,0.148822
38,2278383580,-0.024717,0.432398,0.085670,0.897263,-0.239396,1.937099,-0.091815
39,2278416914,-0.028519,0.424297,0.086991,0.900883,-0.346495,1.483621,-0.391840
40,2278450248,-0.032557,0.414767,0.089010,0.904978,-0.345862,-0.927266,0.043589
41,2278483582,-0.034902,0.404912,0.091087,0.909137,0.321848,-0.893024,0.151658
42,2278516916,-0.036292,0.395216,0.092629,0.913185,0.403484,-0.677306,-0.311316
43,2278550250,-0.036631,0.384739,0.093280,0.917569,0.145112,-0.600066,0.076451
44,2278583584,-0.034824,0.375139,0.093925,0.921540,0.050053,-0.603271,-0.041417
45,2278616918,-0.031799,0.366132,0.096396,0.925010,0.350821,-0.310867,0.130347
46,2278650252,-0.028307,0.356220,0.098346,0.928781,0.185950,-0.174062,0.438452
47,2278683586,-0.024954,0.346767,0.099072,0.932370,-0.109041,0.472527,0.248137
48,2278716920,-0.022383,0.336544,0.100600,0.936011,-0.336429,0.660456,-0.024014
49,2278750254,-0.019965,0.325588,0.101170,0.939871,0.107742,-0.278914,0.646980
50,2278783588,-0.018015,0.316017,0.101910,0.943092,0.103137,-0.196116,0.068285
51,2278816922,-0.016055,0.307454,0.103568,0.945773,-0.488327,0.223988,0.002909
52,2278850256,-0.012698,0.299452,0.104805,0.948253,0.445349,-1.009843,0.692577
53,2278883590,-0.009095,0.292370,0.104153,0.950573,0.206379,0.077027,-0.455375
54,2278916924,-0.005086,0.284158,0.104968,0.953000,0.205177,-0.025313,0.224568
55,2278950258,-0.000603,0.276129,0.105101,0.955356,-0.260705,0.184365,0.297586
56,2278983592,0.004821,0.268745,0.105200,0.957437,-0.185880,-0.478514,0.068718
57,2279016926,0.011305,0.260855,0.103935,0.959700,0.751379,-0.212431,-0.346258
58,2279050260,0.018780,0.253052,0.102178,0.961858,0.954933,-0.721591,-0.000771
59,2279083594,0.027273,0.246659,0.101613,0.963374,0.874588,-1.053177,-0.303035
60,2279116928,0.036069,0.239831,0.097819,0.965200,0.513311,0.080210,-0.579245
61,2279150262,0.044236,0.233312,0.095555,0.966684,-0.735156,0.690579,0.613108
62,2279183596,0.051448,0.227508,0.094666,0.967797,-1.299652,0.306155,0.375977
63,2279216930,0.057779,0.220240,0.091447,0.969429,-0.132826,0.830075,0.267871
64,2279250264,0.061805,0.212614,0.088214,0.971181,-0.293192,1.671727,-0.131401
65,2279283598,0.063586,0.204486,0.088533,0.972781,0.254436,1.536156,-0.060246
66,2279316932,0.063682,0.196557,0.088871,0.974377,0.589529,1.026131,0.193453
67,2279350266,0.062732,0.189694,0.088692,0.975815,0.199980,0.536179,-0.105305
68,2279383600,0.061775,0.183028,0.089450,0.977079,0.234232,0.326932,-0.147935
69,2279416934,0.060987,0.177353,0.091282,0.978005,0.455845,-0.547060,0.185348
70,2279450268,0.061214,0.172148,0.091675,0.978884,0.686891,-0.247302,-0.194465
71,2279483602,0.063033,0.167915,0.091416,0.979527,1.341220,-0.439134,-0.283896
72,2279516936,0.066805,0.165104,0.091753,0.979724,1.144964,-0.654012,-0.420681
73,2279550270,0.072681,0.163408,0.091423,0.979621,1.104605,0.187019,-0.468934
74,2279583604,0.079401,0.162109,0.090571,0.979394,0.174057,-0.372159,0.029177
75,2279616938,0.086417,0.160421,0.089016,0.979221,-0.639947,0.176881,0.469222
76,2279650272,0.094089,0.157703,0.087428,0.979098,-0.081069,-0.480916,0.277630
77,2279683606,0.101933,0.155314,0.083787,0.979013,0.012867,0.685341,0.158029
78,2279716940,0.109228,0.153224,0.080547,0.978828,-0.844376,0.415444,0.452138
79,2279750274,0.114849,0.149667,0.075173,0.979162,-1.319459,0.073549,1.452476
80,2279783608,0.118752,0.143527,0.068672,0.980093,-0.909348,1.015133,0.527478
81,2279816942,0.121309,0.137882,0.064545,0.980870,0.083098,0.892494,-0.584254
82,2279850276,0.122420,0.134096,0.062528,0.981387,-0.727864,0.182229,0.391766
83,2279883610,0.124316,0.129292,0.060116,0.981944,-0.580278,-0.592730,1.432402
84,2279916944,0.126670,0.123311,0.057231,0.982585,-0.076757,-0.299465,0.526682
85,2279950278,0.128423,0.117150,0.053216,0.983337,-0.116911,0.636532,-0.378048
86,2279983612,0.128473,0.111275,0.050157,0.984173,-0.222788,1.506060,-0.198050
87,2280016946,0.126299,0.105050,0.047131,0.985288,-0.006045,0.724810,0.187674
88,2280050280,0.122062,0.099173,0.046008,0.986483,0.114849,1.236754,1.052900
89,2280083614,0.116345,0.095417,0.048082,0.987445,-1.098534,-0.315295,0.825364
90,2280116948,0.109680,0.091752,0.046673,0.988622,-0.545337,0.487387,0.343607
91,2280150282,0.102126,0.087743,0.045162,0.989865,-0.605289,0.452471,0.972493
92,2280183616,0.094089,0.083294,0.043395,0.991123,-0.419511,0.457899,0.778019
93,2280216950,0.086179,0.079928,0.042210,0.992171,0.122415,-0.119622,-0.001435
94,2280250284,0.078745,0.077249,0.040673,0.993064,0.366042,-0.080131,0.381149
95,2280283618,0.073133,0.076736,0.041098,0.993516,0.559275,-0.391965,0.451277
96,2280316952,0.069297,0.078617,0.040022,0.993688,0.239737,-0.459361,1.142454
97,2280350286,0.066514,0.082477,0.038030,0.993643,-0.047594,0.710327,0.691447
98,2280383620,0.064160,0.087546,0.038001,0.993365,-0.223172,-0.042646,0.705526
99,2280416954,0.062333,0.093985,0.038245,0.992884,-0.540886,0.050011,1.226535
100,2280450288,0.060783,0.100981,0.040857,0.992189,-0.520808,0.331256,0.852132
101,2280483622,0.059056,0.109045,0.045025,0.991259,0.477092,0.002541,0.200663
102,2280516956,0.057412,0.120711,0.049959,0.989766,0.890013,0.134116,0.349264
103,2280550290,0.054671,0.132327,0.053360,0.988257,1.082551,0.620545,0.185090
104,2280583624,0.050810,0.143004,0.056710,0.986789,0.681069,0.491199,0.199370
105,2280616958,0.046852,0.153438,0.061578,0.985124,0.922029,-0.732329,-0.921682
106,2280650292,0.044603,0.164679,0.065400,0.983165,-0.073965,-1.513790,-0.417013
107,2280683626,0.045038,0.174874,0.068076,0.981201,0.827946,-0.661748,-0.094028
108,2280716960,0.047203,0.187584,0.070563,0.978573,0.047605,-0.266629,-0.286229
109,2280750294,0.050280,0.198270,0.070518,0.976313,-0.054196,-0.084270,0.871439
110,2280783628,0.053249,0.209289,0.069643,0.973916,-0.305378,1.384714,-0.801945
111,2280816962,0.054871,0.220729,0.072089,0.971118,-0.675335,0.663675,0.275685
112,2280850296,0.055185,0.231646,0.072741,0.968506,-0.764825,0.762082,0.103273
113,2280883630,0.055288,0.240617,0.073638,0.966242,-0.363225,0.162949,1.374084
114,2280916964,0.054211,0.249860,0.073099,0.963995,-0.398683,1.756701,0.419286
115,2280950298,0.051778,0.257971,0.074388,0.961892,-0.867860,0.919521,0.333187
116,2280983632,0.047706,0.263531,0.073753,0.960643,-0.221344,0.786635,0.816706
117,2281016966,0.040610,0.271324,0.071877,0.958941,-0.200689,1.772133,-1.076979
118,2281050300,0.031647,0.276897,0.074684,0.957470,-0.327611,0.591576,1.395411
119,2281083634,0.021918,0.283738,0.075097,0.955705,0.149809,-0.736294,-0.330073
120,2281116968,0.014516,0.290567,0.077086,0.953634,0.334225,-1.516500,0.043155
121,2281150302,0.009963,0.298507,0.075716,0.951347,0.157733,-0.071765,-0.061048
122,2281183636,0.005313,0.307533,0.076174,0.948468,0.008287,0.018242,-0.146953
123,2281216970,0.001661,0.316508,0.077473,0.945419,0.081566,0.104657,0.113464
124,2281250304,-0.001542,0.327014,0.077229,0.941857,-0.014269,0.101247,0.297487
125,2281283638,-0.004187,0.338322,0.075353,0.937999,0.239395,0.064809,-0.054802
126,2281316972,-0.007582,0.348189,0.073866,0.934479,0.391220,0.129256,0.052700
127,2281350306,-0.011028,0.358939,0.074238,0.930338,-0.346728,0.252928,0.396691
128,2281383640,-0.014526,0.370276,0.073592,0.925888,0.010593,-0.629244,-0.202108
129,2281416974,-0.016603,0.380477,0.071926,0.921839,0.911750,-0.282365,0.337135
130,2281450308,-0.018045,0.392452,0.071490,0.916812,0.447322,0.128531,-0.203223
131,2281483642,-0.018805,0.403565,0.070434,0.912042,0.228958,0.124720,-0.297778
132,2281516976,-0.018620,0.413958,0.067800,0.907576,0.617033,0.622850,0.647496
133,2281550310,-0.018979,0.424449,0.064801,0.902930,-0.155585,0.231701,0.319732
134,2281583644,-0.019234,0.435110,0.060609,0.898129,-0.897986,0.680989,0.639753
135,2281616978,-0.018268,0.446328,0.056514,0.892896,-0.553350,-0.162598,0.153406
136,2281650312,-0.017297,0.456397,0.051778,0.888100,-0.250632,0.067240,-0.107486
137,2281683646,-0.016362,0.465753,0.049178,0.883395,-1.053217,-0.389032,-0.041362
138,2281716980,-0.015637,0.477243,0.048873,0.877272,-1.337808,0.461500,-1.471513
139,2281750314,-0.016921,0.488843,0.050825,0.870725,-0.899124,-0.228056,-0.004642
140,2281783648,-0.017523,0.499687,0.051913,0.864471,-0.563478,-0.753608,2.592752
141,2281816982,-0.016673,0.511423,0.049369,0.857748,0.227341,0.335759,0.514812
142,2281850316,-0.019642,0.523151,0.049596,0.850569,0.743585,0.531239,-1.565549
143,2281883650,-0.022631,0.534343,0.052238,0.843348,-0.294729,-0.264304,-0.417351
144,2281916984,-0.022746,0.546440,0.052636,0.835532,-0.208391,-0.497029,0.585875
145,2281950318,-0.022309,0.558643,0.050042,0.827596,0.506888,0.149930,-0.506062
146,2281983652,-0.023057,0.570287,0.050980,0.819537,0.131838,-0.083934,-0.383345
147,2282016986,-0.023699,0.582572,0.053525,0.810668,-0.383256,-0.581273,0.063931
148,2282050320,-0.022412,0.595272,0.052938,0.801465,0.054900,-0.072699,0.072509
149,2282083654,-0.020691,0.607546,0.051852,0.792320,-0.316272,1.380925,-0.181166
150,2282116988,-0.022707,0.620210,0.053390,0.782287,-0.271421,0.494437,0.032437
151,2282150322,-0.024676,0.632000,0.054870,0.772629,0.064954,0.822317,-0.316648
152,2282183656,-0.028537,0.644049,0.057758,0.762267,-0.029085,-0.355257,0.007496
153,2282216990,-0.032349,0.656099,0.061802,0.751444,-0.243862,-0.801224,-0.209963
154,2282250324,-0.035479,0.670511,0.065029,0.738191,-0.560614,0.261846,-0.411044
155,2282283658,-0.039312,0.684220,0.067747,0.725057,0.423695,0.348189,-0.162439
156,2282316992,-0.041956,0.695431,0.067859,0.714150,0.717050,1.036945,-0.022683
157,2282350326,-0.043713,0.704926,0.066953,0.704759,0.648496,1.267749,-0.126233
158,2282383660,-0.048570,0.712089,0.071095,0.696790,0.337697,0.595202,0.201680
159,2282416994,-0.057040,0.720207,0.079012,0.686881,0.003288,0.147526,-0.120139
160,2282450328,-0.062131,0.727114,0.083088,0.678631,0.854141,-0.615279,0.455909