sep=,
DeviceTag:,2B_Left
FirmwareVersion:,2.2.1
AppVersion:,2023.6.0
SyncStatus:,Synced
OutputRate:,30Hz
FilterProfile:,General
Measurement Mode:,Sensor fusion Mode - Complete(Quaternion)
StartTime: ,2026-05-01_14:30:47_495 AEST
© Movella Technologies B. V. 2005-2026

PacketCounter,SampleTimeFine,Quat_W,Quat_X,Quat_Y,Quat_Z,FreeAcc_X,FreeAcc_Y,FreeAcc_Z
1,1669899566,0.800215,-0.575441,-0.104914,-0.132365,0.036171,0.018604,0.210106
2,1669932900,0.800459,-0.576860,-0.101989,-0.126886,0.219658,-0.011317,0.299547
3,1669966234,0.800641,-0.578233,-0.099006,-0.121747,0.434157,0.005868,0.308803
4,1669999568,0.800787,-0.579434,-0.096061,-0.117355,0.614937,0.044908,0.309324
5,1670032902,0.800905,-0.580363,-0.093648,-0.113859,0.711923,0.044502,0.299289
6,1670066236,0.801023,-0.580963,-0.091994,-0.111293,0.792354,0.065144,0.315586
7,1670099570,0.801145,-0.581222,-0.091195,-0.109706,0.857766,0.090618,0.265882
8,1670132904,0.801269,-0.581133,-0.091222,-0.109244,0.883352,0.042438,0.258958
9,1670166238,0.801316,-0.580825,-0.092018,-0.109866,0.789001,-0.011542,0.162829
10,1670199572,0.801229,-0.580459,-0.093164,-0.111463,0.731461,0.053180,0.227657
11,1670232906,0.801088,-0.579949,-0.094618,-0.113882,0.581900,0.014881,0.211220
12,1670266240,0.800923,-0.579269,-0.096272,-0.117067,0.457260,0.021690,0.198357
13,1670299574,0.800780,-0.578401,-0.098246,-0.120642,0.254225,0.015314,0.164031
14,1670332908,0.800646,-0.577442,-0.100511,-0.124212,0.183720,-0.038909,0.180663
15,1670366242,0.800518,-0.576446,-0.102684,-0.127832,0.077304,-0.056856,0.198116
16,1670399576,0.800356,-0.575496,-0.104684,-0.131449,0.001224,-0.048725,0.198004
17,1670432910,0.800240,-0.574514,-0.106410,-0.135020,-0.107148,-0.040104,0.235005
18,1670466244,0.800199,-0.573471,-0.107902,-0.138470,-0.095331,-0.079468,0.295815
19,1670499578,0.800229,-0.572217,-0.109868,-0.141896,-0.104727,-0.045829,0.364326
20,1670532912,0.800324,-0.570700,-0.112319,-0.145503,-0.013694,-0.044076,0.248497
21,1670566246,0.800476,-0.569003,-0.114512,-0.149544,0.178412,0.003392,0.243312
22,1670599580,0.800654,-0.567128,-0.116689,-0.153971,0.248961,0.012436,0.274801
23,1670632914,0.800942,-0.564769,-0.119203,-0.159130,0.491267,0.079243,0.669996
24,1670666248,0.801310,-0.561557,-0.123400,-0.165325,0.555993,0.083250,0.582198
25,1670699582,0.801473,-0.557825,-0.128995,-0.172733,0.674257,0.097906,0.461955
26,1670732916,0.801560,-0.553591,-0.134317,-0.181662,0.641929,0.054594,0.500757
27,1670766250,0.801683,-0.548701,-0.139669,-0.191644,0.391963,0.048894,0.461909
28,1670799584,0.801878,-0.543130,-0.145767,-0.201885,0.248427,-0.035917,0.371305
29,1670832918,0.802364,-0.536739,-0.151902,-0.212253,0.101686,-0.145980,0.360957
30,1670866252,0.803076,-0.529721,-0.158183,-0.222368,-0.225166,-0.297309,0.205417
31,1670899586,0.803651,-0.522666,-0.165649,-0.231367,-0.413663,-0.460052,0.129557
32,1670932920,0.804137,-0.515623,-0.173490,-0.239587,-0.322481,-0.603413,0.292029
33,1670966254,0.804795,-0.508140,-0.179437,-0.248806,-0.266240,-0.682333,0.396976
34,1670999588,0.805239,-0.500652,-0.184446,-0.258691,-0.532642,-0.585910,0.112698
35,1671032922,0.805383,-0.493650,-0.189403,-0.267952,-0.440475,-0.474650,0.334549
36,1671066256,0.806307,-0.485764,-0.191700,-0.277774,-0.381399,-0.302673,0.540172
37,1671099590,0.807868,-0.476652,-0.192721,-0.288121,-0.321825,-0.234720,0.520836
38,1671132924,0.809372,-0.467218,-0.194861,-0.297753,-0.345428,-0.081084,0.481599
39,1671166258,0.810867,-0.457425,-0.197629,-0.306927,-0.032156,-0.057413,1.007089
40,1671199592,0.812863,-0.446265,-0.199320,-0.316823,-0.029577,0.082702,0.798084
41,1671232926,0.814935,-0.433924,-0.201103,-0.327343,0.190894,0.155958,1.184402
42,1671266260,0.816958,-0.419737,-0.203294,-0.339228,0.607274,0.326011,2.137587
43,1671299594,0.820054,-0.401083,-0.202084,-0.354698,0.955206,0.429342,2.553933
44,1671332928,0.822920,-0.378377,-0.201962,-0.372625,0.214512,1.225041,2.336570
45,1671366262,0.823472,-0.354199,-0.210777,-0.389890,0.889506,1.145365,2.821101
46,1671399596,0.824865,-0.323214,-0.216471,-0.410214,1.307258,0.596480,3.439316
47,1671432930,0.826867,-0.284352,-0.217946,-0.433518,0.428670,1.120737,2.876678
48,1671466264,0.824805,-0.243157,-0.228199,-0.456619,0.431128,0.611067,2.692282
49,1671499598,0.820817,-0.195884,-0.235547,-0.482089,0.915084,-0.714770,2.787705
50,1671532932,0.816826,-0.139201,-0.231969,-0.509522,-0.062591,-0.516901,2.004464
51,1671566266,0.809318,-0.078981,-0.228594,-0.535271,-0.822751,-0.433284,0.856119
52,1671599600,0.798263,-0.018084,-0.225723,-0.558123,0.135009,-1.628283,-0.250091
53,1671632934,0.786770,0.046181,-0.214313,-0.577005,-0.464665,-1.062817,-1.072825
54,1671666268,0.772421,0.106932,-0.203471,-0.592060,-0.355760,-0.253827,-1.211379
55,1671699602,0.756682,0.162319,-0.193281,-0.603101,0.434108,-1.073619,-1.951553
56,1671732936,0.742293,0.214725,-0.178834,-0.609029,0.608591,0.743982,-1.420306
57,1671766270,0.727440,0.257859,-0.168390,-0.613180,0.749381,1.340558,-1.106551
58,1671799604,0.713606,0.290627,-0.161903,-0.616517,1.087171,0.492771,-1.339846
59,1671832938,0.703679,0.318291,-0.154035,-0.616282,0.978151,0.022429,-1.332554
60,1671866272,0.697793,0.342027,-0.145101,-0.612414,0.899682,0.542707,-1.639938
61,1671899606,0.695928,0.360787,-0.134694,-0.606117,1.472245,0.788168,-1.725665
62,1671932940,0.698384,0.373451,-0.123000,-0.598054,0.750503,0.987003,-2.115803
63,1671966274,0.704856,0.379307,-0.112886,-0.588697,-0.577162,0.169740,-3.213926
64,1671999608,0.714110,0.378618,-0.106508,-0.579099,-0.639505,0.464502,-4.450323
65,1672032942,0.725609,0.370734,-0.103008,-0.570474,-1.335804,0.585776,-5.638846
66,1672066276,0.736163,0.352777,-0.106677,-0.567659,-1.782382,-1.753741,-6.288925
67,1672099610,0.744421,0.333604,-0.109080,-0.568024,-2.427499,-4.635880,-5.716526
68,1672132944,0.748412,0.318432,-0.107850,-0.571710,-3.090025,-3.836632,-5.714961
69,1672166278,0.745788,0.302503,-0.109195,-0.583415,-2.522197,-3.086390,-4.568040
70,1672199612,0.737923,0.285059,-0.113148,-0.601176,-2.279151,-3.225297,-1.578035
71,1672232946,0.727181,0.267946,-0.121538,-0.620197,-2.851832,-0.829055,1.717595
72,1672266280,0.713513,0.243485,-0.144398,-0.640911,-1.494995,0.194687,1.696667
73,1672299614,0.698233,0.218895,-0.167575,-0.660665,-0.565885,-1.537707,2.723187
74,1672332948,0.684317,0.204200,-0.181347,-0.676114,-0.954986,0.408686,4.686005
75,1672366282,0.670351,0.194592,-0.195886,-0.688764,-0.880492,1.878582,5.107475
76,1672399616,0.657431,0.193928,-0.205961,-0.698398,-0.036858,0.283143,4.788916
77,1672432950,0.648497,0.210744,-0.204701,-0.702240,-0.964190,2.958992,5.250170
78,1672466284,0.639614,0.231435,-0.207791,-0.702964,-0.865183,3.413225,3.700586
79,1672499618,0.633066,0.255752,-0.212821,-0.698948,-0.049383,2.519556,1.145103
80,1672532952,0.628704,0.279079,-0.218780,-0.692087,0.728909,2.741211,-1.026892
81,1672566286,0.626665,0.295492,-0.225237,-0.685017,2.311135,2.178723,-2.869534
82,1672599620,0.629840,0.304390,-0.228323,-0.677142,2.759749,2.630635,-4.032875
83,1672632954,0.637250,0.301719,-0.230924,-0.670490,2.610152,2.064561,-5.025147
84,1672666288,0.646015,0.280888,-0.237805,-0.668745,3.139264,1.867688,-6.229974
85,1672699622,0.655039,0.242231,-0.245138,-0.672427,1.367495,-1.082369,-6.660959
86,1672732956,0.663990,0.197217,-0.246643,-0.677786,-0.616626,-3.023237,-5.169833
87,1672766290,0.671390,0.150235,-0.243737,-0.683565,-1.624304,-3.979956,-3.564741
88,1672799624,0.673050,0.096369,-0.245183,-0.691090,-1.717212,-3.638517,-1.972494
89,1672832958,0.668879,0.035378,-0.252458,-0.698297,-0.872172,-4.065338,-0.421868
90,1672866292,0.662624,-0.024597,-0.256654,-0.703176,0.112755,-3.410390,1.210195
91,1672899626,0.653316,-0.084165,-0.258552,-0.706576,0.901622,-2.893564,1.855637
92,1672932960,0.641498,-0.139099,-0.256337,-0.709526,0.438713,-2.669304,2.986060
93,1672966294,0.625139,-0.189595,-0.250681,-0.714435,0.997049,-2.456854,2.695625
94,1672999628,0.604886,-0.233990,-0.239236,-0.722587,0.869415,-1.493606,3.445572
95,1673032962,0.582997,-0.267289,-0.220674,-0.734832,0.404630,-0.548401,3.599216
96,1673066296,0.558463,-0.292521,-0.199271,-0.750230,-0.404630,0.611506,3.303327
97,1673099630,0.533169,-0.309502,-0.177583,-0.767077,-0.806156,0.716347,3.312430
98,1673132964,0.510445,-0.317318,-0.155718,-0.783907,-0.870157,1.832638,2.697391
99,1673166298,0.490098,-0.322749,-0.139068,-0.797685,-0.932272,1.853037,2.284809
100,1673199632,0.471658,-0.327946,-0.127654,-0.808516,-1.022367,0.858850,1.499313
101,1673232966,0.456166,-0.331033,-0.118617,-0.817474,-0.631929,1.140566,0.563736
102,1673266300,0.443445,-0.333598,-0.111476,-0.824406,0.017910,0.919980,-0.200278
103,1673299634,0.433500,-0.336673,-0.105291,-0.829244,0.251693,0.415737,-0.185936
104,1673332968,0.426269,-0.338960,-0.098880,-0.832843,0.293431,-0.059277,-0.191066
105,1673366302,0.421583,-0.339868,-0.091827,-0.835661,0.526589,0.140027,-0.190719
106,1673399636,0.418712,-0.341551,-0.086347,-0.837001,0.349896,0.006088,0.464262
107,1673432970,0.417553,-0.341716,-0.082134,-0.837937,0.154132,-0.240574,0.589086
108,1673466304,0.417129,-0.341275,-0.079337,-0.838597,0.014347,-0.196407,0.280872
109,1673499638,0.417033,-0.342195,-0.078413,-0.838356,-0.079922,-0.112915,0.198319
110,1673532972,0.417924,-0.342570,-0.078023,-0.837796,-0.326022,-0.011740,0.213275
111,1673566306,0.419961,-0.341361,-0.077294,-0.837338,-0.742016,0.021186,0.338178
112,1673599640,0.423494,-0.339580,-0.076930,-0.836316,-1.227911,0.755601,0.303307
113,1673632974,0.429272,-0.338793,-0.078829,-0.833508,-1.480016,1.094343,0.143055
114,1673666308,0.437765,-0.338531,-0.082866,-0.828792,-1.576741,1.042221,-0.073783
115,1673699642,0.449360,-0.338828,-0.088790,-0.821822,-1.329904,1.345039,-0.237262
116,1673732976,0.464473,-0.339067,-0.096401,-0.812410,-1.327897,1.425112,0.548895
117,1673766310,0.483690,-0.336467,-0.105132,-0.801115,-1.329771,1.995629,1.524559
118,1673799644,0.506140,-0.330210,-0.117464,-0.788029,-1.325495,2.197394,2.505498
119,1673832978,0.530216,-0.321051,-0.135332,-0.772972,-1.077963,1.999932,2.460769
120,1673866312,0.554862,-0.306528,-0.156437,-0.757430,-1.049429,1.336826,2.491144
121,1673899646,0.579913,-0.284320,-0.177132,-0.742624,-1.213161,0.681336,2.703859
122,1673932980,0.603866,-0.255949,-0.196863,-0.728756,-0.967054,0.108470,2.319437
123,1673966314,0.625102,-0.223152,-0.215247,-0.716326,-0.780468,-0.259972,2.424045
124,1673999648,0.645259,-0.183536,-0.228985,-0.705355,-0.257571,-0.091244,1.382235
125,1674032982,0.663665,-0.140185,-0.238977,-0.694831,0.257971,-0.581196,0.968392
126,1674066316,0.678963,-0.096092,-0.245842,-0.685085,0.177426,-1.464106,0.381950
127,1674099650,0.690920,-0.053202,-0.249322,-0.676492,0.722367,-2.371271,-0.712399
128,1674132984,0.697858,-0.016662,-0.251747,-0.670331,0.702644,-2.918275,-1.021601
129,1674166318,0.700195,0.015136,-0.250750,-0.668300,0.970104,-3.363163,-1.194519
130,1674199652,0.699251,0.044623,-0.244317,-0.670350,0.897432,-3.352814,-1.829294
131,1674232986,0.694308,0.069833,-0.236308,-0.676181,0.645418,-2.284130,-1.858370
132,1674266320,0.685757,0.091244,-0.228769,-0.684894,0.879183,-1.598810,-1.493649
133,1674299654,0.675666,0.111436,-0.220597,-0.694549,0.666501,-0.603226,-1.151755
134,1674332988,0.665866,0.133934,-0.210743,-0.703047,0.447714,0.312340,-0.454799
135,1674366322,0.657908,0.159283,-0.198968,-0.708662,0.645520,1.570408,0.267071
136,1674399656,0.651681,0.185875,-0.187471,-0.711070,-0.358609,2.367201,1.531678
137,1674432990,0.646568,0.210543,-0.180296,-0.710717,-0.024381,2.693366,1.502143
138,1674466324,0.643975,0.233680,-0.175452,-0.707043,0.120132,2.768679,1.347068
139,1674499658,0.643482,0.253864,-0.172956,-0.701124,0.407475,2.304557,0.870145
140,1674532992,0.645319,0.271057,-0.171059,-0.693422,0.333176,1.259713,0.450830
141,1674566326,0.649005,0.286553,-0.167900,-0.684466,0.054334,0.547836,-0.093205
142,1674599660,0.652751,0.298429,-0.166614,-0.676092,0.124624,0.393725,-0.406736
143,1674632994,0.656953,0.307905,-0.165361,-0.668032,1.001851,-0.204205,-1.190814
144,1674666328,0.662809,0.317972,-0.160132,-0.658741,1.105130,0.222662,-0.747602
145,1674699662,0.669843,0.327026,-0.153965,-0.648585,1.058081,0.560952,-0.342619
146,1674732996,0.677892,0.333032,-0.149344,-0.638163,0.618733,0.273454,-0.940753
147,1674766330,0.688368,0.338295,-0.143782,-0.625329,0.047881,0.895111,-1.288408
148,1674799664,0.699332,0.337647,-0.143387,-0.613493,-0.353440,1.051877,-1.947201
149,1674832998,0.710770,0.329506,-0.148928,-0.603371,-0.009956,0.503048,-3.102917
150,1674866332,0.724377,0.318598,-0.152703,-0.591995,-0.575706,-0.206278,-3.774542
151,1674899666,0.738116,0.307012,-0.153721,-0.580777,-1.440658,-1.775149,-3.220273
152,1674933000,0.748832,0.296157,-0.153745,-0.572633,-2.461950,-3.068827,-2.923385
153,1674966334,0.754220,0.285691,-0.156352,-0.570168,-1.640889,-3.449712,-2.355777
154,1674999668,0.755531,0.275864,-0.160109,-0.572225,-0.700771,-3.582540,-2.164922
155,1675033002,0.753856,0.267824,-0.161777,-0.577758,-0.829399,-2.946473,-1.725151
156,1675066336,0.749414,0.260196,-0.163197,-0.586555,-0.955962,-2.073076,-1.431541
157,1675099670,0.743591,0.251888,-0.165298,-0.596914,-0.089558,-1.250059,-1.314554
158,1675133004,0.737937,0.241275,-0.168710,-0.607269,-0.031302,-0.753122,-0.388556
159,1675166338,0.732787,0.231271,-0.169967,-0.616970,-0.350924,-1.105101,-0.030665
160,1675199672,0.726488,0.219160,-0.174210,-0.627566,-0.096588,-1.116861,0.909582
161,1675233006,0.719163,0.207769,-0.177971,-0.638723,0.483285,-1.182814,1.391321
162,1675266340,0.709282,0.194215,-0.183811,-0.652240,-0.080362,-0.928285,1.670982
163,1675299674,0.697175,0.181958,-0.188961,-0.667185,1.108940,-0.244745,2.750855
164,1675333008,0.684431,0.172188,-0.191555,-0.682068,0.666554,0.709718,2.791415
165,1675366342,0.672214,0.167893,-0.189461,-0.695736,-0.032198,1.317348,3.254240
166,1675399676,0.660901,0.167139,-0.186303,-0.707509,-0.215877,2.345531,2.890888
167,1675433010,0.652439,0.170452,-0.182682,-0.715473,-0.022381,3.611071,3.043946
168,1675466344,0.648244,0.175678,-0.181024,-0.718437,0.878096,4.968090,2.685209
169,1675499678,0.649738,0.180236,-0.181031,-0.715952,1.490793,5.009763,1.647570
170,1675533012,0.657670,0.181228,-0.182498,-0.708043,1.413148,4.381948,0.065667
171,1675566346,0.672023,0.179475,-0.182594,-0.694864,1.048159,2.957634,-0.283171
172,1675599680,0.692425,0.176917,-0.179417,-0.676063,0.764972,2.746295,-1.018230
173,1675633014,0.714739,0.166054,-0.179635,-0.655217,0.090858,2.515458,-2.556100
174,1675666348,0.739689,0.149937,-0.178201,-0.631370,0.095651,-0.385849,-3.361297
175,1675699682,0.767021,0.132563,-0.169586,-0.604443,-1.946100,0.234072,-3.659389
176,1675733016,0.789050,0.104196,-0.170837,-0.580828,-1.276532,-2.672522,-3.612322
177,1675766350,0.808756,0.075620,-0.167711,-0.558634,-1.465285,-4.298589,-3.214560
178,1675799684,0.824982,0.050223,-0.157759,-0.540370,-2.262020,-4.348160,-2.414711
179,1675833018,0.833939,0.024778,-0.153985,-0.529362,-2.180975,-5.057752,-1.472328
180,1675866352,0.837503,0.003703,-0.152394,-0.524743,-1.069709,-5.091859,-0.083348
181,1675899686,0.836880,-0.012914,-0.151559,-0.525832,-0.888147,-3.809367,0.702127
182,1675933020,0.830807,-0.028690,-0.158088,-0.532868,-0.955888,-4.254960,0.952100
183,1675966354,0.821516,-0.040916,-0.164808,-0.544316,0.762191,-3.893334,1.232097
184,1675999688,0.809845,-0.050691,-0.171234,-0.558807,-0.454430,-1.733932,1.440071
185,1676033022,0.795578,-0.063123,-0.185772,-0.573205,0.395473,-0.419965,0.730102
186,1676066356,0.783215,-0.073124,-0.194037,-0.586158,0.002001,0.136982,1.020163
187,1676099690,0.772298,-0.083081,-0.201775,-0.596610,-0.785058,2.043329,0.533772
188,1676133024,0.763187,-0.095359,-0.210976,-0.603279,0.283213,1.490931,0.277159
189,1676166358,0.758409,-0.104636,-0.212577,-0.607192,-0.914021,1.612229,0.533383
190,1676199692,0.755435,-0.115163,-0.215932,-0.607809,-0.673515,2.652982,0.017146
191,1676233026,0.754233,-0.129305,-0.221046,-0.604612,-0.211870,0.990507,-0.651430
192,1676266360,0.753703,-0.147296,-0.225786,-0.599383,-0.327820,0.621605,-0.413628
193,1676299694,0.753794,-0.164814,-0.227915,-0.593876,0.059618,0.665206,0.739358
194,1676333028,0.754397,-0.180818,-0.227497,-0.588591,0.476371,-0.098962,0.363701
195,1676366362,0.753564,-0.197669,-0.228016,-0.584021,0.912979,-0.145955,1.498146
196,1676399696,0.750890,-0.213033,-0.228073,-0.582037,1.941621,-0.611857,1.586443
197,1676433030,0.746087,-0.227492,-0.227131,-0.583110,2.409942,-1.258552,1.517879
198,1676466364,0.737449,-0.242052,-0.225898,-0.588688,2.817248,-2.290781,1.587219
199,1676499698,0.724432,-0.255029,-0.221327,-0.600979,2.655781,-2.042202,1.410593
200,1676533032,0.707922,-0.265141,-0.213450,-0.618861,2.511832,-0.995905,0.580075
201,1676566366,0.687921,-0.276291,-0.206269,-0.638659,2.400779,-1.087183,-0.209907
202,1676599700,0.664525,-0.289337,-0.199285,-0.659530,1.838551,-1.404811,-0.130391
203,1676633034,0.638628,-0.301131,-0.189020,-0.682458,1.170800,-1.937001,0.087143
204,1676666368,0.610528,-0.311520,-0.175018,-0.706813,0.660733,-1.793121,-0.122555
205,1676699702,0.580416,-0.321949,-0.159068,-0.730867,0.002833,-1.387169,0.166656
206,1676733036,0.549267,-0.331225,-0.141322,-0.754074,-0.025360,-1.189674,0.089478
207,1676766370,0.517685,-0.339594,-0.121409,-0.775849,-0.260461,-0.694431,-0.149207
208,1676799704,0.485459,-0.349985,-0.101054,-0.794753,-0.541094,-0.788372,-0.386818
209,1676833038,0.454553,-0.354724,-0.074286,-0.813657,-1.565015,-1.830349,0.163068
210,1676866372,0.425362,-0.352377,-0.041553,-0.832571,-1.120271,0.434407,-0.566449
211,1676899706,0.397167,-0.356985,-0.013204,-0.845370,-1.268190,0.123506,-0.181038
212,1676933040,0.373293,-0.345744,0.022311,-0.860592,-2.169551,-0.505514,0.136210
213,1676966374,0.350526,-0.331336,0.057289,-0.874111,-0.649397,1.656843,-1.159487
214,1676999708,0.330184,-0.331732,0.083989,-0.879706,-1.430122,1.774961,-0.301271
215,1677033042,0.314277,-0.317310,0.114301,-0.887403,-2.762237,1.331070,1.683439
216,1677066376,0.300495,-0.293249,0.145638,-0.895824,-1.202482,3.430762,-0.619093
217,1677099710,0.290479,-0.277302,0.170965,-0.899722,-0.889928,3.760390,0.543392
218,1677133044,0.283236,-0.260930,0.193622,-0.902334,-1.541730,3.715286,-0.425903
219,1677166378,0.277622,-0.247469,0.213696,-0.903340,-0.222082,4.911463,1.112425
220,1677199712,0.275179,-0.245313,0.224651,-0.902016,-0.069170,4.291924,2.047269
221,1677233046,0.276176,-0.246260,0.228999,-0.900359,-0.123176,3.835035,1.713730
222,1677266380,0.280719,-0.250723,0.227484,-0.898103,-0.087234,3.711244,0.495711
223,1677299714,0.289731,-0.257600,0.223769,-0.894220,-0.362513,2.917196,-0.318733
224,1677333048,0.302670,-0.261422,0.220743,-0.889565,-0.086516,2.932240,0.661176
225,1677366382,0.320961,-0.269521,0.212499,-0.882718,-0.252122,2.890481,0.738020
226,1677399716,0.343954,-0.282247,0.197895,-0.873426,-1.321177,2.676278,0.814739
227,1677433050,0.370149,-0.299009,0.176679,-0.861610,-2.146537,2.658819,0.957570
228,1677466384,0.398268,-0.317870,0.148071,-0.847597,-2.666052,1.804367,2.641379
229,1677499718,0.427872,-0.333024,0.113679,-0.832527,-2.757508,1.304461,1.070815
230,1677533052,0.458507,-0.344695,0.076742,-0.815518,-2.461310,0.182992,1.438812
231,1677566386,0.490584,-0.352406,0.037481,-0.796075,-1.780993,0.374220,0.922953
232,1677599720,0.523441,-0.357147,-0.003930,-0.773592,-1.586517,-0.995471,1.259153
233,1677633054,0.556687,-0.352535,-0.041603,-0.751061,-0.900482,-2.256335,0.953261
234,1677666388,0.588606,-0.341275,-0.075734,-0.728932,-0.651025,-2.157785,0.713388
235,1677699722,0.617304,-0.326644,-0.109895,-0.707224,-0.267854,-2.785522,0.817514
236,1677733056,0.643120,-0.306724,-0.139783,-0.687591,0.333040,-2.898348,1.170589
237,1677766390,0.665986,-0.282002,-0.167411,-0.670011,-0.025859,-2.463156,1.453959
238,1677799724,0.684604,-0.255276,-0.195869,-0.654058,0.581269,-2.437505,0.973703
239,1677833058,0.699175,-0.226015,-0.221000,-0.641276,1.272115,-2.194041,1.419456
240,1677866392,0.710373,-0.193625,-0.240571,-0.632463,1.168899,-1.081050,1.519681
241,1677899726,0.718526,-0.158825,-0.255935,-0.626894,1.339151,-1.430014,0.889036
242,1677933060,0.724617,-0.122732,-0.265548,-0.623983,1.834002,-1.461562,0.587316
243,1677966394,0.727679,-0.087141,-0.271639,-0.623783,1.196126,-1.258200,0.426230
244,1677999728,0.728497,-0.050392,-0.273568,-0.626033,1.404873,-1.075977,-0.163507
245,1678033062,0.727581,-0.013558,-0.271807,-0.629736,1.647485,-1.192333,-0.233645
246,1678066396,0.725242,0.023950,-0.267843,-0.633810,1.317130,-0.259222,0.164426
247,1678099730,0.721901,0.061356,-0.262532,-0.637319,1.768906,0.199705,-0.202243
248,1678133064,0.718820,0.097805,-0.254868,-0.639358,2.001747,0.116921,-0.575770
249,1678166398,0.717830,0.134228,-0.242141,-0.638807,1.802857,0.500789,-0.600484
250,1678199732,0.719150,0.169651,-0.225189,-0.635087,1.236390,1.750348,-0.596207
251,1678233066,0.720821,0.196987,-0.212779,-0.629556,1.484960,2.686457,-1.134253
252,1678266400,0.724305,0.214644,-0.204245,-0.622574,1.678866,2.044684,-1.709931
253,1678299734,0.732028,0.227609,-0.192230,-0.612684,1.037596,2.159663,-1.572067
254,1678333068,0.741644,0.233195,-0.181678,-0.602147,0.524400,1.908160,-1.802949
255,1678366402,0.753493,0.233238,-0.171509,-0.590285,1.074573,1.044937,-2.060253
256,1678399736,0.768542,0.230159,-0.158181,-0.575633,0.581867,1.251568,-2.191594
257,1678433070,0.785359,0.221310,-0.144868,-0.559688,0.150193,0.706192,-2.660672
258,1678466404,0.802971,0.206448,-0.132655,-0.543160,-0.394540,-0.596338,-3.370564
259,1678499738,0.820223,0.187798,-0.119231,-0.527023,-0.451757,-0.298981,-3.700015
260,1678533072,0.836835,0.166291,-0.102914,-0.511339,-0.521504,-2.696482,-3.819993
261,1678566406,0.851340,0.147100,-0.081311,-0.496966,-2.140724,-1.732037,-2.238145
262,1678599740,0.860914,0.123420,-0.071707,-0.488320,-2.164938,-3.431444,-1.185792
263,1678633074,0.865707,0.102246,-0.069236,-0.485085,-2.031031,-4.088245,-0.669642
264,1678666408,0.866567,0.084596,-0.071219,-0.486660,-0.349496,-3.768762,0.007653
265,1678699742,0.864331,0.071741,-0.074066,-0.492243,-1.223905,-4.348032,1.353963
266,1678733076,0.857701,0.062974,-0.083811,-0.503351,-0.365332,-3.921262,1.993423
267,1678766410,0.847215,0.058459,-0.095666,-0.519289,-0.344783,-3.535984,1.813317
268,1678799744,0.833327,0.057826,-0.108504,-0.538937,-0.710209,-2.433120,2.180537
269,1678833078,0.816013,0.058678,-0.124640,-0.561381,-0.736934,-0.761427,2.198413
270,1678866412,0.798009,0.062263,-0.138852,-0.583120,-0.145785,-0.230394,2.461688
271,1678899746,0.780104,0.068392,-0.153150,-0.602752,-1.400038,0.466377,2.465699
272,1678933080,0.762755,0.078209,-0.168046,-0.619558,-1.202874,0.284219,0.977789
273,1678966414,0.747023,0.092278,-0.179875,-0.633317,0.071574,2.021500,1.189268
274,1678999748,0.734402,0.108527,-0.188458,-0.642933,-0.421064,3.146392,1.059786
275,1679033082,0.724889,0.121667,-0.200356,-0.647761,-0.136155,3.108566,-0.623230
276,1679066416,0.720384,0.132996,-0.210393,-0.647377,1.020304,2.899987,-1.526945
277,1679099750,0.720365,0.138985,-0.216718,-0.644045,1.311250,3.459977,-2.679957
278,1679133084,0.724952,0.136307,-0.222614,-0.637426,1.580989,3.492910,-3.423249
279,1679166418,0.735247,0.125499,-0.226157,-0.626513,1.594576,3.182114,-4.254499
280,1679199752,0.750603,0.105888,-0.227442,-0.611275,1.300676,2.594301,-5.072854
281,1679233086,0.768417,0.074467,-0.228583,-0.593079,1.863584,0.822182,-5.512726
282,1679266420,0.787732,0.033098,-0.223434,-0.573118,-0.041222,-1.042617,-5.376570
283,1679299754,0.805560,-0.009857,-0.211408,-0.553432,-1.547843,-3.974959,-1.553015
284,1679333088,0.818768,-0.051919,-0.200070,-0.535630,-1.977545,-4.307406,0.252406
285,1679366422,0.823703,-0.094699,-0.198560,-0.522613,-0.483863,-4.912479,1.958673
286,1679399756,0.823660,-0.132346,-0.198915,-0.514300,0.664562,-4.173761,3.460581
287,1679433090,0.819901,-0.164785,-0.199749,-0.510600,1.006536,-2.799030,3.289456
288,1679466424,0.812435,-0.194949,-0.202949,-0.510646,1.650958,-1.482583,3.363847
289,1679499758,0.803501,-0.220551,-0.202689,-0.514455,2.630014,-0.837446,2.614131
290,1679533092,0.792560,-0.244184,-0.200390,-0.521604,1.887541,-0.728380,2.638875
291,1679566426,0.780032,-0.263289,-0.195686,-0.532860,2.103098,0.097702,3.494794
292,1679599760,0.765715,-0.277789,-0.190065,-0.548081,1.687206,-0.266628,2.748632
293,1679633094,0.748476,-0.289575,-0.184439,-0.567376,1.644626,-1.216702,2.718667
294,1679666428,0.727946,-0.297947,-0.176277,-0.591821,1.214954,-1.670942,1.695980
295,1679699762,0.703211,-0.304811,-0.165988,-0.620513,0.612980,-1.608319,0.741550
296,1679733096,0.675383,-0.310120,-0.154960,-0.650903,0.418185,-0.889441,0.069293
297,1679766430,0.645617,-0.315693,-0.144321,-0.680215,0.513000,-0.473768,-0.987212
298,1679799764,0.613335,-0.324426,-0.133985,-0.707545,0.305614,-1.184727,-1.077322
299,1679833098,0.579606,-0.332354,-0.119285,-0.734419,-0.410985,-1.263270,-0.160855
300,1679866432,0.545966,-0.335487,-0.099812,-0.761190,-0.712800,-0.163494,-0.882838
301,1679899766,0.512226,-0.339730,-0.080044,-0.784733,-1.024102,-0.701429,-0.474351
302,1679933100,0.478730,-0.342201,-0.057360,-0.806492,-1.418510,-0.207369,-0.043910
303,1679966434,0.445219,-0.343106,-0.032783,-0.826431,-1.812898,-0.082312,0.192322
304,1679999768,0.411930,-0.342346,-0.006082,-0.844440,-1.798437,0.695544,0.260585
305,1680033102,0.380373,-0.338636,0.021581,-0.860337,-1.757438,1.461443,0.229121
306,1680066436,0.352241,-0.330080,0.050054,-0.874341,-1.497900,1.876964,0.481398
307,1680099770,0.327693,-0.319313,0.077031,-0.885848,-1.039246,1.963625,-0.015751
308,1680133104,0.305708,-0.308416,0.102216,-0.894974,-1.287066,1.467194,-0.501580
309,1680166438,0.286171,-0.294581,0.128075,-0.902734,-0.156476,2.344333,-0.912066
310,1680199772,0.270542,-0.283349,0.151454,-0.907516,1.086718,3.500477,-0.124560
311,1680233106,0.259424,-0.267537,0.174013,-0.911508,-1.485361,0.861357,-0.134789
312,1680266440,0.250223,-0.250178,0.197330,-0.914256,0.238639,2.789599,-0.206264
313,1680299774,0.244651,-0.236461,0.217600,-0.914815,0.202327,3.521072,-0.053801
314,1680333108,0.242855,-0.228719,0.233647,-0.913303,-1.174716,2.934417,0.905558
315,1680366442,0.243322,-0.227193,0.243243,-0.911051,-0.004429,3.069559,2.062683
316,1680399776,0.246439,-0.229594,0.246524,-0.908727,-0.197612,2.750586,1.362056
317,1680433110,0.251498,-0.232872,0.246143,-0.906607,-0.064633,2.377792,0.594567
318,1680466444,0.258467,-0.237422,0.244373,-0.903942,0.098642,1.832723,0.254921
319,1680499778,0.268154,-0.241811,0.242226,-0.900529,-0.036034,1.666884,0.031532
320,1680533112,0.280616,-0.247695,0.239309,-0.895900,-0.276507,1.593653,-0.268544
321,1680566446,0.295956,-0.256079,0.234868,-0.889761,-0.328342,1.659511,-0.024565
322,1680599780,0.314312,-0.265908,0.227734,-0.882407,-0.712952,1.868486,0.624928
323,1680633114,0.335542,-0.278540,0.216301,-0.873524,-1.182737,2.014659,0.739569
324,1680666448,0.359241,-0.293941,0.199748,-0.862930,-1.443707,2.095701,1.007442
325,1680699782,0.385937,-0.312058,0.178204,-0.849659,-1.529708,1.735190,1.216843
326,1680733116,0.415682,-0.327306,0.152984,-0.834673,-1.334134,2.196866,1.428856
327,1680766450,0.448437,-0.342821,0.122182,-0.816366,-1.939137,1.239494,1.491035
328,1680799784,0.483204,-0.353413,0.088403,-0.796117,-1.415482,1.776031,2.512990
329,1680833118,0.520737,-0.356207,0.050029,-0.774242,-1.797239,1.860232,2.083846
330,1680866452,0.560512,-0.352890,0.007854,-0.749158,-2.103220,1.443354,1.969691
331,1680899786,0.601274,-0.342352,-0.034102,-0.721184,-1.848018,0.600230,2.225831
332,1680933120,0.641335,-0.323943,-0.073695,-0.691610,-1.632047,-1.107088,1.994624
333,1680966454,0.678584,-0.297252,-0.106703,-0.663162,-0.578054,-2.273671,2.669693
334,1680999788,0.711800,-0.262255,-0.133826,-0.637697,-0.250541,-2.690343,3.122828
335,1681033122,0.739568,-0.222202,-0.158442,-0.615276,0.723769,-3.860212,2.008693
336,1681066456,0.761999,-0.176530,-0.176758,-0.597458,0.894830,-3.702995,2.015732
337,1681099790,0.779583,-0.127007,-0.190900,-0.582821,1.422562,-3.947864,1.142051
338,1681133124,0.792881,-0.075473,-0.199914,-0.570685,1.905184,-4.036312,0.416687
339,1681166458,0.801339,-0.024231,-0.205648,-0.561232,1.856694,-2.810910,-0.596471
340,1681199792,0.804618,0.022988,-0.210976,-0.554575,2.323772,-2.217084,-1.295584
341,1681233126,0.805858,0.067562,-0.210436,-0.549317,2.392361,-1.411353,-1.988126
342,1681266460,0.805097,0.107636,-0.206964,-0.545347,2.389039,-0.823709,-1.923986
343,1681299794,0.803575,0.143012,-0.200579,-0.541836,2.181706,0.110511,-2.209590
344,1681333128,0.802540,0.172873,-0.192144,-0.537707,1.888367,0.634510,-1.930135
345,1681366462,0.801922,0.196376,-0.184860,-0.533094,1.474922,1.514258,-1.886754
346,1681399796,0.802706,0.212535,-0.178835,-0.527743,2.072423,2.332584,-2.100017
347,1681433130,0.807090,0.221523,-0.171376,-0.519777,2.274952,3.003998,-2.586820
348,1681466464,0.815750,0.221671,-0.161433,-0.509271,1.685756,2.814699,-3.273258
349,1681499798,0.827345,0.210309,-0.151742,-0.498245,0.887432,1.440462,-3.644785
350,1681533132,0.839626,0.188823,-0.144858,-0.488256,0.397250,-0.644902,-4.256678
351,1681566466,0.852874,0.165339,-0.128877,-0.478187,-0.018871,-3.177917,-3.943934
352,1681599800,0.863569,0.149362,-0.102349,-0.470603,-2.416306,-5.328679,-1.411530
353,1681633134,0.867129,0.140474,-0.083066,-0.470593,-2.966484,-5.554750,0.563949
354,1681666468,0.864097,0.134740,-0.080401,-0.478248,-2.060489,-3.989723,0.864167
355,1681699802,0.857830,0.134237,-0.085378,-0.488695,-1.056605,-2.825492,1.858325
356,1681733136,0.849513,0.137760,-0.094511,-0.500421,-0.841536,-1.677339,2.129387
357,1681766470,0.839123,0.143618,-0.105712,-0.513883,0.034238,-1.354498,2.491117
358,1681799804,0.827636,0.153920,-0.114070,-0.527560,-0.225577,-0.557733,2.783984
359,1681833138,0.814769,0.167195,-0.123229,-0.541309,0.012682,0.106277,2.969858
360,1681866472,0.801194,0.184197,-0.130589,-0.554174,0.037888,-0.051827,3.038673
361,1681899806,0.787127,0.205445,-0.135232,-0.565632,-0.055977,0.321712,2.351079
362,1681933140,0.772751,0.229214,-0.138346,-0.575483,0.115555,0.436200,1.230520
363,1681966474,0.759168,0.256199,-0.137913,-0.582245,-0.392936,0.493741,0.945971
364,1681999808,0.745829,0.282936,-0.138483,-0.586952,-0.211421,1.235401,-0.027667
365,1682033142,0.732804,0.306760,-0.140417,-0.590918,0.729930,1.024383,-0.802423
366,1682066476,0.721354,0.328893,-0.140492,-0.593080,1.154922,1.283510,-0.565274
367,1682099810,0.711463,0.347848,-0.140146,-0.594293,1.050355,1.466453,-0.300592
368,1682133144,0.702673,0.361847,-0.142180,-0.595908,1.280292,1.201418,-0.584977
369,1682166478,0.696656,0.374525,-0.141592,-0.595279,1.608668,0.896314,-0.915381
370,1682199812,0.694181,0.386696,-0.135782,-0.591732,1.013255,1.456874,-0.753754
371,1682233146,0.693841,0.395020,-0.130340,-0.587843,0.322503,1.411909,-0.842302
372,1682266480,0.696130,0.400032,-0.126083,-0.582652,0.001689,1.267172,-1.339881
373,1682299814,0.700830,0.400256,-0.123942,-0.577299,-0.019492,1.886162,-2.364093
374,1682333148,0.707884,0.393976,-0.124568,-0.572861,-0.108580,1.771616,-3.150602
375,1682366482,0.717387,0.382326,-0.126667,-0.568455,-0.670443,0.739971,-4.370424
376,1682399816,0.729115,0.365733,-0.128767,-0.563962,-0.828225,1.109118,-6.201980
377,1682433150,0.741419,0.340398,-0.133017,-0.562794,-0.359420,0.638633,-5.737198
378,1682466484,0.753656,0.306354,-0.140331,-0.564323,-0.285305,-0.008156,-4.755359
379,1682499818,0.768050,0.268601,-0.143498,-0.563351,0.434678,-1.236497,-4.624362
380,1682533152,0.783661,0.229307,-0.139555,-0.560199,-0.510608,-1.360830,-3.474486
381,1682566486,0.797709,0.185462,-0.137248,-0.557163,-1.092806,-2.217913,-1.798569
382,1682599820,0.808012,0.137695,-0.140836,-0.555271,-1.126439,-3.780173,-0.052480
383,1682633154,0.814299,0.091521,-0.147976,-0.553759,-2.119809,-5.024730,2.005828
384,1682666488,0.815883,0.048421,-0.160309,-0.553439,0.371176,-4.625055,1.881579
385,1682699822,0.813122,0.010282,-0.170313,-0.556528,-0.452640,-4.086895,4.644834
386,1682733156,0.805851,-0.021667,-0.181792,-0.563108,-0.002065,-2.327500,4.879065
387,1682766490,0.798193,-0.044883,-0.188119,-0.570516,-0.922130,-0.067188,5.484591
388,1682799824,0.791579,-0.056968,-0.190094,-0.577949,-0.049199,2.535919,6.384274
389,1682833158,0.787577,-0.058018,-0.189168,-0.583588,-0.740589,4.689201,6.591600
390,1682866492,0.785933,-0.049384,-0.190362,-0.586206,-0.728201,4.128478,6.015617
391,1682899826,0.786090,-0.031296,-0.191124,-0.586991,-0.788193,4.150073,4.043105
392,1682933160,0.788713,-0.006501,-0.188795,-0.585021,-0.276192,3.124670,2.154284
393,1682966494,0.793264,0.020619,-0.186361,-0.579292,-0.980248,2.239285,1.027716
394,1682999828,0.797518,0.044930,-0.189079,-0.571139,0.535407,0.961224,-1.045142
395,1683033162,0.801673,0.063849,-0.193713,-0.561892,1.080918,1.061680,-2.981886
396,1683066496,0.806496,0.075017,-0.197468,-0.552219,1.983301,0.705636,-4.312617
397,1683099830,0.812430,0.075664,-0.199365,-0.542669,2.188037,0.608574,-5.176682
398,1683133164,0.819780,0.064074,-0.199046,-0.533142,3.103502,0.202186,-6.521758
399,1683166498,0.828706,0.041167,-0.192650,-0.523871,1.729535,-0.705458,-5.781743
400,1683199832,0.836288,0.007327,-0.186518,-0.515542,1.700587,-1.996431,-4.716270
401,1683233166,0.843630,-0.029991,-0.172086,-0.507720,1.385890,-4.299383,-2.376613
402,1683266500,0.844555,-0.070242,-0.161679,-0.505624,0.921744,-4.955742,-0.113091
403,1683299834,0.837632,-0.111220,-0.158941,-0.510631,1.859666,-5.672848,1.974117
404,1683333168,0.825896,-0.146424,-0.153371,-0.522433,2.480639,-5.425124,2.772958
405,1683366502,0.808958,-0.177153,-0.144562,-0.541580,1.859358,-3.871915,2.994405
406,1683399836,0.786957,-0.203364,-0.134700,-0.566747,1.259797,-2.299265,2.573772
407,1683433170,0.760411,-0.228186,-0.125026,-0.595046,1.058259,-2.651887,1.494397
408,1683466504,0.729850,-0.249459,-0.111562,-0.626615,0.148578,-1.460692,2.505465
409,1683499838,0.695754,-0.265490,-0.095066,-0.660612,-0.062498,-1.241843,1.686362
410,1683533172,0.658986,-0.279869,-0.077248,-0.693864,-0.862127,-0.163698,1.645372
411,1683566506,0.620576,-0.291681,-0.060428,-0.725369,-1.028531,0.368561,1.561430
412,1683599840,0.581424,-0.301064,-0.043866,-0.754577,-1.241533,-0.310892,0.759876
413,1683633174,0.542665,-0.306326,-0.024205,-0.781727,-1.660300,0.340426,0.786494
414,1683666508,0.504639,-0.306655,-0.004283,-0.807024,-1.372561,1.273096,1.124068
415,1683699842,0.468894,-0.306492,0.012294,-0.828284,-1.176234,1.528208,0.106745
416,1683733176,0.436087,-0.308368,0.025846,-0.845029,-1.065193,1.035171,-0.187840
417,1683766510,0.405744,-0.308739,0.040331,-0.859319,-1.334189,0.761975,-0.530460
418,1683799844,0.376648,-0.310515,0.055403,-0.871006,-1.138629,1.301189,-1.076833
419,1683833178,0.349628,-0.312342,0.071871,-0.880365,-1.498925,0.570440,-0.646113
420,1683866512,0.324714,-0.310018,0.090358,-0.888982,-0.544787,1.432930,-1.046224
421,1683899846,0.303423,-0.310731,0.107789,-0.894296,-0.450550,1.144917,-0.604729
422,1683933180,0.285494,-0.307762,0.127466,-0.898628,-0.301087,1.165046,-0.248245
423,1683966514,0.269833,-0.305449,0.146964,-0.901275,0.189199,1.813811,-0.565424
424,1683999848,0.257640,-0.306755,0.165218,-0.901238,-0.708527,1.703604,0.566739
425,1684033182,0.248544,-0.297848,0.185201,-0.902894,-0.427915,2.200759,0.971818
426,1684066516,0.243307,-0.288088,0.202053,-0.903873,0.728466,3.068074,0.830991
427,1684099850,0.238926,-0.285204,0.215947,-0.902742,-2.195982,1.213383,0.228076
428,1684133184,0.231247,-0.271727,0.233801,-0.904450,-1.846744,2.140757,0.104350
429,1684166518,0.224377,-0.261684,0.247229,-0.905571,0.744857,3.034895,1.218216
430,1684199852,0.222913,-0.261496,0.252167,-0.904624,0.214699,1.963983,1.271330
431,1684233186,0.223151,-0.261689,0.253473,-0.904145,-0.065373,1.618631,1.025249
432,1684266520,0.224242,-0.261184,0.253218,-0.904092,0.444156,1.922309,0.700438
433,1684299854,0.228265,-0.260962,0.251687,-0.903577,0.477435,2.114606,0.445044
434,1684333188,0.235785,-0.262866,0.248500,-0.901975,0.242917,2.286320,0.265763
435,1684366522,0.246134,-0.266094,0.244117,-0.899457,-0.035450,2.239695,0.040776
436,1684399856,0.258813,-0.270559,0.238718,-0.896009,-0.001811,2.374732,0.162066
437,1684433190,0.274174,-0.276328,0.232555,-0.891288,-0.393641,1.741040,-0.105685
438,1684466524,0.291987,-0.282218,0.226332,-0.885367,-0.451364,1.614753,0.393481
439,1684499858,0.311994,-0.289677,0.217220,-0.878388,-0.521758,1.983668,0.646483
440,1684533192,0.334442,-0.299334,0.203518,-0.870133,-0.890758,1.926835,1.160572
441,1684566526,0.360092,-0.311013,0.183382,-0.860221,-1.331540,2.118828,0.685122
442,1684599860,0.388482,-0.325116,0.159218,-0.847369,-1.832648,0.866203,1.333341
443,1684633194,0.417584,-0.334222,0.133652,-0.834302,-1.639560,1.067745,1.468999
444,1684666528,0.447412,-0.342558,0.104216,-0.819524,-1.736876,0.671812,1.160120
445,1684699862,0.477621,-0.347929,0.072188,-0.803503,-1.474196,0.531646,1.800456
446,1684733196,0.508404,-0.350681,0.036364,-0.785640,-1.070976,0.172693,1.682390
447,1684766530,0.538450,-0.347523,0.000643,-0.767661,-0.474108,-1.220827,2.353996
448,1684799864,0.567158,-0.336309,-0.033973,-0.751052,-0.455620,-0.287645,2.364354
449,1684833198,0.593014,-0.320627,-0.069615,-0.735317,0.201442,-1.858078,2.874722
450,1684866532,0.616965,-0.293115,-0.098855,-0.723650,0.111233,-1.278726,2.517262
451,1684899866,0.638462,-0.260754,-0.127550,-0.712817,-0.191755,-1.459793,1.547184
452,1684933200,0.657430,-0.225850,-0.154932,-0.701981,-0.175566,-1.512810,1.041281
453,1684966534,0.673783,-0.187598,-0.178893,-0.691972,-0.182122,-2.526864,0.713466
454,1684999868,0.687849,-0.145871,-0.196988,-0.683216,0.000186,-2.459086,-0.082075
455,1685033202,0.700560,-0.100066,-0.207600,-0.675358,-0.134213,-2.622145,-0.671206
456,1685066536,0.710499,-0.054805,-0.214813,-0.667867,-0.160228,-2.801561,-0.453307
457,1685099870,0.715923,-0.012970,-0.220907,-0.662186,0.147656,-3.002639,-0.868789
458,1685133204,0.717885,0.026769,-0.224373,-0.658471,0.445568,-2.499462,-1.345626
459,1685166538,0.716637,0.063703,-0.225932,-0.656759,0.674940,-2.075086,-1.536406
460,1685199872,0.712381,0.096251,-0.227002,-0.657056,1.293121,-1.816503,-1.822589
461,1685233206,0.707697,0.129816,-0.222043,-0.658038,0.693976,-1.810597,-1.064619
462,1685266540,0.701917,0.163516,-0.216316,-0.658625,0.659412,0.174423,-0.412903
463,1685299874,0.694577,0.194116,-0.213571,-0.658995,1.229460,0.676839,-0.149986
464,1685333208,0.687741,0.224464,-0.208374,-0.658189,1.011030,0.511406,0.105588
465,1685366542,0.682167,0.256932,-0.198503,-0.655160,1.217409,0.579852,0.497837
466,1685399876,0.677639,0.290679,-0.184908,-0.649710,1.045106,1.437597,0.902120
467,1685433210,0.672634,0.319223,-0.173492,-0.644643,0.768868,0.974401,0.370467
468,1685466544,0.668576,0.345055,-0.162120,-0.638486,0.484489,0.634339,0.006196
469,1685499878,0.665971,0.369155,-0.150354,-0.630559,0.130541,0.651542,-0.161570
470,1685533212,0.663909,0.389914,-0.140483,-0.622464,0.213099,0.604120,-0.375116
471,1685566546,0.662742,0.407810,-0.131300,-0.614190,0.637116,0.044121,-0.924158
472,1685599880,0.663645,0.424018,-0.121415,-0.604191,0.857148,0.793176,-1.469545
473,1685633214,0.666237,0.437344,-0.111748,-0.593612,0.657800,1.080647,-1.311908
474,1685666548,0.670199,0.445721,-0.105052,-0.584067,1.206935,1.614829,-1.539896
475,1685699882,0.676835,0.449659,-0.099228,-0.574333,1.566054,2.136188,-1.331830
476,1685733216,0.686509,0.448457,-0.094356,-0.564528,1.427982,2.573530,-0.920276
477,1685766550,0.700772,0.443569,-0.088361,-0.551690,1.513817,3.482951,-0.661146
478,1685799884,0.720158,0.430731,-0.082768,-0.537584,0.995860,3.577815,-1.374377
479,1685833218,0.744150,0.410622,-0.075493,-0.521473,0.007399,3.376848,-2.038014
480,1685866552,0.769907,0.386010,-0.067151,-0.503720,-1.058511,0.068466,-2.749314
481,1685899886,0.794188,0.364988,-0.053015,-0.482951,-2.115316,-3.635572,-2.438254
482,1685933220,0.812675,0.348206,-0.039332,-0.465584,-3.224198,-4.668190,-1.067881
483,1685966554,0.823026,0.334150,-0.037861,-0.457758,-2.227073,-5.291157,-0.929111
484,1685999888,0.826079,0.327523,-0.041227,-0.456756,-0.767718,-5.449059,-0.472389
485,1686033222,0.823789,0.328598,-0.045307,-0.459723,-0.862645,-4.257279,-0.190925
486,1686066556,0.816917,0.334080,-0.050667,-0.467412,-1.316342,-3.448252,-0.723743
487,1686099890,0.806927,0.343371,-0.054512,-0.477492,-1.775332,-1.888270,-0.734111
488,1686133224,0.795498,0.353370,-0.058417,-0.488778,-1.303267,-0.537748,-0.389039
489,1686166558,0.784233,0.363881,-0.061665,-0.498769,-1.573962,-0.978757,-0.235094
490,1686199892,0.773532,0.375539,-0.067035,-0.506091,-1.513318,0.413182,0.487599
491,1686233226,0.764392,0.386742,-0.073377,-0.510642,-0.474857,0.424491,0.738960
492,1686266560,0.756685,0.397907,-0.079949,-0.512552,-1.398111,0.227471,0.702021
493,1686299894,0.749931,0.408834,-0.088573,-0.512462,0.085641,0.482229,1.077645
494,1686333228,0.745051,0.420400,-0.094468,-0.509159,0.286354,0.468349,0.779648
495,1686366562,0.741280,0.432908,-0.098052,-0.503472,0.462486,0.581050,0.927489
496,1686399896,0.738917,0.445999,-0.099113,-0.495244,0.839908,0.896565,0.824431
497,1686433230,0.737908,0.459264,-0.098870,-0.484558,0.731403,0.602222,0.202759
498,1686466564,0.738124,0.474197,-0.094477,-0.470519,0.998611,0.838750,0.257686
499,1686499898,0.738806,0.487067,-0.089905,-0.457003,0.931260,1.551076,0.588717
500,1686533232,0.739800,0.495711,-0.088739,-0.446202,1.825683,1.787483,0.547836
501,1686566566,0.741848,0.499326,-0.090358,-0.438376,2.420981,2.098462,0.032659
502,1686599900,0.744902,0.497192,-0.093205,-0.435015,2.879796,2.463437,-0.709433
503,1686633234,0.749547,0.488173,-0.096227,-0.436591,3.173811,1.459912,-1.398079
504,1686666568,0.756162,0.475024,-0.095313,-0.439876,2.753043,0.823420,-1.667841
505,1686699902,0.764861,0.456088,-0.093527,-0.445228,2.445523,2.552616,-1.954261
506,1686733236,0.776615,0.429501,-0.090394,-0.451918,1.988954,2.219242,-2.790770
507,1686766570,0.789488,0.399041,-0.085416,-0.458458,0.771473,0.516520,-1.845805
508,1686799904,0.802430,0.365603,-0.080547,-0.464711,0.382024,-1.768789,-2.320941
509,1686833238,0.812684,0.334632,-0.072322,-0.471529,-1.295627,-4.509547,-1.162669
510,1686866572,0.817040,0.308017,-0.067797,-0.482678,-1.640606,-4.991821,0.031825
511,1686899906,0.815914,0.286454,-0.068115,-0.497587,-1.344963,-4.565722,0.561224
512,1686933240,0.810280,0.270170,-0.071675,-0.515093,-1.383764,-4.049929,1.119375
513,1686966574,0.800781,0.258373,-0.078960,-0.534568,-1.406265,-2.628814,1.801973
514,1686999908,0.788289,0.250818,-0.088871,-0.554794,-1.085133,-1.365121,2.778585
515,1687033242,0.774068,0.246709,-0.101208,-0.574207,-1.323242,0.327533,2.404549
516,1687066576,0.759542,0.245245,-0.114664,-0.591444,-0.742418,0.743916,2.404465
517,1687099910,0.745481,0.248094,-0.126075,-0.605653,-1.023366,1.798246,2.693686
518,1687133244,0.732261,0.252527,-0.137479,-0.617355,-0.202795,1.850891,1.584654
519,1687166578,0.720267,0.259130,-0.145482,-0.626822,-0.095350,1.514136,1.243238
520,1687199912,0.709098,0.266886,-0.150181,-0.635139,0.035941,1.928216,0.587669
521,1687233246,0.699814,0.273801,-0.152941,-0.641799,0.120608,1.976129,0.004984
522,1687266580,0.693462,0.279175,-0.154753,-0.645931,-0.055556,2.051524,-0.475513
523,1687299914,0.690661,0.282342,-0.156010,-0.647252,0.156232,2.708411,-1.149212
524,1687333248,0.692241,0.281502,-0.157000,-0.645689,1.246963,2.856089,-1.886950
525,1687366582,0.699983,0.277770,-0.153924,-0.639671,1.459785,3.808582,-1.687536
526,1687399916,0.714054,0.267017,-0.151238,-0.629254,1.565830,4.435579,-2.186107
527,1687433250,0.733642,0.244060,-0.150522,-0.616078,3.294123,3.655134,-4.442421
528,1687466584,0.758561,0.210412,-0.143535,-0.599761,2.052194,2.203838,-5.625273
529,1687499918,0.782323,0.165187,-0.135996,-0.584972,0.606922,-0.425106,-4.147268
530,1687533252,0.801230,0.118152,-0.123830,-0.573359,-1.324036,-7.723727,-0.466325
531,1687566586,0.810864,0.081705,-0.109074,-0.569149,-1.883279,-8.187225,2.119070
532,1687599920,0.809301,0.051323,-0.105478,-0.575566,0.507808,-7.290464,3.229473
533,1687633254,0.799157,0.024578,-0.108072,-0.590820,2.596747,-5.127958,1.343781
534,1687666588,0.783453,-0.001843,-0.107234,-0.612130,1.640660,-3.381635,0.819148
535,1687699922,0.762909,-0.030145,-0.104364,-0.637317,0.944224,-2.305014,0.156001
536,1687733256,0.737781,-0.059945,-0.098257,-0.665158,0.747120,-2.070560,-0.798192
537,1687766590,0.708104,-0.091167,-0.088219,-0.694621,0.361323,-0.812168,-0.736709
538,1687799924,0.675955,-0.121609,-0.074842,-0.722979,-0.761041,-0.813225,1.476773
539,1687833258,0.642178,-0.148180,-0.059847,-0.749714,-0.504076,-0.153662,1.338231
540,1687866592,0.606778,-0.171644,-0.043842,-0.774881,-0.889102,-0.274983,2.048692
541,1687899926,0.570592,-0.189901,-0.028053,-0.798486,-0.789601,1.297875,2.761019
542,1687933260,0.534475,-0.207585,-0.016672,-0.819128,-0.119413,0.777608,1.608516
543,1687966594,0.499682,-0.220148,-0.004176,-0.837758,-0.384404,0.515298,2.062067
544,1687999928,0.466581,-0.225524,0.008383,-0.855205,0.078899,1.173355,1.800458
545,1688033262,0.435456,-0.229801,0.018606,-0.870188,0.154627,0.668919,1.108154
546,1688066596,0.406083,-0.232733,0.028711,-0.883239,-0.485455,0.260722,0.514254
547,1688099930,0.378282,-0.233133,0.039382,-0.894989,-0.606962,0.548836,0.454633
548,1688133264,0.353130,-0.233122,0.049504,-0.904714,-0.268238,0.798359,-0.007396
549,1688166598,0.331122,-0.236726,0.058322,-0.911549,-1.026648,0.593870,-0.699616
550,1688199932,0.312480,-0.238215,0.068466,-0.917020,-1.223195,0.748343,-0.024579
551,1688233266,0.296224,-0.238159,0.079076,-0.921565,-1.384135,0.629502,-0.369369
552,1688266600,0.280922,-0.238762,0.089815,-0.925210,-1.568928,0.821616,-0.860287
553,1688299934,0.266682,-0.239140,0.100584,-0.928213,-1.651062,0.978379,-0.462400
554,1688333268,0.254022,-0.237133,0.111892,-0.930980,-1.137713,1.348418,-0.876168
555,1688366602,0.242825,-0.230468,0.124628,-0.934019,-1.073888,1.301127,-0.343008
556,1688399936,0.233101,-0.221366,0.138633,-0.936721,-1.448505,1.175933,-0.365492
557,1688433270,0.224678,-0.212422,0.153198,-0.938579,0.081857,1.826152,0.004047
558,1688466604,0.218760,-0.205319,0.167535,-0.939108,0.226097,1.693415,-1.041228
559,1688499938,0.214739,-0.198701,0.184494,-0.938281,0.099762,2.349138,-1.131629
560,1688533272,0.213045,-0.198063,0.200155,-0.935588,0.098844,2.202483,0.728725
561,1688566606,0.214461,-0.201045,0.212734,-0.931845,0.378403,1.780008,0.203376
562,1688599940,0.218132,-0.206058,0.224979,-0.927010,0.327515,1.286177,-0.841115
563,1688633274,0.222909,-0.209867,0.239574,-0.921345,-0.053275,1.321037,-0.374326
564,1688666608,0.228257,-0.212471,0.254058,-0.915540,0.033197,1.757790,1.104598
565,1688699942,0.233791,-0.218352,0.264459,-0.909796,-0.595803,0.885773,2.444813
566,1688733276,0.239395,-0.225916,0.268276,-0.905364,-0.115183,0.830911,3.145138
567,1688766610,0.244021,-0.236482,0.263725,-0.902764,0.643154,0.216103,3.578783
568,1688799944,0.248607,-0.248177,0.252140,-0.901683,-0.300960,-0.679685,2.801720
569,1688833278,0.252380,-0.256330,0.236935,-0.902477,0.566336,0.370258,2.276636
570,1688866612,0.256041,-0.265803,0.216523,-0.903832,0.210723,0.951667,2.016070
571,1688899946,0.259905,-0.274122,0.191094,-0.905976,-0.647497,1.758883,1.949890
572,1688933280,0.265024,-0.282465,0.160514,-0.907863,-0.488214,2.969646,0.940508
573,1688966614,0.271947,-0.295333,0.124283,-0.907403,-1.367643,2.871779,1.133768
574,1688999948,0.280774,-0.300475,0.087008,-0.907366,-1.666517,2.952844,0.283134
575,1689033282,0.293927,-0.301852,0.048624,-0.905611,-0.848723,3.434711,-0.232698
576,1689066616,0.313397,-0.303185,0.008147,-0.899888,-1.006003,2.779841,-0.198208
577,1689099950,0.337742,-0.298570,-0.030800,-0.892100,-1.346246,2.280014,0.060778
578,1689133284,0.365124,-0.290716,-0.069100,-0.881702,-1.299143,2.487100,0.487202
579,1689166618,0.395480,-0.273852,-0.104110,-0.870497,-2.138523,0.771200,1.778155
580,1689199952,0.428583,-0.244832,-0.132826,-0.859497,-1.371609,1.573911,3.044549
581,1689233286,0.462142,-0.208824,-0.159406,-0.847001,-0.917524,-0.546183,2.763876
582,1689266620,0.497409,-0.153814,-0.172347,-0.836197,-1.229965,-1.757593,3.397336
583,1689299954,0.530720,-0.089419,-0.179184,-0.823552,-0.928833,-1.298704,5.212281
584,1689333288,0.562854,-0.017944,-0.185583,-0.805256,-1.233809,-3.134214,3.126321
585,1689366622,0.591361,0.055954,-0.189285,-0.781880,-0.668451,-3.454730,0.085041
586,1689399956,0.614562,0.126608,-0.190925,-0.754875,0.154068,-3.126991,-1.606428
587,1689433290,0.636638,0.192388,-0.187800,-0.722783,1.805472,-1.958282,-3.208310
588,1689466624,0.659731,0.249896,-0.177893,-0.686051,2.619428,-0.069699,-3.721961
589,1689499958,0.683335,0.292504,-0.165854,-0.648067,2.383744,1.156228,-3.608255
590,1689533292,0.707318,0.318126,-0.155956,-0.611702,1.957785,1.164539,-3.691137
591,1689566626,0.729814,0.327481,-0.150331,-0.580975,1.294498,0.757599,-3.785303
592,1689599960,0.750949,0.325638,-0.145347,-0.555800,1.174462,-0.562200,-3.305673
593,1689633294,0.771463,0.318639,-0.137425,-0.533321,0.137669,-0.627663,-2.925773
594,1689666628,0.789672,0.306194,-0.131972,-0.515025,0.244142,-1.135405,-2.791693
595,1689699962,0.805005,0.291121,-0.126649,-0.501179,0.215751,-3.788435,-2.841908
596,1689733296,0.816769,0.285525,-0.111021,-0.488920,-0.331229,-6.128116,-2.243513
597,1689766630,0.821583,0.288434,-0.094350,-0.482607,-1.025073,-5.337020,-0.843293
598,1689799964,0.818617,0.293927,-0.088822,-0.485374,0.276889,-4.363389,0.074680
599,1689833298,0.810518,0.301430,-0.089601,-0.494142,0.391516,-2.780725,-0.297912
600,1689866632,0.798630,0.309326,-0.095266,-0.507381,0.652431,-1.726163,-0.340724
601,1689899966,0.784438,0.317522,-0.100803,-0.523144,1.081477,-0.894413,0.013186
602,1689933300,0.768852,0.324864,-0.105288,-0.540600,0.863532,0.187682,0.554602
603,1689966634,0.752993,0.331300,-0.109648,-0.557874,0.501600,0.643283,1.020346
604,1689999968,0.737809,0.338506,-0.113691,-0.572825,0.146047,1.305515,1.295614
605,1690033302,0.723579,0.346038,-0.117677,-0.585531,0.100604,1.615639,1.519767
606,1690066636,0.711300,0.354151,-0.120533,-0.595067,0.245558,2.163564,1.445409
607,1690099970,0.701179,0.361987,-0.122841,-0.601854,0.001275,2.186737,1.258706
608,1690133304,0.693095,0.368713,-0.125376,-0.606593,-0.164905,2.128621,0.872219
609,1690166638,0.687607,0.375327,-0.126881,-0.608466,0.215550,1.664840,0.187661
610,1690199972,0.684729,0.382021,-0.126925,-0.607536,-0.172064,1.593367,-0.043347
611,1690233306,0.683239,0.387288,-0.127868,-0.605679,-0.034475,1.271974,-0.343180
612,1690266640,0.683088,0.391306,-0.128749,-0.603074,0.499342,0.917790,-0.700885
613,1690299974,0.684555,0.395093,-0.128052,-0.599077,0.359316,1.185716,-0.373044
614,1690333308,0.687052,0.397039,-0.128083,-0.594910,0.798843,1.172585,-0.407151
615,1690366642,0.691562,0.397352,-0.126977,-0.589690,1.165439,1.689222,-0.441722
616,1690399976,0.698808,0.395076,-0.124028,-0.583269,1.030252,2.667629,-0.493710
617,1690433310,0.708654,0.387850,-0.121070,-0.576825,1.304715,2.429760,-0.886478
618,1690466644,0.722055,0.378251,-0.114595,-0.567832,0.957465,2.431371,-0.737823
619,1690499978,0.738034,0.364793,-0.108774,-0.557139,0.309176,1.746567,-0.957231
620,1690533312,0.755951,0.345753,-0.103924,-0.546075,0.521633,0.926923,-1.673115
621,1690566646,0.774924,0.325392,-0.095050,-0.533463,-0.497864,-1.834133,-1.486375
622,1690599980,0.791396,0.306648,-0.085513,-0.521872,-1.553084,-3.348555,-1.050702
623,1690633314,0.802530,0.290134,-0.079672,-0.515193,-0.942451,-5.247283,-1.020103
624,1690666648,0.807339,0.283440,-0.073067,-0.512378,-2.188895,-5.998748,1.235662
625,1690699982,0.804420,0.281998,-0.076054,-0.517305,-1.174390,-4.467382,1.763967
626,1690733316,0.795864,0.284509,-0.084152,-0.527804,-0.712990,-3.432426,1.519447
627,1690766650,0.783439,0.291477,-0.091855,-0.541138,-0.423482,-2.081171,1.564510
628,1690799984,0.769101,0.302244,-0.096881,-0.554752,-0.357854,-0.873146,1.435097
629,1690833318,0.753777,0.315747,-0.100443,-0.567485,-0.872595,-0.813946,1.257899
630,1690866652,0.737400,0.330911,-0.104277,-0.579543,-0.510967,-0.054372,0.716805
631,1690899986,0.720138,0.345406,-0.108984,-0.591795,-0.538016,0.410876,0.226528
632,1690933320,0.702549,0.359052,-0.114174,-0.603717,-0.377959,0.658747,0.022566
633,1690966654,0.685659,0.373435,-0.118454,-0.613507,-0.300564,1.074928,-0.146441
634,1690999988,0.669774,0.387692,-0.122511,-0.621364,-0.090181,1.904100,-0.207470
635,1691033322,0.654680,0.400067,-0.127516,-0.628557,0.308755,1.841640,-0.196305
636,1691066656,0.640687,0.411110,-0.132125,-0.634866,1.143512,1.878900,-0.177002
637,1691099990,0.628535,0.420841,-0.135520,-0.639903,1.558629,2.027049,-0.315973
638,1691133324,0.618457,0.429159,-0.137570,-0.643748,1.299096,2.014174,-0.078669
639,1691166658,0.610483,0.435383,-0.139804,-0.646693,1.296503,2.171525,-0.029646
640,1691199992,0.605595,0.437495,-0.142901,-0.649181,1.784478,3.143623,-0.269829
641,1691233326,0.605841,0.434673,-0.145423,-0.650286,2.215527,3.905187,-0.466944
642,1691266660,0.612477,0.424180,-0.147327,-0.650570,2.855077,4.250984,-1.024776
643,1691299994,0.626948,0.408280,-0.145211,-0.647427,1.469040,3.589886,-1.125032
644,1691333328,0.647228,0.387570,-0.141366,-0.641019,0.910253,3.606452,-1.496099
645,1691366662,0.671276,0.358328,-0.138369,-0.633915,0.527012,2.976913,-2.990043
646,1691399996,0.697873,0.324789,-0.131362,-0.624686,-0.365312,0.566674,-3.348827
647,1691433330,0.724213,0.292969,-0.117026,-0.613183,-2.679473,-2.270343,-2.198865
648,1691466664,0.745121,0.265178,-0.102034,-0.603380,-4.179546,-5.131577,-0.644411
649,1691499998,0.756784,0.242950,-0.093448,-0.599604,-3.776860,-6.221257,1.513842
650,1691533332,0.759076,0.227061,-0.094070,-0.602828,-2.586978,-5.012819,1.760805
651,1691566666,0.754881,0.216872,-0.100425,-0.610770,-1.392959,-3.740608,0.997905
652,1691600000,0.746977,0.210971,-0.107962,-0.621180,-0.946244,-1.911688,1.097265
653,1691633334,0.736401,0.205927,-0.117417,-0.633660,-0.707543,-1.722484,1.185901
654,1691666668,0.724517,0.203350,-0.127318,-0.646157,-0.718405,-0.322838,1.835731
655,1691700002,0.711395,0.202999,-0.137744,-0.658589,-0.485580,0.034165,1.771774
656,1691733336,0.697725,0.205501,-0.147412,-0.670241,-0.908888,0.633362,1.603006
657,1691766670,0.684163,0.211219,-0.157087,-0.680173,-0.906941,0.493847,1.423166
658,1691800004,0.671338,0.218281,-0.167326,-0.688233,-0.821486,0.796105,0.837271
659,1691833338,0.659697,0.226821,-0.177917,-0.694047,-0.543848,0.981319,0.706359
660,1691866672,0.649467,0.236598,-0.188311,-0.697680,0.035326,1.070606,0.098045
661,1691900006,0.641337,0.245041,-0.198459,-0.699471,1.054008,1.115527,-0.793327
662,1691933340,0.634446,0.250652,-0.207156,-0.701243,1.067362,1.046946,-1.095926
663,1691966674,0.629948,0.254097,-0.212892,-0.702339,1.507915,1.309721,-1.382702
664,1692000008,0.629364,0.254234,-0.216481,-0.701716,1.687180,1.689411,-1.512962
665,1692033342,0.632476,0.248665,-0.219447,-0.699990,1.809168,1.637905,-1.641618
666,1692066676,0.639084,0.237089,-0.221164,-0.697460,1.337122,1.036617,-1.681055
667,1692100010,0.648746,0.220997,-0.222120,-0.693510,-0.125593,0.459411,-1.269095
668,1692133344,0.658786,0.200975,-0.225375,-0.689072,-0.552619,-0.031099,-0.828870
669,1692166678,0.667628,0.177744,-0.232414,-0.684593,-0.530425,-0.940066,-0.131732
670,1692200012,0.674950,0.155779,-0.240130,-0.680086,0.084366,-1.160989,0.478280
671,1692233346,0.680549,0.135306,-0.246649,-0.676545,1.142270,-1.099778,0.794504
672,1692266680,0.684185,0.114941,-0.252105,-0.674631,1.419352,-0.936757,0.983371
673,1692300014,0.684820,0.094745,-0.257345,-0.675146,1.290378,-1.332743,0.881982
674,1692333348,0.683327,0.077839,-0.258556,-0.678349,2.172208,-0.945089,0.085282
675,1692366682,0.679932,0.060855,-0.256028,-0.684429,2.455400,-0.709750,-0.536974
676,1692400016,0.673867,0.040984,-0.252346,-0.693216,1.781821,-0.784521,-0.584994
677,1692433350,0.665731,0.019690,-0.247083,-0.703824,1.835105,-1.330141,-0.782203
678,1692466684,0.654806,-0.005477,-0.241774,-0.716065,1.502486,-0.720741,-0.757898
679,1692500018,0.639543,-0.036051,-0.239846,-0.729495,0.640103,-1.261129,0.536362
680,1692533352,0.621528,-0.065418,-0.237045,-0.743799,0.765495,-1.607613,0.815324
681,1692566686,0.599268,-0.095686,-0.235576,-0.759098,0.208585,-1.827753,1.855168
682,1692600020,0.574206,-0.120633,-0.232993,-0.775534,-0.211389,-1.927143,2.750300
683,1692633354,0.547350,-0.138341,-0.227943,-0.793294,-0.106006,-1.198457,1.777753
684,1692666688,0.518947,-0.150713,-0.221440,-0.811756,0.112622,-0.332910,1.158970
685,1692700022,0.489910,-0.159372,-0.214015,-0.829934,0.207702,-0.025109,0.422859
686,1692733356,0.460608,-0.166214,-0.205922,-0.847238,0.027818,-0.219871,0.169911
687,1692766690,0.431982,-0.170951,-0.196821,-0.863384,-0.039174,-0.290315,0.107454
688,1692800024,0.404162,-0.175626,-0.187766,-0.877813,-0.197701,-0.317507,-0.056797
689,1692833358,0.377204,-0.180755,-0.179011,-0.890507,-0.553233,-0.183905,0.048504
690,1692866692,0.351803,-0.184309,-0.169814,-0.901904,-0.699086,-0.228077,0.084821
691,1692900026,0.327565,-0.187377,-0.161044,-0.911954,-0.923491,-0.182829,0.088798
692,1692933360,0.304793,-0.188885,-0.152668,-0.920934,-0.862834,0.162856,0.016652
693,1692966694,0.283466,-0.189479,-0.144977,-0.928833,-0.634478,0.621767,-0.159054
694,1693000028,0.263894,-0.191677,-0.137931,-0.935200,-0.477987,0.302615,-0.838045
695,1693033362,0.247249,-0.193131,-0.129095,-0.940695,-0.288669,0.555698,-0.995781
696,1693066696,0.234218,-0.196417,-0.118588,-0.944724,0.516930,0.895155,-1.646726
697,1693100030,0.225015,-0.204173,-0.106383,-0.946767,0.524612,1.153250,-2.146274
698,1693133364,0.217253,-0.220926,-0.093928,-0.946136,-0.478510,0.840451,-1.462142
699,1693166698,0.213399,-0.236681,-0.079348,-0.944537,-0.758503,0.735071,-0.864525
700,1693200032,0.212682,-0.248269,-0.063319,-0.942933,0.180069,0.912007,-0.790590
701,1693233366,0.212889,-0.267683,-0.049804,-0.938375,-0.626793,0.346261,-0.420982
702,1693266700,0.215870,-0.279211,-0.033597,-0.935049,-1.278589,-0.161677,0.127625
703,1693300034,0.218213,-0.294945,-0.018200,-0.930088,-0.640031,0.194724,-0.185214
704,1693333368,0.221673,-0.308333,-0.000644,-0.925092,-1.800320,-0.085065,0.075409
705,1693366702,0.224698,-0.315245,0.019930,-0.921812,-0.492630,1.198741,-0.228498
706,1693400036,0.224141,-0.333182,0.036777,-0.915097,-1.001336,0.654400,-0.227013
707,1693433370,0.226510,-0.335382,0.060164,-0.912467,-0.649771,1.032536,-0.369826
708,1693466704,0.229497,-0.335713,0.084840,-0.909634,0.755220,2.410961,-0.547786
709,1693500038,0.233724,-0.345585,0.106152,-0.902596,-0.901658,1.573895,1.071312
710,1693533372,0.240014,-0.342294,0.129086,-0.899204,-0.014178,2.255921,1.720076
711,1693566706,0.246047,-0.350168,0.144037,-0.892244,-0.565116,1.777814,1.065886
712,1693600040,0.250563,-0.350213,0.160988,-0.888063,-1.976660,-0.056761,2.039117
713,1693633374,0.251656,-0.339357,0.181323,-0.888050,0.068199,1.477411,0.834719
714,1693666708,0.252708,-0.334046,0.198643,-0.886057,-0.391115,1.006476,1.386209
715,1693700042,0.253654,-0.329912,0.212252,-0.884178,-0.083150,1.036952,1.889886
716,1693733376,0.254306,-0.330274,0.218293,-0.882383,0.047884,0.450256,3.277968
717,1693766710,0.253523,-0.330577,0.216628,-0.882905,0.108865,-0.325509,3.214406
718,1693800044,0.251031,-0.329463,0.210184,-0.885587,0.530700,-0.481504,2.015415
719,1693833378,0.248223,-0.326495,0.201457,-0.889497,0.121955,-1.061411,0.961879
720,1693866712,0.245411,-0.321049,0.192447,-0.894242,0.535085,-0.627018,0.405392
721,1693900046,0.243050,-0.317901,0.181791,-0.898232,0.130496,-0.302827,-0.065761
722,1693933380,0.240812,-0.313765,0.171851,-0.902238,-0.784133,-0.327352,-0.589765
723,1693966714,0.238089,-0.307732,0.164207,-0.906452,-0.907800,0.246984,-0.623703
724,1694000048,0.234792,-0.301036,0.158201,-0.910619,-1.167507,0.399242,-0.007558
725,1694033382,0.230889,-0.295539,0.153343,-0.914241,-0.686560,0.804226,-0.677942
726,1694066716,0.226663,-0.294019,0.148941,-0.916513,-1.024939,0.543551,-0.192971
727,1694100050,0.222235,-0.291137,0.145702,-0.919035,-0.177849,0.800665,-0.582921
728,1694133384,0.219427,-0.288890,0.142969,-0.920846,0.588422,0.814434,-0.633907
729,1694166718,0.219226,-0.290098,0.139458,-0.921053,0.887265,0.730247,-0.324283
730,1694200052,0.221999,-0.298669,0.135664,-0.918211,0.795682,0.947907,-1.390416
731,1694233386,0.227090,-0.305749,0.132964,-0.915026,0.375225,1.080509,0.733437
732,1694266720,0.235506,-0.308132,0.130353,-0.912471,0.461283,1.846112,0.126908
733,1694300054,0.246205,-0.310246,0.127444,-0.909336,-0.594916,1.769310,-0.045967
734,1694333388,0.258545,-0.311144,0.123971,-0.906079,-0.586641,2.413599,0.427642
735,1694366722,0.273327,-0.313585,0.117888,-0.901700,-0.905200,2.246702,0.153308
736,1694400056,0.290694,-0.318796,0.109740,-0.895448,-0.981733,2.027799,0.007792
737,1694433390,0.309872,-0.324025,0.099597,-0.888297,-1.125409,1.761142,0.480174
738,1694466724,0.331268,-0.327747,0.088254,-0.880374,-0.796652,1.645203,0.433748
739,1694500058,0.355090,-0.331853,0.074633,-0.870758,-0.668711,1.522510,0.126837
740,1694533392,0.380060,-0.331828,0.063381,-0.861064,-0.414547,0.445605,0.099252
741,1694566726,0.405834,-0.324923,0.058753,-0.852218,0.006392,1.261283,0.749304
742,1694600060,0.432854,-0.314472,0.055410,-0.843017,-0.296097,1.122723,2.263033
743,1694633394,0.462914,-0.304695,0.048725,-0.830964,-0.174704,0.786764,3.292620
744,1694666728,0.496013,-0.291779,0.036639,-0.817005,-0.757834,0.695612,4.061285
745,1694700062,0.529053,-0.278690,0.013745,-0.801405,-1.561100,0.189084,3.500013
746,1694733396,0.561526,-0.261261,-0.014449,-0.785001,-1.251328,-0.532951,2.939583
747,1694766730,0.592206,-0.240362,-0.046301,-0.767710,-1.467793,-1.309135,2.562388
748,1694800064,0.618929,-0.215751,-0.079741,-0.751015,-1.657074,-2.210588,2.300341
749,1694833398,0.642980,-0.180030,-0.106721,-0.736736,-1.407329,-2.997905,0.896922
750,1694866732,0.663786,-0.139457,-0.128531,-0.723480,-1.158147,-1.999974,1.424572
751,1694900066,0.679316,-0.099546,-0.152467,-0.710900,-0.465909,-2.814452,0.506866
752,1694933400,0.692227,-0.055038,-0.168073,-0.699677,0.666275,-3.467957,-1.024322
753,1694966734,0.703769,-0.007777,-0.174431,-0.688640,0.421096,-1.585795,-1.136870
754,1695000068,0.712479,0.035310,-0.180994,-0.677032,1.200888,-1.891483,-2.127615
755,1695033402,0.719687,0.074588,-0.184907,-0.665057,1.320308,-1.709502,-2.279111
756,1695066736,0.725211,0.111088,-0.185014,-0.653836,1.282152,-1.364338,-2.228858
757,1695100070,0.729726,0.143733,-0.183003,-0.642926,1.709633,-0.377382,-2.104186
758,1695133404,0.733377,0.170670,-0.181751,-0.632456,1.264344,-0.068335,-1.435895
759,1695166738,0.736229,0.192830,-0.181021,-0.622912,1.521903,0.044855,-1.566867
760,1695200072,0.739957,0.212052,-0.177669,-0.613136,1.133755,0.172256,-1.364319
761,1695233406,0.743584,0.227638,-0.174693,-0.603945,0.422604,0.202594,-1.031128
762,1695266740,0.746028,0.239163,-0.173615,-0.596745,0.344793,-0.285881,-1.081580
763,1695300074,0.747159,0.247555,-0.174052,-0.591760,0.039650,-1.105183,-1.059596
764,1695333408,0.745046,0.252076,-0.177673,-0.591439,-0.025939,-1.568367,-1.172039
765,1695366742,0.739891,0.254398,-0.182781,-0.595347,-0.090217,-2.152149,-0.823915
766,1695400076,0.733752,0.259416,-0.184502,-0.600228,0.092528,-1.310718,-0.937033
767,1695433410,0.725451,0.263941,-0.186351,-0.607728,0.628106,-1.278028,-0.835611
768,1695466744,0.716661,0.270774,-0.184594,-0.615635,0.768932,-0.546717,-0.140114
769,1695500078,0.708320,0.280249,-0.180326,-0.622278,-0.016382,0.512542,1.026262
770,1695533412,0.699468,0.289307,-0.179866,-0.628250,-0.236959,1.199935,1.236664
771,1695566746,0.691154,0.297790,-0.181419,-0.633023,0.533023,0.880688,0.752002
772,1695600080,0.684319,0.308235,-0.180307,-0.635760,0.419980,0.901029,0.870091
773,1695633414,0.678048,0.318334,-0.179380,-0.637763,0.062772,0.723199,0.703954
774,1695666748,0.672699,0.328872,-0.177663,-0.638560,0.238980,0.610946,0.324248
775,1695700082,0.668616,0.339485,-0.175085,-0.638006,-0.036269,0.804807,0.042399
776,1695733416,0.665218,0.348914,-0.172851,-0.637080,0.170196,0.619189,-0.372331
777,1695766750,0.663322,0.358367,-0.169320,-0.634754,0.230595,0.763115,-0.208109
778,1695800084,0.662601,0.366666,-0.166602,-0.631477,0.227208,0.651507,-0.132996
779,1695833418,0.662643,0.373066,-0.164791,-0.628151,0.660849,0.446828,-0.595081
780,1695866752,0.663686,0.379143,-0.162173,-0.624080,-0.039398,0.487844,-0.745138
781,1695900086,0.665010,0.382840,-0.161340,-0.620619,0.314242,0.946651,-0.990002
782,1695933420,0.667890,0.383795,-0.160160,-0.617234,0.932064,1.141180,-0.859155
783,1695966754,0.674560,0.382237,-0.156894,-0.611761,0.698713,1.642124,-0.772290
784,1696000088,0.684864,0.376082,-0.153232,-0.605018,0.576788,2.087801,-0.917934
785,1696033422,0.698226,0.361999,-0.152216,-0.598558,0.742589,2.145841,-1.681853
786,1696066756,0.713910,0.339955,-0.153053,-0.592741,0.513131,0.829755,-2.352375
787,1696100090,0.731378,0.314620,-0.150431,-0.586068,-0.291561,-0.556232,-2.210649
788,1696133424,0.749023,0.289801,-0.143095,-0.578366,-0.963303,-1.918619,-1.819097
789,1696166758,0.763271,0.267019,-0.135428,-0.572522,-1.400161,-3.239436,-1.195159
790,1696200092,0.773649,0.252100,-0.125193,-0.567664,-2.184456,-5.337764,-0.102464
791,1696233426,0.777729,0.243684,-0.120741,-0.566728,-2.092645,-3.828996,1.380706
792,1696266760,0.776803,0.237121,-0.125989,-0.569632,-0.780283,-2.548410,1.617173
793,1696300094,0.773235,0.232693,-0.133900,-0.574487,-0.086156,-2.017733,0.792934
794,1696333428,0.768064,0.230355,-0.140459,-0.580766,0.169000,-0.955550,0.264924
795,1696366762,0.761859,0.228813,-0.145286,-0.588313,-0.224548,-0.613316,0.676207
796,1696400096,0.754948,0.227964,-0.149778,-0.596369,-0.538997,-0.252765,1.075130
797,1696433430,0.747956,0.228318,-0.154319,-0.603840,-0.557565,-0.431935,0.957749
798,1696466764,0.741078,0.230457,-0.158384,-0.610419,-0.911191,-0.185174,0.847037
799,1696500098,0.733441,0.233165,-0.164386,-0.616993,-0.611544,-0.363863,1.187378
800,1696533432,0.725556,0.238762,-0.169329,-0.622809,-0.849736,0.120243,1.207481
801,1696566766,0.717786,0.246119,-0.175033,-0.627357,-0.447842,0.694168,0.989223
802,1696600100,0.710094,0.253651,-0.181774,-0.631181,-0.064535,0.677708,0.806540
803,1696633434,0.701983,0.261639,-0.187409,-0.635332,0.071814,0.263926,0.672596
804,1696666768,0.694114,0.270804,-0.190313,-0.639263,0.630213,0.537516,0.562083
805,1696700102,0.687838,0.281382,-0.190543,-0.641405,0.203179,1.342571,0.492804
806,1696733436,0.682462,0.291131,-0.191258,-0.642582,0.213648,1.212990,0.069791
807,1696766770,0.678749,0.299130,-0.191838,-0.642669,1.043724,1.721672,-0.511430
808,1696800104,0.677339,0.304170,-0.191998,-0.641742,1.117044,1.665401,-0.620147
809,1696833438,0.678702,0.306996,-0.191059,-0.639232,0.995762,1.437895,-0.838516
810,1696866772,0.682403,0.306735,-0.190192,-0.635666,0.848821,1.510779,-1.084184
811,1696900106,0.688247,0.302761,-0.189585,-0.631437,0.664733,1.005711,-1.149089
812,1696933440,0.695458,0.295259,-0.189304,-0.627159,0.448852,0.795324,-1.107186
813,1696966774,0.703543,0.283874,-0.189761,-0.623247,0.733263,0.916871,-1.223844
814,1697000108,0.712856,0.268179,-0.190194,-0.619472,0.418750,1.067350,-1.154315
815,1697033442,0.721110,0.245391,-0.195617,-0.617675,0.082774,0.894111,-0.767991
816,1697066776,0.728543,0.218090,-0.203613,-0.616610,0.338001,0.047004,-0.928052
817,1697100110,0.736592,0.190341,-0.209471,-0.614271,0.194779,0.171242,-1.169945
818,1697133444,0.747768,0.166238,-0.208147,-0.608183,0.400240,0.140663,-1.811788
819,1697166778,0.761730,0.142897,-0.200760,-0.599205,-0.088545,0.674706,-1.784995
820,1697200112,0.776573,0.116364,-0.193025,-0.588336,-0.162835,0.200143,-1.654822
821,1697233446,0.792152,0.088651,-0.182565,-0.575595,-1.025191,-1.530246,-0.666211
822,1697266780,0.805347,0.061663,-0.172308,-0.563851,-1.208871,-3.120178,0.419742
823,1697300114,0.813241,0.037880,-0.164556,-0.556893,-1.744529,-5.339277,2.856031
824,1697333448,0.815113,0.023375,-0.159915,-0.556305,-1.082477,-4.940128,3.834418
825,1697366782,0.811970,0.016825,-0.160390,-0.560982,-0.889399,-3.009296,3.484770
826,1697400116,0.806134,0.015525,-0.165030,-0.568045,-0.473625,-1.691478,2.422818
827,1697433450,0.799300,0.017716,-0.170266,-0.576037,0.113923,-0.690847,1.730738
828,1697466784,0.792179,0.023213,-0.174335,-0.584401,-0.075073,-0.320370,1.552188
829,1697500118,0.784199,0.030769,-0.179448,-0.593201,-0.574981,0.022790,1.392617
830,1697533452,0.775425,0.039447,-0.184941,-0.602462,0.295085,0.125053,0.939127
831,1697566786,0.766881,0.050781,-0.187292,-0.611752,-0.328797,0.457917,1.301824
832,1697600120,0.758606,0.063623,-0.189461,-0.620143,-0.457608,0.548941,0.794951
833,1697633454,0.750797,0.078793,-0.191229,-0.627321,-0.455238,0.796397,0.994597
834,1697666788,0.742967,0.094786,-0.193835,-0.633598,-0.311079,0.760388,0.752253
835,1697700122,0.734555,0.109931,-0.198453,-0.639503,0.377131,0.524558,-0.006947
836,1697733456,0.726923,0.125195,-0.201246,-0.644526,0.622015,0.707461,-0.427958
837,1697766790,0.720614,0.140163,-0.202885,-0.648006,-0.164283,1.186551,-0.336610
838,1697800124,0.715223,0.153259,-0.205709,-0.650119,-0.039367,1.350560,-0.845643
839,1697833458,0.711730,0.163961,-0.207918,-0.650638,0.298360,1.601708,-1.196568
840,1697866792,0.710588,0.171013,-0.209440,-0.649582,0.494010,1.758332,-1.452865
841,1697900126,0.712605,0.176534,-0.208060,-0.646332,0.568318,1.244532,-1.151850
842,1697933460,0.717205,0.179943,-0.204791,-0.641328,0.632827,1.182339,-1.006130
843,1697966794,0.723112,0.179575,-0.202284,-0.635568,0.340850,1.381212,-0.989665
844,1698000128,0.730061,0.174776,-0.201751,-0.629099,0.636974,1.613994,-1.178206
845,1698033462,0.737676,0.162257,-0.205748,-0.622237,0.264179,2.128187,-2.279980
846,1698066796,0.743243,0.135390,-0.221851,-0.616478,0.559429,3.207860,-3.023453
847,1698100130,0.751799,0.103978,-0.237505,-0.606285,1.027007,0.050700,-2.713356
848,1698133464,0.765555,0.075520,-0.243080,-0.590879,-0.109428,1.025580,-2.880717
849,1698166798,0.778080,0.040622,-0.250875,-0.574462,0.378788,-1.237313,-2.635674
850,1698200132,0.791038,0.005948,-0.249486,-0.558555,0.551239,-3.803699,-1.284547
851,1698233466,0.800768,-0.027918,-0.241393,-0.547471,0.161326,-5.107222,0.360480
852,1698266800,0.801684,-0.062594,-0.235998,-0.545613,0.956437,-6.691437,1.958229
853,1698300134,0.797030,-0.090454,-0.225306,-0.552994,1.581494,-5.355623,2.185125
854,1698333468,0.786044,-0.116788,-0.216010,-0.567308,2.002472,-3.532924,1.249018
855,1698366802,0.770987,-0.141506,-0.206619,-0.585549,1.802855,-2.121184,1.216634
856,1698400136,0.753152,-0.164485,-0.197237,-0.605648,1.360965,-1.475680,0.495589
857,1698433470,0.732188,-0.187711,-0.188273,-0.627075,1.278028,-1.757771,0.495450
858,1698466804,0.707608,-0.211216,-0.177095,-0.650631,1.028545,-1.846428,0.175122
859,1698500138,0.679483,-0.234488,-0.162821,-0.675878,-0.010445,-1.509272,0.919150
860,1698533472,0.648535,-0.255910,-0.147697,-0.701499,-0.403437,-0.931090,1.233829
861,1698566806,0.615768,-0.275017,-0.131979,-0.726485,-0.660338,-0.817724,1.205172
862,1698600140,0.581772,-0.291017,-0.115231,-0.750717,-1.014775,0.176704,1.676685
863,1698633474,0.547465,-0.303528,-0.099411,-0.773482,-1.005048,0.434462,1.256193
864,1698666808,0.513547,-0.313698,-0.084130,-0.794222,-1.344842,0.557516,1.203709
865,1698700142,0.480420,-0.320969,-0.068538,-0.813315,-1.479661,0.956084,1.412695
866,1698733476,0.448405,-0.325584,-0.053052,-0.830733,-1.656310,0.909584,1.109325
867,1698766810,0.417495,-0.327066,-0.037184,-0.846963,-1.349701,1.331552,0.641395
868,1698800144,0.387736,-0.329084,-0.022771,-0.860726,-0.690097,1.327177,0.233085
869,1698833478,0.359894,-0.328361,-0.007888,-0.873268,-0.462777,1.012548,-0.210479
870,1698866812,0.334209,-0.326000,0.007277,-0.884296,0.099718,1.143819,-0.465448
871,1698900146,0.311026,-0.326381,0.021011,-0.892357,0.492942,1.010604,-0.770465
872,1698933480,0.290522,-0.331974,0.033028,-0.896829,-0.447706,0.336771,-0.934744
873,1698966814,0.272466,-0.327092,0.050139,-0.903473,-1.280509,-0.250397,-0.589024
874,1699000148,0.255879,-0.316854,0.069148,-0.910688,0.191849,1.315327,-0.595136
875,1699033482,0.241197,-0.316554,0.083594,-0.913583,-0.223072,0.903429,-0.401412
876,1699066816,0.228258,-0.312856,0.098960,-0.916640,-1.404834,0.277686,0.056318
877,1699100150,0.215130,-0.307065,0.114879,-0.919911,-0.427370,0.966062,-0.227926
878,1699133484,0.202767,-0.311221,0.128164,-0.919568,-0.212778,1.142621,0.017312
879,1699166818,0.191129,-0.310569,0.142561,-0.920161,-1.020613,1.011442,0.285322
880,1699200152,0.179264,-0.307518,0.156723,-0.921270,-0.239809,1.409477,-0.046542
881,1699233486,0.169404,-0.309499,0.169236,-0.920258,0.733079,1.537280,-0.118333
882,1699266820,0.162862,-0.309854,0.181744,-0.918934,0.107112,1.008414,0.116887
883,1699300154,0.158632,-0.305641,0.194902,-0.918388,1.091660,1.465229,-0.361950
884,1699333488,0.157527,-0.306359,0.207298,-0.915620,0.756111,1.529000,-0.052479
885,1699366822,0.159380,-0.310911,0.219400,-0.910934,0.866146,1.718748,0.012811
886,1699400156,0.164953,-0.318693,0.231923,-0.904125,1.854481,1.834268,-1.237099
887,1699433490,0.174626,-0.321448,0.248008,-0.897036,-0.278697,1.559992,-0.946678
888,1699466824,0.184907,-0.308813,0.269863,-0.893097,0.393520,1.971932,0.219349
889,1699500158,0.196858,-0.297232,0.291043,-0.887805,0.430707,2.284693,0.688794
890,1699533492,0.211556,-0.293578,0.307605,-0.880023,-0.370340,2.002586,1.312668
891,1699566826,0.227812,-0.294931,0.318067,-0.871754,0.083545,1.520808,2.443197
892,1699600160,0.244503,-0.300735,0.322074,-0.863741,-1.047610,0.215100,2.463160
893,1699633494,0.257379,-0.301971,0.324183,-0.858766,-0.816305,-0.365707,1.941914
894,1699666828,0.267769,-0.302452,0.323326,-0.855738,-0.114344,-0.140087,1.249037
895,1699700162,0.278411,-0.306196,0.318377,-0.852860,-0.354694,-0.193493,0.837466
896,1699733496,0.289312,-0.311184,0.310809,-0.850214,-0.543592,-0.226962,0.901408
897,1699766830,0.300361,-0.316917,0.300792,-0.847864,-0.647862,0.388202,0.467569
898,1699800164,0.312212,-0.325143,0.288231,-0.844827,-0.685414,0.813752,0.477319
899,1699833498,0.325297,-0.335068,0.272639,-0.841180,-0.517874,1.471822,0.220722
900,1699866832,0.340824,-0.348362,0.254215,-0.835381,-1.026513,1.182880,0.372142
901,1699900166,0.357613,-0.359239,0.234592,-0.829476,-0.716483,0.962984,1.200197
902,1699933500,0.376217,-0.370435,0.211025,-0.822625,-0.760444,1.621684,0.743768
903,1699966834,0.396286,-0.384067,0.183605,-0.813476,-0.914808,0.568814,0.965641
904,1700000168,0.415706,-0.390368,0.157362,-0.806252,-0.523448,0.663567,1.596416
905,1700033502,0.435526,-0.395835,0.126621,-0.798501,-0.487799,1.232684,1.299947
906,1700066836,0.456126,-0.399850,0.091334,-0.789766,-0.818812,0.437065,1.115045
907,1700100170,0.477200,-0.400091,0.055025,-0.780502,-0.545759,0.414379,0.930921
908,1700133504,0.498468,-0.397285,0.017622,-0.770317,-0.809257,0.343907,1.002781
909,1700166838,0.519366,-0.391431,-0.020416,-0.759360,-0.908373,-0.616709,0.850114
910,1700200172,0.539287,-0.380828,-0.056085,-0.748998,-0.763035,-0.605279,1.427263
911,1700233506,0.558668,-0.364756,-0.089700,-0.739460,-0.444070,-0.490712,1.511545
912,1700266840,0.576935,-0.344906,-0.122690,-0.730162,-0.490309,-0.625614,1.492901
913,1700300174,0.593771,-0.320711,-0.153906,-0.721732,-0.717373,-1.434577,1.904366
914,1700333508,0.609059,-0.291254,-0.182587,-0.714762,-0.413089,-0.920021,1.358210
915,1700366842,0.622276,-0.259315,-0.210251,-0.708044,-0.546363,-1.328475,1.019285
916,1700400176,0.635069,-0.222352,-0.232762,-0.702191,-0.485947,-1.650262,0.234509
917,1700433510,0.646243,-0.185070,-0.252183,-0.696080,-0.608411,-1.125874,-0.416589
918,1700466844,0.655608,-0.149205,-0.269681,-0.689341,-0.767493,-2.073290,-0.293888
919,1700500178,0.665241,-0.110515,-0.280040,-0.683244,-0.544485,-2.308029,-0.886429
920,1700533512,0.673527,-0.073274,-0.286543,-0.677413,0.182092,-1.341452,-2.017090
921,1700566846,0.680620,-0.039450,-0.289630,-0.671802,0.675635,-2.170644,-1.865003
922,1700600180,0.687896,-0.006681,-0.286714,-0.666748,0.813652,-1.550043,-1.879438
923,1700633514,0.693338,0.021796,-0.283109,-0.662315,1.277014,-1.024643,-2.128997
924,1700666848,0.696662,0.045215,-0.280308,-0.658824,1.516230,-1.586174,-1.326562
925,1700700182,0.699975,0.067971,-0.274727,-0.655701,1.371898,-0.859439,-0.981349
926,1700733516,0.701737,0.088266,-0.269904,-0.653399,1.505719,-0.253406,-0.592819
927,1700766850,0.701952,0.105705,-0.266372,-0.652027,1.388149,-0.496857,-0.487705
928,1700800184,0.702819,0.123821,-0.259700,-0.650595,1.039210,0.189839,-0.057195
929,1700833518,0.703453,0.141502,-0.252430,-0.649164,0.463229,0.519672,0.291567
930,1700866852,0.703206,0.157680,-0.246791,-0.647871,0.633383,0.459874,0.024992
931,1700900186,0.702886,0.172947,-0.241224,-0.646417,0.700107,0.614917,-0.078713
932,1700933520,0.702039,0.186757,-0.236846,-0.645113,0.489905,0.621672,0.098809
933,1700966854,0.700737,0.199251,-0.234116,-0.643786,0.296920,-0.035183,-0.156711
934,1701000188,0.700741,0.215410,-0.227743,-0.640857,0.151629,-0.519631,-0.040232
935,1701033522,0.700554,0.233082,-0.220617,-0.637361,0.154715,0.284304,0.182364
936,1701066856,0.699250,0.250244,-0.215235,-0.634117,0.256739,-0.048310,0.062177
937,1701100190,0.697572,0.266854,-0.209814,-0.631002,0.348155,0.238258,-0.239601
938,1701133524,0.695542,0.281675,-0.204698,-0.628477,0.310755,0.322420,-0.256568
939,1701166858,0.692548,0.293777,-0.201458,-0.627288,0.245233,0.064853,-0.170068
940,1701200192,0.689496,0.304751,-0.198080,-0.626491,0.519472,0.160745,-0.366867
941,1701233526,0.686827,0.314217,-0.194873,-0.625751,0.409085,0.356405,-0.203299
942,1701266860,0.684378,0.322230,-0.191805,-0.625307,0.410877,0.074358,-0.318251
943,1701300194,0.682334,0.328562,-0.188874,-0.625138,0.374371,0.632625,-0.266216
944,1701333528,0.681088,0.332527,-0.186603,-0.625082,0.435937,1.194178,-0.230375
945,1701366862,0.683039,0.333066,-0.184841,-0.623188,1.312263,3.161048,-0.593368
946,1701400196,0.692720,0.329701,-0.178855,-0.615995,2.272421,5.443266,-0.738187
947,1701433530,0.710974,0.318924,-0.170121,-0.603213,0.737194,3.742778,-1.205094
948,1701466864,0.734942,0.301640,-0.160643,-0.585723,-0.813950,2.742411,-2.167702
949,1701500198,0.758226,0.273663,-0.157364,-0.570475,-1.610988,-0.124280,-3.307826
950,1701533532,0.778112,0.248555,-0.149423,-0.557171,-2.627350,-6.777435,-2.123171
951,1701566866,0.791272,0.235177,-0.136779,-0.547609,-2.657345,-6.046490,-0.540152
952,1701600200,0.796341,0.224964,-0.133630,-0.545324,-1.256402,-4.711964,0.471364
953,1701633534,0.796377,0.217830,-0.136822,-0.547374,-0.297174,-3.664007,0.263207
954,1701666868,0.794026,0.215239,-0.139637,-0.551090,-0.106201,-2.060534,0.320457
955,1701700202,0.790623,0.214747,-0.142179,-0.555506,-0.478110,-1.214476,0.230836
956,1701733536,0.786140,0.214808,-0.145454,-0.560971,-0.172892,-1.283584,0.196246
957,1701766870,0.780939,0.215766,-0.147347,-0.567337,0.188688,-0.845204,0.220788
958,1701800204,0.775303,0.216572,-0.148322,-0.574461,-0.209997,-0.541165,0.303869
959,1701833538,0.769266,0.217733,-0.149545,-0.581775,-0.152687,-0.661768,0.569475
960,1701866872,0.763295,0.219841,-0.150509,-0.588559,-0.420168,0.002535,0.832318
961,1701900206,0.757156,0.222460,-0.152846,-0.594868,-0.579578,-0.082042,0.875497
962,1701933540,0.751290,0.226891,-0.155038,-0.600043,-0.635428,0.026040,0.654420
963,1701966874,0.745970,0.232863,-0.156981,-0.603875,-0.472986,0.566062,0.953115
964,1702000208,0.740764,0.239410,-0.159905,-0.606949,-0.530737,0.825563,1.137047
965,1702033542,0.735250,0.245589,-0.164703,-0.609894,-0.057663,0.844381,0.769682
966,1702066876,0.730597,0.252509,-0.167473,-0.611902,-0.099090,0.508672,0.539616
967,1702100210,0.726840,0.259751,-0.168759,-0.612990,-0.101011,0.627495,0.426351
968,1702133544,0.723768,0.266901,-0.169370,-0.613385,-0.052427,0.424228,0.320413
969,1702166878,0.721080,0.274851,-0.169031,-0.613135,0.040725,0.408684,0.129534
970,1702200212,0.718713,0.283306,-0.168476,-0.612216,0.304621,0.724453,0.026368
971,1702233546,0.716193,0.290627,-0.169540,-0.611443,0.744457,0.974627,-0.003070
972,1702266880,0.713592,0.296064,-0.172051,-0.611175,1.130924,0.626337,0.160637
973,1702300214,0.711414,0.300488,-0.174145,-0.610961,1.400892,0.893999,0.009256
974,1702333548,0.710551,0.304187,-0.174572,-0.610013,1.372055,1.485644,-0.270624
975,1702366882,0.710981,0.305350,-0.174640,-0.608910,1.117673,1.405400,-0.439607
976,1702400216,0.713289,0.304363,-0.173657,-0.606984,1.024496,1.308060,-0.472178
977,1702433550,0.717845,0.299759,-0.172162,-0.604324,1.000315,2.519951,-1.075768
978,1702466884,0.724619,0.287769,-0.172192,-0.602055,1.257082,2.122851,-2.000108
979,1702500218,0.733086,0.270855,-0.171458,-0.599857,0.826824,0.601973,-1.911308
980,1702533552,0.744483,0.252908,-0.166107,-0.595143,0.423771,0.567249,-1.674710
981,1702566886,0.756827,0.230700,-0.160655,-0.590071,0.153038,0.318525,-1.858144
982,1702600220,0.769107,0.205705,-0.155331,-0.584839,-0.378118,-1.046511,-1.611279
983,1702633554,0.781402,0.182279,-0.147019,-0.578424,-0.887318,-1.900355,-0.463575
984,1702666888,0.792218,0.161415,-0.138295,-0.572026,-1.540049,-3.104165,0.226215
985,1702700222,0.800548,0.148232,-0.129151,-0.566104,-1.961071,-4.614446,1.797457
986,1702733556,0.804598,0.143164,-0.123614,-0.562894,-1.921157,-3.942003,2.889397
987,1702766890,0.803313,0.141943,-0.127497,-0.564171,-0.659735,-2.920779,2.523839
988,1702800224,0.799176,0.144742,-0.132631,-0.568137,-0.489744,-2.179476,2.049863
989,1702833558,0.792912,0.150917,-0.138641,-0.573844,-0.830082,-0.879009,2.100316
990,1702866892,0.785074,0.159523,-0.145468,-0.580564,-0.677660,-1.010720,1.818213
991,1702900226,0.776878,0.172220,-0.149410,-0.586924,-0.804674,-0.324204,1.480950
992,1702933560,0.767935,0.185914,-0.154077,-0.593275,-0.934846,0.946829,1.064265
993,1702966894,0.758622,0.198705,-0.160384,-0.599408,-0.419659,0.892501,0.369452
994,1703000228,0.750102,0.213060,-0.164746,-0.603999,-0.333401,0.789309,0.316636
995,1703033562,0.741800,0.227980,-0.168706,-0.607701,-0.036285,1.164106,-0.068944
996,1703066896,0.733594,0.241172,-0.173241,-0.611283,0.363904,0.789136,-0.556924
997,1703100230,0.726454,0.254762,-0.175313,-0.613701,-0.070278,0.725515,-0.386074
998,1703133564,0.719001,0.266967,-0.178251,-0.616439,0.140236,1.087667,-0.549718
999,1703166898,0.711489,0.276581,-0.182592,-0.619637,0.710751,1.031784,-0.802334
1000,1703200232,0.705251,0.285290,-0.185235,-0.622031,0.947956,1.564336,-0.888852
1001,1703233566,0.700793,0.290635,-0.187781,-0.623828,1.051673,2.263185,-0.867904
1002,1703266900,0.699589,0.291922,-0.189654,-0.624013,1.107957,2.508309,-1.129121
1003,1703300234,0.702051,0.287520,-0.190940,-0.622898,1.012904,2.622720,-1.658827
1004,1703333568,0.708541,0.276165,-0.191105,-0.620633,1.124163,2.333512,-2.235895
1005,1703366902,0.719698,0.258628,-0.187567,-0.616416,0.292859,1.998819,-2.590187
1006,1703400236,0.734055,0.235155,-0.181875,-0.610566,-0.574869,1.156340,-2.763636
1007,1703433570,0.749815,0.207086,-0.174332,-0.603742,-0.764655,-0.479440,-2.779395
1008,1703466904,0.765533,0.179751,-0.162477,-0.596032,-1.912188,-2.752811,-1.276155
1009,1703500238,0.778227,0.153379,-0.152968,-0.589443,-1.459591,-2.419928,-0.167065
1010,1703533572,0.787199,0.127317,-0.148482,-0.584864,-1.110999,-3.356918,1.064827
1011,1703566906,0.792332,0.106662,-0.146024,-0.582678,-1.191213,-3.080668,2.351549
1012,1703600240,0.793142,0.090155,-0.148325,-0.583781,-0.746956,-2.453654,2.699068
1013,1703633574,0.790461,0.078448,-0.153553,-0.587744,-0.156443,-1.583581,2.843085
1014,1703666908,0.785595,0.072734,-0.158287,-0.593717,-0.205696,-0.993317,2.801933
1015,1703700242,0.778648,0.071613,-0.163997,-0.601405,-0.236882,-0.472027,2.526153
1016,1703733576,0.769894,0.074577,-0.170215,-0.610518,-0.095577,-0.563114,2.067364
1017,1703766910,0.760412,0.081286,-0.175543,-0.619963,-0.186497,0.358134,1.497689
1018,1703800244,0.750290,0.089267,-0.182588,-0.629096,-0.287221,0.504068,0.829595
1019,1703833578,0.740407,0.097591,-0.190545,-0.637158,0.153400,0.722763,-0.189091
1020,1703866912,0.731619,0.106267,-0.196831,-0.643974,0.110220,0.474489,-0.500669
1021,1703900246,0.724086,0.114302,-0.202179,-0.649432,0.256841,1.051599,-0.960183
1022,1703933580,0.718465,0.120178,-0.206916,-0.653112,0.650315,1.626603,-1.233297
1023,1703966914,0.715295,0.122463,-0.211583,-0.654670,1.184373,1.981067,-1.416557
1024,1704000248,0.715492,0.120383,-0.214530,-0.653881,1.675266,1.959004,-1.950696
1025,1704033582,0.719434,0.113809,-0.213919,-0.650926,1.584653,1.619304,-2.105823
1026,1704066916,0.725378,0.101009,-0.211447,-0.647239,1.619033,0.809558,-2.261978
1027,1704100250,0.732016,0.081856,-0.207045,-0.643885,1.350588,-0.053055,-2.567801
1028,1704133584,0.740279,0.060651,-0.196894,-0.639958,0.387347,-1.390095,-2.074700
1029,1704166918,0.747709,0.038853,-0.183100,-0.637103,-0.951079,-2.197261,-1.089018
1030,1704200252,0.752059,0.016197,-0.173230,-0.635720,-1.858570,-2.352879,0.554293
1031,1704233586,0.752986,-0.005608,-0.170097,-0.635651,-1.719473,-2.317207,1.877634
1032,1704266920,0.751606,-0.024393,-0.171627,-0.636428,-0.487812,-1.989345,2.196509
1033,1704300254,0.749043,-0.037479,-0.174535,-0.638021,-0.180763,-0.980057,2.921009
1034,1704333588,0.745071,-0.046993,-0.180946,-0.640252,0.188030,-0.263425,2.012190
1035,1704366922,0.740866,-0.053969,-0.188373,-0.642436,0.304077,0.316443,1.332538
1036,1704400256,0.737604,-0.058187,-0.194138,-0.644103,0.494300,0.620770,0.685591
1037,1704433590,0.734940,-0.061941,-0.199324,-0.645213,0.395455,0.639947,0.287686
1038,1704466924,0.732941,-0.065364,-0.203459,-0.645859,0.454153,0.064349,0.012549
1039,1704500258,0.732489,-0.066842,-0.203247,-0.646287,0.334807,-0.158556,-0.404465
1040,1704533592,0.732816,-0.068422,-0.201117,-0.646417,-0.075016,-0.012984,-0.364131
1041,1704566926,0.733226,-0.071692,-0.200112,-0.645910,0.054607,-0.076705,-0.291860
1042,1704600260,0.733754,-0.076066,-0.199400,-0.645029,0.390376,-0.324351,-0.263783
1043,1704633594,0.734082,-0.081464,-0.198729,-0.644204,0.500560,-0.159001,-0.117364
1044,1704666928,0.733661,-0.088071,-0.199346,-0.643623,0.879266,-0.578336,0.261967
1045,1704700262,0.732794,-0.094334,-0.199219,-0.643762,1.135210,-0.747769,0.082076
1046,1704733596,0.730554,-0.101234,-0.198898,-0.645357,1.321484,-0.702366,0.342578
1047,1704766930,0.726871,-0.108091,-0.196811,-0.649033,1.761201,-0.885583,0.308975
1048,1704800264,0.722330,-0.112801,-0.189330,-0.655495,1.932260,-0.767639,0.550598
1049,1704833598,0.715656,-0.116400,-0.178916,-0.665042,1.906521,-0.756922,0.847462
1050,1704866932,0.706536,-0.119522,-0.166637,-0.677317,1.567347,-0.914381,0.602357
1051,1704900266,0.694531,-0.123542,-0.154369,-0.691765,1.239904,-1.270717,0.414352
1052,1704933600,0.679733,-0.127797,-0.142048,-0.708136,0.606338,-1.106704,0.104345
1053,1704966934,0.662623,-0.132076,-0.129279,-0.725795,0.575539,-1.092051,-0.340940
1054,1705000268,0.643704,-0.137291,-0.116399,-0.743809,0.193274,-0.755998,-0.113845
1055,1705033602,0.623982,-0.141750,-0.103549,-0.761469,-0.157609,-0.400909,-0.117083
1056,1705066936,0.604339,-0.144170,-0.090837,-0.778294,-0.259155,0.203475,-0.254289
1057,1705100270,0.585237,-0.144899,-0.078156,-0.793976,-0.161815,-0.682103,0.268119
1058,1705133604,0.566359,-0.145521,-0.065801,-0.808539,-0.552876,-0.199101,0.364767
1059,1705166938,0.547394,-0.146900,-0.055855,-0.821988,-0.865176,-0.148674,0.558715
1060,1705200272,0.527952,-0.148347,-0.048742,-0.834798,-0.967624,-0.444350,0.451338
1061,1705233606,0.508467,-0.148986,-0.042686,-0.847022,-0.470729,-0.650176,-0.002584
1062,1705266940,0.488949,-0.152037,-0.037995,-0.858122,-0.646835,-0.607063,-0.140598
1063,1705300274,0.469404,-0.158207,-0.035107,-0.867987,-0.587580,0.034703,-0.512684
1064,1705333608,0.449766,-0.167766,-0.033283,-0.876619,-1.052917,-0.622329,-0.152571
1065,1705366942,0.430895,-0.172206,-0.028544,-0.885361,-1.247869,0.126775,0.313638
1066,1705400276,0.412192,-0.177826,-0.025427,-0.893215,-0.860956,0.680796,-0.269580
1067,1705433610,0.394588,-0.186510,-0.024662,-0.899394,-0.847716,0.368083,-0.115222
1068,1705466944,0.379151,-0.194675,-0.023951,-0.904310,-0.135084,0.711259,-0.341651
1069,1705500278,0.365116,-0.207923,-0.025306,-0.907095,-0.064197,0.592032,-0.821957
1070,1705533612,0.353319,-0.222626,-0.024866,-0.908289,-0.539517,0.093530,-1.600514
1071,1705566946,0.344550,-0.233119,-0.018184,-0.909183,-0.401931,1.097215,-1.347862
1072,1705600280,0.338228,-0.248592,-0.010010,-0.907583,-0.093445,2.158315,-2.084018
1073,1705633614,0.336252,-0.259691,0.003936,-0.905253,-2.267899,0.701110,-1.610159
1074,1705666948,0.338631,-0.256720,0.028039,-0.904788,-0.625798,3.688633,-2.056850
1075,1705700282,0.343730,-0.262402,0.049301,-0.900316,-1.444742,2.625217,0.025131
1076,1705733616,0.350548,-0.258039,0.077129,-0.896987,-0.852718,1.633811,0.115937
1077,1705766950,0.357434,-0.254834,0.106187,-0.892204,-0.765581,2.388864,1.299145
1078,1705800284,0.364955,-0.257398,0.128734,-0.885430,-0.767916,2.382968,3.045012
1079,1705833618,0.372742,-0.262221,0.143213,-0.878520,-0.609785,0.702226,3.400911
1080,1705866952,0.379098,-0.265155,0.152234,-0.873388,0.504373,0.227374,3.649046
1081,1705900286,0.384613,-0.267331,0.155214,-0.869781,0.581122,-0.334402,2.668994
1082,1705933620,0.389614,-0.267560,0.154351,-0.867636,0.406117,-0.437248,1.414220
1083,1705966954,0.394926,-0.267646,0.150681,-0.865851,0.116007,-0.226954,0.698471
1084,1706000288,0.401206,-0.268860,0.144772,-0.863593,-0.349938,-0.244976,0.207816
1085,1706033622,0.408059,-0.270072,0.138419,-0.861042,-0.747570,0.096484,0.237427
1086,1706066956,0.415243,-0.271911,0.131045,-0.858177,-0.938569,0.687895,0.001637
1087,1706100290,0.423003,-0.275827,0.121885,-0.854480,-0.984252,0.953499,-0.015682
1088,1706133624,0.431615,-0.280203,0.111444,-0.850164,-1.022950,1.398320,0.369443
1089,1706166958,0.441602,-0.286387,0.098100,-0.844601,-0.737125,1.645107,0.156756
1090,1706200292,0.453455,-0.292881,0.082722,-0.837711,-0.776334,1.956880,0.336153
1091,1706233626,0.468452,-0.301177,0.065097,-0.828017,0.205007,1.845600,0.138627
1092,1706266960,0.487702,-0.312315,0.044807,-0.814004,0.368716,1.776767,0.106657
1093,1706300294,0.509997,-0.321620,0.023074,-0.797455,-0.613693,0.410583,1.058768
1094,1706333628,0.531417,-0.325321,0.001678,-0.782153,-0.856890,0.471670,1.195023
1095,1706366962,0.550572,-0.326335,-0.020914,-0.768077,-0.934225,0.684990,1.611627
1096,1706400296,0.568136,-0.323878,-0.044780,-0.755197,-1.242842,-0.148797,1.687024
1097,1706433630,0.584873,-0.316534,-0.066843,-0.743818,-1.019984,0.696338,0.958985
1098,1706466964,0.600590,-0.308890,-0.090982,-0.731851,-1.108184,0.841087,0.988360
1099,1706500298,0.615620,-0.298424,-0.115226,-0.720196,-1.169499,-0.162491,1.154682
1100,1706533632,0.629165,-0.285784,-0.139003,-0.709339,-0.686691,-0.079870,0.341757
1101,1706566966,0.641411,-0.271969,-0.162340,-0.698766,-0.707998,-0.665023,1.354970
1102,1706600300,0.653506,-0.252944,-0.182863,-0.689576,-0.579837,-0.508990,1.091094
1103,1706633634,0.663866,-0.232327,-0.203833,-0.681001,-0.680594,-1.259315,1.131815
1104,1706666968,0.672269,-0.209319,-0.224068,-0.673823,-0.175593,-0.926888,0.563458
1105,1706700302,0.678844,-0.185108,-0.243222,-0.667647,0.273327,-1.243634,0.603149
1106,1706733636,0.685649,-0.156791,-0.257098,-0.662727,0.403881,-1.402160,0.288035
1107,1706766970,0.692789,-0.125567,-0.266222,-0.658335,0.596921,-0.827029,-0.188550
1108,1706800304,0.698431,-0.095185,-0.275052,-0.653822,0.884134,-1.006695,-0.191944
1109,1706833638,0.703863,-0.063812,-0.279904,-0.649740,0.961546,-1.834614,-0.282809
1110,1706866972,0.711301,-0.029268,-0.276274,-0.645656,1.013121,-0.042423,-1.214232
1111,1706900306,0.717063,0.000329,-0.273462,-0.641127,1.020951,-0.567592,-1.230654
1112,1706933640,0.723361,0.027911,-0.267107,-0.636103,1.160659,-1.006914,-1.478935
1113,1706966974,0.729188,0.050897,-0.259977,-0.630960,0.772641,0.360916,-2.040744
1114,1707000308,0.731487,0.062844,-0.259263,-0.627506,1.428016,0.534821,-2.494180
1115,1707033642,0.730975,0.064542,-0.262710,-0.626496,1.269890,-1.488863,-1.606703
1116,1707066976,0.731184,0.065490,-0.260989,-0.626873,0.892939,-2.591929,-1.058235
1117,1707100310,0.729592,0.064491,-0.257511,-0.630260,0.910512,-2.590249,-1.045197
1118,1707133644,0.725259,0.063465,-0.252964,-0.637169,0.383218,-3.105466,0.020675
1119,1707166978,0.719032,0.066941,-0.246290,-0.646419,0.038824,-1.945257,0.875579
1120,1707200312,0.709315,0.071371,-0.244186,-0.657386,0.011463,-1.169887,1.340050
1121,1707233646,0.698961,0.080418,-0.242025,-0.668143,0.010452,-1.111899,1.582711
1122,1707266980,0.688540,0.094072,-0.238868,-0.678240,-0.003806,0.317042,1.259464
1123,1707300314,0.677348,0.108280,-0.238195,-0.687562,-0.080303,0.872807,1.115626
1124,1707333648,0.667023,0.124075,-0.237776,-0.695091,0.051818,0.807798,0.818454
1125,1707366982,0.658896,0.142893,-0.234606,-0.700287,-0.017191,0.934767,0.621842
1126,1707400316,0.651748,0.161614,-0.231448,-0.703947,-0.156190,1.304089,0.444983
1127,1707433650,0.644880,0.178548,-0.229827,-0.706707,-0.029466,0.807499,0.367416
1128,1707466984,0.639067,0.196277,-0.227197,-0.708134,-0.001003,0.413866,0.196477
1129,1707500318,0.634215,0.215423,-0.222965,-0.708276,0.074007,0.605534,0.254265
1130,1707533652,0.629870,0.233685,-0.219554,-0.707428,0.522623,0.621892,0.301666
1131,1707566986,0.626127,0.250192,-0.216518,-0.706040,0.647013,0.432052,0.134600
1132,1707600320,0.623851,0.266540,-0.211499,-0.703589,0.772005,-0.045851,-0.124127
1133,1707633654,0.623860,0.284386,-0.203448,-0.698953,0.696984,0.052666,-0.205925
1134,1707666988,0.624565,0.300057,-0.195999,-0.693883,0.313852,0.187889,-0.311358
1135,1707700322,0.625372,0.312614,-0.189739,-0.689337,0.416199,0.042492,-0.870210
1136,1707733656,0.628100,0.324706,-0.181892,-0.683356,0.561659,0.715126,-0.938439
1137,1707766990,0.634207,0.336013,-0.172909,-0.674524,0.353675,1.657774,-1.074902
1138,1707800324,0.644009,0.344680,-0.164101,-0.662965,0.875649,2.108736,-1.193175
1139,1707833658,0.658181,0.347550,-0.154765,-0.649660,0.626773,2.368204,-1.376287
1140,1707866992,0.674242,0.340116,-0.148910,-0.638395,0.142263,1.934832,-2.177636
1141,1707900326,0.690527,0.323009,-0.147138,-0.630231,-0.152742,0.498000,-2.542990
1142,1707933660,0.706542,0.304088,-0.142529,-0.622911,-1.276261,-2.258173,-2.635017
1143,1707966994,0.720422,0.290665,-0.132284,-0.615639,-2.619504,-2.578336,-2.380966
1144,1708000328,0.727585,0.275379,-0.128137,-0.615119,-1.976655,-3.128232,-2.126813
1145,1708033662,0.729063,0.262270,-0.127689,-0.619178,-1.608830,-4.300453,-1.049380
1146,1708066996,0.727086,0.255146,-0.127056,-0.624586,-1.397616,-2.660291,-0.392347
1147,1708100330,0.722330,0.249317,-0.129274,-0.631959,-0.670946,-2.074065,-0.597729
1148,1708133664,0.716044,0.244547,-0.132195,-0.640317,-0.332133,-1.436100,-0.220464
1149,1708166998,0.709012,0.240687,-0.133601,-0.649250,-0.112164,-0.921941,0.469378
1150,1708200332,0.701005,0.235117,-0.136654,-0.659273,-0.887660,-0.228666,0.758511
1151,1708233666,0.691997,0.228497,-0.142379,-0.669822,-0.638332,-0.498851,0.877843
1152,1708267000,0.683594,0.225229,-0.146339,-0.678646,-0.638220,0.273836,1.423996
1153,1708300334,0.675366,0.222001,-0.152984,-0.686437,-0.554072,0.547971,1.628751
1154,1708333668,0.668064,0.221725,-0.159257,-0.692220,-0.474559,0.138458,1.702102
1155,1708367002,0.662616,0.226559,-0.163468,-0.694905,-0.108763,0.919922,2.119230
1156,1708400336,0.658020,0.233014,-0.167893,-0.696081,0.416723,0.598511,1.425206
1157,1708433670,0.654182,0.242020,-0.169893,-0.696141,-0.255990,0.789518,1.603223
1158,1708467004,0.650366,0.253232,-0.172023,-0.695205,-0.271368,0.750270,1.878150
1159,1708500338,0.646698,0.264474,-0.175631,-0.693536,0.469559,1.050676,0.770875
1160,1708533672,0.643700,0.274238,-0.179239,-0.691607,0.643161,1.478059,0.274662
1161,1708567006,0.641885,0.282166,-0.182681,-0.689201,0.796324,0.641667,-0.398051
1162,1708600340,0.642453,0.290132,-0.183695,-0.685082,0.917928,1.141758,-0.722754
1163,1708633674,0.644440,0.294692,-0.185111,-0.680876,1.148991,1.530151,-0.929308
1164,1708667008,0.648041,0.294692,-0.187434,-0.676810,1.400110,2.095119,-1.483221
1165,1708700342,0.655543,0.290703,-0.188282,-0.671051,2.156006,1.934922,-2.502408
1166,1708733676,0.668948,0.283314,-0.183418,-0.662272,1.663818,2.554536,-2.605443
1167,1708767010,0.685544,0.267888,-0.179116,-0.652830,0.493715,1.302273,-2.986906
1168,1708800344,0.703033,0.244147,-0.176538,-0.644185,0.104549,0.317229,-2.828411
1169,1708833678,0.720218,0.215413,-0.172779,-0.636424,-0.538242,-0.807239,-2.963356
1170,1708867012,0.735260,0.183851,-0.168160,-0.630332,-1.324035,-1.834187,-2.746467
1171,1708900346,0.747762,0.152131,-0.164682,-0.624973,-2.314962,-3.133200,-0.145554
1172,1708933680,0.755892,0.122761,-0.166453,-0.621172,-2.585356,-3.204651,1.958091
1173,1708967014,0.759598,0.096570,-0.175326,-0.618829,-1.444976,-2.780962,1.806133
1174,1709000348,0.760698,0.075460,-0.185622,-0.617408,-0.152019,-1.389064,2.932646
1175,1709033682,0.759822,0.059013,-0.196465,-0.616923,-0.054393,0.343612,3.636093
1176,1709067016,0.759370,0.049947,-0.204318,-0.615727,0.407391,1.301728,3.720204
1177,1709100350,0.760565,0.047973,-0.208721,-0.612927,0.218820,1.820061,4.103371
1178,1709133684,0.761164,0.049159,-0.216503,-0.609379,-0.288136,1.574962,3.149837
1179,1709167018,0.760784,0.052655,-0.226789,-0.605810,0.161988,-0.904935,2.233190
1180,1709200352,0.762366,0.064962,-0.229456,-0.601608,-0.229050,-0.197556,1.839436
1181,1709233686,0.763736,0.080879,-0.232543,-0.596736,-0.132163,0.070697,1.167167
1182,1709267020,0.765205,0.099137,-0.236042,-0.590695,0.186688,-0.173283,0.624042
1183,1709300354,0.767197,0.118752,-0.239503,-0.583052,-0.053471,0.508729,-0.038531
1184,1709333688,0.769430,0.137339,-0.243810,-0.574174,0.375286,0.589238,-0.798662
1185,1709367022,0.773129,0.155729,-0.245450,-0.563718,0.612260,-0.161155,-0.413618
1186,1709400356,0.777272,0.172090,-0.246838,-0.552547,0.454572,0.533741,-0.890723
1187,1709433690,0.780715,0.184091,-0.250499,-0.542078,1.120803,-0.029372,-1.101859
1188,1709467024,0.785225,0.193523,-0.251736,-0.531604,1.297719,-0.565822,-1.464949
1189,1709500358,0.789958,0.199250,-0.251193,-0.522659,1.099120,-0.786381,-1.719666
1190,1709533692,0.792747,0.198571,-0.253395,-0.517606,1.373651,-1.139068,-2.364245
1191,1709567026,0.794786,0.192177,-0.254572,-0.516314,2.273440,-2.679533,-3.400016
1192,1709600360,0.797675,0.182630,-0.247417,-0.518796,1.806913,-2.828218,-4.173455
1193,1709633694,0.798136,0.167332,-0.238940,-0.527154,1.075365,-2.508819,-3.270026
1194,1709667028,0.796758,0.147309,-0.231293,-0.538502,1.365953,-1.866168,-3.213861
1195,1709700362,0.794723,0.121310,-0.224004,-0.550931,0.741681,-1.578042,-3.013547
1196,1709733696,0.791693,0.091935,-0.216308,-0.563901,0.832606,-1.377142,-2.108479
1197,1709767030,0.787024,0.057257,-0.211309,-0.576773,0.867284,-1.589854,-1.676815
1198,1709800364,0.779894,0.017473,-0.209217,-0.589655,0.891642,-1.881507,-0.199471
1199,1709833698,0.770006,-0.023251,-0.205912,-0.603452,0.741189,-2.198087,0.956005
1200,1709867032,0.757337,-0.063454,-0.201568,-0.617891,0.302170,-2.582741,1.482492
1201,1709900366,0.740832,-0.101973,-0.195321,-0.634526,0.208694,-2.217790,2.791213
1202,1709933700,0.719133,-0.137210,-0.184812,-0.655644,0.533712,-2.234610,2.626791
1203,1709967034,0.693400,-0.167575,-0.168670,-0.680198,-0.992798,-0.562347,3.571635
1204,1710000368,0.665275,-0.192123,-0.152688,-0.705116,-0.450271,0.974154,2.798183
1205,1710033702,0.636433,-0.212149,-0.137238,-0.728777,-0.562025,0.782016,2.267966
1206,1710067036,0.606397,-0.228056,-0.122347,-0.751870,-0.388335,1.374060,2.135636
1207,1710100370,0.575617,-0.239457,-0.108217,-0.774350,0.460219,0.753757,0.924783
1208,1710133704,0.545728,-0.243518,-0.089699,-0.796767,0.131945,0.138392,0.870768
1209,1710167038,0.515747,-0.243645,-0.070429,-0.818343,-0.217213,0.715692,0.862058
1210,1710200372,0.485909,-0.243781,-0.055174,-0.837510,-0.258938,0.421556,0.759422
1211,1710233706,0.457711,-0.242994,-0.043245,-0.854159,-0.054957,0.725372,0.392176
1212,1710267040,0.431013,-0.243063,-0.034524,-0.868309,-0.357032,0.250860,0.171905
1213,1710300374,0.405868,-0.241891,-0.026727,-0.880937,-0.577956,0.376890,0.079591
1214,1710333708,0.381768,-0.243604,-0.021588,-0.891318,-0.356248,0.703524,-0.482009
1215,1710367042,0.358973,-0.250021,-0.018051,-0.899059,-0.593870,0.313202,-0.967244
1216,1710400376,0.338038,-0.256289,-0.012016,-0.905487,-0.844892,0.224150,-0.917767
1217,1710433710,0.318592,-0.261997,-0.002827,-0.910963,-0.621626,0.685462,-0.978943
1218,1710467044,0.299771,-0.270515,0.008048,-0.914821,-0.833772,0.617031,-0.549114
1219,1710500378,0.281895,-0.277689,0.021323,-0.918136,-1.275663,0.459057,-0.177578
1220,1710533712,0.265201,-0.282091,0.036731,-0.921275,-0.772094,0.926638,0.274194
1221,1710567046,0.249694,-0.289898,0.050604,-0.922527,-0.282247,1.369378,0.346333
1222,1710600380,0.236803,-0.295841,0.064009,-0.923206,-1.170680,0.679968,0.575953
1223,1710633714,0.225916,-0.295808,0.077436,-0.924915,-0.078993,1.492215,0.720938
1224,1710667048,0.216810,-0.303044,0.085893,-0.924004,0.309227,1.664461,0.447000
1225,1710700382,0.210415,-0.314127,0.090836,-0.921305,-0.363414,0.849328,-0.205914
1226,1710733716,0.207295,-0.319989,0.097247,-0.919338,0.154981,1.272290,-1.088550
1227,1710767050,0.208387,-0.327135,0.104229,-0.915804,0.698062,2.072499,-1.036400
1228,1710800384,0.213721,-0.337259,0.111188,-0.910066,-0.989148,1.572725,-0.889780
1229,1710833718,0.220678,-0.332805,0.124738,-0.908287,-1.411654,2.112152,0.431385
1230,1710867052,0.225777,-0.329199,0.138732,-0.906317,-1.030455,2.454684,0.729362
1231,1710900386,0.230827,-0.328277,0.151457,-0.903337,-1.907695,2.385895,1.305188
1232,1710933720,0.235377,-0.323574,0.162663,-0.901910,-1.201245,2.254539,1.394569
1233,1710967054,0.241554,-0.324626,0.167277,-0.899050,0.583403,2.283387,1.314203
1234,1711000388,0.251195,-0.329196,0.166176,-0.894942,0.021876,0.913763,1.259220
1235,1711033722,0.263178,-0.330915,0.162641,-0.891507,0.408707,1.391027,0.661996
1236,1711067056,0.277969,-0.334783,0.155749,-0.886791,0.129905,1.126669,0.554788
1237,1711100390,0.295381,-0.337384,0.147252,-0.881614,-0.061967,1.108995,0.757161
1238,1711133724,0.314712,-0.339993,0.136070,-0.875700,-0.735556,1.067116,0.845929
1239,1711167058,0.335094,-0.343524,0.121077,-0.868935,-1.099284,1.524639,0.288801
1240,1711200392,0.356975,-0.349662,0.100863,-0.860311,-1.324735,2.224224,0.078531
1241,1711233726,0.381391,-0.357468,0.075597,-0.849144,-2.081275,1.807016,0.353347
1242,1711267060,0.408956,-0.363344,0.049173,-0.835656,-1.944805,1.591594,0.741350
1243,1711300394,0.439472,-0.367930,0.021524,-0.819165,-2.079209,1.683229,0.849852
1244,1711333728,0.471518,-0.373291,-0.007953,-0.798915,-1.858878,0.420796,1.152011
1245,1711367062,0.504160,-0.372045,-0.035041,-0.778577,-1.511068,-0.227889,1.481427
1246,1711400396,0.536834,-0.364489,-0.060049,-0.758521,-1.199785,-1.014232,1.239686
1247,1711433730,0.567891,-0.352501,-0.084423,-0.738999,-0.629265,-1.362257,1.343790
1248,1711467064,0.597188,-0.334846,-0.106954,-0.720978,0.080798,-2.104544,1.346843
1249,1711500398,0.624589,-0.312244,-0.126859,-0.704488,0.326753,-1.879786,1.643241
1250,1711533732,0.650330,-0.285211,-0.145055,-0.688976,0.677949,-2.024438,1.697979
1251,1711567066,0.675057,-0.251549,-0.158854,-0.675123,0.529714,-1.948379,1.912302
1252,1711600400,0.697112,-0.214863,-0.172530,-0.661896,0.561467,-2.037492,0.993386
1253,1711633734,0.714848,-0.178684,-0.187636,-0.649509,0.644902,-2.550510,0.521294
1254,1711667068,0.729062,-0.142297,-0.201572,-0.638430,0.288411,-1.338284,-0.169763
1255,1711700402,0.739355,-0.107934,-0.216521,-0.628353,0.456517,-1.784481,-0.836697
1256,1711733736,0.746584,-0.076326,-0.228772,-0.620044,0.699790,-2.272598,-1.345591
1257,1711767070,0.751430,-0.048297,-0.236466,-0.614091,0.365632,-1.195112,-1.744493
1258,1711800404,0.753817,-0.025750,-0.242064,-0.610332,0.849772,-1.660493,-1.813420
1259,1711833738,0.754219,-0.008569,-0.245085,-0.609112,0.427479,-0.940293,-1.689610
1260,1711867072,0.753021,0.005478,-0.246884,-0.609903,0.155613,-0.686380,-1.422781
1261,1711900406,0.749796,0.016157,-0.250381,-0.612257,0.336949,-0.109120,-1.275839
1262,1711933740,0.745617,0.023997,-0.255533,-0.614969,0.538013,0.330138,-0.647215
1263,1711967074,0.742190,0.031767,-0.259329,-0.617169,0.800748,0.363250,0.421705
1264,1712000408,0.739481,0.041030,-0.261013,-0.619161,0.764500,0.491601,0.914450
1265,1712033742,0.737009,0.051853,-0.260700,-0.621424,0.512534,0.672121,0.811831
1266,1712067076,0.734528,0.064921,-0.258257,-0.624148,0.014118,0.396654,0.807612
1267,1712100410,0.731391,0.079124,-0.255937,-0.627142,0.013370,0.866837,0.628937
1268,1712133744,0.726979,0.092589,-0.255226,-0.630708,0.478546,0.535192,0.865051
1269,1712167078,0.722171,0.106815,-0.253635,-0.634612,0.289346,1.136978,0.963899
1270,1712200412,0.715205,0.118558,-0.255239,-0.639751,0.519626,2.034607,0.830430
1271,1712233746,0.705977,0.126304,-0.260707,-0.646282,1.138949,-0.436578,0.868368
1272,1712267080,0.700895,0.140925,-0.256441,-0.650482,0.584396,-0.324343,0.652359
1273,1712300414,0.695364,0.156527,-0.251954,-0.654593,0.094537,-0.236671,0.623101
1274,1712333748,0.688673,0.172924,-0.248153,-0.658977,0.467163,-1.695207,0.225262
1275,1712367082,0.683501,0.193953,-0.239396,-0.661742,-0.062692,-0.900611,-0.255181
1276,1712400416,0.678245,0.215820,-0.230446,-0.663555,-0.392858,-0.414443,-0.559410
1277,1712433750,0.676119,0.243190,-0.215904,-0.661144,0.153453,-0.349974,-1.022223
1278,1712467084,0.675739,0.271124,-0.199172,-0.655898,-0.168120,0.859066,-1.163442
1279,1712500418,0.674556,0.293010,-0.186863,-0.651310,0.062370,0.910167,-1.113229
1280,1712533752,0.673309,0.309804,-0.177068,-0.647555,0.420235,0.384049,-1.004782
1281,1712567086,0.672700,0.323127,-0.167445,-0.644229,0.382125,0.741674,-0.751824
1282,1712600420,0.673042,0.333075,-0.158436,-0.641075,0.568502,0.918485,-0.244778
1283,1712633754,0.675914,0.340904,-0.148969,-0.636189,0.504896,1.445641,0.128438
1284,1712667088,0.682840,0.347257,-0.138291,-0.627712,0.959129,1.897435,0.256754
1285,1712700422,0.693061,0.348295,-0.129606,-0.617707,0.652179,2.261732,-0.233571
1286,1712733756,0.705668,0.342335,-0.122998,-0.608041,0.785120,1.645698,-1.677035
1287,1712767090,0.720312,0.328485,-0.117904,-0.599458,0.098650,1.235755,-1.852724
1288,1712800424,0.735690,0.310829,-0.112344,-0.591210,0.128657,-0.322503,-2.144578
1289,1712833758,0.752025,0.293542,-0.101129,-0.581437,-0.723793,-0.198553,-2.297443
1290,1712867092,0.766489,0.273805,-0.092701,-0.573529,-1.202699,-2.433612,-2.434542
1291,1712900426,0.778133,0.256678,-0.083515,-0.567145,-1.874626,-3.755940,-2.003706
1292,1712933760,0.784635,0.241788,-0.077125,-0.565634,-1.748752,-4.986009,-1.454559
1293,1712967094,0.785479,0.230894,-0.073766,-0.569450,-1.751333,-4.804617,-0.589999
1294,1713000428,0.781120,0.222704,-0.075767,-0.578375,-1.312435,-3.534867,0.194515
1295,1713033762,0.773550,0.216645,-0.082675,-0.589792,-1.575633,-1.725767,0.578823
1296,1713067096,0.764304,0.210930,-0.093803,-0.602123,-0.889536,-0.917151,1.132378
1297,1713100430,0.754784,0.207395,-0.104902,-0.613423,-0.753222,-0.813213,1.357735
1298,1713133764,0.745572,0.207714,-0.115220,-0.622660,-0.908989,-0.014215,1.969879
1299,1713167098,0.736370,0.210204,-0.126926,-0.630449,-0.316881,-0.149095,1.847320
1300,1713200432,0.727319,0.215349,-0.137276,-0.637017,-0.000099,-0.015045,1.735693
1301,1713233766,0.718091,0.222145,-0.146283,-0.643120,0.233078,0.666609,1.436691
1302,1713267100,0.709153,0.229587,-0.153699,-0.648669,0.397569,0.850550,0.953437
1303,1713300434,0.701538,0.239002,-0.157715,-0.652574,-0.133034,0.944474,0.748981
1304,1713333768,0.694972,0.248079,-0.161385,-0.655309,0.369450,1.483345,0.126706
1305,1713367102,0.689497,0.254392,-0.165596,-0.657617,0.673318,1.141016,-0.033257
1306,1713400436,0.685549,0.259821,-0.168567,-0.658866,0.611008,1.615519,-0.126105
1307,1713433770,0.683077,0.261461,-0.172452,-0.659779,1.446256,1.762220,-0.884467
1308,1713467104,0.684205,0.261488,-0.173595,-0.658298,1.366881,1.894882,-0.880641
1309,1713500438,0.688842,0.258925,-0.172577,-0.654733,1.022263,2.155738,-1.027474
1310,1713533772,0.697116,0.253043,-0.170235,-0.648862,1.018853,2.031484,-1.126521
1311,1713567106,0.708298,0.243139,-0.166543,-0.641456,1.045579,1.613826,-1.302842
1312,1713600440,0.721514,0.228549,-0.162355,-0.633109,0.708491,1.063024,-1.881015
1313,1713633774,0.736263,0.210875,-0.154504,-0.624165,0.433917,-0.923566,-1.924302
1314,1713667108,0.749696,0.194304,-0.144564,-0.615879,-1.715443,-1.615711,0.208956
1315,1713700442,0.758322,0.178238,-0.140233,-0.611161,-0.909322,-3.711043,0.664660
1316,1713733776,0.762422,0.166729,-0.137851,-0.609848,-0.522510,-3.660796,1.074098
1317,1713767110,0.761490,0.160816,-0.138099,-0.612538,-0.600387,-3.401886,2.017282
1318,1713800444,0.756494,0.159166,-0.141995,-0.618243,-0.254460,-2.185809,1.553953
1319,1713833778,0.748268,0.159684,-0.147830,-0.626695,-0.235984,-2.316057,1.105392
1320,1713867112,0.737004,0.162302,-0.154085,-0.637765,-0.434426,-1.510567,0.958564
1321,1713900446,0.723815,0.167367,-0.160138,-0.649954,-0.621737,-0.800153,0.918610
1322,1713933780,0.709651,0.173943,-0.166985,-0.662011,-0.762669,-0.068380,0.787047
1323,1713967114,0.695219,0.182306,-0.173880,-0.673205,-0.835671,0.529052,0.642879
1324,1714000448,0.681017,0.191084,-0.181436,-0.683219,-0.309007,1.116024,0.291672
1325,1714033782,0.667987,0.199781,-0.188176,-0.691718,-0.259101,0.786991,0.153380
1326,1714067116,0.656733,0.210113,-0.192975,-0.698082,-0.179811,1.058912,0.409784
1327,1714100450,0.646725,0.219663,-0.198751,-0.702849,0.290736,1.466787,-0.119232
1328,1714133784,0.638681,0.227396,-0.204614,-0.706055,0.726145,1.521037,-0.466180
1329,1714167118,0.633398,0.234914,-0.208250,-0.707289,0.360815,1.049092,-0.455355
1330,1714200452,0.630576,0.240324,-0.211017,-0.707173,1.051378,1.281635,-0.801254
1331,1714233786,0.631382,0.243117,-0.211744,-0.705280,1.465886,1.952376,-1.185705
1332,1714267120,0.636064,0.241709,-0.211326,-0.701672,1.272242,2.175202,-1.136660
1333,1714300454,0.644286,0.234124,-0.211677,-0.696619,1.290311,2.487948,-1.394889
1334,1714333788,0.656449,0.220868,-0.211611,-0.689578,1.336497,2.065733,-1.818562
1335,1714367122,0.674040,0.205357,-0.206221,-0.678952,1.254773,2.228776,-2.003135
1336,1714400456,0.695391,0.183061,-0.198990,-0.665827,1.074863,2.233685,-2.982472
1337,1714433790,0.719356,0.154736,-0.188719,-0.650364,-0.015639,-0.709708,-2.757199
1338,1714467124,0.744086,0.129054,-0.168075,-0.633590,-1.507427,-1.465060,-1.820670
1339,1714500458,0.763231,0.102026,-0.149299,-0.620309,-2.842335,-4.105244,0.422075
1340,1714533792,0.774182,0.075703,-0.140355,-0.612549,-2.168439,-4.203458,2.390574
1341,1714567126,0.777445,0.053464,-0.139632,-0.610923,-0.828519,-4.721950,2.833448
1342,1714600460,0.776837,0.040612,-0.140701,-0.612439,-0.846438,-2.658282,3.162154
1343,1714633794,0.773284,0.032610,-0.146413,-0.616065,-0.157667,-1.275029,2.456730
1344,1714667128,0.767954,0.027150,-0.155864,-0.620661,0.103420,-0.927318,1.722055
1345,1714700462,0.761663,0.024477,-0.166157,-0.625832,-0.369567,-0.675968,1.242713
1346,1714733796,0.753761,0.022174,-0.178415,-0.632080,-0.083678,-0.459421,0.894597
1347,1714767130,0.745239,0.021310,-0.189688,-0.638895,-0.425030,-0.544500,0.600796
1348,1714800464,0.736817,0.023345,-0.199390,-0.645603,-0.975338,-0.624880,0.586713
1349,1714833798,0.728253,0.026921,-0.209254,-0.652027,-0.460974,0.041481,0.509547
1350,1714867132,0.720522,0.034250,-0.216376,-0.657921,-1.061100,-1.136403,1.349523
1351,1714900466,0.713593,0.047433,-0.221058,-0.663078,-0.660704,-0.051730,1.174014
1352,1714933800,0.706238,0.062292,-0.227107,-0.667663,-0.170509,0.086638,1.265785
1353,1714967134,0.698322,0.078201,-0.234237,-0.671840,0.334504,0.647068,0.734474
1354,1715000468,0.690852,0.094723,-0.239816,-0.675457,0.664579,0.957063,0.183657
1355,1715033802,0.683663,0.110042,-0.244248,-0.678853,0.988006,1.414261,-0.595422
1356,1715067136,0.677389,0.123090,-0.246555,-0.682061,1.808082,0.566120,-1.071841
1357,1715100470,0.674237,0.133881,-0.245050,-0.683692,1.900188,1.750113,-1.376482
1358,1715133804,0.674477,0.141490,-0.240934,-0.683386,2.268282,2.589321,-1.718008
1359,1715167138,0.677263,0.137882,-0.240157,-0.681639,2.883991,2.919396,-3.071990
1360,1715200472,0.688991,0.130082,-0.231777,-0.674280,2.278205,2.726938,-3.557779
1361,1715233806,0.706781,0.113300,-0.219390,-0.662945,2.169735,3.522349,-4.723431
1362,1715267140,0.729422,0.084672,-0.204558,-0.647251,1.056620,2.547816,-4.986003
1363,1715300474,0.754337,0.046255,-0.187225,-0.627524,-0.660034,0.557678,-3.559170
1364,1715333808,0.774406,-0.000296,-0.172904,-0.608607,-2.378061,-4.576399,-0.473105
1365,1715367142,0.787369,-0.039496,-0.157970,-0.594592,-2.746993,-6.257108,3.170508
1366,1715400476,0.790589,-0.074618,-0.153867,-0.587989,-0.348462,-5.101964,4.579257
1367,1715433810,0.786670,-0.104427,-0.157725,-0.587684,1.138264,-4.037985,4.232016
1368,1715467144,0.779634,-0.124734,-0.159565,-0.592583,1.792021,-2.661309,2.603890
1369,1715500478,0.769951,-0.140545,-0.159714,-0.601596,1.705049,-0.766147,1.323744
1370,1715533812,0.757216,-0.156818,-0.161198,-0.613230,1.675189,-0.499216,0.514844
1371,1715567146,0.743619,-0.171210,-0.158634,-0.626543,1.064869,-0.545252,0.204381
1372,1715600480,0.729130,-0.185033,-0.153961,-0.640649,0.697382,0.193702,-0.289785
1373,1715633814,0.712348,-0.202176,-0.151433,-0.654795,0.646755,-0.481120,-0.240732
1374,1715667148,0.694714,-0.216985,-0.143768,-0.670540,0.246073,-1.535946,0.271626
1375,1715700482,0.675776,-0.229592,-0.133417,-0.687617,-0.370953,-0.095801,-0.019369
1376,1715733816,0.654214,-0.246793,-0.128880,-0.703201,-0.280714,-0.590198,-0.249664
1377,1715767150,0.632641,-0.261105,-0.120892,-0.719013,-0.247007,-1.012850,-0.101660
1378,1715800484,0.609990,-0.274635,-0.110911,-0.734976,-0.243883,-0.152991,0.029050
1379,1715833818,0.585258,-0.290505,-0.102621,-0.750035,-0.328790,-0.525014,0.613323
1380,1715867152,0.559991,-0.302837,-0.091397,-0.765736,-0.336054,-0.391602,0.804218
1381,1715900486,0.533638,-0.314946,-0.079892,-0.780808,-0.144547,-0.133296,0.628885
1382,1715933820,0.506176,-0.326833,-0.067191,-0.795271,-0.382435,-0.623672,1.213344
1383,1715967154,0.477549,-0.334966,-0.052028,-0.810581,-0.619917,-0.470652,1.007023
1384,1716000488,0.447833,-0.340977,-0.036479,-0.825744,-0.329948,-0.018474,0.693615
1385,1716033822,0.417607,-0.345775,-0.021520,-0.839991,-0.507402,-0.376573,0.569899
1386,1716067156,0.387387,-0.346499,-0.005709,-0.854308,-0.604879,-0.041926,0.311715
1387,1716100490,0.357253,-0.348002,0.007824,-0.866722,-0.505887,0.220951,0.242912
1388,1716133824,0.328987,-0.348304,0.020145,-0.877525,-0.885414,0.268654,0.180145
1389,1716167158,0.303237,-0.346188,0.031933,-0.887235,-0.632827,0.855170,-0.003733
1390,1716200492,0.279465,-0.349939,0.039889,-0.893227,-0.116384,1.385426,-0.277527
1391,1716233826,0.257932,-0.357540,0.046032,-0.896393,-2.086590,0.008785,0.766253
1392,1716267160,0.238754,-0.355644,0.055322,-0.901918,-0.663942,1.457551,0.026530
1393,1716300494,0.221098,-0.360655,0.061354,-0.904037,0.090910,1.883339,-0.392965
1394,1716333828,0.205519,-0.369779,0.065693,-0.903722,-1.830532,0.817655,0.577511
1395,1716367162,0.191010,-0.366344,0.073115,-0.907725,-1.104160,1.689872,0.318336
1396,1716400496,0.177540,-0.366314,0.078486,-0.910021,-0.098835,2.198088,0.097691
1397,1716433830,0.166488,-0.369512,0.082016,-0.910505,-0.509476,1.489984,0.288676
1398,1716467164,0.157485,-0.369942,0.085503,-0.911611,-0.020387,1.583529,-0.026157
1399,1716500498,0.150168,-0.373028,0.087525,-0.911396,0.470838,1.582517,-0.182579
1400,1716533832,0.144656,-0.380194,0.087821,-0.909296,0.158026,1.142405,0.090407
1401,1716567166,0.140862,-0.382820,0.088688,-0.908705,0.000345,0.997554,0.217793
1402,1716600500,0.138798,-0.386332,0.088945,-0.907510,0.773178,0.990245,-0.059709
1403,1716633834,0.138992,-0.395463,0.087198,-0.903709,0.574302,1.097903,0.479916
1404,1716667168,0.139950,-0.403805,0.083650,-0.900201,-0.474397,0.378627,0.521250
1405,1716700502,0.141288,-0.411325,0.079564,-0.896952,0.164798,0.393264,-0.246593
1406,1716733836,0.145575,-0.422837,0.074613,-0.891321,0.624593,0.630288,-0.220721
1407,1716767170,0.152164,-0.427686,0.072966,-0.888037,-0.680574,0.133907,-0.438893
1408,1716800504,0.160221,-0.422432,0.075081,-0.888958,1.254383,1.108055,-0.989025
1409,1716833838,0.168557,-0.417560,0.080109,-0.889279,-1.947058,0.273962,-0.214312
1410,1716867172,0.176316,-0.405157,0.089693,-0.892592,-1.570559,1.727700,0.399217
1411,1716900506,0.183508,-0.396025,0.094674,-0.894723,-0.319309,2.942225,1.258422
1412,1716933840,0.191923,-0.394547,0.091687,-0.893921,-0.387710,2.272032,0.975495
1413,1716967174,0.201883,-0.394837,0.085218,-0.892238,-0.178104,1.889813,-0.112334
1414,1717000508,0.213873,-0.397235,0.077746,-0.889057,-0.244846,1.259025,-0.254108
1415,1717033842,0.227664,-0.400669,0.069909,-0.884731,-0.648380,1.322880,0.194146
1416,1717067176,0.243238,-0.402800,0.060523,-0.880300,-0.655399,1.880828,0.305596
1417,1717100510,0.261054,-0.406346,0.047793,-0.874330,-0.633812,2.075343,0.152728
1418,1717133844,0.281401,-0.411780,0.032111,-0.866154,-0.971062,1.691517,0.259112
1419,1717167178,0.303769,-0.417867,0.014641,-0.856096,-1.606949,1.537489,0.101146
1420,1717200512,0.327531,-0.425008,-0.003686,-0.843850,-1.421231,0.813150,0.111124
1421,1717233846,0.352411,-0.428063,-0.020888,-0.831947,-1.493363,0.596272,0.809576
1422,1717267180,0.377647,-0.429224,-0.039544,-0.819506,-1.617395,0.785590,0.481401
1423,1717300514,0.402522,-0.431222,-0.060764,-0.805193,-1.437198,-0.134734,0.518250
1424,1717333848,0.427869,-0.430500,-0.081502,-0.790543,-1.214303,-0.478497,0.530035
1425,1717367182,0.453742,-0.427692,-0.102989,-0.774980,-1.476070,0.080301,0.309941
1426,1717400516,0.479272,-0.426243,-0.128351,-0.756403,-1.578652,-0.596120,0.373384
1427,1717433850,0.504866,-0.421274,-0.153282,-0.737663,-1.473800,-1.014180,0.531796
1428,1717467184,0.529513,-0.415558,-0.179304,-0.717483,-1.067450,-0.964381,0.043465
1429,1717500518,0.552850,-0.409184,-0.205642,-0.696162,-0.798995,-1.967426,0.649829
1430,1717533852,0.575655,-0.398996,-0.228466,-0.676188,-0.552531,-1.831895,0.089190
1431,1717567186,0.596297,-0.389589,-0.251069,-0.655453,-0.058638,-1.805706,-0.018236
1432,1717600520,0.614827,-0.380094,-0.272274,-0.635128,0.363842,-2.327624,0.401904
1433,1717633854,0.631682,-0.369256,-0.289910,-0.616915,0.758796,-2.090019,-0.156922
1434,1717667188,0.646094,-0.359506,-0.305597,-0.599944,1.104204,-1.914115,-0.109284
1435,1717700522,0.658918,-0.350812,-0.318578,-0.584183,1.075370,-1.724934,-0.077374
1436,1717733856,0.671329,-0.343460,-0.328885,-0.568499,0.684850,-1.621468,-0.190829
1437,1717767190,0.683090,-0.339181,-0.338674,-0.551043,-0.027577,-1.669363,0.071676
1438,1717800524,0.693581,-0.336164,-0.348283,-0.533518,0.130403,-1.205984,-0.270866
1439,1717833858,0.701663,-0.334388,-0.358779,-0.516852,0.782777,-0.608557,-0.791181
1440,1717867192,0.708203,-0.333146,-0.367950,-0.502075,1.612857,-0.170594,-1.030217
1441,1717900526,0.713912,-0.332461,-0.374351,-0.489556,2.133786,0.436587,-1.093412
1442,1717933860,0.718145,-0.332859,-0.379612,-0.478927,2.346554,1.135563,-0.504150
1443,1717967194,0.720822,-0.333241,-0.384677,-0.470524,2.856288,1.213917,-0.357063
1444,1718000528,0.722326,-0.332608,-0.387800,-0.466082,3.155784,1.055096,0.647341
1445,1718033862,0.722934,-0.330002,-0.388666,-0.466270,2.366116,1.150452,1.603566
1446,1718067196,0.722372,-0.324866,-0.388689,-0.470707,2.019963,0.591427,2.265281
1447,1718100530,0.720834,-0.316674,-0.388084,-0.479073,1.404082,0.282546,2.456481
1448,1718133864,0.718456,-0.305361,-0.387883,-0.490026,0.756166,0.385951,2.098912
1449,1718167198,0.715696,-0.291345,-0.387598,-0.502661,0.590221,0.291689,2.080484
1450,1718200532,0.713533,-0.274045,-0.384445,-0.517664,0.277624,0.129438,1.163085
1451,1718233866,0.710231,-0.255932,-0.381262,-0.533586,0.252030,0.153240,0.857470
1452,1718267200,0.707728,-0.235270,-0.375182,-0.550465,0.078150,-0.642918,1.299389
1453,1718300534,0.706980,-0.210822,-0.364904,-0.567963,-0.017881,-0.980532,0.474133
1454,1718333868,0.706403,-0.185817,-0.354307,-0.583898,-0.241979,-0.608666,-0.271792
1455,1718367202,0.704419,-0.162835,-0.347787,-0.596930,-0.651806,-0.763818,-0.581128
1456,1718400536,0.701311,-0.142193,-0.344741,-0.607537,-0.330586,-1.723923,-1.100248
1457,1718433870,0.698256,-0.123566,-0.341393,-0.616949,-0.199523,-1.674683,-1.440790
1458,1718467204,0.695051,-0.107802,-0.337342,-0.625689,-0.307635,-1.149294,-1.616876
1459,1718500538,0.689935,-0.096454,-0.335661,-0.634052,-0.391616,-1.424409,-0.729308
1460,1718533872,0.685954,-0.083556,-0.329648,-0.643290,0.386135,-1.123850,0.147789
