sep=,
DeviceTag:,R_Wrist
FirmwareVersion:,2.2.1
AppVersion:,2023.6.0
SyncStatus:,Synced
OutputRate:,30Hz
FilterProfile:,General
Measurement Mode:,Sensor fusion Mode - Complete(Quaternion)
StartTime: ,2026-09-07_14:25:59_118 AEST
© Movella Technologies B. V. 2005-2026

PacketCounter,SampleTimeFine,Quat_W,Quat_X,Quat_Y,Quat_Z,FreeAcc_X,FreeAcc_Y,FreeAcc_Z
1,2542585561,0.458120,-0.551475,0.200265,-0.667754,-0.194080,-0.113750,-0.268137
2,2542618895,0.452335,-0.552119,0.198851,-0.671578,-0.214083,0.144134,0.219379
3,2542652229,0.446843,-0.552666,0.197551,-0.675178,-0.252005,0.330180,0.428176
4,2542685563,0.441912,-0.552997,0.196665,-0.678403,-0.281702,0.421120,0.427239
5,2542718897,0.437721,-0.553076,0.196402,-0.681127,-0.368482,0.506613,0.528453
6,2542752231,0.435372,-0.552862,0.196626,-0.682740,-0.712343,0.753152,0.662707
7,2542785565,0.435047,-0.553501,0.198797,-0.681800,-1.483780,1.164201,1.300490
8,2542818899,0.441132,-0.553106,0.202650,-0.677060,-2.246599,2.121295,3.009779
9,2542852233,0.459377,-0.548428,0.204542,-0.668104,-2.876464,2.087145,2.695831
10,2542885567,0.483515,-0.542729,0.209405,-0.654070,-2.679082,1.631436,2.112943
11,2542918901,0.507420,-0.538642,0.219925,-0.635628,-2.094325,1.175933,1.742701
12,2542952235,0.530749,-0.534065,0.234106,-0.615041,-1.064450,0.658689,1.600163
13,2542985569,0.552382,-0.528006,0.251244,-0.594105,0.153042,-0.006128,0.941974
14,2543018903,0.568345,-0.522761,0.274128,-0.573201,1.065741,-0.334673,0.552786
15,2543052237,0.578259,-0.518575,0.302059,-0.552682,1.231718,-0.275889,0.806871
16,2543085571,0.585344,-0.513185,0.331542,-0.533005,1.554249,-0.565195,0.887065
17,2543118905,0.589218,-0.508283,0.363473,-0.512209,1.632380,-0.715915,0.570081
18,2543152239,0.590722,-0.503996,0.396492,-0.489725,0.680663,-0.884711,0.356099
19,2543185573,0.591339,-0.499797,0.428036,-0.466162,0.493604,-1.079634,0.029534
20,2543218907,0.592060,-0.495703,0.456898,-0.441574,0.070167,-0.762625,-0.226209
21,2543252241,0.589915,-0.495444,0.485250,-0.413603,-0.928018,-0.673326,0.090596
22,2543285575,0.586554,-0.495533,0.511860,-0.385228,-0.356282,-0.623181,0.752133
23,2543318909,0.583180,-0.494877,0.535774,-0.357695,-0.932900,-0.414608,0.319362
24,2543352243,0.575712,-0.498206,0.559960,-0.326791,-0.579358,-0.571598,1.262814
25,2543385577,0.568909,-0.500501,0.581861,-0.295429,-0.344548,-0.446147,1.458248
26,2543418911,0.562712,-0.501090,0.601608,-0.265201,-0.430807,-0.143928,0.939730
27,2543452245,0.555158,-0.502302,0.619971,-0.234797,-0.186095,0.096360,0.173611
28,2543485579,0.545342,-0.504650,0.637221,-0.204649,0.207826,0.622334,0.251995
29,2543518913,0.535228,-0.505923,0.652423,-0.178653,0.152889,1.618901,-0.075047
30,2543552247,0.523439,-0.508213,0.665794,-0.156366,-0.060858,2.108862,0.160431
31,2543585581,0.511007,-0.511995,0.676525,-0.138008,0.023569,2.496393,0.049081
32,2543618915,0.497576,-0.519009,0.684458,-0.120684,0.648094,2.396537,-0.592086
33,2543652249,0.484651,-0.526985,0.689916,-0.106849,0.907884,2.111197,-1.517245
34,2543685583,0.472521,-0.535004,0.693546,-0.097409,0.969363,1.913383,-1.929774
35,2543718917,0.460794,-0.544658,0.694905,-0.090135,0.372344,1.820637,-2.409775
36,2543752251,0.449059,-0.556715,0.693718,-0.084677,0.526804,1.273347,-2.655090
37,2543785585,0.440388,-0.569275,0.689243,-0.083242,0.520573,0.743599,-2.769094
38,2543818919,0.433514,-0.583411,0.681687,-0.083677,0.309062,0.241038,-3.047853
39,2543852253,0.429902,-0.597674,0.670989,-0.088002,0.649024,-0.545067,-2.684388
40,2543885587,0.430644,-0.611592,0.656806,-0.095429,-0.263061,-1.188087,-2.635993
41,2543918921,0.429549,-0.628449,0.640207,-0.103321,-0.272684,-1.751529,-2.812853
42,2543952255,0.426874,-0.646792,0.621749,-0.113434,0.352531,-2.501289,-1.947236
43,2543985589,0.425701,-0.663073,0.602711,-0.125906,0.964441,-3.354781,-0.924420
44,2544018923,0.427806,-0.673320,0.586572,-0.139844,2.006960,-3.478139,0.308674
45,2544052257,0.430237,-0.677252,0.577253,-0.151676,2.213483,-2.074095,-0.625919
46,2544085591,0.431958,-0.675193,0.576554,-0.158470,1.055468,-2.602674,0.839956
47,2544118925,0.432771,-0.668817,0.582187,-0.162640,1.644681,-2.515082,1.316126
48,2544152259,0.432679,-0.660343,0.591840,-0.162670,1.893182,-2.194547,0.928461
49,2544185593,0.433430,-0.649693,0.603686,-0.160008,0.699246,-1.380291,0.570764
50,2544218927,0.436377,-0.636824,0.615703,-0.157926,1.011610,-1.160870,-0.211936
51,2544252261,0.434332,-0.628598,0.627996,-0.147792,0.733440,-0.211633,-0.974997
52,2544285595,0.429658,-0.621521,0.640363,-0.137992,0.712243,-0.516204,-0.068676
53,2544318929,0.427569,-0.612648,0.651717,-0.130814,0.940260,-0.641499,-0.039062
54,2544352263,0.427465,-0.603814,0.661795,-0.121286,0.791872,-0.471755,0.455098
55,2544385597,0.430972,-0.593149,0.671004,-0.110416,1.447307,-1.200237,1.386472
56,2544418931,0.445190,-0.575506,0.677973,-0.104649,1.423630,-0.299929,-1.126837
57,2544452265,0.455597,-0.559105,0.685981,-0.096251,1.357305,-0.305345,-0.604616
58,2544485599,0.467622,-0.539859,0.693658,-0.093387,1.110406,0.025154,-0.683702
59,2544518933,0.479655,-0.520805,0.699832,-0.094494,0.674097,1.364886,-1.904056
60,2544552267,0.488545,-0.503347,0.705373,-0.102054,0.588513,1.489948,-1.613589
61,2544585601,0.496198,-0.485591,0.710189,-0.116711,-0.498838,1.609861,-0.058550
62,2544618935,0.501828,-0.470194,0.713466,-0.134358,-0.032316,2.617849,-0.326749
63,2544652269,0.504979,-0.457267,0.715678,-0.153976,-0.928015,2.297544,0.799761
64,2544685603,0.506026,-0.443970,0.718385,-0.175360,-0.729671,2.356743,1.260536
65,2544718937,0.505851,-0.429528,0.721255,-0.198526,-0.413349,2.411255,1.627930
66,2544752271,0.503773,-0.414454,0.725008,-0.220919,-0.085960,1.706774,1.711050
67,2544785605,0.499639,-0.396717,0.730454,-0.243749,-0.090435,1.860870,1.033682
68,2544818939,0.491583,-0.377881,0.738871,-0.263860,-0.079946,1.558113,1.458930
69,2544852273,0.481029,-0.358138,0.748788,-0.282249,0.338597,1.440357,1.069393
70,2544885607,0.470570,-0.335407,0.758394,-0.301504,0.740263,0.795369,0.595723
71,2544918941,0.459717,-0.309808,0.767748,-0.321315,0.853166,0.370657,1.010338
72,2544952275,0.448655,-0.281288,0.776061,-0.342513,1.161166,0.577938,0.463292
73,2544985609,0.436473,-0.251178,0.783992,-0.362985,1.629070,-0.200928,-0.027822
74,2545018943,0.421371,-0.219931,0.791962,-0.383240,2.329037,-0.312297,-0.722767
75,2545052277,0.401049,-0.188198,0.800078,-0.404496,2.572252,-0.784226,-1.341672
76,2545085611,0.374994,-0.155155,0.808047,-0.427044,2.263465,-1.935323,-1.108982
77,2545118945,0.343799,-0.120014,0.814380,-0.451867,2.574753,-2.102980,-1.098206
78,2545152279,0.307579,-0.084065,0.819656,-0.475913,1.901236,-2.706838,-1.453340
79,2545185613,0.267239,-0.049899,0.824092,-0.496957,0.621505,-2.894023,-1.590619
80,2545218947,0.223149,-0.018534,0.825165,-0.518618,-0.644534,-2.123535,-1.818121
81,2545252281,0.176528,0.007111,0.825457,-0.536104,-0.740014,-1.390967,-1.914218
82,2545285615,0.128821,0.025685,0.823790,-0.551466,-0.957502,-1.051751,-2.273135
83,2545318949,0.081131,0.036043,0.822443,-0.561878,-2.575520,-0.640895,-1.161601
84,2545352283,0.037003,0.038979,0.817248,-0.573776,-3.836375,-0.279833,-0.302140
85,2545385617,-0.002169,0.032439,0.815896,-0.577284,-4.059369,-0.185171,-0.122623
86,2545418951,-0.040030,0.020295,0.822382,-0.567163,-3.972103,0.799372,-0.070490
87,2545452285,-0.081311,0.004827,0.830118,-0.551607,-3.528998,0.739541,-2.860307
88,2545485619,-0.121809,-0.012990,0.837991,-0.531757,-4.769972,0.996018,2.669148
89,2545518953,-0.152193,-0.033675,0.834973,-0.527753,-4.579999,0.843318,3.700887
90,2545552287,-0.171363,-0.051153,0.829675,-0.528827,-3.973406,1.196648,3.267835
91,2545585621,-0.180107,-0.064000,0.824100,-0.533221,-2.830559,0.764502,4.343199
92,2545618955,-0.177484,-0.077164,0.816125,-0.544505,-2.074343,1.350463,3.578945
93,2545652289,-0.163089,-0.093559,0.805837,-0.561494,-1.938178,1.047080,2.150502
94,2545685623,-0.138839,-0.114531,0.793666,-0.581120,-1.516361,1.173914,2.365414
95,2545718957,-0.104573,-0.139273,0.779643,-0.601519,-1.731330,1.086006,2.487145
96,2545752291,-0.060982,-0.167760,0.763038,-0.621218,-1.836530,0.706340,1.429572
97,2545785625,-0.009884,-0.198747,0.746354,-0.635106,-2.257244,-0.075156,1.463396
98,2545818959,0.048310,-0.229770,0.727594,-0.644577,-2.326125,-1.377372,0.808163
99,2545852293,0.110024,-0.261339,0.708139,-0.646635,-1.443552,-1.616157,0.956240
100,2545885627,0.174520,-0.294694,0.689078,-0.638647,-1.488328,-1.737810,1.142072
101,2545918961,0.240125,-0.326871,0.666562,-0.625452,-0.372940,-2.747955,0.665129
102,2545952295,0.303465,-0.357671,0.644335,-0.603998,0.115956,-2.901886,0.070789
103,2545985629,0.361463,-0.385838,0.623765,-0.575665,1.371874,-2.953724,-0.149281
104,2546018963,0.413629,-0.410384,0.601922,-0.546063,2.195256,-2.595541,-0.656435
105,2546052297,0.457636,-0.432885,0.581988,-0.514266,2.508711,-2.182607,-0.793253
106,2546085631,0.494352,-0.452243,0.563605,-0.483159,3.100443,-1.403825,-0.587255
107,2546118965,0.525248,-0.467935,0.544853,-0.456385,3.183286,-0.528647,-0.643657
108,2546152299,0.549551,-0.481938,0.527211,-0.433334,2.621630,0.023415,-0.507441
109,2546185633,0.569630,-0.493556,0.509858,-0.414691,2.260986,0.849903,-0.736119
110,2546218967,0.586442,-0.503083,0.493119,-0.399784,1.452547,1.699630,-0.688108
111,2546252301,0.598639,-0.512795,0.480146,-0.384881,0.683712,2.395597,-0.209366
112,2546285635,0.608884,-0.520634,0.470610,-0.369768,0.356179,3.015049,0.084800
113,2546318969,0.619732,-0.524659,0.463109,-0.355240,-0.400884,3.081194,0.143485
114,2546352303,0.631417,-0.525221,0.457285,-0.341095,-0.923520,2.519922,0.327348
115,2546385637,0.643960,-0.522792,0.451885,-0.328335,-1.051357,2.362774,-0.013736
116,2546418971,0.655292,-0.519884,0.447405,-0.316453,-1.131413,1.681202,0.443576
117,2546452305,0.666969,-0.515413,0.442655,-0.305875,-0.919144,1.490866,0.800402
118,2546485639,0.683158,-0.504741,0.434593,-0.299435,-1.597240,1.158892,0.616354
119,2546518973,0.698713,-0.494767,0.425580,-0.293066,-1.157312,1.204409,-0.673919
120,2546552307,0.707156,-0.493607,0.419726,-0.283041,-0.553531,0.624757,0.442800
121,2546585641,0.717965,-0.488215,0.411969,-0.276503,-0.019055,0.019480,1.491025
122,2546618975,0.725379,-0.487269,0.405574,-0.268149,0.397164,0.754995,-1.671851
123,2546652309,0.722822,-0.497742,0.405353,-0.255872,0.522382,1.003808,1.075955
124,2546685643,0.723756,-0.501236,0.403190,-0.249755,0.037659,1.380740,0.812606
125,2546718977,0.721077,-0.509726,0.401323,-0.243246,0.681099,1.367442,-0.671349
126,2546752311,0.712806,-0.523652,0.402766,-0.235535,1.439419,0.826643,1.142175
127,2546785645,0.709345,-0.528915,0.402886,-0.234012,1.815379,1.352967,0.786911
128,2546818979,0.707654,-0.532172,0.401161,-0.234712,1.606220,0.348720,0.375648
129,2546852313,0.704914,-0.534665,0.401685,-0.236385,2.186346,0.306161,0.056027
130,2546885647,0.702368,-0.534120,0.404190,-0.240883,1.918287,0.485410,0.023038
131,2546918981,0.701633,-0.530568,0.405478,-0.248589,1.050726,0.036477,-0.168786
132,2546952315,0.702904,-0.524278,0.405205,-0.258588,0.791975,0.162819,-0.959059
133,2546985649,0.703035,-0.519402,0.404250,-0.269343,1.022520,0.131905,-1.659609
134,2547018983,0.698376,-0.520509,0.404640,-0.278583,1.337882,-0.722272,-0.535783
135,2547052317,0.695041,-0.519100,0.404426,-0.289644,1.230754,-0.972406,-0.188166
136,2547085651,0.695169,-0.512466,0.402799,-0.303103,0.658089,-1.276375,-1.374598
137,2547118985,0.686788,-0.516386,0.407078,-0.309766,0.213261,-2.161490,-0.854539
138,2547152319,0.680386,-0.517929,0.412028,-0.314733,0.406451,-2.971432,0.532076
139,2547185653,0.678521,-0.513512,0.415979,-0.320744,0.130615,-3.065226,-1.692042
140,2547218987,0.668874,-0.519954,0.425272,-0.318434,0.063955,-3.487013,-0.379025
141,2547252321,0.663335,-0.520635,0.434287,-0.316735,0.727435,-4.184503,-1.057878
142,2547285655,0.657279,-0.520592,0.446253,-0.312774,1.190667,-3.323554,-1.220010
143,2547318989,0.648426,-0.524464,0.461311,-0.302776,0.517561,-3.085332,-0.385952
144,2547352323,0.648717,-0.520395,0.470940,-0.294229,-0.041588,-2.799134,0.232903
145,2547385657,0.656952,-0.510490,0.474721,-0.287149,0.752383,-2.033078,-1.878179
146,2547418991,0.657856,-0.512102,0.481560,-0.270330,0.535889,-1.526489,-1.313062
147,2547452325,0.662614,-0.510452,0.484413,-0.256370,-0.558356,-1.549188,0.118217
148,2547485659,0.673954,-0.505921,0.479671,-0.244431,-0.784992,0.446964,-2.649275
149,2547518993,0.679936,-0.511122,0.472402,-0.230822,1.781690,0.654653,-1.878447
150,2547552327,0.684704,-0.516825,0.462345,-0.224298,1.060247,1.015111,-1.307500
151,2547585661,0.686902,-0.524165,0.451447,-0.222740,1.348885,0.541989,-0.040656
152,2547618995,0.690694,-0.529692,0.436911,-0.226885,1.103229,0.048341,0.299924
153,2547652329,0.697168,-0.532056,0.418315,-0.236404,0.363861,1.072536,-0.521585
154,2547685663,0.702954,-0.534109,0.397172,-0.250674,-0.305617,1.186509,-0.087587
155,2547718997,0.708622,-0.536676,0.372285,-0.266905,-2.030915,1.363963,0.602602
156,2547752331,0.718645,-0.533578,0.341660,-0.286555,-1.998290,2.817560,0.166650
157,2547785665,0.728093,-0.529925,0.308375,-0.306538,-3.685551,1.998472,0.338242
158,2547818999,0.732379,-0.531533,0.277503,-0.322623,-4.049278,2.456314,1.973613
159,2547852333,0.741828,-0.524528,0.244169,-0.339034,-3.427781,3.890361,1.664301
160,2547885667,0.741473,-0.528713,0.219644,-0.349910,-3.294842,3.018371,1.775863
161,2547919001,0.739558,-0.532541,0.201500,-0.358961,-4.077946,3.059305,4.611303
162,2547952335,0.755061,-0.511825,0.175096,-0.370486,-2.288008,3.624826,2.347422
163,2547985669,0.765371,-0.497578,0.156297,-0.377089,-1.385188,3.169725,0.814245
164,2548019003,0.769201,-0.491897,0.147415,-0.380312,-2.366090,2.412792,3.543608
165,2548052337,0.781148,-0.473935,0.134405,-0.383575,-0.446900,2.622254,2.054328
166,2548085671,0.784994,-0.468035,0.131084,-0.384115,0.764659,2.094882,1.497460
167,2548119005,0.784602,-0.468467,0.135082,-0.383004,0.065157,0.989764,3.107605
168,2548152339,0.793375,-0.454884,0.132112,-0.382340,0.362000,0.427192,2.389646
169,2548185673,0.805624,-0.435873,0.125964,-0.380943,1.959640,0.837160,0.576059
170,2548219007,0.812431,-0.426255,0.124876,-0.377714,1.843538,-1.014390,0.714816
171,2548252341,0.818671,-0.415550,0.124611,-0.376255,2.424876,-0.991453,1.388033
172,2548285675,0.824854,-0.402304,0.125021,-0.377013,3.051226,-1.191795,0.180633
173,2548319009,0.830846,-0.386652,0.125604,-0.380025,2.381115,-1.529047,-0.654338
174,2548352343,0.835083,-0.371562,0.127257,-0.385206,2.616462,-1.078525,-1.178034
175,2548385677,0.837570,-0.358072,0.128607,-0.392072,2.482385,-1.739791,-1.751701
176,2548419011,0.836981,-0.349212,0.132633,-0.399904,1.938033,-1.056309,-1.010680
177,2548452345,0.836278,-0.338371,0.135914,-0.409478,1.423457,-1.754842,-1.341699
178,2548485679,0.836354,-0.324822,0.137158,-0.419751,0.451641,-2.710920,-1.183435
179,2548519013,0.836948,-0.310243,0.138907,-0.428921,0.134283,-3.294060,-0.880353
180,2548552347,0.838622,-0.294911,0.140368,-0.435933,-0.771747,-3.273846,-1.576077
181,2548585681,0.839575,-0.283189,0.146662,-0.439782,0.539872,-2.730697,-1.687013
182,2548619015,0.837166,-0.281872,0.158370,-0.441158,-0.799107,-3.018338,-1.368279
183,2548652349,0.833176,-0.287057,0.169395,-0.441273,-0.937386,-2.820705,-1.986667
184,2548685683,0.825562,-0.304654,0.184386,-0.437762,-0.369586,-2.039876,-1.334639
185,2548719017,0.814880,-0.332671,0.204608,-0.428294,-0.156842,-2.391688,-1.952386
186,2548752351,0.798852,-0.372611,0.231372,-0.411660,-0.141184,-1.226200,-1.437323
187,2548785685,0.786659,-0.405030,0.248079,-0.394430,-1.386446,-2.885865,-0.127634
188,2548819019,0.791950,-0.410588,0.245365,-0.379512,-0.078423,-1.802406,-0.685961
189,2548852353,0.799919,-0.414820,0.236262,-0.363641,3.240222,0.764554,-2.871943
190,2548885687,0.804082,-0.424943,0.226367,-0.348761,3.876781,0.251697,-0.944573
191,2548919021,0.811769,-0.425839,0.208053,-0.341182,3.807429,0.203401,-1.396892
192,2548952355,0.816109,-0.429824,0.185922,-0.338601,2.693584,2.130524,-1.809058
193,2548985689,0.819541,-0.430257,0.158549,-0.343649,4.062084,2.390394,-0.229750
194,2549019023,0.819471,-0.425771,0.126275,-0.362273,6.820992,4.344413,-1.495296
195,2549052357,0.801945,-0.432970,0.102592,-0.398617,6.701916,3.572699,-0.375328
196,2549085691,0.761212,-0.450295,0.096585,-0.456578,7.591436,4.635887,3.906140
197,2549119025,0.704202,-0.459516,0.105340,-0.530894,4.466004,3.336413,4.841764
198,2549152359,0.629095,-0.462372,0.138197,-0.609388,2.431981,2.627469,4.831505
199,2549185693,0.539361,-0.453727,0.196943,-0.681495,-0.242541,0.565232,5.148102
200,2549219027,0.437869,-0.433014,0.284656,-0.734671,-3.222924,0.869343,5.133812
201,2549252361,0.339230,-0.394297,0.388403,-0.760655,-3.030350,1.171542,5.308537
202,2549285695,0.255998,-0.340495,0.488090,-0.761772,-2.520807,0.734935,4.262726
203,2549319029,0.191122,-0.278954,0.573305,-0.746310,-1.930777,-0.453069,2.794504
204,2549352363,0.141357,-0.214396,0.642994,-0.721535,-2.653218,-1.250183,0.424570
205,2549385697,0.102198,-0.152865,0.702857,-0.687154,-1.911228,-2.064748,0.239324
206,2549419031,0.072957,-0.096816,0.745782,-0.655068,-1.949898,-2.802884,-0.548442
207,2549452365,0.049441,-0.048915,0.775103,-0.627995,-2.335238,-2.532736,-2.767692
208,2549485699,0.029015,-0.010394,0.797581,-0.602424,-2.536382,-2.900918,-3.321035
209,2549519033,0.011555,0.020832,0.811874,-0.583347,-2.861512,-3.180998,-4.235556
210,2549552367,-0.003204,0.047458,0.823487,-0.565339,-3.271214,-2.522156,-4.901004
211,2549585701,-0.017112,0.069232,0.825199,-0.560323,-4.283268,-3.637434,-1.693905
212,2549619035,-0.034361,0.080770,0.815397,-0.572209,-3.836714,-0.098098,-6.042623
213,2549652369,-0.060404,0.085099,0.817846,-0.565896,-4.863331,0.274942,-3.040358
214,2549685703,-0.097245,0.079312,0.823812,-0.552800,-4.740189,2.616577,-2.275789
215,2549719037,-0.137985,0.066845,0.835229,-0.528095,-4.123287,3.864429,-3.151107
216,2549752371,-0.169403,0.047400,0.835441,-0.520668,-4.649014,3.614773,4.365309
217,2549785705,-0.183599,0.022199,0.824671,-0.534525,-3.995022,3.366652,3.844398
218,2549819039,-0.185242,-0.003550,0.812832,-0.552248,-2.729321,2.686945,2.958464
219,2549852373,-0.179419,-0.030232,0.803621,-0.566647,-2.054942,1.578730,2.123274
220,2549885707,-0.164609,-0.060810,0.793770,-0.582354,-1.314731,0.646537,1.739531
221,2549919041,-0.142602,-0.097407,0.779619,-0.601972,-1.114792,0.303955,1.966129
222,2549952375,-0.111688,-0.136824,0.764955,-0.619395,-1.564994,-0.057001,2.135141
223,2549985709,-0.074039,-0.178600,0.745560,-0.637778,-1.912415,-1.011679,0.640814
224,2550019043,-0.032341,-0.220755,0.726658,-0.649762,-1.510026,-1.562726,1.414858
225,2550052377,0.011829,-0.261611,0.707800,-0.656079,-0.775980,-2.533907,1.358649
226,2550085711,0.058501,-0.301261,0.688883,-0.656704,-0.144387,-2.738471,1.610433
227,2550119045,0.106189,-0.338200,0.669780,-0.652488,0.840788,-3.089980,1.652786
228,2550152379,0.155405,-0.370802,0.647937,-0.646942,1.653547,-2.952043,1.643650
229,2550185713,0.204498,-0.398687,0.628034,-0.636241,2.066948,-2.744470,0.942451
230,2550219047,0.251349,-0.421582,0.609551,-0.622527,2.977071,-2.218949,0.636808
231,2550252381,0.296326,-0.440268,0.591077,-0.607440,2.984535,-1.541920,0.308321
232,2550285715,0.338150,-0.455313,0.574004,-0.590647,3.045423,-0.947593,-0.262036
233,2550319049,0.375954,-0.467670,0.558484,-0.572747,2.609785,-0.382790,-0.114622
234,2550352383,0.410316,-0.478941,0.544001,-0.553461,2.426773,-0.055098,-0.727935
235,2550385717,0.441580,-0.489331,0.529698,-0.533838,2.452976,0.269262,-0.599230
236,2550419051,0.472602,-0.495545,0.512498,-0.518101,1.924932,1.126618,-0.720577
237,2550452385,0.501556,-0.498225,0.494388,-0.505761,1.333641,2.059044,-1.702396
238,2550485719,0.521664,-0.502627,0.482526,-0.492344,0.795435,2.927941,-0.763189
239,2550519053,0.536386,-0.505548,0.475046,-0.480668,0.001720,3.514320,0.071450
240,2550552387,0.546285,-0.506894,0.473361,-0.469640,-0.589192,3.419410,0.053260
241,2550585721,0.551494,-0.507375,0.478723,-0.457440,-0.659228,3.276118,1.085848
242,2550619055,0.554705,-0.506681,0.488800,-0.443455,-1.314618,2.741359,1.932195
243,2550652389,0.557960,-0.504350,0.501953,-0.427030,-1.302849,1.935963,2.050449
244,2550685723,0.559556,-0.501331,0.519176,-0.407457,-0.996195,1.562538,1.953607
245,2550719057,0.558911,-0.497517,0.539674,-0.385809,-0.809206,1.284534,2.323431
246,2550752391,0.557901,-0.491724,0.561009,-0.363624,-0.803286,1.467416,1.906316
247,2550785725,0.553927,-0.486650,0.584323,-0.338977,-0.374161,2.005821,1.622705
248,2550819059,0.547013,-0.482412,0.608873,-0.311976,-0.120491,1.882041,1.396616
249,2550852393,0.538936,-0.477604,0.632698,-0.284844,0.431411,2.419331,0.639564
250,2550885727,0.529362,-0.474340,0.654541,-0.257591,0.300273,2.051740,-0.010193
251,2550919061,0.519752,-0.472248,0.672824,-0.232697,0.561718,2.190263,-0.843685
252,2550952395,0.508622,-0.474574,0.687243,-0.209237,0.226671,2.347912,-1.538441
253,2550985729,0.494991,-0.483265,0.697694,-0.186179,0.072700,1.554642,-1.918723
254,2551019063,0.478262,-0.499426,0.703436,-0.164371,-0.094006,1.134282,-2.459980
255,2551052397,0.463138,-0.519860,0.702174,-0.149000,0.214897,-0.086410,-2.479368
256,2551085731,0.448779,-0.544200,0.694863,-0.140038,0.547965,-1.043779,-2.930481
257,2551119065,0.436266,-0.570035,0.682280,-0.138660,0.347573,-1.702287,-3.296993
258,2551152399,0.422033,-0.597155,0.667467,-0.140652,0.755440,-2.531342,-3.388979
259,2551185733,0.407826,-0.622872,0.651560,-0.145526,1.002058,-2.950181,-1.995381
260,2551219067,0.396533,-0.645059,0.635340,-0.151669,1.327470,-3.022150,-0.255387
261,2551252401,0.393342,-0.659936,0.619374,-0.161685,1.665361,-2.527299,1.205293
262,2551285735,0.394674,-0.668879,0.606778,-0.169276,1.980709,-2.210852,1.121041
263,2551319069,0.401274,-0.670657,0.597827,-0.178330,0.610099,-2.555638,-0.597135
264,2551352403,0.399075,-0.672875,0.596728,-0.178594,2.276671,-2.404053,0.195867
265,2551385737,0.399444,-0.670305,0.599618,-0.177750,2.211566,-2.449100,0.717275
266,2551419071,0.405246,-0.662504,0.604426,-0.177578,1.652144,-2.093906,-0.091315
267,2551452405,0.411716,-0.652711,0.611332,-0.175305,1.749677,-1.882940,-0.632824
268,2551485739,0.417763,-0.641928,0.619413,-0.172422,1.214750,-1.592124,-1.212706
269,2551519073,0.422113,-0.630942,0.628403,-0.169835,0.637272,-1.278811,-1.186875
270,2551552407,0.426615,-0.620128,0.636438,-0.168489,0.188022,-0.847906,-1.060829
271,2551585741,0.432129,-0.610397,0.642268,-0.167847,-0.210081,-0.308274,-0.248679
272,2551619075,0.436842,-0.602342,0.646914,-0.166901,0.591363,-0.314318,0.054398
273,2551652409,0.442370,-0.593719,0.651336,-0.166039,1.662981,-0.021810,-0.131252
274,2551685743,0.448631,-0.584236,0.655906,-0.164882,1.069717,0.203393,0.900611
275,2551719077,0.455726,-0.573972,0.660291,-0.163971,2.243636,-0.289817,0.092440
276,2551752411,0.466291,-0.561267,0.663110,-0.166847,0.518139,1.047100,-1.285345
277,2551785745,0.470869,-0.551609,0.667115,-0.170201,0.891034,1.559988,-1.128461
278,2551819079,0.475661,-0.542741,0.669122,-0.177353,-0.136718,1.231244,0.321064
279,2551852413,0.482374,-0.534042,0.668091,-0.189127,-0.919970,1.879317,-0.007882
280,2551885747,0.488629,-0.527802,0.664292,-0.203431,-0.725330,1.952352,0.074100
281,2551919081,0.495311,-0.522624,0.658315,-0.219439,-0.560678,1.715887,0.744790
282,2551952415,0.502099,-0.517655,0.651388,-0.235847,-0.502296,1.955699,0.696877
283,2551985749,0.505019,-0.514030,0.646802,-0.249754,-1.266538,1.826172,1.647769
284,2552019083,0.504327,-0.510564,0.645473,-0.261426,-1.203335,1.951584,2.383465
285,2552052417,0.501579,-0.506180,0.647310,-0.270538,-1.319932,2.132042,3.038918
286,2552085751,0.496609,-0.500265,0.653585,-0.275575,-1.383206,2.335192,3.420840
287,2552119085,0.490997,-0.491507,0.663647,-0.277335,-1.288518,2.460890,3.562492
288,2552152419,0.485969,-0.480581,0.676050,-0.275379,-1.256769,2.630103,2.578893
289,2552185753,0.478276,-0.470848,0.691820,-0.266345,-0.866426,2.669255,2.605381
290,2552219087,0.469849,-0.459963,0.709168,-0.254473,-0.526971,2.752959,2.495455
291,2552252421,0.460701,-0.449239,0.726579,-0.240878,-0.325809,2.778162,1.505882
292,2552285755,0.450534,-0.440724,0.742765,-0.226013,-0.088418,2.618431,1.105091
293,2552319089,0.440643,-0.435097,0.755982,-0.212169,0.030116,2.475347,-0.104230
294,2552352423,0.428828,-0.435890,0.766383,-0.196884,0.116086,1.995064,-0.437016
295,2552385757,0.417573,-0.442423,0.772134,-0.183585,0.028097,1.738858,-0.817824
296,2552419091,0.407369,-0.454824,0.772520,-0.174351,0.057653,1.058120,-1.396496
297,2552452425,0.397369,-0.473874,0.767695,-0.167890,0.298727,-0.162144,-2.215424
298,2552485759,0.387346,-0.498282,0.758100,-0.164205,-0.078319,-0.704960,-2.887307
299,2552519093,0.377231,-0.525710,0.744612,-0.163947,0.617750,-1.918158,-2.118676
300,2552552427,0.374106,-0.551752,0.725455,-0.171257,0.811976,-2.187518,-2.124419
301,2552585761,0.377652,-0.577008,0.700318,-0.184380,-0.724302,-2.352607,-3.908978
302,2552619095,0.378073,-0.603186,0.674123,-0.196942,-0.411382,-3.105475,-3.676900
303,2552652429,0.379216,-0.625446,0.648773,-0.210019,1.318081,-3.611183,-1.513872
304,2552685763,0.382059,-0.639482,0.629262,-0.221636,0.570597,-3.607902,0.021878
305,2552719097,0.383150,-0.645079,0.619512,-0.230813,1.559850,-3.066584,0.399867
306,2552752431,0.382304,-0.644331,0.617587,-0.239307,0.898089,-2.155544,-0.151813
307,2552785765,0.378192,-0.638797,0.624812,-0.241907,1.700432,-2.600245,1.204508
308,2552819099,0.374200,-0.628212,0.639700,-0.236873,1.902721,-3.274422,2.257042
309,2552852433,0.373850,-0.611368,0.657966,-0.231402,0.916470,-3.002849,1.057423
310,2552885767,0.372988,-0.594518,0.676520,-0.223045,-0.348737,-2.267722,-0.572447
311,2552919101,0.375854,-0.577230,0.692434,-0.214651,-0.610137,-2.411964,-0.516003
312,2552952435,0.378445,-0.560861,0.707589,-0.203795,0.329031,-3.087897,-0.499166
313,2552985769,0.387447,-0.541578,0.720318,-0.194218,0.022545,-3.169801,0.093395
314,2553019103,0.399387,-0.519811,0.733416,-0.179970,0.763041,-3.223425,-1.022598
315,2553052437,0.413299,-0.495684,0.745459,-0.166649,1.761232,-3.040287,-2.505986
316,2553085771,0.426760,-0.468205,0.756874,-0.160628,1.167480,-2.268876,-2.131402
317,2553119105,0.436652,-0.443211,0.766711,-0.158286,1.571290,-1.613218,-3.278574
318,2553152439,0.449445,-0.421288,0.770023,-0.166075,-0.824843,-0.199469,-2.250547
319,2553185773,0.459351,-0.407646,0.769090,-0.176980,-1.363402,1.111810,-2.552023
320,2553219107,0.467875,-0.405043,0.761385,-0.193202,-0.596264,1.598818,-2.965587
321,2553252441,0.479244,-0.413349,0.743755,-0.215166,-2.050204,1.570397,-0.293501
322,2553285775,0.493614,-0.430903,0.715803,-0.241443,0.078973,2.927391,-0.380844
323,2553319109,0.510634,-0.453975,0.677723,-0.271757,-0.144377,1.935506,-0.340174
324,2553352443,0.522120,-0.481166,0.638465,-0.297040,0.834491,0.760257,1.131739
325,2553385777,0.530777,-0.504498,0.599865,-0.322367,2.130045,0.955289,3.012977
326,2553419111,0.540139,-0.522996,0.562609,-0.343797,0.615341,1.278898,4.283463
327,2553452445,0.548946,-0.539128,0.529921,-0.356627,0.553232,2.494526,2.996178
328,2553485779,0.558123,-0.552107,0.501108,-0.364098,0.216610,2.682146,3.473889
329,2553519113,0.569258,-0.560615,0.475809,-0.367781,-0.600993,2.706966,2.159118
330,2553552447,0.579436,-0.566808,0.455496,-0.368114,-0.916613,3.099805,1.288241
331,2553585781,0.589240,-0.570786,0.438347,-0.367222,-1.039666,3.101578,1.033381
332,2553619115,0.597860,-0.572189,0.425248,-0.366507,-0.962270,3.133558,0.651206
333,2553652449,0.603492,-0.570714,0.418055,-0.367851,-0.890538,3.122855,0.783508
334,2553685783,0.605369,-0.566296,0.417386,-0.372326,-0.640460,2.942436,0.622595
335,2553719117,0.602087,-0.560067,0.424395,-0.379085,-0.422572,2.521272,0.870529
336,2553752451,0.595720,-0.550289,0.437345,-0.388626,-0.111526,2.220890,1.260401
337,2553785785,0.588392,-0.535603,0.453617,-0.401443,0.074480,2.098951,0.788252
338,2553819119,0.578233,-0.518498,0.473329,-0.415653,0.214283,1.961469,0.040876
339,2553852453,0.564098,-0.500759,0.496073,-0.430054,0.529447,1.881966,0.333822
340,2553885787,0.548735,-0.480067,0.518480,-0.446770,0.728636,1.682177,0.057029
341,2553919121,0.529184,-0.459415,0.543421,-0.462164,1.054149,1.629773,-0.161592
342,2553952455,0.505486,-0.439293,0.571574,-0.474140,1.461850,1.364459,1.127884
343,2553985789,0.483206,-0.414140,0.596879,-0.488605,2.473459,0.806875,0.921387
344,2554019123,0.460384,-0.385500,0.621995,-0.502553,2.506741,0.448587,-0.337531
345,2554052457,0.434537,-0.356334,0.649909,-0.511686,2.717645,-0.406365,0.854131
346,2554085791,0.409721,-0.321348,0.673286,-0.524929,3.309780,-0.609576,0.158835
347,2554119125,0.382132,-0.284275,0.694981,-0.538668,2.966551,-1.060521,-0.779539
348,2554152459,0.350149,-0.246302,0.717120,-0.549973,3.726410,-1.580646,-0.407104
349,2554185793,0.316684,-0.204897,0.734757,-0.563791,3.799452,-2.056917,-0.659006
350,2554219127,0.281169,-0.162861,0.750537,-0.575426,2.990258,-2.563167,-0.800123
351,2554252461,0.243821,-0.120980,0.764030,-0.584956,2.568108,-3.498634,-0.794267
352,2554285795,0.205442,-0.081292,0.771542,-0.596581,2.212801,-4.194662,-1.348689
353,2554319129,0.165043,-0.046401,0.778749,-0.603456,0.626724,-3.895480,-1.492987
354,2554352463,0.122143,-0.014996,0.785657,-0.606300,-0.387965,-3.089033,-2.305999
355,2554385797,0.077047,0.010282,0.791717,-0.605922,-1.456307,-2.884185,-2.562785
356,2554419131,0.031328,0.028240,0.798196,-0.600920,-3.363101,-2.700029,-1.760016
357,2554452465,-0.013507,0.039493,0.800804,-0.597471,-4.803319,-2.143358,-1.043456
358,2554485799,-0.057719,0.044292,0.797037,-0.599533,-6.095806,-1.917472,0.843538
359,2554519133,-0.101784,0.043953,0.797048,-0.593652,-6.766629,-0.652293,-2.093997
360,2554552467,-0.145322,0.045683,0.806186,-0.571716,-6.600422,0.351898,-0.513227
361,2554585801,-0.186379,0.047074,0.816172,-0.544895,-5.855119,3.416615,-1.829399
362,2554619135,-0.222374,0.045789,0.815859,-0.531816,-4.135560,3.778501,3.070396
363,2554652469,-0.245474,0.034475,0.805468,-0.538309,-3.099166,4.743535,2.965743
364,2554685803,-0.257497,0.020023,0.795962,-0.547485,-2.549941,4.315301,2.093657
365,2554719137,-0.260359,0.002060,0.787576,-0.558511,-1.656299,3.353883,1.579644
366,2554752471,-0.254530,-0.020988,0.779888,-0.571445,-1.191057,2.295613,1.932818
367,2554785805,-0.239843,-0.051282,0.770645,-0.588177,-0.652046,1.092377,1.768359
368,2554819139,-0.217021,-0.087002,0.761400,-0.604652,-0.583857,0.937504,2.487102
369,2554852473,-0.183654,-0.124240,0.751387,-0.621493,-1.657466,-0.183259,1.827008
370,2554885807,-0.140029,-0.163007,0.736182,-0.641761,-1.714646,-0.995778,0.928154
371,2554919141,-0.090458,-0.203222,0.720751,-0.656533,-0.943328,-0.846856,1.702710
372,2554952475,-0.035902,-0.243449,0.705942,-0.664146,-0.666708,-2.183795,1.469361
373,2554985809,0.020740,-0.282103,0.686741,-0.669609,0.176887,-2.617455,1.007571
374,2555019143,0.078559,-0.317448,0.667211,-0.669243,0.084512,-2.596999,0.870060
375,2555052477,0.136838,-0.348514,0.648569,-0.662700,0.268704,-2.871834,0.276752
376,2555085811,0.194915,-0.376404,0.626685,-0.653907,0.741569,-2.571723,0.065054
377,2555119145,0.250836,-0.402301,0.603993,-0.640646,1.185430,-2.660165,-0.194272
378,2555152479,0.303707,-0.425009,0.579058,-0.625957,2.000643,-2.122479,-0.520911
379,2555185813,0.352519,-0.444592,0.553311,-0.609849,2.104740,-1.510466,-0.754313
380,2555219147,0.395220,-0.461924,0.529191,-0.591932,2.487190,-0.907346,-0.630131
381,2555252481,0.432211,-0.477325,0.506369,-0.573537,2.669410,-0.238349,-0.520676
382,2555285815,0.465615,-0.489722,0.483533,-0.556392,2.661908,0.216279,-0.492630
383,2555319149,0.494332,-0.499751,0.462344,-0.540485,2.573530,0.741630,-0.499130
384,2555352483,0.517337,-0.509215,0.444074,-0.525225,2.279156,1.297861,-0.081997
385,2555385817,0.537873,-0.515401,0.426820,-0.512717,1.737378,1.505571,0.143719
386,2555419151,0.557221,-0.517324,0.410277,-0.503542,1.298762,1.763557,-0.462521
387,2555452485,0.570985,-0.520474,0.398674,-0.494107,0.584989,1.891024,-0.200792
388,2555485819,0.582473,-0.523330,0.389483,-0.484927,-0.021263,2.115370,0.323629
389,2555519153,0.595545,-0.522572,0.379275,-0.477907,-0.354777,2.233139,-0.013227
390,2555552487,0.606640,-0.521752,0.370907,-0.471372,-0.852616,2.124910,-0.051373
391,2555585821,0.614321,-0.522108,0.366199,-0.464663,-1.523952,1.809373,0.185132
392,2555619155,0.620137,-0.522230,0.364048,-0.458449,-2.231975,1.554192,0.316262
393,2555652489,0.624952,-0.522639,0.363788,-0.451600,-2.342012,1.456549,0.471841
394,2555685823,0.629463,-0.523750,0.364168,-0.443671,-2.221705,0.965070,0.300307
395,2555719157,0.631763,-0.528023,0.366515,-0.433283,-1.884496,0.404988,0.675704
396,2555752491,0.634870,-0.531598,0.368516,-0.422541,-1.111574,0.396027,1.113746
397,2555785825,0.642113,-0.530579,0.367276,-0.413866,-0.804073,0.320136,0.699399
398,2555819159,0.649043,-0.530209,0.366667,-0.403952,-0.827334,0.188605,0.507642
399,2555852493,0.656018,-0.529620,0.367133,-0.392882,-0.973788,0.264415,1.312814
400,2555885827,0.670703,-0.520047,0.362683,-0.384929,-0.940085,0.529810,0.609867
401,2555919161,0.687869,-0.508294,0.355719,-0.376746,-1.492969,0.885856,-0.697136
402,2555952495,0.701080,-0.502372,0.350144,-0.365390,-1.789108,1.117965,-0.091725
403,2555985829,0.716607,-0.493960,0.340877,-0.355361,-0.329036,1.135397,0.008608
404,2556019163,0.725878,-0.494310,0.335128,-0.341244,0.561156,1.199443,-1.261448
405,2556052497,0.728209,-0.502615,0.334718,-0.324119,0.731032,0.666041,1.418195
406,2556085831,0.738432,-0.497599,0.329205,-0.314226,2.439860,1.206465,0.301861
407,2556119165,0.741942,-0.499344,0.326317,-0.306097,1.911417,0.486970,-0.954403
408,2556152499,0.736125,-0.509373,0.328924,-0.300779,2.357692,1.041379,0.369452
409,2556185833,0.732133,-0.513545,0.329389,-0.302912,2.016734,1.012702,-0.309632
410,2556219167,0.729423,-0.513769,0.328285,-0.310183,1.672526,0.424912,-0.759910
411,2556252501,0.725258,-0.513706,0.328544,-0.319636,1.143971,-0.310075,0.006674
412,2556285835,0.724701,-0.508113,0.325855,-0.332338,1.225369,-0.289665,-0.108121
413,2556319169,0.723135,-0.502332,0.323571,-0.346468,1.354673,-0.582074,-1.274222
414,2556352503,0.718013,-0.499004,0.324584,-0.360692,1.613867,-0.925733,0.440008
415,2556385837,0.714025,-0.492823,0.324525,-0.376799,0.861665,-1.241293,0.168275
416,2556419171,0.708046,-0.489330,0.325604,-0.391420,0.756850,-1.334398,-1.964957
417,2556452505,0.692454,-0.497281,0.334458,-0.401693,1.179034,-1.103298,-1.077133
418,2556485839,0.678684,-0.501854,0.344690,-0.410756,0.108607,-1.992374,1.669612
419,2556519173,0.671554,-0.501639,0.352400,-0.416159,-0.500621,-2.036686,1.948750
420,2556552507,0.669525,-0.497840,0.357852,-0.419326,0.693084,-1.943516,-0.655210
421,2556585841,0.662849,-0.499259,0.368084,-0.419388,1.005107,-1.653416,-0.969137
422,2556619175,0.654004,-0.501050,0.379840,-0.420655,0.555716,-0.849520,-0.905613
423,2556652509,0.643384,-0.504742,0.392177,-0.421296,0.291722,-1.081766,-0.339897
424,2556685843,0.630694,-0.512607,0.407105,-0.416804,0.875845,-1.251116,0.571641
425,2556719177,0.623078,-0.514768,0.420150,-0.412629,1.101515,-1.142699,1.548259
426,2556752511,0.617571,-0.514773,0.433217,-0.407355,2.254127,-1.428687,-0.539765
427,2556785845,0.611249,-0.514665,0.450914,-0.397708,2.504236,-1.097007,0.940740
428,2556819179,0.605029,-0.512071,0.470379,-0.387900,2.520452,-0.538188,0.786609
429,2556852513,0.601241,-0.505698,0.488195,-0.380059,2.685502,0.019747,0.257836
430,2556885847,0.591764,-0.502890,0.508625,-0.371776,2.388511,1.012018,0.176914
431,2556919181,0.580145,-0.495357,0.529343,-0.371283,3.157231,1.433060,0.761889
432,2556952515,0.567968,-0.478099,0.548582,-0.384568,2.413773,2.697015,0.168670
433,2556985849,0.547974,-0.453656,0.570182,-0.410869,1.012677,2.606404,-1.321454
434,2557019183,0.515422,-0.426981,0.595151,-0.444773,0.094253,2.132135,-1.298037
435,2557052517,0.476464,-0.395978,0.616013,-0.486530,0.415119,2.018539,-1.009220
436,2557085851,0.431017,-0.360410,0.630062,-0.536052,0.760845,0.898566,-2.825616
437,2557119185,0.371097,-0.334679,0.649119,-0.573517,0.031088,0.435010,-1.670866
438,2557152519,0.311926,-0.304234,0.658797,-0.613295,0.401158,-0.594711,2.497047
439,2557185853,0.250530,-0.277190,0.663411,-0.648296,-1.394254,-0.818279,-2.070159
440,2557219187,0.178507,-0.255697,0.685999,-0.657389,-0.820814,-2.566509,0.801449
441,2557252521,0.112319,-0.228866,0.698027,-0.669151,-2.717004,-1.752534,1.784949
442,2557285855,0.047879,-0.210010,0.719771,-0.659949,-5.283802,0.766244,-0.442649
443,2557319189,-0.005915,-0.194829,0.747236,-0.635331,-3.808104,-2.192399,4.066216
444,2557352523,-0.027288,-0.187202,0.736713,-0.649204,-5.308742,-1.056130,4.005643
445,2557385857,-0.036930,-0.185081,0.724982,-0.662407,-6.392421,-0.231996,-0.125014
446,2557419191,-0.042786,-0.184638,0.720134,-0.667447,-6.193756,0.600111,-0.442246
447,2557452525,-0.040432,-0.188165,0.706877,-0.680650,-5.054864,0.961831,-0.121070
448,2557485859,-0.030897,-0.200351,0.687971,-0.696851,-4.113629,1.362971,-1.000720
449,2557519193,-0.018757,-0.220196,0.671755,-0.707042,-3.517802,0.879283,-1.423698
450,2557552527,-0.003828,-0.246534,0.654105,-0.715089,-3.094927,0.736551,-0.995289
451,2557585861,0.014377,-0.279464,0.633036,-0.721775,-2.336080,-0.208492,-0.130120
452,2557619195,0.035697,-0.317167,0.611852,-0.723719,-1.675464,-0.805331,0.920174
453,2557652529,0.062385,-0.356540,0.588710,-0.722779,-0.983904,-0.871818,1.873384
454,2557685863,0.097682,-0.395503,0.557930,-0.723014,-0.367771,-1.038662,1.954171
455,2557719197,0.138051,-0.432912,0.526715,-0.718401,-0.099807,-1.528214,1.476103
456,2557752531,0.182157,-0.467055,0.496128,-0.708898,0.029356,-1.395866,1.168899
457,2557785865,0.232598,-0.496251,0.460004,-0.698591,0.360276,-1.337519,1.127979
458,2557819199,0.285288,-0.521075,0.421682,-0.685038,0.493886,-1.662111,0.155375
459,2557852533,0.334554,-0.543125,0.386108,-0.666341,0.689357,-1.395633,-0.168028
460,2557885867,0.381642,-0.561185,0.350239,-0.645564,0.564066,-1.015953,-0.033872
461,2557919201,0.427840,-0.573673,0.312386,-0.624714,0.659275,-1.001878,-0.359274
462,2557952535,0.469815,-0.581883,0.275691,-0.603889,0.214081,-0.745004,-0.430205
463,2557985869,0.504552,-0.588181,0.243790,-0.583127,0.094714,-0.322864,-0.650267
464,2558019203,0.532546,-0.592634,0.217649,-0.563745,-1.067550,0.237320,-0.224151
465,2558052537,0.555705,-0.595206,0.196392,-0.546217,-2.316879,0.314473,-0.583220
466,2558085871,0.573373,-0.598732,0.181381,-0.529021,-3.242338,0.757323,-0.365676
467,2558119205,0.588440,-0.602765,0.169665,-0.511495,-4.117846,1.008229,-0.165640
468,2558152539,0.602286,-0.606667,0.160521,-0.493397,-4.308827,1.063104,-0.703989
469,2558185873,0.609811,-0.615357,0.157162,-0.474095,-3.980703,1.432441,-0.439122
470,2558219207,0.615722,-0.624762,0.152503,-0.455305,-3.266692,1.582376,0.853714
471,2558252541,0.628897,-0.627247,0.138165,-0.438132,-1.140673,1.690994,0.127523
472,2558285875,0.636017,-0.634948,0.122431,-0.421112,-0.097298,1.241375,-0.271807
473,2558319209,0.641372,-0.642675,0.104579,-0.405801,0.699043,1.989341,0.266848
474,2558352543,0.646979,-0.647635,0.084693,-0.393466,1.526827,2.221005,-0.703803
475,2558385877,0.649786,-0.652446,0.063462,-0.384794,2.580735,1.898480,-0.763811
476,2558419211,0.644958,-0.661894,0.041594,-0.379731,3.632323,0.977041,-2.081460
477,2558452545,0.625565,-0.681585,0.024146,-0.378850,2.898419,0.566714,-0.470274
478,2558485879,0.608878,-0.696255,0.003998,-0.380107,3.998439,1.089065,0.511067
479,2558519213,0.594077,-0.707523,-0.015323,-0.382425,4.413183,0.217382,0.167475
480,2558552547,0.584101,-0.713983,-0.030168,-0.384895,3.574740,1.339075,0.748942
481,2558585881,0.583215,-0.712362,-0.043294,-0.387977,2.812519,-0.200820,-0.558240
482,2558619215,0.578684,-0.712461,-0.052116,-0.393456,3.019752,0.093648,-0.778667
483,2558652549,0.575265,-0.711274,-0.059829,-0.399476,1.759994,0.300866,0.396124
484,2558685883,0.573602,-0.708135,-0.066875,-0.406267,1.908625,0.176713,1.452679
485,2558719217,0.571007,-0.705087,-0.069454,-0.414705,1.512534,0.157937,1.877760
486,2558752551,0.569741,-0.700558,-0.071205,-0.423726,0.520731,-0.184777,1.989990
487,2558785885,0.571416,-0.693893,-0.073745,-0.431924,0.746977,-0.601676,1.722335
488,2558819219,0.574614,-0.687671,-0.072731,-0.437764,1.033910,-1.024418,1.730953
489,2558852553,0.578921,-0.682126,-0.069568,-0.441266,1.573140,-0.934499,1.410714
490,2558885887,0.582376,-0.677558,-0.065423,-0.444380,0.905871,-1.512676,1.417994
491,2558919221,0.584863,-0.673496,-0.060444,-0.447980,1.453908,-0.933133,1.712421
492,2558952555,0.589935,-0.667253,-0.055378,-0.451314,0.747757,-0.459856,2.234309
493,2558985889,0.601501,-0.656913,-0.052769,-0.451528,0.257402,-0.308167,1.302834
494,2559019223,0.615998,-0.645005,-0.054590,-0.448927,1.369751,-0.535932,0.683218
495,2559052557,0.625970,-0.636396,-0.053872,-0.447505,2.664356,-1.147229,0.251487
496,2559085891,0.628211,-0.634329,-0.045709,-0.448206,1.986118,-1.321104,0.649117
497,2559119225,0.629960,-0.632602,-0.036793,-0.449012,1.745093,-0.840571,0.662725
498,2559152559,0.632139,-0.630679,-0.030309,-0.449139,0.543690,-1.044456,0.654696
499,2559185893,0.637315,-0.625050,-0.029196,-0.449767,0.187832,-1.134955,-0.571865
500,2559219227,0.638909,-0.621504,-0.030617,-0.452317,-0.455106,-0.832646,-0.855866
501,2559252561,0.636253,-0.621852,-0.034276,-0.455311,-1.334669,0.010509,-1.293000
502,2559285895,0.631150,-0.624521,-0.041313,-0.458168,-1.729818,0.583231,-0.888855
503,2559319229,0.625317,-0.627894,-0.052150,-0.460445,-3.879981,-0.524305,-0.243133
504,2559352563,0.619901,-0.633329,-0.065624,-0.458597,-3.884992,1.068175,0.164122
505,2559385897,0.619111,-0.636371,-0.082503,-0.452689,-2.813379,2.037023,0.163136
506,2559419231,0.620113,-0.638543,-0.097822,-0.445144,-2.989719,1.294689,0.412655
507,2559452565,0.619489,-0.642787,-0.106948,-0.437745,-3.225973,1.393048,0.446771
508,2559485899,0.619405,-0.647158,-0.111512,-0.430221,-2.912721,1.323595,-0.092125
509,2559519233,0.620142,-0.651825,-0.112158,-0.421864,-3.085654,0.874981,-0.574117
510,2559552567,0.623530,-0.655358,-0.111236,-0.411513,-2.665699,0.942287,-0.769522
511,2559585901,0.629113,-0.657159,-0.109916,-0.400347,-2.074044,0.653437,-1.017291
512,2559619235,0.632709,-0.659797,-0.106109,-0.391265,-2.342942,0.388326,-0.757647
513,2559652569,0.635187,-0.662226,-0.100362,-0.384606,-2.371960,0.380742,-0.655756
514,2559685903,0.637879,-0.663044,-0.092958,-0.380581,-2.626871,0.157140,-0.243671
515,2559719237,0.637144,-0.666273,-0.081442,-0.378808,-2.855716,-0.052495,-0.254584
516,2559752571,0.633126,-0.672311,-0.065712,-0.377932,-2.864865,0.525419,0.109679
517,2559785905,0.629546,-0.678059,-0.048328,-0.376262,-2.161749,0.930892,-0.416654
518,2559819239,0.619743,-0.688863,-0.026262,-0.375097,-1.894937,1.191829,-0.369093
519,2559852573,0.609667,-0.698806,-0.003641,-0.374118,-1.390112,1.880822,-0.574535
520,2559885907,0.598727,-0.708139,0.017710,-0.373835,-0.716864,1.296579,-1.540442
521,2559919241,0.580807,-0.721731,0.039323,-0.374463,0.104248,1.717415,-1.175461
522,2559952575,0.561517,-0.734761,0.057615,-0.376172,1.291296,1.386408,-1.432220
523,2559985909,0.536229,-0.750248,0.074649,-0.379492,2.421879,0.927304,-1.546207
524,2560019243,0.510036,-0.764021,0.087638,-0.385299,2.987065,0.898038,-0.888749
525,2560052577,0.487328,-0.773823,0.093740,-0.393603,3.844344,0.784611,-0.364333
526,2560085911,0.469569,-0.779554,0.091696,-0.404218,4.332234,-0.988951,-0.619652
527,2560119245,0.451318,-0.784351,0.086836,-0.416612,3.753191,-0.569225,0.606017
528,2560152579,0.443570,-0.782935,0.073736,-0.429910,3.869508,-1.057203,0.240284
529,2560185913,0.438543,-0.778895,0.057623,-0.444614,3.466678,-1.933892,0.337464
530,2560219247,0.433045,-0.774236,0.042255,-0.459615,2.425689,-1.274549,1.373780
531,2560252581,0.432565,-0.766746,0.025891,-0.473623,2.227633,-0.943204,1.655630
532,2560285915,0.431132,-0.758161,0.013060,-0.489026,1.762846,-1.377976,1.220068
533,2560319249,0.428488,-0.749917,0.003684,-0.503993,0.502880,-1.145628,1.893245
534,2560352583,0.427537,-0.742056,-0.003215,-0.516289,0.172906,-0.373666,2.563690
535,2560385917,0.422061,-0.739677,-0.001358,-0.524157,-0.198922,-0.002078,2.485476
536,2560419251,0.420250,-0.738210,0.007941,-0.527611,-1.758173,0.718724,3.689756
537,2560452585,0.426456,-0.736570,0.019024,-0.524632,-0.816867,-0.830710,2.918180
538,2560485919,0.428817,-0.739046,0.038913,-0.518086,-0.088796,1.239870,3.722513
539,2560519253,0.429064,-0.743565,0.064309,-0.508803,0.345748,1.028260,2.913941
540,2560552587,0.419719,-0.753176,0.102023,-0.496138,1.863384,1.865929,4.023688
541,2560585921,0.412047,-0.760123,0.147327,-0.480339,3.561309,3.442485,3.167340
542,2560619255,0.406915,-0.761454,0.198851,-0.463753,3.035014,3.841466,1.410745
543,2560652589,0.408369,-0.751460,0.252714,-0.452414,3.786023,4.744403,-0.085363
544,2560685923,0.415025,-0.728539,0.308577,-0.449184,4.534977,4.822975,-1.002533
545,2560719257,0.422990,-0.691789,0.365035,-0.457447,5.161040,4.037448,-1.352655
546,2560752591,0.427266,-0.640236,0.420314,-0.480498,6.414452,2.587746,-3.060477
547,2560785925,0.416867,-0.582291,0.479264,-0.507410,4.376416,-0.030284,-2.594403
548,2560819259,0.395597,-0.519464,0.536445,-0.534685,3.456295,-1.520061,-1.401814
549,2560852593,0.367230,-0.452873,0.586535,-0.562161,2.421474,-2.566339,-2.536050
550,2560885927,0.329448,-0.388619,0.633235,-0.582626,1.456222,-3.794794,-1.442047
551,2560919261,0.287708,-0.326591,0.669503,-0.601938,-1.061002,-4.568015,-1.870734
552,2560952595,0.239185,-0.272608,0.702089,-0.612819,-2.630096,-4.477343,-2.743364
553,2560985929,0.186782,-0.225631,0.730595,-0.616793,-3.437598,-5.138038,-1.552136
554,2561019263,0.135007,-0.185384,0.749638,-0.620846,-5.684648,-2.879915,-3.014654
555,2561052597,0.084287,-0.154812,0.771449,-0.611389,-5.962674,-2.236969,-1.938745
556,2561085931,0.038779,-0.129282,0.787353,-0.601546,-6.473021,-1.964090,0.201096
557,2561119265,0.001217,-0.111953,0.797278,-0.593139,-6.985565,-0.371088,-0.556739
558,2561152599,-0.028185,-0.101631,0.804217,-0.584904,-7.395420,-0.014784,-0.025380
559,2561185933,-0.047394,-0.099254,0.805746,-0.581959,-7.393611,0.826364,0.379737
560,2561219267,-0.054775,-0.102477,0.798553,-0.590603,-6.955536,0.448868,0.421775
561,2561252601,-0.051027,-0.112351,0.782226,-0.610652,-6.145595,0.658303,0.576885
562,2561285935,-0.038605,-0.131230,0.758847,-0.636741,-5.196239,0.973863,-0.414431
563,2561319269,-0.019916,-0.160384,0.732030,-0.661825,-4.651319,0.707325,-1.254057
564,2561352603,0.002630,-0.198262,0.704522,-0.681420,-3.916576,-0.298831,-1.336267
565,2561385937,0.028169,-0.242350,0.676218,-0.695128,-2.833789,-1.183718,0.033073
566,2561419271,0.057853,-0.291253,0.645924,-0.703284,-1.906944,-1.775460,1.286183
567,2561452605,0.092667,-0.341344,0.612479,-0.706942,-0.563424,-2.519845,1.665459
568,2561485939,0.130651,-0.390194,0.577544,-0.705069,0.856148,-2.968720,1.650847
569,2561519273,0.169523,-0.436331,0.542695,-0.697395,2.403698,-2.589657,2.270292
570,2561552607,0.208731,-0.477972,0.507641,-0.685766,3.678104,-2.006818,2.029927
571,2561585941,0.247211,-0.513478,0.474549,-0.670843,4.268527,-1.436250,1.669324
572,2561619275,0.285571,-0.541625,0.443067,-0.654815,4.480077,-0.882159,1.533448
573,2561652609,0.325564,-0.562241,0.410691,-0.639709,4.285990,-0.272862,0.306018
574,2561685943,0.363169,-0.577326,0.379310,-0.625241,3.165087,0.338036,-0.485803
575,2561719277,0.395980,-0.589222,0.350393,-0.610936,2.579085,0.946240,-0.228328
576,2561752611,0.426134,-0.597602,0.320796,-0.598642,2.061508,1.493327,-0.340174
577,2561785945,0.452645,-0.602925,0.291829,-0.588583,0.982850,1.837187,-0.214081
578,2561819279,0.473829,-0.607235,0.267023,-0.579181,-0.066001,2.306591,0.362421
579,2561852613,0.492371,-0.609569,0.246090,-0.570470,-0.678978,2.605989,-0.029019
580,2561885947,0.506062,-0.611234,0.232976,-0.562154,-2.666392,2.692295,0.086489
581,2561919281,0.515919,-0.612639,0.227390,-0.553891,-3.426869,3.310570,-0.091114
582,2561952615,0.524495,-0.614268,0.226072,-0.544492,-3.404833,3.161192,-0.390663
583,2561985949,0.531199,-0.617458,0.229586,-0.532790,-3.787295,2.922409,0.177024
584,2562019283,0.540233,-0.618911,0.234221,-0.519845,-3.520322,2.964691,0.427970
585,2562052617,0.548130,-0.620874,0.241910,-0.505519,-3.046687,3.018955,-0.126472
586,2562085951,0.551631,-0.624838,0.254328,-0.490509,-3.179012,3.070009,0.233123
587,2562119285,0.556645,-0.626040,0.267095,-0.476320,-2.287400,3.189882,0.506555
588,2562152619,0.561825,-0.626228,0.280042,-0.462352,-2.092184,2.583889,0.025568
589,2562185953,0.564163,-0.629218,0.293594,-0.446775,-1.672383,2.544477,0.148205
590,2562219287,0.571888,-0.628502,0.300212,-0.433363,-1.193160,2.654592,1.182342
591,2562252621,0.581733,-0.627697,0.300866,-0.420789,-0.367807,1.544181,-0.472297
592,2562285955,0.592511,-0.628581,0.296447,-0.407353,-0.084140,1.924079,2.498539
593,2562319289,0.621800,-0.612830,0.273768,-0.403555,1.483302,1.098543,-0.334183
594,2562352623,0.629232,-0.618072,0.257987,-0.394332,3.429502,-0.490065,-2.900383
595,2562385957,0.622336,-0.633336,0.249751,-0.386276,3.694967,-0.956909,2.147046
596,2562419291,0.627861,-0.633198,0.232973,-0.388039,4.432250,-1.027430,1.322879
597,2562452625,0.640331,-0.625431,0.212044,-0.392238,3.409964,-2.122985,-0.551462
598,2562485959,0.653272,-0.615581,0.193218,-0.396185,3.298438,-3.197847,-1.118426
599,2562519293,0.661685,-0.608083,0.179805,-0.400098,2.754845,-3.531923,-0.994318
600,2562552627,0.662496,-0.605486,0.173991,-0.405234,2.247974,-3.620666,-1.088792
601,2562585961,0.657539,-0.606998,0.171927,-0.411870,2.249651,-4.143599,-2.009461
602,2562619295,0.645431,-0.614913,0.176874,-0.417154,2.763136,-3.226080,-1.842760
603,2562652629,0.630355,-0.624667,0.188182,-0.420752,2.187010,-3.892674,-0.820871
604,2562685963,0.620156,-0.628054,0.204139,-0.423417,1.444331,-3.641855,1.039016
605,2562719297,0.612049,-0.628759,0.222662,-0.424829,1.661227,-3.357069,-0.813363
606,2562752631,0.598212,-0.634699,0.244918,-0.423456,0.689176,-3.182108,0.249151
607,2562785965,0.592019,-0.635285,0.259946,-0.422320,1.623260,-2.011460,-0.097399
608,2562819299,0.591575,-0.631951,0.269167,-0.422170,2.325361,-2.566818,0.618224
609,2562852633,0.596467,-0.623631,0.275670,-0.423460,1.968298,-1.840058,0.918863
610,2562885967,0.602112,-0.613601,0.279688,-0.427468,2.739889,-1.664777,0.509939
611,2562919301,0.608112,-0.602481,0.281243,-0.433728,1.195530,-2.369052,0.171407
612,2562952635,0.613062,-0.593756,0.278875,-0.440271,2.001238,-1.322741,-1.429053
613,2562985969,0.616527,-0.586537,0.272178,-0.449208,1.023595,-1.749536,0.008021
614,2563019303,0.618895,-0.582039,0.260566,-0.458591,-0.418506,-1.337364,-0.107942
615,2563052637,0.621716,-0.579455,0.241700,-0.468276,0.682675,0.379783,0.878448
616,2563085971,0.625035,-0.576738,0.214232,-0.480427,-0.809390,0.229082,1.225322
617,2563119305,0.624901,-0.578550,0.184785,-0.490544,-1.916866,0.977338,1.975109
618,2563152639,0.624226,-0.582161,0.154871,-0.497440,-1.936317,2.171755,2.180308
619,2563185973,0.623576,-0.585835,0.124847,-0.502359,-3.336072,2.277935,2.572847
620,2563219307,0.622642,-0.590146,0.096802,-0.504654,-3.496761,3.071680,1.720826
621,2563252641,0.621177,-0.594954,0.073222,-0.504785,-3.780523,4.034109,1.002447
622,2563285975,0.620759,-0.598277,0.053761,-0.503818,-4.366944,4.050522,0.065606
623,2563319309,0.619772,-0.602190,0.040773,-0.501585,-4.410427,4.104679,-0.911242
624,2563352643,0.618718,-0.606482,0.034931,-0.498145,-4.419056,4.421010,-1.181401
625,2563385977,0.620945,-0.607760,0.033828,-0.493874,-4.516960,4.265052,-1.267479
626,2563419311,0.624340,-0.608312,0.038959,-0.488508,-4.166255,3.565177,-1.646877
627,2563452645,0.624636,-0.612155,0.053618,-0.481894,-3.608523,3.776514,-0.535627
628,2563485979,0.626171,-0.614464,0.072899,-0.474374,-3.264014,3.349253,0.549253
629,2563519313,0.627926,-0.615388,0.096012,-0.466679,-2.444696,2.816037,0.942603
630,2563552647,0.627475,-0.616809,0.123171,-0.458967,-2.025272,2.278905,1.219982
631,2563585981,0.625392,-0.618294,0.152169,-0.451046,-1.890528,2.153888,1.489552
632,2563619315,0.622685,-0.619360,0.180970,-0.442615,-1.285047,1.798181,1.152795
633,2563652649,0.618593,-0.621278,0.209283,-0.433079,-1.184209,1.600327,1.598455
634,2563685983,0.616375,-0.621985,0.233543,-0.422700,-0.722181,1.079171,0.463665
635,2563719317,0.607028,-0.630458,0.258376,-0.409002,-0.737641,0.893324,0.217475
636,2563752651,0.597146,-0.640470,0.278235,-0.394715,-0.912697,0.961995,0.748116
637,2563785985,0.580382,-0.657964,0.294347,-0.378948,-0.608082,-0.648129,-2.233322
638,2563819319,0.545160,-0.691030,0.311165,-0.358405,0.931892,-0.737310,0.230364
639,2563852653,0.513525,-0.721083,0.314847,-0.342351,2.822996,-1.870877,0.133598
640,2563885987,0.484686,-0.748794,0.308202,-0.330757,3.474864,-2.239957,-0.187498
641,2563919321,0.462630,-0.770709,0.293949,-0.324924,4.753422,-2.328434,-0.927492
642,2563952655,0.452402,-0.785140,0.272077,-0.323823,4.820723,-2.005634,0.300941
643,2563985989,0.456210,-0.789815,0.245712,-0.328162,3.925853,-2.350747,-1.256090
644,2564019323,0.467664,-0.787418,0.219446,-0.336313,3.564184,-1.904252,-1.293797
645,2564052657,0.486317,-0.778126,0.193703,-0.347123,3.446918,-2.143116,-2.222940
646,2564085991,0.498632,-0.770360,0.173543,-0.357485,2.862833,-2.973826,-3.227620
647,2564119325,0.496100,-0.770533,0.163640,-0.365221,2.110412,-2.120650,-0.353083
648,2564152659,0.498814,-0.766420,0.156913,-0.373046,1.991351,-1.304278,1.393204
649,2564185993,0.513108,-0.754864,0.151834,-0.379273,1.737113,-1.513045,1.292502
650,2564219327,0.536924,-0.736036,0.149551,-0.384187,3.062928,-1.450869,1.189513
651,2564252661,0.550812,-0.721278,0.157717,-0.389218,3.779383,-2.668932,-0.844355
652,2564285995,0.539671,-0.722302,0.185532,-0.390657,5.042970,-1.091973,2.367687
653,2564319329,0.538161,-0.714088,0.213240,-0.393688,6.266968,-1.216404,-0.284869
654,2564352663,0.524201,-0.709352,0.252377,-0.397919,4.547403,0.390593,3.338930
655,2564385997,0.519859,-0.691918,0.290687,-0.408041,2.861595,2.989764,2.250425
656,2564419331,0.521098,-0.661074,0.325377,-0.430776,4.054632,3.794866,3.168747
657,2564452665,0.523597,-0.616394,0.355912,-0.468221,3.196656,3.184120,1.342079
658,2564485999,0.509955,-0.570300,0.394659,-0.508869,1.897024,2.601246,1.784497
659,2564519333,0.487377,-0.517985,0.436555,-0.550976,-0.140838,1.698582,1.598913
660,2564552667,0.455356,-0.462673,0.481453,-0.588886,0.120859,1.097171,-0.005995
661,2564586001,0.413950,-0.406093,0.528296,-0.620192,-4.508430,0.724263,-0.432470
662,2564619335,0.366919,-0.354995,0.577171,-0.637357,-3.324232,1.914119,-0.598551
663,2564652669,0.324359,-0.305188,0.614625,-0.651066,-2.484932,0.758310,-0.737824
664,2564686003,0.278311,-0.264531,0.648294,-0.657481,-2.851732,-0.246830,-2.888200
665,2564719337,0.225933,-0.231007,0.683008,-0.655050,-1.683499,-2.145846,-1.545024
666,2564752671,0.173080,-0.199742,0.707398,-0.655542,-2.487923,-2.849983,-2.881572
667,2564786005,0.118542,-0.174010,0.732846,-0.646997,-2.851432,-2.955242,-2.551839
668,2564819339,0.068415,-0.150590,0.750100,-0.640306,-2.638978,-3.184407,-2.354081
669,2564852673,0.022574,-0.133901,0.761847,-0.633365,-3.644530,-2.061979,-1.772902
670,2564886007,-0.019198,-0.125123,0.770314,-0.624975,-3.596506,-1.910457,-2.476905
671,2564919341,-0.060365,-0.122142,0.775774,-0.616127,-4.923611,-1.641467,-3.038861
672,2564952675,-0.103424,-0.123014,0.783283,-0.600533,-5.259485,-1.680366,-2.774045
673,2564986009,-0.143914,-0.126529,0.785735,-0.588133,-5.934153,1.064094,-0.521585
674,2565019343,-0.172174,-0.135826,0.782229,-0.583117,-4.658002,1.654616,2.914742
675,2565052677,-0.186246,-0.152300,0.768941,-0.592324,-4.255955,2.302739,3.081162
676,2565086011,-0.191009,-0.170445,0.753703,-0.605307,-3.671792,1.971654,3.270129
677,2565119345,-0.188073,-0.191029,0.735994,-0.621651,-2.714007,1.714751,2.909789
678,2565152679,-0.177624,-0.213624,0.717263,-0.639022,-2.236434,1.417548,1.950751
679,2565186013,-0.157407,-0.237873,0.697446,-0.657426,-2.279606,1.776689,1.654219
680,2565219347,-0.127099,-0.265132,0.674123,-0.677576,-2.281847,0.714452,1.365065
681,2565252681,-0.089024,-0.295471,0.650445,-0.694042,-2.736512,0.143995,0.980580
682,2565286015,-0.046147,-0.328257,0.630024,-0.702273,-2.794790,-0.944849,1.057849
683,2565319349,0.002599,-0.363407,0.608126,-0.705771,-2.278594,-1.736349,1.063201
684,2565352683,0.056669,-0.400887,0.582864,-0.704520,-2.078671,-1.903587,0.624828
685,2565386017,0.113543,-0.440194,0.554414,-0.697111,-1.303365,-2.946143,-0.457111
686,2565419351,0.169598,-0.480953,0.523952,-0.682199,-0.960545,-2.888116,-0.988003
687,2565452685,0.222280,-0.523749,0.490808,-0.659838,-0.490352,-3.124591,-1.544372
688,2565486019,0.267247,-0.568215,0.455095,-0.631348,0.783245,-3.277346,-2.023894
689,2565519353,0.304427,-0.612307,0.414843,-0.600259,1.404003,-2.706390,-1.926175
690,2565552687,0.336115,-0.652925,0.367488,-0.570674,3.393415,-1.674453,-1.549589
691,2565586021,0.359918,-0.687377,0.316538,-0.545689,4.140237,-0.057393,-0.655691
692,2565619355,0.372232,-0.715697,0.268663,-0.526348,4.927848,1.104668,-1.504039
693,2565652689,0.368295,-0.738122,0.230388,-0.516194,4.735670,2.315235,-0.785487
694,2565686023,0.355729,-0.753360,0.198776,-0.516133,3.127325,3.532896,0.374690
695,2565719357,0.336534,-0.763787,0.175920,-0.521946,1.774527,3.290739,0.585252
696,2565752691,0.318757,-0.769638,0.157417,-0.530351,1.027249,3.414054,1.270617
697,2565786025,0.308261,-0.771299,0.137057,-0.539711,1.035596,1.904619,0.456553
698,2565819359,0.298600,-0.771181,0.118987,-0.549509,0.400145,1.102987,0.951470
699,2565852693,0.291289,-0.769033,0.104731,-0.559259,0.637297,1.055127,1.736915
700,2565886027,0.290951,-0.763989,0.093250,-0.568307,0.377006,0.514167,2.225233
701,2565919361,0.296054,-0.757221,0.087342,-0.575622,0.042361,0.093949,2.525243
702,2565952695,0.306559,-0.749556,0.088226,-0.580003,0.418767,0.226442,2.906620
703,2565986029,0.326329,-0.738489,0.091585,-0.582886,0.422837,-0.682838,2.234942
704,2566019363,0.352605,-0.723077,0.096403,-0.586120,0.651118,-1.306476,1.474978
705,2566052697,0.373501,-0.710155,0.107877,-0.586975,0.560503,-1.642309,1.448551
706,2566086031,0.392714,-0.697603,0.121204,-0.586886,0.389836,-1.050297,1.400065
707,2566119365,0.411561,-0.685088,0.133831,-0.585971,-0.572049,-1.141872,0.797442
708,2566152699,0.428205,-0.676246,0.146183,-0.581346,-1.291972,0.145883,0.808177
709,2566186033,0.453796,-0.664157,0.148431,-0.575268,-2.284190,0.715990,0.314423
710,2566219367,0.479496,-0.654280,0.144174,-0.566759,-3.190220,0.392966,-1.042612
711,2566252701,0.501697,-0.648342,0.136167,-0.556248,-3.266984,0.891303,-1.423945
712,2566286035,0.523728,-0.643416,0.123744,-0.544438,-3.139069,1.069086,-1.562686
713,2566319369,0.540777,-0.642981,0.112977,-0.530445,-2.953680,0.941936,-1.264221
714,2566352703,0.551139,-0.648102,0.106762,-0.514598,-2.303612,1.380788,-0.481015
715,2566386037,0.560416,-0.653272,0.100705,-0.499028,-1.224896,1.671830,-0.222042
716,2566419371,0.565154,-0.660558,0.097522,-0.484515,-0.587561,1.634568,-0.131501
717,2566452705,0.565601,-0.668836,0.098655,-0.472250,-0.009360,2.988555,1.132161
718,2566486039,0.568302,-0.672701,0.101497,-0.462823,0.846931,3.449055,0.636711
719,2566519373,0.566428,-0.677178,0.112462,-0.456007,1.439628,3.235293,0.104671
720,2566552707,0.561091,-0.680410,0.131825,-0.452594,1.869160,4.024878,0.782748
721,2566586041,0.557905,-0.677697,0.153983,-0.453606,2.318668,3.417078,-0.021972
722,2566619375,0.551151,-0.673059,0.182413,-0.458202,2.901481,3.240750,0.057080
723,2566652709,0.543048,-0.664307,0.214772,-0.466549,3.261604,2.870311,0.087721
724,2566686043,0.533452,-0.651480,0.249482,-0.478291,3.382317,2.387689,0.036329
725,2566719377,0.521192,-0.635227,0.286280,-0.492839,3.557805,1.894623,0.038879
726,2566752711,0.507833,-0.613959,0.323778,-0.510224,3.689581,1.350071,0.600667
727,2566786045,0.493445,-0.587415,0.361147,-0.530121,3.502133,0.421107,0.316970
728,2566819379,0.474597,-0.557873,0.400621,-0.550490,3.136702,-0.340867,0.436593
729,2566852713,0.453018,-0.524036,0.440153,-0.571338,2.907071,-1.012911,0.695312
730,2566886047,0.429061,-0.486045,0.479126,-0.591697,2.438654,-1.789383,0.667175
731,2566919381,0.401750,-0.445870,0.518206,-0.609311,2.147459,-2.163871,0.831009
732,2566952715,0.373369,-0.403229,0.553967,-0.625398,1.476664,-2.338439,0.669997
733,2566986049,0.343494,-0.359612,0.586546,-0.639262,1.150138,-2.516851,0.164726
734,2567019383,0.312388,-0.315594,0.615104,-0.651507,0.746472,-2.613392,-0.210978
735,2567052717,0.279647,-0.271394,0.638851,-0.663335,0.488258,-2.895702,-0.617992
736,2567086051,0.244312,-0.229139,0.661434,-0.671053,-0.381056,-3.045754,-1.007215
737,2567119385,0.207256,-0.188863,0.682706,-0.674750,-0.789765,-2.892967,-1.313315
738,2567152719,0.168535,-0.150856,0.699934,-0.677444,-1.154452,-2.629694,-1.904766
739,2567186053,0.127964,-0.117299,0.716798,-0.675328,-2.127459,-1.860150,-2.492533
740,2567219387,0.086331,-0.087910,0.732581,-0.669436,-2.818312,-1.543626,-2.647263
741,2567252721,0.045364,-0.067913,0.747956,-0.658705,-3.621993,-1.258435,-2.029007
742,2567286055,0.004764,-0.056682,0.765522,-0.640890,-3.815733,-0.330944,-1.397930
743,2567319389,-0.036080,-0.051034,0.776074,-0.627537,-4.142237,-0.759320,-2.698760
744,2567352723,-0.078206,-0.048791,0.788299,-0.608349,-4.768915,0.371451,-1.177014
745,2567386057,-0.116963,-0.049883,0.794383,-0.593959,-5.123363,1.176083,0.216783
746,2567419391,-0.147417,-0.058322,0.794423,-0.586310,-5.587161,1.326431,0.924133
747,2567452725,-0.168448,-0.072188,0.789850,-0.585279,-5.989007,1.683466,1.905231
748,2567486059,-0.179266,-0.088846,0.781748,-0.590628,-5.789097,2.014613,2.834646
749,2567519393,-0.176594,-0.109448,0.769079,-0.604445,-5.179631,1.597748,2.504726
750,2567552727,-0.161228,-0.136818,0.750424,-0.626220,-4.315874,1.587404,1.376750
751,2567586061,-0.136144,-0.170053,0.730082,-0.647710,-3.502470,1.280214,1.031651
752,2567619395,-0.102515,-0.209324,0.706751,-0.667965,-2.970838,0.850335,0.705723
753,2567652729,-0.059842,-0.254244,0.680337,-0.684778,-2.853343,0.080588,-0.015519
754,2567686063,-0.009493,-0.303737,0.652003,-0.694655,-2.655399,-0.580490,0.070042
755,2567719397,0.046237,-0.357732,0.620185,-0.696607,-2.413414,-1.599909,0.192556
756,2567752731,0.105769,-0.415356,0.583816,-0.689530,-2.022457,-2.724417,-0.109041
757,2567786065,0.168775,-0.473650,0.540032,-0.674934,-1.269979,-3.201232,0.542006
758,2567819399,0.234986,-0.528821,0.485951,-0.654968,-0.931554,-3.965336,-0.643645
759,2567852733,0.291536,-0.581542,0.432778,-0.624115,-0.127780,-3.795610,-1.607096
760,2567886067,0.335793,-0.629822,0.380029,-0.588341,1.445772,-2.889338,-1.240641
761,2567919401,0.369416,-0.673531,0.324087,-0.552138,2.139164,-2.511467,-2.044420
762,2567952735,0.389713,-0.711950,0.267574,-0.519284,3.768605,-1.031020,-0.434115
763,2567986069,0.409226,-0.738656,0.206062,-0.494429,5.094877,-0.406666,-0.301207
764,2568019403,0.420835,-0.758158,0.149531,-0.475117,5.909533,0.538434,0.356246
765,2568052737,0.424504,-0.770384,0.102891,-0.464455,6.153758,2.534746,0.592779
766,2568086071,0.419863,-0.777174,0.066719,-0.463967,5.340489,2.614017,-0.412232
767,2568119405,0.401307,-0.783684,0.044003,-0.472077,3.511302,2.291693,0.010168
768,2568152739,0.378990,-0.787518,0.030054,-0.485057,1.090138,3.305326,2.195613
769,2568186073,0.367534,-0.785400,0.018001,-0.497736,0.475390,3.328258,2.251505
770,2568219407,0.365359,-0.778826,0.007665,-0.509790,1.808509,1.276850,0.620104
771,2568252741,0.359797,-0.774984,0.008814,-0.519488,0.101648,0.955051,1.914756
772,2568286075,0.361038,-0.770096,0.016384,-0.525677,-0.668171,1.774459,3.701911
773,2568319409,0.371235,-0.762420,0.026617,-0.529332,0.659005,0.394210,2.718149
774,2568352743,0.381875,-0.754241,0.043204,-0.532378,1.053070,-0.772560,1.530869
775,2568386077,0.389962,-0.747627,0.066084,-0.533496,0.960369,-0.278988,2.412655
776,2568419411,0.398893,-0.740293,0.091469,-0.533371,1.697935,-0.844761,1.319612
777,2568452745,0.405598,-0.732842,0.119373,-0.533088,0.992092,-1.341037,0.830725
778,2568486079,0.411201,-0.725029,0.145760,-0.532918,0.507029,-0.717076,0.743670
779,2568519413,0.420105,-0.715771,0.164727,-0.532963,0.333850,-0.626113,-0.029031
780,2568552747,0.428592,-0.707310,0.179825,-0.532621,-0.294873,-0.330379,0.039764
781,2568586081,0.436944,-0.699617,0.190042,-0.532447,-0.909876,0.109372,0.321192
782,2568619415,0.447305,-0.691729,0.193072,-0.533059,-1.158166,0.053728,-0.279408
783,2568652749,0.456787,-0.684693,0.192474,-0.534318,-1.415374,0.173340,-0.461483
784,2568686083,0.464473,-0.680123,0.189881,-0.534456,-1.617646,0.240462,-0.712005
785,2568719417,0.470678,-0.677865,0.186227,-0.533180,-2.394367,0.645783,-0.192899
786,2568752751,0.476630,-0.676393,0.180381,-0.531770,-2.714447,1.551829,0.092921
787,2568786085,0.483923,-0.674775,0.172356,-0.529897,-2.373832,1.989361,-0.770266
788,2568819419,0.490190,-0.674166,0.165892,-0.526966,-3.010345,2.195827,-0.932315
789,2568852753,0.493697,-0.675316,0.164738,-0.522564,-3.262207,3.000268,-0.416858
790,2568886087,0.498174,-0.675356,0.167409,-0.517389,-3.552570,3.266536,-0.865114
791,2568919421,0.502007,-0.675880,0.175266,-0.510350,-3.803871,3.097405,-1.267137
792,2568952755,0.504288,-0.677303,0.188757,-0.501323,-3.903481,3.600256,-0.620315
793,2568986089,0.507439,-0.677665,0.205294,-0.491051,-3.949420,3.648874,-0.267030
794,2569019423,0.507627,-0.680433,0.226405,-0.477564,-3.123082,3.487689,0.206113
795,2569052757,0.506638,-0.684137,0.250216,-0.461158,-2.275151,3.644110,2.213202
796,2569086091,0.510077,-0.684491,0.273044,-0.443555,-1.130801,3.196296,2.234651
797,2569119425,0.513416,-0.684282,0.296307,-0.424693,-0.180067,2.679615,1.325919
798,2569152759,0.517333,-0.682983,0.317212,-0.406544,0.221941,2.518113,1.191966
799,2569186093,0.524814,-0.678891,0.331946,-0.391778,1.222263,1.511319,-0.476722
800,2569219427,0.527819,-0.679033,0.343405,-0.377352,1.650396,1.002175,-0.500772
801,2569252761,0.535882,-0.675051,0.346774,-0.369978,2.613053,0.275653,-0.929691
802,2569286095,0.533222,-0.680569,0.349426,-0.361113,2.312082,-1.209507,-2.525501
803,2569319429,0.526772,-0.688284,0.349934,-0.355418,3.755280,-0.327576,0.531932
804,2569352763,0.533271,-0.686711,0.339177,-0.359179,2.641145,-1.853209,-2.322230
805,2569386097,0.525848,-0.696294,0.330654,-0.359620,2.391835,-2.645784,-2.003731
806,2569419431,0.510952,-0.709059,0.323985,-0.362212,2.411788,-2.509207,-1.003930
807,2569452765,0.497578,-0.719763,0.315065,-0.367548,1.617042,-2.831425,-0.688529
808,2569486099,0.490206,-0.725693,0.304495,-0.374634,0.941687,-2.917604,0.339912
809,2569519433,0.485550,-0.729402,0.294560,-0.381377,0.888941,-3.012268,-1.392220
810,2569552767,0.474019,-0.736395,0.288942,-0.386706,0.634587,-2.892231,-0.731109
811,2569586101,0.464812,-0.742681,0.285342,-0.388529,1.061232,-2.028508,1.291103
812,2569619435,0.463370,-0.745528,0.283443,-0.386182,1.228182,-1.535163,2.470517
813,2569652769,0.470094,-0.743354,0.285945,-0.380358,1.459810,-1.997240,1.761369
814,2569686103,0.472677,-0.743377,0.296498,-0.368859,1.932081,-1.889670,1.071242
815,2569719437,0.475897,-0.741816,0.311702,-0.355069,3.553654,-2.411167,0.948142
816,2569752771,0.475498,-0.742724,0.333111,-0.333616,4.675174,-2.105428,-0.814336
817,2569786105,0.459232,-0.749911,0.365865,-0.304768,4.109678,0.642375,0.404437
818,2569819439,0.448565,-0.748248,0.397477,-0.284477,5.096416,1.183444,0.136282
819,2569852773,0.446729,-0.734560,0.427472,-0.279504,4.663099,2.067175,-1.021075
820,2569886107,0.446633,-0.710774,0.458526,-0.291672,5.031951,2.697925,-1.630412
821,2569919441,0.446216,-0.677216,0.487903,-0.322834,2.649340,2.584299,-1.205879
822,2569952775,0.440752,-0.635786,0.515904,-0.367909,2.976881,1.712230,-1.128257
823,2569986109,0.426674,-0.587389,0.543067,-0.421904,2.978210,0.132530,0.819427
824,2570019443,0.405725,-0.530875,0.568126,-0.480408,0.914564,-0.536429,0.390983
825,2570052777,0.373428,-0.470739,0.593993,-0.534911,-0.413706,-0.985841,0.421610
826,2570086111,0.333916,-0.412073,0.622158,-0.575861,-3.023902,1.454357,2.225722
827,2570119445,0.298559,-0.355468,0.645991,-0.605971,-1.747198,1.083019,2.013295
828,2570152779,0.266374,-0.301733,0.664910,-0.629203,-2.279747,0.056117,1.720394
829,2570186113,0.232202,-0.249976,0.683491,-0.645318,-1.842096,-1.472251,1.298465
830,2570219447,0.194461,-0.200119,0.702062,-0.655169,-2.722168,-1.200898,-0.572186
831,2570252781,0.154291,-0.154424,0.724240,-0.654083,-2.718902,-1.315959,0.329057
832,2570286115,0.117006,-0.111315,0.736836,-0.656499,-3.123675,-0.759397,-1.516679
833,2570319449,0.080638,-0.075596,0.751251,-0.650696,-3.029085,-0.029605,-1.831293
834,2570352783,0.048096,-0.046554,0.762242,-0.643822,-2.861320,-0.824525,-1.184009
835,2570386117,0.019588,-0.025039,0.762793,-0.645861,-3.152758,-0.175794,-2.757814
836,2570419451,-0.006511,-0.011568,0.766733,-0.641830,-3.494552,0.565968,-3.015962
837,2570452785,-0.030020,-0.007304,0.767463,-0.640349,-3.589736,-1.320458,-0.888596
838,2570486119,-0.052971,-0.014377,0.768008,-0.638084,-4.147554,0.473632,-3.051604
839,2570519453,-0.083550,-0.022826,0.777074,-0.623422,-4.032629,0.026301,-1.898433
840,2570552787,-0.118308,-0.034940,0.783581,-0.608920,-4.673589,0.261303,-1.595510
841,2570586121,-0.151988,-0.046916,0.789707,-0.592505,-4.503556,1.621904,0.185755
842,2570619455,-0.178603,-0.059436,0.791642,-0.581268,-3.459420,1.016384,3.138768
843,2570652789,-0.193188,-0.075347,0.784609,-0.584287,-3.093680,1.657204,2.647866
844,2570686123,-0.196215,-0.092952,0.775351,-0.593035,-2.782506,1.397810,2.187131
845,2570719457,-0.189823,-0.112932,0.762938,-0.607569,-2.212267,1.009809,2.396247
846,2570752791,-0.175076,-0.136024,0.746482,-0.627384,-1.840214,0.768610,1.831192
847,2570786125,-0.152349,-0.161374,0.727534,-0.649186,-2.055463,0.496460,0.740309
848,2570819459,-0.123999,-0.188264,0.708304,-0.668944,-1.920821,1.125282,0.752203
849,2570852793,-0.088329,-0.219083,0.687263,-0.686928,-2.158005,0.939857,0.455000
850,2570886127,-0.046749,-0.253821,0.663893,-0.701880,-2.471637,-0.152249,-0.389926
851,2570919461,-0.002889,-0.291246,0.641276,-0.709882,-2.296247,-0.308783,0.097070
852,2570952795,0.042688,-0.331246,0.617848,-0.711842,-2.162403,-0.995891,0.255706
853,2570986129,0.089315,-0.372316,0.591597,-0.709518,-1.688166,-1.931867,0.069304
854,2571019463,0.134622,-0.413126,0.564123,-0.702118,-1.135620,-2.057045,0.073141
855,2571052797,0.178974,-0.453411,0.535077,-0.689985,-0.704087,-1.926438,-0.025263
856,2571086131,0.222292,-0.493075,0.503732,-0.673586,-0.669591,-2.033443,-0.894145
857,2571119465,0.262737,-0.532962,0.471655,-0.651508,-0.665188,-1.664585,-0.692238
858,2571152799,0.299764,-0.572491,0.436877,-0.625727,0.486225,-2.122326,-1.144861
859,2571186133,0.328774,-0.611250,0.402716,-0.596743,0.561541,-1.840450,-0.746532
860,2571219467,0.351633,-0.646385,0.366906,-0.569141,1.690648,-1.526806,-0.319591
861,2571252801,0.369970,-0.675741,0.328317,-0.546539,2.755846,-1.173771,-0.326837
862,2571286135,0.380987,-0.700487,0.291110,-0.528605,3.338295,-0.805150,-0.579632
863,2571319469,0.387091,-0.719503,0.256350,-0.516489,3.591804,0.160140,-0.242622
864,2571352803,0.386927,-0.734740,0.226540,-0.509044,3.423121,0.697112,-0.577973
865,2571386137,0.381077,-0.746825,0.201497,-0.506392,3.510564,1.269472,-0.243013
866,2571419471,0.371750,-0.755309,0.180095,-0.508799,2.946148,1.366237,-0.181377
867,2571452805,0.358273,-0.760643,0.163284,-0.516140,2.947635,1.302085,-0.191819
868,2571486139,0.340856,-0.763832,0.150964,-0.526866,2.064862,1.406011,0.428730
869,2571519473,0.325053,-0.764467,0.140089,-0.538801,1.251287,1.535707,0.865809
870,2571552807,0.314150,-0.762465,0.130534,-0.550380,0.847137,2.527598,1.683730
871,2571586141,0.308720,-0.757980,0.121148,-0.561678,0.823038,0.664308,0.518159
872,2571619475,0.300555,-0.753518,0.119068,-0.572452,0.239278,0.689285,1.276639
873,2571652809,0.293235,-0.748142,0.119880,-0.583032,-0.077524,0.824396,1.776558
874,2571686143,0.291980,-0.741622,0.122161,-0.591457,-0.365148,1.035870,2.233339
875,2571719477,0.295954,-0.734754,0.126945,-0.597020,0.008417,0.196023,1.700602
876,2571752811,0.304085,-0.727037,0.133031,-0.601043,-0.332472,-0.057462,1.753819
877,2571786145,0.310904,-0.720100,0.143809,-0.603419,0.016733,0.140196,2.355811
878,2571819479,0.320143,-0.712356,0.156896,-0.604517,0.387336,0.294844,2.336383
879,2571852813,0.331228,-0.704490,0.173480,-0.603231,0.119398,-0.086634,2.171488
880,2571886147,0.344331,-0.695819,0.193657,-0.599808,0.513696,-0.134114,2.420265
881,2571919481,0.361116,-0.685494,0.214524,-0.594704,0.045713,-0.576832,1.778790
882,2571952815,0.378612,-0.674812,0.235753,-0.587965,0.021865,-0.678228,0.531587
883,2571986149,0.393022,-0.666536,0.258239,-0.578426,-1.493377,-0.180555,0.480755
884,2572019483,0.410350,-0.658376,0.273966,-0.568417,-2.082480,0.503617,0.189148
885,2572052817,0.427808,-0.651318,0.283434,-0.558955,-1.797348,0.986231,0.005467
886,2572086151,0.444239,-0.646401,0.288163,-0.549345,-3.066159,0.718717,-1.466437
887,2572119485,0.457978,-0.645481,0.291073,-0.537483,-3.107100,1.178179,-1.489376
888,2572152819,0.469344,-0.648164,0.292946,-0.523243,-3.210504,1.619049,-1.368964
889,2572186153,0.480003,-0.652104,0.293320,-0.508253,-2.995603,1.721662,-1.873157
890,2572219487,0.487317,-0.657834,0.295297,-0.492521,-2.913416,2.048617,-1.362136
891,2572252821,0.493056,-0.664275,0.298113,-0.476197,-2.910026,2.381051,-1.221526
892,2572286155,0.497700,-0.671559,0.301768,-0.458519,-2.585529,2.704701,-0.993367
893,2572319489,0.501441,-0.678089,0.306543,-0.441343,-2.212526,2.957886,-0.296152
894,2572352823,0.503136,-0.684745,0.313515,-0.423895,-1.602838,3.019592,0.631856
895,2572386157,0.506137,-0.689394,0.321177,-0.406703,-0.982929,3.276500,1.107230
896,2572419491,0.512664,-0.689996,0.327908,-0.391866,-1.037890,3.046725,0.829621
897,2572452825,0.521767,-0.687708,0.332524,-0.379796,-0.575095,2.777111,0.062378
898,2572486159,0.531231,-0.685332,0.334037,-0.369504,-0.182685,2.199807,-0.531419
899,2572519493,0.538532,-0.684910,0.333092,-0.360462,1.075558,1.978909,-0.383315
900,2572552827,0.543354,-0.687185,0.329168,-0.352410,1.628542,1.048740,-1.821108
901,2572586161,0.544164,-0.692286,0.323625,-0.346256,1.949869,1.571037,-0.298869
902,2572619495,0.552983,-0.692521,0.308138,-0.345942,2.113413,0.092948,-3.282676
903,2572652829,0.547675,-0.704693,0.292605,-0.343281,3.008296,-1.022166,-2.226056
904,2572686163,0.539666,-0.715768,0.275660,-0.347058,4.450301,-0.327465,1.660851
905,2572719497,0.545609,-0.715041,0.249042,-0.359174,3.807042,-1.620896,0.324599
906,2572752831,0.556547,-0.708691,0.222609,-0.372099,2.191645,-2.633340,0.365561
907,2572786165,0.570163,-0.698302,0.201403,-0.383049,1.904567,-2.576390,0.040093
908,2572819499,0.575658,-0.691408,0.193233,-0.391452,1.071617,-3.050870,-0.198493
909,2572852833,0.574361,-0.687237,0.193866,-0.400289,0.905656,-2.250171,-0.086338
910,2572886167,0.570863,-0.685683,0.193396,-0.408109,0.502400,-3.339938,-2.190496
911,2572919501,0.561593,-0.689551,0.196509,-0.412938,0.283208,-2.533319,-0.386364
912,2572952835,0.560422,-0.687569,0.197618,-0.417281,0.335374,-2.270820,1.237719
913,2572986169,0.568068,-0.678376,0.196833,-0.422330,1.086252,-2.890475,-0.139144
914,2573019503,0.572857,-0.670404,0.201220,-0.426502,0.721313,-3.083795,-0.491340
915,2573052837,0.574844,-0.664716,0.209963,-0.428511,1.171663,-2.634628,0.793966
916,2573086171,0.583013,-0.652984,0.216346,-0.432322,2.497064,-2.954783,-0.446048
917,2573119505,0.580571,-0.648237,0.228812,-0.436316,1.250664,-2.760167,-1.223372
918,2573152839,0.569780,-0.648153,0.246394,-0.441065,2.018533,-1.768998,1.714111
919,2573186173,0.570357,-0.639015,0.255816,-0.448232,2.132982,-1.436836,0.655424
920,2573219507,0.570735,-0.631720,0.264016,-0.453308,2.223592,-0.954618,0.742550
921,2573252841,0.576213,-0.619974,0.265821,-0.461464,1.965733,-0.964247,0.647184
922,2573286175,0.578153,-0.611870,0.266495,-0.469398,1.366897,-0.919638,-1.979025
923,2573319509,0.570983,-0.611225,0.270782,-0.476508,1.429149,0.540204,0.901371
924,2573352843,0.571629,-0.602135,0.263882,-0.490959,-0.293123,0.494213,0.892070
925,2573386177,0.572042,-0.593261,0.250787,-0.507854,-0.839750,1.099091,-0.324810
926,2573419511,0.566131,-0.588698,0.237243,-0.525972,-0.414092,1.872657,-0.099336
927,2573452845,0.556126,-0.588755,0.223347,-0.542410,-4.269724,2.249333,0.568584
928,2573486179,0.545614,-0.591343,0.208949,-0.555841,-2.725994,3.714320,1.165942
929,2573519513,0.539040,-0.590260,0.191326,-0.569582,-2.520038,3.639342,1.186096
930,2573552847,0.529385,-0.589315,0.179409,-0.583329,-2.778836,2.934668,0.340052
931,2573586181,0.511890,-0.591663,0.180311,-0.596148,-2.051935,3.521719,0.352849
932,2573619515,0.492195,-0.592306,0.189166,-0.609208,-1.963613,3.642044,0.285603
933,2573652849,0.473906,-0.589471,0.201619,-0.622324,-1.596338,3.565169,-0.009500
934,2573686183,0.456503,-0.584664,0.217763,-0.634314,-0.926503,2.989782,-0.529819
935,2573719517,0.437981,-0.579315,0.238825,-0.644616,-0.773242,2.703860,-0.297182
936,2573752851,0.420613,-0.571575,0.261351,-0.654281,-0.246511,2.505588,0.078514
937,2573786185,0.404493,-0.561243,0.284118,-0.663829,0.486511,1.710877,0.014455
938,2573819519,0.385881,-0.550358,0.310558,-0.672129,1.087218,1.284986,0.180111
939,2573852853,0.366761,-0.536904,0.338339,-0.680255,1.669749,1.030028,0.942450
940,2573886187,0.349094,-0.519993,0.365654,-0.688504,1.402489,0.733053,1.366660
941,2573919521,0.331745,-0.500504,0.393483,-0.696141,2.000862,0.455428,1.670468
942,2573952855,0.315523,-0.476968,0.419895,-0.704724,2.314229,-0.312059,1.178498
943,2573986189,0.297743,-0.449557,0.447236,-0.713602,2.226892,-0.739820,1.055398
944,2574019523,0.276652,-0.418749,0.476893,-0.721586,2.305407,-1.099239,0.900125
945,2574052857,0.252677,-0.384799,0.508730,-0.727515,2.241520,-1.512497,0.738692
946,2574086191,0.226544,-0.347822,0.541335,-0.731200,1.673773,-1.527760,1.007064
947,2574119525,0.199241,-0.308818,0.572920,-0.732596,1.432346,-1.886714,0.486332
948,2574152859,0.171420,-0.268675,0.602159,-0.732006,0.963707,-2.175090,0.098025
949,2574186193,0.143202,-0.229015,0.628202,-0.729663,0.095935,-2.338713,-0.447063
950,2574219527,0.114860,-0.191064,0.650906,-0.725688,-0.256030,-2.551300,-0.874933
951,2574252861,0.086354,-0.155371,0.670586,-0.720220,-0.741289,-2.477271,-1.345382
952,2574286195,0.057687,-0.122392,0.687362,-0.713601,-1.454039,-2.335280,-1.725306
953,2574319529,0.028970,-0.093673,0.701198,-0.706192,-1.941001,-1.857007,-1.944993
954,2574352863,0.000445,-0.070199,0.711882,-0.698783,-2.314904,-1.640470,-1.854703
955,2574386197,-0.028001,-0.051658,0.721748,-0.689657,-3.005469,-1.558021,-1.400779
956,2574419531,-0.055782,-0.036898,0.728280,-0.682008,-3.590951,-1.042370,-1.433169
957,2574452865,-0.082977,-0.026642,0.733055,-0.674563,-3.830735,-0.945459,-1.315828
958,2574486199,-0.108323,-0.023250,0.737595,-0.666093,-3.957150,-0.276643,-0.465730
959,2574519533,-0.135461,-0.023350,0.743684,-0.654247,-4.009894,0.080053,-1.232108
960,2574552867,-0.168529,-0.025019,0.751384,-0.637491,-3.933356,0.888302,-3.426625
961,2574586201,-0.204051,-0.026085,0.760249,-0.616202,-3.194853,1.554526,-0.086864
962,2574619535,-0.232423,-0.032356,0.762631,-0.602766,-2.010941,2.758720,1.577431
963,2574652869,-0.249911,-0.045409,0.758771,-0.599792,-1.599343,2.588220,2.132604
964,2574686203,-0.257773,-0.062178,0.751681,-0.603873,-1.498939,2.579354,2.183756
965,2574719537,-0.258382,-0.078187,0.745757,-0.609075,-0.915046,2.177914,2.758923
966,2574752871,-0.252881,-0.094900,0.739111,-0.617058,-0.271303,1.412811,2.856427
967,2574786205,-0.240607,-0.113400,0.731154,-0.628222,-0.417261,0.846788,1.777363
968,2574819539,-0.221742,-0.133415,0.720823,-0.642998,-0.428163,0.180318,1.505680
969,2574852873,-0.195919,-0.155791,0.709010,-0.659281,-0.824093,0.520672,0.821307
970,2574886207,-0.164497,-0.180050,0.695306,-0.676072,-1.660530,0.044919,0.124732
971,2574919541,-0.129035,-0.205799,0.680323,-0.691490,-2.105803,-0.412290,0.095960
972,2574952875,-0.090210,-0.233709,0.664017,-0.704502,-2.268957,-1.198486,0.016719
973,2574986209,-0.049922,-0.263686,0.645716,-0.714862,-2.042486,-1.905117,0.328882
974,2575019543,-0.009640,-0.294904,0.625638,-0.722161,-1.785176,-2.240351,0.250369
975,2575052877,0.028622,-0.326259,0.605189,-0.725591,-1.103968,-2.898185,0.507614
976,2575086211,0.064634,-0.357450,0.583124,-0.726650,-0.332455,-2.961084,0.847224
977,2575119545,0.098947,-0.388449,0.558584,-0.726155,0.036313,-3.014993,0.785666
978,2575152879,0.131160,-0.418908,0.532063,-0.724032,0.422862,-2.784659,0.959872
979,2575186213,0.162621,-0.449440,0.502087,-0.720740,1.095083,-2.762281,1.364791
980,2575219547,0.195445,-0.479232,0.466166,-0.717515,1.937565,-2.115413,0.859989
981,2575252881,0.227332,-0.506531,0.428165,-0.713037,1.885852,-0.743590,0.012115
982,2575286215,0.256292,-0.529126,0.394201,-0.706361,2.079445,0.834023,-1.705667
983,2575319549,0.281709,-0.546108,0.366350,-0.698709,2.016938,1.987158,-3.290243
984,2575352883,0.303313,-0.559777,0.347351,-0.688476,2.078132,2.766826,-3.692873
985,2575386217,0.324886,-0.571894,0.331966,-0.676155,1.991125,3.679698,-3.049464
986,2575419551,0.349452,-0.582323,0.313192,-0.663849,1.703181,3.248746,-1.603281
987,2575452885,0.376293,-0.590221,0.293547,-0.651056,1.650713,1.951618,-0.790558
988,2575486219,0.401299,-0.594243,0.278832,-0.638817,1.403524,1.013301,0.017979
989,2575519553,0.422538,-0.595332,0.267825,-0.628738,1.435369,0.360435,1.149969
990,2575552887,0.440301,-0.594290,0.258999,-0.621188,0.822681,-0.354137,1.621018
991,2575586221,0.454049,-0.591275,0.253834,-0.616282,0.395540,-0.454260,1.440910
992,2575619555,0.464307,-0.587398,0.250519,-0.613697,-0.010218,-0.418693,1.192292
993,2575652889,0.470920,-0.584372,0.248520,-0.612357,-0.481036,-0.256235,1.550508
994,2575686223,0.477444,-0.581131,0.246053,-0.611385,-0.619687,0.030440,1.039358
995,2575719557,0.484153,-0.578320,0.243744,-0.609698,-1.191225,0.288685,0.546177
996,2575752891,0.489803,-0.576876,0.242069,-0.607215,-1.259355,0.478453,0.325966
997,2575786225,0.495098,-0.576348,0.239972,-0.604247,-1.026029,0.725502,0.249136
998,2575819559,0.499094,-0.577181,0.238955,-0.600557,-1.216419,0.698075,0.096992
999,2575852893,0.501379,-0.579834,0.240089,-0.595625,-1.291108,0.962835,0.378141
1000,2575886227,0.505381,-0.581919,0.239688,-0.590348,-1.387098,1.220473,0.379323
1001,2575919561,0.510290,-0.583740,0.238616,-0.584734,-1.344199,1.137042,0.113501
1002,2575952895,0.513687,-0.587117,0.240113,-0.577725,-1.339155,1.195472,0.110987
1003,2575986229,0.517468,-0.590538,0.242359,-0.569872,-1.354163,1.299974,0.169475
1004,2576019563,0.522445,-0.593162,0.244316,-0.561712,-1.189090,1.257286,-0.215193
1005,2576052897,0.527096,-0.596336,0.246864,-0.552822,-1.190090,1.297507,-0.362241
1006,2576086231,0.530543,-0.600380,0.250101,-0.543616,-0.808036,1.592289,-0.382944
1007,2576119565,0.533594,-0.604478,0.252776,-0.534779,-0.652094,1.469217,-0.914006
1008,2576152899,0.534413,-0.609809,0.256212,-0.526205,-0.062116,1.657897,-0.689007
1009,2576186233,0.534227,-0.615044,0.258584,-0.519093,0.207173,1.651853,-0.731001
1010,2576219567,0.531938,-0.621519,0.259987,-0.512994,0.774896,1.029622,-1.767068
1011,2576252901,0.522663,-0.632647,0.263474,-0.507113,1.109294,1.018161,-0.319909
1012,2576286235,0.515225,-0.641190,0.261867,-0.504822,1.581048,0.656754,-0.494231
1013,2576319569,0.505878,-0.650433,0.257360,-0.504767,1.797670,-0.270599,-1.335391
1014,2576352903,0.492400,-0.660904,0.250980,-0.507698,1.868804,-0.619293,-1.195631
1015,2576386237,0.477020,-0.670997,0.239257,-0.514753,1.846835,-1.173962,-1.317266
1016,2576419571,0.454896,-0.684404,0.225818,-0.523133,1.330701,-1.814185,-1.474112
1017,2576452905,0.424953,-0.700839,0.212830,-0.531925,1.199427,-1.571812,0.146377
1018,2576486239,0.397336,-0.715168,0.195832,-0.540656,0.868535,-1.040855,1.413080
1019,2576519573,0.375506,-0.726201,0.176249,-0.548237,0.880684,-0.878344,2.179410
1020,2576552907,0.358397,-0.733646,0.159791,-0.554781,0.954108,-1.238249,1.776527
1021,2576586241,0.345988,-0.737795,0.150589,-0.559709,0.645637,-0.654038,2.206857
1022,2576619575,0.335849,-0.739218,0.148020,-0.564671,0.200878,-0.923992,1.634377
1023,2576652909,0.322090,-0.741199,0.151001,-0.569282,0.270178,-1.594048,0.553621
1024,2576686243,0.305638,-0.744058,0.156788,-0.573045,-0.068443,-1.416093,0.865988
1025,2576719577,0.298171,-0.744777,0.160466,-0.575024,0.004856,-0.956519,1.505391
1026,2576752911,0.303373,-0.740945,0.161170,-0.577053,0.457182,-0.763945,1.733890
1027,2576786245,0.317160,-0.733343,0.160436,-0.579550,1.327943,-1.938916,1.129435
1028,2576819579,0.330074,-0.725491,0.166872,-0.580403,1.634908,-1.385002,1.968249
1029,2576852913,0.346945,-0.713808,0.177517,-0.581890,1.716467,-1.905235,1.628038
1030,2576886247,0.362894,-0.700309,0.192772,-0.583708,1.843139,-2.271910,1.263439
1031,2576919581,0.374885,-0.688015,0.212663,-0.583842,2.090763,-1.558457,1.346103
1032,2576952915,0.390121,-0.673784,0.229226,-0.584189,1.083033,-1.361151,0.608315
1033,2576986249,0.405273,-0.660021,0.244191,-0.583522,1.358144,-0.624801,0.616918
1034,2577019583,0.421277,-0.645063,0.254342,-0.584577,1.225420,-0.091388,-0.262567
1035,2577052917,0.433525,-0.631019,0.262861,-0.587176,-0.016328,0.856269,-0.658034
1036,2577086251,0.440862,-0.618421,0.270684,-0.591546,0.502780,1.311269,-0.772816
1037,2577119585,0.445123,-0.607021,0.276798,-0.597306,-1.246796,1.526814,-0.650276
1038,2577152919,0.450043,-0.597023,0.280263,-0.602062,-1.404659,2.200041,-0.373876
1039,2577186253,0.456229,-0.588372,0.280658,-0.605727,-1.373046,2.016264,-0.442208
1040,2577219587,0.461215,-0.581253,0.281098,-0.608613,-1.878533,2.092625,-0.161070
1041,2577252921,0.465155,-0.575219,0.282195,-0.610835,-1.897632,1.987318,-0.506247
1042,2577286255,0.466835,-0.571134,0.285496,-0.611853,-1.792900,1.951828,-0.592305
1043,2577319589,0.467600,-0.567287,0.289704,-0.612869,-1.593881,1.942151,-0.301706
1044,2577352923,0.468177,-0.562805,0.294487,-0.614279,-1.273348,1.804543,-0.434606
1045,2577386257,0.467243,-0.559103,0.301672,-0.614884,-1.021614,1.949083,-0.300856
1046,2577419591,0.466890,-0.554328,0.309192,-0.615740,-0.691386,2.021107,-0.473130
1047,2577452925,0.465328,-0.549414,0.318227,-0.616722,-0.318390,2.064637,-0.803745
1048,2577486259,0.460352,-0.544928,0.330525,-0.617967,-0.012175,2.143476,-0.259839
1049,2577519593,0.453864,-0.538886,0.344483,-0.620436,0.529050,2.081165,0.031541
1050,2577552927,0.445282,-0.531148,0.361216,-0.623802,0.869029,1.939204,0.520081
1051,2577586261,0.434943,-0.520740,0.380782,-0.628220,1.482770,1.727229,0.839758
1052,2577619595,0.422861,-0.507198,0.402981,-0.633676,1.893206,1.370221,0.697036
1053,2577652929,0.407892,-0.490951,0.428179,-0.639730,2.073921,1.175192,0.815935
1054,2577686263,0.390786,-0.471136,0.455680,-0.646277,2.305690,0.553869,0.662627
1055,2577719597,0.370318,-0.448110,0.486959,-0.651869,2.540744,0.080935,0.852398
1056,2577752931,0.347989,-0.420792,0.519468,-0.657260,2.570472,-0.546344,1.006987
1057,2577786265,0.323647,-0.390452,0.552449,-0.661514,2.094743,-0.934235,1.000670
1058,2577819599,0.298512,-0.357312,0.583622,-0.665286,2.107562,-1.509029,0.963345
1059,2577852933,0.272804,-0.321954,0.613478,-0.667510,1.603796,-1.977457,0.416957
1060,2577886267,0.246547,-0.285076,0.642538,-0.667152,1.265548,-2.154952,0.222376
1061,2577919601,0.220840,-0.246915,0.667639,-0.666724,0.591318,-2.187131,-0.112558
1062,2577952935,0.195679,-0.209178,0.690115,-0.664602,0.065843,-2.186264,-0.821004
1063,2577986269,0.171376,-0.172600,0.708864,-0.662082,-0.098869,-2.384308,-0.555237
1064,2578019603,0.147745,-0.138134,0.722469,-0.661157,-0.802057,-2.422116,-1.210693
1065,2578052937,0.123369,-0.106858,0.735976,-0.657039,-1.325032,-2.032140,-1.690787
1066,2578086271,0.098856,-0.079155,0.746561,-0.653153,-1.643431,-1.651016,-1.848637
1067,2578119605,0.073491,-0.056425,0.754738,-0.649450,-1.992665,-1.130742,-2.042253
1068,2578152939,0.046966,-0.038470,0.762123,-0.644580,-2.541133,-0.868609,-1.285376
1069,2578186273,0.020786,-0.024887,0.766005,-0.642016,-2.789851,-0.390105,-1.911753
1070,2578219607,-0.005518,-0.016494,0.771185,-0.636375,-2.596687,0.005008,-2.009145
1071,2578252941,-0.031699,-0.013776,0.776311,-0.629402,-2.799730,-0.184563,-1.204673
1072,2578286275,-0.055603,-0.019781,0.774689,-0.629583,-2.763489,0.125323,-0.397070
1073,2578319609,-0.079375,-0.031977,0.775344,-0.625714,-2.712862,0.754264,-0.936116
1074,2578352943,-0.105002,-0.046519,0.777862,-0.617853,-3.007081,0.708048,-0.768929
1075,2578386277,-0.127205,-0.063224,0.776260,-0.614201,-3.027098,1.322988,1.422340
1076,2578419611,-0.139482,-0.082924,0.770596,-0.616320,-2.582695,1.567209,2.902267
1077,2578452945,-0.139760,-0.106067,0.759340,-0.626594,-2.321653,1.412912,2.523542
1078,2578486279,-0.130519,-0.131310,0.745949,-0.639752,-1.727833,1.326046,1.536712
1079,2578519613,-0.114322,-0.157763,0.732574,-0.652209,-1.321242,0.928890,1.819854
1080,2578552947,-0.090835,-0.185681,0.717363,-0.665328,-1.219685,0.379367,1.384603
1081,2578586281,-0.060602,-0.214383,0.699663,-0.678852,-1.551402,0.086524,0.477605
1082,2578619615,-0.026494,-0.244206,0.680260,-0.690586,-1.585306,-0.440165,0.137610
1083,2578652949,0.010029,-0.276338,0.661532,-0.697075,-1.452525,-1.134692,0.715883
1084,2578686283,0.048915,-0.310856,0.638857,-0.702025,-0.908625,-1.643364,0.468657
1085,2578719617,0.088736,-0.346494,0.613864,-0.703733,-0.417571,-1.724430,0.644454
1086,2578752951,0.128521,-0.381162,0.591119,-0.699126,0.164909,-2.159213,0.722276
1087,2578786285,0.170534,-0.411814,0.566175,-0.693379,0.752264,-2.420861,0.492092
1088,2578819619,0.212922,-0.438130,0.539948,-0.686413,0.976775,-2.185175,0.048231
1089,2578852953,0.253056,-0.462533,0.516286,-0.674889,1.103892,-1.988122,-0.070690
1090,2578886287,0.293260,-0.484383,0.490266,-0.662580,1.617048,-1.776855,-0.135954
1091,2578919621,0.332537,-0.504118,0.462127,-0.649402,1.691178,-1.478999,-0.578361
1092,2578952955,0.367734,-0.522905,0.435271,-0.633941,1.921929,-1.110449,-0.157930
1093,2578986289,0.400648,-0.539304,0.407815,-0.618320,1.887027,-0.651638,0.092205
1094,2579019623,0.431032,-0.553364,0.380554,-0.602643,1.929858,-0.361155,-0.016454
1095,2579052957,0.457473,-0.566200,0.354279,-0.587046,1.597920,0.334591,-0.027831
1096,2579086291,0.480443,-0.577596,0.329219,-0.571990,1.344455,0.793750,-0.009603
1097,2579119625,0.500909,-0.586802,0.305323,-0.558150,1.109216,0.814298,-0.087706
1098,2579152959,0.519155,-0.594715,0.282423,-0.545004,0.814531,0.934194,-0.464361
1099,2579186293,0.533980,-0.602571,0.261448,-0.532371,0.490336,1.099051,-0.448978
1100,2579219627,0.546020,-0.610241,0.242091,-0.520442,0.194570,1.259129,-0.373832
1101,2579252961,0.557882,-0.615783,0.221971,-0.510204,0.056781,1.273505,-0.357001
1102,2579286295,0.569121,-0.619940,0.200951,-0.501393,-0.123225,1.115107,-0.608951
1103,2579319629,0.577943,-0.623952,0.180327,-0.494115,-0.136990,0.967167,-0.924063
1104,2579352963,0.581412,-0.630339,0.162149,-0.488202,-0.224525,0.660400,-0.742363
1105,2579386297,0.580864,-0.637993,0.145415,-0.484166,-0.325043,0.447302,-0.212884
1106,2579419631,0.580456,-0.643573,0.127442,-0.482332,-0.305515,0.197910,0.048414
1107,2579452965,0.577021,-0.650366,0.111825,-0.481214,-0.074864,-0.080112,0.435165
1108,2579486299,0.572449,-0.657090,0.098217,-0.480508,-0.148249,0.177742,0.660625
1109,2579519633,0.570200,-0.660941,0.082989,-0.480773,-0.389287,0.060545,0.285079
1110,2579552967,0.567979,-0.664201,0.066423,-0.481482,-0.149445,-0.213652,-0.193903
1111,2579586301,0.562820,-0.669457,0.051006,-0.482140,-0.061630,-0.119433,-0.010001
1112,2579619635,0.558924,-0.673354,0.034118,-0.482737,-0.291230,0.200377,0.204298
1113,2579652969,0.558271,-0.674292,0.013330,-0.483205,-0.033467,-0.161687,-0.581312
1114,2579686303,0.552820,-0.678312,-0.005722,-0.483995,0.194045,-0.095997,-0.551940
1115,2579719637,0.545910,-0.682146,-0.025536,-0.485806,-0.013007,0.348772,-0.152663
1116,2579752971,0.539365,-0.684304,-0.047437,-0.488430,0.156003,0.218298,0.035172
1117,2579786305,0.527702,-0.689484,-0.065172,-0.491829,0.176510,0.668245,0.927441
1118,2579819639,0.517009,-0.693617,-0.079900,-0.495190,-0.336805,1.557926,1.782745
1119,2579852973,0.512907,-0.693349,-0.094028,-0.497346,-0.231040,1.478672,1.311234
1120,2579886307,0.506841,-0.695048,-0.101077,-0.499804,-0.706252,1.661043,1.380776
1121,2579919641,0.503759,-0.695935,-0.103138,-0.501263,-1.382707,2.211336,1.475912
1122,2579952975,0.506848,-0.694117,-0.103501,-0.500594,-1.430534,1.788695,0.817472
1123,2579986309,0.510182,-0.693124,-0.099295,-0.499434,-1.848131,1.408285,0.378193
1124,2580019643,0.512875,-0.693289,-0.090852,-0.498052,-2.032790,1.689401,0.321497
1125,2580052977,0.516716,-0.693425,-0.080583,-0.495654,-2.235533,1.437707,0.286576
1126,2580086311,0.521481,-0.693821,-0.067463,-0.492055,-2.137788,1.605771,0.636312
1127,2580119645,0.527425,-0.694384,-0.051453,-0.486833,-1.835659,1.597904,0.912977
1128,2580152979,0.534095,-0.695317,-0.033304,-0.479758,-1.543758,1.529325,0.989997
1129,2580186313,0.541935,-0.695808,-0.014148,-0.471125,-1.355550,1.220546,0.765924
1130,2580219647,0.549424,-0.696447,0.006054,-0.461582,-0.678322,1.033723,0.301857
1131,2580252981,0.555891,-0.697539,0.026167,-0.451376,-0.242316,1.002923,0.353264
1132,2580286315,0.563527,-0.697046,0.043634,-0.441203,0.115052,0.742981,0.192072
1133,2580319649,0.570698,-0.695983,0.058815,-0.431801,0.797892,0.547014,-0.556149
1134,2580352983,0.576233,-0.694983,0.071869,-0.424015,0.853196,0.249549,-0.819610
1135,2580386317,0.578066,-0.695733,0.082311,-0.418355,1.445944,-0.012505,-1.573367
1136,2580419651,0.573177,-0.700858,0.091216,-0.414664,1.683673,-0.053214,-1.746056
1137,2580452985,0.564934,-0.707072,0.096380,-0.414257,1.946602,-0.291390,-1.470700
1138,2580486319,0.555043,-0.713162,0.096454,-0.417161,2.511082,-0.431053,-1.937506
1139,2580519653,0.541813,-0.720593,0.093312,-0.422466,2.122147,-0.918157,-1.408133
1140,2580552987,0.527190,-0.727822,0.086655,-0.429927,2.478557,-0.683839,-0.831643
1141,2580586321,0.512722,-0.734006,0.076378,-0.438769,2.416211,-0.933317,-0.431883
1142,2580619655,0.497468,-0.740225,0.065431,-0.447563,2.072859,-0.540396,0.556952
1143,2580652989,0.489389,-0.741730,0.050912,-0.455789,1.469412,-0.273542,1.079519
1144,2580686323,0.490631,-0.738100,0.033332,-0.461930,1.460266,-0.029373,0.743118
1145,2580719657,0.500972,-0.728799,0.012695,-0.466604,1.146953,-0.385925,0.529603
1146,2580752991,0.510962,-0.718212,-0.006699,-0.472276,0.671874,-0.999548,0.224156
1147,2580786325,0.513960,-0.710419,-0.021192,-0.480314,0.384909,-1.292638,-0.268810
1148,2580819659,0.509302,-0.706787,-0.029873,-0.490073,0.019441,-0.937946,0.289956
1149,2580852993,0.504237,-0.703787,-0.038008,-0.498984,-0.446120,-0.962463,0.858559
1150,2580886327,0.499369,-0.701612,-0.043526,-0.506435,-0.695322,-1.321522,0.900593
1151,2580919661,0.491488,-0.701334,-0.042895,-0.514520,-0.857503,-1.146348,0.881198
1152,2580952995,0.483961,-0.702040,-0.038932,-0.520966,-0.891405,-0.852314,1.076207
1153,2580986329,0.478124,-0.703126,-0.034413,-0.525193,-0.601773,-1.206768,0.579442
1154,2581019663,0.472747,-0.704774,-0.027667,-0.528241,-0.674702,-0.616737,0.923667
1155,2581052997,0.469842,-0.705791,-0.020913,-0.529783,-0.569542,-0.843896,1.132046
1156,2581086331,0.471655,-0.704813,-0.015215,-0.529669,-0.518065,-0.855412,1.259408
1157,2581119665,0.474189,-0.704327,-0.007524,-0.528216,0.528446,-0.801811,0.965332
1158,2581152999,0.476500,-0.704104,0.004195,-0.526469,1.101022,-0.745809,1.523756
1159,2581186333,0.482562,-0.701244,0.018507,-0.524451,0.994535,-0.245260,2.099091
1160,2581219667,0.492644,-0.696610,0.032870,-0.520534,1.467061,-1.237817,0.427180
1161,2581253001,0.493841,-0.697295,0.055690,-0.516527,1.474974,-0.750251,0.006321
1162,2581286335,0.491066,-0.699376,0.081944,-0.512848,1.077405,-0.451449,0.675897
1163,2581319669,0.486981,-0.703224,0.109277,-0.506345,1.173455,-0.188982,0.441992
1164,2581353003,0.485911,-0.705311,0.133169,-0.498692,0.853805,0.068461,0.218259
1165,2581386337,0.486608,-0.704988,0.152672,-0.492845,0.412369,0.004964,0.086222
1166,2581419671,0.490056,-0.701662,0.165777,-0.489933,0.451074,0.259460,-1.139855
1167,2581453005,0.492795,-0.697618,0.173388,-0.490326,0.211601,0.517689,-1.361192
1168,2581486339,0.491986,-0.695348,0.177752,-0.492793,0.140305,0.303555,-0.845145
1169,2581519673,0.488004,-0.694601,0.181246,-0.496520,0.352477,0.299355,-0.427485
1170,2581553007,0.482522,-0.693222,0.185100,-0.502349,0.046408,0.461052,-0.008296
1171,2581586341,0.475782,-0.691528,0.189328,-0.509486,0.239492,0.853699,-0.017999
1172,2581619675,0.468513,-0.689223,0.193588,-0.517679,-0.315445,0.973598,0.235993
1173,2581653009,0.462480,-0.686183,0.197475,-0.525613,-1.143643,0.975216,0.028225
1174,2581686343,0.457494,-0.684006,0.201421,-0.531286,-0.811309,1.555975,0.129428
1175,2581719677,0.456729,-0.680310,0.203133,-0.536018,-1.193581,1.651579,0.348195
1176,2581753011,0.459944,-0.675087,0.203074,-0.539880,-1.610166,1.555241,0.004082
1177,2581786345,0.464203,-0.670158,0.203556,-0.542190,-1.398585,1.613887,-0.385733
1178,2581819679,0.468456,-0.665518,0.205682,-0.543443,-1.596546,1.593883,-0.375608
1179,2581853013,0.472656,-0.660389,0.209358,-0.544659,-1.719100,1.466046,-0.297982
1180,2581886347,0.476456,-0.654918,0.214061,-0.546123,-1.680619,1.258468,-0.209352
1181,2581919681,0.478832,-0.650292,0.219629,-0.547360,-1.619446,1.036731,-0.077840
1182,2581953015,0.479270,-0.646885,0.226161,-0.548354,-1.632387,1.075910,0.162794
1183,2581986349,0.478532,-0.643849,0.233390,-0.549541,-1.680735,1.067636,0.171156
1184,2582019683,0.475809,-0.641881,0.242404,-0.550305,-1.637872,1.195663,-0.002347
1185,2582053017,0.471701,-0.640695,0.253207,-0.550358,-1.491361,1.757712,0.163583
1186,2582086351,0.468403,-0.638926,0.264460,-0.549940,-1.511301,1.849854,0.042530
1187,2582119685,0.464166,-0.638398,0.278182,-0.547369,-0.768865,1.801169,0.120470
1188,2582153019,0.460974,-0.637694,0.292557,-0.543379,-0.031597,1.686841,0.704428
1189,2582186353,0.460212,-0.635718,0.305024,-0.539471,0.293895,0.949957,0.115577
1190,2582219687,0.457991,-0.634684,0.316936,-0.535698,0.729148,0.675071,-0.248436
1191,2582253021,0.453740,-0.634933,0.327905,-0.532409,0.895591,0.507510,-0.550047
1192,2582286355,0.448882,-0.635778,0.336462,-0.530175,1.188585,0.415769,-0.763494
1193,2582319689,0.443475,-0.636708,0.342041,-0.530039,1.135446,0.140323,-1.256866
1194,2582353023,0.434735,-0.639719,0.346249,-0.530921,1.120651,-0.222233,-1.283707
1195,2582386357,0.425981,-0.643386,0.345445,-0.534100,1.204453,-0.516626,-1.375532
1196,2582419691,0.415197,-0.649402,0.340408,-0.538527,1.032362,-1.384542,-1.889959
1197,2582453025,0.398970,-0.659238,0.333437,-0.543184,1.619618,-1.892724,-1.305939
1198,2582486359,0.383085,-0.668962,0.320116,-0.550692,1.831151,-2.165374,-0.898061
1199,2582519693,0.368760,-0.678057,0.300955,-0.560073,1.598780,-2.762655,-0.899979
1200,2582553027,0.352717,-0.688029,0.281355,-0.568372,1.225218,-2.909053,-0.051670
1201,2582586361,0.338119,-0.695846,0.261444,-0.577166,1.488375,-2.855033,0.393148
1202,2582619695,0.325477,-0.700530,0.242455,-0.586975,0.958941,-2.453339,1.251439
1203,2582653029,0.311326,-0.703937,0.228582,-0.596070,0.542971,-2.319343,1.231047
1204,2582686363,0.290251,-0.708534,0.225921,-0.602241,-0.658291,-1.460695,1.650606
1205,2582719697,0.270213,-0.712004,0.225458,-0.607622,-1.497659,-0.351544,2.126674
1206,2582753031,0.255235,-0.712808,0.225991,-0.612935,-1.261131,-0.974820,1.547824
1207,2582786365,0.231395,-0.716141,0.238822,-0.613648,-2.319883,-0.872232,1.438513
1208,2582819699,0.210612,-0.718322,0.257880,-0.610863,-1.648850,1.694227,3.485793
1209,2582853033,0.203278,-0.717651,0.276038,-0.606184,-0.734926,0.197743,2.865417
1210,2582886367,0.199003,-0.715657,0.303116,-0.596954,-0.460339,-0.050779,3.009651
1211,2582919701,0.198549,-0.710752,0.337660,-0.584290,1.763844,0.198277,3.411877
1212,2582953035,0.202964,-0.701296,0.374596,-0.571548,2.215105,0.914720,2.592944
1213,2582986369,0.205905,-0.688713,0.415593,-0.557280,4.185674,0.864918,1.652608
1214,2583019703,0.211290,-0.668428,0.457149,-0.547336,4.500822,0.518224,-0.491379
1215,2583053037,0.220504,-0.637715,0.497465,-0.545184,5.241504,0.798637,-0.414688
1216,2583086371,0.230903,-0.598149,0.532392,-0.552685,4.544155,0.145268,-1.689160
1217,2583119705,0.232966,-0.552756,0.563956,-0.567575,3.797094,0.249680,-3.051280
1218,2583153039,0.223165,-0.502730,0.593767,-0.587283,2.667715,-0.451355,-2.503734
1219,2583186373,0.201267,-0.450115,0.623540,-0.606701,1.483523,-1.267836,-2.149545
1220,2583219707,0.168728,-0.396421,0.653702,-0.622137,0.966913,-1.449648,-0.838534
1221,2583253041,0.130994,-0.341826,0.679199,-0.636148,-0.365109,-1.357154,-0.129996
1222,2583286375,0.089000,-0.289454,0.705475,-0.640782,-1.067685,-0.846717,-0.233690
1223,2583319709,0.044641,-0.238343,0.732329,-0.636313,-1.432662,-1.274982,0.374213
1224,2583353043,0.001744,-0.188636,0.755634,-0.627241,-2.268963,-1.163722,0.679484
1225,2583386377,-0.037785,-0.141703,0.777395,-0.611678,-2.223989,-1.451388,0.618597
1226,2583419711,-0.070350,-0.097930,0.791439,-0.599238,-2.577823,-1.508842,0.239447
1227,2583453045,-0.096444,-0.058620,0.801041,-0.587874,-2.726128,-0.306213,-1.005366
1228,2583486379,-0.115952,-0.024255,0.808098,-0.577014,-2.356111,-0.793987,-0.535138
1229,2583519713,-0.128074,0.000833,0.804109,-0.580522,-2.592104,0.367318,-0.883794
1230,2583553047,-0.137876,0.014363,0.796456,-0.588594,-3.178645,0.636558,-3.362023
1231,2583586381,-0.154272,0.022886,0.796088,-0.584741,-3.473785,1.223738,-3.363383
1232,2583619715,-0.179099,0.026359,0.799960,-0.572096,-3.119150,1.708849,-3.894926
1233,2583653049,-0.204629,0.024903,0.804815,-0.556579,-2.999124,2.025282,0.369999
1234,2583686383,-0.221957,0.016622,0.802558,-0.553497,-2.597682,2.476507,2.404883
1235,2583719717,-0.228698,0.003628,0.795608,-0.560974,-2.511005,2.187977,2.077804
1236,2583753051,-0.227471,-0.011794,0.788165,-0.571764,-2.124932,1.914904,1.287371
1237,2583786385,-0.220525,-0.028848,0.780431,-0.584350,-1.845619,0.984585,1.283390
1238,2583819719,-0.209221,-0.048599,0.770995,-0.599527,-1.385557,0.749733,0.784640
1239,2583853053,-0.194126,-0.070740,0.761656,-0.614160,-1.500638,0.394682,0.449096
1240,2583886387,-0.174636,-0.096087,0.749591,-0.631176,-1.580362,-0.234581,0.609961
1241,2583919721,-0.148580,-0.124958,0.734559,-0.650179,-1.862382,-0.154589,0.444502
1242,2583953055,-0.116020,-0.156730,0.716967,-0.669279,-2.010994,-0.652050,0.327597
1243,2583986389,-0.078548,-0.192536,0.695898,-0.687376,-1.932629,-1.095747,0.109303
1244,2584019723,-0.037880,-0.231278,0.673779,-0.700784,-1.615250,-1.828129,0.110505
1245,2584053057,0.004094,-0.271030,0.649453,-0.710449,-0.705788,-2.241922,0.221457
1246,2584086391,0.046749,-0.310359,0.625282,-0.714503,-0.411546,-2.106589,0.504225
1247,2584119725,0.088974,-0.347929,0.600096,-0.714782,0.584956,-2.592572,0.531341
1248,2584153059,0.131106,-0.383487,0.572621,-0.712639,1.072528,-2.368248,0.603669
1249,2584186393,0.171802,-0.416504,0.545970,-0.706346,1.504859,-2.667844,0.442839
1250,2584219727,0.210147,-0.447126,0.518698,-0.697760,2.146271,-2.058652,0.510246
1251,2584253061,0.246665,-0.475639,0.489903,-0.687691,2.185503,-1.680147,0.748753
1252,2584286395,0.281939,-0.501200,0.458932,-0.677267,2.591028,-1.514606,0.357752
1253,2584319729,0.313785,-0.524327,0.428515,-0.665579,2.269513,-0.906738,0.447337
1254,2584353063,0.343723,-0.544593,0.397409,-0.653712,2.115891,-0.639222,0.591054
1255,2584386397,0.374138,-0.560606,0.363220,-0.643283,2.107522,-0.298469,-0.291222
1256,2584419731,0.399189,-0.574791,0.332547,-0.632200,1.324406,0.497868,-0.974455
1257,2584453065,0.419590,-0.587177,0.305264,-0.621274,1.203329,1.252962,-1.045846
1258,2584486399,0.440559,-0.595317,0.276787,-0.612287,1.015900,1.823930,-1.434938
1259,2584519733,0.460686,-0.600933,0.248884,-0.603908,0.555886,1.880191,-2.096766
1260,2584553067,0.475641,-0.607750,0.227066,-0.594010,0.021044,2.441492,-1.651539
1261,2584586401,0.490197,-0.612584,0.207617,-0.584245,-0.386708,2.554705,-1.045538
1262,2584619735,0.504588,-0.615435,0.188909,-0.575279,-0.327685,2.385349,-0.191818
1263,2584653069,0.516017,-0.618317,0.172743,-0.567071,-0.315723,1.951707,0.821268
1264,2584686403,0.522817,-0.622079,0.162960,-0.559576,-0.462243,2.059148,2.043158
1265,2584719737,0.530816,-0.622197,0.156259,-0.553795,-0.429589,1.697369,2.125173
1266,2584753071,0.538634,-0.619778,0.153830,-0.549623,-0.362518,1.077599,1.192595
1267,2584786405,0.543106,-0.617540,0.157661,-0.546648,-0.562143,0.826159,0.549146
1268,2584819739,0.546824,-0.614472,0.163481,-0.544685,-0.463371,0.615626,-0.126402
1269,2584853073,0.546898,-0.613564,0.170481,-0.543488,-0.446313,0.200540,-0.012787
1270,2584886407,0.544260,-0.615631,0.178683,-0.541158,-0.141503,0.225325,0.725883
1271,2584919741,0.545211,-0.615559,0.184039,-0.538481,0.205385,0.067457,0.598674
1272,2584953075,0.546368,-0.615772,0.188534,-0.535502,0.237867,-0.318675,0.369421
1273,2584986409,0.546209,-0.617463,0.193328,-0.531996,0.074915,-0.435171,0.273894
1274,2585019743,0.548127,-0.617906,0.195617,-0.528662,0.053775,-0.338544,0.138677
1275,2585053077,0.551685,-0.617245,0.196168,-0.525520,-0.018323,-0.425990,-0.013355
1276,2585086411,0.554171,-0.617462,0.196850,-0.522384,-0.057060,-0.292411,0.078512
1277,2585119745,0.556343,-0.618171,0.196800,-0.519247,-0.225304,-0.106459,0.292487
1278,2585153079,0.558698,-0.618774,0.196264,-0.516194,-0.407407,-0.319801,0.076443
1279,2585186413,0.558918,-0.621345,0.197183,-0.512504,-0.569755,0.074168,-0.133057
1280,2585219747,0.559729,-0.623742,0.196698,-0.508881,-1.117751,0.517565,-0.007311
1281,2585253081,0.562386,-0.625211,0.194345,-0.505038,-1.687695,0.576953,-0.235482
1282,2585286415,0.565221,-0.627827,0.191542,-0.499670,-1.401703,0.819533,-0.547986
1283,2585319749,0.567116,-0.632021,0.188931,-0.493188,-1.096214,1.155102,-0.216718
1284,2585353083,0.569035,-0.636342,0.185848,-0.486548,-0.808707,1.181418,-0.067728
1285,2585386417,0.570248,-0.640905,0.183223,-0.480092,-0.206814,1.042937,-0.419468
1286,2585419751,0.566918,-0.648446,0.183285,-0.473844,-0.091639,0.924060,-0.319258
1287,2585453085,0.563809,-0.654684,0.181983,-0.469458,0.357498,1.071648,0.230687
1288,2585486419,0.560968,-0.659973,0.179290,-0.466483,0.768945,0.369675,-0.598441
1289,2585519753,0.553109,-0.668346,0.179120,-0.464005,0.805041,0.437961,0.269251
1290,2585553087,0.547863,-0.673989,0.175825,-0.463326,1.118544,0.124911,-0.205845
1291,2585586421,0.540144,-0.680974,0.172693,-0.463353,1.114728,-0.109699,-0.735663
1292,2585619755,0.527925,-0.690374,0.171290,-0.464046,0.814477,0.002855,-0.783628
1293,2585653089,0.515023,-0.699259,0.167952,-0.466455,1.174939,0.072379,-0.840764
1294,2585686423,0.496087,-0.711808,0.165362,-0.468917,0.742045,-0.623493,-0.754584
1295,2585719757,0.474388,-0.724858,0.162560,-0.472347,0.819757,0.131414,0.335421
1296,2585753091,0.457022,-0.734581,0.155220,-0.476896,0.669664,-0.001938,0.002759
1297,2585786425,0.437991,-0.744979,0.148349,-0.480795,0.751233,-0.083771,0.100270
1298,2585819759,0.423225,-0.752136,0.139588,-0.485477,0.505721,0.400186,0.784855
1299,2585853093,0.413491,-0.756540,0.128659,-0.490020,0.912573,0.121783,-0.073978
1300,2585886427,0.403389,-0.760918,0.118185,-0.494282,0.591590,-0.291570,0.394288
1301,2585919761,0.396898,-0.762965,0.106069,-0.499105,0.983576,-0.388048,0.593484
1302,2585953095,0.391834,-0.763394,0.095391,-0.504575,1.538372,-1.044680,0.510811
1303,2585986429,0.387087,-0.762936,0.088110,-0.510224,0.616112,-0.910219,1.411623
1304,2586019763,0.386897,-0.759475,0.080114,-0.516809,0.636672,-1.241489,1.286538
1305,2586053097,0.386779,-0.755656,0.072733,-0.523543,0.750498,-2.129102,0.635312
1306,2586086431,0.385473,-0.752402,0.070217,-0.529501,0.628611,-1.746239,0.369371
1307,2586119765,0.382908,-0.750695,0.073546,-0.533319,-0.239135,-1.427158,1.228133
1308,2586153099,0.386271,-0.746713,0.076174,-0.536108,-0.385236,-0.421083,2.236666
1309,2586186433,0.397452,-0.739419,0.076189,-0.538040,0.577477,-1.318396,1.317118
1310,2586219767,0.407051,-0.733191,0.082563,-0.538445,1.408166,-1.445273,1.173403
1311,2586253101,0.416674,-0.725987,0.095018,-0.538793,1.457076,-1.416250,1.482671
1312,2586286435,0.430213,-0.716023,0.109203,-0.538798,1.908813,-1.281308,1.603429
1313,2586319769,0.440695,-0.707730,0.129285,-0.536836,2.567286,-1.904919,0.576285
1314,2586353103,0.448340,-0.699619,0.153494,-0.534756,0.919319,-0.911289,0.968025
1315,2586386437,0.459247,-0.688727,0.174174,-0.533302,0.888073,-0.675140,0.475843
1316,2586419771,0.466823,-0.679264,0.193170,-0.532317,1.782184,-0.841818,-0.840768
1317,2586453105,0.468533,-0.672008,0.212095,-0.532821,0.596174,0.318248,0.084312
1318,2586486439,0.473522,-0.662006,0.222713,-0.536586,-0.785182,0.705600,-0.387673
1319,2586519773,0.478995,-0.652175,0.227003,-0.541942,0.196671,0.883356,-1.670054
1320,2586553107,0.482012,-0.644211,0.228856,-0.547980,-1.639740,1.079874,-0.884736
1321,2586586441,0.486335,-0.638000,0.227340,-0.552042,-1.964782,1.927483,-0.220532
1322,2586619775,0.493309,-0.632661,0.221084,-0.554535,-1.704726,1.923915,-0.368723
1323,2586653109,0.499250,-0.629133,0.214938,-0.555647,-1.583281,1.870982,-0.051254
1324,2586686443,0.503647,-0.626124,0.211624,-0.556348,-1.652064,1.919257,0.376320
1325,2586719777,0.507249,-0.622910,0.210961,-0.556935,-1.918215,1.593953,-0.000531
1326,2586753111,0.509265,-0.620700,0.213289,-0.556676,-1.815496,1.709467,-0.021927
1327,2586786445,0.512442,-0.617464,0.216041,-0.556299,-1.569393,1.564603,-0.352045
1328,2586819779,0.514398,-0.614828,0.220861,-0.555520,-1.657504,1.746575,-0.339673
1329,2586853113,0.515523,-0.612263,0.226974,-0.554845,-1.524574,2.147052,-0.427273
1330,2586886447,0.516677,-0.608992,0.233853,-0.554515,-1.470317,2.180655,-0.490664
1331,2586919781,0.516521,-0.606396,0.243232,-0.553470,-1.345956,2.088450,-0.411936
1332,2586953115,0.515107,-0.604744,0.255018,-0.551286,-0.938562,2.064136,0.037469
1333,2586986449,0.512992,-0.603387,0.268337,-0.548416,-0.605154,1.983089,0.356507
1334,2587019783,0.511363,-0.601070,0.282065,-0.545584,-0.116876,1.682864,0.133028
1335,2587053117,0.509312,-0.598415,0.296441,-0.542793,-0.117789,1.375910,-0.426314
1336,2587086451,0.504317,-0.597505,0.312436,-0.539478,0.219089,1.252690,-0.324705
1337,2587119785,0.498421,-0.596588,0.326916,-0.537388,0.632639,0.868213,-0.379468
1338,2587153119,0.489239,-0.597681,0.341149,-0.535762,0.657437,0.269077,-0.654965
1339,2587186453,0.476632,-0.601129,0.354190,-0.534805,0.928171,-0.075570,-0.719154
1340,2587219787,0.461644,-0.606669,0.364164,-0.534997,0.728696,-0.707858,-1.618420
1341,2587253121,0.441401,-0.616362,0.373327,-0.534687,0.664117,-0.790756,-0.409880
1342,2587286455,0.423480,-0.625227,0.375554,-0.537322,1.228670,-1.415596,-0.758360
1343,2587319789,0.401511,-0.636910,0.375898,-0.540218,0.744436,-1.994660,-0.852299
1344,2587353123,0.377081,-0.650031,0.373673,-0.543727,0.767353,-1.767262,-0.255181
1345,2587386457,0.356590,-0.662627,0.362674,-0.549762,0.620194,-2.254870,-0.975799
1346,2587419791,0.331800,-0.678092,0.350325,-0.554412,0.206768,-2.650727,-0.715574
1347,2587453125,0.305450,-0.693285,0.335169,-0.560106,0.439221,-2.558156,0.118592
1348,2587486459,0.280073,-0.707393,0.318431,-0.565470,0.393906,-2.449174,0.807392
1349,2587519793,0.257605,-0.719520,0.301660,-0.570029,0.310302,-1.495285,1.912756
1350,2587553127,0.240367,-0.728014,0.286001,-0.574824,0.736878,-1.289059,1.078127
1351,2587586461,0.227779,-0.733339,0.276415,-0.577863,-0.105781,0.213413,2.264263
1352,2587619795,0.224172,-0.734977,0.268709,-0.580820,-0.308625,0.556114,1.982363
1353,2587653129,0.221613,-0.735514,0.263766,-0.583382,-0.520816,-1.031388,0.694926
1354,2587686463,0.209626,-0.738204,0.266973,-0.582956,-0.264016,0.248663,0.856303
1355,2587719797,0.204486,-0.740109,0.268469,-0.581677,-0.113082,1.265774,2.544782
1356,2587753131,0.206635,-0.740984,0.272073,-0.578119,-0.273748,0.420759,1.933638
1357,2587786465,0.209636,-0.740197,0.283679,-0.572441,0.426465,-0.046415,1.869887
1358,2587819799,0.206842,-0.739781,0.309025,-0.560754,1.599386,0.871519,2.864760
1359,2587853133,0.210408,-0.734632,0.340663,-0.547716,2.236051,1.502267,3.133757
1360,2587886467,0.216530,-0.725737,0.379983,-0.531068,3.414687,1.118908,2.495460
1361,2587919801,0.228322,-0.709238,0.420080,-0.518058,4.236745,1.231089,1.337391
1362,2587953135,0.248769,-0.682111,0.456720,-0.514049,4.536336,1.379505,0.702031
1363,2587986469,0.270186,-0.644684,0.489350,-0.521459,4.990842,0.618613,-0.090282
1364,2588019803,0.286421,-0.599354,0.518772,-0.538158,3.846804,-0.178110,-3.230672
1365,2588053137,0.287080,-0.551570,0.552765,-0.554804,3.187333,-0.107592,-2.362944
1366,2588086471,0.279624,-0.499713,0.583605,-0.575763,2.819301,-0.492366,-0.849500
1367,2588119805,0.265486,-0.445094,0.608569,-0.600877,1.053341,-1.076328,-2.283334
1368,2588153139,0.240654,-0.391860,0.635586,-0.620131,0.705486,-1.403022,-1.447545
1369,2588186473,0.211551,-0.339953,0.656993,-0.638780,-0.353380,-1.396918,-0.691896
1370,2588219807,0.177692,-0.291247,0.675600,-0.653579,-1.459288,-0.917013,-1.109859
1371,2588253141,0.140873,-0.245831,0.695503,-0.660301,-0.622801,-1.695660,-0.020538
1372,2588286475,0.106414,-0.202696,0.705315,-0.670911,-1.412650,-1.758832,0.027614
1373,2588319809,0.069838,-0.164305,0.715760,-0.675141,-2.784545,-1.621316,-1.984622
1374,2588353143,0.032025,-0.128939,0.731095,-0.669215,-2.526269,-2.268158,-0.123102
1375,2588386477,-0.002412,-0.096660,0.738076,-0.667754,-3.039590,-1.747378,-0.964849
1376,2588419811,-0.034888,-0.068103,0.745717,-0.661855,-3.263144,-1.185033,-1.421100
1377,2588453145,-0.063867,-0.042360,0.749454,-0.657607,-3.199999,-1.164965,-1.081669
1378,2588486479,-0.089682,-0.023479,0.747553,-0.657702,-3.571274,-0.272901,-1.670686
1379,2588519813,-0.114661,-0.013848,0.745014,-0.656975,-3.910954,1.430950,-2.157190
1380,2588553147,-0.142484,-0.010071,0.750733,-0.644979,-4.207475,0.519747,-0.197443
1381,2588586481,-0.173791,-0.010754,0.754605,-0.632655,-3.810289,0.748380,-1.611584
1382,2588619815,-0.202789,-0.013756,0.759087,-0.618445,-3.267048,2.450019,1.344366
1383,2588653149,-0.222111,-0.020472,0.757720,-0.613277,-1.984126,2.777437,2.191384
1384,2588686483,-0.230098,-0.033378,0.751053,-0.617949,-1.429550,2.770531,1.817019
1385,2588719817,-0.230897,-0.050222,0.743455,-0.625651,-1.161633,2.412256,1.126983
1386,2588753151,-0.226319,-0.069594,0.736580,-0.633551,-0.761588,1.679502,1.669228
1387,2588786485,-0.214318,-0.091461,0.728813,-0.643844,-0.563794,1.026352,1.944650
1388,2588819819,-0.193646,-0.116753,0.717922,-0.658375,-0.862070,0.413649,1.488677
1389,2588853153,-0.164766,-0.144503,0.704315,-0.675212,-1.614701,0.501455,1.067346
1390,2588886487,-0.129426,-0.174439,0.687533,-0.692906,-2.050052,0.074643,0.424248
1391,2588919821,-0.089316,-0.207275,0.668344,-0.708785,-2.266489,-0.352817,-0.093279
1392,2588953155,-0.046142,-0.241842,0.648708,-0.720112,-2.239164,-1.344859,-0.143465
1393,2588986489,-0.000690,-0.277995,0.624941,-0.729498,-1.635824,-1.903814,-0.122890
1394,2589019823,0.046239,-0.314867,0.599211,-0.734621,-1.357710,-2.331390,-0.223825
1395,2589053157,0.092293,-0.351204,0.575155,-0.733032,-0.615228,-2.823978,0.137910
1396,2589086491,0.137750,-0.386734,0.549033,-0.728028,0.257529,-2.709138,0.386910
1397,2589119825,0.182883,-0.420568,0.520062,-0.720564,0.608251,-2.787180,-0.004743
1398,2589153159,0.224882,-0.452735,0.492957,-0.708134,1.551507,-2.728148,0.139725
1399,2589186493,0.266504,-0.481735,0.463231,-0.694496,2.216961,-2.227679,0.245882
1400,2589219827,0.308447,-0.506558,0.430232,-0.680559,2.291480,-2.062708,-0.234524
1401,2589253161,0.347578,-0.528075,0.397433,-0.665112,2.570998,-1.456541,-0.086612
1402,2589286495,0.384874,-0.546011,0.363406,-0.649369,2.758321,-0.864085,-0.060761
1403,2589319829,0.420368,-0.559922,0.328388,-0.633987,2.587632,-0.463795,-0.223869
1404,2589353163,0.451804,-0.571148,0.295539,-0.618321,2.334203,0.016020,-0.126764
1405,2589386497,0.479243,-0.580040,0.265327,-0.602895,1.998660,0.628807,0.157768
1406,2589419831,0.504423,-0.585846,0.236359,-0.588623,1.678852,0.951595,0.178466
1407,2589453165,0.527036,-0.589444,0.209208,-0.575345,1.412540,1.311904,-0.079064
1408,2589486499,0.546070,-0.592159,0.184443,-0.563149,0.990448,1.921072,-0.129843
1409,2589519833,0.561453,-0.594205,0.161858,-0.552715,0.525203,2.173593,0.039117
1410,2589553167,0.573989,-0.594851,0.141640,-0.544636,0.284483,2.282312,0.211933
1411,2589586501,0.583477,-0.594529,0.125192,-0.538903,-0.041975,2.233274,0.289811
1412,2589619835,0.590803,-0.592949,0.112470,-0.535457,-0.420196,2.174898,0.341166
1413,2589653169,0.596431,-0.590280,0.103224,-0.534027,-0.716095,1.867616,0.302047
1414,2589686503,0.599269,-0.588166,0.098507,-0.534074,-0.872950,1.509328,0.477974
1415,2589719837,0.599794,-0.586819,0.098454,-0.534974,-1.009815,1.274259,0.777793
1416,2589753171,0.600107,-0.584569,0.101299,-0.536553,-0.818607,0.860743,0.911904
1417,2589786505,0.599362,-0.582449,0.107164,-0.538549,-0.582186,0.317163,0.945070
1418,2589819839,0.597196,-0.580928,0.116295,-0.540698,-0.394590,0.115511,0.912482
1419,2589853173,0.595397,-0.578272,0.126542,-0.543223,-0.197663,-0.153328,0.533143
1420,2589886507,0.593770,-0.574908,0.136760,-0.546091,-0.119919,-0.242863,-0.001953
1421,2589919841,0.591341,-0.572488,0.146626,-0.548703,-0.214953,-0.104529,-0.364625
1422,2589953175,0.588754,-0.571146,0.155209,-0.550520,-0.414904,0.185883,-0.303748
1423,2589986509,0.587843,-0.569589,0.161444,-0.551312,-0.813197,0.552707,-0.124911
1424,2590019843,0.588594,-0.568334,0.166051,-0.550437,-1.120945,0.940948,-0.267675
1425,2590053177,0.589739,-0.568553,0.170589,-0.547590,-1.396060,1.009696,-0.582714
1426,2590086511,0.589572,-0.571334,0.176851,-0.542868,-1.700622,1.084757,-0.099137
1427,2590119845,0.590830,-0.573739,0.182241,-0.537152,-1.762920,1.161227,0.017013
1428,2590153179,0.592177,-0.576626,0.187393,-0.530766,-1.502635,1.307206,-0.597198
1429,2590186513,0.588197,-0.584650,0.197351,-0.522745,-1.837494,1.218508,-0.052633
1430,2590219847,0.583137,-0.593305,0.208770,-0.514156,-1.636997,1.515203,0.800428
1431,2590253181,0.580090,-0.600501,0.217833,-0.505414,-0.757490,1.207944,-0.698400
1432,2590286515,0.572287,-0.612442,0.228610,-0.495116,-0.797352,1.147328,-0.419733
1433,2590319849,0.563999,-0.624457,0.237487,-0.485344,-0.006984,0.925756,-0.921763
1434,2590353183,0.551093,-0.639957,0.246460,-0.475405,-0.367260,0.623545,-0.785403
1435,2590386517,0.538263,-0.654427,0.251038,-0.467951,0.469693,0.623051,-0.389465
1436,2590419851,0.524536,-0.669103,0.251652,-0.462423,0.943443,0.015722,-1.224291
1437,2590453185,0.505366,-0.686419,0.252087,-0.458134,1.378607,0.446618,0.171989
1438,2590486519,0.487677,-0.701305,0.248420,-0.456762,1.486266,-0.508275,-1.031407
1439,2590519853,0.465868,-0.717406,0.244824,-0.456462,1.861400,-0.302608,-0.355422
1440,2590553187,0.448698,-0.729639,0.235131,-0.459359,1.445856,-0.116272,-0.032883
1441,2590586521,0.432895,-0.740387,0.221330,-0.464158,2.322028,-1.624258,-1.628450
1442,2590619855,0.410501,-0.753082,0.210255,-0.469202,2.154192,-0.946349,0.503856
1443,2590653189,0.392832,-0.761680,0.196089,-0.476525,2.000407,-0.868964,0.639342
1444,2590686523,0.378288,-0.768257,0.180307,-0.483911,1.643709,-1.542892,-0.071525
1445,2590719857,0.368080,-0.771980,0.164564,-0.491409,1.279786,-1.225224,1.429154
1446,2590753191,0.366902,-0.771174,0.147057,-0.499047,0.822045,-1.718564,1.221875
1447,2590786525,0.365621,-0.769478,0.133314,-0.506411,0.837979,-1.989963,1.020631
1448,2590819859,0.362636,-0.767780,0.123441,-0.513588,0.705435,-1.423814,1.488815
1449,2590853193,0.362149,-0.764668,0.116133,-0.520234,0.073025,-1.732864,1.557768
1450,2590886527,0.361647,-0.761998,0.114081,-0.524935,0.021661,-2.209579,1.181729
1451,2590919861,0.359521,-0.760498,0.117615,-0.527783,0.200211,-0.692240,1.505274
1452,2590953195,0.365488,-0.756625,0.120430,-0.528616,0.163635,-0.440921,2.426552
1453,2590986529,0.380754,-0.748879,0.123193,-0.528234,1.146016,-1.257287,2.313074
1454,2591019863,0.394863,-0.741311,0.132441,-0.526309,1.337422,-1.535701,1.724383
1455,2591053197,0.410759,-0.731081,0.145788,-0.524922,2.217136,-1.839511,1.691314
1456,2591086531,0.425960,-0.720305,0.164175,-0.522270,2.817853,-2.121609,1.004846
1457,2591119865,0.442101,-0.707900,0.184536,-0.519010,2.110700,-1.676359,0.783519
1458,2591153199,0.456792,-0.695279,0.204194,-0.515978,2.081001,-1.279648,0.006551
1459,2591186533,0.469292,-0.682696,0.219389,-0.515326,1.050151,-0.722307,-0.518898
1460,2591219867,0.480873,-0.671070,0.227849,-0.516248,-0.592707,-0.030147,-1.404691
1461,2591253201,0.490763,-0.662142,0.229868,-0.517572,-0.073958,0.637485,-1.988055
1462,2591286535,0.498979,-0.655197,0.225075,-0.520653,-0.787807,0.530338,-1.421158
