sep=,
DeviceTag:,2B_Left
FirmwareVersion:,2.2.1
AppVersion:,2023.6.0
SyncStatus:,Synced
OutputRate:,30Hz
FilterProfile:,General
Measurement Mode:,Sensor fusion Mode - Complete(Quaternion)
StartTime: ,2026-05-27_15:19:19_065 AEST
© Movella Technologies B. V. 2005-2026

PacketCounter,SampleTimeFine,Quat_W,Quat_X,Quat_Y,Quat_Z,FreeAcc_X,FreeAcc_Y,FreeAcc_Z
1,4027522079,0.618206,-0.263363,-0.474073,0.568960,1.330602,-1.039902,0.158533
2,4027555413,0.648780,-0.261986,-0.462001,0.544980,1.552324,-1.885020,-0.583129
3,4027588747,0.673291,-0.260958,-0.450574,0.524942,1.073182,-2.767915,-1.240648
4,4027622081,0.688421,-0.257738,-0.445209,0.511308,0.604303,-3.330403,-1.573737
5,4027655415,0.694213,-0.253702,-0.446814,0.504044,0.426727,-3.421722,-1.436846
6,4027688749,0.693905,-0.252009,-0.452116,0.500578,0.111287,-3.814830,-0.921956
7,4027722083,0.689659,-0.252122,-0.459628,0.499547,-0.646781,-4.083834,-0.275167
8,4027755417,0.683167,-0.254126,-0.467513,0.500135,-1.263671,-3.681896,-0.412070
9,4027788751,0.675510,-0.258745,-0.473064,0.502939,-1.521756,-2.878977,-0.703321
10,4027822085,0.667696,-0.267631,-0.473618,0.508175,-1.283573,-2.295571,-0.865615
11,4027855419,0.659505,-0.282181,-0.468140,0.516016,-0.743841,-1.811204,-0.698174
12,4027888753,0.649773,-0.302105,-0.457740,0.526309,-0.447356,-1.609046,-0.164155
13,4027922087,0.636395,-0.323323,-0.446735,0.539343,-0.435423,-1.454459,0.487946
14,4027955421,0.619473,-0.341726,-0.437531,0.555016,-0.196029,-0.692924,0.903045
15,4027988755,0.601312,-0.355669,-0.429882,0.571949,0.251603,0.097179,1.066476
16,4028022089,0.583815,-0.365240,-0.423702,0.588419,0.632536,0.701585,1.169072
17,4028055423,0.567646,-0.370050,-0.420312,0.603472,0.786964,1.200624,1.361375
18,4028088757,0.553452,-0.369631,-0.420503,0.616636,0.731187,1.662795,1.185548
19,4028122091,0.541852,-0.364385,-0.424195,0.627438,0.633305,1.979380,0.487635
20,4028155425,0.533111,-0.356671,-0.430326,0.635136,0.586747,2.282786,-0.168439
21,4028188759,0.527381,-0.349813,-0.436958,0.639193,0.445617,2.611214,-0.448467
22,4028222093,0.524534,-0.345055,-0.442865,0.640056,0.181321,2.551742,-0.514378
23,4028255427,0.523934,-0.342984,-0.447496,0.638437,0.099349,2.418633,-0.581090
24,4028288761,0.525113,-0.343901,-0.450880,0.634583,-0.099712,2.197788,-0.318387
25,4028322095,0.528103,-0.346727,-0.453350,0.628777,-0.180756,1.709724,-0.048934
26,4028355429,0.533113,-0.350137,-0.455521,0.621043,-0.029238,1.475165,0.235645
27,4028388763,0.540797,-0.353856,-0.457277,0.610919,-0.179262,1.141329,0.607413
28,4028422097,0.550952,-0.356338,-0.459207,0.598836,-0.420267,0.544933,0.870270
29,4028455431,0.562633,-0.356694,-0.461687,0.585712,-0.513618,0.175701,0.952491
30,4028488765,0.575900,-0.355856,-0.463633,0.571620,-0.489928,-0.052068,0.912242
31,4028522099,0.590472,-0.354598,-0.464112,0.556958,-0.494343,-0.461203,0.803315
32,4028555433,0.604296,-0.351954,-0.464520,0.543302,-0.550109,-0.794585,0.548934
33,4028588767,0.615789,-0.347673,-0.465900,0.531849,-0.488006,-0.680120,0.442809
34,4028622101,0.625716,-0.342221,-0.467377,0.522420,-0.459336,-0.365286,0.438512
35,4028655435,0.636362,-0.335899,-0.467053,0.513883,-0.412358,-0.019450,0.633681
36,4028688769,0.647278,-0.328145,-0.465952,0.506201,-0.261157,-0.313604,0.301567
37,4028722103,0.656437,-0.319010,-0.466187,0.499993,-0.079097,-0.276805,0.208772
38,4028755437,0.664459,-0.309221,-0.466991,0.494769,0.115545,-0.115585,0.283323
39,4028788771,0.672543,-0.299842,-0.466498,0.490062,0.321882,-0.265459,0.136295
40,4028822105,0.680094,-0.291541,-0.465275,0.485793,0.570970,-0.501381,-0.135268
41,4028855439,0.686618,-0.284612,-0.464096,0.481837,0.660063,-0.654174,-0.129215
42,4028888773,0.692532,-0.278654,-0.462603,0.478278,0.774864,-0.765239,-0.188800
43,4028922107,0.697336,-0.273024,-0.462113,0.475007,0.845563,-0.628697,-0.058784
44,4028955441,0.701033,-0.266907,-0.463202,0.471971,0.492950,-0.692511,-0.067720
45,4028988775,0.703625,-0.259948,-0.465308,0.469923,0.211547,-0.302753,0.066827
46,4029022109,0.705389,-0.253139,-0.467568,0.468750,-0.067411,0.098314,-0.088846
47,4029055443,0.706730,-0.247213,-0.469221,0.468241,-0.240302,0.209895,-0.149566
48,4029088777,0.708606,-0.242594,-0.469335,0.467707,-0.109226,0.438527,-0.073489
49,4029122111,0.711608,-0.239331,-0.467494,0.466674,-0.077295,0.268139,0.088783
50,4029155445,0.714406,-0.236507,-0.466051,0.465279,0.079232,0.027460,-0.064435
51,4029188779,0.716802,-0.234292,-0.465036,0.463728,0.420907,0.149058,0.100677
52,4029222113,0.719998,-0.233106,-0.462919,0.461487,0.461036,0.253279,0.311321
53,4029255447,0.723094,-0.231265,-0.462206,0.458276,0.297434,0.351273,0.422466
54,4029288781,0.726654,-0.228998,-0.462062,0.453908,0.337681,0.836345,0.395462
55,4029322115,0.732217,-0.228155,-0.459677,0.447772,0.280558,1.038264,0.327227
56,4029355449,0.739161,-0.228534,-0.455892,0.439972,-0.022924,1.407925,0.102192
57,4029388783,0.746779,-0.231244,-0.451199,0.430426,-0.646682,2.068514,0.047485
58,4029422117,0.757312,-0.235989,-0.442056,0.418776,-0.692134,1.989863,0.884194
59,4029455451,0.771523,-0.240780,-0.427087,0.405429,-0.546942,0.977841,0.730526
60,4029488785,0.786739,-0.243884,-0.409767,0.391987,-1.387008,-0.238989,1.530359
61,4029522119,0.801643,-0.243060,-0.391285,0.381032,-1.197536,-0.991233,1.627955
62,4029555453,0.814642,-0.236946,-0.374975,0.373641,-1.475497,-1.893995,1.083912
63,4029588787,0.824034,-0.225980,-0.363936,0.370743,-0.828256,-1.820654,0.468854
64,4029622121,0.830997,-0.213915,-0.355430,0.370613,0.142568,-1.350113,-1.019094
65,4029655455,0.835053,-0.204536,-0.348540,0.373324,-0.137098,-1.190553,-1.531640
66,4029688789,0.834870,-0.197708,-0.345432,0.380238,-0.083610,-0.298798,-1.634856
67,4029722123,0.830090,-0.194079,-0.346503,0.391432,0.525100,-0.009683,-0.828888
68,4029755457,0.823421,-0.192096,-0.351438,0.401955,2.113190,0.167387,-0.298152
69,4029788791,0.820102,-0.194894,-0.351942,0.406923,2.857170,0.272718,-1.357008
70,4029822125,0.821143,-0.204596,-0.345191,0.405841,2.545295,-0.050236,-0.727373
71,4029855459,0.825484,-0.217389,-0.332948,0.400578,1.765432,-0.802219,-0.820935
72,4029888793,0.828356,-0.229971,-0.324430,0.394569,0.998747,-1.602336,-1.243679
73,4029922127,0.828623,-0.238201,-0.323224,0.390090,0.681143,-1.555436,0.608336
74,4029955461,0.826235,-0.239006,-0.331197,0.387968,-0.056680,-0.923771,0.934322
75,4029988795,0.822531,-0.235576,-0.343416,0.387313,-0.236023,0.231131,1.260190
76,4030022129,0.820381,-0.230748,-0.353120,0.386052,-0.341630,0.324623,1.229222
77,4030055463,0.820416,-0.225568,-0.359255,0.383370,-0.156332,0.263291,0.997996
78,4030088797,0.822064,-0.220801,-0.362466,0.379573,-0.032458,0.071632,0.490604
79,4030122131,0.824459,-0.217002,-0.363799,0.375269,-0.004680,0.088108,0.203406
80,4030155465,0.827013,-0.214617,-0.363879,0.370919,0.161481,-0.018169,0.056952
81,4030188799,0.828924,-0.213220,-0.364839,0.366490,0.416381,0.008559,0.051755
82,4030222133,0.829755,-0.211928,-0.368203,0.361965,0.136372,0.158827,0.277923
83,4030255467,0.830569,-0.209879,-0.371681,0.357715,0.189194,0.300530,0.586606
84,4030288801,0.832099,-0.206900,-0.373392,0.354093,-0.128824,0.285627,0.402292
85,4030322135,0.833161,-0.202675,-0.375705,0.351583,-0.471022,0.311363,0.357785
86,4030355469,0.834013,-0.197579,-0.378140,0.349851,-0.382831,0.294985,0.061384
87,4030388803,0.835366,-0.192221,-0.378928,0.348752,-0.375156,0.403124,-0.021489
88,4030422137,0.836716,-0.186758,-0.378941,0.348469,-0.634169,0.319004,-0.337549
89,4030455471,0.837258,-0.181486,-0.379779,0.349042,-0.301313,0.493818,-0.778507
90,4030488805,0.836835,-0.177549,-0.381359,0.350355,-0.383142,0.624877,-1.114814
91,4030522139,0.834699,-0.173827,-0.384880,0.353453,-0.431161,0.623072,-1.204161
92,4030555473,0.829845,-0.170823,-0.391291,0.359261,0.427993,0.849292,-1.587373
93,4030588807,0.822942,-0.171344,-0.398536,0.366846,1.340707,0.261744,-0.567403
94,4030622141,0.817911,-0.176870,-0.400821,0.372937,2.319245,0.400370,0.921469
95,4030655475,0.818045,-0.188842,-0.395365,0.372597,2.553670,-0.093454,0.468876
96,4030688809,0.823153,-0.211148,-0.381748,0.363462,3.393223,0.310491,-0.021344
97,4030722143,0.832866,-0.242083,-0.357050,0.346764,2.110902,0.078760,1.024489
98,4030755477,0.839076,-0.265949,-0.338010,0.333125,-1.782873,-0.749415,2.248146
99,4030788811,0.838379,-0.275551,-0.333571,0.331545,-2.634369,-0.258446,2.911831
100,4030822145,0.832542,-0.273407,-0.341615,0.339737,-2.701321,0.860812,1.883922
101,4030855479,0.826372,-0.264572,-0.351968,0.351040,-1.758422,1.356353,1.721704
102,4030888813,0.823277,-0.252961,-0.356363,0.362258,-1.236423,0.883026,1.076062
103,4030922147,0.821081,-0.240672,-0.358029,0.373788,-0.970124,0.525106,0.704432
104,4030955481,0.819735,-0.228925,-0.356627,0.385285,-0.241107,-0.099900,0.611902
105,4030988815,0.818390,-0.214070,-0.355886,0.397187,-1.322537,-0.522035,-0.433784
106,4031022149,0.811716,-0.194878,-0.365259,0.411977,-0.688686,-0.314530,-1.265541
107,4031055483,0.802073,-0.177373,-0.377515,0.427435,0.049370,-0.385329,-2.124295
108,4031088817,0.793557,-0.169469,-0.381997,0.442295,0.988858,-0.466876,-1.819283
109,4031122151,0.788250,-0.174256,-0.377216,0.453878,1.951336,-0.192323,-1.753057
110,4031155485,0.789698,-0.193367,-0.361660,0.456278,3.073411,-0.153723,-0.423923
111,4031188819,0.797603,-0.218596,-0.337442,0.449643,3.740807,0.851524,0.903096
112,4031222153,0.811440,-0.240401,-0.308245,0.434463,2.111526,-1.396890,0.069410
113,4031255487,0.822251,-0.247965,-0.292237,0.420730,0.524048,-1.816291,-0.100204
114,4031288821,0.829664,-0.242746,-0.290834,0.410058,-0.365288,-0.948100,-0.777601
115,4031322155,0.834991,-0.232228,-0.296803,0.400959,-0.655092,-0.611318,-1.038647
116,4031355489,0.839969,-0.218506,-0.306185,0.391097,0.100815,-0.573417,-1.449919
117,4031388823,0.845777,-0.205800,-0.312821,0.380067,-0.828205,0.265307,-2.545205
118,4031422157,0.850004,-0.194914,-0.320027,0.370248,-1.638738,-0.514121,-0.783035
119,4031455491,0.852320,-0.184166,-0.326684,0.364569,-1.658108,-0.121837,-1.808330
120,4031488825,0.852651,-0.178105,-0.330055,0.363769,-2.072783,-0.018818,-1.255932
121,4031522159,0.850749,-0.173467,-0.335302,0.365662,-1.721324,-0.459362,0.636275
122,4031555493,0.847927,-0.167980,-0.340425,0.370018,-0.821313,-0.005383,0.843015
123,4031588827,0.845654,-0.163302,-0.343473,0.374470,-0.619428,0.238639,0.792941
124,4031622161,0.844599,-0.159789,-0.345281,0.376697,-1.263582,0.273556,-0.979962
125,4031655495,0.842885,-0.158575,-0.348225,0.378335,-0.277555,0.289348,-0.964276
126,4031688829,0.842137,-0.159091,-0.347838,0.380136,-0.109010,0.432714,-0.442345
127,4031722163,0.841086,-0.158523,-0.348484,0.382104,0.023798,0.040265,-0.712958
128,4031755497,0.837943,-0.157531,-0.352251,0.385946,1.033001,-0.265820,-0.032661
129,4031788831,0.834229,-0.156774,-0.356476,0.390395,2.024093,-0.055526,0.652608
130,4031822165,0.831683,-0.159329,-0.359547,0.391974,3.225550,0.349040,0.246857
131,4031855499,0.832671,-0.171520,-0.358833,0.385329,4.328539,0.921894,1.426432
132,4031888833,0.839971,-0.195777,-0.346328,0.369022,3.151757,0.621479,1.646197
133,4031922167,0.848984,-0.221485,-0.329009,0.349174,0.633065,-1.189382,2.984803
134,4031955501,0.854679,-0.238097,-0.319058,0.333219,-1.435756,-1.481651,3.118575
135,4031988835,0.857532,-0.243060,-0.315094,0.325999,-2.970155,-1.616689,2.112521
136,4032022169,0.856028,-0.239286,-0.317826,0.330066,-2.408332,-0.123316,0.712241
137,4032055503,0.851577,-0.233246,-0.325016,0.338787,-1.096809,1.129443,-0.285012
138,4032088837,0.845579,-0.228038,-0.333760,0.348710,-0.804266,1.305981,-1.095777
139,4032122171,0.839152,-0.223196,-0.343424,0.357865,0.254739,1.532932,0.023446
140,4032155505,0.834573,-0.217902,-0.351095,0.364334,-0.329097,1.187555,-0.861110
141,4032188839,0.828683,-0.210345,-0.364083,0.369436,-0.461947,1.247150,-1.422464
142,4032222173,0.822958,-0.203980,-0.374876,0.374966,-0.679286,1.443146,-1.510181
143,4032255507,0.817080,-0.200729,-0.382712,0.381601,-0.939663,-0.252474,-2.090457
144,4032288841,0.807131,-0.197417,-0.395564,0.391273,0.321622,-0.859932,-1.122543
145,4032322175,0.797649,-0.195787,-0.407402,0.399307,2.246113,-1.239287,-1.609473
146,4032355509,0.792784,-0.202757,-0.411954,0.400846,3.327504,-0.906794,-0.697448
147,4032388843,0.793249,-0.215916,-0.412773,0.392116,2.512911,-1.064131,-0.485631
148,4032422177,0.801083,-0.237075,-0.401247,0.375582,1.859439,-1.584363,1.376761
149,4032455511,0.810694,-0.260831,-0.384000,0.356773,3.072900,-0.297710,0.049108
150,4032488845,0.817328,-0.281006,-0.372271,0.338269,-0.338343,-1.868766,0.523599
151,4032522179,0.815293,-0.292390,-0.376022,0.329261,-1.620499,-0.589849,0.830977
152,4032555513,0.811282,-0.300432,-0.380595,0.326664,-0.497969,0.852045,0.517612
153,4032588847,0.806890,-0.307994,-0.384435,0.326002,-1.619788,0.904047,-0.384972
154,4032622181,0.800198,-0.315216,-0.390030,0.328937,-2.390635,1.154469,0.472408
155,4032655515,0.793461,-0.321525,-0.394204,0.334131,-1.818700,1.160267,0.304434
156,4032688849,0.784567,-0.326328,-0.402469,0.340564,-1.988293,0.375757,0.934353
157,4032722183,0.771504,-0.326874,-0.418417,0.350518,-2.173086,0.069657,1.369447
158,4032755517,0.763271,-0.325961,-0.426284,0.359790,-0.357510,0.311030,1.067713
159,4032788851,0.760771,-0.326394,-0.425263,0.365850,0.249136,1.103829,1.340221
160,4032822185,0.757487,-0.324526,-0.429076,0.369851,-0.773332,0.078450,0.575180
161,4032855519,0.750393,-0.319651,-0.441128,0.374353,-0.200365,0.241198,-0.266144
162,4032888853,0.747850,-0.318467,-0.444341,0.376643,0.882583,0.345578,-0.470062
163,4032922187,0.751153,-0.321442,-0.437198,0.375903,1.415827,0.280935,0.412908
164,4032955521,0.753710,-0.324209,-0.432881,0.373393,2.398494,-0.091295,0.268652
165,4032988855,0.753310,-0.326009,-0.433645,0.371744,1.947900,-0.082084,1.307626
166,4033022189,0.753574,-0.324604,-0.434713,0.371191,1.206108,-0.588990,1.369721
167,4033055523,0.752066,-0.321955,-0.439932,0.370407,0.977456,-0.894176,0.931176
168,4033088857,0.750597,-0.322347,-0.442989,0.369400,0.822146,-0.869988,0.893197
169,4033122191,0.749341,-0.326146,-0.442407,0.369315,0.312205,-0.723308,0.804848
170,4033155525,0.745915,-0.331571,-0.443328,0.370312,-0.210898,0.037887,1.163991
171,4033188859,0.741526,-0.336604,-0.444537,0.373128,-0.817395,0.640548,1.611687
172,4033222193,0.735973,-0.338981,-0.447152,0.378802,-1.157581,0.830422,2.200123
173,4033255527,0.728734,-0.336880,-0.453285,0.387286,-0.470017,0.441626,1.523714
174,4033288861,0.722187,-0.332325,-0.458884,0.396776,0.751795,1.530033,2.314310
175,4033322195,0.717970,-0.326236,-0.462949,0.404683,0.178899,-0.044558,1.373443
176,4033355529,0.711665,-0.319248,-0.470002,0.413173,0.195933,-0.664457,0.284071
177,4033388863,0.707763,-0.317464,-0.469372,0.421873,1.941861,-1.399939,0.636254
178,4033422197,0.710364,-0.325596,-0.457668,0.424158,4.210905,-0.756151,0.630497
179,4033455531,0.719960,-0.341484,-0.440290,0.413752,2.416362,-1.209763,1.420814
180,4033488865,0.730121,-0.351485,-0.430254,0.397822,0.232949,-2.491788,1.851404
181,4033522199,0.736300,-0.352246,-0.433115,0.382357,0.571212,-0.757765,1.851006
182,4033555533,0.742034,-0.350040,-0.437997,0.367445,0.213054,0.604341,2.091899
183,4033588867,0.747935,-0.348069,-0.437332,0.358025,-1.680840,-0.659805,0.408968
184,4033622201,0.748776,-0.342916,-0.442394,0.355007,-1.555733,1.438588,1.197259
185,4033655535,0.748427,-0.335611,-0.449467,0.353838,-1.253320,1.429357,0.033250
186,4033688869,0.749093,-0.329756,-0.453842,0.352348,-1.398958,2.541965,-0.022895
187,4033722203,0.752026,-0.324346,-0.453422,0.351660,-2.506567,1.947193,-2.285760
188,4033755537,0.750270,-0.321839,-0.455207,0.355388,-1.662984,1.148373,-4.358094
189,4033788871,0.746047,-0.324801,-0.452068,0.365447,-2.323222,0.102820,-0.493716
190,4033822205,0.738365,-0.324737,-0.450500,0.382640,-2.045009,-1.314150,-0.470847
191,4033855539,0.723634,-0.316346,-0.460275,0.405493,-1.504677,-1.291534,1.505312
192,4033888873,0.706042,-0.306563,-0.471980,0.429836,1.646838,-2.100547,0.159000
193,4033922207,0.698726,-0.310796,-0.465884,0.445129,5.802763,-0.442747,1.321974
194,4033955541,0.702704,-0.322550,-0.452387,0.444425,4.226862,0.459595,3.579830
195,4033988875,0.708787,-0.328132,-0.446592,0.436470,0.994267,-0.989235,3.238086
196,4034022209,0.710626,-0.328839,-0.450731,0.428623,0.571634,0.347779,2.614658
197,4034055543,0.713761,-0.330305,-0.453444,0.419324,0.631462,0.261732,2.800006
198,4034088877,0.718174,-0.332050,-0.453352,0.410415,0.112839,-0.432411,1.555043
199,4034122211,0.720981,-0.328742,-0.457141,0.403903,-1.499469,-1.099470,2.676685
200,4034155545,0.723725,-0.323233,-0.461864,0.398024,-1.488529,0.751347,1.626577
201,4034188879,0.730136,-0.319900,-0.459020,0.392258,-1.786017,0.789422,-0.239715
202,4034222213,0.734073,-0.315213,-0.457852,0.390063,-2.558843,0.959136,-2.394252
203,4034255547,0.733964,-0.310472,-0.459412,0.392231,-1.885704,0.646282,-2.563790
204,4034288881,0.733098,-0.308132,-0.458620,0.396596,-0.762013,0.634537,-1.256308
205,4034322215,0.733580,-0.304736,-0.456084,0.401227,-1.044737,0.127208,-0.906216
206,4034355549,0.731872,-0.297818,-0.458350,0.406918,0.035242,-0.015649,-2.148524
207,4034388883,0.731582,-0.292693,-0.457258,0.412351,0.144967,0.445762,-0.604430
208,4034422217,0.733496,-0.290607,-0.450520,0.417807,0.356427,-0.591234,-1.124295
209,4034455551,0.732955,-0.290182,-0.446191,0.423657,0.601120,-0.976219,-0.828366
210,4034488885,0.731631,-0.292118,-0.441534,0.429454,1.194825,-0.633927,0.678491
211,4034522219,0.731849,-0.297002,-0.435448,0.431940,2.956668,-3.076150,-2.690798
212,4034555553,0.734507,-0.306884,-0.427156,0.428789,3.006298,0.897583,2.491854
213,4034588887,0.743830,-0.309607,-0.417711,0.419974,0.053124,-1.842839,0.470782
214,4034622221,0.746467,-0.304840,-0.423520,0.412905,0.526574,-0.287991,0.369480
215,4034655555,0.751627,-0.301088,-0.424910,0.404790,0.543160,0.430052,1.014756
216,4034688889,0.759563,-0.298646,-0.421327,0.395421,-0.472909,0.156538,0.215430
217,4034722223,0.765700,-0.294653,-0.420111,0.387802,-1.016477,0.027133,1.262010
218,4034755557,0.772335,-0.286053,-0.420046,0.381093,-0.186870,0.446668,1.892509
219,4034788891,0.780952,-0.276007,-0.416521,0.374758,-1.060991,0.431926,0.871794
220,4034822225,0.786494,-0.263132,-0.416164,0.372822,-1.375065,-0.192534,1.235369
221,4034855559,0.789317,-0.245937,-0.420502,0.373727,-0.621579,0.114738,0.595006
222,4034888893,0.791946,-0.228174,-0.422357,0.377322,-1.228345,-0.062896,0.180146
223,4034922227,0.792688,-0.209835,-0.424435,0.384017,-0.358391,-0.173472,-0.780797
224,4034955561,0.790580,-0.191659,-0.430463,0.391090,-0.014617,-0.469649,-1.454458
225,4034988895,0.787680,-0.176383,-0.435762,0.398197,0.243905,-0.240451,-1.342868
226,4035022229,0.786191,-0.166169,-0.434863,0.406431,0.255475,-0.854172,-1.130181
227,4035055563,0.785721,-0.160186,-0.431352,0.413424,0.688579,-0.799677,0.052730
228,4035088897,0.789033,-0.159742,-0.424427,0.414452,1.358723,-1.654146,-4.131257
229,4035122231,0.793608,-0.172583,-0.413596,0.411509,4.942533,0.466084,-0.262606
230,4035155565,0.808118,-0.189230,-0.388842,0.399924,2.612003,-1.488935,1.959290
231,4035188899,0.818697,-0.195413,-0.377893,0.385675,1.334541,-2.006496,0.913903
232,4035222233,0.827226,-0.193953,-0.373271,0.372489,2.377521,-0.189164,0.710976
233,4035255567,0.836729,-0.188304,-0.366694,0.360502,0.740212,-0.718663,-0.049745
234,4035288901,0.840977,-0.176576,-0.372781,0.350162,0.410935,0.118071,-0.154413
235,4035322235,0.843874,-0.162658,-0.380911,0.341066,0.230913,1.331407,-0.884120
236,4035355569,0.845277,-0.149541,-0.388406,0.335089,-1.019199,1.017793,-2.054557
237,4035388903,0.842144,-0.134675,-0.402956,0.332087,-0.450865,2.403305,-0.727108
238,4035422237,0.840039,-0.119042,-0.412957,0.331104,-1.433560,1.980839,-1.148393
239,4035455571,0.836592,-0.102177,-0.422796,0.333041,-1.315166,1.719361,-0.821196
240,4035488905,0.832151,-0.084672,-0.433384,0.335460,-1.117180,1.631917,-0.305995
241,4035522239,0.828733,-0.068457,-0.442271,0.336022,-1.622507,1.209367,-0.510572
242,4035555573,0.827236,-0.054467,-0.447120,0.335853,-1.597834,0.583278,0.416501
243,4035588907,0.826827,-0.041399,-0.450858,0.333721,-1.629710,0.080627,0.202551
244,4035622241,0.826537,-0.030404,-0.454961,0.330034,-1.501940,0.087384,-0.779282
245,4035655575,0.828353,-0.024064,-0.454109,0.327163,-1.097759,-0.235034,-0.289105
246,4035688909,0.831100,-0.020868,-0.450590,0.325278,-0.400391,-0.194103,-0.290382
247,4035722243,0.833667,-0.019846,-0.447453,0.323095,0.203894,-0.206566,-0.168306
248,4035755577,0.836310,-0.020732,-0.444253,0.320618,0.641052,-0.244727,-0.060783
249,4035788911,0.839238,-0.022511,-0.440412,0.318135,0.852633,-0.095681,0.203790
250,4035822245,0.841490,-0.024360,-0.437922,0.315476,0.655855,-0.070171,-0.122867
251,4035855579,0.843109,-0.026229,-0.436178,0.313412,0.534140,-0.059222,-0.277396
252,4035888913,0.843706,-0.028226,-0.435568,0.312481,0.280276,0.003038,-0.725748
253,4035922247,0.842762,-0.031255,-0.436820,0.312992,0.061946,0.081619,-1.339218
254,4035955581,0.840805,-0.036798,-0.438242,0.315653,0.023728,0.068445,-1.536237
255,4035988915,0.837805,-0.045745,-0.439264,0.320994,-0.296515,-0.015039,-1.974783
256,4036022249,0.832633,-0.059625,-0.440936,0.329763,-0.380559,-0.076152,-2.827193
257,4036055583,0.823704,-0.078563,-0.445483,0.341882,-0.608210,-0.839925,-2.404086
258,4036088917,0.809396,-0.101885,-0.454351,0.357859,-0.360388,-1.091843,-2.930647
259,4036122251,0.789369,-0.131511,-0.465625,0.377881,0.472771,-1.368115,-2.659039
260,4036155585,0.765919,-0.168347,-0.472904,0.401733,0.978820,-2.129998,-1.358296
261,4036188919,0.740568,-0.210784,-0.471445,0.429963,1.031194,-3.099463,0.349661
262,4036222253,0.712559,-0.255738,-0.463288,0.460676,1.603104,-3.577075,1.749393
263,4036255587,0.682525,-0.300326,-0.450935,0.490532,2.168966,-3.725569,3.470422
264,4036288921,0.654121,-0.340139,-0.434700,0.517172,1.433345,-2.719974,5.523043
265,4036322255,0.626485,-0.364005,-0.424924,0.542638,0.000033,-2.273297,4.709962
266,4036355589,0.593539,-0.363438,-0.433958,0.572105,-0.223990,-1.828507,3.338714
267,4036388923,0.555522,-0.344140,-0.455058,0.604884,0.572897,-0.026077,1.966037
268,4036422257,0.519024,-0.319949,-0.474540,0.634869,0.336267,2.044199,1.188404
269,4036455591,0.488764,-0.300145,-0.485729,0.659613,-0.442916,2.864131,0.565825