sep=,
DeviceTag:,D_Leg
FirmwareVersion:,2.2.1
AppVersion:,2023.6.0
SyncStatus:,Synced
OutputRate:,30Hz
FilterProfile:,General
Measurement Mode:,Sensor fusion Mode - Complete(Quaternion)
StartTime: ,2026-08-21_17:49:07_081 AEST
© Movella Technologies B. V. 2005-2026

PacketCounter,SampleTimeFine,Quat_W,Quat_X,Quat_Y,Quat_Z,FreeAcc_X,FreeAcc_Y,FreeAcc_Z
1,2107490014,-0.704195,-0.114931,0.697903,-0.062039,0.017802,-0.300970,0.259091
2,2107523348,-0.709577,-0.113995,0.692833,-0.059205,-0.418778,-0.081392,0.203437
3,2107556682,-0.715809,-0.112988,0.686824,-0.056033,0.002322,-0.338007,0.333730
4,2107590016,-0.721691,-0.111716,0.681053,-0.053531,1.174575,-0.725425,0.292087
5,2107623350,-0.726195,-0.112795,0.676119,-0.052892,0.343210,0.121107,-0.136300
6,2107656684,-0.732835,-0.111994,0.669291,-0.049767,-0.461261,-0.008899,0.538117
7,2107690018,-0.741579,-0.110748,0.659950,-0.047737,-0.412344,-1.273611,0.287045
8,2107723352,-0.749066,-0.114069,0.650563,-0.051697,1.079740,-0.701805,-0.169789
9,2107756686,-0.755453,-0.119777,0.641641,-0.057086,-0.092719,-0.061280,-0.056294
10,2107790020,-0.762739,-0.125205,0.631398,-0.062493,-0.128963,0.081290,0.290756
11,2107823354,-0.769932,-0.131982,0.620517,-0.069003,-0.014375,-0.633020,-0.256602
12,2107856688,-0.776848,-0.139012,0.609591,-0.074824,-0.152695,1.175690,0.020178
13,2107890022,-0.784599,-0.140927,0.598969,-0.076129,-0.112073,0.590312,-0.099025
14,2107923356,-0.791953,-0.141044,0.589154,-0.076369,-0.198591,-0.009519,-0.264587
15,2107956690,-0.798512,-0.141695,0.579885,-0.077787,-0.341268,-0.023802,-0.178340
16,2107990024,-0.803769,-0.142481,0.572322,-0.078226,-0.384184,-0.084104,0.186114
17,2108023358,-0.809453,-0.141873,0.564427,-0.078077,0.117700,0.137260,-0.316447
18,2108056692,-0.816139,-0.142288,0.554473,-0.079044,-0.588473,-0.312171,-0.434123
19,2108090026,-0.822791,-0.144182,0.543831,-0.080574,-0.189690,0.387520,-0.104593
20,2108123360,-0.828550,-0.145549,0.534518,-0.081417,0.137154,0.489170,0.089139
21,2108156694,-0.834849,-0.144943,0.525057,-0.079695,0.870621,0.186941,-0.065115
22,2108190028,-0.841403,-0.143430,0.515180,-0.077939,0.757136,-0.302801,0.038327
23,2108223362,-0.846953,-0.140857,0.506937,-0.076563,0.727316,0.087574,0.876085
24,2108256696,-0.851819,-0.139626,0.499209,-0.075609,1.188402,0.146972,0.478699
25,2108290030,-0.856116,-0.140328,0.491778,-0.074459,-0.005569,-0.966826,0.765131
26,2108323364,-0.859346,-0.138819,0.486858,-0.072378,0.627110,0.288480,0.677160
27,2108356698,-0.862277,-0.134110,0.483167,-0.071125,0.759658,-0.466215,0.390421
28,2108390032,-0.864975,-0.130651,0.479295,-0.071004,0.047756,-0.235869,0.042418
29,2108423366,-0.867241,-0.131076,0.475023,-0.071295,0.123953,-0.053585,-0.361174
30,2108456700,-0.869216,-0.131881,0.471178,-0.071263,-0.369302,0.523897,0.132593
31,2108490034,-0.871037,-0.131061,0.468024,-0.071337,-0.435418,-0.032394,0.004722
32,2108523368,-0.872675,-0.130203,0.465207,-0.071303,-0.597921,0.340245,-0.218206
33,2108556702,-0.874356,-0.129454,0.462313,-0.070902,-0.433656,0.005631,-0.161180
34,2108590036,-0.876280,-0.129900,0.458580,-0.070572,-0.391834,-0.263280,-0.239885
35,2108623370,-0.878366,-0.130876,0.454325,-0.070361,-0.309741,-0.267073,-0.342764
36,2108656704,-0.881077,-0.132515,0.448482,-0.070887,0.028248,-0.958323,-0.445580
37,2108690038,-0.884293,-0.135243,0.441042,-0.072352,-0.296040,-0.865321,-0.525926
38,2108723372,-0.887518,-0.137764,0.433385,-0.074349,-0.045798,-0.245579,-0.374786
39,2108756706,-0.890898,-0.141834,0.424485,-0.077542,0.186589,-0.300481,0.065476
40,2108790040,-0.895290,-0.145478,0.413329,-0.080427,0.141750,-0.374423,0.069024
41,2108823374,-0.899596,-0.148902,0.402182,-0.082594,0.042704,-0.006325,0.113517
42,2108856708,-0.903957,-0.152561,0.390418,-0.084716,0.048846,0.047869,0.031496
43,2108890042,-0.909117,-0.155990,0.376207,-0.087518,0.042501,-0.397374,-0.454327
44,2108923376,-0.914524,-0.158136,0.361568,-0.089020,0.112846,-0.233959,-0.342953
45,2108956710,-0.919611,-0.161066,0.346813,-0.090064,0.191229,-0.168628,-0.092055
46,2108990044,-0.924724,-0.165256,0.330410,-0.091776,0.400597,-0.035796,-0.007607
47,2109023378,-0.929825,-0.168086,0.314148,-0.092201,0.672677,0.370191,0.152263
48,2109056712,-0.934830,-0.170465,0.298013,-0.090778,0.517894,0.295350,0.255150
49,2109090046,-0.939554,-0.171534,0.282883,-0.088364,-0.647881,0.157440,0.069842
50,2109123380,-0.943922,-0.169515,0.270161,-0.085478,-0.083249,-0.193999,-0.020067
51,2109156714,-0.947993,-0.166653,0.258495,-0.082057,-0.201189,-0.084410,0.176387
52,2109190048,-0.951557,-0.164982,0.247199,-0.078924,0.292789,0.467663,-0.078898
53,2109223382,-0.955112,-0.163137,0.235339,-0.076027,0.559312,0.485052,0.303025
54,2109256716,-0.958446,-0.162148,0.223145,-0.072887,0.463849,-0.022945,0.106367
55,2109290050,-0.961350,-0.163265,0.210388,-0.070036,0.798759,0.044573,0.212603
56,2109323384,-0.964230,-0.163274,0.197768,-0.067129,0.059675,-0.058803,0.343412
57,2109356718,-0.967043,-0.162369,0.185208,-0.064649,0.442321,-0.583465,-0.328081
58,2109390052,-0.969690,-0.161431,0.172253,-0.063146,0.294765,-0.484627,-0.386584
59,2109423386,-0.972194,-0.160551,0.158870,-0.061969,0.005577,-0.140865,-0.321959
60,2109456720,-0.974544,-0.160044,0.144708,-0.061053,-0.283110,-0.360789,-0.256634
61,2109490054,-0.976756,-0.158231,0.131408,-0.060487,-0.539664,-0.753109,-0.291818
62,2109523388,-0.979001,-0.154542,0.118661,-0.060085,-0.087000,-0.210691,-0.377508
63,2109556722,-0.981146,-0.150496,0.105393,-0.060103,-0.418135,-0.800632,-0.204877
64,2109590056,-0.982939,-0.147152,0.092235,-0.060712,-0.062857,-0.183642,-0.162159
65,2109623390,-0.984687,-0.142333,0.079875,-0.061403,0.019153,-0.038169,0.006130
66,2109656724,-0.986236,-0.136977,0.068153,-0.062835,-0.293571,-0.768693,0.222230
67,2109690058,-0.987356,-0.132706,0.057484,-0.065036,0.122654,-0.140720,-0.089725
68,2109723392,-0.988632,-0.126220,0.047473,-0.066628,0.157350,0.309014,0.634260
69,2109756726,-0.989535,-0.120965,0.038894,-0.068505,0.197642,-0.223005,0.243025
70,2109790060,-0.990284,-0.115930,0.030558,-0.070577,0.256633,-0.352144,0.549012
71,2109823394,-0.990759,-0.111968,0.023135,-0.073082,0.544957,-0.524314,0.292203
72,2109856728,-0.991111,-0.107755,0.016247,-0.076420,0.577186,0.357307,0.242839
73,2109890062,-0.991364,-0.103859,0.009629,-0.079592,-0.019104,0.374463,0.126483
74,2109923396,-0.991677,-0.099694,0.003378,-0.081510,-0.392406,-0.246880,-0.000674
75,2109956730,-0.991957,-0.095924,-0.002222,-0.082652,-0.159500,-0.837388,-0.059284
76,2109990064,-0.992215,-0.092055,-0.006924,-0.083687,0.283052,-0.579024,-0.365141
77,2110023398,-0.992462,-0.088235,-0.012401,-0.084239,0.264480,-0.284214,0.308717
78,2110056732,-0.992619,-0.085400,-0.017315,-0.084443,0.311255,-0.368233,0.108401
79,2110090066,-0.992611,-0.084342,-0.022307,-0.084434,0.081703,-0.363461,0.046217
80,2110123400,-0.992669,-0.082256,-0.026711,-0.084538,0.339041,-0.716814,0.135462
81,2110156734,-0.992603,-0.080827,-0.031471,-0.085045,0.202810,-0.555992,-0.031271
82,2110190068,-0.992433,-0.080303,-0.036395,-0.085554,0.004620,-0.154509,-0.177455
83,2110223402,-0.992333,-0.079089,-0.041139,-0.085704,-0.043005,0.043135,-0.039731
84,2110256736,-0.992202,-0.078096,-0.045996,-0.085658,0.107278,-0.131652,-0.063483
85,2110290070,-0.992011,-0.077028,-0.051890,-0.085468,0.317213,-0.223613,0.416205
86,2110323404,-0.991735,-0.076177,-0.057041,-0.086147,0.318431,-0.472269,0.326190
87,2110356738,-0.991340,-0.075766,-0.061844,-0.087730,0.319316,0.310249,0.069885
88,2110390072,-0.991088,-0.072974,-0.066898,-0.089221,-0.020296,0.539189,0.301614
89,2110423406,-0.990795,-0.070734,-0.071666,-0.090569,-0.431199,-0.066071,0.039207
90,2110456740,-0.990548,-0.068443,-0.075740,-0.091707,0.095527,-0.101095,-0.050080
91,2110490074,-0.990354,-0.066782,-0.078637,-0.092589,-0.273781,-0.336903,0.127347
92,2110523408,-0.990250,-0.065631,-0.080174,-0.093198,-0.353400,-0.470701,-0.163486
93,2110556742,-0.990257,-0.064363,-0.080543,-0.093696,-0.244159,-0.410012,-0.043816
94,2110590076,-0.990340,-0.062482,-0.081050,-0.093647,-0.163686,-0.386525,0.241308
95,2110623410,-0.990457,-0.061572,-0.080784,-0.093243,-0.229138,-0.213139,-0.096432
96,2110656744,-0.990665,-0.061143,-0.079383,-0.092514,-0.084756,-0.131135,0.020019
97,2110690078,-0.990881,-0.061603,-0.077704,-0.091317,-0.110349,-0.494628,0.055530
98,2110723412,-0.991189,-0.062940,-0.074281,-0.089902,-0.149960,-0.253395,0.721787
99,2110756746,-0.991765,-0.063880,-0.067529,-0.088195,0.233842,-0.229993,1.509775
100,2110790080,-0.992338,-0.065143,-0.057908,-0.087663,1.197557,-1.200475,1.745511
101,2110823414,-0.992676,-0.069205,-0.044442,-0.088583,0.809302,-0.507595,2.024837
102,2110856748,-0.992779,-0.074482,-0.026293,-0.090372,-0.876993,-0.870744,1.736579
103,2110890082,-0.992474,-0.080956,-0.004369,-0.091863,-0.718238,-0.834012,1.153127
104,2110923416,-0.991333,-0.091520,0.019661,-0.092272,-0.614334,-0.779075,0.115239
105,2110956750,-0.989143,-0.104853,0.045651,-0.092386,-0.371379,0.034455,0.299128
106,2110990084,-0.986195,-0.116855,0.072705,-0.092167,-0.233988,0.120815,-0.386918
107,2111023418,-0.982601,-0.126912,0.099669,-0.092039,-0.036623,-0.416286,-0.457775
108,2111056752,-0.978232,-0.136076,0.126188,-0.092942,0.143482,-0.044847,-0.253366
109,2111090086,-0.973576,-0.141845,0.151944,-0.094651,0.992505,-0.367187,-0.791797
110,2111123420,-0.968679,-0.147817,0.174572,-0.096710,0.734101,0.139179,-0.079159
111,2111156754,-0.963296,-0.152783,0.197265,-0.099098,-0.056281,0.174900,-0.563105
112,2111190088,-0.957444,-0.156594,0.220378,-0.101138,-0.170109,-0.042175,-0.246896
113,2111223422,-0.951485,-0.160197,0.241957,-0.102405,0.209781,-0.122774,-0.256989
114,2111256756,-0.945726,-0.162338,0.261759,-0.103674,0.033582,0.000271,-0.457692
115,2111290090,-0.940050,-0.163224,0.280610,-0.104585,0.354274,0.132132,-0.234069
116,2111323424,-0.934602,-0.162948,0.298367,-0.104694,0.504924,0.015886,0.088633
117,2111356758,-0.928806,-0.162623,0.316064,-0.104847,0.605088,-0.103983,-0.395485
118,2111390092,-0.923384,-0.161220,0.332421,-0.104321,0.230539,-0.024724,-0.424312
119,2111423426,-0.918438,-0.160515,0.346185,-0.104302,0.224464,-0.470391,-0.205458
120,2111456760,-0.913023,-0.161125,0.359794,-0.104843,0.139320,-0.172718,-0.380322
121,2111490094,-0.908265,-0.160877,0.371876,-0.104394,-0.028381,-0.147086,-0.089299
122,2111523428,-0.903533,-0.158535,0.384581,-0.103002,0.142849,0.132227,-0.143447
123,2111556762,-0.898430,-0.156641,0.397339,-0.102108,0.633323,-0.181190,-0.252669
124,2111590096,-0.893809,-0.155105,0.408536,-0.100815,0.396350,-0.286265,-0.159713
125,2111623430,-0.889058,-0.153594,0.419674,-0.099372,0.485878,-0.530508,0.251664
126,2111656764,-0.884934,-0.150744,0.429613,-0.098071,0.468650,-0.033332,0.206264
127,2111690098,-0.880658,-0.147229,0.439880,-0.096370,0.249385,-0.240492,-0.062418
128,2111723432,-0.876353,-0.144795,0.449512,-0.094846,0.251124,-0.336842,0.062122
129,2111756766,-0.872434,-0.142958,0.457941,-0.093430,0.059977,-0.028255,-0.438472
130,2111790100,-0.868072,-0.142805,0.466288,-0.093011,0.065646,-0.318914,-0.148199
131,2111823434,-0.863652,-0.142745,0.474408,-0.093188,0.671665,-0.351422,0.485381
132,2111856768,-0.859760,-0.141361,0.481916,-0.092754,-0.173127,0.159613,-0.505838
133,2111890102,-0.856202,-0.140100,0.488661,-0.092293,0.127594,0.023119,-0.305322
134,2111923436,-0.852529,-0.139337,0.495327,-0.091914,0.052689,-0.109190,0.133692
135,2111956770,-0.849181,-0.138888,0.501211,-0.091683,-0.270917,-0.231430,-0.322751
136,2111990104,-0.845582,-0.138632,0.507441,-0.091061,-0.164290,-0.233217,-0.299674
137,2112023438,-0.842055,-0.138317,0.513398,-0.090835,0.043087,-0.011723,0.173707
138,2112056772,-0.839094,-0.137126,0.518618,-0.090389,0.245892,-0.041091,-0.015143
139,2112090106,-0.836101,-0.136232,0.523760,-0.089824,0.071660,0.052168,0.230454
140,2112123440,-0.832689,-0.134736,0.529807,-0.088298,0.003169,-0.139964,0.119812
141,2112156774,-0.829370,-0.132558,0.535877,-0.086182,0.136545,-0.015760,-0.010513
142,2112190108,-0.826106,-0.128044,0.542601,-0.082189,0.081430,0.272875,0.070943
143,2112223442,-0.822920,-0.122131,0.549593,-0.076489,0.049666,-0.190824,-0.040914
144,2112256776,-0.820186,-0.117833,0.555069,-0.072981,0.648376,-1.495538,-0.276681
145,2112290110,-0.817423,-0.117800,0.559126,-0.073062,0.386347,-1.498042,0.145136
146,2112323444,-0.814116,-0.121060,0.562868,-0.075872,0.437293,-0.448439,0.040985
147,2112356778,-0.811146,-0.122608,0.566502,-0.078107,-0.013786,-0.357871,0.185178
148,2112390112,-0.808333,-0.124170,0.569833,-0.080545,0.314408,0.133008,0.202581
149,2112423446,-0.805200,-0.126177,0.573424,-0.083266,-0.065019,0.299693,0.223363
150,2112456780,-0.802451,-0.127705,0.576677,-0.084994,-0.016238,0.216760,0.454467
151,2112490114,-0.799972,-0.128047,0.579942,-0.085630,0.262108,0.027499,-0.259008
152,2112523448,-0.796675,-0.128596,0.584316,-0.085809,0.547635,-0.026991,-0.361646
153,2112556782,-0.793493,-0.128705,0.588679,-0.085306,-0.037063,-0.050686,0.428714
154,2112590116,-0.790631,-0.128620,0.592580,-0.085002,0.683935,-0.417961,-0.065603
155,2112623450,-0.787543,-0.129545,0.596415,-0.085440,0.342130,-0.356992,-0.041323
156,2112656784,-0.783867,-0.131009,0.600792,-0.086342,0.167602,-0.016793,0.262627
157,2112690118,-0.780218,-0.131990,0.605256,-0.086725,0.198507,0.123355,0.090524
158,2112723452,-0.776877,-0.132897,0.609274,-0.087191,0.268417,-0.232288,0.044506
159,2112756786,-0.773912,-0.132636,0.613222,-0.086274,0.028319,-0.075993,0.089319
160,2112790120,-0.771416,-0.132215,0.616581,-0.085328,-0.150847,-0.397204,0.203163
161,2112823454,-0.769274,-0.132094,0.619335,-0.084913,0.508842,-0.382947,-0.090517
162,2112856788,-0.767039,-0.132934,0.621877,-0.085241,-0.188033,-0.214665,0.114083
163,2112890122,-0.764926,-0.133938,0.624205,-0.085635,0.075895,-0.044386,0.265669
164,2112923456,-0.763356,-0.134391,0.626039,-0.085549,0.548415,0.087171,-0.182709
165,2112956790,-0.760926,-0.134769,0.628953,-0.085232,-0.023865,0.159932,0.385257
166,2112990124,-0.759082,-0.133606,0.631616,-0.083797,0.077703,-0.373361,0.328716
167,2113023458,-0.757814,-0.132596,0.633477,-0.082826,0.371784,-0.614437,0.011150
168,2113056792,-0.756249,-0.132845,0.635267,-0.083019,0.265186,-0.316429,0.085520
169,2113090126,-0.753763,-0.134707,0.637555,-0.085064,0.334334,-0.178063,0.104775
170,2113123460,-0.751117,-0.136691,0.639980,-0.087067,-0.181992,0.151469,0.434595
171,2113156794,-0.749182,-0.137487,0.641994,-0.087664,0.241466,-0.075767,0.050670
172,2113190128,-0.747079,-0.137026,0.644630,-0.086975,-0.060612,-0.061143,-0.020028
173,2113223462,-0.744327,-0.136650,0.647986,-0.086234,0.154506,-0.123188,0.140628
174,2113256796,-0.741526,-0.137710,0.650898,-0.086738,0.242847,-0.426486,0.161470
175,2113290130,-0.738410,-0.139363,0.653927,-0.087895,0.033719,-0.223022,0.033800
176,2113323464,-0.735836,-0.140572,0.656470,-0.088599,0.023916,-0.177398,0.133470
177,2113356798,-0.733436,-0.141615,0.658848,-0.089175,0.196470,-0.154871,-0.081772
178,2113390132,-0.731181,-0.142523,0.661035,-0.090065,-0.091736,0.195734,0.434399
179,2113423466,-0.728820,-0.143075,0.663500,-0.090195,0.387800,0.011064,0.068795
180,2113456800,-0.725819,-0.142905,0.666897,-0.089610,-0.024929,-0.015543,0.282580
181,2113490134,-0.722888,-0.142241,0.670336,-0.088700,0.108394,-0.346576,0.214650
182,2113523468,-0.720009,-0.142241,0.673413,-0.088804,0.075567,-0.467698,0.075152
183,2113556802,-0.717165,-0.143722,0.675941,-0.090220,0.033695,-0.336809,0.141309
184,2113590136,-0.714081,-0.145475,0.678569,-0.092126,0.476079,0.020569,0.364330
185,2113623470,-0.710267,-0.147183,0.681905,-0.094234,0.408888,0.351833,0.234159
186,2113656804,-0.705575,-0.147393,0.686640,-0.094774,0.530285,0.440370,-0.008269
187,2113690138,-0.701681,-0.145301,0.691247,-0.093414,0.015088,-0.244165,0.151885
188,2113723472,-0.698838,-0.142538,0.694990,-0.091188,-0.583143,-0.707658,0.229538
189,2113756806,-0.697038,-0.141487,0.697050,-0.090870,-0.524018,-0.710877,0.004148
190,2113790140,-0.695357,-0.142866,0.698193,-0.092793,-0.339431,-0.519571,0.191401
191,2113823474,-0.694849,-0.145081,0.697882,-0.095465,-0.379824,-0.190064,0.267340