sep=,
DeviceTag:,D_Leg
FirmwareVersion:,2.2.1
AppVersion:,2023.6.0
SyncStatus:,Synced
OutputRate:,30Hz
FilterProfile:,General
Measurement Mode:,Sensor fusion Mode - Complete(Quaternion)
StartTime: ,2026-09-07_17:26:52_860 AEST
© Movella Technologies B. V. 2005-2026

PacketCounter,SampleTimeFine,Quat_W,Quat_X,Quat_Y,Quat_Z,FreeAcc_X,FreeAcc_Y,FreeAcc_Z
1,315496258,-0.513831,0.395954,0.624008,0.435711,1.738509,0.366445,0.894918
2,315529592,-0.515983,0.394166,0.627067,0.430364,0.584643,0.181231,0.701812
3,315562926,-0.519013,0.392745,0.628059,0.426557,0.437842,-0.400786,0.133632
4,315596260,-0.519269,0.395511,0.625541,0.427389,0.766517,-1.135148,0.542534
5,315629594,-0.517511,0.401282,0.620208,0.431891,0.164714,-1.010167,-0.183615
6,315662928,-0.515742,0.406538,0.615933,0.435196,-0.401089,-0.864139,-0.148355
7,315696262,-0.516780,0.408895,0.614728,0.433456,-1.413751,-0.422265,-0.372739
8,315729596,-0.520060,0.407871,0.617160,0.426995,-1.134959,-0.344456,0.455550
9,315762930,-0.523207,0.405772,0.619573,0.421622,-0.425294,0.515551,0.043525
10,315796264,-0.526103,0.402697,0.623289,0.415444,-0.170936,0.611549,0.268306
11,315829598,-0.528915,0.399822,0.626556,0.409696,0.198216,0.672528,0.149935
12,315862932,-0.530530,0.398644,0.628467,0.405811,0.582646,0.570127,0.036979
13,315896266,-0.531209,0.399272,0.628350,0.404485,0.631206,0.466830,0.366367
14,315929600,-0.531016,0.401924,0.625746,0.406145,0.199299,0.037478,0.197854
15,315962934,-0.528777,0.406929,0.621596,0.410431,-0.187614,-0.632946,0.041245
16,315996268,-0.525519,0.413031,0.616374,0.416354,-0.195484,-0.879030,0.158039
17,316029602,-0.522589,0.419198,0.610039,0.423153,-0.376123,-0.770758,-0.016796
18,316062936,-0.519632,0.425409,0.603608,0.429765,-0.499239,-0.802842,0.000376
19,316096270,-0.516391,0.432288,0.596933,0.436085,-0.204092,-0.435633,0.097745
20,316129604,-0.512294,0.439970,0.589872,0.442792,-0.297207,-0.225357,0.255710
21,316162938,-0.507422,0.448058,0.582124,0.450478,0.212955,-0.319153,0.250379
22,316196272,-0.502656,0.455919,0.574260,0.457966,-0.007092,-0.329491,0.177589
23,316229606,-0.499248,0.462397,0.566233,0.465138,-0.249161,0.114975,0.267872
24,316262940,-0.497246,0.467383,0.557546,0.472731,0.138655,0.637923,0.408488
25,316296274,-0.495177,0.472259,0.547660,0.481531,0.349166,0.763848,0.388613
26,316329608,-0.492068,0.477565,0.538106,0.490179,0.779120,-0.044054,0.160758
27,316362942,-0.487223,0.484137,0.528275,0.499182,0.716392,-0.470453,-0.041684
28,316396276,-0.482986,0.490431,0.519300,0.506520,-0.233304,-0.328313,-0.267903
29,316429610,-0.480935,0.494892,0.512665,0.510873,-0.496279,-0.113174,-0.279602
30,316462944,-0.478962,0.498517,0.507161,0.514680,-0.422450,0.618361,0.029275
31,316496278,-0.476165,0.501949,0.503679,0.517353,-0.298698,1.032983,0.176819
32,316529612,-0.474435,0.504015,0.504263,0.516363,-0.625459,1.544887,0.049807
33,316562946,-0.475378,0.503502,0.508709,0.511613,-0.128199,1.431604,0.183307
34,316596280,-0.477921,0.500824,0.514443,0.506110,0.485614,1.042622,0.436450
35,316629614,-0.481309,0.496878,0.520101,0.500980,0.287725,0.753744,0.215634
36,316662948,-0.485532,0.492328,0.525304,0.495944,-0.316678,0.370618,0.093088
37,316696282,-0.490843,0.487115,0.530328,0.490486,-0.504592,0.052149,0.095288
38,316729616,-0.496379,0.481500,0.536072,0.484175,-0.337908,-0.240773,0.010723
39,316762950,-0.500314,0.476462,0.542460,0.477953,0.552577,-0.805242,0.220572
40,316796284,-0.501382,0.473802,0.547342,0.473895,0.228474,-0.527027,0.181616
41,316829618,-0.502939,0.471578,0.551467,0.469663,-0.669129,0.022139,0.023088
42,316862952,-0.506400,0.467339,0.556210,0.464561,-0.442038,0.097101,0.423592
43,316896286,-0.510247,0.462386,0.561515,0.458890,-0.470223,0.557466,-0.077470
44,316929620,-0.514838,0.455920,0.569803,0.449928,-0.819334,0.749543,-0.045074
45,316962954,-0.519071,0.448439,0.580399,0.438904,-0.224468,0.270543,0.198751
46,316996288,-0.523396,0.440414,0.590537,0.428242,-0.078709,0.211731,0.244547
47,317029622,-0.527284,0.433045,0.599231,0.418806,0.793826,-0.134002,0.356482
48,317062956,-0.529090,0.428544,0.605393,0.412243,0.780095,-0.232699,0.039813
49,317096290,-0.530211,0.425543,0.610116,0.406915,0.302619,-0.304247,0.054510
50,317129624,-0.532003,0.422576,0.614430,0.401136,-0.153268,-0.183913,0.206337
51,317162958,-0.533959,0.419448,0.618575,0.395408,-0.447384,-0.187615,0.137533
52,317196292,-0.535408,0.415901,0.623082,0.390085,-0.461786,-0.187184,0.103492
53,317229626,-0.537076,0.411558,0.628216,0.384118,-0.204214,-0.230448,0.188307
54,317262960,-0.538329,0.407949,0.632844,0.378577,0.106333,-0.108053,0.128475
55,317296294,-0.538647,0.405726,0.636348,0.374619,0.371850,0.106524,0.158107
56,317329628,-0.538328,0.404837,0.638434,0.372484,0.224726,0.325382,0.118819
57,317362962,-0.537275,0.405277,0.639301,0.372038,0.064736,0.284304,0.198669
58,317396296,-0.535366,0.407053,0.638867,0.373594,0.076578,0.081532,0.263016
59,317429630,-0.533142,0.409410,0.637484,0.376550,0.008835,-0.324833,0.186132
60,317462964,-0.530571,0.412559,0.635022,0.380880,-0.073415,-0.529842,0.010315
61,317496298,-0.527440,0.416783,0.631488,0.386463,-0.075851,-0.584216,0.090384
62,317529632,-0.523229,0.422302,0.626868,0.393651,-0.116309,-0.609728,0.130299
63,317562966,-0.518918,0.427706,0.622380,0.400584,-0.170458,-0.388255,0.021031
64,317596300,-0.514838,0.432801,0.618333,0.406598,-0.188832,-0.226078,0.106205
65,317629634,-0.510839,0.437700,0.614134,0.412715,-0.104727,0.026842,0.231884
66,317662968,-0.507103,0.442152,0.609758,0.419017,-0.050218,0.177304,0.200759
67,317696302,-0.503615,0.446229,0.605479,0.425064,0.240628,0.170659,0.159086
68,317729636,-0.499770,0.450673,0.600826,0.431467,0.367939,0.030527,0.208142
69,317762970,-0.496252,0.455213,0.595659,0.437879,0.341613,-0.218095,0.263442
70,317796304,-0.493199,0.459955,0.589961,0.444045,0.140091,-0.277277,0.227739
71,317829638,-0.490239,0.464803,0.583766,0.450414,0.119407,-0.212603,0.198329
72,317862972,-0.487303,0.469571,0.577305,0.456935,0.148801,-0.134760,0.104315
73,317896306,-0.484495,0.474212,0.570788,0.463272,-0.006608,0.064106,0.157450
74,317929640,-0.482099,0.478261,0.564837,0.468868,-0.307682,0.428234,0.008349
75,317962974,-0.480231,0.481197,0.560720,0.472708,-0.229276,0.469181,0.093843
76,317996308,-0.478120,0.483454,0.558199,0.475521,-0.007413,0.482949,0.002543
77,318029642,-0.477046,0.484468,0.557381,0.476526,-0.209201,0.499136,0.101446
78,318062976,-0.477315,0.483973,0.557941,0.476104,0.127918,0.490953,0.137490
79,318096310,-0.477766,0.483065,0.559094,0.475220,0.179646,0.511724,0.133861
80,318129644,-0.478931,0.481443,0.560604,0.473913,0.039315,0.681312,0.080541
81,318162978,-0.481473,0.478610,0.562690,0.471728,-0.056753,0.683875,0.192025
82,318196312,-0.484265,0.475142,0.565259,0.469299,0.147061,0.329316,0.155717
83,318229646,-0.486604,0.471649,0.567869,0.467248,0.012339,0.073612,0.111659
84,318262980,-0.488597,0.468428,0.570307,0.465435,-0.165113,-0.291411,0.107149
85,318296314,-0.490456,0.465545,0.572599,0.463557,-0.258038,-0.675030,0.085505
86,318329648,-0.491910,0.463261,0.574825,0.461544,-0.235470,-0.882755,-0.034681
87,318362982,-0.493049,0.461403,0.577334,0.459050,-0.393557,-0.751011,-0.023669
88,318396316,-0.494400,0.459387,0.580831,0.455193,-0.467064,-0.644157,0.024942
89,318429650,-0.496260,0.456889,0.585561,0.449589,-0.511076,-0.384349,0.026898
90,318462984,-0.498260,0.453916,0.591519,0.442533,-0.235183,-0.290023,0.080989
91,318496318,-0.500349,0.450265,0.598093,0.435005,-0.004364,0.108535,0.146081
92,318529652,-0.502738,0.445983,0.604989,0.427054,0.131308,0.531225,0.110502
93,318562986,-0.505280,0.441251,0.611862,0.419103,0.197001,0.742692,0.223452
94,318596320,-0.507719,0.436237,0.618695,0.411300,0.154259,0.697719,0.233141
95,318629654,-0.510866,0.430187,0.626028,0.402588,-0.363140,0.529288,0.034361
96,318662988,-0.515839,0.421462,0.635060,0.391166,-0.394710,0.014526,0.145492
97,318696322,-0.521616,0.411335,0.644296,0.378992,0.055050,0.116727,0.307728
98,318729656,-0.525840,0.402920,0.652256,0.368432,0.062064,0.082003,0.183122
99,318762990,-0.528182,0.396746,0.658367,0.360835,0.479706,0.062140,0.179118
100,318796324,-0.529419,0.392231,0.663052,0.355337,0.326839,0.143634,0.135159
101,318829658,-0.530693,0.388002,0.667381,0.349936,0.153487,0.135298,0.273737
102,318862992,-0.532249,0.384039,0.670603,0.345758,-0.410898,0.236241,0.152243
103,318896326,-0.534658,0.378594,0.674192,0.341035,0.045486,-0.129089,0.234563
104,318929660,-0.536685,0.374009,0.676865,0.337597,0.312700,-0.344783,0.165671
105,318962994,-0.537673,0.371744,0.677716,0.336821,0.550322,-0.606270,0.206389
106,318996328,-0.537960,0.371386,0.677154,0.337886,0.515597,-0.731742,0.076798
107,319029662,-0.537205,0.373157,0.675366,0.340703,0.260556,-0.742425,0.173469
108,319062996,-0.535778,0.376232,0.672713,0.344791,-0.132663,-0.526606,0.101579
109,319096330,-0.534443,0.379141,0.669801,0.349316,-0.110905,-0.312077,0.176027
110,319129664,-0.533369,0.381664,0.667055,0.353440,-0.053744,-0.017208,0.123372
111,319162998,-0.532019,0.384319,0.664407,0.357562,0.049294,0.100165,0.149751
112,319196332,-0.530583,0.387022,0.661703,0.361770,0.115380,0.297955,0.154609
113,319229666,-0.529272,0.389491,0.659361,0.365300,-0.035744,0.273644,0.078417
114,319263000,-0.528037,0.391493,0.657579,0.368147,0.015671,0.065767,0.147815
115,319296334,-0.526726,0.393625,0.655767,0.370973,-0.057927,-0.015873,0.084854
116,319329668,-0.524982,0.396193,0.653828,0.374122,0.039135,-0.086314,0.078813
117,319363002,-0.522496,0.399710,0.651283,0.378278,0.025180,-0.068742,0.171676
118,319396336,-0.519681,0.403697,0.648213,0.383162,-0.045169,-0.013553,0.097694
119,319429670,-0.516853,0.407623,0.645206,0.387876,-0.180592,-0.139446,0.138349
120,319463004,-0.514268,0.411418,0.642253,0.392184,-0.156784,-0.164202,0.127134
121,319496338,-0.511704,0.415127,0.638916,0.397049,0.035445,-0.199900,0.142100
122,319529672,-0.508931,0.418956,0.635180,0.402548,0.168336,-0.344895,0.231974
123,319563006,-0.506152,0.423145,0.630903,0.408354,0.127174,-0.426633,0.159316
124,319596340,-0.503563,0.427629,0.625837,0.414630,0.089873,-0.405544,0.244086
125,319629674,-0.501105,0.432315,0.620076,0.421351,0.116085,-0.248853,0.114121
126,319663008,-0.498541,0.437161,0.614114,0.428069,-0.049257,-0.191166,0.136910
127,319696342,-0.495881,0.441987,0.608284,0.434480,-0.100687,-0.066992,0.057248
128,319729676,-0.493151,0.446535,0.603025,0.440229,-0.063919,0.138076,0.038638
129,319763010,-0.491030,0.450217,0.598908,0.444450,-0.299247,0.407308,0.065951
130,319796344,-0.490013,0.452560,0.596207,0.446818,-0.087482,0.431212,0.209813
131,319829678,-0.489192,0.454178,0.594232,0.448703,0.151776,0.559473,0.161725
132,319863012,-0.488747,0.455158,0.592777,0.450118,0.312594,0.518960,0.180230
133,319896346,-0.488754,0.455716,0.591524,0.451192,0.226066,0.419999,0.093195
134,319929680,-0.488947,0.455997,0.590630,0.451870,0.113491,0.203440,0.162449
135,319963014,-0.489233,0.456003,0.590331,0.451945,-0.165142,0.068864,0.094948
136,319996348,-0.489464,0.455766,0.590604,0.451577,-0.217173,0.022165,0.083375
137,320029682,-0.489726,0.455296,0.591209,0.450976,-0.174419,0.020031,0.063758
138,320063016,-0.490369,0.454378,0.592199,0.449902,-0.138016,0.023936,0.059033
139,320096350,-0.491277,0.453189,0.593561,0.448313,-0.073369,-0.048455,0.102985
140,320129684,-0.492167,0.452157,0.594890,0.446614,-0.012205,-0.199364,0.167102
141,320163018,-0.492898,0.451406,0.596041,0.445031,-0.002450,-0.263097,0.141516
142,320196352,-0.493652,0.450711,0.597145,0.443415,0.049718,-0.137243,0.079476
143,320229686,-0.494339,0.449980,0.598592,0.441438,0.167731,0.048521,0.059303
144,320263020,-0.495063,0.449100,0.600720,0.438623,0.146780,0.139651,0.299527
145,320296354,-0.495997,0.448004,0.603021,0.435520,0.284774,0.336714,0.282654
146,320329688,-0.497130,0.446827,0.604915,0.432801,0.371220,0.486495,0.268803
147,320363022,-0.498676,0.445393,0.606373,0.430455,0.238403,0.492055,0.158869
148,320396356,-0.500302,0.443766,0.607766,0.428280,-0.110183,0.405664,0.133205
149,320429690,-0.501783,0.441852,0.609621,0.425882,-0.373273,0.307215,0.124016
150,320463024,-0.504125,0.438867,0.611901,0.422924,-0.720798,0.543616,0.010612
151,320496358,-0.507429,0.434095,0.615229,0.419050,-0.391604,0.291703,0.017447
152,320529692,-0.511542,0.427745,0.619603,0.414105,-0.213931,-0.040238,0.163398
153,320563026,-0.516235,0.420577,0.625025,0.407423,-0.287370,-0.137715,-0.002232
154,320596360,-0.520774,0.413279,0.631113,0.399655,0.084595,-0.211087,0.055682
155,320629694,-0.524849,0.406702,0.636789,0.391994,0.028874,-0.155018,0.085269
156,320663028,-0.527686,0.401241,0.641714,0.385732,-0.162117,-0.143121,0.130230
157,320696362,-0.530083,0.396021,0.646728,0.379415,-0.011435,-0.142872,0.190378
158,320729696,-0.531989,0.391338,0.651582,0.373251,0.158305,-0.104565,0.212656
159,320763030,-0.532982,0.387956,0.655387,0.368675,0.309415,-0.181230,0.179498
160,320796364,-0.533395,0.385849,0.657943,0.365724,-0.155206,-0.074066,0.104919
161,320829698,-0.534087,0.383516,0.660404,0.362720,0.047005,-0.173093,0.235384
162,320863032,-0.534849,0.381326,0.662319,0.360406,0.326974,-0.124958,0.156857
163,320896366,-0.535675,0.379734,0.663216,0.359209,0.427912,-0.222556,0.203084
164,320929700,-0.536183,0.379469,0.662544,0.359972,0.597221,-0.386884,0.235440
165,320963034,-0.535805,0.381205,0.660538,0.362378,0.433733,-0.409012,0.116258
166,320996368,-0.534845,0.384095,0.657933,0.365470,0.155163,-0.468118,0.141643
167,321029702,-0.533904,0.387169,0.654908,0.369018,-0.142411,-0.290572,0.195428
168,321063036,-0.533540,0.389456,0.652055,0.372178,-0.381941,-0.142888,0.078221
169,321096370,-0.532934,0.391513,0.649918,0.374618,-0.214295,-0.175794,0.021672
170,321129704,-0.531551,0.394011,0.648247,0.376852,-0.105700,-0.190920,0.072447
171,321163038,-0.529800,0.396873,0.646660,0.379036,-0.165606,-0.036790,0.107211
172,321196372,-0.527699,0.400048,0.645147,0.381199,-0.122450,0.023136,0.152383
173,321229706,-0.525434,0.403236,0.643677,0.383448,-0.020959,0.277534,0.144597
174,321263040,-0.523118,0.406509,0.641720,0.386427,0.033901,0.311834,0.119564
175,321296374,-0.520616,0.410136,0.638979,0.390495,0.197374,0.108492,0.168365
176,321329708,-0.517858,0.414302,0.635611,0.395232,0.206749,-0.178842,0.176527
177,321363042,-0.514903,0.418914,0.631572,0.400668,0.102743,-0.280572,0.184789
178,321396376,-0.512278,0.423217,0.627411,0.406013,-0.075835,-0.287945,0.141743
179,321429710,-0.510037,0.427056,0.623389,0.410980,-0.180490,-0.350749,0.140388
180,321463044,-0.507863,0.430702,0.619659,0.415485,-0.202664,-0.292852,0.089694
181,321496378,-0.505717,0.434377,0.616230,0.419357,-0.233753,-0.189231,0.041737
182,321529712,-0.503470,0.438005,0.613149,0.422789,-0.049253,-0.122317,0.144574
183,321563046,-0.501439,0.441356,0.610151,0.426043,0.057231,-0.020914,0.191268
184,321596380,-0.499666,0.444475,0.607161,0.429143,0.059775,0.086528,0.168195
185,321629714,-0.498305,0.447320,0.604037,0.432168,0.273111,0.217163,0.155306
186,321663048,-0.497246,0.450111,0.600594,0.435277,0.413133,0.291280,0.252418
187,321696382,-0.495974,0.453265,0.596693,0.438807,0.336922,0.206420,0.188807
188,321729716,-0.494771,0.456500,0.592539,0.442424,0.210747,0.141804,0.173232
189,321763050,-0.493089,0.460104,0.588118,0.446450,0.189869,0.056032,0.010324
190,321796384,-0.490405,0.464138,0.583985,0.450635,-0.044013,-0.010491,-0.024005
191,321829718,-0.487399,0.467816,0.581554,0.453232,-0.406456,0.085520,-0.019145
192,321863052,-0.485281,0.470261,0.581047,0.453624,-0.655095,0.556160,0.101769
193,321896386,-0.484434,0.471229,0.581865,0.452473,-0.554776,0.792189,0.284222
194,321929720,-0.484368,0.471038,0.583369,0.450803,0.058979,0.510349,0.193003
195,321963054,-0.484406,0.470453,0.584632,0.449736,0.350002,0.319648,0.136332
196,321996388,-0.485318,0.469450,0.585716,0.448388,0.318836,-0.129982,0.144905
197,322029722,-0.486190,0.468809,0.585763,0.448053,0.233610,-0.558557,0.192389
198,322063056,-0.487254,0.468498,0.584914,0.448332,-0.190833,-0.478439,0.163041
199,322096390,-0.488532,0.468154,0.584211,0.448216,-0.358898,-0.153115,-0.015957
200,322129724,-0.489947,0.467184,0.584721,0.447017,-0.432431,0.185383,0.036414
201,322163058,-0.491879,0.464965,0.586896,0.444352,-0.340255,0.536452,0.070120
202,322196392,-0.494978,0.461083,0.590910,0.439611,-0.307805,0.712582,0.067660
203,322229726,-0.498621,0.456125,0.595943,0.433835,0.059612,0.487970,0.198299
204,322263060,-0.502427,0.450738,0.600917,0.428174,0.172628,0.303444,0.129215
205,322296394,-0.506163,0.445280,0.605519,0.422971,0.176718,0.085562,0.151814
206,322329728,-0.509844,0.440110,0.609574,0.418109,0.007912,-0.059429,0.216046
207,322363062,-0.513318,0.435332,0.613211,0.413517,-0.019882,-0.205435,0.176148
208,322396396,-0.516457,0.430941,0.616456,0.409360,-0.142901,-0.234623,0.073208
209,322429730,-0.520094,0.425876,0.620142,0.404460,-0.132302,-0.269905,0.134628
210,322463064,-0.523413,0.421061,0.623952,0.399329,-0.016881,-0.273170,0.114635
211,322496398,-0.525674,0.417252,0.627775,0.394333,-0.157436,-0.346697,0.091531
212,322529732,-0.527413,0.413968,0.631519,0.389463,-0.126458,-0.296544,0.125943
213,322563066,-0.528942,0.410845,0.635183,0.384711,0.021537,-0.190477,0.127585
214,322596400,-0.530119,0.408018,0.638806,0.380071,-0.107703,-0.090642,0.085112
215,322629734,-0.531459,0.404903,0.642625,0.375061,-0.189374,-0.012229,0.172162
216,322663068,-0.532926,0.401435,0.646561,0.369907,-0.057236,0.052400,0.119513
217,322696402,-0.534382,0.397838,0.650265,0.365170,0.161308,0.115081,0.272252
218,322729736,-0.535916,0.394470,0.653276,0.361179,0.283216,0.159761,0.171835
219,322763070,-0.537457,0.391510,0.655499,0.358070,0.199356,0.022873,0.133314
220,322796404,-0.538801,0.389281,0.656881,0.355940,0.288772,-0.187690,0.218699
221,322829738,-0.539345,0.388659,0.656965,0.355642,0.111233,-0.348866,0.197394
222,322863072,-0.539253,0.389338,0.655842,0.357110,0.178663,-0.424448,0.198156
223,322896406,-0.539060,0.390820,0.653760,0.359590,-0.116370,-0.328379,0.107151
224,322929740,-0.538993,0.392333,0.651390,0.362333,-0.346991,-0.197174,0.080429
225,322963074,-0.538688,0.393643,0.649305,0.365098,-0.093152,-0.254702,0.092134
226,322996408,-0.538049,0.395431,0.647102,0.368008,-0.309009,-0.054785,0.168242
227,323029742,-0.536901,0.397381,0.645036,0.371198,-0.002146,0.160641,0.023236
228,323063076,-0.535691,0.399288,0.643139,0.374177,0.147066,0.251190,0.256747
229,323096410,-0.533943,0.402085,0.640587,0.378038,0.137651,0.489600,0.165671
230,323129744,-0.531299,0.406030,0.636989,0.383587,0.277385,0.545393,0.228751
231,323163078,-0.528574,0.410436,0.632597,0.389880,0.226846,0.377837,0.235224
232,323196412,-0.525607,0.415176,0.627517,0.397015,-0.026424,0.162488,0.114092
233,323229746,-0.522244,0.420204,0.622338,0.404251,-0.073096,-0.136509,0.083091
234,323263080,-0.519095,0.424855,0.617479,0.410842,-0.178364,-0.198896,0.090378
235,323296414,-0.516252,0.428922,0.613126,0.416675,-0.189268,-0.352415,0.039671
236,323329748,-0.513788,0.432395,0.609141,0.421943,-0.000389,-0.371563,0.266258
237,323363082,-0.511633,0.435862,0.604582,0.427515,0.424140,-0.517965,0.274839
238,323396416,-0.508300,0.441220,0.597806,0.435451,0.763236,-0.765060,0.198056
239,323429750,-0.504063,0.448418,0.588811,0.445170,0.129429,-0.541503,0.065533
240,323463084,-0.500424,0.455347,0.580064,0.453644,-0.436306,-0.295121,0.041144
241,323496418,-0.497124,0.461219,0.572593,0.460776,-0.530617,0.356258,0.037250
242,323529752,-0.494244,0.465568,0.567562,0.465699,-0.394768,0.673262,0.140236
243,323563086,-0.491984,0.468204,0.564563,0.469082,-0.286053,0.922341,0.148171
244,323596420,-0.491062,0.469115,0.563392,0.470544,0.191594,0.711585,0.106506
245,323629754,-0.490301,0.469630,0.562983,0.471313,0.498353,0.397898,0.111416
246,323663088,-0.489844,0.469984,0.562728,0.471739,0.347932,0.226495,0.184784
247,323696422,-0.489861,0.470050,0.562451,0.471985,-0.055972,0.136526,0.148881
248,323729756,-0.490081,0.469861,0.562512,0.471874,-0.244553,0.044599,0.086625
249,323763090,-0.490699,0.469183,0.563269,0.471002,-0.262337,-0.083403,-0.022403
250,323796424,-0.491600,0.467961,0.564790,0.469454,-0.136376,-0.149681,0.085813
251,323829758,-0.492950,0.466219,0.566804,0.467340,0.038842,0.053436,0.156992
252,323863092,-0.495022,0.463929,0.569301,0.464384,0.056739,0.213753,0.130794
253,323896426,-0.497433,0.461148,0.572506,0.460622,-0.005194,0.279317,0.115519
254,323929760,-0.500116,0.457725,0.576632,0.455960,-0.173388,0.509434,0.086616
255,323963094,-0.503164,0.453327,0.581888,0.450289,-0.032614,0.603244,0.187288
256,323996428,-0.506351,0.448175,0.587744,0.444227,0.323822,0.561148,0.229722
257,324029762,-0.509702,0.442546,0.593268,0.438660,0.204967,0.687369,0.223350
258,324063096,-0.513579,0.436433,0.598832,0.432660,-0.016486,0.337854,0.172890
259,324096430,-0.517758,0.430182,0.604847,0.425516,-0.027140,-0.335322,0.109654
260,324129764,-0.521096,0.425036,0.609805,0.419491,0.012540,-0.572292,0.078351
261,324163098,-0.523594,0.420945,0.614149,0.414136,-0.200588,-0.475422,-0.014732
262,324196432,-0.525718,0.417108,0.619131,0.407862,-0.443645,-0.621937,0.006457
263,324229766,-0.527543,0.413118,0.625461,0.399828,-0.550573,-0.575238,-0.069730
264,324263100,-0.529035,0.408811,0.633176,0.390021,-0.407599,-0.407603,0.053269
265,324296434,-0.530092,0.404342,0.641105,0.380169,0.014441,-0.006970,0.205902
266,324329768,-0.531214,0.399873,0.648123,0.371325,0.116385,0.459128,0.315010
267,324363102,-0.532365,0.395845,0.653813,0.363945,0.352330,0.875250,0.290728
268,324396436,-0.533564,0.392333,0.658106,0.358210,0.446303,0.966531,0.265588
269,324429770,-0.534746,0.389516,0.660974,0.354219,0.656434,0.542422,0.280998
270,324463104,-0.535761,0.387909,0.662273,0.352014,0.358693,-0.049270,0.260377
271,324496438,-0.536380,0.387649,0.661909,0.352044,0.090376,-0.385833,0.262646
272,324529772,-0.536665,0.388227,0.660388,0.353824,-0.061773,-0.478443,0.175838
273,324563106,-0.536997,0.389006,0.658532,0.355916,-0.180877,-0.576085,0.107100
274,324596440,-0.537171,0.389964,0.656415,0.358508,0.004043,-0.498161,0.150407
275,324629774,-0.536671,0.391893,0.653594,0.362286,-0.059505,-0.327688,0.003945
276,324663108,-0.535398,0.394692,0.650494,0.366685,-0.125726,-0.331355,0.056533
277,324696442,-0.533624,0.397858,0.647348,0.371387,-0.013645,-0.269453,0.091538
278,324729776,-0.531460,0.401421,0.644127,0.376225,-0.021051,-0.147083,0.096124
279,324763110,-0.529302,0.405040,0.640802,0.381036,0.074117,-0.080842,0.205050
280,324796444,-0.527005,0.408952,0.637031,0.386327,0.208126,-0.201316,0.116592
281,324829778,-0.524452,0.413438,0.632666,0.392155,0.112109,-0.264210,0.102709
282,324863112,-0.521399,0.418670,0.627656,0.398671,0.048446,-0.382889,0.184006
283,324896446,-0.518014,0.424462,0.621907,0.405905,-0.090200,-0.314358,0.123550
284,324929780,-0.514223,0.430583,0.616060,0.413131,-0.271773,-0.386762,0.048595
285,324963114,-0.510283,0.436504,0.610771,0.419603,-0.337372,-0.218530,0.035271
286,324996448,-0.506484,0.441961,0.606371,0.424842,-0.353738,0.018677,0.071192
287,325029782,-0.502984,0.446715,0.602789,0.429104,-0.309443,0.320390,0.104165
288,325063116,-0.499911,0.450680,0.599887,0.432602,0.052432,0.437606,0.203897
289,325096450,-0.497129,0.454261,0.597119,0.435881,0.276984,0.549641,0.219532
290,325129784,-0.494333,0.457764,0.593898,0.439777,0.486854,0.423325,0.324284
291,325163118,-0.491929,0.461311,0.589678,0.444422,0.424516,0.123509,0.183753
292,325196452,-0.489694,0.464919,0.584420,0.450041,0.279882,-0.167517,0.203125
293,325229786,-0.487588,0.468406,0.579013,0.455664,-0.057602,-0.227121,0.056044
294,325263120,-0.485865,0.471338,0.574640,0.459997,-0.374861,-0.126524,0.004941
295,325296454,-0.484569,0.473498,0.571862,0.462601,-0.341363,0.056819,-0.033376
296,325329788,-0.483909,0.474520,0.571118,0.463164,-0.268669,0.279533,0.018632
297,325363122,-0.483789,0.474576,0.572132,0.461978,0.027287,0.462706,0.070242
298,325396456,-0.484037,0.474019,0.574188,0.459735,0.041160,0.527618,0.159665
299,325429790,-0.484704,0.472913,0.576728,0.456982,-0.042149,0.561781,0.099254
300,325463124,-0.485943,0.471023,0.579937,0.453544,0.010888,0.427226,0.108258
301,325496458,-0.487154,0.468806,0.583461,0.450009,-0.121347,0.341716,0.103477
302,325529792,-0.488738,0.466064,0.587400,0.445998,-0.224600,0.120075,0.156434
303,325563126,-0.490534,0.463020,0.591453,0.441822,-0.052615,-0.151903,0.153147
304,325596460,-0.492196,0.460151,0.595191,0.437933,0.113708,-0.213030,0.070421
305,325629794,-0.493824,0.457331,0.598816,0.434096,0.037446,-0.101539,0.192535
306,325663128,-0.495922,0.453993,0.602826,0.429633,0.039934,-0.090584,0.176392
307,325696462,-0.498231,0.450297,0.607271,0.424561,-0.174459,0.075039,0.037522
308,325729796,-0.500853,0.445854,0.612377,0.418794,-0.334420,0.207247,0.135944
309,325763130,-0.504130,0.440257,0.618169,0.412222,-0.300982,0.309242,0.113823
310,325796464,-0.507809,0.433618,0.624726,0.404792,-0.176858,0.250267,0.111735
311,325829798,-0.511505,0.426513,0.631574,0.396984,0.114431,0.084024,0.207819
312,325863132,-0.514868,0.419853,0.637927,0.389508,0.068545,0.087151,0.087843
313,325896466,-0.518109,0.413147,0.644373,0.381692,-0.337456,-0.085301,0.108943
314,325929800,-0.522090,0.405303,0.651549,0.372382,-0.396437,-0.137755,0.060117
315,325963134,-0.525950,0.397158,0.658989,0.362503,-0.205980,-0.125096,0.167931
316,325996468,-0.529161,0.389379,0.665964,0.353408,0.016294,-0.024715,0.171366
317,326029802,-0.532555,0.381636,0.672197,0.344853,0.187469,0.021991,0.215656
318,326063136,-0.535705,0.374734,0.677444,0.337189,0.509849,0.191617,0.163595
319,326096470,-0.538234,0.369234,0.681527,0.330943,0.477056,0.263337,0.171795
320,326129804,-0.540635,0.364687,0.684442,0.326019,0.266546,0.087877,0.238474
321,326163138,-0.542715,0.361137,0.686244,0.322712,0.347328,0.067546,0.180184
322,326196472,-0.544348,0.358627,0.687055,0.321031,0.278951,-0.055748,0.194384
323,326229806,-0.545805,0.356825,0.687113,0.320439,0.290732,-0.293759,0.185519
324,326263140,-0.546852,0.356089,0.686448,0.320898,0.130670,-0.528337,0.081212
325,326296474,-0.547314,0.356312,0.685346,0.322215,0.153997,-0.678227,0.141895
326,326329808,-0.547191,0.357527,0.683836,0.324281,0.076530,-0.769242,0.155221
327,326363142,-0.546546,0.359675,0.681779,0.327309,-0.075176,-0.787287,0.078505
328,326396476,-0.545515,0.362257,0.679690,0.330511,-0.008417,-0.840221,0.098002
329,326429810,-0.543772,0.365769,0.677390,0.334218,-0.010502,-0.776307,0.104830
330,326463144,-0.541563,0.369950,0.674879,0.338257,-0.115948,-0.563668,0.002467
331,326496478,-0.539147,0.374265,0.672534,0.342020,-0.221917,-0.337470,-0.014731
332,326529812,-0.536332,0.378753,0.670543,0.345397,-0.129127,-0.228764,0.090686
333,326563146,-0.533265,0.383375,0.668614,0.348770,0.014626,0.089938,0.143117
334,326596480,-0.530530,0.387835,0.666416,0.352200,0.316251,0.349122,0.218038
335,326629814,-0.527851,0.392873,0.663146,0.356784,0.285420,0.357447,0.178915
336,326663148,-0.524908,0.398720,0.658805,0.362633,0.295628,0.138118,0.249708
337,326696482,-0.521823,0.405210,0.653445,0.369524,0.110860,0.167962,0.228207
338,326729816,-0.518923,0.411688,0.647416,0.376985,-0.162179,0.239385,0.142792
339,326763150,-0.516263,0.417740,0.641364,0.384254,-0.131780,0.113045,0.184356
340,326796484,-0.513545,0.423443,0.635540,0.391265,-0.203327,0.066991,0.090993
341,326829818,-0.511133,0.428422,0.630258,0.397499,-0.151633,0.040831,0.149635
342,326863152,-0.509204,0.432896,0.625016,0.403362,0.157979,-0.036247,0.234253
343,326896486,-0.507119,0.437568,0.619308,0.409701,0.246727,0.042200,0.152937
344,326929820,-0.504708,0.442728,0.613112,0.416399,0.198394,-0.045560,0.120270
345,326963154,-0.501802,0.448475,0.606451,0.423456,0.098300,-0.142895,0.116719
346,326996488,-0.498619,0.454338,0.599848,0.430316,-0.056444,0.018529,0.095488
347,327029822,-0.495980,0.459284,0.594131,0.436008,-0.191949,0.265968,0.060381
348,327063156,-0.494002,0.463022,0.589735,0.440248,-0.141968,0.338743,0.068100
349,327096490,-0.492397,0.465839,0.586735,0.443074,-0.224374,0.451503,0.077975
350,327129824,-0.491350,0.467647,0.585136,0.444444,-0.091729,0.507338,0.115925
351,327163158,-0.490831,0.468750,0.584569,0.444602,0.018575,0.550714,0.105400
352,327196492,-0.490674,0.469148,0.584871,0.443957,0.067452,0.546711,0.120230
353,327229826,-0.490975,0.468713,0.586009,0.442580,-0.059778,0.410134,0.125343
354,327263160,-0.491466,0.467708,0.587723,0.440823,-0.121958,0.124292,0.151421
355,327296494,-0.492180,0.466349,0.589599,0.438958,-0.125657,-0.162791,0.137582
356,327329828,-0.492930,0.465080,0.591007,0.437566,0.121491,-0.420562,0.185543
357,327363162,-0.493194,0.464594,0.591519,0.437095,-0.007054,-0.408691,0.103493
358,327396496,-0.493636,0.464301,0.591754,0.436588,-0.153718,-0.351357,0.037502
359,327429830,-0.493954,0.464147,0.592087,0.435939,-0.243523,-0.104805,0.101011
360,327463164,-0.494674,0.463399,0.592982,0.434700,-0.306324,0.222692,0.128151
361,327496498,-0.496037,0.461534,0.595149,0.432162,-0.140214,0.225675,0.147605
362,327529832,-0.498006,0.458608,0.598541,0.428311,-0.260559,0.310289,0.079204
363,327563166,-0.500827,0.454399,0.603012,0.423206,-0.267784,0.470276,0.054085
364,327596500,-0.504253,0.448989,0.608402,0.417154,-0.185244,0.583670,0.068974
365,327629834,-0.508679,0.442124,0.614742,0.409753,-0.089991,0.590964,0.118711
366,327663168,-0.513122,0.434867,0.621520,0.401674,0.004843,0.203652,0.212360
367,327696502,-0.517025,0.428002,0.628522,0.393056,-0.035773,-0.266488,0.159875
368,327729836,-0.520303,0.421766,0.634992,0.384989,0.003512,-0.176943,0.096901
369,327763170,-0.523454,0.415534,0.641216,0.377097,0.024865,-0.060312,0.057868
370,327796504,-0.526351,0.409103,0.647898,0.368579,0.028282,-0.135729,0.164616
371,327829838,-0.528918,0.402788,0.654827,0.359503,-0.190139,-0.062367,0.167695
372,327863172,-0.531164,0.396733,0.661290,0.350994,0.095416,0.102225,0.172088
373,327896506,-0.533198,0.391313,0.666532,0.344010,0.278425,0.431303,0.294509
374,327929840,-0.534847,0.386885,0.670557,0.338592,0.188826,0.411880,0.137326
375,327963174,-0.535940,0.383452,0.673862,0.334180,0.266839,0.162843,0.174593
376,327996508,-0.536995,0.380679,0.676141,0.331039,0.126842,0.111772,0.134361
377,328029842,-0.538273,0.378017,0.677847,0.328515,-0.066845,-0.030794,0.096225
378,328063176,-0.539355,0.375466,0.679652,0.325926,-0.132228,-0.298081,0.223018
379,328096510,-0.540096,0.373610,0.680863,0.324301,0.237630,-0.356282,0.253501
380,328129844,-0.540655,0.372794,0.680843,0.324350,0.526792,-0.334418,0.209072
381,328163178,-0.540718,0.373591,0.679354,0.326444,0.338066,-0.510304,0.161770
382,328196512,-0.540032,0.375744,0.677012,0.329955,0.013003,-0.699461,0.152791
383,328229846,-0.539010,0.378339,0.674255,0.334276,-0.253520,-0.492153,0.128736
384,328263180,-0.537948,0.380667,0.671779,0.338306,-0.235384,-0.463722,0.005138
385,328296514,-0.536786,0.382501,0.669975,0.341643,-0.073581,-0.460359,0.178704
386,328329848,-0.535471,0.384281,0.668527,0.344534,0.194561,-0.204606,0.094410
387,328363182,-0.533780,0.387067,0.666436,0.348072,0.472700,0.078302,0.212946
388,328396516,-0.531709,0.391157,0.663320,0.352592,0.522295,0.050277,0.058272
389,328429850,-0.529037,0.396593,0.658766,0.359018,0.242141,0.012814,0.158605
390,328463184,-0.526010,0.402892,0.653085,0.366750,0.108110,-0.234355,0.183474
391,328496518,-0.523067,0.409127,0.646937,0.374861,-0.266982,-0.126824,0.154034
392,328529852,-0.520616,0.414361,0.641359,0.382042,-0.558258,-0.171725,0.064951
393,328563186,-0.518352,0.418631,0.636749,0.388127,-0.319776,-0.169676,0.105247
394,328596520,-0.515611,0.422808,0.632729,0.393783,-0.251410,-0.172409,0.120970
395,328629854,-0.512489,0.427183,0.628722,0.399515,0.034936,-0.164187,0.131839
396,328663188,-0.508983,0.432101,0.624220,0.405720,0.238328,-0.175212,0.102663
397,328696522,-0.505370,0.437478,0.619145,0.412199,0.255879,-0.214810,0.158519
398,328729856,-0.501810,0.443164,0.613562,0.418770,-0.015184,-0.327942,0.154420
399,328763190,-0.498335,0.449014,0.607725,0.425149,-0.186023,-0.289032,0.095187
400,328796524,-0.494778,0.454847,0.601992,0.431218,-0.170479,-0.199561,0.093446
401,328829858,-0.491361,0.460153,0.596791,0.436689,-0.169943,0.116082,0.093276
402,328863192,-0.488690,0.464392,0.592689,0.440767,-0.187637,0.444291,0.056576
403,328896526,-0.486977,0.467193,0.590119,0.443144,-0.003348,0.663185,0.017300
404,328929860,-0.485994,0.468714,0.588924,0.444207,0.222271,0.751254,0.152930
405,328963194,-0.485670,0.469386,0.588657,0.444204,0.102019,0.779349,0.216434
406,328996528,-0.485831,0.469362,0.589032,0.443555,0.167670,0.511888,0.172017
407,329029862,-0.485933,0.469143,0.589558,0.442977,0.091625,0.291289,0.093575
408,329063196,-0.486332,0.468582,0.590361,0.442062,-0.095216,-0.024203,0.118283
409,329096530,-0.487039,0.467781,0.591147,0.441082,-0.088282,-0.277605,0.103661
410,329129864,-0.487841,0.467063,0.591815,0.440058,-0.108820,-0.351820,0.156241
411,329163198,-0.488858,0.466231,0.592563,0.438805,-0.073062,-0.193191,0.067833
412,329196532,-0.490368,0.464861,0.593796,0.436903,-0.089904,0.079963,0.092921
413,329229866,-0.492308,0.462780,0.596042,0.433860,-0.273099,0.314945,0.080534
414,329263200,-0.494828,0.459697,0.599451,0.429552,-0.240120,0.464822,0.173511
415,329296534,-0.497944,0.455490,0.603868,0.424213,-0.091808,0.505464,0.113211
416,329329868,-0.501035,0.450664,0.609001,0.418350,0.161855,0.354384,0.164921
417,329363202,-0.503804,0.445876,0.614213,0.412495,0.128176,0.321147,0.198310
418,329396536,-0.506076,0.441913,0.618527,0.407502,0.105760,0.314738,0.078757
419,329429870,-0.507882,0.438396,0.622458,0.403044,-0.102544,0.125002,0.092422
420,329463204,-0.509597,0.434721,0.626867,0.397995,-0.058193,-0.116041,0.156413
421,329496538,-0.511370,0.431029,0.631487,0.392394,-0.225275,-0.130976,0.079735
422,329529872,-0.513417,0.427075,0.635953,0.386791,0.076197,-0.244281,0.178724
423,329563206,-0.515299,0.423516,0.639647,0.382081,0.319478,-0.118735,0.191538
424,329596540,-0.517006,0.420369,0.643005,0.377588,-0.073210,0.124039,0.106130
425,329629874,-0.518991,0.416782,0.646811,0.372304,-0.300034,0.160324,0.152683
426,329663208,-0.520872,0.412801,0.650771,0.367175,0.003884,0.134213,0.118073
427,329696542,-0.522725,0.408796,0.654567,0.362244,-0.018923,0.030000,0.149213
428,329729876,-0.525019,0.404512,0.658156,0.357196,0.029228,-0.109888,0.115361
429,329763210,-0.527315,0.400566,0.661247,0.352523,0.212420,-0.253612,0.175558
430,329796544,-0.529019,0.397739,0.663371,0.349164,0.193743,-0.331905,0.233676
431,329829878,-0.530212,0.396125,0.664253,0.347508,0.170200,-0.329331,0.089394
432,329863212,-0.530633,0.395862,0.664022,0.347607,0.176314,-0.488066,0.209803
433,329896546,-0.530768,0.396418,0.662954,0.348805,-0.035116,-0.532310,0.105150
434,329929880,-0.530453,0.397793,0.661357,0.350743,-0.061662,-0.444167,0.039192
435,329963214,-0.529881,0.399350,0.659808,0.352749,-0.019086,-0.212910,0.079581
436,329996548,-0.529412,0.400595,0.658640,0.354222,-0.250947,0.039371,0.115704
437,330029882,-0.528409,0.402022,0.658030,0.355236,-0.064753,0.014375,0.144491
438,330063216,-0.526791,0.404084,0.657228,0.356781,0.091424,0.024191,0.140522
439,330096550,-0.524934,0.406740,0.655702,0.359296,0.216397,0.078783,0.148568
440,330129884,-0.522847,0.410076,0.653408,0.362713,0.200697,0.051423,0.201433
441,330163218,-0.520382,0.414138,0.650303,0.367195,0.016745,-0.050915,0.127227
442,330196552,-0.517494,0.418699,0.646621,0.372566,0.075154,-0.175727,0.190650
443,330229886,-0.514373,0.423656,0.642262,0.378774,0.121400,-0.189141,0.162724
444,330263220,-0.511153,0.428929,0.637175,0.385724,0.174972,-0.178881,0.247764
445,330296554,-0.508164,0.434167,0.631787,0.392616,0.247594,-0.279012,0.162847
446,330329888,-0.505305,0.439563,0.625928,0.399624,0.032066,-0.196273,0.151352
447,330363222,-0.503004,0.444491,0.620160,0.406016,-0.189685,-0.104100,0.143923
448,330396556,-0.501095,0.448599,0.615188,0.411387,-0.174688,-0.091162,0.124661
449,330429890,-0.499615,0.452033,0.610961,0.415705,-0.259325,0.077958,0.086522
450,330463224,-0.498253,0.455080,0.607367,0.419267,-0.086815,-0.020649,0.113974
451,330496558,-0.496617,0.458065,0.603957,0.422867,0.090688,0.162113,0.051761
452,330529892,-0.495129,0.460807,0.600951,0.425906,0.038118,0.357054,0.081496
453,330563226,-0.493820,0.463201,0.598362,0.428466,0.039458,0.506618,0.141514
454,330596560,-0.492988,0.464870,0.596620,0.430043,-0.131488,0.461942,0.128286
455,330629894,-0.492388,0.465823,0.595664,0.431022,0.028880,0.366264,0.105265
456,330663228,-0.492198,0.466183,0.595340,0.431299,-0.085534,0.284910,0.134606
457,330696562,-0.492640,0.465836,0.595699,0.430674,-0.097602,0.118993,0.066545
458,330729896,-0.493200,0.465037,0.596434,0.429877,-0.055582,0.085525,0.069606
459,330763230,-0.494194,0.463601,0.597739,0.428472,-0.215344,0.062549,0.122884
460,330796564,-0.495617,0.461488,0.599573,0.426542,-0.238265,0.091698,0.148123
461,330829898,-0.497606,0.458701,0.601851,0.424017,-0.099476,0.079934,0.063908
462,330863232,-0.499414,0.456037,0.604156,0.421479,0.087651,-0.024728,0.079843
463,330896566,-0.500599,0.454043,0.606336,0.419089,0.163803,-0.265175,0.277936
464,330929900,-0.501640,0.452386,0.608267,0.416832,0.010892,-0.001293,0.094636
465,330963234,-0.503307,0.449888,0.611080,0.413398,-0.295842,0.303099,0.020292
466,330996568,-0.505837,0.445713,0.615785,0.407813,-0.462354,0.252068,0.105895
467,331029902,-0.509412,0.439821,0.622170,0.399993,-0.896679,0.543470,-0.007179
468,331063236,-0.513635,0.432231,0.630085,0.390362,-0.695294,0.423080,0.091193
469,331096570,-0.518404,0.423231,0.638799,0.379608,-0.071327,0.158436,0.149207
470,331129904,-0.522736,0.414281,0.647388,0.368838,0.175928,-0.078934,0.148946
471,331163238,-0.526820,0.405699,0.655172,0.358681,0.404543,-0.041102,0.193131
472,331196572,-0.530251,0.398516,0.661286,0.350362,0.381857,0.088451,0.086320
473,331229906,-0.532877,0.392535,0.666404,0.343362,-0.018808,0.155093,0.186837
474,331263240,-0.535600,0.386208,0.671538,0.336223,-0.235729,0.143445,0.170467
475,331296574,-0.538642,0.379260,0.676688,0.328869,-0.072945,0.013541,0.174136
476,331329908,-0.541530,0.372586,0.681316,0.322129,0.273729,-0.101132,0.155730
477,331363242,-0.544084,0.366772,0.685145,0.316323,0.413677,-0.222292,0.190321
478,331396576,-0.546073,0.362398,0.687920,0.311884,0.473915,-0.285428,0.187852
479,331429910,-0.547198,0.359901,0.689454,0.309406,0.455414,-0.368451,0.198384
480,331463244,-0.547954,0.358675,0.689783,0.308759,0.415668,-0.352502,0.221965
481,331496578,-0.548373,0.358625,0.689103,0.309590,0.323263,-0.502509,0.154703
482,331529912,-0.548229,0.359906,0.687529,0.311851,0.132572,-0.629375,0.097677
483,331563246,-0.547716,0.361791,0.685592,0.314821,-0.008504,-0.539234,0.116519
484,331596580,-0.547059,0.363889,0.683500,0.318077,-0.024778,-0.249457,0.208438
485,331629914,-0.546067,0.366486,0.681046,0.322038,-0.031710,-0.042511,0.125607
486,331663248,-0.544747,0.369366,0.678610,0.326101,0.240197,-0.000631,0.157819
487,331696582,-0.543105,0.372914,0.675825,0.330554,0.336931,-0.018751,0.157053
488,331729916,-0.540952,0.377676,0.672202,0.336021,0.209724,-0.043054,0.189829
489,331763250,-0.538415,0.383391,0.667618,0.342696,-0.010384,-0.047052,0.138153
490,331796584,-0.535388,0.389602,0.662397,0.350475,-0.120722,-0.153328,0.067573
491,331829918,-0.532196,0.395743,0.656967,0.358585,-0.192792,-0.174772,0.124423
492,331863252,-0.529048,0.401566,0.651755,0.366200,-0.180631,-0.260751,0.082293
493,331896586,-0.526200,0.406888,0.646886,0.372997,-0.417629,-0.316900,0.136724
494,331929920,-0.523514,0.411581,0.642558,0.379061,-0.212306,-0.320287,0.194558
495,331963254,-0.521115,0.415686,0.638634,0.384480,-0.104980,-0.111721,0.133956
496,331996588,-0.519103,0.419331,0.634960,0.389298,0.060856,-0.064853,0.117052
497,332029922,-0.517400,0.422821,0.631307,0.393706,0.173298,-0.142250,0.188451
498,332063256,-0.515620,0.426623,0.627318,0.398289,0.144482,-0.059756,0.192904
499,332096590,-0.513661,0.430712,0.622959,0.403231,0.032972,0.065479,0.167477
500,332129924,-0.511783,0.434661,0.618656,0.407979,0.045037,0.030615,0.112767
501,332163258,-0.509878,0.438569,0.614400,0.412587,-0.006461,0.060481,0.075933
502,332196592,-0.508043,0.442143,0.610328,0.417056,-0.031869,0.274580,0.101868
503,332229926,-0.506403,0.445185,0.606590,0.421247,0.137588,0.325690,0.121289
504,332263260,-0.504278,0.448409,0.603082,0.425392,0.196807,0.077443,0.142014
505,332296594,-0.502112,0.451858,0.599997,0.428655,-0.012201,-0.298267,-0.000591
506,332329928,-0.500101,0.455255,0.596955,0.431648,-0.164836,-0.195069,0.116302
507,332363262,-0.498358,0.458198,0.594416,0.434047,-0.271931,0.197028,0.064757
508,332396596,-0.496995,0.460224,0.593376,0.434889,-0.325973,0.483372,0.058790
509,332429930,-0.496547,0.460904,0.594023,0.433796,-0.106555,0.504573,0.116483
510,332463264,-0.496681,0.460689,0.595510,0.431828,0.213917,0.564261,0.157431
511,332496598,-0.496872,0.460341,0.596593,0.430482,0.506708,0.519137,0.226930
512,332529932,-0.497270,0.460102,0.596953,0.429778,0.297757,0.356346,0.130758
513,332563266,-0.497940,0.459933,0.597003,0.429113,-0.109377,0.099384,0.180043
514,332596600,-0.498988,0.459162,0.597712,0.427733,-0.489253,0.030736,0.035596
515,332629934,-0.500795,0.456960,0.599967,0.424812,-0.531483,0.090232,0.093419
516,332663268,-0.503273,0.453421,0.603861,0.420132,-0.380261,0.132666,0.071572
517,332696602,-0.506020,0.449069,0.608985,0.414067,-0.003640,0.177292,0.046383
518,332729936,-0.508713,0.444516,0.614580,0.407360,0.054150,0.252626,0.155116
519,332763270,-0.511267,0.440105,0.619959,0.400748,0.227594,0.274374,0.202730
520,332796604,-0.513296,0.436262,0.624723,0.394914,0.295399,0.124876,0.237780
521,332829938,-0.514719,0.433180,0.628766,0.390008,0.337163,-0.067576,0.205037
522,332863272,-0.516012,0.430612,0.632159,0.385633,0.038311,0.012357,0.057777
523,332896606,-0.517570,0.427940,0.635697,0.380673,-0.270927,0.030623,0.036576
524,332929940,-0.519529,0.424426,0.640090,0.374529,-0.427559,-0.009623,0.142992
525,332963274,-0.521774,0.420001,0.645126,0.367692,-0.272467,0.122811,0.130390
526,332996608,-0.524077,0.415058,0.650432,0.360614,-0.256766,0.247158,0.110736
527,333029942,-0.526356,0.409832,0.655822,0.353438,-0.010425,0.216965,0.124112
528,333063276,-0.528848,0.404269,0.661066,0.346285,0.086943,0.227802,0.158045
529,333096610,-0.531630,0.398465,0.665984,0.339256,0.008852,0.141240,0.198402
530,333129944,-0.533917,0.393462,0.669998,0.333552,0.091988,-0.046690,0.247674
531,333163278,-0.535617,0.389692,0.672549,0.330102,0.383469,-0.208135,0.267137
532,333196612,-0.536738,0.387491,0.673416,0.329101,0.423896,-0.382756,0.200347
533,333229946,-0.537386,0.386742,0.673058,0.329657,0.224112,-0.660706,0.187314
534,333263280,-0.537373,0.387294,0.671780,0.331632,0.035395,-0.709412,0.134236
535,333296614,-0.537045,0.388436,0.669995,0.334426,-0.160392,-0.551959,0.079798
536,333329948,-0.536519,0.389801,0.668263,0.337135,-0.144530,-0.438679,0.001903
537,333363282,-0.535380,0.391698,0.666669,0.339892,0.002511,-0.303370,0.143038
538,333396616,-0.533940,0.393970,0.665002,0.342784,0.221863,-0.143333,0.115370
539,333429950,-0.532297,0.396732,0.662968,0.346081,0.261071,-0.044921,0.188017
540,333463284,-0.530326,0.400326,0.660148,0.350331,0.205987,0.070555,0.187092
541,333496618,-0.528045,0.404554,0.656588,0.355571,-0.018739,0.109088,0.125478
542,333529952,-0.525461,0.409157,0.652599,0.361427,-0.027881,-0.000665,0.161543
543,333563286,-0.522712,0.413787,0.648250,0.367911,-0.170014,-0.069365,0.153985
544,333596620,-0.520575,0.417681,0.644154,0.373689,-0.357397,-0.117581,0.103848
545,333629954,-0.518534,0.421132,0.640433,0.379011,-0.272650,-0.205614,0.089992
546,333663288,-0.516815,0.424071,0.637223,0.383468,0.009937,-0.185753,0.120829
547,333696622,-0.514901,0.427289,0.633818,0.388084,0.087247,-0.208951,0.154578
548,333729956,-0.512859,0.430862,0.629883,0.393213,0.180125,-0.169711,0.186424
549,333763290,-0.511037,0.434586,0.625544,0.398377,0.240969,-0.154434,0.213091
550,333796624,-0.509028,0.438821,0.620564,0.404055,0.267789,-0.163972,0.214385
551,333829958,-0.506837,0.443496,0.615060,0.410077,0.039182,-0.078790,0.082646
552,333863292,-0.504697,0.448014,0.609697,0.415775,-0.148484,-0.010481,0.139606
553,333896626,-0.502697,0.452036,0.605115,0.420511,-0.114962,0.086346,0.026321
554,333929960,-0.501005,0.455181,0.601577,0.424196,-0.285304,0.428621,0.039745
555,333963294,-0.500228,0.456834,0.599817,0.425826,-0.068533,0.460221,0.101007
556,333996628,-0.499282,0.458188,0.598650,0.427123,0.139272,0.579782,0.084099
557,334029962,-0.498690,0.458923,0.597978,0.427966,0.130822,0.653366,0.162229
558,334063296,-0.498752,0.458883,0.597893,0.428053,0.147785,0.555990,0.106145
559,334096630,-0.498935,0.458554,0.598215,0.427744,0.187560,0.240887,0.240574
560,334129964,-0.499133,0.458264,0.598308,0.427694,-0.013466,0.033206,0.070318
561,334163298,-0.499440,0.457842,0.598473,0.427556,-0.029153,-0.136372,0.152604
562,334196632,-0.499865,0.457316,0.598836,0.427114,-0.107337,-0.205493,0.102675
563,334229966,-0.500570,0.456515,0.599446,0.426289,-0.206702,-0.141728,0.059896
564,334263300,-0.501617,0.455307,0.600399,0.425007,-0.242571,-0.105993,0.132716
565,334296634,-0.503067,0.453724,0.601567,0.423331,-0.147908,-0.134789,0.129361
566,334329968,-0.504351,0.452273,0.602706,0.421733,0.188556,-0.281462,0.096723
567,334363302,-0.505387,0.451265,0.603309,0.420710,0.263431,-0.222236,0.159815
568,334396636,-0.506502,0.450644,0.603404,0.419897,0.177647,-0.130135,0.153878
569,334429970,-0.507518,0.450217,0.603595,0.418852,-0.040387,-0.058624,0.124381
570,334463304,-0.508618,0.449422,0.604526,0.417025,-0.215149,-0.019169,0.189824
571,334496638,-0.510020,0.448005,0.606149,0.414474,-0.387629,0.253198,-0.037325
572,334529972,-0.511713,0.445738,0.608740,0.411020,-0.448582,0.278033,-0.011465
573,334563306,-0.513483,0.442637,0.612570,0.406448,-0.194141,0.141268,0.116235
574,334596640,-0.514645,0.439621,0.617007,0.401511,0.173111,-0.080762,0.160270
575,334629974,-0.515425,0.437201,0.620778,0.397317,0.187948,0.058586,0.205834
576,334663308,-0.516898,0.434605,0.623847,0.393426,0.296365,0.154438,0.250060
577,334696642,-0.518768,0.431881,0.626490,0.389747,0.202674,0.461892,0.175711
578,334729976,-0.520882,0.428930,0.629285,0.385663,-0.176470,0.611154,0.111597
579,334763310,-0.522934,0.425558,0.632503,0.381334,-0.259723,0.554354,0.059855
580,334796644,-0.525010,0.421630,0.636376,0.376366,-0.468737,0.507203,0.088309
581,334829978,-0.527443,0.416729,0.641001,0.370531,-0.406258,0.381023,0.154710
582,334863312,-0.530041,0.411101,0.645764,0.364796,-0.135203,0.331206,0.195168
583,334896646,-0.532634,0.405300,0.650296,0.359420,-0.020993,0.174159,0.149373
584,334929980,-0.535219,0.399536,0.654481,0.354401,0.068234,-0.085912,0.193081
585,334963314,-0.537744,0.394330,0.657706,0.350417,0.356641,-0.179128,0.229986
586,334996648,-0.539728,0.390447,0.659453,0.348426,0.542508,-0.350763,0.224647
587,335029982,-0.541107,0.388241,0.659545,0.348577,0.584096,-0.569380,0.310921
588,335063316,-0.541835,0.388000,0.657881,0.350852,0.441749,-0.778748,0.137548
589,335096650,-0.542136,0.388931,0.655156,0.354436,0.105981,-0.755161,0.088681
590,335129984,-0.541800,0.390899,0.652116,0.358370,-0.184227,-0.576236,0.059892
591,335163318,-0.540548,0.393537,0.649361,0.362354,-0.346524,-0.374735,-0.043513
592,335196652,-0.538927,0.396035,0.647447,0.365458,-0.359521,-0.182224,0.136883
593,335229986,-0.537330,0.398006,0.646278,0.367730,-0.121032,0.132273,0.092766
594,335263320,-0.535906,0.399588,0.645715,0.369081,0.064772,0.228760,0.118600
595,335296654,-0.534464,0.401465,0.644802,0.370728,0.273000,0.218790,0.192569
596,335329988,-0.532516,0.404283,0.642716,0.374076,0.205102,0.228782,0.106855
597,335363322,-0.530154,0.407877,0.639651,0.378753,-0.022463,-0.017362,0.117271
598,335396656,-0.527075,0.412253,0.636083,0.384279,-0.113683,-0.288011,0.144240
599,335429990,-0.523569,0.416855,0.632566,0.389873,-0.184658,-0.390961,0.090360
600,335463324,-0.520377,0.421042,0.629225,0.395021,-0.187728,-0.325174,0.073469
601,335496658,-0.517400,0.424967,0.626163,0.399568,-0.062639,-0.341688,0.102097
602,335529992,-0.514429,0.428903,0.623342,0.403588,-0.053264,-0.324318,0.157932
603,335563326,-0.511452,0.432920,0.620511,0.407427,0.021587,-0.223577,0.112824
604,335596660,-0.508771,0.436817,0.617611,0.411016,0.026044,-0.087288,0.167770
605,335629994,-0.506609,0.440334,0.614738,0.414228,0.202451,0.061713,0.191002
606,335663328,-0.504771,0.443693,0.611659,0.417434,0.199967,0.215509,0.198732
607,335696662,-0.503243,0.446800,0.608383,0.420737,0.270376,0.305224,0.201602
608,335729996,-0.502123,0.449543,0.605084,0.423899,0.338108,0.285605,0.196033
609,335763330,-0.501149,0.452265,0.601822,0.426791,0.394651,0.073485,0.181357
610,335796664,-0.500245,0.455189,0.598105,0.429957,0.320290,0.064917,0.162793
611,335829998,-0.499159,0.458361,0.594072,0.433425,0.245015,0.091612,0.131903
612,335863332,-0.497753,0.461568,0.590466,0.436557,-0.060697,0.201517,0.025713
613,335896666,-0.496436,0.464135,0.588285,0.438275,-0.221184,0.299291,-0.000875
614,335930000,-0.495451,0.465827,0.587548,0.438583,-0.438343,0.506251,-0.040730
615,335963334,-0.495204,0.466265,0.588444,0.437194,-0.414446,0.406294,0.083929
616,335996668,-0.495490,0.465795,0.590448,0.434661,-0.131626,0.228621,0.152449
617,336030002,-0.496038,0.464923,0.592493,0.432180,-0.033886,0.208806,0.156518
618,336063336,-0.497056,0.463743,0.594169,0.429972,0.258042,-0.035624,0.209149
619,336096670,-0.498104,0.462881,0.595154,0.428322,0.209974,-0.136436,0.131363
620,336130004,-0.499295,0.462147,0.595802,0.426825,-0.077939,-0.129961,0.191909
621,336163338,-0.500798,0.461060,0.596668,0.425026,-0.051403,-0.083845,0.201812
622,336196672,-0.502305,0.459693,0.598097,0.422712,-0.097101,-0.016764,0.059896
623,336230006,-0.504170,0.457775,0.600320,0.419410,-0.273435,0.066948,0.097279
624,336263340,-0.506535,0.455138,0.603344,0.415069,-0.235658,0.192970,0.107613
625,336296674,-0.509230,0.451790,0.606966,0.410118,-0.188216,0.350808,0.162811
626,336330008,-0.512320,0.447769,0.610889,0.404821,0.091332,0.270809,0.187313
627,336363342,-0.515332,0.443704,0.614416,0.400108,0.305064,0.266329,0.218644
628,336396676,-0.518060,0.440158,0.617144,0.396285,0.329900,0.279499,0.147336
629,336430010,-0.520123,0.437597,0.619029,0.393469,0.209100,0.186088,0.116770
630,336463344,-0.521541,0.435771,0.620263,0.391671,-0.106500,0.132431,0.124050
631,336496678,-0.522738,0.433902,0.621834,0.389654,-0.298598,-0.013190,0.055586
632,336530012,-0.523952,0.431706,0.623991,0.387005,-0.306898,-0.085234,0.062406
633,336563346,-0.525211,0.429194,0.626689,0.383720,-0.206677,-0.178375,0.071355
634,336596680,-0.526265,0.426639,0.629877,0.379887,-0.127148,-0.199925,0.124669
635,336630014,-0.527152,0.424178,0.633287,0.375722,-0.070432,-0.098371,0.097951
636,336663348,-0.528241,0.421522,0.636786,0.371238,-0.062798,-0.083561,0.203563
637,336696682,-0.530001,0.418401,0.639788,0.367077,0.029326,0.286038,0.260072
638,336730016,-0.531947,0.415157,0.642324,0.363499,0.172858,0.126808,0.253407
639,336763350,-0.533521,0.412498,0.643958,0.361321,0.040320,-0.160725,0.101425
640,336796684,-0.534625,0.410842,0.644629,0.360380,0.100308,-0.249582,0.185267
641,336830018,-0.534746,0.410661,0.644220,0.361135,-0.111285,-0.104434,0.032581
642,336863352,-0.534180,0.410998,0.643606,0.362683,-0.096416,-0.191997,0.093788
643,336896686,-0.533621,0.411183,0.643088,0.364212,-0.050392,-0.182239,0.181354
644,336930020,-0.533090,0.411476,0.642623,0.365476,0.178386,-0.130176,0.128046
645,336963354,-0.532481,0.412296,0.641737,0.366994,0.321325,-0.125704,0.144127
646,336996688,-0.531144,0.414342,0.639871,0.369874,0.153726,-0.179564,0.160107
647,337030022,-0.529283,0.417245,0.637155,0.373944,-0.046216,-0.159307,0.131903
648,337063356,-0.527116,0.420481,0.634082,0.378575,-0.139541,-0.131821,0.149348
649,337096690,-0.524777,0.423670,0.631066,0.383279,-0.295080,-0.133213,0.067459
650,337130024,-0.522285,0.426747,0.628274,0.387830,-0.299215,-0.144994,0.134176
651,337163358,-0.519668,0.429649,0.625775,0.392157,-0.190657,-0.141477,0.097441
652,337196692,-0.516949,0.432531,0.623433,0.396291,-0.023545,-0.144282,0.076052
653,337230026,-0.514243,0.435528,0.621296,0.399869,-0.070076,-0.233398,0.162693
654,337263360,-0.511634,0.438632,0.619158,0.403128,0.023114,-0.231167,0.242887
655,337296694,-0.509199,0.441650,0.616795,0.406524,0.176943,-0.097619,0.175977
656,337330028,-0.507182,0.444303,0.614165,0.410118,0.282051,0.003571,0.141659
657,337363362,-0.505729,0.446564,0.611549,0.413354,0.264309,0.064648,0.160836
658,337396696,-0.504483,0.448824,0.608819,0.416447,0.204983,0.003960,0.191845
659,337430030,-0.502963,0.451467,0.605699,0.419964,0.262891,0.038886,0.140687
660,337463364,-0.501358,0.454322,0.602115,0.423939,0.216949,0.157193,0.148412
661,337496698,-0.499945,0.457027,0.598734,0.427474,0.105053,0.063095,0.163063
662,337530032,-0.498049,0.459877,0.595854,0.430642,0.326539,-0.221477,0.035149
663,337563366,-0.495254,0.462943,0.594010,0.433121,-0.384495,0.011932,-0.154255
664,337596700,-0.493660,0.464555,0.594663,0.432318,-1.059119,0.582241,0.087100
665,337630034,-0.493090,0.464752,0.596753,0.429869,-0.530072,0.809478,0.133727
666,337663368,-0.492587,0.463962,0.599137,0.427981,0.302546,0.700286,0.223884
667,337696702,-0.493217,0.462103,0.601718,0.425638,0.610893,0.468293,0.176154
668,337730036,-0.494628,0.459876,0.603933,0.423269,0.499595,-0.135555,0.254161
669,337763370,-0.496134,0.458149,0.604831,0.422095,0.284465,-0.258199,0.140607
670,337796704,-0.497448,0.456875,0.605056,0.421608,-0.189949,-0.302252,0.102510
671,337830038,-0.498976,0.455175,0.605715,0.420693,-0.586690,-0.242574,0.069746
672,337863372,-0.500960,0.452428,0.607779,0.418315,-0.327645,-0.274869,0.053938
673,337896706,-0.503393,0.448999,0.610803,0.414669,-0.159421,-0.094728,0.063213
674,337930040,-0.506093,0.445355,0.614203,0.410266,0.157428,-0.069295,0.164236
675,337963374,-0.508220,0.442361,0.617202,0.406357,0.307712,0.061424,0.172906
676,337996708,-0.509958,0.439951,0.619716,0.402955,0.195197,0.230449,0.162814
677,338030042,-0.511994,0.437383,0.622137,0.399423,0.136585,0.274242,0.189730
678,338063376,-0.514128,0.434659,0.624439,0.396049,-0.022288,0.271022,0.162309
679,338096710,-0.516614,0.431494,0.626885,0.392394,-0.239350,0.165215,0.098139
680,338130044,-0.519111,0.427957,0.629700,0.388443,-0.105928,-0.025861,0.093628
681,338163378,-0.521445,0.424301,0.632806,0.384259,-0.199400,0.092505,0.076208
682,338196712,-0.523606,0.420410,0.636450,0.379551,-0.137817,0.194143,0.065127
683,338230046,-0.525335,0.416556,0.640609,0.374377,-0.101603,0.213275,0.081625
684,338263380,-0.526362,0.413081,0.644941,0.369314,-0.109268,0.240860,0.102071
685,338296714,-0.527726,0.408846,0.649690,0.363714,-0.293242,0.380511,0.169711
686,338330048,-0.530258,0.402791,0.655510,0.356268,-0.124648,0.241282,0.152099
687,338363382,-0.533058,0.396303,0.661244,0.348690,0.046911,0.118283,0.190637
688,338396716,-0.535378,0.390704,0.665795,0.342743,0.245090,-0.059571,0.191218
689,338430050,-0.537199,0.386249,0.668930,0.338817,0.327800,-0.255617,0.284503
690,338463384,-0.538891,0.382843,0.670671,0.336546,0.446510,-0.282025,0.262928
691,338496718,-0.540190,0.380809,0.671052,0.336011,0.240027,-0.368641,0.207298
692,338530052,-0.540866,0.380001,0.670577,0.336786,0.285213,-0.568942,0.136435
693,338563386,-0.540834,0.380537,0.669353,0.338661,0.125672,-0.595290,0.043686
694,338596720,-0.540052,0.382184,0.667847,0.341021,0.133610,-0.678611,0.109717
695,338630054,-0.538839,0.384469,0.666357,0.343278,0.070972,-0.573887,0.082172
696,338663388,-0.537570,0.386901,0.665064,0.345038,0.035556,-0.333108,0.118727
697,338696722,-0.536140,0.389578,0.663663,0.346943,0.026391,-0.027542,0.146908
698,338730056,-0.534554,0.392510,0.662073,0.349116,-0.046107,0.133249,0.127020
699,338763390,-0.532622,0.395807,0.660071,0.352124,-0.004248,0.100209,0.122501
700,338796724,-0.530484,0.399446,0.657459,0.356108,0.001300,0.013843,0.148981
701,338830058,-0.528414,0.403168,0.654263,0.360845,-0.020962,-0.049588,0.146408
702,338863392,-0.526233,0.407071,0.650588,0.366255,0.025391,-0.244990,0.101878
703,338896726,-0.523837,0.411283,0.646639,0.371933,-0.002760,-0.403083,0.152488
704,338930060,-0.521286,0.415772,0.642439,0.377759,-0.176153,-0.380320,0.103292
705,338963394,-0.518668,0.420321,0.638278,0.383341,-0.243205,-0.396247,0.108850
706,338996728,-0.516164,0.424712,0.634338,0.388388,-0.170075,-0.269314,0.134577
707,339030062,-0.513797,0.428936,0.630320,0.393393,-0.086401,-0.040936,0.168106
708,339063396,-0.511910,0.432772,0.626285,0.398070,0.127969,0.112460,0.136934
709,339096730,-0.510263,0.436428,0.622077,0.402763,0.356845,0.169901,0.197607
710,339130064,-0.508702,0.440437,0.617144,0.407928,0.564560,-0.071845,0.272899
711,339163398,-0.506636,0.445295,0.611045,0.414356,0.582676,-0.074774,0.261369
712,339196732,-0.504159,0.450816,0.604282,0.421268,0.198210,-0.008655,0.121858
713,339230066,-0.501494,0.456380,0.597910,0.427505,-0.242129,0.246474,0.040270
714,339263400,-0.498895,0.461096,0.593065,0.432207,-0.428078,0.600950,0.030058
715,339296734,-0.497015,0.464205,0.590250,0.434890,-0.368172,0.745981,0.005061
716,339330068,-0.496097,0.465544,0.589304,0.435791,-0.113871,0.587461,0.098973
717,339363402,-0.495997,0.465707,0.589305,0.435728,0.148549,0.573033,0.131356
718,339396736,-0.496133,0.465535,0.589732,0.435179,0.348452,0.293127,0.245856
719,339430070,-0.496416,0.465652,0.589639,0.434857,0.157816,0.098258,0.145998
720,339463404,-0.496634,0.466162,0.588830,0.435158,-0.006438,-0.137051,0.083702
721,339496738,-0.496919,0.466428,0.588052,0.435599,-0.238239,-0.248888,0.104822
722,339530072,-0.497906,0.465720,0.588342,0.434837,-0.468185,-0.241748,0.064258
723,339563406,-0.499932,0.463688,0.589957,0.432490,-0.463259,-0.040550,0.018242
724,339596740,-0.502237,0.460843,0.592578,0.429265,-0.243564,0.120901,0.098269
725,339630074,-0.504645,0.457433,0.595972,0.425372,-0.226294,0.337009,0.169396
726,339663408,-0.507147,0.453505,0.599910,0.421044,0.045750,0.508770,0.138798
727,339696742,-0.510035,0.448969,0.604234,0.416207,0.265270,0.484679,0.151630
728,339730076,-0.513221,0.444134,0.608381,0.411409,0.273488,0.211714,0.198453
729,339763410,-0.516319,0.439498,0.612011,0.407105,0.012791,0.046859,0.155488
730,339796744,-0.518926,0.435526,0.615242,0.403170,0.071445,-0.113955,0.154688
731,339830078,-0.521092,0.432154,0.618101,0.399615,0.176524,-0.151519,0.074682
732,339863412,-0.523285,0.428673,0.621216,0.395648,0.053100,-0.132963,0.046041
733,339896746,-0.525481,0.425182,0.624703,0.390988,-0.083162,-0.092171,0.073356
734,339930080,-0.527167,0.422100,0.628311,0.386248,-0.154788,-0.011688,0.127859
735,339963414,-0.528752,0.418875,0.632102,0.381376,-0.256108,0.316601,0.088791
736,339996748,-0.530481,0.415085,0.636532,0.375709,-0.287847,0.419729,0.144524
737,340030082,-0.532453,0.410426,0.641738,0.369121,-0.145966,0.439795,0.160000
738,340063416,-0.534736,0.405052,0.647163,0.362223,0.088840,0.453334,0.201503
739,340096750,-0.537144,0.399507,0.652392,0.355373,0.279983,0.206201,0.171344
740,340130084,-0.538624,0.395216,0.656789,0.349788,0.367095,-0.111515,0.260763
741,340163418,-0.539380,0.392410,0.659908,0.345892,0.197527,-0.179116,0.206059
742,340196752,-0.540149,0.390337,0.661881,0.343257,0.165694,-0.144015,0.246911
743,340230086,-0.540572,0.389336,0.662620,0.342301,0.127433,-0.185890,0.138872
744,340263420,-0.540656,0.388982,0.662617,0.342574,-0.086764,-0.464275,0.095223
745,340296754,-0.540804,0.388781,0.662440,0.342913,-0.019417,-0.629064,0.009108
746,340330088,-0.540009,0.389959,0.661675,0.344303,-0.003851,-0.509719,0.073510
747,340363422,-0.538645,0.391842,0.660723,0.346124,0.034200,-0.398144,0.094423
748,340396756,-0.537584,0.393376,0.660017,0.347378,0.035970,-0.141836,0.160291
749,340430090,-0.536740,0.394810,0.659370,0.348285,0.133765,0.190737,0.175599
750,340463424,-0.535668,0.396676,0.658349,0.349742,0.207555,0.242349,0.180683
751,340496758,-0.534089,0.399363,0.656555,0.352461,0.169499,0.077216,0.137917
752,340530092,-0.532202,0.402757,0.653844,0.356470,-0.006498,-0.032388,0.109227
753,340563426,-0.529908,0.406719,0.650558,0.361367,-0.086356,-0.187860,0.111233
754,340596760,-0.527531,0.410559,0.647403,0.366138,-0.280564,-0.245694,0.120697
755,340630094,-0.525231,0.414019,0.644575,0.370511,-0.145666,-0.211656,0.110126
756,340663428,-0.522744,0.417663,0.641613,0.375053,0.165385,-0.205854,0.106495
757,340696762,-0.519962,0.421915,0.638055,0.380195,0.420771,-0.318187,0.292381
758,340730096,-0.516531,0.427426,0.633139,0.386877,0.575404,-0.359427,0.180186
759,340763430,-0.512799,0.433936,0.627099,0.394359,0.063907,-0.194051,0.146667
760,340796764,-0.509255,0.440455,0.620716,0.401754,-0.266352,-0.001023,0.155870
761,340830098,-0.506247,0.445992,0.614902,0.408333,-0.232192,0.192333,0.094743
762,340863432,-0.503900,0.450187,0.610248,0.413580,-0.334532,0.284548,0.094426
763,340896766,-0.502386,0.452872,0.607118,0.417081,-0.161862,0.304868,0.104342
764,340930100,-0.501093,0.454911,0.604994,0.419498,0.058353,0.260734,0.089074
765,340963434,-0.499602,0.457105,0.603010,0.421742,0.191226,0.237656,0.109905
766,340996768,-0.498124,0.459317,0.601035,0.423903,0.150794,0.308790,0.109322
767,341030102,-0.497097,0.460940,0.599665,0.425282,0.007267,0.292353,0.139118
768,341063436,-0.496450,0.461882,0.598905,0.426089,-0.038045,0.281316,0.157574
769,341096770,-0.496204,0.462114,0.598930,0.426086,-0.141056,0.186020,0.085528
770,341130104,-0.496612,0.461463,0.599707,0.425224,-0.070525,0.034772,0.108317
771,341163438,-0.497538,0.460144,0.601096,0.423607,-0.058931,0.031732,0.105471
772,341196772,-0.498762,0.458497,0.602767,0.421574,-0.041484,0.006040,0.132349
773,341230106,-0.500116,0.456685,0.604575,0.419342,-0.015900,0.077980,0.109924
774,341263440,-0.501144,0.455097,0.606407,0.417189,0.100665,0.010790,0.105352
775,341296774,-0.502153,0.453462,0.608306,0.414987,0.082195,0.009735,0.151566
776,341330108,-0.503663,0.451309,0.610509,0.412259,-0.059062,0.037898,0.140828
777,341363442,-0.505756,0.448327,0.613415,0.408621,-0.174208,0.094623,0.093567
778,341396776,-0.508697,0.444019,0.617428,0.403598,-0.400402,0.236466,0.055667
779,341430110,-0.512475,0.438165,0.622779,0.396941,-0.418996,0.209994,0.065999
780,341463444,-0.516404,0.431490,0.628998,0.389281,-0.103161,0.196048,0.199542
781,341496778,-0.519765,0.425230,0.634866,0.382104,0.168150,0.201942,0.074582
782,341530112,-0.522754,0.419361,0.640312,0.375368,0.117759,0.088903,0.143334
783,341563446,-0.525723,0.413524,0.645690,0.368419,0.199786,-0.044400,0.178049
784,341596780,-0.527959,0.408675,0.650399,0.362299,-0.000320,0.127936,0.069447
785,341630114,-0.529762,0.404095,0.655096,0.356291,-0.111788,0.015122,0.191319
786,341663448,-0.531480,0.399570,0.659375,0.350903,-0.077253,0.239524,0.138756
787,341696782,-0.533502,0.394559,0.663798,0.345118,-0.047191,0.280998,0.185400
788,341730116,-0.535942,0.388953,0.668195,0.339164,0.171858,0.162979,0.158720
789,341763450,-0.538565,0.383546,0.671948,0.333708,0.331110,0.017526,0.234758
790,341796784,-0.540841,0.379177,0.674596,0.329654,0.387772,-0.186749,0.196237
791,341830118,-0.542723,0.376023,0.676111,0.327059,0.372773,-0.256380,0.316241
792,341863452,-0.543937,0.374523,0.676320,0.326329,0.313196,-0.346087,0.165819
793,341896786,-0.544704,0.374126,0.675649,0.326896,0.223006,-0.490718,0.119393
794,341930120,-0.545268,0.374640,0.674183,0.328389,0.012616,-0.602678,0.085341
795,341963454,-0.545026,0.376173,0.672285,0.330919,-0.119937,-0.638973,0.033815
796,341996788,-0.544248,0.378197,0.670642,0.333221,-0.240970,-0.613932,-0.021845
797,342030122,-0.542920,0.380492,0.669355,0.335355,-0.105923,-0.493294,0.097873
798,342063456,-0.541498,0.382674,0.668515,0.336843,0.104107,-0.285561,0.186127
799,342096790,-0.540200,0.385004,0.667594,0.338096,0.255438,-0.028396,0.206798
800,342130124,-0.538578,0.388214,0.665884,0.340378,0.356236,0.049749,0.152663
801,342163458,-0.536473,0.392559,0.662930,0.344462,0.164920,0.122317,0.143238
802,342196792,-0.534092,0.397484,0.659069,0.349881,0.024178,-0.007705,0.230947
803,342230126,-0.531526,0.402721,0.654662,0.356018,-0.153269,-0.157696,0.107655
804,342263460,-0.528764,0.407904,0.650167,0.362409,-0.251028,-0.241782,0.131746
805,342296794,-0.526068,0.412691,0.645838,0.368601,-0.175070,-0.236057,0.130206
806,342330128,-0.523464,0.417034,0.642122,0.373876,-0.151920,-0.409470,0.015772
807,342363462,-0.519829,0.421783,0.639199,0.378598,0.174406,-0.608743,0.119000
808,342396796,-0.515809,0.427602,0.635837,0.383203,-0.351947,-0.304744,0.093657
809,342430130,-0.511804,0.433836,0.631651,0.388452,-0.056393,-0.167610,0.174793
810,342463464,-0.507944,0.439930,0.626971,0.394203,0.021795,0.164622,0.135793
811,342496798,-0.504774,0.445107,0.622563,0.399417,0.065587,0.336125,0.184501
812,342530132,-0.502826,0.448985,0.618551,0.403743,0.041332,0.476315,0.216911
813,342563466,-0.501624,0.451851,0.614982,0.407475,0.186114,0.624524,0.143158
814,342596800,-0.500444,0.454307,0.612051,0.410596,0.060476,0.586732,0.071787
815,342630134,-0.499591,0.456194,0.609891,0.412752,-0.073148,0.436848,0.045442
816,342663468,-0.498691,0.457395,0.608729,0.414224,-0.041127,0.289068,0.109012
817,342696802,-0.498445,0.457629,0.608591,0.414463,-0.246248,0.380148,0.113202
818,342730136,-0.498525,0.457261,0.609108,0.414013,-0.129680,0.300449,0.166625
819,342763470,-0.498435,0.456869,0.609656,0.413748,0.058931,0.199230,0.123433
820,342796804,-0.498349,0.456464,0.610081,0.413674,0.314408,-0.122527,0.154876
821,342830138,-0.498344,0.456173,0.610108,0.413960,0.161729,-0.258237,0.076065
822,342863472,-0.498774,0.455816,0.610044,0.413929,-0.027934,-0.504552,0.162347
823,342896806,-0.499219,0.455625,0.609858,0.413878,-0.211069,-0.353800,0.121535
824,342930140,-0.499840,0.455209,0.609950,0.413449,-0.239414,-0.000291,0.053050
825,342963474,-0.500882,0.453845,0.611064,0.412041,-0.116751,0.358690,0.051222
826,342996808,-0.502406,0.451409,0.613542,0.409169,0.067572,0.423778,0.174568
827,343030142,-0.504395,0.448182,0.616744,0.405440,-0.007307,0.380452,0.110435
828,343063476,-0.507062,0.444117,0.620357,0.401050,-0.141933,0.217865,0.148479
829,343096810,-0.510166,0.439436,0.624241,0.396214,-0.267339,0.182756,0.150691
830,343130144,-0.513324,0.434384,0.628576,0.390814,-0.369124,0.238688,0.114267
831,343163478,-0.516573,0.428680,0.633642,0.384601,0.038052,0.046537,0.148558
832,343196812,-0.519521,0.423032,0.638790,0.378317,0.258616,0.023527,0.196809
833,343230146,-0.521516,0.418504,0.643181,0.373133,0.072642,0.154033,0.159023
834,343263480,-0.522868,0.414668,0.646966,0.368959,0.117468,0.227994,0.145089
835,343296814,-0.524723,0.410410,0.650633,0.364612,0.192496,0.256218,0.159269
836,343330148,-0.527037,0.405821,0.654167,0.360058,-0.012701,0.328374,0.133320
837,343363482,-0.529612,0.401061,0.657403,0.355695,-0.067541,0.220137,0.154162
838,343396816,-0.532529,0.396038,0.660473,0.351253,0.093633,-0.005462,0.126404
839,343430150,-0.534956,0.391612,0.663273,0.347227,0.234607,-0.288809,0.092772
840,343463484,-0.536877,0.388136,0.665497,0.343892,0.171625,-0.475459,0.146056
841,343496818,-0.538397,0.385508,0.666986,0.341581,0.106862,-0.410118,0.180047
842,343530152,-0.539377,0.383727,0.667946,0.340162,0.137452,-0.397735,0.152795
843,343563486,-0.539790,0.382923,0.668381,0.339557,0.165338,-0.410955,0.175683
844,343596820,-0.539880,0.382995,0.668085,0.339914,0.152041,-0.460310,0.169891
845,343630154,-0.539725,0.383922,0.666805,0.341623,0.205961,-0.431656,0.200313
846,343663488,-0.539434,0.385400,0.664584,0.344735,0.184956,-0.187647,0.146343
847,343696822,-0.539061,0.387195,0.662084,0.348101,-0.002273,-0.164222,0.124049
848,343730156,-0.538229,0.389552,0.659295,0.352029,0.031197,-0.150609,0.157488
849,343763490,-0.537046,0.392168,0.656402,0.356311,0.135440,-0.115933,0.131563
850,343796824,-0.535973,0.394956,0.653395,0.360352,0.096307,-0.129528,0.074903
851,343830158,-0.534807,0.398047,0.650308,0.364246,0.009941,-0.158475,0.110970
852,343863492,-0.533165,0.401613,0.647089,0.368446,0.004278,-0.235416,0.100002
853,343896826,-0.531214,0.405539,0.643612,0.373026,-0.209900,-0.140197,0.103337
854,343930160,-0.528753,0.409856,0.640082,0.377846,-0.059625,-0.219280,0.112733
855,343963494,-0.525752,0.414595,0.636501,0.382882,-0.216424,-0.351281,0.094545
856,343996828,-0.522549,0.419194,0.633277,0.387575,-0.204319,-0.359856,0.099242
857,344030162,-0.519226,0.423784,0.630383,0.391745,-0.133011,-0.326434,0.069013
858,344063496,-0.515636,0.428645,0.627465,0.395860,-0.115752,-0.237016,0.130351
859,344096830,-0.512218,0.433331,0.624770,0.399444,-0.099945,-0.164877,0.066779
860,344130164,-0.509217,0.437630,0.622229,0.402548,0.074023,-0.048864,0.226120
861,344163498,-0.506667,0.441610,0.619262,0.405979,0.267194,0.243102,0.223191
862,344196832,-0.504733,0.445089,0.616072,0.409426,0.284879,0.352166,0.214624
863,344230166,-0.503097,0.448402,0.612644,0.412954,0.326930,0.307508,0.190305
864,344263500,-0.501292,0.451994,0.608728,0.417005,0.285105,0.296898,0.183166
865,344296834,-0.499869,0.455195,0.604985,0.420662,-0.011043,0.363738,0.128168
866,344330168,-0.499108,0.457409,0.602132,0.423250,-0.111916,0.387710,0.132388
867,344363502,-0.498684,0.458747,0.600525,0.424582,-0.134027,0.428654,0.080882
868,344396836,-0.498557,0.459293,0.600031,0.424840,-0.024532,0.402579,0.101336
869,344430170,-0.498728,0.459238,0.600147,0.424535,0.139456,0.363032,0.093069
870,344463504,-0.498894,0.459123,0.600528,0.423925,0.184542,0.178208,0.117030
871,344496838,-0.499202,0.458840,0.601231,0.422871,0.023184,0.139877,0.150166
872,344530172,-0.499941,0.458025,0.602359,0.421272,-0.134661,0.164463,0.125915
873,344563506,-0.500639,0.456930,0.603899,0.419425,-0.140282,0.112429,0.109088
874,344596840,-0.501359,0.455619,0.605833,0.417196,-0.163600,0.039796,0.124628
875,344630174,-0.502207,0.454098,0.607830,0.414924,0.003712,-0.100160,0.118134
876,344663508,-0.503282,0.452464,0.609633,0.412754,0.084677,-0.232303,0.164807
877,344696842,-0.504340,0.451136,0.611081,0.410770,0.081928,-0.331857,0.104767
878,344730176,-0.505454,0.449973,0.612236,0.408953,-0.005562,-0.302908,0.197860
879,344763510,-0.506838,0.448727,0.613252,0.407084,-0.004721,-0.108962,0.122430
880,344796844,-0.508251,0.447262,0.614597,0.404901,-0.100794,0.111414,0.122330
881,344830178,-0.510272,0.445027,0.616597,0.401769,-0.259391,0.313171,0.137525
882,344863512,-0.512674,0.441934,0.619456,0.397705,-0.282806,0.375085,0.069370
883,344896846,-0.515156,0.438102,0.623122,0.392981,-0.257752,0.355191,0.108454
884,344930180,-0.517992,0.433504,0.627255,0.387743,-0.121495,0.351237,0.162924
885,344963514,-0.520978,0.428496,0.631603,0.382212,0.035953,0.199351,0.155817
886,344996848,-0.523749,0.423614,0.635817,0.376843,0.202512,-0.015282,0.178187
887,345030182,-0.526214,0.419166,0.639536,0.372059,0.218254,-0.070760,0.147998
888,345063516,-0.528389,0.415232,0.642812,0.367716,0.213849,-0.107137,0.098248
889,345096850,-0.530204,0.411726,0.646040,0.363365,0.028688,0.007123,0.091093
890,345130184,-0.531861,0.408394,0.649355,0.358764,-0.101748,0.091169,0.077621
891,345163518,-0.533348,0.404879,0.653014,0.353866,-0.140713,0.198534,0.155049
892,345196852,-0.534964,0.400865,0.657001,0.348577,-0.122047,0.316361,0.190615
893,345230186,-0.537022,0.396159,0.660971,0.343245,-0.028736,0.366394,0.187165
894,345263520,-0.539494,0.390941,0.664834,0.337851,-0.026936,0.129899,0.104049
895,345296854,-0.541752,0.385976,0.668327,0.333020,0.169846,-0.256630,0.195314
896,345330188,-0.543026,0.382672,0.670690,0.329993,0.266246,-0.549804,0.216040
897,345363522,-0.543917,0.380784,0.671693,0.328665,0.260324,-0.645456,0.163706
898,345396856,-0.544498,0.380083,0.671626,0.328653,0.333205,-0.758769,0.141233
899,345430190,-0.544460,0.380762,0.670765,0.329687,0.087762,-0.906130,0.082360
900,345463524,-0.543910,0.382530,0.669231,0.331659,0.029362,-0.773044,0.060099
901,345496858,-0.542530,0.385366,0.667372,0.334371,-0.036204,-0.489538,0.091287
902,345530192,-0.540684,0.388670,0.665492,0.337271,-0.162747,-0.054501,0.080099
903,345563526,-0.538835,0.391707,0.663900,0.339845,0.031193,0.276630,0.144702
904,345596860,-0.537470,0.394212,0.662371,0.342086,0.207139,0.606268,0.179357
905,345630194,-0.536353,0.396710,0.660306,0.344933,0.240223,0.740312,0.240523
906,345663528,-0.535039,0.399746,0.657384,0.349024,0.198800,0.505597,0.170725
907,345696862,-0.533343,0.403292,0.653781,0.354271,0.170056,-0.049978,0.170129
908,345730196,-0.531517,0.407036,0.649803,0.360004,0.162915,-0.415318,0.107683
909,345763530,-0.529120,0.411350,0.645790,0.365805,-0.055309,-0.601988,0.030068
910,345796864,-0.525956,0.416407,0.641776,0.371665,-0.372338,-0.570170,0.097089
911,345830198,-0.522447,0.421634,0.637892,0.377363,-0.306365,-0.225488,0.157095
912,345863532,-0.519014,0.426531,0.634299,0.382616,-0.038160,0.104450,0.134995
913,345896866,-0.516385,0.430678,0.631037,0.386900,0.138842,0.247381,0.205096
914,345930200,-0.514513,0.434099,0.627945,0.390584,0.246498,0.342948,0.214837
915,345963534,-0.512775,0.437292,0.624826,0.394292,0.250774,0.278961,0.115974
916,345996868,-0.511012,0.440480,0.621655,0.398026,0.128973,0.105245,0.155950
917,346030202,-0.509325,0.443596,0.618524,0.401590,0.080248,-0.078335,0.149614
918,346063536,-0.507880,0.446471,0.615535,0.404814,0.046398,-0.116809,0.109741
919,346096870,-0.506592,0.449189,0.612812,0.407542,0.037812,-0.088986,0.112120
920,346130204,-0.505410,0.451761,0.610363,0.409835,-0.127860,0.036028,0.140882
921,346163538,-0.504485,0.453944,0.608403,0.411475,-0.180706,0.243531,0.061950
922,346196872,-0.503554,0.455655,0.607109,0.412634,-0.128497,0.460103,0.104394
923,346230206,-0.503307,0.456306,0.606891,0.412536,-0.179403,0.578189,0.120852
924,346263540,-0.503656,0.455947,0.607742,0.411252,-0.050432,0.526946,0.177033
925,346296874,-0.503974,0.455249,0.608821,0.410039,0.272979,0.191811,0.157656
926,346330208,-0.503992,0.454774,0.609591,0.409399,0.145859,-0.061911,0.132406
927,346363542,-0.504230,0.454392,0.610117,0.408745,0.038292,-0.347309,0.116726
928,346396876,-0.504654,0.454107,0.610392,0.408128,-0.062654,-0.399305,0.115834
929,346430210,-0.505376,0.453519,0.610871,0.407172,-0.178796,-0.167535,0.115511
930,346463544,-0.506329,0.452359,0.611956,0.405645,-0.260088,0.123796,0.094698
931,346496878,-0.507796,0.450248,0.614095,0.402919,-0.295480,0.265852,0.119469
932,346530212,-0.510026,0.446752,0.617363,0.398979,-0.153345,0.495832,0.155204
933,346563546,-0.512876,0.442119,0.621678,0.393752,-0.086358,0.462110,0.127290
934,346596880,-0.515932,0.437019,0.626316,0.388062,-0.011709,0.253641,0.196097
935,346630214,-0.518677,0.432176,0.630478,0.383055,0.215620,0.133003,0.213061
936,346663548,-0.521242,0.427890,0.633860,0.378779,0.386689,-0.010047,0.108790
937,346696882,-0.523463,0.424148,0.636678,0.375182,0.228519,-0.186325,0.112467
938,346730216,-0.526075,0.420350,0.639450,0.371066,-0.338947,-0.196804,0.170547
939,346763550,-0.528333,0.417062,0.641881,0.367352,-0.351667,-0.085583,0.052698
940,346796884,-0.530123,0.413713,0.644621,0.363746,-0.288299,0.020847,0.037823
941,346830218,-0.531839,0.409990,0.648213,0.359042,-0.146059,-0.084042,0.160974
942,346863552,-0.533575,0.405887,0.652502,0.353314,0.000118,-0.030824,0.120337
943,346896886,-0.535686,0.401305,0.656845,0.347253,0.284936,0.004738,0.174429
944,346930220,-0.537715,0.397168,0.660442,0.342013,0.329451,0.012417,0.178063
945,346963554,-0.539011,0.394200,0.663048,0.338343,0.140078,-0.123468,0.152377
946,346996888,-0.540087,0.391840,0.664881,0.335763,0.178636,-0.261724,0.221263
947,347030222,-0.540839,0.390426,0.665724,0.334526,0.181904,-0.358182,0.186337
948,347063556,-0.541185,0.390082,0.665451,0.334910,-0.012428,-0.544102,0.163406
949,347096890,-0.540846,0.390821,0.664228,0.337017,-0.018740,-0.652952,0.071429
950,347130224,-0.540066,0.392301,0.662594,0.339755,-0.168581,-0.573110,0.053377
951,347163558,-0.538879,0.394144,0.661067,0.342471,-0.088162,-0.323979,0.083145
952,347196892,-0.537313,0.396188,0.659819,0.344971,0.014188,-0.035666,0.127719
953,347230226,-0.535829,0.398145,0.658723,0.347112,0.159599,0.198625,0.199381
954,347263560,-0.534359,0.400342,0.657262,0.349611,0.365399,0.349842,0.231932
955,347296894,-0.532523,0.403417,0.654944,0.353211,0.267644,0.354790,0.139044
956,347330228,-0.530364,0.407164,0.651861,0.357835,0.085829,0.188467,0.142523
957,347363562,-0.527883,0.411348,0.648232,0.363266,-0.064488,0.088904,0.124019
958,347396896,-0.525080,0.415694,0.644412,0.369132,-0.227688,-0.014359,0.116546
959,347430230,-0.522199,0.419742,0.640924,0.374670,-0.254927,-0.041269,0.069156
960,347463564,-0.519109,0.423636,0.637818,0.379846,-0.081572,-0.063121,0.154303
961,347496898,-0.516288,0.427222,0.634887,0.384556,0.047476,0.025469,0.134049
962,347530232,-0.513918,0.430475,0.631903,0.388991,0.292195,-0.014711,0.214697
963,347563566,-0.512101,0.433363,0.629180,0.392578,0.150365,-0.176174,0.130717
964,347596900,-0.510180,0.436606,0.626418,0.395889,0.799886,-0.742339,0.247282
965,347630234,-0.507199,0.441752,0.622086,0.400812,0.222430,-0.495713,0.050293
966,347663568,-0.504034,0.447458,0.617011,0.406280,-0.048152,-0.188508,0.194634
967,347696902,-0.501948,0.452110,0.612249,0.410892,-0.117079,0.264712,0.142087
968,347730236,-0.500590,0.455478,0.608467,0.414431,-0.077386,0.515302,0.093252
969,347763570,-0.499723,0.457625,0.606155,0.416495,-0.019075,0.429751,0.062311
970,347796904,-0.499066,0.458994,0.604721,0.417860,-0.149525,0.552588,0.105354
971,347830238,-0.498653,0.459938,0.603922,0.418468,0.036174,0.366766,0.151657
972,347863572,-0.498173,0.460587,0.603618,0.418765,-0.017376,0.254224,0.119486
973,347896906,-0.498386,0.460302,0.604158,0.418046,-0.071479,0.139048,0.111499
974,347930240,-0.498869,0.459574,0.605327,0.416577,-0.200687,0.001224,0.071969
975,347963574,-0.499489,0.458538,0.606618,0.415096,-0.139132,0.008523,0.128662
976,347996908,-0.500435,0.457200,0.607912,0.413535,-0.003160,-0.065487,0.132275
977,348030242,-0.501342,0.455881,0.609046,0.412223,0.157903,-0.197719,0.177331
978,348063576,-0.502584,0.454352,0.610046,0.410918,0.020475,-0.105741,0.104032
979,348096910,-0.504039,0.452560,0.611129,0.409501,-0.063956,-0.009263,0.177109
980,348130244,-0.505868,0.450168,0.612745,0.407464,-0.258983,0.259504,0.120444
981,348163578,-0.508277,0.446605,0.615468,0.404270,-0.310698,0.279264,0.065361
982,348196912,-0.511359,0.441710,0.619488,0.399593,-0.262880,0.252334,0.142076
983,348230246,-0.514983,0.435830,0.624443,0.393639,-0.237384,0.294756,0.072192
984,348263580,-0.518628,0.429539,0.629915,0.386993,-0.000209,0.171269,0.168612
985,348296914,-0.522341,0.423271,0.635168,0.380261,0.192294,0.199246,0.194057
986,348330248,-0.525694,0.417497,0.640055,0.373775,0.157394,0.144514,0.096372
987,348363582,-0.528550,0.412233,0.644711,0.367535,0.178013,-0.029109,0.106633
988,348396916,-0.530893,0.407762,0.648708,0.362073,0.158512,-0.017797,0.155220
989,348430250,-0.532896,0.403675,0.652413,0.357017,-0.127100,-0.063424,0.092867
990,348463584,-0.534881,0.399361,0.656394,0.351564,-0.137032,-0.080371,0.133592
991,348496918,-0.536548,0.395181,0.660553,0.345909,-0.068464,0.065228,0.114249
992,348530252,-0.538183,0.390727,0.664941,0.339972,-0.216714,0.089125,0.134094
993,348563586,-0.540061,0.385792,0.669363,0.333898,0.024752,0.030048,0.180150
994,348596920,-0.541325,0.381697,0.672983,0.329248,-0.068266,0.017180,0.196398
995,348630254,-0.542063,0.378463,0.675673,0.326243,0.309999,-0.182457,0.308486
996,348663588,-0.542547,0.376416,0.676905,0.325252,0.459490,-0.256036,0.155606
997,348696922,-0.542903,0.375478,0.676996,0.325553,0.314584,-0.501812,0.222257
998,348730256,-0.542965,0.375591,0.676069,0.327241,0.081734,-0.560384,0.139802
999,348763590,-0.542529,0.376541,0.674428,0.330245,-0.000052,-0.364107,0.049203
1000,348796924,-0.541754,0.377877,0.672777,0.333345,0.036382,-0.295495,0.070283
1001,348830258,-0.540670,0.379551,0.671328,0.336112,0.060737,-0.187992,0.069524
1002,348863592,-0.539321,0.381569,0.669943,0.338749,0.127510,-0.053940,0.148082
1003,348896926,-0.537685,0.384158,0.668189,0.341873,0.239854,0.127049,0.160987
1004,348930260,-0.535798,0.387373,0.665814,0.345818,0.279578,0.180673,0.174722
1005,348963594,-0.533702,0.391225,0.662706,0.350658,0.174256,0.131290,0.133201
1006,348996928,-0.531392,0.395471,0.659017,0.356312,0.024251,-0.104771,0.150811
1007,349030262,-0.528730,0.400104,0.654831,0.362758,-0.112937,-0.245056,0.076892
1008,349063596,-0.525781,0.404911,0.650588,0.369286,-0.167599,-0.338758,0.022234
1009,349096930,-0.522566,0.409771,0.646434,0.375727,-0.161666,-0.418866,0.108968
1010,349130264,-0.519170,0.414585,0.642580,0.381719,-0.044841,-0.449426,0.133836
1011,349163598,-0.515743,0.419539,0.639091,0.386774,0.002402,-0.480258,0.119765
1012,349196932,-0.511885,0.425145,0.635437,0.391767,0.377467,-0.639662,0.170156
1013,349230266,-0.507906,0.431392,0.631112,0.397071,0.437937,-0.427578,0.173779
1014,349263600,-0.504149,0.438164,0.625987,0.402520,0.117002,-0.082881,0.185561
1015,349296934,-0.500961,0.444494,0.620759,0.407625,-0.125820,0.294174,0.139081
1016,349330268,-0.498624,0.449582,0.616119,0.411926,0.187262,0.447927,0.221930
1017,349363602,-0.496753,0.453892,0.611818,0.415852,0.117387,0.609187,0.104588
1018,349396936,-0.495666,0.457123,0.608169,0.418951,0.087025,0.551398,0.190848
1019,349430270,-0.495029,0.459456,0.605129,0.421546,0.048986,0.510481,0.080881
1020,349463604,-0.494562,0.461124,0.603070,0.423221,-0.045567,0.372506,0.098062
1021,349496938,-0.494512,0.461990,0.602056,0.423777,-0.265656,0.300596,0.086164
1022,349530272,-0.494937,0.461835,0.602028,0.423489,-0.179189,0.259767,0.098648
1023,349563606,-0.495786,0.460967,0.602742,0.422425,-0.068274,0.143813,0.101339
1024,349596940,-0.496450,0.460183,0.603429,0.421519,0.077356,-0.007394,0.101806
1025,349630274,-0.497101,0.459528,0.603796,0.420940,0.069571,-0.080027,0.151441
1026,349663608,-0.497783,0.459002,0.603845,0.420638,0.022254,-0.173150,0.138093
1027,349696942,-0.498368,0.458552,0.603986,0.420234,-0.121186,-0.260371,0.135468
1028,349730276,-0.499467,0.457616,0.604566,0.419113,-0.212542,-0.101206,0.066885
1029,349763610,-0.501199,0.455776,0.606129,0.416788,-0.245369,0.015246,0.130266
1030,349796944,-0.503338,0.453020,0.609032,0.412965,-0.262352,0.211342,0.039744
1031,349830278,-0.505883,0.449199,0.613431,0.407482,-0.412487,0.401419,0.067588
1032,349863612,-0.509356,0.443791,0.619250,0.400215,-0.326656,0.583356,0.081811
1033,349896946,-0.513550,0.436866,0.626301,0.391405,-0.260220,0.692911,0.087586
1034,349930280,-0.518306,0.428636,0.634280,0.381254,-0.096489,0.613932,0.105914
1035,349963614,-0.523956,0.418964,0.642812,0.369820,0.033930,0.520990,0.136680
1036,349996948,-0.529957,0.408424,0.651440,0.357768,0.205859,0.555195,0.230042
1037,350030282,-0.535152,0.398735,0.659010,0.346935,0.044527,0.609356,0.161873
1038,350063616,-0.538883,0.390475,0.665300,0.338448,0.133362,0.295041,0.215995
1039,350096950,-0.542410,0.382306,0.671411,0.329965,-0.065067,-0.068983,0.131855
1040,350130284,-0.546034,0.373922,0.677483,0.321064,-0.321804,-0.207086,0.126941
1041,350163618,-0.549286,0.365844,0.682969,0.313101,-0.052894,-0.384836,0.197503
1042,350196952,-0.551606,0.359289,0.687248,0.307193,0.352136,-0.569749,0.151960
1043,350230286,-0.553173,0.354890,0.689972,0.303360,0.621523,-0.682514,0.242533
1044,350263620,-0.553918,0.353006,0.690947,0.301975,0.806970,-0.694834,0.162279
1045,350296954,-0.553734,0.353602,0.690331,0.303025,0.380780,-0.699459,0.087599
1046,350330288,-0.553041,0.355438,0.688972,0.305228,0.070788,-0.670512,0.133479
1047,350363622,-0.552203,0.357349,0.687624,0.307543,-0.254179,-0.448422,0.113743
1048,350396956,-0.551092,0.359150,0.686730,0.309431,-0.169477,-0.193043,0.072933
1049,350430290,-0.549590,0.361045,0.686080,0.311331,0.207942,0.008111,0.151941
1050,350463624,-0.548081,0.363443,0.684739,0.314140,0.532619,0.310488,0.244361
1051,350496958,-0.546397,0.366990,0.682324,0.318181,0.461432,0.263301,0.128331
1052,350530292,-0.544073,0.371866,0.679013,0.323540,0.381930,-0.029221,0.191285
1053,350563626,-0.541461,0.377688,0.674624,0.330287,-0.071530,-0.125482,0.086720
1054,350596960,-0.538742,0.383681,0.669680,0.337804,-0.293512,-0.224065,0.100703
1055,350630294,-0.535700,0.389529,0.664936,0.345236,-0.446090,-0.262039,0.075265
1056,350663628,-0.532519,0.394742,0.661045,0.351650,-0.464740,-0.245553,0.083299
1057,350696962,-0.529661,0.399209,0.657816,0.356939,-0.231878,-0.178902,0.141972
1058,350730296,-0.526424,0.403811,0.654427,0.362734,0.147255,-0.150140,0.234698
1059,350763630,-0.523397,0.408402,0.650741,0.368560,0.252934,-0.067667,0.104565
1060,350796964,-0.520741,0.413044,0.646588,0.374411,0.173147,-0.095095,0.161705
1061,350830298,-0.518275,0.417740,0.642097,0.380304,0.287924,-0.113028,0.195748
1062,350863632,-0.515469,0.422923,0.637206,0.386566,0.287924,-0.184437,0.208883
1063,350896966,-0.512433,0.428515,0.631913,0.393077,0.082428,-0.086308,0.123631
1064,350930300,-0.509928,0.433724,0.626824,0.398730,0.062882,-0.009212,0.132344
1065,350963634,-0.507157,0.438957,0.621982,0.404083,0.108314,0.077979,0.097518
1066,350996968,-0.504570,0.443563,0.617910,0.408515,-0.093035,0.314939,0.060082
1067,351030302,-0.502805,0.446956,0.614872,0.411565,-0.015587,0.406236,0.088947
1068,351063636,-0.501511,0.449564,0.612623,0.413651,-0.003345,0.345132,0.159458
1069,351096970,-0.500497,0.451628,0.610919,0.415150,0.080859,0.283878,0.114697
1070,351130304,-0.499776,0.453233,0.609673,0.416099,0.015330,0.233037,0.132816
1071,351163638,-0.499578,0.454171,0.609035,0.416248,-0.098147,0.129355,0.104431
1072,351196972,-0.499810,0.454390,0.608961,0.415839,-0.070801,0.034376,0.123894
1073,351230306,-0.500305,0.454144,0.609357,0.414931,-0.125268,-0.087549,0.131945
1074,351263640,-0.500861,0.453692,0.609908,0.413946,-0.105140,-0.210146,0.041584
1075,351296974,-0.501451,0.453139,0.610377,0.413144,-0.028569,-0.198193,0.173985
1076,351330308,-0.502252,0.452339,0.611100,0.411978,-0.209457,-0.022585,0.149725
1077,351363642,-0.503636,0.450695,0.612618,0.409829,-0.381235,0.143636,0.101987
1078,351396976,-0.506028,0.447545,0.615350,0.406227,-0.249803,0.180698,0.031813
1079,351430310,-0.509072,0.442973,0.619390,0.401265,0.004181,0.058816,0.119948
1080,351463644,-0.512918,0.437319,0.624298,0.394912,-0.461648,0.308852,0.067903
1081,351496978,-0.517676,0.430179,0.630550,0.386524,-0.080846,-0.014713,0.132558
1082,351530312,-0.521732,0.423845,0.636230,0.378681,0.209421,0.024408,0.177987
1083,351563646,-0.524278,0.419502,0.640354,0.373006,0.603773,-0.055869,0.160451
1084,351596980,-0.525603,0.416955,0.643152,0.369164,0.616450,0.066383,0.096960
1085,351630314,-0.526880,0.415082,0.645447,0.365429,0.043819,0.194396,0.154197
1086,351663648,-0.528126,0.413056,0.647620,0.362066,-0.143732,0.297622,0.150796
1087,351696982,-0.529675,0.410107,0.650575,0.357834,-0.283424,0.185449,0.150373
1088,351730316,-0.531367,0.406402,0.654380,0.352576,-0.116270,0.021474,0.105277
1089,351763650,-0.532921,0.402738,0.658117,0.347442,0.094571,-0.185895,0.170196
1090,351796984,-0.534415,0.399693,0.660868,0.343419,0.300885,-0.199609,0.250562
1091,351830318,-0.535599,0.397777,0.662335,0.340962,0.283088,-0.273055,0.146982
1092,351863652,-0.536162,0.397240,0.662606,0.340178,0.088607,-0.470912,0.178952
1093,351896986,-0.536313,0.397670,0.661838,0.340931,-0.126553,-0.429485,0.131002
1094,351930320,-0.536507,0.398358,0.660537,0.342343,-0.225840,-0.298838,0.065368
1095,351963654,-0.536390,0.399198,0.659356,0.343821,-0.057120,-0.279874,0.030105
1096,351996988,-0.535828,0.400322,0.658363,0.345291,-0.009537,-0.168790,0.172828
1097,352030322,-0.535328,0.401529,0.657243,0.346795,0.255115,0.128539,0.172606
1098,352063656,-0.534801,0.403243,0.655438,0.349027,0.392373,0.199779,0.190099
1099,352096990,-0.533843,0.405795,0.653155,0.351806,0.263673,-0.069618,0.268658
1100,352130324,-0.532533,0.409181,0.650206,0.355314,-0.020690,-0.079985,0.123304
1101,352163658,-0.530945,0.413053,0.646527,0.359893,-0.144281,-0.090512,0.088406
1102,352196992,-0.529192,0.416851,0.642854,0.364645,-0.367156,-0.083392,0.076989
1103,352230326,-0.526943,0.420716,0.639354,0.369583,-0.257351,-0.092364,0.125037
1104,352263660,-0.524227,0.424722,0.636023,0.374577,-0.043123,-0.094998,0.085488
1105,352296994,-0.521088,0.429034,0.632755,0.379545,0.141732,-0.072011,0.162855
1106,352330328,-0.518234,0.433249,0.629455,0.384123,0.075335,0.161794,0.190712
1107,352363662,-0.515625,0.437245,0.626095,0.388572,0.189726,0.221309,0.257426
1108,352396996,-0.513278,0.441044,0.622662,0.392879,0.193040,0.235440,0.199348
1109,352430330,-0.511261,0.444650,0.619172,0.396939,0.235737,0.108109,0.148066
1110,352463664,-0.509350,0.448160,0.615459,0.401200,0.206627,0.023737,0.128907
1111,352496998,-0.507813,0.451312,0.611908,0.405029,0.066573,-0.073566,0.108250
1112,352530332,-0.505988,0.454684,0.608391,0.408822,0.045611,-0.041608,0.121471
1113,352563666,-0.504309,0.457882,0.605130,0.412153,-0.523674,0.353162,0.051997
1114,352597000,-0.503409,0.459529,0.603332,0.414052,-0.170045,0.439769,0.101035
1115,352630334,-0.502666,0.460301,0.602676,0.415051,-0.025877,0.613320,0.111508
1116,352663668,-0.502265,0.460286,0.602994,0.415092,0.005291,0.448068,0.069759
1117,352697002,-0.502552,0.459359,0.604122,0.414130,0.156545,0.172168,0.143247
1118,352730336,-0.502996,0.458346,0.605372,0.412887,0.022291,0.004900,0.173851
1119,352763670,-0.503233,0.457549,0.606197,0.412270,-0.049065,-0.107229,0.145178
1120,352797004,-0.503801,0.456437,0.607091,0.411493,-0.125428,-0.202468,0.040504
1121,352830338,-0.504523,0.455090,0.608427,0.410125,-0.177672,-0.177593,0.125581
1122,352863672,-0.505602,0.453137,0.610180,0.408351,-0.065744,-0.020536,0.215294
1123,352897006,-0.507182,0.450518,0.612100,0.406411,-0.071528,0.325629,0.099541
1124,352930340,-0.509207,0.447151,0.614842,0.403448,-0.092893,0.270557,0.114802
1125,352963674,-0.511292,0.443329,0.618298,0.399730,-0.295843,0.323638,0.083891
1126,352997008,-0.513796,0.438642,0.622545,0.395070,-0.280596,0.304994,0.111537
1127,353030342,-0.517080,0.432801,0.627546,0.389274,-0.210624,0.265936,0.174089
1128,353063676,-0.520811,0.426146,0.633173,0.382471,0.033653,-0.042661,0.130622
1129,353097010,-0.524097,0.419775,0.638748,0.375697,0.297972,-0.267066,0.148180
1130,353130344,-0.527305,0.414019,0.643774,0.368957,0.264093,-0.163775,0.094413
1131,353163678,-0.530115,0.409165,0.648109,0.362701,0.256517,-0.031211,0.104172
1132,353197012,-0.531943,0.405393,0.651935,0.357366,-0.112782,0.039731,0.116293
1133,353230346,-0.533736,0.401395,0.655808,0.352079,-0.214264,0.307076,0.156628
1134,353263680,-0.536077,0.396459,0.659922,0.346382,-0.084153,0.332918,0.181749
1135,353297014,-0.538558,0.391080,0.664325,0.340178,0.097432,0.099271,0.096991
1136,353330348,-0.540701,0.386065,0.668604,0.334068,0.242866,-0.154970,0.195539
1137,353363682,-0.542486,0.381893,0.671933,0.329255,0.216547,-0.125006,0.235706
1138,353397016,-0.543923,0.378740,0.674158,0.325961,0.236214,-0.237144,0.272916
1139,353430350,-0.545034,0.376655,0.675070,0.324631,0.427815,-0.311412,0.248998
1140,353463684,-0.545735,0.375937,0.674631,0.325199,0.194600,-0.479303,0.072759
1141,353497018,-0.545828,0.376546,0.673302,0.327085,0.137246,-0.582479,0.100946
1142,353530352,-0.544984,0.378529,0.671291,0.330322,0.069894,-0.544114,0.084694
1143,353563686,-0.543612,0.381257,0.669201,0.333669,0.101888,-0.418035,0.113584
1144,353597020,-0.542170,0.384277,0.667111,0.336723,0.148649,-0.155259,0.102046
1145,353630354,-0.540771,0.387375,0.664899,0.339784,0.101666,0.037084,0.219191
1146,353663688,-0.539250,0.390685,0.662334,0.343401,0.066336,0.156672,0.171093
1147,353697022,-0.537703,0.394298,0.659249,0.347608,-0.025867,0.050371,0.090541
1148,353730356,-0.535792,0.398405,0.655414,0.353085,0.112363,-0.139666,0.125571
1149,353763690,-0.533733,0.402736,0.650973,0.359449,-0.017929,-0.334283,0.159790
1150,353797024,-0.531929,0.406676,0.646639,0.365461,-0.386338,-0.350588,0.088866
1151,353830358,-0.530123,0.410076,0.642949,0.370757,-0.187870,-0.490988,0.107449
1152,353863692,-0.527839,0.413735,0.639608,0.375695,-0.077497,-0.607108,0.085235
1153,353897026,-0.524129,0.418594,0.636306,0.381076,0.100960,-0.884248,0.024374
1154,353930360,-0.519721,0.424560,0.633263,0.385555,-0.224938,-0.940930,0.040862
1155,353963694,-0.514638,0.431574,0.630155,0.389656,-0.191195,-0.748732,0.066718
1156,353997028,-0.509335,0.439149,0.626439,0.394128,-0.255795,-0.401679,0.173189
1157,354030362,-0.504883,0.446223,0.622047,0.398839,-0.341578,0.629124,0.161228
1158,354063696,-0.502273,0.451273,0.618184,0.402442,0.344837,1.161339,0.282135
1159,354097030,-0.500121,0.455226,0.614378,0.406477,1.045008,1.377023,0.274243
1160,354130364,-0.498743,0.458180,0.610987,0.409948,0.450634,1.350375,0.147828
1161,354163698,-0.498362,0.459730,0.608706,0.412064,0.160200,0.698539,0.153051
1162,354197032,-0.498132,0.460511,0.607394,0.413404,-0.448435,0.510125,0.006927
1163,354230366,-0.498464,0.459840,0.608022,0.412828,-0.683360,0.254057,0.058338
1164,354263700,-0.499807,0.457121,0.610982,0.409843,-0.517466,0.174235,0.065628
1165,354297034,-0.501825,0.453164,0.615252,0.405358,-0.035357,0.014765,0.119031
1166,354330368,-0.503982,0.448989,0.619612,0.400661,0.333652,-0.000247,0.128390
1167,354363702,-0.505862,0.445388,0.623238,0.396666,0.443182,-0.001688,0.121535
1168,354397036,-0.507585,0.442472,0.626022,0.393330,0.258339,-0.075596,0.208655
1169,354430370,-0.509331,0.439925,0.628130,0.390560,-0.159877,-0.118089,0.168662
1170,354463704,-0.511254,0.436968,0.630589,0.387392,-0.521141,-0.009751,0.086531
1171,354497038,-0.514036,0.432722,0.634271,0.382433,-0.571062,0.023499,0.093733
1172,354530372,-0.517355,0.427092,0.639169,0.376079,-0.464628,0.148787,0.071648
1173,354563706,-0.521504,0.419852,0.645360,0.367838,-0.252564,0.116190,0.125825
1174,354597040,-0.525873,0.411957,0.651994,0.358734,0.051111,0.221506,0.134967
1175,354630374,-0.530152,0.403850,0.658723,0.349234,0.119286,0.185025,0.120661
1176,354663708,-0.533910,0.396039,0.665122,0.340208,0.354848,0.065555,0.220848
1177,354697042,-0.537347,0.388780,0.670768,0.331987,0.097309,0.221729,0.184847
1178,354730376,-0.540721,0.381717,0.675877,0.324250,0.353050,0.102250,0.151215
1179,354763710,-0.543312,0.376303,0.679578,0.318460,0.388204,0.122483,0.177954
1180,354797044,-0.545288,0.372403,0.681759,0.314988,0.320235,0.135692,0.196459
1181,354830378,-0.547339,0.368998,0.683238,0.312221,0.205274,0.082239,0.181239
1182,354863712,-0.549052,0.366435,0.684236,0.310039,0.013466,-0.023024,0.163634
1183,354897046,-0.550398,0.364299,0.684914,0.308670,0.036746,-0.134199,0.185668
1184,354930380,-0.551485,0.362609,0.685381,0.307683,0.074021,-0.347771,0.075991
1185,354963714,-0.552227,0.361462,0.685655,0.307090,0.115140,-0.500406,0.157084
1186,354997048,-0.552635,0.360968,0.685485,0.307316,0.184594,-0.480912,0.203767
1187,355030382,-0.552938,0.361095,0.684558,0.308683,0.271735,-0.382421,0.166280
1188,355063716,-0.552852,0.362281,0.682818,0.311293,0.145022,-0.468080,0.151562
1189,355097050,-0.552333,0.364503,0.680257,0.315202,0.142071,-0.492558,0.116232
1190,355130384,-0.551134,0.367754,0.677108,0.320266,-0.169125,-0.500433,0.008259
1191,355163718,-0.549559,0.371244,0.674089,0.325274,-0.291243,-0.487297,0.106711
1192,355197052,-0.547760,0.374520,0.671581,0.329711,-0.414435,-0.307582,0.077641
1193,355230386,-0.545521,0.377552,0.670134,0.332893,-0.145628,-0.424349,0.120926
1194,355263720,-0.543046,0.380756,0.668911,0.335738,0.191616,-0.235594,0.107723
1195,355297054,-0.540551,0.384513,0.666994,0.339279,0.247805,0.001726,0.158657
1196,355330388,-0.537716,0.389067,0.664292,0.343862,0.172208,-0.024202,0.068521
1197,355363722,-0.534265,0.394552,0.660904,0.349474,0.113777,-0.189665,0.138438
1198,355397056,-0.530302,0.400882,0.656674,0.356216,-0.027995,-0.259176,0.174304
1199,355430390,-0.526111,0.407557,0.651950,0.363458,-0.049619,-0.291100,0.120640
1200,355463724,-0.521811,0.413984,0.647570,0.370161,-0.036650,-0.312484,0.120952
1201,355497058,-0.517800,0.419827,0.643929,0.375528,-0.162234,-0.063829,0.047956
1202,355530392,-0.514337,0.425092,0.640676,0.379903,-0.130971,0.163038,0.205190
1203,355563726,-0.511205,0.429979,0.637241,0.384381,0.227766,0.538533,0.248834
1204,355597060,-0.508710,0.434350,0.633697,0.388611,0.400931,0.693354,0.235718
1205,355630394,-0.507036,0.438046,0.630014,0.392617,0.430806,0.697075,0.165347
1206,355663728,-0.505583,0.441357,0.626417,0.396520,0.300733,0.473364,0.174238
1207,355697062,-0.504481,0.444185,0.623064,0.400032,-0.027303,0.319746,0.078312
1208,355730396,-0.504123,0.445928,0.620426,0.402636,-0.203721,0.189828,0.119572
1209,355763730,-0.503993,0.446725,0.619072,0.403998,-0.343011,0.217986,0.028505
1210,355797064,-0.504156,0.446690,0.618924,0.404059,-0.340940,0.222096,0.045893
1211,355830398,-0.504591,0.445956,0.619567,0.403341,-0.197928,0.169600,0.098095
1212,355863732,-0.505062,0.444953,0.620619,0.402240,0.053811,-0.010075,0.130701
1213,355897066,-0.505604,0.443995,0.621277,0.401601,0.217613,-0.088720,0.223223
1214,355930400,-0.506276,0.443119,0.621393,0.401544,0.209170,-0.140744,0.086141
1215,355963734,-0.506920,0.442406,0.621391,0.401520,-0.003159,-0.160702,0.159069
1216,355997068,-0.507608,0.441659,0.621514,0.401283,-0.231232,-0.008648,0.076538
1217,356030402,-0.508656,0.440156,0.622476,0.400115,-0.400426,0.096564,0.070807
1218,356063736,-0.510125,0.437524,0.624686,0.397680,-0.197483,0.153683,0.105114
1219,356097070,-0.511984,0.433914,0.628036,0.393952,-0.148814,0.361821,0.078307
1220,356130404,-0.514338,0.429329,0.632365,0.388952,-0.043710,0.386253,0.122476
1221,356163738,-0.517364,0.423647,0.637460,0.382804,-0.194171,0.431988,0.106225
1222,356197072,-0.521062,0.416801,0.643531,0.375067,-0.150135,0.228730,0.092000
1223,356230406,-0.524725,0.409492,0.650005,0.366757,0.042836,-0.029794,0.176797
1224,356263740,-0.528257,0.402342,0.656096,0.358664,0.276159,-0.020657,0.161256
1225,356297074,-0.531064,0.396355,0.661259,0.351635,0.151595,0.022458,0.108293
1226,356330408,-0.533368,0.390952,0.666094,0.345007,0.144488,-0.050482,0.137821
1227,356363742,-0.535546,0.385860,0.670568,0.338641,0.047237,0.118383,0.233361
1228,356397076,-0.537791,0.380913,0.674339,0.333150,0.121589,0.261211,0.217408
1229,356430410,-0.540305,0.375996,0.677431,0.328361,0.101806,0.207653,0.226505
1230,356463744,-0.542641,0.371650,0.679853,0.324426,0.266762,-0.044721,0.174696
1231,356497078,-0.544340,0.368575,0.681289,0.322067,0.341220,-0.332475,0.137039
1232,356530412,-0.545351,0.366977,0.681655,0.321409,0.274798,-0.529946,0.126287
1233,356563746,-0.545995,0.366478,0.681005,0.322260,0.248856,-0.624608,0.179127
1234,356597080,-0.546323,0.366886,0.679711,0.323968,0.174137,-0.745009,0.181707
1235,356630414,-0.546378,0.368115,0.677945,0.326174,0.190478,-0.762550,0.121518
1236,356663748,-0.546060,0.370218,0.675480,0.329425,-0.019408,-0.519118,0.088593
1237,356697082,-0.545265,0.372818,0.673015,0.332836,-0.071445,-0.440994,0.055430
1238,356730416,-0.543750,0.375997,0.670660,0.336473,-0.191643,-0.258003,0.113745
1239,356763750,-0.542302,0.378832,0.668824,0.339271,-0.127683,-0.140064,0.111139
1240,356797084,-0.540866,0.381632,0.667021,0.341964,0.142095,0.002763,0.103494
1241,356830418,-0.539325,0.384864,0.664723,0.345236,0.296094,0.091276,0.183009
1242,356863752,-0.537573,0.388860,0.661671,0.349329,0.102467,0.122177,0.119771
1243,356897086,-0.535400,0.393580,0.658026,0.354232,0.096715,0.060615,0.139336
1244,356930420,-0.532435,0.399296,0.653605,0.360433,-0.011693,-0.059939,0.140185
1245,356963754,-0.529208,0.405225,0.648723,0.367323,-0.172077,-0.067698,0.152516
1246,356997088,-0.525976,0.410805,0.644117,0.373817,-0.100356,-0.089455,0.114347
1247,357030422,-0.522544,0.416179,0.639834,0.379989,-0.024855,-0.196687,0.092017
1248,357063756,-0.519316,0.421155,0.635936,0.385437,0.064965,-0.173807,0.153938
1249,357097090,-0.516335,0.426071,0.632101,0.390316,0.119463,-0.104906,0.111128
1250,357130424,-0.513638,0.430733,0.628230,0.394980,0.033983,-0.072741,0.189649
1251,357163758,-0.511461,0.434825,0.624576,0.399096,0.139926,-0.026583,0.196516
1252,357197092,-0.509414,0.438897,0.620717,0.403253,0.007498,0.195157,0.140920
1253,357230426,-0.507742,0.442542,0.616924,0.407181,0.023473,0.312365,0.135730
1254,357263760,-0.506381,0.445672,0.613408,0.410757,0.142017,0.400864,0.144300
1255,357297094,-0.504992,0.448678,0.610274,0.413851,0.049505,0.326114,0.064880
1256,357330428,-0.503876,0.451128,0.607600,0.416474,-0.010024,0.293482,0.191539
1257,357363762,-0.503426,0.452752,0.605536,0.418259,-0.146257,0.403856,0.076115
1258,357397096,-0.503137,0.453691,0.604415,0.419210,-0.064957,0.367127,0.072595
1259,357430430,-0.502966,0.454009,0.604273,0.419275,-0.117925,0.266650,0.063841
1260,357463764,-0.503485,0.453430,0.605018,0.418203,-0.043836,0.209786,0.138993
1261,357497098,-0.504219,0.452510,0.606228,0.416561,-0.134554,0.330574,0.142034
1262,357530432,-0.505271,0.451117,0.607962,0.414262,-0.070100,0.148930,0.131345
1263,357563766,-0.506365,0.449400,0.609915,0.411915,0.025389,0.175168,0.096780
1264,357597100,-0.507549,0.447538,0.611942,0.409472,0.009382,0.023099,0.095570
1265,357630434,-0.508651,0.445756,0.613673,0.407453,-0.053894,-0.015437,0.164027
1266,357663768,-0.510111,0.443643,0.615485,0.405194,-0.169507,0.002110,0.082693
1267,357697102,-0.511998,0.440733,0.617972,0.402194,-0.186657,0.125073,0.114612
1268,357730436,-0.514720,0.436380,0.621675,0.397734,-0.371591,0.262839,0.062099
1269,357763770,-0.518572,0.430289,0.627078,0.390825,-0.381533,0.060064,0.106415
1270,357797104,-0.522507,0.423454,0.633351,0.382852,0.030983,0.068556,0.072345
1271,357830438,-0.526066,0.416693,0.639696,0.374763,-0.006622,0.270713,0.129612
1272,357863772,-0.529902,0.409468,0.646219,0.366030,0.067297,0.201439,0.189039
1273,357897106,-0.533063,0.402950,0.652240,0.357902,0.392908,0.115632,0.214851
1274,357930440,-0.535133,0.397807,0.657252,0.351337,0.147093,0.102271,0.151965
1275,357963774,-0.537163,0.392945,0.661498,0.345698,0.262356,-0.021314,0.206714
1276,357997108,-0.539331,0.388273,0.665249,0.340361,0.117098,-0.056785,0.184168
1277,358030442,-0.541323,0.384116,0.668548,0.335416,0.016697,-0.089293,0.119095
1278,358063776,-0.543349,0.380104,0.671401,0.330984,0.103306,-0.068609,0.158498
1279,358097110,-0.545249,0.376487,0.673860,0.326973,0.147827,-0.143767,0.105284
1280,358130444,-0.546393,0.373965,0.675884,0.323762,0.189870,-0.282954,0.153955
1281,358163778,-0.547225,0.372364,0.677118,0.321616,0.119462,-0.153097,0.175734
1282,358197112,-0.547930,0.371321,0.677651,0.320498,0.190993,-0.078032,0.153525
1283,358230446,-0.548305,0.370957,0.677705,0.320164,0.044849,-0.022641,0.182733
1284,358263780,-0.548627,0.370930,0.677440,0.320204,-0.107058,-0.033111,0.146825
1285,358297114,-0.548924,0.370960,0.676915,0.320770,0.092155,-0.082584,0.129189
1286,358330448,-0.549139,0.371055,0.676339,0.321505,-0.062382,-0.158656,0.096717
1287,358363782,-0.549145,0.371191,0.675884,0.322295,-0.057025,-0.275835,0.137295
1288,358397116,-0.549065,0.371397,0.675546,0.322901,-0.089636,-0.353894,0.117902
1289,358430450,-0.548737,0.371715,0.675302,0.323603,0.071687,-0.398337,0.152205
1290,358463784,-0.548142,0.372758,0.674613,0.324846,0.246897,-0.352785,0.133451
1291,358497118,-0.547302,0.374656,0.673055,0.327302,0.239734,-0.264182,0.169390
1292,358530452,-0.546361,0.377081,0.671088,0.330117,0.089797,-0.193399,0.218369
1293,358563786,-0.545324,0.379735,0.668892,0.333231,-0.285831,-0.003890,0.119971
1294,358597120,-0.544469,0.381761,0.666958,0.336179,-0.229131,0.074435,0.067904
1295,358630454,-0.543992,0.382776,0.665835,0.338017,-0.152244,0.071726,0.100974
1296,358663788,-0.543463,0.383273,0.665295,0.339366,0.135940,-0.134890,0.125804
1297,358697122,-0.542431,0.384351,0.664624,0.341108,0.310529,-0.120745,0.174517
1298,358730456,-0.541462,0.386102,0.663686,0.342494,0.062066,-0.089496,0.062778
1299,358763790,-0.539841,0.388714,0.662177,0.345010,-0.012478,-0.000121,0.137281
1300,358797124,-0.537933,0.391460,0.660785,0.347545,-0.167740,0.145779,0.135154
1301,358830458,-0.535969,0.394089,0.659580,0.349888,-0.242239,0.186520,0.148106
1302,358863792,-0.533938,0.396684,0.658148,0.352745,-0.011001,0.232241,0.161862
1303,358897126,-0.531628,0.399556,0.656304,0.356409,0.179176,0.129950,0.133835
1304,358930460,-0.529184,0.402786,0.653941,0.360730,0.173232,0.002722,0.170108
1305,358963794,-0.526840,0.406217,0.651228,0.365192,0.241722,-0.149369,0.179895
1306,358997128,-0.524452,0.409942,0.647911,0.370332,0.127267,-0.148803,0.136672
1307,359030462,-0.521970,0.413691,0.644470,0.375636,0.086888,-0.243275,0.131957
1308,359063796,-0.519447,0.417404,0.641383,0.380281,0.073193,-0.417614,0.136075
1309,359097130,-0.516753,0.421498,0.638332,0.384543,-0.032154,-0.447715,0.034226
1310,359130464,-0.513963,0.425702,0.635293,0.388663,-0.125630,-0.353039,0.117093
1311,359163798,-0.511512,0.429698,0.632498,0.392044,-0.205478,-0.123369,0.062036
1312,359197132,-0.509231,0.433338,0.630177,0.394735,-0.020799,0.016868,0.162552
1313,359230466,-0.507553,0.436205,0.628301,0.396722,0.160483,0.127111,0.132204
1314,359263800,-0.506531,0.438501,0.626439,0.398440,0.159120,0.372110,0.180114
1315,359297134,-0.505895,0.440282,0.624711,0.399993,0.130142,0.521010,0.176742
1316,359330468,-0.505570,0.441513,0.623487,0.400955,0.151714,0.408607,0.126017
1317,359363802,-0.505377,0.442337,0.622628,0.401626,0.209025,0.236674,0.140032
1318,359397136,-0.505610,0.442680,0.622100,0.401772,-0.079691,0.212036,0.101048
1319,359430470,-0.506116,0.442471,0.622109,0.401351,-0.093840,0.133018,0.100638
1320,359463804,-0.506503,0.442048,0.622649,0.400490,-0.136049,0.164300,0.116758
1321,359497138,-0.507063,0.441337,0.623474,0.399281,-0.140069,0.247497,0.145565
1322,359530472,-0.507789,0.440198,0.624674,0.397737,-0.026768,0.132658,0.146575
1323,359563806,-0.508655,0.438844,0.626014,0.396016,0.013036,0.083758,0.123676
1324,359597140,-0.509379,0.437689,0.627126,0.394602,0.143564,-0.030510,0.146142
1325,359630474,-0.509934,0.436855,0.627719,0.393866,0.036889,0.014589,0.141883
1326,359663808,-0.510981,0.435652,0.628399,0.392756,-0.136154,0.038689,0.143229
1327,359697142,-0.511868,0.434346,0.629280,0.391635,-0.023866,0.053204,0.108392
1328,359730476,-0.512975,0.432616,0.630554,0.390050,-0.037057,0.013764,0.172393
1329,359763810,-0.514634,0.430273,0.632275,0.387663,-0.162653,0.052885,0.112955
1330,359797144,-0.516627,0.427334,0.634658,0.384352,-0.225879,0.170102,0.099690
1331,359830478,-0.518522,0.424044,0.637420,0.380860,0.064297,0.118485,0.212649
1332,359863812,-0.520479,0.420651,0.639971,0.377661,-0.021107,0.312643,0.135366
1333,359897146,-0.522744,0.416923,0.642517,0.374329,-0.025146,0.281470,0.131007
1334,359930480,-0.524989,0.412999,0.645091,0.371094,0.036384,0.067445,0.167480
1335,359963814,-0.527094,0.409119,0.647643,0.367952,-0.035495,-0.182993,0.149741
1336,359997148,-0.529368,0.405247,0.649956,0.364881,0.085978,-0.363657,0.182826
1337,360030482,-0.531570,0.401843,0.651763,0.362212,0.211022,-0.497616,0.092107
1338,360063816,-0.533256,0.399393,0.653214,0.359821,0.236936,-0.617629,0.107394
1339,360097150,-0.534719,0.397651,0.654439,0.357345,0.033211,-0.416845,0.067126
1340,360130484,-0.536009,0.396244,0.655709,0.354636,-0.097441,-0.069951,0.115361
1341,360163818,-0.536944,0.394824,0.657357,0.351743,-0.261277,0.297303,0.066946
1342,360197152,-0.537971,0.392558,0.659984,0.347767,-0.204473,0.523793,0.092000
1343,360230486,-0.539439,0.389276,0.663220,0.342993,-0.072621,0.777729,0.129456
1344,360263820,-0.541277,0.385231,0.666685,0.337911,0.036379,0.783191,0.170522
1345,360297154,-0.543388,0.380661,0.670132,0.332845,-0.030601,0.562380,0.150443
1346,360330488,-0.545720,0.375937,0.673172,0.328232,-0.025955,0.361377,0.131505
1347,360363822,-0.547811,0.371584,0.675645,0.324605,0.177243,-0.021675,0.214911
1348,360397156,-0.549410,0.368096,0.677280,0.322462,0.195892,-0.286134,0.214716
1349,360430490,-0.550515,0.365911,0.677708,0.322165,0.362911,-0.522199,0.187974
1350,360463824,-0.550996,0.365294,0.676805,0.323936,0.482786,-0.748745,0.145167
1351,360497158,-0.550750,0.366459,0.674594,0.327629,0.318820,-0.905012,0.198562
1352,360530492,-0.549757,0.368969,0.671870,0.332047,-0.004768,-0.993422,0.117826
1353,360563826,-0.548485,0.371917,0.669110,0.336406,-0.463802,-0.751721,0.039765
1354,360597160,-0.547395,0.374088,0.667131,0.339691,-0.446955,-0.454043,0.059551
1355,360630494,-0.546095,0.375632,0.666347,0.341610,-0.401107,-0.189173,0.070507
1356,360663828,-0.544679,0.376747,0.666424,0.342494,-0.021074,-0.060818,0.149673
1357,360697162,-0.543575,0.377692,0.666552,0.342958,0.396817,0.065797,0.111331
1358,360730496,-0.542057,0.379690,0.666049,0.344130,0.492819,0.050221,0.210858
1359,360763830,-0.539675,0.383743,0.664063,0.347201,0.330634,0.170523,0.174592
1360,360797164,-0.536862,0.388681,0.661025,0.351835,0.047248,0.275394,0.118295
1361,360830498,-0.533876,0.393659,0.657628,0.357171,-0.281701,0.405404,0.057561
1362,360863832,-0.530800,0.398021,0.654770,0.362137,-0.322697,0.271706,0.161060
1363,360897166,-0.528483,0.401168,0.652440,0.366235,-0.139925,0.086499,0.184952
1364,360930500,-0.526565,0.403679,0.650238,0.370135,-0.077256,-0.120590,0.045834
1365,360963834,-0.524525,0.406210,0.648139,0.373923,0.128661,-0.278652,0.140910
1366,360997168,-0.522048,0.409537,0.645738,0.377894,0.217709,-0.280774,0.189649
1367,361030502,-0.519484,0.413326,0.642730,0.382402,0.181642,-0.177541,0.161020
1368,361063836,-0.516929,0.417358,0.639133,0.387483,0.226646,-0.116540,0.184623
1369,361097170,-0.514366,0.421703,0.635016,0.392918,0.269662,-0.071258,0.218803
1370,361130504,-0.511914,0.426341,0.630312,0.398649,0.265851,-0.072131,0.268626
1371,361163838,-0.509705,0.431139,0.624977,0.404672,0.221304,-0.106446,0.183943
1372,361197172,-0.507518,0.435998,0.619161,0.411104,0.033519,-0.071003,0.137001
1373,361230506,-0.505663,0.440365,0.613602,0.417028,-0.194033,-0.084787,0.110174
1374,361263840,-0.504313,0.443946,0.608620,0.422135,-0.171326,-0.068987,0.068417
1375,361297174,-0.503091,0.447198,0.604079,0.426659,-0.118951,0.008189,0.052838
1376,361330508,-0.501698,0.450289,0.600221,0.430476,-0.101853,0.024973,0.016409
1377,361363842,-0.500176,0.453267,0.597179,0.433342,0.102377,-0.027089,0.072392
1378,361397176,-0.498182,0.456581,0.594252,0.436175,0.183271,0.186365,0.130206
1379,361430510,-0.496324,0.459708,0.591598,0.438610,-0.033746,0.560088,0.054082
1380,361463844,-0.495050,0.461907,0.590003,0.439886,0.061154,0.638382,0.151349
1381,361497178,-0.494214,0.463249,0.589265,0.440404,0.097381,0.729395,0.209787
1382,361530512,-0.494001,0.463660,0.589180,0.440325,0.087333,0.568131,0.142763
1383,361563846,-0.494175,0.463346,0.589629,0.439859,-0.012878,0.237394,0.097857
1384,361597180,-0.494522,0.462838,0.590433,0.438922,-0.129792,-0.052266,0.067185
1385,361630514,-0.494757,0.462324,0.591262,0.438084,-0.248584,-0.178755,0.121809
1386,361663848,-0.495469,0.461314,0.592287,0.436958,-0.265209,-0.197361,0.099784
1387,361697182,-0.496250,0.460196,0.593314,0.435855,-0.187890,-0.337751,0.077311
1388,361730516,-0.497172,0.458976,0.594298,0.434750,-0.079608,-0.382418,0.164119
1389,361763850,-0.498859,0.457079,0.595582,0.433055,-0.180479,0.075613,-0.002065
1390,361797184,-0.501512,0.453780,0.598336,0.429651,-0.257997,0.263355,0.029992
1391,361830518,-0.504632,0.449296,0.602587,0.424741,-0.316850,0.360889,0.123869
1392,361863852,-0.507901,0.443924,0.608113,0.418572,-0.168888,0.413687,0.122684
1393,361897186,-0.511434,0.437838,0.614097,0.411891,0.198104,0.459422,0.233402
1394,361930520,-0.515233,0.431573,0.619669,0.405372,0.529792,0.440753,0.228189
1395,361963854,-0.518786,0.425878,0.624453,0.399479,0.552913,0.286421,0.237727
1396,361997188,-0.521821,0.421104,0.628442,0.394298,0.193716,0.158390,0.138757
1397,362030522,-0.524856,0.416363,0.632238,0.389203,0.025104,0.004887,0.176140
1398,362063856,-0.527438,0.411899,0.635975,0.384344,0.045496,0.000134,0.048164
1399,362097190,-0.529700,0.407355,0.640532,0.378464,-0.489644,-0.105029,0.130828
1400,362130524,-0.532097,0.402155,0.645944,0.371398,-0.270209,-0.113957,0.082201
1401,362163858,-0.533998,0.397179,0.651337,0.364544,0.010489,0.074621,0.114488
1402,362197192,-0.535510,0.392528,0.656466,0.358106,0.197658,0.088780,0.161289
1403,362230526,-0.537049,0.388287,0.660941,0.352142,0.289994,0.127958,0.207797
1404,362263860,-0.538452,0.384940,0.664277,0.347366,0.174364,0.171611,0.148955
1405,362297194,-0.539472,0.382271,0.666832,0.343819,0.192437,0.007680,0.194948
1406,362330528,-0.540485,0.379986,0.668659,0.341201,0.087789,-0.075786,0.182385
1407,362363862,-0.541839,0.377574,0.670128,0.338841,-0.053380,-0.158061,0.098260
1408,362397196,-0.543223,0.375135,0.671530,0.336550,0.212438,-0.276335,0.191021
1409,362430530,-0.544218,0.373625,0.672118,0.335447,0.047181,-0.404683,0.142540
1410,362463864,-0.544880,0.372875,0.672027,0.335389,0.276207,-0.553128,0.168881
1411,362497198,-0.544753,0.373680,0.671157,0.336440,0.267685,-0.769132,0.135098
1412,362530532,-0.543927,0.376021,0.669184,0.339088,-0.026203,-0.787344,0.101635
1413,362563866,-0.542792,0.378934,0.666808,0.342328,-0.081309,-0.656571,0.047309
1414,362597200,-0.541255,0.382208,0.664705,0.345200,-0.233961,-0.427149,0.053419
1415,362630534,-0.539546,0.385312,0.663083,0.347536,-0.214887,-0.235025,0.134152
1416,362663868,-0.538135,0.387916,0.661680,0.349496,0.158294,0.162774,0.225115
1417,362697202,-0.536943,0.390594,0.659912,0.351682,0.199843,0.410916,0.214222
1418,362730536,-0.535874,0.393574,0.657460,0.354572,0.352387,0.342639,0.204320
1419,362763870,-0.534985,0.396824,0.654155,0.358383,0.211521,0.302253,0.183509
1420,362797204,-0.534185,0.400183,0.650300,0.362831,-0.167468,0.202674,0.133259
1421,362830538,-0.533084,0.403643,0.646270,0.367784,-0.315400,0.089201,0.112645
1422,362863872,-0.531507,0.407045,0.642533,0.372831,-0.380009,0.033492,0.076580
1423,362897206,-0.529760,0.410008,0.639303,0.377591,-0.360344,0.050149,0.048641
1424,362930540,-0.527936,0.412618,0.636730,0.381629,-0.081845,-0.024380,0.092319
1425,362963874,-0.525790,0.415438,0.634356,0.385468,0.077212,0.159312,0.169698
1426,362997208,-0.523601,0.418409,0.631724,0.389534,0.131940,0.265259,0.169575
1427,363030542,-0.521326,0.421583,0.628793,0.393881,0.218586,0.157755,0.160625
1428,363063876,-0.519129,0.424943,0.625452,0.398465,0.025812,0.315885,0.185396
1429,363097210,-0.517448,0.427742,0.622198,0.402727,0.110058,0.187189,0.154623
1430,363130544,-0.515804,0.430301,0.618964,0.407072,0.234879,-0.042070,0.189808
1431,363163878,-0.513849,0.433175,0.615804,0.411267,0.080908,-0.278929,0.091041
1432,363197212,-0.511337,0.436580,0.612509,0.415693,0.267910,-0.511359,0.092984
1433,363230546,-0.508115,0.440912,0.608346,0.421150,0.118065,-0.225762,0.085715
1434,363263880,-0.505426,0.444956,0.604476,0.425680,-0.293626,0.082600,0.065921
1435,363297214,-0.503244,0.448271,0.601355,0.429194,-0.124058,0.173826,0.172233
1436,363330548,-0.501028,0.451212,0.598718,0.432379,0.099088,0.215198,0.112445
1437,363363882,-0.499304,0.453573,0.596516,0.434939,0.098055,0.199205,0.081774
1438,363397216,-0.498222,0.455193,0.595041,0.436505,0.174443,0.261098,0.144485
1439,363430550,-0.497582,0.456160,0.594382,0.437125,0.016435,0.564464,0.054418
1440,363463884,-0.497607,0.456101,0.595036,0.436266,-0.003224,0.509948,0.134789
1441,363497218,-0.497697,0.455355,0.596757,0.434588,0.057496,0.338895,0.096483
1442,363530552,-0.498017,0.454028,0.599270,0.432144,-0.056833,0.317477,0.078900
1443,363563886,-0.498785,0.452163,0.602466,0.428757,0.017959,0.197343,0.114538
1444,363597220,-0.499661,0.450059,0.605951,0.425024,-0.020765,0.214362,0.117839
1445,363630554,-0.500915,0.447434,0.609742,0.420877,-0.098258,0.186668,0.176538
1446,363663888,-0.502633,0.444174,0.613738,0.416452,-0.223214,0.095224,0.123797
1447,363697222,-0.504792,0.440233,0.618148,0.411472,-0.153968,-0.161550,0.143159
1448,363730556,-0.506505,0.436534,0.622367,0.406922,0.152960,-0.383252,0.123410
1449,363763890,-0.507913,0.433497,0.625712,0.403269,-0.009070,-0.133130,0.108816
1450,363797224,-0.509368,0.430631,0.628759,0.399750,0.007623,0.016996,0.152989
1451,363830558,-0.510715,0.427869,0.631793,0.396197,0.015661,0.139171,0.168793
1452,363863892,-0.512018,0.424968,0.635086,0.392355,0.020183,0.127284,0.161598
1453,363897226,-0.513550,0.421554,0.638591,0.388325,0.039435,0.197808,0.193105
1454,363930560,-0.515348,0.417761,0.642099,0.384235,0.082738,0.225807,0.123541
1455,363963894,-0.516796,0.414206,0.645417,0.380564,0.147521,0.269953,0.137695
1456,363997228,-0.518299,0.410522,0.648765,0.376801,0.044554,0.193256,0.175915
1457,364030562,-0.520202,0.406404,0.652144,0.372788,-0.021139,0.130801,0.176351
1458,364063896,-0.522684,0.401755,0.655526,0.368397,-0.159309,0.085077,0.122579
1459,364097230,-0.525660,0.396547,0.658789,0.363959,-0.005792,-0.028387,0.148308
1460,364130564,-0.528705,0.391293,0.661733,0.359871,0.069344,-0.165542,0.121824
1461,364163898,-0.531541,0.386561,0.664214,0.356217,0.055201,-0.313403,0.090928
1462,364197232,-0.534323,0.382048,0.666679,0.352299,-0.147255,-0.557703,0.110355
1463,364230566,-0.536835,0.377977,0.669174,0.348115,-0.109079,-0.687737,0.041985
1464,364263900,-0.538471,0.374744,0.671724,0.344149,-0.364337,-0.705037,0.089894
1465,364297234,-0.539745,0.371645,0.674819,0.339426,-0.280529,-0.572732,0.081318
1466,364330568,-0.540644,0.368787,0.678024,0.334694,0.030069,-0.379869,0.115160
1467,364363902,-0.541373,0.366351,0.680887,0.330351,0.232750,-0.052956,0.143840
1468,364397236,-0.541752,0.364701,0.682988,0.327203,0.363490,0.258419,0.186091
1469,364430570,-0.541925,0.363658,0.684454,0.325008,0.433504,0.341457,0.216448
1470,364463904,-0.541761,0.363695,0.684809,0.324490,0.289714,0.355753,0.263852
1471,364497238,-0.541548,0.364321,0.684262,0.325298,0.157200,0.259828,0.198313
1472,364530572,-0.541481,0.365074,0.683039,0.327128,0.266076,0.071996,0.239281
1473,364563906,-0.541398,0.366166,0.681221,0.329826,0.236931,-0.082118,0.176278
1474,364597240,-0.541297,0.367677,0.679030,0.332815,0.101483,-0.268404,0.150686
1475,364630574,-0.541010,0.369522,0.676444,0.336484,-0.004463,-0.349111,0.133353
1476,364663908,-0.540562,0.371390,0.673989,0.340056,-0.135827,-0.393837,0.116315
1477,364697242,-0.540092,0.373040,0.672069,0.342784,-0.210273,-0.440950,0.092496
1478,364730576,-0.539612,0.374464,0.670647,0.344768,-0.097684,-0.437346,0.043304
1479,364763910,-0.538877,0.375976,0.669659,0.346189,-0.058047,-0.381507,0.079628
1480,364797244,-0.537712,0.377809,0.669115,0.347056,0.065610,-0.361531,0.153141
1481,364830578,-0.536144,0.380200,0.668552,0.347955,0.031116,-0.254339,0.090292
1482,364863912,-0.534312,0.382988,0.667829,0.349100,0.177782,-0.120032,0.116026
1483,364897246,-0.532231,0.386416,0.666585,0.350876,-0.022545,0.140359,0.107135
1484,364930580,-0.530070,0.389949,0.664872,0.353479,-0.077379,0.438606,0.162082
1485,364963914,-0.528234,0.392916,0.663283,0.355918,0.050582,0.467757,0.191834
1486,364997248,-0.526563,0.395635,0.661650,0.358414,-0.163511,0.518865,0.143594
1487,365030582,-0.525571,0.397284,0.660406,0.360335,-0.161697,0.389827,0.146276
1488,365063916,-0.525038,0.397977,0.659704,0.361631,-0.035937,0.236531,0.120287
1489,365097250,-0.524557,0.398333,0.659367,0.362550,-0.159472,0.094917,0.079820
1490,365130584,-0.523922,0.398789,0.659061,0.363521,0.005447,-0.000575,0.111075
1491,365163918,-0.522740,0.399870,0.658587,0.364894,-0.034569,0.089003,0.097304
1492,365197252,-0.521647,0.400764,0.658124,0.366308,0.054058,0.216091,0.274844
1493,365230586,-0.520903,0.401256,0.657655,0.367670,0.150619,0.305406,0.116427
1494,365263920,-0.520133,0.401816,0.656945,0.369412,0.229548,0.102635,0.172857
1495,365297254,-0.519233,0.402828,0.655575,0.372000,0.280278,-0.067945,0.166102
1496,365330588,-0.518170,0.404378,0.653722,0.375050,0.190835,-0.246620,0.117030
1497,365363922,-0.516946,0.406301,0.651710,0.378149,0.149710,-0.424732,0.147243
1498,365397256,-0.515766,0.408466,0.649562,0.381112,-0.043238,-0.442112,0.115561
1499,365430590,-0.514620,0.410647,0.647546,0.383741,-0.120085,-0.357434,0.121545
1500,365463924,-0.513508,0.412748,0.645855,0.385820,0.017217,-0.229707,0.091466
1501,365497258,-0.512146,0.415102,0.644234,0.387809,0.109470,-0.092902,0.101309
1502,365530592,-0.510789,0.417403,0.642671,0.389718,0.060359,0.024359,0.123113
1503,365563926,-0.509739,0.419247,0.641408,0.391190,0.008121,0.186885,0.169462
1504,365597260,-0.508997,0.420736,0.640417,0.392181,0.011728,0.176977,0.124380
1505,365630594,-0.508423,0.421937,0.639480,0.393162,-0.006244,0.177546,0.148359
1506,365663928,-0.508371,0.422466,0.638958,0.393510,-0.047194,0.112720,0.163420
1507,365697262,-0.508470,0.422644,0.638667,0.393664,0.066764,0.018274,0.146065
1508,365730596,-0.508621,0.422855,0.638182,0.394029,0.109360,0.009610,0.147373
1509,365763930,-0.508720,0.423223,0.637498,0.394613,-0.033098,-0.019118,0.152765
